Time_s_,Acc_x_m_s_2_,Acc_y_m_s_2_,Acc_z_m_s_2_,Gyro_x_1_s_,Gyro_y_1_s_,Gyro_z_1_s_
0,0.8472142,-1.0715021,-1.4567262,-3.8865554,-11.167254,3.9409192
0.002,0.68248147,-0.9021764,-1.4102172,-3.852706,-11.187443,3.9968956
0.004,0.5074097,-0.7229001,-1.3621359,-3.8142493,-11.206761,4.0588894
0.006,0.32159236,-0.53313124,-1.3121892,-3.7707038,-11.22441,4.127297
0.008,0.12435852,-0.3321763,-1.2603424,-3.7216413,-11.2393,4.202405
0.01,-0.0848504,-0.11960299,-1.2069812,-3.6667917,-11.250252,4.284232
0.012,-0.3062495,0.104920596,-1.1525495,-3.6060522,-11.255973,4.3724394
0.014,-0.5401353,0.34181863,-1.0976068,-3.5395448,-11.25514,4.4663477
0.016,-0.7866755,0.591218,-1.0424188,-3.4676187,-11.246525,4.564938
0.018,-1.0463684,0.85320485,-0.9874662,-3.3908632,-11.229073,4.6669216
0.02,-1.3192704,1.127763,-0.933313,-3.3100493,-11.201973,4.7707963
0.022,-1.6054914,1.4148195,-0.8804282,-3.2260673,-11.164726,4.8750305
0.024,-1.9049802,1.7142435,-0.8293688,-3.13984,-11.117117,4.978156
0.026,-2.2173748,2.0254412,-0.7807884,-3.052287,-11.059221,5.078909
0.028,-2.5423136,2.347744,-0.7353941,-2.9623375,-10.991567,5.1791477
0.03,-2.8794413,2.6804004,-0.6938293,-2.8733532,-10.913989,5.2741194
0.032,-3.2282352,3.0226152,-0.6566998,-2.7856393,-10.827247,5.3639693
0.034,-3.5880728,3.3732762,-0.6246477,-2.6994207,-10.73205,5.4489136
0.036,-3.9584095,3.7311614,-0.5983354,-2.6148727,-10.629061,5.5291295
0.038,-4.3392177,4.095415,-0.57848155,-2.5321422,-10.518923,5.604761
0.04,-4.72985,4.4651227,-0.56603706,-2.451298,-10.402154,5.6758394
0.042,-5.1297693,4.8393593,-0.5619323,-2.3723698,-10.279135,5.7422748
0.044,-5.5380573,5.216987,-0.5668181,-2.2953196,-10.150092,5.803836
0.046,-5.9547014,5.5971136,-0.58147204,-2.2200637,-10.015139,5.8601904
0.048,-6.379539,5.979146,-0.60637414,-2.146474,-9.874225,5.910954
0.05,-6.8114066,6.3616743,-0.6419706,-2.0744255,-9.727183,5.9556932
0.052,-7.2498736,6.7432156,-0.68884563,-2.0038404,-9.573774,5.9939213
0.054,-7.694768,7.1227574,-0.7475679,-1.934713,-9.413824,6.0251718
0.056,-8.156372,7.509136,-0.81875014,-1.8671662,-9.247271,6.049022
0.058,-8.621384,7.889801,-0.9019835,-1.8013164,-9.074006,6.0650496
0.06,-9.089344,8.264581,-0.9981271,-1.7373736,-8.894148,6.072845
0.062,-9.559706,8.63302,-1.1079192,-1.6756383,-8.708012,6.0720057
0.064,-10.031838,8.99484,-1.2319314,-1.6164966,-8.516049,6.0622387
0.066,-10.505577,9.3497,-1.3701097,-1.5603907,-8.318836,6.043404
0.068,-10.979742,9.69704,-1.5224578,-1.5077806,-8.116982,6.015459
0.07,-11.453149,10.036307,-1.6885192,-1.4591004,-7.911086,5.978436
0.072,-11.9245205,10.366799,-1.8675356,-1.4147716,-7.7017612,5.93248
0.074,-12.392665,10.688077,-2.0589485,-1.3751591,-7.489521,5.877847
0.076,-12.85611,10.999525,-2.2619896,-1.340551,-7.274737,5.8148794
0.078,-13.312653,11.300363,-2.4759598,-1.311118,-7.0576453,5.7439647
0.08,-13.760662,11.590117,-2.7005177,-1.2869121,-6.838314,5.665495
0.082,-14.198988,11.8680315,-2.9352512,-1.2678579,-6.616629,5.5798755
0.084,-14.625131,12.133721,-3.1792607,-1.253741,-6.3923793,5.487463
0.086,-15.037153,12.387175,-3.4317849,-1.2442709,-6.1652813,5.3884883
0.088,-15.433867,12.628271,-3.692106,-1.239094,-5.935064,5.2829657
0.09,-15.813465,12.856669,-3.9591584,-1.2378142,-5.7015104,5.1707015
0.092,-16.173943,13.0721245,-4.231698,-1.2400494,-5.4645224,5.0512695
0.094,-16.513756,13.274574,-4.5089774,-1.2454453,-5.2241445,4.924152
0.096,-16.83142,13.464223,-4.7901216,-1.2536747,-4.9805155,4.788798
0.098,-17.125723,13.641254,-5.074853,-1.2644644,-4.7339025,4.6447654
0.1,-17.395212,13.805829,-5.3630857,-1.2776377,-4.4846964,4.4917946
0.102,-17.638853,13.958378,-5.6548486,-1.2930388,-4.233408,4.3298416
0.104,-17.855618,14.099579,-5.9499736,-1.3105941,-3.98061,4.1591554
0.106,-18.044868,14.230225,-6.2478356,-1.3302298,-3.7269437,3.9802294
0.108,-18.205362,14.350948,-6.5490975,-1.3519324,-3.4730964,3.7937071
0.11,-18.336138,14.462482,-6.8540826,-1.3757061,-3.2197835,3.6002967
0.112,-18.436623,14.565929,-7.162915,-1.4015611,-2.967744,3.400681
0.114,-18.506054,14.662095,-7.4763975,-1.4294883,-2.7177215,3.1954534
0.116,-18.5441,14.752032,-7.795237,-1.4594651,-2.470431,2.985051
0.118,-18.549877,14.836739,-8.120262,-1.4914148,-2.2265234,2.769768
0.12,-18.522842,14.91742,-8.452193,-1.525209,-1.9865555,2.5497816
0.122,-18.462389,14.994965,-8.79148,-1.5606716,-1.7510389,2.3252323
0.124,-18.367584,15.070124,-9.1385145,-1.597521,-1.5203221,2.0962846
0.126,-18.237734,15.143881,-9.493856,-1.6353463,-1.2945496,1.8631257
0.128,-18.071644,15.217133,-9.857788,-1.6736504,-1.0737414,1.6260004
0.13,-17.86865,15.2907295,-10.2305155,-1.7118443,-0.85779226,1.385187
0.132,-17.627813,15.365368,-10.61297,-1.7492553,-0.6464815,1.1410502
0.134,-17.347832,15.441263,-11.005205,-1.7851628,-0.43952796,0.893938
0.136,-17.027739,15.518944,-11.4069605,-1.8188529,-0.23660538,0.6441273
0.138,-16.66658,15.5988655,-11.818155,-1.8496135,-0.0372926,0.39186358
0.14,-16.263344,15.6813,-12.238637,-1.8767508,0.15874068,0.137382
0.142,-15.817581,15.766726,-12.668156,-1.8996004,0.35180885,-0.11912235
0.144,-15.327233,15.854944,-13.106253,-1.9175878,0.5421773,-0.37748545
0.146,-14.791193,15.945696,-13.552314,-1.9302351,0.7299973,-0.6376092
0.148,-14.208876,16.038689,-14.005166,-1.9371514,0.9152688,-0.89952606
0.15,-13.5780735,16.132618,-14.463392,-1.9380456,1.097836,-1.1633531
0.152,-12.898845,16.227114,-14.925984,-1.9327363,1.27739,-1.4292939
0.154,-12.171722,16.322128,-15.391873,-1.9210912,1.4534609,-1.6975806
0.156,-11.395567,16.4167,-15.860538,-1.9030364,1.6254675,-1.9684076
0.158,-10.570057,16.50978,-16.3311,-1.8784968,1.7927023,-2.2419605
0.16,-9.69649,16.60131,-16.801807,-1.8474374,1.9543883,-2.5183926
0.162,-8.775476,16.690966,-17.27092,-1.8097789,2.1096952,-2.7977657
0.164,-7.807439,16.777744,-17.736752,-1.7654641,2.2576578,-3.080055
0.166,-6.793549,16.860733,-18.197655,-1.7144555,2.3972483,-3.365073
0.168,-5.7356477,16.93882,-18.65168,-1.6566722,2.5274577,-3.6524587
0.17,-4.6357956,17.010973,-19.096935,-1.5920485,2.6472406,-3.9416578
0.172,-3.4962673,17.076492,-19.531752,-1.5205547,2.75555,-4.232017
0.174,-2.3200321,17.1347,-19.954306,-1.442236,2.8514283,-4.5228143
0.176,-1.1102016,17.18521,-20.362785,-1.3571413,2.9340253,-4.813289
0.178,0.12952995,17.227512,-20.754866,-1.2653822,3.002595,-5.102704
0.18,1.3956006,17.26125,-21.128353,-1.1671139,3.0565767,-5.3902936
0.182,2.6842928,17.286098,-21.481049,-1.0625501,3.0954926,-5.6754127
0.184,3.9915993,17.301882,-21.81052,-0.9519005,3.1190867,-5.9576073
0.186,5.313074,17.30886,-22.114557,-0.8354244,3.127286,-6.2365437
0.188,6.644003,17.307568,-22.391304,-0.7133808,3.1200914,-6.5119824
0.19,7.9803762,17.297974,-22.638824,-0.5860605,3.097591,-6.7837687
0.192,9.3162155,17.281076,-22.8571,-0.4537847,3.0600042,-7.051788
0.194,10.647412,17.258348,-23.04372,-0.3168524,3.007697,-7.3159137
0.196,11.969773,17.231026,-23.196829,-0.17556813,2.9410448,-7.5759864
0.198,13.281187,17.200096,-23.314085,-0.0302063,2.8604603,-7.831841
0.2,14.577885,17.16766,-23.394186,0.11897939,2.7664351,-8.08322
0.202,15.856916,17.135883,-23.436874,0.2716956,2.6594737,-8.329804
0.204,17.115328,17.107244,-23.441698,0.42759418,2.5400486,-8.571192
0.206,18.350052,17.084423,-23.40827,0.5862361,2.4086082,-8.806946
0.208,19.559689,17.069424,-23.33651,0.74705166,2.2656198,-9.036569
0.21,20.743221,17.064148,-23.22686,0.9093217,2.1114986,-9.259553
0.212,21.900259,17.070505,-23.079533,1.0722153,1.9466193,-9.4753685
0.214,23.031015,17.09052,-22.895042,1.2348377,1.7713503,-9.683527
0.216,24.136341,17.126053,-22.67457,1.3962073,1.5860356,-9.883598
0.218,25.217577,17.179365,-22.41813,1.5553439,1.3910269,-10.075284
0.22,26.276627,17.252193,-22.126295,1.7112468,1.1866449,-10.258395
0.222,27.316355,17.346096,-21.79971,1.8631179,0.97351825,-10.432919
0.224,28.338999,17.462784,-21.438717,2.0103128,0.75228137,-10.598789
0.226,29.348082,17.603012,-21.044205,2.152232,0.5235201,-10.755998
0.228,30.347065,17.76719,-20.616371,2.2884057,0.2879026,-10.904522
0.23,31.339413,17.955387,-20.155066,2.4185033,0.04640758,-11.044375
0.232,32.328857,18.167208,-19.660692,2.542379,-0.19978142,-11.175659
0.234,33.31859,18.401905,-19.133247,2.659956,-0.44960153,-11.298536
0.236,34.31209,18.658157,-18.572733,2.7711835,-0.7019799,-11.413162
0.238,35.312675,18.934143,-17.979265,2.876039,-0.9559016,-11.519686
0.24,36.32339,19.227427,-17.352608,2.9745493,-1.2104073,-11.618285
0.242,37.346703,19.53554,-16.691952,3.0667596,-1.464621,-11.709226
0.244,38.3845,19.85572,-15.997345,3.1527781,-1.7178411,-11.7929125
0.246,39.438465,20.184498,-15.268838,3.2326703,-1.9695742,-11.869994
0.248,40.510056,20.518024,-14.505897,3.3064811,-2.2194972,-11.941361
0.25,41.600124,20.852251,-13.708657,3.3742123,-2.4674084,-12.008121
0.252,42.709564,21.182585,-12.87755,3.4357812,-2.7132363,-12.071591
0.254,43.836697,21.505346,-12.013152,3.4910073,-2.9569964,-12.133313
0.256,44.98137,21.816265,-11.116523,3.5396008,-3.1987233,-12.194842
0.258,46.143475,22.1105,-10.189034,3.5811412,-3.4383564,-12.257471
0.26,47.320267,22.384302,-9.232052,3.6150985,-3.6756434,-12.322128
0.262,48.511234,22.63313,-8.246606,3.6408923,-3.9100351,-12.389317
0.264,49.715027,22.852654,-7.2341843,3.6579351,-4.1406717,-12.45905
0.266,50.929123,23.03958,-6.195986,3.6657026,-4.366261,-12.530877
0.268,52.150986,23.190582,-5.1339436,3.6637855,-4.585134,-12.6040745
0.27,53.378815,23.302391,-4.050808,3.6520138,-4.795264,-12.677853
0.272,54.60966,23.372593,-2.9489129,3.6304154,-4.994324,-12.751537
0.274,55.84068,23.399258,-1.8306836,3.5992522,-5.179864,-12.824663
0.276,57.06927,23.38064,-0.6988182,3.5588536,-5.3496666,-12.896998
0.278,58.293327,23.315264,0.44367278,3.5097394,-5.501349,-12.9686165
0.28,59.51093,23.20204,1.5937483,3.4526224,-5.632659,-13.039613
0.282,60.720345,23.04028,2.7482555,3.388226,-5.7418528,-13.110083
0.284,61.92073,22.829805,3.9037266,3.3171985,-5.8277507,-13.179869
0.286,63.111145,22.570595,5.0569105,3.240102,-5.8896155,-13.248481
0.288,64.29085,22.263163,6.204323,3.157486,-5.9269786,-13.315077
0.29,65.45891,21.90843,7.342221,3.0698352,-5.9397855,-13.378485
0.292,66.6147,21.507666,8.466028,2.9775343,-5.9284782,-13.437275
0.294,67.758415,21.061989,9.57086,2.8808508,-5.893857,-13.4899435
0.296,68.89043,20.572794,10.6518345,2.7799072,-5.8369846,-13.53493
0.298,70.01123,20.0415,11.704401,2.6747527,-5.7590823,-13.5707245
0.3,71.12112,19.470108,12.724126,2.565347,-5.661469,-13.595938
0.302,72.22242,18.859976,13.708275,2.4515817,-5.5454807,-13.60942
0.304,73.31482,18.212873,14.651455,2.333289,-5.4123707,-13.610225
0.306,74.398186,17.531235,15.548927,2.2102604,-5.2633543,-13.597725
0.308,75.47112,16.81784,16.396378,2.0822802,-5.099501,-13.571447
0.31,76.53424,16.074457,17.190414,1.9491577,-4.9217477,-13.531206
0.312,77.58695,15.3033905,17.92834,1.8107538,-4.7308984,-13.47708
0.314,78.628944,14.50688,18.607994,1.667007,-4.5277114,-13.409407
0.316,79.659454,13.687629,19.227486,1.5178924,-4.3129115,-13.328718
0.318,80.675964,12.848793,19.785658,1.3634565,-4.087125,-13.235648
0.32,81.67609,11.993363,20.282137,1.2038062,-3.850965,-13.130889
0.322,82.65738,11.12412,20.716404,1.039057,-3.6050377,-13.01504
0.324,83.61702,10.243573,21.08823,0.869297,-3.3499901,-12.8885565
0.326,84.55154,9.354306,21.397537,0.6945982,-3.0865352,-12.751652
0.328,85.45685,8.458975,21.645426,0.51501393,-2.8153598,-12.604326
0.33,86.328865,7.5599346,21.833588,0.33057165,-2.537008,-12.446353
0.332,87.16412,6.659124,21.964176,0.14131069,-2.2518342,-12.277421
0.334,87.959366,5.75865,22.039623,-0.05272627,-1.9599057,-12.097225
0.336,88.71082,4.8608785,22.062769,-0.2514739,-1.6609626,-11.905586
0.338,89.41461,3.968532,22.03593,-0.45484436,-1.354551,-11.702519
0.34,90.06769,3.0834312,21.96158,-0.6627611,-1.0401397,-11.488375
0.342,90.66683,2.2080421,21.842613,-0.87521374,-0.7172122,-11.263799
0.344,91.2094,1.344533,21.681843,-1.0923567,-0.38543707,-11.029657
0.346,91.6935,0.49517918,21.481905,-1.3144938,-0.04469572,-10.786965
0.348,92.11717,-0.33758926,21.24521,-1.5420811,0.3049245,-10.53676
0.35,92.479836,-1.1518345,20.973894,-1.7757181,0.6631433,-10.280036
0.352,92.78183,-1.9460812,20.670282,-2.016117,1.029494,-10.017685
0.354,93.02404,-2.7187366,20.337143,-2.2640207,1.4034841,-9.750536
0.356,93.20745,-3.4680748,19.977493,-2.520174,1.7846879,-9.479335
0.358,93.33418,-4.1925697,19.59346,-2.7852285,2.1728027,-9.204846
0.36,93.40692,-4.8909225,19.187363,-3.0597413,2.5677917,-8.927862
0.362,93.429306,-5.56176,18.761581,-3.3441298,2.9698663,-8.649305
0.364,93.40628,-6.204193,18.318253,-3.6387124,3.379358,-8.370274
0.366,93.34313,-6.8169956,17.859776,-3.9437363,3.7966273,-8.092039
0.368,93.24635,-7.3989353,17.387854,-4.2593884,4.222069,-7.816016
0.37,93.12318,-7.9489117,16.903683,-4.585833,4.6559105,-7.54367
0.372,92.98166,-8.465973,16.408424,-4.9232635,5.098213,-7.276557
0.374,92.83037,-8.949169,15.902918,-5.2717953,5.549034,-7.016141
0.376,92.678154,-9.397079,15.388114,-5.6314173,6.008448,-6.7637687
0.378,92.5349,-9.808426,14.864666,-6.0020237,6.4764986,-6.5206842
0.38,92.41065,-10.181324,14.333362,-6.3833876,6.953234,-6.287921
0.382,92.31587,-10.5138855,13.794818,-6.7751703,7.4386263,-6.0661936
0.384,92.26146,-10.804913,13.249895,-7.1770067,7.932374,-5.855895
0.386,92.25785,-11.052567,12.699791,-7.588566,8.433792,-5.657093
0.388,92.31525,-11.254639,12.145497,-8.009608,8.941719,-5.4695296
0.39,92.44351,-11.408325,11.590567,-8.440145,9.454232,-5.292673
0.392,92.651535,-11.509636,11.037189,-8.88055,9.968546,-5.1257663
0.394,92.94833,-11.553661,10.486107,-9.33158,10.481012,-4.9678392
0.396,93.34212,-11.534149,9.938725,-9.794341,10.987116,-4.817646
0.398,93.84146,-11.444141,9.398016,-10.2703285,11.481584,-4.673627
0.4,94.4548,-11.27636,8.867754,-10.761287,11.958635,-4.5338693
0.402,95.18853,-11.019474,8.351059,-11.269108,12.412289,-4.3959894
0.404,96.04556,-10.656021,7.8520565,-11.795689,12.836797,-4.2569594
0.406,97.026184,-10.159821,7.374851,-12.342721,13.226995,-4.1130595
0.408,98.13556,-9.511402,6.9266453,-12.91158,13.578609,-3.9598846
0.41,99.38492,-8.704262,6.4999847,-13.503233,13.8884115,-3.7923946
0.412,100.7941,-7.7361145,6.081852,-14.118124,14.154408,-3.6050484
0.414,102.37381,-6.5910645,5.6707535,-14.756191,14.37579,-3.3919132
0.416,104.1151,-5.23341,5.2810516,-15.416784,14.552943,-3.1469269
0.418,106.009155,-3.6195488,4.928787,-16.098717,14.68723,-2.864049
0.42,108.05797,-1.7320595,4.640621,-16.800337,14.780791,-2.53746
0.422,110.26634,0.43201828,4.401741,-17.519527,14.836572,-2.1618056
0.424,112.6551,2.890356,4.197857,-18.25378,14.858259,-1.7324667
0.426,115.211334,5.688692,4.061096,-19.000406,14.849592,-1.2455564
0.428,117.91826,8.883671,4.0061913,-19.756454,14.814364,-0.69760895
0.43,120.757065,12.496712,3.9836197,-20.51879,14.756743,-0.08501387
0.432,123.78589,16.538548,3.9911728,-21.284155,14.680932,0.5960636
0.434,126.9123,21.098595,3.9680138,-22.04909,14.591541,1.3492956
0.436,130.13428,26.170786,3.9277954,-22.809296,14.493984,2.17833
0.438,133.50298,31.62622,3.823101,-23.559914,14.392735,3.0870557
0.44,137.08408,37.406136,3.6101074,-24.29527,14.293254,4.0784974
0.442,140.86049,43.56683,3.296978,-25.010216,14.199664,5.154468
0.444,144.78473,50.182228,2.968727,-25.701088,14.111993,6.3151445
0.446,148.84792,57.213783,2.7028008,-26.365084,14.027206,7.5574455
0.448,153.0349,64.590225,2.5001678,-26.998806,13.94096,8.87357
0.45,157.34071,72.26389,2.2874756,-27.599842,13.846011,10.25122
0.452,161.75978,80.17143,2.0496712,-28.166924,13.730872,11.672701
0.454,166.25552,88.320435,1.8344498,-28.70081,13.575979,13.11742
0.456,170.87769,96.57115,1.5617943,-29.208279,13.350457,14.563438
0.458,175.6064,104.769775,1.2612944,-29.697529,13.023071,15.986276
0.46,180.3879,112.88438,0.9940009,-30.178576,12.558367,17.358511
0.462,185.17987,120.8106,0.78628826,-30.660995,11.910058,18.657318
0.464,189.95354,128.42233,0.64479065,-31.145891,11.033567,19.864561
0.466,194.71712,135.57047,0.56134033,-31.626396,9.886122,20.966976
0.468,199.45427,142.12769,0.59794235,-32.10201,8.433777,21.977623
0.47,204.14691,147.97046,0.8491936,-32.59242,6.6554937,22.933874
0.472,208.75014,153.0083,1.3941498,-33.099174,4.553961,23.843727
0.474,213.20079,157.17642,2.2991867,-33.61154,2.1297274,24.73177
0.476,217.4671,160.39455,3.6444778,-34.12087,-0.6090765,25.628487
0.478,221.51584,162.59662,5.500183,-34.612495,-3.6325874,26.569641
0.48,225.28818,163.75244,7.919281,-35.05736,-6.874135,27.55685
0.482,228.72333,163.8514,10.954887,-35.443233,-10.270826,28.60913
0.484,231.76167,162.90009,14.6528015,-35.794853,-13.748398,29.717102
0.486,234.33664,160.92838,19.048897,-36.147564,-17.23381,30.842913
0.488,236.36249,157.9927,24.158607,-36.514534,-20.663235,31.923084
0.49,237.7543,154.16805,29.97676,-36.89176,-23.973381,32.850487
0.492,238.44586,149.5417,36.476948,-37.256393,-27.103638,33.50207
0.494,238.3624,144.22409,43.604263,-37.559933,-29.997643,33.74968
0.496,237.4382,138.33649,51.27318,-37.723793,-32.60388,33.468426
0.498,235.61966,132.00586,59.37024,-37.644745,-34.87603,32.559093
0.5,232.86414,125.361984,67.75838,-37.210335,-36.768284,30.969284
0.502,229.14873,118.52942,76.28711,-36.318733,-38.23706,28.699602
0.504,224.47055,111.62483,84.79615,-34.89626,-39.243816,25.800854
0.506,218.84932,104.75981,93.11304,-32.913273,-39.76045,22.372726
0.508,212.32329,98.04023,101.059044,-30.38985,-39.771317,18.554081
0.51,204.95828,91.56421,108.459915,-27.390709,-39.27654,14.507645
0.512,196.84555,85.41687,115.15503,-24.022123,-38.30351,10.407814
0.514,188.0971,79.663376,120.998795,-20.415455,-36.895645,6.428357
0.516,178.8421,74.34503,125.86522,-16.710371,-35.104107,2.7247806
0.518,169.21715,69.50079,129.65259,-13.041964,-32.99186,-0.5707741
0.52,159.3695,65.16819,132.30328,-9.523603,-30.622581,-3.3531818
0.522,149.44952,61.372353,133.78433,-6.23074,-28.059608,-5.5584874
0.524,139.61511,58.111706,134.07803,-3.2000318,-25.360537,-7.152229
0.526,130.03534,55.35978,133.1825,-0.4696498,-22.580418,-8.095646
0.528,120.86464,53.08166,131.12909,1.9347057,-19.75232,-8.404781
0.53,112.23065,51.264545,127.97614,4.0076456,-16.910498,-8.130451
0.532,104.24112,49.894585,123.84833,5.748571,-14.103176,-7.3538136
0.534,96.97216,48.931976,118.876785,7.1574206,-11.39475,-6.1571283
0.536,90.51025,48.306694,113.15954,8.261298,-8.828244,-4.669392
0.538,84.912674,47.943336,106.82764,9.112986,-6.4499693,-3.008171
0.54,80.2047,47.80339,100.06488,9.75796,-4.297366,-1.2843451
0.542,76.324936,47.84794,92.9914,10.222553,-2.396438,0.39765573
0.544,73.33276,47.969696,85.766785,10.539576,-0.76945925,1.955626
0.546,71.15562,48.161705,78.46166,10.752565,0.57305837,3.311057
0.548,69.672356,48.49117,71.19351,10.908135,1.6335442,4.4022675
0.55,68.76486,48.90972,64.04927,11.0479965,2.4293752,5.1920433
0.552,68.39395,49.2697,57.0573,11.205205,2.9896479,5.661006
0.554,68.52184,49.455048,50.192078,11.403067,3.3448942,5.805681
0.556,69.05567,49.48208,43.46776,11.654496,3.5266113,5.644104
0.558,69.90819,49.38468,36.975403,11.961948,3.5671997,5.217408
0.56,70.985825,49.166344,30.841303,12.318415,3.4984112,4.583166
0.562,72.20486,48.846615,25.098782,12.70677,3.3478994,3.809836
0.564,73.51544,48.39277,19.721588,13.100627,3.1377246,2.9739308
0.566,74.799644,47.918953,14.797993,13.469131,2.8841863,2.1544647
0.568,76.03107,47.51625,10.293411,13.780138,2.595558,1.428287
0.57,77.20993,47.15476,6.1643867,14.002728,2.2730308,0.86710405
0.572,78.31718,46.889946,2.41848,14.11009,1.910569,0.53313637
0.574,79.32219,46.787563,-0.9190674,14.082132,1.4972897,0.47389555
0.576,80.17319,46.916702,-3.818901,13.907095,1.0209794,0.71714544
0.578,80.857834,47.308525,-6.3177185,13.581673,0.4688449,1.2691493
0.58,81.37135,47.98411,-8.45993,13.112137,-0.16989994,2.1137977
0.582,81.73367,48.933064,-10.25441,12.514301,-0.9015206,3.2117648
0.584,81.97052,50.13269,-11.6926,11.811876,-1.7265556,4.5023775
0.586,82.070175,51.584858,-12.779598,11.033858,-2.6394236,5.907815
0.588,82.025635,53.28061,-13.513439,10.211183,-3.6284711,7.3394756
0.59,81.85285,55.184067,-13.885372,9.373694,-4.6767845,8.705414
0.592,81.56325,57.254784,-13.903618,8.548178,-5.7641053,9.91877
0.594,81.159805,59.453125,-13.584904,7.7567654,-6.8690834,10.9054985
0.596,80.64865,61.733,-12.953217,7.016718,-7.9716573,11.611933
0.598,80.048134,64.041664,-12.031544,6.3404927,-9.054468,12.009939
0.6,79.36879,66.328,-10.84486,5.735071,-10.103428,12.095554
0.602,78.60326,68.5475,-9.420498,5.202084,-11.107901,11.886608
0.604,77.7568,70.65178,-7.7828636,4.73927,-12.060525,11.420868
0.606,76.83201,72.599014,-5.9529457,4.3420115,-12.9563,10.751467
0.608,75.82991,74.35637,-3.9511948,4.0046167,-13.791466,9.940212
0.61,74.753784,75.89902,-1.8016815,3.7213912,-14.562552,9.050182
0.612,73.60463,77.21257,0.46777153,3.4872382,-15.265507,8.138817
0.614,72.38284,78.29096,2.8275414,3.2977052,-15.895837,7.252928
0.616,71.089424,79.130875,5.2518053,3.149628,-16.44926,6.4263134
0.618,69.729256,79.73104,7.7176113,3.041429,-16.92226,5.679345
0.62,68.30306,80.09322,10.201908,2.972536,-17.312033,5.019252
0.622,66.81215,80.22329,12.680304,2.9433036,-17.616312,4.4416285
0.624,65.26071,80.135,15.130171,2.9546764,-17.83384,3.9337611
0.626,63.654766,79.84929,17.532024,3.0075283,-17.96465,3.4786391
0.628,62.00144,79.38514,19.866035,3.1027505,-18.009851,3.0587833
0.63,60.304047,78.75889,22.111872,3.2411206,-17.97153,2.6592648
0.632,58.56712,77.98343,24.255808,3.4227402,-17.852293,2.269667
0.634,56.801636,77.06973,26.28507,3.646682,-17.65502,1.8847573
0.636,55.01754,76.02878,28.189436,3.910928,-17.38303,1.5043416
0.638,53.22132,74.87283,29.958076,4.2124496,-17.040215,1.1325061
0.64,51.419155,73.61178,31.577349,4.5474715,-16.63094,0.77635443
0.642,49.61885,72.254776,33.03174,4.9117193,-16.160093,0.44437838
0.644,47.82898,70.81085,34.309204,5.300558,-15.633047,0.14511442
0.646,46.058517,69.29155,35.40263,5.709016,-15.055614,-0.11387825
0.648,44.31594,67.71202,36.309135,6.131882,-14.433988,-0.32675147
0.65,42.610588,66.08649,37.02896,6.563881,-13.774911,-0.4897809
0.652,40.94986,64.42919,37.56469,6.9998455,-13.085771,-0.60138726
0.654,39.340836,62.75444,37.92097,7.434806,-12.37454,-0.6619986
0.656,37.791344,61.07641,38.103695,7.864,-11.649526,-0.67375064
0.658,36.30699,59.410706,38.12144,8.282889,-10.919201,-0.64007974
0.66,34.89319,57.772423,37.983055,8.687113,-10.191984,-0.5652772
0.662,33.55448,56.174866,37.697548,9.072493,-9.475932,-0.45413572
0.664,32.29587,54.628273,37.272556,9.435121,-8.778469,-0.31165695
0.666,31.120152,53.140434,36.71692,9.771436,-8.106186,-0.14301755
0.668,30.027008,51.716785,36.041306,10.078281,-7.4647593,0.04648006
0.67,29.014416,50.36007,35.259018,10.352969,-6.8588805,0.2515347
0.672,28.078701,49.07154,34.384808,10.593368,-6.292165,0.46693838
0.674,27.215897,47.851097,33.43395,10.79792,-5.7671604,0.6875385
0.676,26.422005,46.69805,32.42179,10.965578,-5.285478,0.908098
0.678,25.69271,45.611675,31.36266,11.095925,-4.8478913,1.1235664
0.68,25.023556,44.59124,30.271528,11.189233,-4.454331,1.3291833
0.682,24.409904,43.63624,29.163155,11.24611,-4.1043196,1.520478
0.684,23.847015,42.745277,28.052029,11.26734,-3.7971365,1.6935632
0.686,23.330261,41.915634,26.952263,11.25399,-3.5318162,1.8453083
0.688,22.854507,41.14382,25.877087,11.207335,-3.3074167,1.9733772
0.69,22.414827,40.42504,24.839108,11.128755,-3.1231356,2.0763009
0.692,22.005827,39.75352,23.849672,11.019754,-2.978314,2.153427
0.694,21.622496,39.122456,22.919256,10.881993,-2.8722694,2.204917
0.696,21.26019,38.52441,22.057068,10.717442,-2.804336,2.2317247
0.698,20.914526,37.951145,21.271183,10.528373,-2.7737057,2.2354186
0.7,20.581005,37.39559,20.567019,10.317495,-2.7792525,2.2179422
0.702,20.253735,36.85164,19.948898,10.087953,-2.8193908,2.1814733
0.704,19.930746,36.312065,19.420403,9.843288,-2.8919497,2.1283123
0.706,19.609684,35.770546,18.98353,9.587345,-2.9940317,2.0606658
0.708,19.288101,35.22219,18.638435,9.324144,-3.1220884,1.9806123
0.71,18.963552,34.663326,18.383709,9.057718,-3.2720208,1.8901107
0.712,18.635044,34.090786,18.216614,8.791897,-3.4392474,1.7910373
0.714,18.301926,33.502293,18.133125,8.530216,-3.6188288,1.6851836
0.716,17.964108,32.89651,18.128185,8.27574,-3.8056874,1.574275
0.718,17.621487,32.27251,18.19577,8.030966,-3.994909,1.459872
0.72,17.274408,31.629845,18.329008,7.7977552,-4.181883,1.3434495
0.722,16.92341,30.968723,18.520308,7.5773067,-4.362429,1.2264032
0.724,16.569408,30.289722,18.761621,7.3702707,-4.5329366,1.1099946
0.726,16.213455,29.59404,19.044575,7.176818,-4.690445,0.99529445
0.728,15.856872,28.88314,19.360989,6.996746,-4.832668,0.8832444
0.73,15.500749,28.15903,19.702877,6.829497,-4.9579644,0.77469945
0.732,15.146269,27.424013,20.062307,6.674317,-5.065211,0.6704219
0.734,14.794851,26.680546,20.43146,6.530293,-5.1537533,0.57105696
0.736,14.447606,25.930834,20.803085,6.3964343,-5.223224,0.4771489
0.738,14.105289,25.176994,21.170826,6.2716875,-5.2735558,0.38915306
0.74,13.768695,24.421099,21.529076,6.154966,-5.304945,0.30749997
0.742,13.438862,23.665115,21.873175,6.045186,-5.3177896,0.23256858
0.744,13.115937,22.911154,22.199436,5.9413366,-5.3126845,0.16472039
0.746,12.799946,22.16102,22.50501,5.842575,-5.290445,0.104311116
0.748,12.491056,21.416275,22.787754,5.7482123,-5.252184,0.051675916
0.75,12.189437,20.678467,23.04612,5.657684,-5.1991568,0.006942503
0.752,11.894505,19.9491,23.278786,5.5706124,-5.1327696,-0.029932186
0.754,11.605771,19.229057,23.485115,5.486796,-5.0545673,-0.059086375
0.756,11.322924,18.518896,23.665085,5.4062424,-4.9661827,-0.080752246
0.758,11.04533,17.819023,23.818563,5.329081,-4.869211,-0.09532401
0.76,10.772579,17.129662,23.945915,5.2555118,-4.765054,-0.10333811
0.762,10.504021,16.450949,24.047232,5.1857505,-4.654777,-0.10545565
0.764,10.2390175,15.783104,24.122572,5.119971,-4.5390835,-0.10236067
0.766,9.977275,15.126134,24.171862,5.0581923,-4.4182734,-0.09470832
0.768,9.718103,14.480181,24.19497,5.0002236,-4.292315,-0.08304069
0.77,9.461164,13.845081,24.191978,4.945574,-4.160877,-0.067754954
0.772,9.206848,13.220715,24.161306,4.8934646,-4.0233197,-0.04902689
0.774,8.954721,12.607486,24.103235,4.8428097,-3.8788424,-0.026917286
0.776,8.704445,12.005903,24.017061,4.7922406,-3.726583,-0.0014416985
0.778,8.45627,11.416363,23.902283,4.7401404,-3.5658035,0.02734232
0.78,8.210293,10.839506,23.758242,4.684702,-3.396033,0.059313104
0.782,7.966957,10.27599,23.584204,4.6240835,-3.2171533,0.09421773
0.784,7.7265306,9.726917,23.379486,4.5565314,-3.0294714,0.13164136
0.786,7.4892325,9.193287,23.143826,4.4804306,-2.8338532,0.1710627
0.788,7.2557907,8.676464,22.877268,4.3944325,-2.6317258,0.21196054
0.79,7.026983,8.177681,22.580225,4.2975016,-2.4250474,0.253861
0.792,6.803713,7.6981153,22.253431,4.1889515,-2.2161806,0.29640022
0.794,6.5867715,7.2389884,21.89837,4.068424,-2.0077813,0.33932433
0.796,6.37674,6.801644,21.51683,3.9358406,-1.8026174,0.3824883
0.798,6.1745,6.387086,21.111227,3.7913213,-1.6034372,0.42580155
0.8,5.981002,5.9960604,20.684183,3.6351216,-1.412824,0.46916717
0.802,5.7973137,5.6291676,20.23914,3.4675965,-1.2330648,0.5124623
0.804,5.6241965,5.286861,19.779432,3.2891645,-1.0661117,0.55547386
0.806,5.462369,4.9691577,19.308777,3.1002703,-0.9135282,0.5978269
0.808,5.312515,4.675955,18.831064,2.9013944,-0.77647394,0.6389632
0.81,5.1751876,4.406868,18.350431,2.6930628,-0.65572864,0.67821074
0.812,5.0511904,4.1611457,17.87072,2.475922,-0.5517654,0.7148781
0.814,4.9408484,3.9377632,17.395657,2.2507224,-0.46481735,0.74832237
0.816,4.8446283,3.735474,16.92871,2.0183384,-0.39482003,0.7779769
0.818,4.762768,3.5529535,16.473108,1.7797663,-0.34139228,0.8033575
0.82,4.695522,3.388739,16.031658,1.5361125,-0.30386162,0.8240967
0.822,4.642833,3.241473,15.606743,1.2885666,-0.2812136,0.8399675
0.824,4.6048403,3.109502,15.200389,1.0383904,-0.27213585,0.8508796
0.826,4.581361,2.9911973,14.814178,0.78686285,-0.27509734,0.85685474
0.828,4.5723596,2.8850837,14.449234,0.5352887,-0.28837076,0.85808706
0.83,4.5774918,2.7897007,14.1063,0.28496563,-0.31009895,0.8549214
0.832,4.596556,2.7036655,13.785841,0.037178814,-0.33830982,0.84782887
0.834,4.6289825,2.6258821,13.487877,-0.20682329,-0.37099865,0.8373343
0.836,4.6742535,2.555164,13.212119,-0.4458445,-0.40620232,0.8240272
0.838,4.731868,2.4905193,12.957612,-0.67875993,-0.4420575,0.8085207
0.84,4.8012543,2.4309058,12.723145,-0.90453076,-0.47684628,0.79138464
0.842,4.8817315,2.3756196,12.507696,-1.122238,-0.5090244,0.7731205
0.844,4.97251,2.3241825,12.310148,-1.3311093,-0.53726304,0.75413996
0.846,5.0727687,2.27641,12.128965,-1.5305622,-0.5604795,0.7347501
0.848,5.181759,2.2322602,11.962414,-1.7202058,-0.5778237,0.7151706
0.85,5.298826,2.1919167,11.808431,-1.8998327,-0.58868474,0.6955107
0.852,5.4229755,2.1556327,11.664904,-2.0694165,-0.5926657,0.6757802
0.854,5.5536776,2.1236768,11.529766,-2.229119,-0.58956194,0.6559219
0.856,5.690201,2.0962162,11.401129,-2.379263,-0.57937,0.6358071
0.858,5.8317957,2.0737035,11.277309,-2.520316,-0.5622151,0.61532325
0.86,5.9774637,2.0567067,11.156577,-2.6529036,-0.53839695,0.5943883
0.862,6.126547,2.04577,11.037396,-2.7777746,-0.5083302,0.5729847
0.864,6.2784166,2.0415266,10.918252,-2.8957367,-0.47249508,0.5511766
0.866,6.432094,2.044892,10.797791,-3.0076952,-0.43141174,0.5291111
0.868,6.587035,2.056727,10.674652,-3.1145878,-0.38563097,0.50701475
0.87,6.742543,2.077854,10.547321,-3.2173584,-0.33572745,0.4851436
0.872,6.898359,2.1091576,10.414666,-3.3169336,-0.28224707,0.46376538
0.874,7.0538306,2.151643,10.275351,-3.4141896,-0.22571719,0.44313437
0.876,7.20864,2.2062423,10.128216,-3.5099297,-0.16666079,0.42347312
0.878,7.3627167,2.2739234,9.972075,-3.6048572,-0.10555148,0.40494996
0.88,7.5156,2.3558729,9.805706,-3.6995695,-0.042827487,0.3876996
0.882,7.667323,2.452969,9.628058,-3.7945318,0.021126509,0.37182063
0.884,7.8177595,2.566125,9.437886,-3.8900962,0.08596945,0.35738614
0.886,7.9669375,2.696162,9.2341,-3.986495,0.15138853,0.3444694
0.888,8.114967,2.843876,9.015438,-4.083847,0.21712339,0.33316496
0.89,8.261865,3.0100012,8.780894,-4.1821947,0.28293824,0.32356423
0.892,8.407858,3.1951308,8.529423,-4.281521,0.34864414,0.31576824
0.894,8.553079,3.3996348,8.260061,-4.3817782,0.4140272,0.30990255
0.896,8.69788,3.6239097,7.972,-4.48291,0.47888708,0.30610222
0.898,8.842475,3.8679385,7.664577,-4.584863,0.54300046,0.3044808
0.9,8.986946,4.1318665,7.3373165,-4.6876016,0.60608554,0.3051374
0.902,9.13158,4.415426,6.9900346,-4.7911325,0.6677768,0.30813837
0.904,9.27642,4.718037,6.622772,-4.8955016,0.72758555,0.3135063
0.906,9.42162,5.0389686,6.2359967,-5.0008116,0.7849114,0.3212226
0.908,9.567229,5.3772516,5.8302083,-5.1072016,0.83899474,0.33117896
0.91,9.713214,5.731552,5.406572,-5.2148647,0.8889618,0.34318134
0.912,9.859315,6.100302,4.966105,-5.324023,0.93382883,0.35692325
0.914,10.005478,6.4816318,4.5107107,-5.4348927,0.9725933,0.37197915
0.916,10.151524,6.873453,4.042278,-5.5476766,1.0042636,0.38778466
0.918,10.297202,7.2734256,3.5630703,-5.6625643,1.027914,0.40365306
0.92,10.442198,7.67896,3.0756664,-5.779668,1.0427451,0.41878584
0.922,10.586126,8.08742,2.5828087,-5.8990474,1.048131,0.43231064
0.924,10.728499,8.496084,2.087572,-6.0206795,1.043694,0.44333416
0.926,10.868858,8.90219,1.5931289,-6.1444716,1.0292845,0.45096892
0.928,11.006878,9.302884,1.1027365,-6.2702637,1.005014,0.4544024
0.93,11.142114,9.695472,0.6197243,-6.397847,0.971246,0.45297694
0.932,11.274177,10.077288,0.1475606,-6.5269823,0.9285598,0.4462512
0.934,11.40265,10.445954,-0.31050944,-6.657397,0.8777704,0.43404382
0.936,11.527361,10.799239,-0.75131774,-6.788813,0.81985974,0.41645974
0.938,11.647938,11.135346,-1.1719582,-6.9209213,0.7559917,0.393937
0.94,11.764151,11.452835,-1.5695536,-7.0533695,0.6874633,0.3672217
0.942,11.875828,11.750495,-1.9416325,-7.185755,0.6156459,0.33730483
0.944,11.98271,12.027456,-2.28586,-7.317582,0.54200363,0.30537176
0.946,12.084881,12.283059,-2.600275,-7.44826,0.46802092,0.2727245
0.948,12.182198,12.516966,-2.8830552,-7.5770836,0.39519644,0.24067867
0.95,12.274592,12.729315,-3.1327434,-7.7032666,0.32496643,0.21047008
0.952,12.362064,12.920446,-3.3484483,-7.825921,0.25872922,0.18320012
0.954,12.444729,13.091019,-3.5296035,-7.944044,0.19782376,0.15971744
0.956,12.522555,13.241967,-3.6758184,-8.056574,0.14351392,0.14060915
0.958,12.595607,13.374376,-3.7871747,-8.162404,0.09695268,0.12620056
0.96,12.663841,13.489567,-3.8639917,-8.260416,0.05918479,0.11656165
0.962,12.727341,13.588863,-3.9069,-8.349481,0.031142712,0.111596346
0.964,12.786063,13.673626,-3.9167967,-8.428537,0.013614416,0.111058
0.966,12.840096,13.745312,-3.8948712,-8.496616,0.0072550774,0.11462855
0.968,12.88934,13.80531,-3.842698,-8.552868,0.012557745,0.12198591
0.97,12.933693,13.854992,-3.762076,-8.596569,0.029861927,0.1327846
0.972,12.973034,13.895618,-3.6550226,-8.627176,0.059372187,0.14669013
0.974,13.007331,13.9284935,-3.5237827,-8.644316,0.10117102,0.16342258
0.976,13.036527,13.954622,-3.3709674,-8.6478195,0.15523386,0.18273425
0.978,13.060459,13.975025,-3.1991105,-8.637735,0.22137451,0.20437384
0.98,13.079145,13.990539,-3.0110235,-8.614286,0.2993338,0.22810316
0.982,13.092281,14.002131,-2.8096676,-8.577871,0.38873672,0.25365543
0.984,13.100125,14.010256,-2.5979261,-8.529004,0.48906898,0.28071404
0.986,13.102411,14.015465,-2.3788233,-8.468314,0.59968543,0.30896902
0.988,13.099313,14.018229,-2.1552367,-8.396519,0.7198186,0.33808637
0.99,13.090953,14.018862,-1.9299331,-8.314384,0.8486035,0.36777592
0.992,13.077311,14.017716,-1.7056174,-8.222708,0.9850526,0.39780307
0.994,13.058634,14.014929,-1.4847302,-8.122316,1.1280975,0.42803836
0.996,13.035297,14.010536,-1.2695379,-8.014061,1.2765834,0.45849895
0.998,13.007595,14.004654,-1.0618696,-7.898829,1.4292953,0.48935533
1,12.976168,13.997295,-0.8636036,-7.7775354,1.5850315,0.5209403
1.002,12.941652,13.988348,-0.6761656,-7.6511045,1.742616,0.5536902
1.004,12.904846,13.978004,-0.5008755,-7.5204687,1.9009509,0.58811164
1.006,12.866475,13.966291,-0.33885956,-7.3865433,2.0590506,0.6246915
1.008,12.827348,13.953314,-0.19068241,-7.250188,2.216072,0.66386724
1.01,12.7886505,13.939013,-0.056807518,-7.112161,2.371358,0.7059624
1.012,12.75145,13.923491,0.06245327,-6.9730897,2.5244474,0.75111115
1.014,12.717008,13.906862,0.1671896,-6.8334494,2.6750665,0.7992703
1.016,12.68608,13.889271,0.25758457,-6.693578,2.823109,0.85024047
1.018,12.659953,13.870977,0.33408833,-6.553673,2.9685965,0.90369105
1.02,12.639683,13.852355,0.39723873,-6.4138436,3.111648,0.959178
1.022,12.626499,13.833458,0.44759178,-6.274164,3.2524765,1.016203
1.024,12.621143,13.814679,0.48583698,-6.134678,3.3912833,1.0742786
1.026,12.624425,13.796406,0.5128193,-5.9954844,3.5282683,1.1328984
1.028,12.637026,13.778873,0.52920055,-5.856718,3.6636143,1.1915214
1.03,12.659604,13.762305,0.53562164,-5.718558,3.797466,1.2495947
1.032,12.692622,13.746844,0.5328646,-5.5812187,3.9299517,1.3065641
1.034,12.736497,13.732527,0.52140427,-5.4449797,4.0611696,1.361853
1.036,12.791176,13.719527,0.5018358,-5.3101144,4.191195,1.4148767
1.038,12.856552,13.707966,0.4745102,-5.176931,4.3201256,1.4650724
1.04,12.932561,13.697697,0.43973923,-5.0456896,4.4480505,1.5119108
1.042,13.018772,13.688769,0.3976736,-4.9165998,4.575027,1.5549452
1.044,13.11462,13.680999,0.34853172,-4.789861,4.7010665,1.5938222
1.046,13.219321,13.67426,0.29252625,-4.665628,4.826185,1.628314
1.048,13.332264,13.668269,0.2296753,-4.544007,4.9503655,1.658293
1.05,13.452694,13.662719,0.1599865,-4.4250517,5.0735745,1.6837237
1.052,13.579644,13.657446,0.08328056,-4.308774,5.1957173,1.7046435
1.054,13.712105,13.652324,-0.00040912628,-4.1951623,5.3166537,1.7210952
1.056,13.849012,13.647093,-0.09119892,-4.084201,5.436165,1.733156
1.058,13.989255,13.64147,-0.18914413,-3.975841,5.554004,1.7408783
1.06,14.131966,13.635088,-0.29421234,-3.8700686,5.6698475,1.7443149
1.062,14.276093,13.627543,-0.4062271,-3.7668815,5.7833304,1.7435007
1.064,14.420516,13.618475,-0.52503204,-3.6663246,5.8940597,1.7384431
1.066,14.564405,13.607481,-0.6505499,-3.568464,6.0016527,1.7291808
1.068,14.7067375,13.59428,-0.7824893,-3.4733977,6.1057487,1.7157365
1.07,14.8465395,13.578304,-0.92065334,-3.3812711,6.206025,1.6981308
1.072,14.982913,13.559265,-1.0646567,-3.2922277,6.30227,1.6764315
1.074,15.115103,13.536734,-1.2142019,-3.206423,6.3942924,1.6507359
1.076,15.242363,13.510469,-1.3688521,-3.124022,6.48198,1.6211746
1.078,15.36405,13.479977,-1.5281925,-3.0451772,6.5653706,1.5878886
1.08,15.479551,13.444904,-1.6917033,-2.9700077,6.644563,1.5510614
1.082,15.588233,13.405131,-1.8588095,-2.8986166,6.7196975,1.5109076
1.084,15.689534,13.360301,-2.0290818,-2.8310704,6.7909827,1.4676889
1.086,15.783229,13.310202,-2.2018962,-2.76742,6.8586297,1.4216793
1.088,15.868886,13.254796,-2.3766737,-2.7076824,6.922871,1.3732029
1.09,15.946204,13.193921,-2.5527873,-2.6518705,6.9839187,1.3226242
1.092,16.014894,13.127429,-2.7297869,-2.5999506,7.041968,1.270328
1.094,16.07478,13.0554905,-2.9070349,-2.55187,7.0971775,1.2167033
1.096,16.125835,12.978158,-3.0839503,-2.5075674,7.149661,1.1621047
1.098,16.167753,12.895422,-3.2599657,-2.4669318,7.1994996,1.1068287
1.1,16.200743,12.807392,-3.4346015,-2.4298105,7.246679,1.0511191
1.102,16.224726,12.714352,-3.60723,-2.396043,7.291152,0.9951602
1.104,16.239899,12.616371,-3.7772775,-2.3654418,7.3327956,0.93907857
1.106,16.246284,12.5137005,-3.9442267,-2.3378048,7.371443,0.8829245
1.108,16.244093,12.406475,-4.1074624,-2.3129306,7.4068456,0.8267052
1.11,16.233543,12.294819,-4.2663884,-2.2906127,7.4387197,0.77036417
1.112,16.214788,12.178897,-4.420337,-2.2706819,7.466708,0.7138103
1.114,16.18821,12.058723,-4.5685925,-2.2529688,7.490425,0.6568892
1.116,16.15406,11.934369,-4.710431,-2.237351,7.509434,0.59940505
1.118,16.112886,11.805897,-4.8453064,-2.2237227,7.5232835,0.54115087
1.12,16.064896,11.673379,-4.972603,-2.2120519,7.5315,0.48192006
1.122,16.010326,11.537051,-5.0916514,-2.2023458,7.53365,0.42154443
1.124,15.949642,11.396958,-5.2018595,-2.194633,7.5293407,0.35991257
1.126,15.88347,11.2532425,-5.302686,-2.1890016,7.518244,0.29697788
1.128,15.812097,11.105814,-5.393503,-2.1855664,7.5001445,0.23280995
1.13,15.735907,10.954906,-5.4739075,-2.1844513,7.474924,0.16758142
1.132,15.655413,10.800737,-5.5432568,-2.1857524,7.442566,0.10157412
1.134,15.571108,10.64343,-5.601223,-2.18955,7.4031763,0.035131127
1.136,15.483428,10.483147,-5.647463,-2.1958463,7.357001,-0.03136304
1.138,15.393032,10.320232,-5.681594,-2.2045665,7.304411,-0.09749749
1.14,15.300162,10.155022,-5.7034054,-2.2155216,7.245912,-0.16286531
1.142,15.205601,9.987861,-5.7128973,-2.2284124,7.1821113,-0.22710204
1.144,15.109728,9.81914,-5.7101007,-2.2428293,7.11373,-0.28990075
1.146,15.013124,9.649217,-5.695088,-2.2582967,7.04153,-0.35099095
1.148,14.916258,9.478486,-5.6679225,-2.2742808,6.9663486,-0.41011316
1.15,14.819543,9.307477,-5.6289706,-2.290207,6.889059,-0.46702963
1.152,14.723551,9.136455,-5.578612,-2.3055415,6.810541,-0.5215204
1.154,14.628903,8.965828,-5.5173116,-2.3197758,6.7316566,-0.5734067
1.156,14.535948,8.795887,-5.4458175,-2.3324537,6.6531987,-0.6225605
1.158,14.445007,8.626895,-5.3645935,-2.3431864,6.5759063,-0.6688899
1.16,14.356531,8.459108,-5.274442,-2.3516593,6.500454,-0.71236384
1.162,14.27087,8.292629,-5.1762104,-2.3576257,6.427416,-0.7530056
1.164,14.188452,8.127554,-5.07084,-2.3609061,6.357239,-0.7909104
1.166,14.109314,7.9641504,-4.959221,-2.3613725,6.290263,-0.8262072
1.168,14.0336895,7.8023486,-4.842436,-2.3589416,6.2267275,-0.85907274
1.17,13.961607,7.6421475,-4.7214594,-2.3535705,6.1667824,-0.8897083
1.172,13.893161,7.4835877,-4.597337,-2.3452241,6.1104903,-0.91833067
1.174,13.828308,7.326517,-4.4709125,-2.3338878,6.057853,-0.9451473
1.176,13.766883,7.1708145,-4.3432226,-2.3195636,6.008852,-0.970361
1.178,13.708858,7.0164347,-4.215254,-2.3022592,5.963452,-0.99415576
1.18,13.65395,6.8633466,-4.08794,-2.2819989,5.9216423,-1.0166668
1.182,13.602064,6.7115054,-3.9624765,-2.258833,5.883422,-1.0379937
1.184,13.552739,6.5608134,-3.839653,-2.232835,5.8487964,-1.0581821
1.186,13.505709,6.4113655,-3.7204812,-2.2041287,5.8177605,-1.0772175
1.188,13.46048,6.2632236,-3.6057272,-2.1728575,5.790294,-1.0950266
1.19,13.416924,6.116341,-3.496173,-2.1392093,5.766334,-1.1114945
1.192,13.374569,5.9708714,-3.3924932,-2.1033912,5.745741,-1.1264826
1.194,13.333075,5.8269167,-3.2951493,-2.0656414,5.7282834,-1.1398566
1.196,13.291833,5.684642,-3.2047143,-2.0262208,5.713618,-1.1515038
1.198,13.250651,5.5442076,-3.121613,-1.9854076,5.701279,-1.1613129
1.2,13.209132,5.405872,-3.0461063,-1.9435077,5.6906896,-1.1692209
1.202,13.167099,5.2698364,-2.9783158,-1.9008466,5.681187,-1.1752055
1.204,13.124088,5.136398,-2.918295,-1.8577677,5.6720395,-1.1792748
1.206,13.079929,5.0057516,-2.8658075,-1.8131692,5.662065,-1.1814768
1.208,13.034536,4.8780985,-2.8206906,-1.7693052,5.6511145,-1.1819172
1.21,12.98757,4.75366,-2.782452,-1.7255228,5.6382303,-1.1807425
1.212,12.938983,4.632483,-2.7507272,-1.6819625,5.6228175,-1.1781408
1.214,12.888772,4.514825,-2.7247667,-1.6387086,5.6044006,-1.1743202
1.216,12.836895,4.4006248,-2.7038093,-1.5958319,5.582677,-1.1695213
1.218,12.783446,4.289975,-2.6871953,-1.5534134,5.5575066,-1.1639719
1.22,12.7284775,4.1827526,-2.6738954,-1.5115684,5.528937,-1.1579182
1.222,12.672095,4.0789523,-2.6629772,-1.4704962,5.497189,-1.1515795
1.224,12.614451,3.978412,-2.6536016,-1.4304646,5.462617,-1.1451621
1.226,12.555784,3.8808913,-2.6448245,-1.3918265,5.4256954,-1.1388509
1.228,12.496217,3.7862384,-2.6357512,-1.3549428,5.3869553,-1.132818
1.23,12.436052,3.6941056,-2.6256156,-1.320128,5.3469477,-1.1271675
1.232,12.3755665,3.6040876,-2.6135268,-1.2875996,5.3061953,-1.1219825
1.234,12.314999,3.5159614,-2.5989313,-1.2573729,5.2651715,-1.1172978
1.236,12.254505,3.4293804,-2.581283,-1.2292783,5.2242827,-1.1131032
1.238,12.194389,3.3441463,-2.5600867,-1.2029529,5.183839,-1.109351
1.24,12.134851,3.2597458,-2.5348668,-1.177871,5.144075,-1.1059668
1.242,12.076093,3.1760204,-2.5055404,-1.1534319,5.1051655,-1.1028645
1.244,12.018281,3.092621,-2.471931,-1.129022,5.0672116,-1.0999652
1.246,11.961585,3.0093472,-2.43397,-1.1040843,5.0302973,-1.0971922
1.248,11.906098,2.9260044,-2.391697,-1.0781672,4.994489,-1.0944666
1.25,11.852148,2.8423672,-2.3452244,-1.0509417,4.959835,-1.091754
1.252,11.799622,2.758306,-2.29468,-1.0222208,4.92638,-1.0890398
1.254,11.748726,2.673711,-2.2401633,-0.99192196,4.894157,-1.0863438
1.256,11.699484,2.588506,-2.1820502,-0.9600778,4.863168,-1.083687
1.258,11.652129,2.5026994,-2.1206846,-0.92680424,4.8333907,-1.0810796
1.26,11.606628,2.4162164,-2.0563293,-0.89310783,4.8050327,-1.078533
1.262,11.562994,2.3292391,-1.9891806,-0.8571631,4.7774167,-1.076019
1.264,11.521114,2.2418463,-1.9197621,-0.820533,4.75084,-1.073501
1.266,11.481245,2.1540973,-1.8483424,-0.78337425,4.7251654,-1.0709422
1.268,11.443308,2.0661132,-1.7753959,-0.74586207,4.700234,-1.0683084
1.27,11.407179,1.9780471,-1.701119,-0.7081528,4.6758695,-1.0655777
1.272,11.372852,1.890039,-1.6258626,-0.6704085,4.6518908,-1.0627404
1.274,11.340186,1.8021495,-1.5499568,-0.6327801,4.6280665,-1.0597787
1.276,11.30929,1.7144651,-1.4736743,-0.59539974,4.604178,-1.0566995
1.278,11.280088,1.6272326,-1.3972411,-0.5583998,4.5799837,-1.05351
1.28,11.252501,1.5405276,-1.3209825,-0.52191854,4.555233,-1.0502188
1.282,11.226354,1.4544723,-1.2450609,-0.48610342,4.5296674,-1.0468293
1.284,11.201487,1.3691912,-1.1697946,-0.45112062,4.5030184,-1.0433419
1.286,11.177961,1.2848024,-1.0952501,-0.41713536,4.475042,-1.03975
1.288,11.155438,1.2013888,-1.0214796,-0.38432205,4.4455023,-1.0360365
1.29,11.134045,1.1189342,-0.9486437,-0.35283887,4.4142203,-1.0321822
1.292,11.113289,1.0375705,-0.87670374,-0.32283807,4.3810673,-1.0281935
1.294,11.0932255,0.95734954,-0.80566263,-0.29444945,4.345999,-1.024066
1.296,11.07365,0.8782165,-0.7355962,-0.26777136,4.3090186,-1.0198231
1.298,11.054467,0.80027294,-0.6664448,-0.24286652,4.2702274,-1.0155084
1.3,11.035248,0.7235489,-0.5981693,-0.2197491,4.229786,-1.0111899
1.302,11.016012,0.6479697,-0.5308113,-0.19839633,4.1879025,-1.0069363
1.304,10.996274,0.57359457,-0.46427393,-0.17875719,4.1448565,-1.0028113
1.306,10.975714,0.5004406,-0.39828444,-0.16074133,4.100937,-0.99888897
1.308,10.954458,0.42835426,-0.333004,-0.14423823,4.056444,-0.99521387
1.31,10.932444,0.35731316,-0.2682953,-0.12912095,4.011672,-0.99181736
1.312,10.9094095,0.28728676,-0.20406961,-0.115249276,3.9669123,-0.9886966
1.314,10.88517,0.21823144,-0.14024067,-0.102475286,3.9224403,-0.98581713
1.316,10.8595495,0.15017915,-0.076883316,-0.090643406,3.8784957,-0.9831385
1.318,10.832325,0.083208084,-0.013894081,-0.0796113,3.8353038,-0.9805926
1.32,10.803428,0.017213345,0.04876995,-0.069236636,3.7930582,-0.9781141
1.322,10.77289,-0.047804117,0.11133623,-0.059388876,3.7519472,-0.97561586
1.324,10.740337,-0.111839294,0.17362356,-0.049955487,3.7121363,-0.9730033
1.326,10.705933,-0.17477989,0.23571157,-0.040842056,3.6737626,-0.97020066
1.328,10.669516,-0.23669577,0.29777575,-0.031977892,3.636937,-0.9671333
1.33,10.631082,-0.29762673,0.35978937,-0.02332437,3.6017265,-0.9637048
1.332,10.590756,-0.35762382,0.421762,-0.014856577,3.5681825,-0.9598514
1.334,10.548439,-0.41663313,0.48391485,-0.006563902,3.5363514,-0.95551765
1.336,10.504263,-0.47473717,0.5462513,0.0015634298,3.5063167,-0.9506498
1.338,10.458246,-0.53188753,0.6089158,0.009524703,3.478094,-0.94520175
1.34,10.410482,-0.5881603,0.67201424,0.017311335,3.4516602,-0.9391183
1.342,10.361269,-0.64357376,0.7356105,0.024933219,3.4270296,-0.93238324
1.344,10.310618,-0.6982269,0.79994655,0.032423854,3.404256,-0.92499363
1.346,10.258714,-0.75217295,0.86511946,0.039827347,3.3834074,-0.91695803
1.348,10.205683,-0.8054397,0.9311688,0.047198176,3.3645973,-0.90832955
1.35,10.151941,-0.8581276,0.9981344,0.054596066,3.3479822,-0.89918387
1.352,10.097416,-0.9103203,1.0661206,0.06207812,3.3337522,-0.88958377
1.354,10.042061,-0.96185946,1.1353788,0.069699526,3.3221087,-0.87960607
1.356,9.9864025,-1.0129263,1.2058039,0.077509046,3.3132286,-0.8692982
1.358,9.930769,-1.063596,1.277168,0.08557677,3.3072739,-0.85866827
1.36,9.875391,-1.1138716,1.3494759,0.09396231,3.3043685,-0.8476488
1.362,9.820301,-1.1636848,1.422509,0.10272288,3.3045948,-0.8361162
1.364,9.765802,-1.2129748,1.4960716,0.11192417,3.3079753,-0.8239055
1.366,9.712012,-1.2616079,1.569891,0.12163246,3.3145058,-0.81082416
1.368,9.658952,-1.3096087,1.6437421,0.13188374,3.324137,-0.79668283
1.37,9.606689,-1.3567297,1.7172201,0.14269662,3.336809,-0.7813108
1.372,9.555506,-1.4029446,1.7899227,0.15408993,3.3524258,-0.76459634
1.374,9.505356,-1.4481831,1.8616405,0.16604197,3.3708868,-0.7465074
1.376,9.456152,-1.4921346,1.9319482,0.17851269,3.3920538,-0.72709376
1.378,9.408009,-1.534719,2.0004046,0.19143426,3.4157665,-0.7064606
1.38,9.36092,-1.5757687,2.0664635,0.2047106,3.4418147,-0.6847545
1.382,9.314878,-1.6150732,2.1297863,0.21824741,3.4699204,-0.6621539
1.384,9.269892,-1.6524887,2.1899083,0.23194647,3.4997978,-0.6388631
1.386,9.225876,-1.6877687,2.2463381,0.24566579,3.531069,-0.6150172
1.388,9.182776,-1.7207284,2.2987273,0.2592361,3.563253,-0.5907262
1.39,9.140587,-1.7511585,2.3467593,0.2724471,3.5957837,-0.56607336
1.392,9.099315,-1.7789927,2.3901598,0.2850722,3.6281104,-0.54110396
1.394,9.058981,-1.8039584,2.428661,0.29681718,3.6596448,-0.5158407
1.396,9.019442,-1.8259916,2.4621658,0.30731034,3.6897082,-0.49027205
1.398,8.980777,-1.8448997,2.4905174,0.3161105,3.7176077,-0.4643842
1.4,8.942897,-1.8604655,2.513927,0.32273126,3.7426813,-0.43818676
1.402,8.906015,-1.8727098,2.5324614,0.32666922,3.7642787,-0.4117161
1.404,8.869956,-1.8815982,2.5462992,0.32742667,3.7818453,-0.38503516
1.406,8.8348255,-1.887075,2.555933,0.3245747,3.7948935,-0.35827225
1.408,8.800538,-1.8892229,2.5617502,0.31777442,3.8030653,-0.33158284
1.41,8.767288,-1.8880949,2.5642304,0.30683684,3.8061237,-0.30517334
1.412,8.734859,-1.883868,2.5641165,0.29172397,3.8039527,-0.27926332
1.414,8.703555,-1.8767164,2.5620136,0.27257526,3.796573,-0.25410342
1.416,8.673426,-1.8668396,2.5584621,0.24968088,3.784126,-0.22994047
1.418,8.643852,-1.8543115,2.554445,0.22346997,3.7668936,-0.20699495
1.42,8.614942,-1.8393812,2.5507119,0.19445384,3.7452543,-0.1854591
1.422,8.586686,-1.8223815,2.5478983,0.16320193,3.7196813,-0.16547391
1.424,8.559251,-1.8036494,2.5466208,0.13027358,3.690751,-0.1471206
1.426,8.532415,-1.783427,2.5475826,0.09617782,3.6591043,-0.13039753
1.428,8.506331,-1.7620666,2.5514235,0.06137383,3.6254258,-0.1152395
1.43,8.4808,-1.739691,2.5583925,0.026242852,3.590434,-0.10151154
1.432,8.455724,-1.7165895,2.5689282,-0.008891463,3.5548527,-0.089021474
1.434,8.431212,-1.692939,2.5834336,-0.04377556,3.519384,-0.077510506
1.436,8.407089,-1.66891,2.6021118,-0.07822323,3.4846935,-0.06667614
1.438,8.383457,-1.6446886,2.624836,-0.11207235,3.451336,-0.05618918
1.44,8.360345,-1.6202278,2.6517377,-0.14518166,3.4198265,-0.045732796
1.442,8.337559,-1.5954967,2.682683,-0.17743689,3.3906124,-0.035010695
1.444,8.315229,-1.5706358,2.7174456,-0.2087555,3.3640096,-0.023745447
1.446,8.293385,-1.5453925,2.755868,-0.23909366,3.340222,-0.011711314
1.448,8.271965,-1.5198591,2.7976236,-0.26841772,3.319377,0.0012631565
1.45,8.25109,-1.4939778,2.84251,-0.29670477,3.301526,0.015281126
1.452,8.23057,-1.4675391,2.8901262,-0.32396424,3.286621,0.030394703
1.454,8.210459,-1.4405041,2.9401677,-0.35021198,3.2745721,0.046594605
1.456,8.190825,-1.4126947,2.992374,-0.3754812,3.2652555,0.063837916
1.458,8.171504,-1.38409,3.0464525,-0.39979762,3.2585135,0.08204378
1.46,8.152414,-1.3545127,3.1021996,-0.42319638,3.254197,0.101113394
1.462,8.133716,-1.3240094,3.1594357,-0.44569898,3.252148,0.120939925
1.464,8.115598,-1.2924898,3.2177217,-0.46732205,3.2522407,0.14142376
1.466,8.097461,-1.2597945,3.277028,-0.48806977,3.254377,0.16246015
1.468,8.079137,-1.2258337,3.3373566,-0.50792694,3.2584887,0.18397093
1.47,8.060693,-1.1905298,3.3985205,-0.5268729,3.2645433,0.20589793
1.472,8.042094,-1.1539478,3.4604478,-0.54488456,3.2725413,0.22820011
1.474,8.023232,-1.1159728,3.52287,-0.5619243,3.282514,0.25084996
1.476,8.00425,-1.0767848,3.5857499,-0.57795227,3.2945213,0.27384487
1.478,7.984828,-1.0362005,3.6488662,-0.59292436,3.3086326,0.29719827
1.48,7.965105,-0.9941726,3.7120662,-0.60679466,3.3249383,0.32093704
1.482,7.9448853,-0.9507923,3.7750769,-0.61953217,3.343517,0.3451025
1.484,7.92419,-0.90587234,3.83778,-0.6311268,3.3644555,0.3697509
1.486,7.9029207,-0.85950375,3.8998883,-0.641578,3.3878055,0.39494133
1.488,7.8811126,-0.8115227,3.9611864,-0.6508955,3.4136074,0.42073303
1.49,7.8587685,-0.7619655,4.021368,-0.6591108,3.4418514,0.44719023
1.492,7.8358707,-0.71080184,4.0802107,-0.6662787,3.4725008,0.47435695
1.494,7.8125067,-0.65793276,4.1373515,-0.67246515,3.5054595,0.5022663
1.496,7.788585,-0.6034529,4.192503,-0.67774326,3.5405874,0.5309421
1.498,7.7642694,-0.54732895,4.245378,-0.6822221,3.5776994,0.5603805
1.5,7.739526,-0.48945904,4.295657,-0.6860192,3.6165662,0.5905589
1.502,7.7144284,-0.42983365,4.342974,-0.68928134,3.6568842,0.6214331
1.504,7.689043,-0.3685398,4.387071,-0.6921862,3.698344,0.65295875
1.506,7.6633835,-0.3056333,4.4277015,-0.6949193,3.7406137,0.6850608
1.508,7.637596,-0.24114895,4.4646397,-0.69770885,3.7833405,0.71765995
1.51,7.6116595,-0.17514324,4.4975324,-0.70078677,3.8261628,0.75064754
1.512,7.585515,-0.10767341,4.5263042,-0.704399,3.8687334,0.783909
1.514,7.559275,-0.038733482,4.5508046,-0.7087883,3.910711,0.81732684
1.516,7.5328975,0.031451702,4.570832,-0.7141684,3.9517803,0.8507703
1.518,7.50648,0.102832794,4.586515,-0.72072804,3.99165,0.88411826
1.52,7.479947,0.17532134,4.597763,-0.72862643,4.030037,0.9172402
1.522,7.4533024,0.24887991,4.604649,-0.7379744,4.0667033,0.9500224
1.524,7.4263606,0.32338572,4.607324,-0.74884176,4.1014366,0.9823634
1.526,7.399189,0.39872336,4.6059723,-0.76126117,4.134057,1.0141908
1.528,7.3717117,0.47472787,4.6007686,-0.77523136,4.164436,1.0454499
1.53,7.3439054,0.55137277,4.5918727,-0.790738,4.1924734,1.0761113
1.532,7.315531,0.62855315,4.5796556,-0.80774295,4.218117,1.1061513
1.534,7.2865906,0.7061789,4.5642905,-0.8261968,4.24137,1.1355789
1.536,7.2570534,0.78410256,4.5460324,-0.8460358,4.26227,1.1644138
1.538,7.22672,0.86225593,4.525156,-0.8671972,4.2808905,1.1926671
1.54,7.195751,0.9405147,4.502051,-0.88963133,4.2973537,1.2203499
1.542,7.163971,1.0188874,4.4768443,-0.9132842,4.311795,1.2474813
1.544,7.1312532,1.0972924,4.4497237,-0.93811876,4.3243484,1.2740748
1.546,7.0976815,1.1756077,4.4209223,-0.96409786,4.335144,1.3001417
1.548,7.063118,1.2538832,4.3908243,-0.9911928,4.344313,1.3256845
1.55,7.027495,1.3320786,4.3594213,-1.0194002,4.3519664,1.350702
1.552,6.990922,1.4100196,4.3268933,-1.0487052,4.358207,1.375201
1.554,6.953188,1.4878529,4.2934427,-1.0791124,4.3630943,1.3991741
1.556,6.914369,1.5654402,4.2591176,-1.1106248,4.366691,1.4226364
1.558,6.8744264,1.6428219,4.2241364,-1.143234,4.369012,1.4455808
1.56,6.833286,1.720014,4.1884108,-1.1769385,4.370068,1.4680222
1.562,6.7908854,1.7969227,4.1521244,-1.2117164,4.369871,1.4899775
1.564,6.747176,1.8735168,4.1152773,-1.247538,4.368449,1.5114671
1.566,6.7020483,1.9497833,4.0779333,-1.2843591,4.3658133,1.5325061
1.568,6.6555305,2.025762,4.040205,-1.3221161,4.362005,1.5531003
1.57,6.6074157,2.1014562,4.002045,-1.3607315,4.3570905,1.5732588
1.572,6.5576043,2.1768534,3.9634426,-1.4000908,4.3511553,1.592976
1.574,6.506104,2.2518692,3.9244835,-1.440065,4.3443084,1.6122541
1.576,6.452811,2.3266206,3.8852022,-1.4805163,4.3366947,1.6310894
1.578,6.3977065,2.4011762,3.8454523,-1.5212873,4.328462,1.6494614
1.58,6.340599,2.4755309,3.8051968,-1.5622184,4.3197813,1.6673899
1.582,6.2815647,2.5497766,3.7643733,-1.6031574,4.3108163,1.6848948
1.584,6.2206583,2.624026,3.722919,-1.6439595,4.3017454,1.7020144
1.586,6.157785,2.698375,3.6806374,-1.6845201,4.2927227,1.7188231
1.588,6.0931654,2.772934,3.6373982,-1.7247412,4.28388,1.7354004
1.59,6.026649,2.8477635,3.593093,-1.764558,4.275321,1.7518574
1.592,5.9583654,2.9230697,3.5475302,-1.8039378,4.2671227,1.7683023
1.594,5.8885565,2.9989274,3.5004067,-1.8428752,4.259304,1.7848653
1.596,5.8174133,3.0754924,3.4515595,-1.8813992,4.25185,1.8016509
1.598,5.7449155,3.1528099,3.4007957,-1.9195459,4.2446876,1.8187408
1.6,5.6713333,3.2311544,3.34794,-1.9573812,4.2377152,1.8361917
1.602,5.59701,3.3104646,3.2927227,-1.9949744,4.2307844,1.8540335
1.604,5.5219684,3.3908827,3.2350082,-2.0323982,4.2237034,1.8722342
1.606,5.4465785,3.4724128,3.1746104,-2.0697234,4.216272,1.8907061
1.608,5.3710155,3.5550687,3.1114,-2.107026,4.2082863,1.9093354
1.61,5.2955904,3.6386886,3.045247,-2.1443677,4.1995397,1.9279504
1.612,5.220402,3.7233589,2.9760435,-2.181807,4.1898193,1.9463612
1.614,5.1458144,3.8088946,2.9038453,-2.2193775,4.178932,1.9643661
1.616,5.07181,3.895275,2.828609,-2.2571044,4.1666794,1.9817526
1.618,4.998727,3.9821677,2.7503057,-2.2949986,4.1528754,1.9983324
1.62,4.926563,4.069433,2.6691508,-2.333042,4.1373653,2.013946
1.622,4.8557076,4.1567917,2.5851703,-2.3712237,4.1200113,2.0284507
1.624,4.78607,4.2439585,2.4985437,-2.409501,4.1006923,2.0417604
1.626,4.7177477,4.330783,2.4095368,-2.447844,4.0793166,2.053835
1.628,4.6507783,4.4169273,2.3182487,-2.4861934,4.0558243,2.064659
1.63,4.5851626,4.502105,2.2249746,-2.5244877,4.030179,2.0742643
1.632,4.521028,4.5859733,2.1300225,-2.5626726,4.0024004,2.0827296
1.634,4.4583383,4.668279,2.033588,-2.6006706,3.9725242,2.090133
1.636,4.3971043,4.7488184,1.9360065,-2.6384041,3.9406307,2.0965939
1.638,4.33727,4.8273616,1.8375056,-2.6757965,3.9068165,2.1022434
1.64,4.2786975,4.903639,1.7383486,-2.71274,3.8712165,2.1072125
1.642,4.2215705,4.9774914,1.63872,-2.7491622,3.8339791,2.1116188
1.644,4.1656723,5.0487328,1.5389326,-2.7849808,3.7952743,2.1155791
1.646,4.1109767,5.117297,1.4390972,-2.8200972,3.755262,2.1191723
1.648,4.0573344,5.183061,1.3394048,-2.8544476,3.7141242,2.1224413
1.65,4.0047364,5.2458534,1.2399774,-2.887967,3.6720395,2.125402
1.652,3.9530153,5.3056927,1.1408792,-2.920599,3.6291857,2.1280377
1.654,3.9021168,5.362483,1.0422261,-2.9522939,3.5857306,2.1303005
1.656,3.8517694,5.4163437,0.9440303,-2.9830089,3.5418313,2.1321225
1.658,3.8020365,5.467209,0.8462385,-3.0127034,3.4976425,2.1334333
1.66,3.7527208,5.515052,0.7489034,-3.0413494,3.4532871,2.1341746
1.662,3.7035518,5.56008,0.65192556,-3.0689058,3.4088814,2.1342983
1.664,3.654563,5.602341,0.5551629,-3.095335,3.3645105,2.133781
1.666,3.6052802,5.6419396,0.45851386,-3.1206188,3.3202598,2.132626
1.668,3.5556407,5.679085,0.36176133,-3.144721,3.2761874,2.1308694
1.67,3.5054455,5.7139654,0.2649758,-3.167625,3.2323332,2.128582
1.672,3.4544578,5.746784,0.16788661,-3.1893177,3.188727,2.1258383
1.674,3.4024644,5.777733,0.07041252,-3.209775,3.1453872,2.1227057
1.676,3.3492105,5.806939,-0.027541518,-3.228982,3.1023157,2.1192737
1.678,3.294448,5.8346763,-0.126189,-3.246933,3.0595171,2.1156054
1.68,3.2380636,5.8611245,-0.22554564,-3.2636108,3.0170066,2.1117594
1.682,3.1796877,5.8865867,-0.32559156,-3.279005,2.9747748,2.107781
1.684,3.1191874,5.9111857,-0.42643535,-3.293078,2.9328012,2.1037092
1.686,3.0563946,5.9350934,-0.5281458,-3.3058195,2.8910785,2.099564
1.688,2.9909928,5.9584537,-0.6305034,-3.3172069,2.849567,2.0953743
1.69,2.9228842,5.981519,-0.7335959,-3.3272164,2.80821,2.0911465
1.692,2.8518708,6.004463,-0.83728564,-3.3358288,2.7669332,2.0869093
1.694,2.7777188,6.027357,-0.94132185,-3.343052,2.7256489,2.0826957
1.696,2.7003858,6.0504856,-1.0456047,-3.3488789,2.6842735,2.078555
1.698,2.6198807,6.073826,-1.1499425,-3.35332,2.6427157,2.0745435
1.7,2.5362263,6.097445,-1.254128,-3.356389,2.6009002,2.0707417
1.702,2.4493709,6.1214533,-1.3578998,-3.3581178,2.558735,2.0672317
1.704,2.3593755,6.1457925,-1.461035,-3.3585298,2.5161629,2.0641136
1.706,2.2663262,6.1704535,-1.5633099,-3.3576713,2.473159,2.0614734
1.708,2.1703928,6.1953597,-1.664539,-3.3555834,2.4297235,2.059406
1.71,2.0716622,6.2204266,-1.7644925,-3.3523102,2.385894,2.0579755
1.712,1.970375,6.245589,-1.8629706,-3.3478794,2.3417425,2.0572395
1.714,1.866868,6.270719,-1.959758,-3.3423133,2.2973742,2.0572066
1.716,1.7612957,6.295755,-2.0547347,-3.3356314,2.2529085,2.057841
1.718,1.6540288,6.3205104,-2.147724,-3.3278375,2.2085001,2.0590806
1.72,1.5451537,6.3448606,-2.2386847,-3.3189,2.1643102,2.0608048
1.722,1.4350699,6.3685584,-2.3273814,-3.3087826,2.1205156,2.062855
1.724,1.3240676,6.391517,-2.41392,-3.2974412,2.077288,2.0650618
1.726,1.2125759,6.4135756,-2.498212,-3.284808,2.034803,2.067259
1.728,1.1006743,6.434721,-2.5801895,-3.2708325,1.993202,2.0692992
1.73,0.98870754,6.454746,-2.6599483,-3.2554383,1.9526143,2.0710533
1.732,0.8766141,6.473621,-2.7375126,-3.2385845,1.9131465,2.0724366
1.734,0.76476955,6.49139,-2.812988,-3.220234,1.874861,2.0734234
1.736,0.65320826,6.5079474,-2.8864334,-3.2003703,1.8378252,2.0740447
1.738,0.5419941,6.5233355,-2.9579344,-3.1789896,1.8020693,2.0743704
1.74,0.43123436,6.5377483,-3.0275886,-3.156106,1.7675866,2.074511
1.742,0.3207984,6.551235,-3.095586,-3.1317596,1.734374,2.0746007
1.744,0.21070743,6.5640125,-3.1620317,-3.1060102,1.7024257,2.0747747
1.746,0.100767374,6.576259,-3.2269864,-3.0789146,1.6717333,2.0751615
1.748,-0.00906539,6.588143,-3.2906606,-3.0505419,1.6422831,2.0758698
1.75,-0.118961096,6.600093,-3.353154,-3.020976,1.6140729,2.076995
1.752,-0.22905898,6.6122336,-3.414619,-2.9902952,1.5871153,2.0786114
1.754,-0.3395419,6.6248183,-3.475271,-2.9585743,1.5614291,2.0807712
1.756,-0.450603,6.6381025,-3.5352464,-2.925879,1.537065,2.083517
1.758,-0.5624049,6.6522636,-3.5947459,-2.8922746,1.5140588,2.086864
1.76,-0.6752229,6.6676507,-3.6539586,-2.8578155,1.4924356,2.090834
1.762,-0.7892237,6.684213,-3.7129803,-2.8225398,1.4722177,2.0954106
1.764,-0.90454626,6.702215,-3.7719467,-2.786484,1.453398,2.1005785
1.766,-1.0211532,6.7217274,-3.8311918,-2.7496817,1.4359682,2.106295
1.768,-1.139296,6.742839,-3.8907201,-2.7121575,1.4199098,2.1125054
1.77,-1.259289,6.7656536,-3.950589,-2.673924,1.4051601,2.119138
1.772,-1.3808062,6.7900105,-4.010879,-2.635011,1.3916585,2.1261096
1.774,-1.5041299,6.8157783,-4.071644,-2.5954394,1.3793323,2.133338
1.776,-1.6290109,6.84279,-4.132886,-2.555232,1.3681054,2.1407278
1.778,-1.7553909,6.8708754,-4.194673,-2.5144095,1.357922,2.1481917
1.78,-1.8831344,6.8997817,-4.2570367,-2.4730005,1.3487201,2.1556349
1.782,-2.0119648,6.929223,-4.319933,-2.4310212,1.3404664,2.1629922
1.784,-2.1417491,6.9589243,-4.383335,-2.3884983,1.333145,2.1701944
1.786,-2.272182,6.9885798,-4.4471703,-2.3454182,1.3267562,2.1771896
1.788,-2.4030476,7.0179367,-4.5113497,-2.3017876,1.3213336,2.1839197
1.79,-2.53407,7.046571,-4.575851,-2.2576025,1.3169216,2.1903126
1.792,-2.6647468,7.074171,-4.6406116,-2.2128422,1.3135962,2.1963058
1.794,-2.7947454,7.1002417,-4.705596,-2.1674721,1.3114651,2.2017968
1.796,-2.9237568,7.1245046,-4.770814,-2.12146,1.3106253,2.2066762
1.798,-3.0515034,7.1466885,-4.8362417,-2.0747476,1.3111558,2.210846
1.8,-3.177594,7.1663375,-4.9018316,-2.0272765,1.3131764,2.214149
1.802,-3.3016462,7.183217,-4.9676914,-1.9789943,1.3167697,2.2164414
1.804,-3.4234042,7.1969695,-5.0339613,-1.9298651,1.3219587,2.2175972
1.806,-3.5425699,7.2073746,-5.1005406,-1.8798748,1.3287307,2.2175226
1.808,-3.6587155,7.214183,-5.1676197,-1.8290144,1.3370458,2.2161665
1.81,-3.7718716,7.2173033,-5.2352448,-1.77728,1.3468171,2.2135117
1.812,-3.881898,7.216479,-5.303478,-1.7247148,1.3579293,2.209559
1.814,-3.988679,7.211688,-5.372416,-1.6713917,1.3702364,2.204336
1.816,-4.09214,7.2030005,-5.442077,-1.6174047,1.3835613,2.1978896
1.818,-4.1919994,7.190459,-5.512638,-1.5628817,1.3977487,2.1902835
1.82,-4.2882,7.1741486,-5.5841494,-1.5079718,1.412601,2.1815772
1.822,-4.3809614,7.154215,-5.6566277,-1.4528472,1.4279088,2.1718295
1.824,-4.4701185,7.130671,-5.7301316,-1.3977039,1.4434644,2.1610963
1.826,-4.5556827,7.103743,-5.804613,-1.3427297,1.459041,2.149439
1.828,-4.6378016,7.0736547,-5.8801436,-1.2880985,1.474403,2.136915
1.83,-4.7163296,7.0405855,-5.9564924,-1.2339698,1.4892923,2.1235826
1.832,-4.791431,7.004783,-6.0337305,-1.1804831,1.5034438,2.109474
1.834,-4.8632436,6.966555,-6.1116285,-1.1277411,1.5165882,2.0946107
1.836,-4.9318247,6.9260883,-6.1900854,-1.0758176,1.5284841,2.078987
1.838,-4.997185,6.883589,-6.269027,-1.0247465,1.5389241,2.0625565
1.84,-5.059441,6.8394446,-6.3481035,-0.97457576,1.5476756,2.0452297
1.842,-5.118596,6.7939153,-6.4271345,-0.9253371,1.5545303,2.0269294
1.844,-5.1747518,6.7472596,-6.5058837,-0.8770748,1.5593145,2.0075984
1.846,-5.2279463,6.699782,-6.584174,-0.8298236,1.5619187,1.9871907
1.848,-5.2782216,6.651764,-6.6617193,-0.78361964,1.5622504,1.9656774
1.85,-5.3257165,6.6033845,-6.7381873,-0.7384918,1.5602567,1.9430399
1.852,-5.370383,6.555033,-6.813336,-0.6944939,1.555912,1.9193015
1.854,-5.4123063,6.5069337,-6.886814,-0.65166694,1.5491662,1.8945689
1.856,-5.451436,6.459216,-6.958553,-0.61005795,1.540013,1.8689674
1.858,-5.487846,6.4122252,-7.0281453,-0.5697011,1.5284922,1.8426477
1.86,-5.521653,6.365985,-7.095404,-0.53063256,1.5146343,1.8157656
1.862,-5.552803,6.320775,-7.1601086,-0.49288094,1.4984883,1.788482
1.864,-5.5812144,6.276691,-7.222019,-0.45646405,1.4801242,1.7609446
1.866,-5.606972,6.233887,-7.280923,-0.42135793,1.45962,1.7332551
1.868,-5.630015,6.192434,-7.336793,-0.38749516,1.4370973,1.7054535
1.87,-5.6503773,6.1523004,-7.3893003,-0.35478145,1.4127005,1.6774955
1.872,-5.667912,6.1134953,-7.4385347,-0.32306242,1.3865662,1.6492755
1.874,-5.682804,6.0759974,-7.484459,-0.29216877,1.3588616,1.6206367
1.876,-5.694953,6.0396433,-7.526795,-0.26188412,1.3297532,1.591389
1.878,-5.704442,6.0043874,-7.5656867,-0.23199187,1.2993972,1.561334
1.88,-5.711096,5.970048,-7.6010976,-0.20230007,1.2679442,1.5303164
1.882,-5.7150493,5.9365396,-7.6329207,-0.17264846,1.2355224,1.4982221
1.884,-5.7162647,5.903755,-7.661246,-0.14290796,1.202255,1.465006
1.886,-5.714896,5.871583,-7.6860437,-0.11298631,1.1682603,1.430686
1.888,-5.710858,5.8397355,-7.7073407,-0.08285407,1.1336305,1.395332
1.89,-5.704379,5.808148,-7.7252226,-0.05252017,1.0984367,1.3590447
1.892,-5.6954536,5.776629,-7.739666,-0.022013456,1.0627569,1.321966
1.894,-5.684065,5.745116,-7.750806,0.008631915,1.0266801,1.2842305
1.896,-5.6703014,5.713451,-7.7587094,0.03936588,0.9903031,1.2459334
1.898,-5.654248,5.681409,-7.7634845,0.07014639,0.953687,1.2071245
1.9,-5.6359677,5.649056,-7.76514,0.1009092,0.9168755,1.1678551
1.902,-5.615635,5.616321,-7.763883,0.13160491,0.87993336,1.1281613
1.904,-5.593402,5.5832496,-7.759649,0.16219932,0.84293514,1.088074
1.906,-5.569234,5.5498013,-7.7525606,0.19265771,0.8059517,1.0475882
1.908,-5.543167,5.5159006,-7.742741,0.22295386,0.76905537,1.0066962
1.91,-5.515328,5.4817014,-7.7303157,0.2530809,0.73231703,0.965375
1.912,-5.4859695,5.447257,-7.715278,0.2830156,0.69579816,0.92360497
1.914,-5.455085,5.412566,-7.6976714,0.31272885,0.6595627,0.88138634
1.916,-5.42279,5.3776445,-7.677678,0.34219825,0.6236464,0.83872366
1.918,-5.389381,5.342686,-7.6552987,0.37140435,0.5880939,0.7956511
1.92,-5.354637,5.307648,-7.6305833,0.4003396,0.55296767,0.7522137
1.922,-5.3186655,5.27272,-7.6036777,0.4289878,0.51830107,0.70846766
1.924,-5.281595,5.237922,-7.5745897,0.4573524,0.48412815,0.6644876
1.926,-5.2435803,5.203203,-7.5432634,0.48544264,0.450491,0.62034774
1.928,-5.2048025,5.1686516,-7.50982,0.51328486,0.41742772,0.5761219
1.93,-5.1653433,5.1343307,-7.474255,0.5408985,0.3849845,0.53188837
1.932,-5.1251116,5.100335,-7.4365907,0.56831026,0.35322464,0.48770154
1.934,-5.0843487,5.0667496,-7.3968697,0.59556156,0.32219693,0.44360095
1.936,-5.043037,5.0335846,-7.355152,0.6226959,0.29197156,0.39962214
1.938,-5.0011597,5.0008097,-7.3114014,0.6497374,0.26262844,0.35579163
1.94,-4.9589124,4.968529,-7.2657537,0.6767159,0.23421884,0.31214345
1.942,-4.91628,4.936798,-7.2181177,0.70365834,0.2068004,0.26870957
1.944,-4.87335,4.9055567,-7.1686463,0.7305794,0.18041596,0.2255364
1.946,-4.830163,4.8748083,-7.1172338,0.7574799,0.15508024,0.1826649
1.948,-4.786728,4.8445826,-7.0639715,0.78436565,0.1308056,0.14015312
1.95,-4.7431707,4.8148417,-7.0088916,0.81122154,0.10755229,0.098065525
1.952,-4.69944,4.7855678,-6.952078,0.8380296,0.085262895,0.05647023
1.954,-4.6556396,4.7566156,-6.893625,0.8647699,0.06385763,0.015431404
1.956,-4.611899,4.728099,-6.833529,0.8914197,0.043235585,-0.024991825
1.958,-4.5683417,4.7000523,-6.7719507,0.91793966,0.023275271,-0.064753726
1.96,-4.524906,4.672331,-6.708959,0.9442991,0.0038560182,-0.1038066
1.962,-4.4817266,4.6450005,-6.6446238,0.970469,-0.015139006,-0.1421319
1.964,-4.4387712,4.6179724,-6.5790696,0.99641967,-0.03381768,-0.17970671
1.966,-4.396284,4.5913024,-6.512294,1.022138,-0.05228232,-0.21652763
1.968,-4.3541737,4.5650187,-6.4444327,1.0476115,-0.07059362,-0.25260037
1.97,-4.3125715,4.539098,-6.3756423,1.072836,-0.08878807,-0.28794187
1.972,-4.271532,4.513513,-6.30591,1.0978203,-0.10687174,-0.32259747
1.974,-4.231229,4.4882207,-6.2353477,1.1225795,-0.12483359,-0.35660613
1.976,-4.1915383,4.4631095,-6.1640735,1.1471349,-0.14262615,-0.39000466
1.978,-4.152554,4.4382334,-6.0921016,1.1715257,-0.1601781,-0.42284092
1.98,-4.1143785,4.41358,-6.0196767,1.1958002,-0.17739588,-0.455145
1.982,-4.076949,4.389187,-5.94671,1.2200217,-0.19416757,-0.4869436
1.984,-4.0402308,4.364853,-5.873385,1.2442536,-0.21038526,-0.5182343
1.986,-4.0043764,4.340577,-5.7998843,1.2685767,-0.2259413,-0.5489995
1.988,-3.9692335,4.316203,-5.7262588,1.293059,-0.24071965,-0.57921875
1.99,-3.93477,4.291784,-5.6526246,1.317777,-0.2546116,-0.6088402
1.992,-3.9009948,4.2672315,-5.5791554,1.342815,-0.26752108,-0.637807
1.994,-3.867836,4.242532,-5.5058427,1.3682423,-0.27934363,-0.6660605
1.996,-3.835183,4.2175827,-5.432884,1.3941007,-0.29000252,-0.6935413
1.998,-3.8030984,4.1924367,-5.360354,1.4204284,-0.2994528,-0.72019327
2,-3.771348,4.1670475,-5.288418,1.4472305,-0.30765316,-0.7459479
2.002,-3.740037,4.1413684,-5.21718,1.4744939,-0.31459245,-0.7707578
2.004,-3.7090337,4.115469,-5.146696,1.5021974,-0.3202777,-0.794584
2.006,-3.6783085,4.089368,-5.077151,1.5302874,-0.32473528,-0.8173955
2.008,-3.647715,4.063122,-5.0085263,1.55871,-0.32801262,-0.8391683
2.01,-3.6173043,4.0368123,-4.941061,1.5874025,-0.33017486,-0.8598939
2.012,-3.5871048,4.0104403,-4.8746696,1.6162982,-0.33130231,-0.8795802
2.014,-3.5570307,3.9841714,-4.809554,1.6453477,-0.33146814,-0.89824384
2.016,-3.5271401,3.957976,-4.7456784,1.6744883,-0.33075333,-0.9158935
2.018,-3.497405,3.9319923,-4.683176,1.7036729,-0.32923207,-0.93254566
2.02,-3.4678435,3.9062274,-4.621994,1.7328477,-0.32697836,-0.9482281
2.022,-3.43855,3.8808272,-4.562183,1.7619715,-0.32407498,-0.9629696
2.024,-3.409408,3.8559685,-4.503824,1.7910099,-0.32058525,-0.9767875
2.026,-3.380601,3.8316176,-4.446828,1.8199246,-0.31657356,-0.9896906
2.028,-3.352082,3.8078127,-4.3911934,1.8486745,-0.31211722,-1.0016856
2.03,-3.3238242,3.7845976,-4.3368325,1.8772228,-0.30728114,-1.0127847
2.032,-3.2959435,3.7619882,-4.283738,1.9055344,-0.30213377,-1.0229888
2.034,-3.268322,3.7399268,-4.2317505,1.9335694,-0.296737,-1.032311
2.036,-3.2410576,3.7184162,-4.181019,1.9612917,-0.29114866,-1.0407352
2.038,-3.214121,3.6974168,-4.131197,1.9886916,-0.28541535,-1.0482795
2.04,-3.187486,3.6768353,-4.082387,2.0157611,-0.2795685,-1.0549657
2.042,-3.1612155,3.6565745,-4.0344186,2.042489,-0.27362537,-1.0608103
2.044,-3.135151,3.6365426,-3.987268,2.0688846,-0.26760575,-1.0658652
2.046,-3.109322,3.6165454,-3.9408605,2.0949407,-0.26150864,-1.0701814
2.048,-3.0837789,3.596606,-3.8951209,2.1206782,-0.25532743,-1.0738395
2.05,-3.0582347,3.5763638,-3.849949,2.146117,-0.2490364,-1.0769228
2.052,-3.0328612,3.5557337,-3.8053117,2.1712773,-0.24262029,-1.0795153
2.054,-3.0075073,3.534562,-3.7610793,2.1961813,-0.23606932,-1.0817025
2.056,-2.982205,3.512713,-3.7173812,2.220843,-0.22935979,-1.0835341
2.058,-2.9568553,3.4900532,-3.6740105,2.2452586,-0.22248803,-1.0850456
2.06,-2.931459,3.4663923,-3.6309829,2.2694197,-0.21546157,-1.0862491
2.062,-2.9059532,3.4415941,-3.5882788,2.2932892,-0.2083134,-1.08714
2.064,-2.8803098,3.4156823,-3.5457637,2.3168368,-0.20107536,-1.087668
2.066,-2.854515,3.3884943,-3.5034778,2.3400202,-0.19379894,-1.0877534
2.068,-2.8285122,3.3598192,-3.4613779,2.3627663,-0.18656561,-1.087308
2.07,-2.8023891,3.329822,-3.4194384,2.3850098,-0.17945783,-1.0862343
2.072,-2.7761283,3.2982926,-3.3776572,2.4066684,-0.1725618,-1.0844417
2.074,-2.7498534,3.2653813,-3.33601,2.4276707,-0.16597389,-1.0818402
2.076,-2.7233992,3.2310386,-3.2945309,2.4479384,-0.15978394,-1.0783565
2.078,-2.6969295,3.195261,-3.2532017,2.4673831,-0.15407926,-1.0739357
2.08,-2.6703324,3.158092,-3.2119226,2.485948,-0.14894676,-1.068539
2.082,-2.6439004,3.1196802,-3.1707866,2.503576,-0.14444995,-1.0621511
2.084,-2.6174612,3.0801542,-3.129781,2.5202167,-0.14064914,-1.0547702
2.086,-2.5910292,3.0395155,-3.0888965,2.5358267,-0.13759002,-1.0464053
2.088,-2.5648212,2.9979024,-3.0481105,2.5503898,-0.1353113,-1.0370864
2.09,-2.5387237,2.955342,-3.0074258,2.563891,-0.13382563,-1.0268494
2.092,-2.5128474,2.9120138,-2.9667978,2.576317,-0.13314952,-1.0157386
2.094,-2.4871206,2.8680043,-2.9261801,2.5876596,-0.13329835,-1.0037817
2.096,-2.461556,2.8234382,-2.8855789,2.5979106,-0.13427925,-0.99102145
2.098,-2.4362879,2.7785304,-2.8450356,2.6070707,-0.13608249,-0.97748995
2.1,-2.4111829,2.7333062,-2.8045497,2.6151376,-0.13871828,-0.9632224
2.102,-2.3865218,2.6879606,-2.764083,2.622087,-0.14219683,-0.9482319
2.104,-2.3620758,2.642507,-2.7236423,2.6279113,-0.14654282,-0.93253714
2.106,-2.3379366,2.5972476,-2.6831603,2.6325967,-0.15175569,-0.9161627
2.108,-2.3141074,2.552188,-2.6427202,2.636126,-0.15785867,-0.8991271
2.11,-2.2904713,2.507483,-2.6022,2.6384902,-0.16488934,-0.881459
2.112,-2.2671645,2.463385,-2.561606,2.6396794,-0.17285988,-0.8631754
2.114,-2.2440705,2.4198937,-2.521031,2.6396825,-0.18179005,-0.8443028
2.116,-2.2211795,2.3771884,-2.480301,2.6385021,-0.19168869,-0.8248566
2.118,-2.1986027,2.3354416,-2.4394908,2.6361306,-0.20256513,-0.80487
2.12,-2.1763036,2.2946393,-2.3984926,2.6325579,-0.21442613,-0.7843802
2.122,-2.1541395,2.2550201,-2.3574061,2.6277914,-0.22726673,-0.7634167
2.124,-2.1321325,2.2166069,-2.3161287,2.6218357,-0.24107875,-0.7420144
2.126,-2.1102319,2.179531,-2.2746449,2.6147048,-0.2558597,-0.7202046
2.128,-2.08843,2.1438503,-2.2330046,2.6064172,-0.271597,-0.6980394
2.13,-2.0667505,2.1097143,-2.1911373,2.5969985,-0.2882892,-0.6755661
2.132,-2.0451307,2.0770557,-2.1491232,2.586476,-0.3059284,-0.65284777
2.134,-2.023562,2.045876,-2.1069138,2.574873,-0.32450715,-0.629954
2.136,-2.0019503,2.0163476,-2.0645504,2.562224,-0.34401536,-0.6069499
2.138,-1.9802992,1.9884286,-2.0220048,2.5485585,-0.36444047,-0.5838925
2.14,-1.9586754,1.9622173,-1.9793307,2.533906,-0.38577658,-0.5608466
2.142,-1.936883,1.9376566,-1.936428,2.51829,-0.40800738,-0.53784937
2.144,-1.915105,1.9148374,-1.8934238,2.5017385,-0.43111414,-0.5149323
2.146,-1.8930829,1.8936958,-1.8502247,2.4842815,-0.4550625,-0.49212158
2.148,-1.8709509,1.8742349,-1.806964,2.4659414,-0.47982717,-0.4694395
2.15,-1.8486875,1.8564725,-1.7635317,2.4467378,-0.5053886,-0.4468906
2.152,-1.8261313,1.8404136,-1.7200449,2.4266808,-0.53171194,-0.42448908
2.154,-1.8034132,1.8260493,-1.6764005,2.4057884,-0.55876315,-0.4022506
2.156,-1.7804435,1.8133805,-1.6326642,2.3840723,-0.58651125,-0.3801937
2.158,-1.7571683,1.8022532,-1.5888797,2.361531,-0.614933,-0.3583452
2.16,-1.733644,1.7927979,-1.5449512,2.3381667,-0.6440176,-0.33673763
2.162,-1.7097281,1.7849452,-1.5009811,2.3140075,-0.67374027,-0.31540126
2.164,-1.6854693,1.778624,-1.456889,2.289067,-0.70408046,-0.29437917
2.166,-1.660738,1.7738627,-1.4126757,2.26337,-0.73502594,-0.27370822
2.168,-1.6356138,1.7705781,-1.3683734,2.2369583,-0.76654595,-0.2534157
2.17,-1.6099155,1.7687013,-1.3239787,2.2098534,-0.7986231,-0.23353362
2.172,-1.5838592,1.7683196,-1.279424,2.182093,-0.8312281,-0.2140733
2.174,-1.5573523,1.7692368,-1.2346807,2.1537194,-0.8643274,-0.19504535
2.176,-1.5303268,1.7714422,-1.1897787,2.1247652,-0.89788234,-0.17646718
2.178,-1.5028074,1.7750516,-1.1446465,2.0952637,-0.93185455,-0.1583308
2.18,-1.4746989,1.7797557,-1.0992901,2.0652404,-0.96620786,-0.14062941
2.182,-1.4460711,1.785679,-1.053708,2.0347204,-1.0008934,-0.12336379
2.184,-1.4169439,1.7926604,-1.0077348,2.0037217,-1.0358783,-0.10654652
2.186,-1.3872862,1.8005192,-0.9614181,1.972276,-1.0711284,-0.09018242
2.188,-1.357091,1.8093498,-0.9147027,1.9404097,-1.1066049,-0.07429987
2.19,-1.3264141,1.8190097,-0.867543,1.908144,-1.1422693,-0.058936596
2.192,-1.2952398,1.8293438,-0.8199326,1.8755057,-1.1780932,-0.04414344
2.194,-1.2637125,1.8401988,-0.771852,1.8425326,-1.214041,-0.02997768
2.196,-1.2319096,1.8515759,-0.7232252,1.8092682,-1.2500744,-0.016521513
2.198,-1.1997155,1.8632632,-0.6740139,1.7757535,-1.2861669,-0.0038442612
2.2,-1.1673151,1.8751268,-0.6241684,1.7420404,-1.3222805,0.007977784
2.202,-1.134815,1.8870159,-0.5736914,1.7081918,-1.3583608,0.018897355
2.204,-1.1022484,1.8988469,-0.52259606,1.6742806,-1.394367,0.028846383
2.206,-1.0697505,1.9104517,-0.47075242,1.6403754,-1.4302526,0.037799597
2.208,-1.0373337,1.9215846,-0.41815436,1.6065397,-1.4659531,0.045754194
2.21,-1.005155,1.9321431,-0.36483353,1.572838,-1.5014255,0.05270922
2.212,-0.9731149,1.9420402,-0.31066012,1.5393354,-1.5365988,0.05869776
2.214,-0.9414633,1.9512402,-0.25562614,1.5060927,-1.57142,0.06378001
2.216,-0.91021043,1.9595051,-0.19978684,1.4731485,-1.6058338,0.0680083
2.218,-0.8794695,1.966819,-0.14300811,1.4405487,-1.6397802,0.07144451
2.22,-0.8493731,1.9730718,-0.08533609,1.4083219,-1.6732125,0.07415277
2.222,-0.81978637,1.9781806,-0.026767194,1.3764884,-1.7060868,0.076194584
2.224,-0.79099464,1.982137,0.03279215,1.3450862,-1.7383517,0.07763302
2.226,-0.7629318,1.9848408,0.09324679,1.3141373,-1.7699637,0.078520775
2.228,-0.73563963,1.9863384,0.15459824,1.2836703,-1.800868,0.07889503
2.23,-0.7090905,1.9866393,0.2168234,1.2537202,-1.8310219,0.078804255
2.232,-0.6834395,1.9857428,0.2799766,1.2243329,-1.8603693,0.07827866
2.234,-0.65867186,1.9836879,0.34401134,1.1955534,-1.8888376,0.07733989
2.236,-0.6348412,1.9804829,0.40882573,1.1674348,-1.916372,0.07602131
2.238,-0.6120278,1.976282,0.47447187,1.1400338,-1.9429051,0.0743497
2.24,-0.59020317,1.971083,0.5407916,1.1134,-1.9683732,0.07235205
2.242,-0.56933755,1.9649996,0.6078404,1.0875818,-1.9927162,0.07006866
2.244,-0.5496078,1.9581919,0.6754182,1.0626228,-2.0158806,0.06753832
2.246,-0.5309336,1.950689,0.7435587,1.0385473,-2.0378163,0.06480116
2.248,-0.51338243,1.9426557,0.81198406,1.0153781,-2.0584862,0.061926603
2.25,-0.49689192,1.9341741,0.880664,0.9931263,-2.0778687,0.058985353
2.252,-0.48148018,1.9254391,0.94948125,0.97179997,-2.095943,0.056052566
2.254,-0.4671539,1.9164621,1.0182956,0.9514014,-2.1127,0.05322075
2.256,-0.45392147,1.9074801,1.087002,0.9319284,-2.1281483,0.050559223
2.258,-0.44167402,1.898535,1.1554611,0.9133637,-2.142286,0.048154175
2.26,-0.43033496,1.8897425,1.2235918,0.8956954,-2.1551359,0.046083808
2.262,-0.41997737,1.881219,1.2912242,0.878914,-2.166716,0.044404775
2.264,-0.41036648,1.8730155,1.358274,0.8630098,-2.1770365,0.043162286
2.266,-0.40161732,1.8652912,1.4246294,0.84796554,-2.1861246,0.042374134
2.268,-0.39354742,1.8580261,1.490284,0.8337578,-2.1940067,0.04204184
2.27,-0.38614255,1.8513223,1.5550367,0.82038116,-2.2007074,0.04216075
2.272,-0.37927705,1.845109,1.6189837,0.807829,-2.206263,0.042703897
2.274,-0.3729093,1.839528,1.6819878,0.7960985,-2.2107031,0.043628395
2.276,-0.36692226,1.8345058,1.7441069,0.78518677,-2.2140646,0.044885606
2.278,-0.36135697,1.8300108,1.8053062,0.7750792,-2.2163777,0.046417207
2.28,-0.35604042,1.8260733,1.8655467,0.76576275,-2.2176888,0.048180908
2.282,-0.35082138,1.8225425,1.9248563,0.75722194,-2.2180328,0.05014229
2.284,-0.34576684,1.819524,1.9831636,0.74944043,-2.2174442,0.052265167
2.286,-0.34087032,1.8168244,2.0406044,0.7423886,-2.2159607,0.054530263
2.288,-0.33608592,1.8144172,2.0971599,0.7360405,-2.2136164,0.05694133
2.29,-0.33143955,1.8122882,2.152772,0.7303638,-2.210426,0.059498608
2.292,-0.32689178,1.8103033,2.2074852,0.7253339,-2.2064,0.062222272
2.294,-0.3223648,1.8084317,2.26128,0.7209218,-2.2015438,0.065131426
2.296,-0.3180105,1.8067104,2.3142145,0.7171172,-2.1958525,0.06825709
2.298,-0.31363595,1.80495,2.3662648,0.7138907,-2.1893103,0.07163316
2.3,-0.30944455,1.8031682,2.4174342,0.71123874,-2.1818926,0.075298995
2.302,-0.30526853,1.8013437,2.4677212,0.70913947,-2.1735709,0.07927546
2.304,-0.30121338,1.799451,2.517173,0.7075826,-2.1643283,0.08357844
2.306,-0.29724705,1.7974479,2.5656996,0.70654464,-2.154145,0.08821088
2.308,-0.2933035,1.7952691,2.613346,0.70601106,-2.1430192,0.09317389
2.31,-0.28951085,1.7929745,2.6599808,0.705963,-2.13096,0.0984602
2.312,-0.28572702,1.7904569,2.705605,0.7063848,-2.1179967,0.10405609
2.314,-0.28209448,1.7877525,2.7503214,0.7072512,-2.10417,0.10992202
2.316,-0.2784549,1.784876,2.7939641,0.7085353,-2.0895529,0.116031855
2.318,-0.2748487,1.781793,2.8366413,0.7102014,-2.0742247,0.12236038
2.32,-0.2713374,1.7785664,2.878352,0.7122227,-2.0582678,0.1288712
2.322,-0.26792693,1.7751163,2.9189892,0.7145593,-2.0417478,0.13554835
2.324,-0.264593,1.7714701,2.9585843,0.7171756,-2.0247407,0.14238447
2.326,-0.26139486,1.7677417,2.9972754,0.72003365,-2.007309,0.14938784
2.328,-0.25830197,1.7639508,3.0348983,0.7230951,-1.9894905,0.15658072
2.33,-0.25527608,1.7600405,3.071618,0.7263197,-1.9713296,0.1639894
2.332,-0.25245023,1.7561823,3.1073573,0.7296695,-1.9528686,0.17165104
2.334,-0.24977672,1.7524685,3.1421432,0.7331134,-1.9341229,0.17960352
2.336,-0.2472676,1.7488738,3.1760197,0.73661697,-1.9151267,0.18789774
2.338,-0.24481022,1.7454464,3.2090113,0.74015296,-1.895916,0.19656363
2.34,-0.24267507,1.742268,3.2411914,0.743698,-1.8765264,0.2056323
2.342,-0.24063444,1.7393104,3.2723827,0.7472318,-1.8570068,0.21510333
2.344,-0.23888946,1.736756,3.3027358,0.7507279,-1.8374063,0.2249862
2.346,-0.23723507,1.7345144,3.3323112,0.75416034,-1.8177679,0.23524973
2.348,-0.23578537,1.7326245,3.3610659,0.7575177,-1.7981256,0.24585426
2.35,-0.2345264,1.7310983,3.388994,0.76076937,-1.7785242,0.2567458
2.352,-0.23347127,1.7300359,3.4161754,0.7639173,-1.7589928,0.2678429
2.354,-0.23249102,1.7293292,3.4426463,0.76693875,-1.7395631,0.27906215
2.356,-0.23169708,1.7290597,3.4683533,0.76981866,-1.7202647,0.29032364
2.358,-0.23112237,1.7291006,3.493468,0.77254945,-1.7011243,0.30155817
2.36,-0.23059618,1.7294652,3.5179467,0.7751133,-1.6821735,0.31270432
2.362,-0.23028219,1.7301495,3.541861,0.7775028,-1.6634547,0.32370704
2.364,-0.2300396,1.7311449,3.5651994,0.7797035,-1.6450118,0.3345347
2.366,-0.22993243,1.7324033,3.5880513,0.7816935,-1.6268946,0.3451816
2.368,-0.22994292,1.7339709,3.6104238,0.7834567,-1.609141,0.35566443
2.37,-0.23009872,1.7358214,3.632329,0.78497696,-1.5917802,0.36600348
2.372,-0.2304163,1.7379441,3.653841,0.7862357,-1.5748345,0.37623554
2.374,-0.23080909,1.7403312,3.6749015,0.7872137,-1.5583283,0.38642058
2.376,-0.23122644,1.7430085,3.6955934,0.7878997,-1.54226,0.39659947
2.378,-0.23176122,1.7460347,3.715917,0.7882749,-1.5266213,0.4068148
2.38,-0.23236322,1.7493001,3.7358246,0.7883235,-1.511383,0.41710594
2.382,-0.23309827,1.7529024,3.755376,0.78804433,-1.4965366,0.42750368
2.384,-0.23397362,1.7568539,3.7745852,0.7874274,-1.4820513,0.43802628
2.386,-0.23499393,1.7611071,3.7934506,0.786476,-1.4679118,0.448678
2.388,-0.23603332,1.7657087,3.8120031,0.7851833,-1.4541336,0.4594477
2.39,-0.23729599,1.7706904,3.830236,0.7835424,-1.4407132,0.47031024
2.392,-0.2387687,1.7759799,3.8480928,0.781556,-1.4276673,0.48123613
2.394,-0.24040484,1.7815218,3.865696,0.779215,-1.4150234,0.49217004
2.396,-0.24221694,1.787365,3.8829799,0.7765215,-1.402815,0.50307906
2.398,-0.24427402,1.7933713,3.8999634,0.77348185,-1.3910898,0.5138914
2.4,-0.2465682,1.799557,3.9167519,0.77008915,-1.3798935,0.5245541
2.402,-0.24909794,1.8057917,3.9334188,0.76633525,-1.3692642,0.5350183
2.404,-0.25196946,1.8120682,3.9499168,0.7622275,-1.3592224,0.54523116
2.406,-0.25510502,1.8183004,3.9663248,0.75776094,-1.3497912,0.5551724
2.408,-0.25863087,1.8244392,3.9826686,0.752936,-1.3409717,0.5648154
2.41,-0.26239014,1.8304585,3.9989376,0.7477692,-1.3327605,0.57414097
2.412,-0.26646292,1.8362172,4.0152287,0.74225104,-1.325138,0.58315176
2.414,-0.27083242,1.8417758,4.031554,0.7363974,-1.3180786,0.591871
2.416,-0.27563858,1.8471162,4.047948,0.73020685,-1.3115416,0.6003349
2.418,-0.28079736,1.8522246,4.064374,0.7236943,-1.3054749,0.60857946
2.42,-0.28629887,1.85712,4.0810037,0.7168707,-1.2998354,0.616635
2.422,-0.2922616,1.86193,4.097727,0.70973617,-1.2945805,0.6245476
2.424,-0.2984718,1.8665936,4.1145167,0.7023014,-1.2896721,0.6323579
2.426,-0.30515873,1.8711907,4.1314077,0.69458055,-1.2850537,0.64009434
2.428,-0.31216216,1.8758518,4.148301,0.686587,-1.2806726,0.6477739
2.43,-0.31955755,1.8805974,4.165256,0.6783348,-1.2764853,0.655422
2.432,-0.32735372,1.8855338,4.182241,0.66983896,-1.2724262,0.66307044
2.434,-0.33553576,1.8908541,4.199192,0.66112125,-1.2684584,0.670732
2.436,-0.3441248,1.8965492,4.2160387,0.6521952,-1.2645371,0.67843103
2.438,-0.35316336,1.9026855,4.2329,0.64308,-1.2606118,0.686201
2.44,-0.3627423,1.9095217,4.2495866,0.6337894,-1.2566613,0.694073
2.442,-0.3728261,1.9169458,4.2660985,0.62433505,-1.2526611,0.7020825
2.444,-0.38342547,1.9250565,4.2824926,0.61472934,-1.2486231,0.7102542
2.446,-0.3946277,1.9340302,4.2986984,0.604988,-1.2445639,0.7186301
2.448,-0.40655077,1.9438525,4.314745,0.5951196,-1.2405049,0.7272308
2.45,-0.4190309,1.9545853,4.3305783,0.58511674,-1.2364875,0.7360723
2.452,-0.43219256,1.9662168,4.3463364,0.5749785,-1.2325591,0.74515736
2.454,-0.44606972,1.9787011,4.3619227,0.5647165,-1.2287694,0.75447965
2.456,-0.46074092,1.9920546,4.377365,0.5543302,-1.2251769,0.7640112
2.458,-0.47589087,2.0061364,4.3926907,0.5438236,-1.2218412,0.77371585
2.46,-0.49175322,2.0209382,4.407982,0.53319716,-1.2188107,0.7835336
2.462,-0.5081967,2.0361748,4.423103,0.5224577,-1.2161313,0.79341114
2.464,-0.52531517,2.0518708,4.438231,0.5116068,-1.2138231,0.8032658
2.466,-0.5429597,2.0678053,4.4532766,0.50066066,-1.2118993,0.81301594
2.468,-0.5610975,2.083871,4.4682226,0.48961937,-1.210353,0.82256246
2.47,-0.5798838,2.0999403,4.483135,0.4784906,-1.2091802,0.8318168
2.472,-0.5990628,2.115787,4.4979153,0.46728203,-1.2083511,0.84069717
2.474,-0.6185986,2.1313384,4.5127063,0.4560213,-1.2078142,0.849124
2.476,-0.63854384,2.146357,4.527399,0.44472456,-1.2075175,0.85703814
2.478,-0.65881455,2.1607347,4.5420437,0.43341333,-1.2073853,0.86439914
2.48,-0.6794231,2.1743665,4.5566664,0.42211622,-1.2073541,0.87119937
2.482,-0.70018137,2.1872249,4.571246,0.41086334,-1.20735,0.87746024
2.484,-0.72131765,2.1992102,4.5857306,0.39968222,-1.2072922,0.88322866
2.486,-0.7426094,2.2102213,4.6001735,0.38860655,-1.2071248,0.8885815
2.488,-0.7642131,2.2203069,4.614592,0.37764972,-1.2067915,0.8936106
2.49,-0.7859129,2.229468,4.6290293,0.36683315,-1.2062635,0.8984175
2.492,-0.80781484,2.2377791,4.643383,0.3561618,-1.2055389,0.90310717
2.494,-0.8299042,2.2452433,4.6576986,0.34563518,-1.204616,0.9077611
2.496,-0.8522891,2.2519805,4.6720524,0.3352606,-1.2035103,0.9124384
2.498,-0.8747872,2.2580059,4.6864486,0.32502332,-1.2022431,0.917185
2.5,-0.89746106,2.26341,4.7009263,0.31491572,-1.2008275,0.92200375
2.502,-0.920305,2.2684038,4.715597,0.30493188,-1.1992894,0.9268924
2.504,-0.9433209,2.2730498,4.730323,0.2950669,-1.197624,0.93182003
2.506,-0.96649945,2.2774212,4.745201,0.28531063,-1.1958166,0.93676126
2.508,-0.9898099,2.2816968,4.7601814,0.27565917,-1.1938537,0.94167715
2.51,-1.0133616,2.28595,4.7753434,0.2661087,-1.1916944,0.94654393
2.512,-1.0370115,2.2903197,4.79063,0.25664592,-1.1892842,0.95132494
2.514,-1.0607749,2.2948678,4.806039,0.24728048,-1.1865952,0.9560099
2.516,-1.0846878,2.2996557,4.821603,0.23800409,-1.1835828,0.960587
2.518,-1.1087068,2.3048072,4.8373046,0.22881308,-1.1802318,0.96507037
2.52,-1.1328378,2.3103752,4.8531327,0.21969825,-1.1765285,0.9694525
2.522,-1.1570424,2.3165083,4.8691163,0.21066085,-1.1724684,0.9737469
2.524,-1.1812351,2.3231642,4.8851304,0.20168763,-1.1680458,0.9779676
2.526,-1.2053883,2.3303874,4.9012766,0.19276458,-1.1632825,0.9821126
2.528,-1.2295722,2.3382988,4.917452,0.18387485,-1.1581935,0.9861984
2.53,-1.2536514,2.3467865,4.933643,0.17501563,-1.1527987,0.990221
2.532,-1.2776562,2.3558981,4.949818,0.16616881,-1.1471245,0.994178
2.534,-1.3016427,2.3657017,4.965975,0.15731901,-1.1411754,0.9980545
2.536,-1.3253688,2.3761513,4.982108,0.1484597,-1.1349682,1.0018507
2.538,-1.3489981,2.3872824,4.998128,0.13959289,-1.1285197,1.0055447
2.54,-1.372447,2.399021,5.013972,0.13070893,-1.1218358,1.0091178
2.542,-1.3957094,2.411425,5.0296383,0.12181273,-1.1149249,1.0125699
2.544,-1.418694,2.4243212,5.045164,0.112899035,-1.1077899,1.0158806
2.546,-1.441351,2.4378302,5.0604434,0.10397002,-1.1004372,1.0190444
2.548,-1.4637737,2.4519737,5.07537,0.09501839,-1.0928707,1.0220679
2.55,-1.486043,2.4665892,5.090119,0.08602172,-1.0851043,1.0249622
2.552,-1.5080398,2.4817514,5.1047473,0.07696617,-1.0771421,1.0277243
2.554,-1.5297511,2.4972572,5.1189866,0.06783298,-1.0689826,1.0303652
2.556,-1.5512447,2.5131397,5.1329565,0.05860424,-1.0606267,1.0328931
2.558,-1.5723753,2.5293512,5.146519,0.049256563,-1.0520786,1.0353184
2.56,-1.5933409,2.5458512,5.1597605,0.039767623,-1.0433285,1.0376536
2.562,-1.6140977,2.5625567,5.1726418,0.030117452,-1.0343826,1.039902
2.564,-1.6345375,2.5794368,5.185108,0.020301044,-1.0252439,1.0420636
2.566,-1.6547637,2.5965238,5.1971827,0.010320306,-1.0159189,1.0441581
2.568,-1.6750233,2.6137788,5.208894,0.00016903877,-1.0063958,1.0461769
2.57,-1.6950614,2.6311862,5.220164,-0.010137022,-0.9966844,1.0481281
2.572,-1.7150302,2.6487844,5.231051,-0.020590246,-0.98678315,1.0500041
2.574,-1.7348863,2.6665912,5.2414894,-0.031168163,-0.9766932,1.0518173
2.576,-1.7547112,2.6845033,5.2515283,-0.04185471,-0.9664304,1.0535831
2.578,-1.774412,2.702567,5.2612596,-0.05262196,-0.95601255,1.0553122
2.58,-1.7941366,2.7207634,5.270566,-0.06345242,-0.9454419,1.0570166
2.582,-1.8139137,2.7391777,5.279541,-0.07432756,-0.9347126,1.0586915
2.584,-1.8337736,2.7577114,5.288045,-0.08524722,-0.92384356,1.0603473
2.586,-1.8536956,2.7765172,5.2961903,-0.09619936,-0.9128523,1.0619993
2.588,-1.8738232,2.795506,5.3039236,-0.107177794,-0.90174884,1.0636624
2.59,-1.8940477,2.81476,5.3111777,-0.118184984,-0.8905379,1.0653347
2.592,-1.9146206,2.8342695,5.31803,-0.12923682,-0.87922114,1.0670221
2.594,-1.9353533,2.8540695,5.3245683,-0.14033622,-0.8677983,1.0687163
2.596,-1.9564106,2.8741686,5.330662,-0.15150762,-0.85626113,1.0703982
2.598,-1.9777614,2.8945978,5.336274,-0.162795,-0.84459853,1.0720413
2.6,-1.9988892,2.914813,5.341447,-0.1742287,-0.8327918,1.0736122
2.602,-2.0201433,2.935202,5.346244,-0.18585187,-0.8208309,1.0750697
2.604,-2.041543,2.955751,5.350689,-0.19770306,-0.8086989,1.0763879
2.606,-2.0629766,2.9764745,5.3547173,-0.20981732,-0.7963981,1.0775492
2.608,-2.0845795,2.9973521,5.3583755,-0.22222754,-0.7839477,1.07855
2.61,-2.106118,3.0182867,5.361678,-0.23494011,-0.77136976,1.0793955
2.612,-2.1275718,3.0391586,5.3646526,-0.24794266,-0.75868535,1.0801069
2.614,-2.14887,3.05996,5.367361,-0.2612072,-0.7459446,1.0807006
2.616,-2.1699078,3.0806417,5.3697743,-0.27469772,-0.73316157,1.0811949
2.618,-2.190609,3.1010568,5.3720016,-0.288367,-0.7203557,1.0815964
2.62,-2.2108395,3.1211596,5.3739805,-0.30217388,-0.7075421,1.0818855
2.622,-2.2305984,3.1408615,5.375752,-0.31606707,-0.6947203,1.0820293
2.624,-2.249779,3.160057,5.377366,-0.33001444,-0.6818534,1.0819707
2.626,-2.2682667,3.1787324,5.3788414,-0.34398752,-0.66891384,1.0816563
2.628,-2.2860854,3.196773,5.3801837,-0.35749185,-0.6563819,1.0811275
2.63,-2.3031125,3.2141447,5.3814564,-0.37072718,-0.643988,1.0802845
2.632,-2.3193853,3.2307801,5.382587,-0.3835925,-0.6318016,1.0791231
2.634,-2.3348844,3.2466838,5.38369,-0.39596483,-0.6199256,1.0776666
2.636,-2.3495429,3.261811,5.384684,-0.40773138,-0.60847545,1.0759602
2.638,-2.3633494,3.2761385,5.385649,-0.41877872,-0.5975385,1.0740578
2.64,-2.3763852,3.2897525,5.3865643,-0.42902702,-0.5872043,1.0720226
2.642,-2.3885899,3.3025591,5.387469,-0.4384268,-0.5775545,1.0699191
2.644,-2.400046,3.3145566,5.3882957,-0.44695613,-0.56863487,1.0678089
2.646,-2.4108865,3.3258228,5.3890786,-0.4546234,-0.5604616,1.0657498
2.648,-2.4209852,3.3363175,5.389854,-0.46147233,-0.55302495,1.0637796
2.65,-2.4303977,3.3461533,5.3906307,-0.4675572,-0.5462983,1.0619185
