Time_s_,Acc_x_m_s_2_,Acc_y_m_s_2_,Acc_z_m_s_2_,Gyro_x_1_s_,Gyro_y_1_s_,Gyro_z_1_s_
0,0.15658744,0.33532774,0.05155445,-0.42980632,-0.9788875,-0.49402338
0.002,0.06254274,0.42072305,-0.01834431,-0.40948954,-0.94756144,-0.48737454
0.004,-0.033180118,0.50720936,-0.09266344,-0.3858096,-0.9105542,-0.4803497
0.006,-0.13009635,0.59687376,-0.17464164,-0.35831597,-0.8670068,-0.47319025
0.008,-0.22866294,0.69069034,-0.2665289,-0.3264348,-0.8159038,-0.46600977
0.01,-0.32904768,0.788015,-0.37031916,-0.28946936,-0.7561022,-0.458801
0.012,-0.43148914,0.88792557,-0.48731443,-0.2467419,-0.68645006,-0.45149907
0.014,-0.5363103,0.98993963,-0.6170609,-0.19773994,-0.6060622,-0.44409093
0.016,-0.64379954,1.0943028,-0.75810534,-0.14229411,-0.5146311,-0.4366624
0.018,-0.75442356,1.2013954,-0.90865886,-0.08069457,-0.41266498,-0.42940226
0.02,-0.8686421,1.3114002,-1.067448,-0.013769962,-0.3016553,-0.42260346
0.022,-0.9866358,1.4241459,-1.2330756,0.057002362,-0.18420236,-0.4166563
0.024,-1.1086287,1.5391704,-1.4038744,0.1293575,-0.06424691,-0.41203925
0.026,-1.2348113,1.6560307,-1.5774373,0.20036267,0.05327919,-0.40923762
0.028,-1.3651974,1.7741919,-1.7512617,0.2682666,0.16541725,-0.408335
0.03,-1.4999578,1.8928659,-1.9223505,0.3282508,0.2641536,-0.40992054
0.032,-1.6388916,2.0111403,-2.087475,0.3779196,0.34537596,-0.41399
0.034,-1.7818284,2.1278772,-2.2429984,0.4151869,0.4058011,-0.42035642
0.036,-1.928019,2.2419653,-2.3852124,0.43826926,0.4430399,-0.42881003
0.038,-2.0765936,2.3520195,-2.5105436,0.44588798,0.45575377,-0.43930906
0.04,-2.2263942,2.4566875,-2.6157894,0.43749565,0.4437022,-0.4519592
0.042,-2.3759687,2.5545056,-2.6984425,0.41338807,0.4077605,-0.46685567
0.044,-2.5234227,2.643726,-2.7562876,0.37474164,0.35000044,-0.48393893
0.046,-2.6666303,2.7225857,-2.7881873,0.32354742,0.27373382,-0.5029409
0.048,-2.8030977,2.7894158,-2.7938523,0.2624599,0.18340258,-0.52341783
0.05,-2.9307113,2.842792,-2.7739642,0.19461092,0.084378704,-0.5447021
0.052,-3.047559,2.881811,-2.7300706,0.12342441,-0.017355531,-0.56588244
0.054,-3.1518486,2.905842,-2.6637483,0.05241719,-0.11561827,-0.5857626
0.056,-3.2462578,2.917766,-2.5793161,-0.015082173,-0.20452179,-0.60289174
0.058,-3.3236496,2.9130645,-2.4752913,-0.07628202,-0.279029,-0.6157705
0.06,-3.3829713,2.8921332,-2.3549352,-0.12920305,-0.3355125,-0.6231359
0.062,-3.4237702,2.855465,-2.222463,-0.17278601,-0.3720313,-0.6241232
0.064,-3.4454079,2.8039412,-2.0819347,-0.20684011,-0.3883329,-0.61829185
0.066,-3.4477584,2.738971,-1.93734,-0.23183887,-0.38559896,-0.6055815
0.068,-3.4316974,2.6626332,-1.7917544,-0.24868871,-0.36596125,-0.5862341
0.07,-3.3978693,2.5767717,-1.6482308,-0.25851667,-0.33200943,-0.5607885
0.072,-3.3470929,2.4828756,-1.5094444,-0.26249844,-0.28644538,-0.5300979
0.074,-3.2802005,2.3827865,-1.3774722,-0.26177865,-0.23179652,-0.49527988
0.076,-3.199158,2.2787561,-1.2540138,-0.2573132,-0.17017803,-0.45760277
0.078,-3.1061459,2.1727467,-1.1392617,-0.24977809,-0.10310885,-0.41840512
0.08,-3.0042057,2.0664608,-1.032236,-0.23971976,-0.031869367,-0.37904155
0.082,-2.8960764,1.9612756,-0.9311404,-0.22779313,0.04216294,-0.34084147
0.084,-2.7835743,1.8587142,-0.8345551,-0.21468577,0.117779076,-0.3049994
0.086,-2.6676843,1.7604291,-0.74220896,-0.20086291,0.19405161,-0.2724497
0.088,-2.5494063,1.668109,-0.6553273,-0.18639739,0.27041578,-0.24385838
0.09,-2.42942,1.5824567,-0.5748984,-0.17105559,0.3467008,-0.21958748
0.092,-2.3084724,1.5036213,-0.5008356,-0.15457754,0.422904,-0.1997159
0.094,-2.1877337,1.431285,-0.43205357,-0.13688195,0.49908635,-0.18412274
0.096,-2.0681086,1.3648853,-0.3670051,-0.118052796,0.5753186,-0.1726476
0.098,-1.9506046,1.3042456,-0.30482262,-0.098232836,0.65162075,-0.16518453
0.1,-1.8354737,1.2488159,-0.24442697,-0.07756543,0.7279701,-0.161654
0.102,-1.7224596,1.1977656,-0.1839763,-0.056198776,0.8042941,-0.16183731
0.104,-1.612068,1.1506891,-0.12392193,-0.034295052,0.8805275,-0.16539419
0.106,-1.5053773,1.1085584,-0.06833434,-0.012065709,0.9566957,-0.17193615
0.108,-1.4045202,1.0736166,-0.020630836,0.010243863,1.0328761,-0.18106297
0.11,-1.3096576,1.0465966,0.01777631,0.032346606,1.1091228,-0.19237205
0.112,-1.2196608,1.026529,0.047637343,0.053886652,1.1853057,-0.20542602
0.114,-1.1345553,1.0117606,0.07110447,0.07441455,1.2610428,-0.2197841
0.116,-1.0546224,1.0006294,0.089728236,0.09337056,1.3356483,-0.23503664
0.118,-0.9798374,0.9924356,0.104320854,0.11009574,1.4080338,-0.25077206
0.12,-0.9107768,0.9877471,0.11575201,0.12385869,1.4767114,-0.26660115
0.122,-0.8477432,0.9869579,0.12438226,0.13391173,1.5398366,-0.28219652
0.124,-0.7911908,0.99000156,0.12976792,0.1395595,1.5953721,-0.29727626
0.126,-0.741623,0.9962981,0.13126725,0.1401878,1.6412213,-0.3115977
0.128,-0.70057553,1.0059695,0.12883043,0.1353234,1.6753757,-0.32496923
0.13,-0.6670541,1.018125,0.12253809,0.12465948,1.6961318,-0.3372628
0.132,-0.64271474,1.033028,0.113077104,0.10807139,1.7022109,-0.34839725
0.134,-0.62854177,1.0513296,0.10151732,0.0856446,1.6928713,-0.3583166
0.136,-0.62479264,1.073318,0.08789486,0.057604373,1.6679701,-0.36692524
0.138,-0.6320083,1.0993787,0.07236791,0.02426523,1.6278818,-0.37409788
0.14,-0.6503256,1.1300519,0.054964095,-0.014014602,1.5734689,-0.37968308
0.142,-0.67994934,1.1655905,0.035940707,-0.05678481,1.50606,-0.3835639
0.144,-0.7206083,1.2062395,0.015083283,-0.1035192,1.4273932,-0.38560867
0.146,-0.7723838,1.2521098,-0.008039892,-0.15365762,1.3394992,-0.3857216
0.148,-0.8348158,1.3036103,-0.033885956,-0.20659488,1.244514,-0.3839311
0.15,-0.90751106,1.3608975,-0.063050985,-0.2616935,1.1445386,-0.380399
0.152,-0.98981965,1.424226,-0.09621018,-0.31837797,1.0414648,-0.3754068
0.154,-1.0808364,1.4939488,-0.13473874,-0.3761128,0.93692255,-0.3693676
0.156,-1.1803775,1.5705805,-0.17927212,-0.43439636,0.8323432,-0.36289456
0.158,-1.2884595,1.6545389,-0.23007357,-0.4927438,0.7289342,-0.35684308
0.16,-1.4037918,1.7456448,-0.28734672,-0.55076754,0.6274918,-0.35212106
0.162,-1.5247135,1.8431902,-0.35137576,-0.6081387,0.5285421,-0.34962326
0.164,-1.6501772,1.9467592,-0.42343044,-0.6644199,0.43271592,-0.35019222
0.166,-1.7791474,2.0558968,-0.5051862,-0.7191328,0.3407087,-0.35457972
0.168,-1.9104241,2.1701827,-0.59771067,-0.77177787,0.25321048,-0.36341497
0.17,-2.0430133,2.2891347,-0.70097756,-0.8218143,0.1709381,-0.3772046
0.172,-2.1762877,2.4124646,-0.8143742,-0.8687008,0.09471813,-0.39630598
0.174,-2.30991,2.5397236,-0.93780106,-0.91189367,0.025435358,-0.4208677
0.176,-2.443267,2.6701179,-1.0712569,-0.9509275,-0.036055148,-0.45079327
0.178,-2.5756629,2.8026505,-1.2154012,-0.98547554,-0.08910465,-0.48582092
0.18,-2.7070441,2.9368672,-1.3698289,-1.0153378,-0.13328823,-0.52556896
0.182,-2.837586,3.072699,-1.5342715,-1.0404348,-0.16849697,-0.5695532
0.184,-2.967128,3.2097921,-1.7085471,-1.0608357,-0.19498527,-0.61721545
0.186,-3.0953484,3.347382,-1.8918915,-1.0767423,-0.21331471,-0.6679061
0.188,-3.2224603,3.4849658,-2.0836768,-1.0884821,-0.22426778,-0.72096574
0.19,-3.3482592,3.6218264,-2.2832842,-1.0964162,-0.22885662,-0.77582455
0.192,-3.4720304,3.7574296,-2.4913902,-1.1009288,-0.22816885,-0.83196604
0.194,-3.5940166,3.8914902,-2.7071505,-1.1024039,-0.22324955,-0.88889575
0.196,-3.7160535,4.024531,-2.9282627,-1.1012146,-0.21510774,-0.946113
0.198,-3.8382964,4.155769,-3.152907,-1.0977633,-0.20474255,-1.0031476
0.2,-3.95993,4.28383,-3.3803208,-1.0924392,-0.19310927,-1.0595633
0.202,-4.0813,4.4079976,-3.6095686,-1.0856341,-0.18112528,-1.1150193
0.204,-4.2028227,4.528256,-3.8404744,-1.0777882,-0.1697793,-1.1692476
0.206,-4.3253455,4.6450233,-4.072774,-1.0693467,-0.16006452,-1.2220331
0.208,-4.449077,4.7582073,-4.3053694,-1.0607328,-0.15302074,-1.2731694
0.21,-4.574148,4.867795,-4.537723,-1.0523589,-0.14976752,-1.3225316
0.212,-4.7011185,4.973605,-4.7691736,-1.0446123,-0.15142792,-1.3699965
0.214,-4.8307033,5.0757246,-4.9996524,-1.0377592,-0.1590079,-1.4155504
0.216,-4.9633617,5.174359,-5.228997,-1.0320337,-0.17354923,-1.459223
0.218,-5.0992885,5.2695527,-5.4570007,-1.0276921,-0.19625771,-1.5010121
0.22,-5.2391205,5.361808,-5.6838045,-1.0248895,-0.22818553,-1.5409161
0.222,-5.383232,5.4517007,-5.9096165,-1.0236948,-0.2702456,-1.5789483
0.224,-5.531705,5.5398,-6.1349874,-1.0241948,-0.3233837,-1.6151531
0.226,-5.6851273,5.6268554,-6.360207,-1.0264357,-0.38837475,-1.6497784
0.228,-5.843442,5.713645,-6.585635,-1.0304284,-0.46573794,-1.6833577
0.23,-6.006497,5.8004823,-6.8118024,-1.0361775,-0.55592275,-1.7165552
0.232,-6.1742754,5.8878465,-7.038887,-1.0436201,-0.65907407,-1.7499168
0.234,-6.346431,5.9759994,-7.2668443,-1.0526893,-0.77505195,-1.7840333
0.236,-6.5224867,6.0651054,-7.4953327,-1.0633453,-0.9035972,-1.819668
0.238,-6.7007923,6.1546454,-7.723756,-1.0755446,-1.0442828,-1.857682
0.24,-6.881925,6.245255,-7.950742,-1.0892334,-1.1965101,-1.898965
0.242,-7.0635138,6.336429,-8.175265,-1.1043591,-1.359595,-1.9443687
0.244,-7.2439265,6.427348,-8.396372,-1.1208806,-1.5327415,-1.9945889
0.246,-7.42193,6.517526,-8.612379,-1.1387529,-1.7151058,-2.050139
0.248,-7.595876,6.606198,-8.821602,-1.1578999,-1.905784,-2.1113715
0.25,-7.7639866,6.692599,-9.022429,-1.1782207,-2.103715,-2.1784325
0.252,-7.9245076,6.7760754,-9.213335,-1.1995491,-2.3076944,-2.2512152
0.254,-8.07591,6.856064,-9.39216,-1.2216891,-2.516445,-2.3293777
0.256,-8.216319,6.9319015,-9.556807,-1.2444267,-2.728625,-2.412393
0.258,-8.34433,7.0028505,-9.704801,-1.2675159,-2.942801,-2.4996088
0.26,-8.458777,7.0682635,-9.833609,-1.2907002,-3.1575835,-2.5903568
0.262,-8.558646,7.127678,-9.940823,-1.31374,-3.3716276,-2.6840408
0.264,-8.64341,7.180618,-10.023938,-1.3364222,-3.5836296,-2.7800384
0.266,-8.712219,7.2265615,-10.0811405,-1.3585371,-3.7923727,-2.877716
0.268,-8.764605,7.2650056,-10.111275,-1.3799337,-3.9967165,-2.976422
0.27,-8.801093,7.2961087,-10.113216,-1.4004558,-4.1955814,-3.0755024
0.272,-8.822629,7.3201623,-10.085869,-1.4199929,-4.3879642,-3.1743896
0.274,-8.829687,7.3371153,-10.027989,-1.4384469,-4.572929,-3.272557
0.276,-8.823263,7.3471546,-9.938655,-1.4557198,-4.7495403,-3.369539
0.278,-8.804907,7.350401,-9.817629,-1.4716768,-4.9168015,-3.4649765
0.28,-8.775669,7.346799,-9.66517,-1.4862047,-5.073862,-3.5585713
0.282,-8.736576,7.3362026,-9.482246,-1.4992023,-5.219973,-3.6501093
0.284,-8.689,7.318591,-9.270043,-1.5105299,-5.354258,-3.7396166
0.286,-8.633833,7.2937098,-9.030507,-1.5200796,-5.4759803,-3.8274183
0.288,-8.572271,7.2614594,-8.765439,-1.5277417,-5.584514,-3.9138
0.29,-8.505236,7.2213297,-8.477625,-1.5333982,-5.679227,-3.9989612
0.292,-8.43326,7.1727,-8.16972,-1.5369798,-5.7596555,-4.0831013
0.294,-8.357209,7.115041,-7.844739,-1.5384753,-5.825536,-4.1664667
0.296,-8.277767,7.0479493,-7.5058937,-1.5379272,-5.876783,-4.249306
0.298,-8.195015,6.9708977,-7.1565957,-1.5354338,-5.913509,-4.3318677
0.3,-8.108649,6.8831196,-6.8003726,-1.5311283,-5.936007,-4.4143753
0.302,-8.019157,6.7837696,-6.439664,-1.5251632,-5.944749,-4.496962
0.304,-7.9261007,6.671681,-6.0784383,-1.5176793,-5.9403367,-4.5796742
0.306,-7.827114,6.5453224,-5.7216864,-1.5087715,-5.9234715,-4.662453
0.308,-7.721534,6.404287,-5.3732862,-1.4985344,-5.8949485,-4.7451673
0.31,-7.6095133,6.2485666,-5.036052,-1.487038,-5.855646,-4.8275914
0.312,-7.490093,6.077223,-4.7131767,-1.4743634,-5.8064585,-4.909453
0.314,-7.36143,5.888514,-4.407396,-1.460618,-5.748297,-4.990414
0.316,-7.222618,5.680978,-4.1209993,-1.4459597,-5.6821537,-5.070091
0.318,-7.072899,5.453703,-3.8568878,-1.4305694,-5.60902,-5.1480794
0.32,-6.9112635,5.205703,-3.6171749,-1.4146881,-5.529887,-5.223933
0.322,-6.736991,4.9364543,-3.4035716,-1.3985771,-5.445765,-5.297147
0.324,-6.5494246,4.645256,-3.217252,-1.3825151,-5.3576446,-5.367136
0.326,-6.348039,4.331807,-3.0583808,-1.3667811,-5.266535,-5.433265
0.328,-6.1343827,3.9972315,-2.9251132,-1.3516438,-5.1734467,-5.4948845
0.33,-5.906331,3.6396747,-2.8212016,-1.337321,-5.079398,-5.551362
0.332,-5.6644316,3.2573547,-2.7480607,-1.3240067,-4.985533,-5.6020346
0.334,-5.409576,2.8508997,-2.7049387,-1.3118863,-4.8930664,-5.646207
0.336,-5.143942,2.4217296,-2.6907551,-1.3011225,-4.8032694,-5.6831584
0.338,-4.8686075,1.9708798,-2.7046146,-1.2919029,-4.7175493,-5.7121634
0.34,-4.5850277,1.4994636,-2.7451496,-1.2844355,-4.6373577,-5.7324996
0.342,-4.2952514,1.0087385,-2.810666,-1.2789679,-4.564166,-5.743448
0.344,-4.0015955,0.50029546,-2.8996458,-1.2758155,-4.4995036,-5.744243
0.346,-3.706174,-0.023904085,-3.0106483,-1.2753478,-4.444851,-5.7340803
0.348,-3.411186,-0.5620422,-3.1414108,-1.277992,-4.4015884,-5.7122226
0.35,-3.1185288,-1.1122763,-3.2896636,-1.2842497,-4.371052,-5.6779547
0.352,-2.8305821,-1.6723585,-3.4540515,-1.2946864,-4.3545055,-5.630584
0.354,-2.5502172,-2.239416,-3.6332579,-1.3099059,-4.3531485,-5.5694776
0.356,-2.2796175,-2.8102179,-3.8261905,-1.3305736,-4.368185,-5.4941144
0.358,-2.020522,-3.381443,-4.0320168,-1.3573357,-4.400558,-5.4041862
0.36,-1.7746587,-3.9497645,-4.249337,-1.3907346,-4.450908,-5.2996054
0.362,-1.5434321,-4.5121307,-4.4762764,-1.4313575,-4.5201163,-5.1802955
0.364,-1.3271544,-5.066025,-4.7112255,-1.4796568,-4.608926,-5.0462165
0.366,-1.1256741,-5.6087203,-4.9521985,-1.5358672,-4.717617,-4.8975387
0.368,-0.9399307,-6.1368327,-5.199152,-1.6000909,-4.846291,-4.734672
0.37,-0.7695849,-6.6476765,-5.45421,-1.6723223,-4.9949274,-4.5582843
0.372,-0.6117915,-7.13974,-5.7159905,-1.75239,-5.163304,-4.369054
0.374,-0.46379757,-7.6111712,-5.98174,-1.839947,-5.3510094,-4.167628
0.376,-0.3244245,-8.05953,-6.248719,-1.9344898,-5.557489,-3.954656
0.378,-0.19259095,-8.482025,-6.515339,-2.035387,-5.782159,-3.7307467
0.38,-0.06539762,-8.876565,-6.7810383,-2.1419196,-6.0244217,-3.4963994
0.382,0.060650826,-9.241567,-7.0458236,-2.253316,-6.283694,-3.2519426
0.384,0.18910885,-9.575698,-7.309763,-2.3687034,-6.559255,-2.9975877
0.386,0.3234942,-9.877663,-7.5722847,-2.4870133,-6.8500075,-2.7335901
0.388,0.46678305,-10.146162,-7.8319316,-2.6069753,-7.1544504,-2.4602983
0.39,0.6215739,-10.379904,-8.087182,-2.727163,-7.4706926,-2.1782303
0.392,0.78980494,-10.57733,-8.336905,-2.8459659,-7.7963505,-1.8880448
0.394,0.9725864,-10.736692,-8.579955,-2.9616897,-8.1286335,-1.5905008
0.396,1.1712105,-10.856445,-8.81515,-3.0726664,-8.464566,-1.2865193
0.398,1.3869689,-10.935433,-9.0417185,-3.1773171,-8.801183,-0.9771904
0.4,1.6202743,-10.972106,-9.258667,-3.274351,-9.135872,-0.66363955
0.402,1.8711305,-10.965161,-9.465344,-3.3629036,-9.466968,-0.3470472
0.404,2.1388159,-10.913643,-9.660438,-3.442508,-9.793608,-0.02862978
0.406,2.422656,-10.817037,-9.842057,-3.513125,-10.115675,0.29051077
0.408,2.7208638,-10.674939,-10.008087,-3.57507,-10.433777,0.60931444
0.41,3.0307631,-10.487006,-10.155837,-3.6288128,-10.749007,0.9266913
0.412,3.349858,-10.252935,-10.283229,-3.674872,-11.062816,1.2415991
0.414,3.6754289,-9.972559,-10.388487,-3.7136812,-11.37649,1.5530453
0.416,4.003998,-9.644987,-10.469493,-3.7453158,-11.690413,1.8599362
0.418,4.331149,-9.2698145,-10.525239,-3.7696016,-12.00431,2.1612463
0.42,4.6531343,-8.84714,-10.5539465,-3.7860842,-12.317263,2.456231
0.422,4.9666033,-8.377362,-10.553989,-3.79396,-12.627271,2.7444031
0.424,5.2666187,-7.8604364,-10.524148,-3.7921524,-12.931461,3.0254817
0.426,5.549894,-7.2968197,-10.46352,-3.7794914,-13.2265,3.299235
0.428,5.8125973,-6.6871886,-10.370829,-3.7548642,-13.508877,3.565526
0.43,6.050344,-6.0322633,-10.245174,-3.7172825,-13.77523,3.824301
0.432,6.259326,-5.3332815,-10.085987,-3.6660485,-14.022623,4.075522
0.434,6.43617,-4.591749,-9.893459,-3.6008048,-14.248741,4.319029
0.436,6.5777235,-3.8095489,-9.668773,-3.521554,-14.4520035,4.5544767
0.438,6.68207,-2.9898677,-9.414479,-3.4287958,-14.631741,4.7814217
0.44,6.7440877,-2.1330032,-9.1277485,-3.3234844,-14.788154,4.9993925
0.442,6.761388,-1.2405258,-8.8093,-3.206945,-14.922065,5.2078876
0.444,6.7319493,-0.31657517,-8.462303,-3.0807557,-15.03461,5.4063396
0.446,6.654853,0.6343143,-8.090133,-2.9465127,-15.126875,5.5939503
0.448,6.527611,1.6085342,-7.695541,-2.80588,-15.200193,5.7697287
0.45,6.348349,2.6027055,-7.2814813,-2.660433,-15.255742,5.9325895
0.452,6.1159325,3.6131196,-6.851098,-2.5114653,-15.294186,6.0814123
0.454,5.829475,4.635908,-6.40715,-2.359928,-15.315783,6.2150154
0.456,5.488138,5.6666293,-5.9522047,-2.2064183,-15.320221,6.332291
0.458,5.091527,6.701107,-5.489652,-2.0513093,-15.307044,6.432282
0.46,4.639456,7.7349515,-5.0225606,-1.894804,-15.275818,6.51417
0.462,4.1327906,8.76319,-4.5533333,-1.7370565,-15.226102,6.577571
0.464,3.5734963,9.780682,-4.0844746,-1.5783527,-15.157638,6.622531
0.466,2.9630077,10.782226,-3.6183414,-1.4191351,-15.070491,6.649492
0.468,2.3031788,11.763012,-3.1571448,-1.2600887,-14.965179,6.659129
0.47,1.5966673,12.718568,-2.703813,-1.1021305,-14.842672,6.6522713
0.472,0.8466605,13.644856,-2.2618055,-0.94643855,-14.704312,6.62983
0.474,0.056080043,14.5383215,-1.8340229,-0.7943586,-14.551683,6.5926676
0.476,-0.77144456,15.395373,-1.4229802,-0.64733636,-14.386401,6.541547
0.478,-1.630151,16.211967,-1.0295832,-0.50679016,-14.2098875,6.4771123
0.48,-2.514823,16.985296,-0.65328753,-0.3740071,-14.023258,6.399854
0.482,-3.4222958,17.713636,-0.2970562,-0.2500152,-13.827162,6.3101807
0.484,-4.3476434,18.394955,0.03563726,-0.1356155,-13.621764,6.2084856
0.486,-5.2835784,19.026993,0.3425442,-0.03129509,-13.406786,6.0951695
0.488,-6.222653,19.607597,0.6229954,0.06273422,-13.181677,5.9706674
0.49,-7.1596756,20.13596,0.87748855,0.14642,-12.945752,5.835505
0.492,-8.089513,20.612278,1.1069574,0.21989648,-12.6982565,5.690219
0.494,-9.006484,21.0372,1.3117981,0.28341925,-12.438487,5.5353656
0.496,-9.904978,21.411684,1.4918234,0.337306,-12.165939,5.3715644
0.498,-10.779185,21.737173,1.6464846,0.38189232,-11.880327,5.1994843
0.5,-11.623385,22.015352,1.7754778,0.41743118,-11.581635,5.019913
0.502,-12.432166,22.248365,1.8793504,0.4442482,-11.269746,4.8335977
0.504,-13.200745,22.438747,1.9587774,0.46266514,-10.94469,4.641223
0.506,-13.925559,22.589758,2.0148952,0.47292048,-10.606749,4.4434066
0.508,-14.603649,22.705126,2.0487177,0.47524762,-10.256214,4.2407546
0.51,-15.23241,22.788637,2.0613694,0.46988916,-9.893427,4.033818
0.512,-15.809986,22.844452,2.0538898,0.4571551,-9.518737,3.8230705
0.514,-16.334242,22.876972,2.026715,0.43739069,-9.1325655,3.6089215
0.516,-16.804304,22.890797,1.9796038,0.41099358,-8.73534,3.391734
0.518,-17.219149,22.890358,1.9129758,0.37838817,-8.327601,3.1717908
0.52,-17.578255,22.880096,1.827313,0.33995807,-7.910001,2.9493062
0.522,-17.881147,22.864006,1.7235045,0.29610384,-7.483267,2.7244415
0.524,-18.127785,22.845594,1.6027946,0.24719602,-7.0482225,2.4973106
0.526,-18.318338,22.82761,1.4658914,0.19355649,-6.6058593,2.2679505
0.528,-18.452553,22.812962,1.3140831,0.13549507,-6.1572304,2.0362961
0.53,-18.53074,22.804594,1.1468015,0.07329434,-5.703445,1.8022158
0.532,-18.553799,22.805443,0.96364594,0.007209122,-5.2457075,1.565537
0.534,-18.522089,22.817778,0.7644048,-0.06246823,-4.785222,1.3260628
0.536,-18.435814,22.843462,0.54819965,-0.13537359,-4.323155,1.0835518
0.538,-18.29498,22.884167,0.31363106,-0.21104836,-3.860679,0.8377469
0.54,-18.09925,22.941076,0.059663773,-0.28895465,-3.3989525,0.58838296
0.542,-17.847902,23.014868,-0.21429539,-0.36845607,-2.939058,0.33516487
0.544,-17.540794,23.105854,-0.50814533,-0.44882694,-2.481992,0.077749275
0.546,-17.177622,23.213816,-0.8222332,-0.5292642,-2.0286863,-0.18423976
0.548,-16.757835,23.338665,-1.157094,-0.60888374,-1.5800343,-0.45118046
0.55,-16.28116,23.47972,-1.5134354,-0.68672943,-1.136827,-0.7234361
0.552,-15.747107,23.636295,-1.8910918,-0.76177824,-0.69977874,-1.0013096
0.554,-15.15592,23.807535,-2.2894502,-0.832991,-0.2695977,-1.2850727
0.556,-14.507763,23.99238,-2.707786,-0.899304,0.15309834,-1.5749316
0.558,-13.802278,24.18862,-3.14493,-0.95967317,0.56771964,-1.871005
0.56,-13.039015,24.39394,-3.5999193,-1.0131044,0.9736569,-2.1733303
0.562,-12.218632,24.606493,-4.071726,-1.0586455,1.3703089,-2.481855
0.564,-11.342019,24.824194,-4.5587997,-1.0954142,1.7570827,-2.796456
0.566,-10.410736,25.045103,-5.0588374,-1.1226379,2.1333518,-3.1169398
0.568,-9.426677,25.267399,-5.568864,-1.1396191,2.4984558,-3.4430585
0.57,-8.391325,25.488329,-6.086905,-1.1457558,2.8516932,-3.7745333
0.572,-7.3107615,25.707544,-6.6128016,-1.1405367,3.1923118,-4.11106
0.574,-6.187384,25.92279,-7.1405287,-1.1235507,3.5194347,-4.4522886
0.576,-5.0213914,26.129873,-7.667975,-1.0945504,3.8320804,-4.7978034
0.578,-3.8173304,26.327824,-8.189923,-1.0533355,4.129262,-5.14712
0.58,-2.5792437,26.515821,-8.703877,-0.9997971,4.4099426,-5.4997325
0.582,-1.3092036,26.69205,-9.207655,-0.9339553,4.6729083,-5.8550777
0.584,-0.011881113,26.856253,-9.696926,-0.8559021,4.916909,-6.2124887
0.586,1.3079758,27.00829,-10.167562,-0.76584184,5.1406875,-6.571158
0.588,2.6472933,27.147074,-10.616787,-0.6641476,5.342929,-6.93009
0.59,4.0028687,27.271856,-11.042703,-0.55121124,5.5224037,-7.288077
0.592,5.37132,27.383226,-11.4432125,-0.42742944,5.678076,-7.643756
0.594,6.749497,27.48209,-11.815898,-0.29330802,5.8090124,-7.9955935
0.596,8.134718,27.569235,-12.158416,-0.14946508,5.914403,-8.341887
0.598,9.524059,27.645678,-12.468203,0.0033779144,5.993684,-8.680855
0.6,10.916246,27.712461,-12.743234,0.16438866,6.046674,-9.010763
0.602,12.309985,27.771088,-12.981681,0.33276677,6.073693,-9.330001
0.604,13.704088,27.823198,-13.181278,0.5073061,6.074722,-9.637038
0.606,15.098681,27.870245,-13.340363,0.6865561,6.0498347,-9.930342
0.608,16.494265,27.91357,-13.457647,0.8690467,5.999531,-10.208512
0.61,17.89135,27.954674,-13.532147,1.0532241,5.924558,-10.470594
0.612,19.29096,27.994696,-13.563077,1.2375104,5.8255744,-10.715888
0.614,20.694572,28.03459,-13.549681,1.4202847,5.7030406,-10.94406
0.616,22.103868,28.074884,-13.491323,1.5999982,5.55758,-11.155166
0.618,23.520708,28.11572,-13.387365,1.7752385,5.3900495,-11.349485
0.62,24.94699,28.156841,-13.237114,1.9447694,5.2013445,-11.527499
0.622,26.38416,28.197683,-13.040144,2.107554,4.9924464,-11.689983
0.624,27.833534,28.237173,-12.795988,2.2627618,4.7644606,-11.837914
0.626,29.29619,28.273914,-12.504137,2.4097548,4.5186524,-11.972411
0.628,30.772646,28.305967,-12.1644,2.548067,4.256408,-12.094774
0.63,32.26315,28.331167,-11.776832,2.6774096,3.9791403,-12.206468
0.632,33.76667,28.3471,-11.341564,2.7975733,3.6881387,-12.309084
0.634,35.282223,28.350899,-10.858777,2.9084067,3.384604,-12.404354
0.636,36.808308,28.339207,-10.329111,3.0097585,3.069705,-12.494154
0.638,38.3425,28.308897,-9.752972,3.10143,2.744389,-12.580449
0.64,39.881855,28.256924,-9.130702,3.183144,2.4094682,-12.665303
0.642,41.42304,28.180038,-8.463202,3.2544696,2.065651,-12.7507515
0.644,42.96282,28.074894,-7.751664,3.3147225,1.7136276,-12.838667
0.646,44.496986,27.93878,-6.9975214,3.3630857,1.354282,-12.930619
0.648,46.021385,27.76906,-6.2023544,3.3987932,0.98890007,-13.027782
0.65,47.531887,27.563261,-5.3684416,3.4211302,0.61921954,-13.130939
0.652,49.024483,27.31933,-4.498474,3.4295459,0.24736977,-13.24033
0.654,50.49633,27.035183,-3.5955281,3.4236894,-0.124200106,-13.355678
0.656,51.9444,26.709274,-2.6624093,3.4033723,-0.49275053,-13.476244
0.658,53.36609,26.340233,-1.7026496,3.368945,-0.8547995,-13.600965
0.66,54.75924,25.927183,-0.7201834,3.3209152,-1.2070241,-13.728518
0.662,56.122276,25.469667,0.28015995,3.2597597,-1.5465488,-13.857308
0.664,57.454826,24.96696,1.2934389,3.186025,-1.8707529,-13.985338
0.666,58.756844,24.41866,2.314889,3.1002927,-2.1770694,-14.110639
0.668,60.02802,23.825459,3.3395472,3.0031357,-2.4631958,-14.231228
0.67,61.268414,23.188108,4.362465,2.8950057,-2.7274363,-14.345196
0.672,62.479225,22.507116,5.3790827,2.7762256,-2.9685245,-14.45089
0.674,63.66182,21.783459,6.384494,2.6470094,-3.185338,-14.54683
0.676,64.817924,21.018137,7.373379,2.5075116,-3.3769376,-14.631624
0.678,65.94955,20.212185,8.340553,2.3578653,-3.542536,-14.704055
0.68,67.05795,19.367521,9.282063,2.1982908,-3.6814647,-14.763179
0.682,68.14772,18.48434,10.195627,2.0290987,-3.793173,-14.808247
0.684,69.21798,17.56514,11.073685,1.8506706,-3.8771675,-14.838656
0.686,70.26649,16.613964,11.913537,1.6635387,-3.9329264,-14.853888
0.688,71.29544,15.631594,12.710053,1.4683964,-3.959961,-14.853486
0.69,72.305214,14.619583,13.461501,1.2660491,-3.9579043,-14.837064
0.692,73.29438,13.581142,14.166304,1.0573844,-3.926499,-14.804305
0.694,74.2634,12.518475,14.820832,0.84337986,-3.86563,-14.75485
0.696,75.21209,11.43425,15.422424,0.6250704,-3.7753615,-14.688344
0.698,76.13784,10.332565,15.970167,0.40348956,-3.6559012,-14.604444
0.7,77.03871,9.217041,16.46415,0.17959538,-3.5076537,-14.50285
0.702,77.91344,8.090254,16.90385,-0.0457758,-3.3313231,-14.383314
0.704,78.76078,6.9552083,17.288729,-0.27195078,-3.1278262,-14.245664
0.706,79.57841,5.815603,17.618021,-0.49841157,-2.8982635,-14.089786
0.708,80.36438,4.6753626,17.891182,-0.724836,-2.6439528,-13.91564
0.71,81.116714,3.537951,18.108475,-0.95104253,-2.3663588,-13.723223
0.712,81.83379,2.406653,18.270414,-1.1770141,-2.0670605,-13.5125475
0.714,82.51478,1.2846766,18.377666,-1.4028282,-1.7476432,-13.283623
0.716,83.157585,0.17584276,18.431307,-1.6286271,-1.4096122,-13.036479
0.718,83.76083,-0.91636276,18.433052,-1.8545755,-1.0543263,-12.77124
0.72,84.32352,-1.9881768,18.385017,-2.0808005,-0.6829307,-12.488201
0.722,84.84523,-3.0364857,18.289465,-2.3073545,-0.2963035,-12.187872
0.724,85.32627,-4.0586305,18.148314,-2.5342429,0.104864836,-11.871035
0.726,85.76719,-5.051903,17.963993,-2.7614465,0.5200479,-11.538818
0.728,86.16831,-6.0135355,17.73877,-2.9889243,0.9488683,-11.192617
0.73,86.53065,-6.941415,17.47508,-3.2167206,1.3909636,-10.834064
0.732,86.85555,-7.833381,17.175161,-3.445013,1.8458931,-10.46494
0.734,87.14489,-8.687731,16.841478,-3.6742558,2.3129516,-10.087063
0.736,87.40095,-9.502927,16.476416,-3.905147,2.7911892,-9.702256
0.738,87.62667,-10.277552,16.082241,-4.1386113,3.27934,-9.312419
0.74,87.82531,-11.010349,15.66095,-4.3757834,3.7758646,-8.919425
0.742,88.00097,-11.700348,15.214253,-4.617898,4.2790737,-8.525122
0.744,88.158066,-12.346354,14.7433,-4.866286,4.7871604,-8.131313
0.746,88.30114,-12.947318,14.2494335,-5.1222625,5.298245,-7.739805
0.748,88.436005,-13.502533,13.733362,-5.3870916,5.8105474,-7.352401
0.75,88.56859,-14.011532,13.195798,-5.661861,6.3224325,-6.9709206
0.752,88.70527,-14.473438,12.637183,-5.9474955,6.832376,-6.597124
0.754,88.85175,-14.886942,12.057731,-6.244796,7.339027,-6.2325544
0.756,89.01435,-15.250717,11.457558,-6.5543823,7.841246,-5.8784485
0.758,89.2009,-15.563507,10.837235,-6.8767776,8.337964,-5.535749
0.76,89.41843,-15.824027,10.197524,-7.2124887,8.828066,-5.2049947
0.762,89.67382,-16.029455,9.538963,-7.5619965,9.310392,-4.88637
0.764,89.97373,-16.177366,8.863045,-7.9257426,9.783555,-4.5798135
0.766,90.32644,-16.265661,8.171133,-8.3042345,10.245913,-4.284985
0.768,90.73859,-16.290352,7.4650784,-8.698001,10.695615,-4.0012527
0.77,91.2169,-16.246593,6.745514,-9.107636,11.130446,-3.727626
0.772,91.76837,-16.128483,6.0135326,-9.533827,11.547946,-3.4627848
0.774,92.401215,-15.929653,5.269211,-9.977253,11.945534,-3.2049375
0.776,93.1227,-15.641698,4.5138283,-10.438603,12.320587,-2.9518719
0.778,93.935616,-15.249603,3.750721,-10.918571,12.67039,-2.700781
0.78,94.83834,-14.733368,2.9831543,-11.417933,12.992226,-2.4482517
0.782,95.839615,-14.084364,2.2207642,-11.937487,13.283455,-2.1903944
0.784,96.961624,-13.304924,1.4565239,-12.47795,13.541685,-1.9229256
0.786,98.2134,-12.380518,0.68154144,-13.039799,13.76495,-1.6414247
0.788,99.59594,-11.281398,-0.10808182,-13.623148,13.951891,-1.3414776
0.79,101.11619,-9.98093,-0.90410995,-14.22773,14.101758,-1.0187573
0.792,102.78115,-8.456505,-1.6957016,-14.852736,14.214409,-0.6692636
0.794,104.59932,-6.681755,-2.476223,-15.496838,14.2905,-0.2893412
0.796,106.57998,-4.6351185,-3.256485,-16.158148,14.331433,0.124400616
0.798,108.73094,-2.3169518,-4.031044,-16.834255,14.33926,0.57504344
0.8,111.04524,0.27007675,-4.776333,-17.522242,14.316606,1.0654154
0.802,113.5418,3.1393833,-5.4902344,-18.218899,14.26651,1.5981717
0.804,116.227005,6.3638916,-6.1476974,-18.920809,14.192251,2.176084
0.806,119.094284,10.009665,-6.7532387,-19.624693,14.0971365,2.8019152
0.808,122.15694,14.058193,-7.3408394,-20.327532,13.983814,3.478026
0.81,125.4404,18.534712,-7.924301,-21.025608,13.855261,4.2064595
0.812,128.9491,23.51271,-8.589489,-21.715118,13.714605,4.989688
0.814,132.60951,28.978476,-9.248531,-22.392221,13.56534,5.831595
0.816,136.53769,34.79572,-9.971054,-23.05373,13.408984,6.7358193
0.818,140.75198,40.944954,-10.775566,-23.697111,13.244143,7.7037444
0.82,145.20377,47.520782,-11.625916,-24.320475,13.066781,8.73546
0.822,149.9009,54.526558,-12.370087,-24.922075,12.871045,9.829575
0.824,154.82524,61.875534,-12.953835,-25.500412,12.648563,10.981678
0.826,159.97098,69.51466,-13.431886,-26.054028,12.386231,12.183004
0.828,165.34633,77.43386,-13.823692,-26.582642,12.063674,13.421466
0.83,170.94879,85.58479,-14.057796,-27.088394,11.654186,14.683609
0.832,176.77774,93.92233,-14.236122,-27.575535,11.127012,15.958408
0.834,182.80328,102.300095,-14.280024,-28.05099,10.443964,17.234045
0.836,189.01804,110.64482,-14.159094,-28.522482,9.560143,18.491726
0.838,195.29512,118.904015,-13.813309,-28.991524,8.430809,19.71775
0.84,201.62558,126.93443,-13.206215,-29.452778,7.0160327,20.912064
0.842,208.0466,134.56633,-12.32825,-29.898386,5.2729607,22.072987
0.844,214.493,141.70018,-11.1278715,-30.321693,3.1617444,23.192865
0.846,220.89867,148.24335,-9.554859,-30.72499,0.6660466,24.294426
0.848,227.15643,154.10745,-7.5672474,-31.108967,-2.2000837,25.409475
0.85,233.19489,159.14883,-5.1014633,-31.46242,-5.4087696,26.567017
0.852,239.05841,163.2262,-2.0970612,-31.782902,-8.930286,27.786694
0.854,244.60681,166.32869,1.4803104,-32.065464,-12.722509,29.078552
0.856,249.73901,168.42609,5.660454,-32.285355,-16.698431,30.412312
0.858,254.42337,169.44348,10.478497,-32.43582,-20.752842,31.767464
0.86,258.57263,169.33542,15.957073,-32.558067,-24.781084,33.093147
0.862,262.0845,168.08691,22.094711,-32.698635,-28.682281,34.29766
0.864,264.8722,165.70155,28.877663,-32.881893,-32.36183,35.275555
0.866,266.852,162.20686,36.272644,-33.123062,-35.738304,35.900513
0.868,267.93335,157.66324,44.220875,-33.420937,-38.739258,36.033535
0.87,268.05014,152.14978,52.640205,-33.74529,-41.30323,35.545467
0.872,267.1454,145.7663,61.42426,-34.030666,-43.390984,34.3322
0.874,265.1764,138.6284,70.447754,-34.17929,-44.97943,32.318653
0.876,262.1199,130.85408,79.57691,-34.074604,-46.051548,29.469843
0.878,257.983,122.57744,88.655624,-33.60144,-46.597656,25.803629
0.88,252.78577,113.94066,97.51916,-32.665184,-46.615932,21.408644
0.882,246.57027,105.091225,106.00328,-31.205915,-46.108963,16.436762
0.884,239.40323,96.177635,113.94685,-29.206493,-45.084904,11.062456
0.886,231.3834,87.34375,121.19135,-26.694782,-43.56179,5.4852705
0.888,222.63383,78.72597,127.582085,-23.742407,-41.56887,-0.061820984
0.89,213.30217,70.44841,132.98535,-20.454428,-39.145668,-5.3266106
0.892,203.54518,62.630627,137.28505,-16.956621,-36.345566,-10.067265
0.894,193.50877,55.38819,140.40143,-13.37751,-33.233498,-14.066409
0.896,183.35959,48.798904,142.27423,-9.832243,-29.872868,-17.130375
0.898,173.28528,42.914146,142.86865,-6.4147663,-26.32851,-19.111134
0.9,163.45706,37.780323,142.17291,-3.1936426,-22.676113,-19.947664
0.902,154.03604,33.438793,140.2133,-0.2252531,-18.992746,-19.64404
0.904,145.15942,29.907124,137.05406,2.4407086,-15.337231,-18.271084
0.906,136.94885,27.174889,132.7894,4.780138,-11.750732,-15.9674635
0.908,129.5037,25.225056,127.51231,6.7816005,-8.276723,-12.931597
0.91,122.90345,24.018536,121.3224,8.440357,-4.9819746,-9.386526
0.912,117.177284,23.481163,114.3559,9.792179,-1.9202042,-5.606191
0.914,112.34183,23.478992,106.73833,10.913534,0.87438405,-1.8434801
0.916,108.39476,23.898739,98.62895,11.86656,3.375641,1.6871643
0.918,105.29088,24.700495,90.19986,12.693364,5.559986,4.7994804
0.92,102.95315,25.788979,81.58651,13.444357,7.4100323,7.360934
0.922,101.31099,27.03555,72.96715,14.169079,8.910892,9.293539
0.924,100.33856,28.407318,64.34509,14.903916,10.057833,10.564085
0.926,99.82561,29.957499,55.881363,15.666246,10.864912,11.1819725
0.928,99.688385,31.598795,47.65618,16.4549,11.353348,11.201685
0.93,99.8941,33.173725,39.695694,17.255236,11.544931,10.713874
0.932,100.34301,34.65979,31.949316,18.044876,11.469553,9.832521
0.934,100.96367,36.11977,24.496418,18.795845,11.165119,8.679355
0.936,101.67594,37.56859,17.49744,19.475021,10.670076,7.3913608
0.938,102.398315,38.989502,11.035084,20.045715,10.01857,6.136336
0.94,103.073685,40.414738,5.097725,20.471298,9.240916,5.074313
0.942,103.65459,41.874718,-0.17796707,20.722507,8.364025,4.334752
0.944,104.12726,43.477654,-4.8544083,20.77767,7.4064493,4.0172896
0.946,104.459694,45.233833,-8.929535,20.622845,6.380022,4.187294
0.948,104.72177,47.135475,-12.423901,20.254833,5.2915053,4.8670473
0.95,104.85121,49.250694,-15.330872,19.683712,4.1437798,6.0327854
0.952,104.76999,51.633266,-17.627506,18.933054,2.9385023,7.617485
0.954,104.51191,54.24575,-19.340656,18.037823,1.67976,9.514983
0.956,104.0946,57.0457,-20.494274,17.041393,0.37602234,11.588977
0.958,103.55466,59.989067,-21.10725,15.992238,-0.9591484,13.68701
0.96,102.87555,63.076557,-21.221329,14.938775,-2.3080359,15.654702
0.962,101.94824,66.28654,-20.875164,13.9225855,-3.6503,17.348839
0.964,100.85261,69.48312,-20.090347,12.975821,-4.963979,18.653131
0.966,99.599304,72.58929,-18.898941,12.121397,-6.227553,19.49154
0.968,98.13443,75.58714,-17.3507,11.371841,-7.4218183,19.834047
0.97,96.46951,78.43634,-15.493549,10.729683,-8.5305,19.695862
0.972,94.624344,81.08444,-13.367191,10.188372,-9.540953,19.13114
0.974,92.602165,83.48576,-11.018017,9.735215,-10.444305,18.223475
0.976,90.40822,85.598404,-8.491468,9.35481,-11.23546,17.073442
0.978,88.0606,87.38042,-5.828842,9.031614,-11.913149,15.7862835
0.98,85.56401,88.805374,-3.0695705,8.752147,-12.479129,14.460782
0.982,82.93154,89.856735,-0.2506485,8.505878,-12.936172,13.179256
0.984,80.18091,90.53182,2.5893173,8.285005,-13.287738,12.002573
0.986,77.33064,90.84723,5.4066253,8.084213,-13.538955,10.970121
0.988,74.39625,90.81845,8.170078,7.9005365,-13.696167,10.100977
0.99,71.40537,90.46688,10.849075,7.73386,-13.765472,9.394055
0.992,68.38636,89.817986,13.41132,7.586476,-13.751613,8.831984
0.994,65.36401,88.90162,15.827838,7.4616637,-13.658895,8.388208
0.996,62.356255,87.75027,18.077742,7.3624706,-13.491272,8.032791
0.998,59.38285,86.394455,20.149157,7.29127,-13.252553,7.736695
1,56.45987,84.86771,22.02974,7.249588,-12.946978,7.4751906
1.002,53.599648,83.205536,23.709679,7.237266,-12.579039,7.2307925
1.004,50.82572,81.43611,25.186207,7.2515244,-12.154169,6.9936233
1.006,48.157646,79.586334,26.461483,7.287264,-11.679342,6.7607584
1.008,45.598038,77.67829,27.534412,7.338297,-11.162855,6.5344505
1.01,43.152657,75.728584,28.402756,7.3979235,-10.614281,6.3204527
1.012,40.82592,73.74639,29.063265,7.4591384,-10.044126,6.1257463
1.014,38.626957,71.74519,29.516487,7.514929,-9.463309,5.956529
1.016,36.556915,69.74991,29.776505,7.5586534,-8.882729,5.8169246
1.018,34.61544,67.78345,29.861502,7.5844965,-8.312948,5.70836
1.02,32.80513,65.86046,29.788237,7.587868,-7.763829,5.6295185
1.022,31.123035,63.9926,29.575294,7.565632,-7.2441516,5.576518
1.024,29.566158,62.192177,29.24057,7.5161924,-6.761299,5.543373
1.026,28.131092,60.469376,28.802479,7.439398,-6.320988,5.522723
1.028,26.81105,58.832664,28.281849,7.336422,-5.9271502,5.5066547
1.03,25.60263,57.285366,27.698597,7.209553,-5.5820165,5.4875364
1.032,24.499996,55.82846,27.072472,7.061857,-5.2862644,5.4587812
1.034,23.494488,54.459133,26.42271,6.896814,-5.0393944,5.4154143
1.036,22.574844,53.170002,25.767101,6.718066,-4.839864,5.3543067
1.038,21.728184,51.952522,25.122015,6.5292425,-4.6854167,5.274204
1.04,20.942451,50.79767,24.501942,6.3336916,-4.5732703,5.1755266
1.042,20.20698,49.696835,23.91948,6.134387,-4.5002666,5.0600705
1.044,19.512508,48.641647,23.384714,5.93388,-4.462912,4.9306026
1.046,18.851965,47.624638,22.905205,5.734275,-4.457523,4.7904124
1.048,18.219004,46.63997,22.487003,5.5372953,-4.480217,4.643003
1.05,17.608282,45.683765,22.1344,5.344304,-4.526917,4.49186
1.052,17.015461,44.753914,21.850794,5.1563606,-4.5934243,4.340232
1.054,16.436987,43.84965,21.638336,4.9743156,-4.6755195,4.1908913
1.056,15.869416,42.970947,21.49756,4.798926,-4.7690277,4.045973
1.058,15.309312,42.118076,21.427406,4.6308827,-4.869892,3.9069564
1.06,14.75386,41.290985,21.425308,4.470844,-4.97428,3.7747703
1.062,14.200676,40.48892,21.48779,4.3195124,-5.078626,3.6498587
1.064,13.647272,39.710487,21.610435,4.1776137,-5.1796703,3.5321903
1.066,13.091642,38.95393,21.788198,4.045885,-5.2745023,3.4213538
1.068,12.531338,38.217808,22.014986,3.9250386,-5.3605647,3.3165991
1.07,11.964576,37.50055,22.284416,3.8157177,-5.4356723,3.216929
1.072,11.390544,36.79969,22.590296,3.71843,-5.4980373,3.121242
1.074,10.807575,36.112904,22.92626,3.633525,-5.5461955,3.0284052
1.076,10.213989,35.437756,23.285698,3.5611975,-5.5790057,2.937324
1.078,9.608903,34.771442,23.661514,3.5014517,-5.595609,2.8469481
1.08,8.991927,34.11098,24.046886,3.4541202,-5.595418,2.7563062
1.082,8.362869,33.453358,24.435516,3.4188929,-5.578115,2.664532
1.084,7.7212467,32.795353,24.821444,3.3953896,-5.54358,2.5708327
1.086,7.0669365,32.133617,25.199,3.383174,-5.4918184,2.4745421
1.088,6.399967,31.464682,25.562992,3.3817844,-5.422897,2.3751063
1.09,5.721304,30.785156,25.908417,3.3907313,-5.3368845,2.2721336
1.092,5.032237,30.091957,26.230774,3.4094667,-5.2337503,2.1654625
1.094,4.3343487,29.382172,26.525665,3.4374216,-5.1133456,2.0551863
1.096,3.6296873,28.653278,26.78901,3.4739246,-4.9753876,1.9417243
1.098,2.9206877,27.903355,27.016722,3.5181675,-4.8195195,1.8258616
1.1,2.2100716,27.13087,27.205208,3.569192,-4.64532,1.7087523
1.102,1.5011044,26.335293,27.350807,3.6258454,-4.4523745,1.591887
1.104,0.7975445,25.516563,27.450096,3.6867537,-4.2404256,1.4770583
1.106,0.103342056,24.675694,27.499876,3.7502818,-4.0094724,1.3663006
1.108,-0.57748795,23.814587,27.497507,3.8145592,-3.759849,1.261804
1.11,-1.2406731,22.935696,27.440792,3.877469,-3.4923391,1.1657605
1.112,-1.8820362,22.042303,27.328281,3.9366884,-3.2082412,1.0802406
1.114,-2.4973326,21.138304,27.159157,3.989746,-2.90942,1.0070668
1.116,-3.0824976,20.228172,26.933289,4.0340486,-2.598331,0.9477283
1.118,-3.633974,19.316582,26.651125,4.066968,-2.278029,0.9032917
1.12,-4.1481857,18.408611,26.313599,4.0859137,-1.9520777,0.8742864
1.122,-4.622243,17.509388,25.92227,4.088431,-1.6244183,0.8606492
1.124,-5.053815,16.624146,25.479374,4.0722876,-1.2992013,0.86169136
1.126,-5.440899,15.757764,24.987844,4.0355806,-0.9806266,0.87604773
1.128,-5.781805,14.914839,24.451298,3.9768052,-0.6728017,0.9016886
1.13,-6.075925,14.099643,23.874159,3.8949423,-0.37953418,0.9360584
1.132,-6.3230286,13.315737,23.261353,3.789517,-0.10418886,0.9762418
1.134,-6.523572,12.566126,22.61827,3.6606405,0.15046847,1.0191025
1.136,-6.678465,11.8533535,21.950546,3.5089824,0.3824082,1.0614784
1.138,-6.7890716,11.179096,21.264013,3.3357682,0.5903729,1.1003988
1.14,-6.8567443,10.544437,20.564413,3.1426787,0.77386665,1.1332365
1.142,-6.883668,9.949894,19.857422,2.9317706,0.9331738,1.1578816
1.144,-6.8719354,9.395411,19.148647,2.705338,1.0692366,1.1728306
1.146,-6.824065,8.880497,18.44306,2.4658175,1.1835397,1.1772215
1.148,-6.742437,8.404082,17.745537,2.21567,1.278037,1.1708629
1.15,-6.629434,7.965151,17.060394,1.9573288,1.3549651,1.1541213
1.152,-6.487751,7.5624123,16.3913,1.6931533,1.4167676,1.1278267
1.154,-6.3194704,7.1944866,15.74137,1.4253451,1.4659553,1.0931584
1.156,-6.126977,6.859759,15.11338,1.1559157,1.504949,1.0515106
1.158,-5.912637,6.556532,14.509368,0.8866914,1.5360469,1.0043259
1.16,-5.678631,6.283039,13.931236,0.6193272,1.561295,0.95297813
1.162,-5.426801,6.037196,13.380433,0.3552438,1.5824387,0.8986336
1.164,-5.1588755,5.8171105,12.857676,0.0956496,1.6008714,0.8421605
1.166,-4.876706,5.6208386,12.363152,-0.15846437,1.6176381,0.78407246
1.168,-4.581915,5.446389,11.896744,-0.4063158,1.6334233,0.72447014
1.17,-4.2759967,5.291779,11.457781,-0.6473081,1.648592,0.6630536
1.172,-3.9603286,5.155015,11.0452175,-0.8810172,1.663233,0.59915334
1.174,-3.6361718,5.034195,10.657778,-1.1071856,1.6771927,0.53184545
1.176,-3.3046849,4.9275317,10.294125,-1.3256823,1.6901224,0.46004152
1.178,-2.9671483,4.83326,9.952754,-1.5365034,1.7015266,0.382613
1.18,-2.6248438,4.7495513,9.631954,-1.7397573,1.7108486,0.29849744
1.182,-2.2790418,4.6748943,9.3300705,-1.9356337,1.7175351,0.20684946
1.184,-1.9308589,4.607794,9.045598,-2.1244211,1.7210786,0.107120275
1.186,-1.5812874,4.5468216,8.776797,-2.306478,1.7210824,-0.0008966923
1.188,-1.2316637,4.490884,8.522114,-2.4822342,1.7172699,-0.11701119
1.19,-0.8826504,4.438758,8.279896,-2.65216,1.7095191,-0.24061465
1.192,-0.5352187,4.389727,8.048711,-2.8167968,1.6978916,-0.37075353
1.194,-0.19029284,4.3434076,7.827058,-2.9767125,1.6826367,-0.5061724
1.196,0.15124893,4.299451,7.61349,-3.1324944,1.6641645,-0.6454282
1.198,0.48881245,4.2579827,7.4067144,-3.284729,1.6430182,-0.78695726
1.2,0.82174516,4.2191396,7.205394,-3.433994,1.6198694,-0.9291991
1.202,1.1494768,4.1833835,7.008196,-3.5808282,1.5954728,-1.0706999
1.204,1.4714761,4.1514544,6.8139877,-3.7256913,1.5706275,-1.2101892
1.206,1.7872722,4.123941,6.621481,-3.8689597,1.5461509,-1.3466165
1.208,2.096639,4.1015015,6.4295635,-4.010874,1.5228201,-1.479202
1.21,2.3992882,4.0852013,6.236974,-4.151555,1.5013635,-1.6074328
1.212,2.6949093,4.0759535,6.042659,-4.2909756,1.4824116,-1.73102
1.214,2.9834585,4.074722,5.8453827,-4.4289465,1.4664927,-1.8498857
1.216,3.2648075,4.0823507,5.644066,-4.565164,1.4539728,-1.9640888
1.218,3.5391672,4.0995965,5.4377093,-4.699198,1.4450886,-2.0737882
1.22,3.8064663,4.1272564,5.22554,-4.8305516,1.4399083,-2.1791906
1.222,4.0668793,4.1658916,5.0067215,-4.958723,1.4383564,-2.2804947
1.224,4.3205385,4.2159514,4.7806616,-5.0832176,1.4402324,-2.377894
1.226,4.5678196,4.2775507,4.546808,-5.203616,1.4452395,-2.4715621
1.228,4.808936,4.350961,4.304764,-5.3195887,1.4529864,-2.5616183
1.23,5.044141,4.43616,4.054321,-5.4309216,1.4630365,-2.6481552
1.232,5.27395,4.533133,3.7953856,-5.537525,1.4749582,-2.7312555
1.234,5.4986343,4.6416316,3.527898,-5.6394386,1.4883149,-2.810979
1.236,5.7187023,4.761283,3.2520034,-5.736807,1.5027027,-2.8873568
1.238,5.9342628,4.891872,2.9680138,-5.8298664,1.5177586,-2.9604397
1.24,6.1459103,5.03301,2.6762815,-5.918912,1.5331528,-3.0302744
1.242,6.3538885,5.184237,2.3774946,-6.0042696,1.5486326,-3.0969567
1.244,6.5587177,5.345202,2.0721855,-6.086305,1.5639684,-3.1606226
1.246,6.7605863,5.5153484,1.7611399,-6.16537,1.57895,-3.2214336
1.248,6.9598475,5.694388,1.4450531,-6.241832,1.5933897,-3.2795925
1.25,7.1568356,5.881739,1.1248853,-6.316073,1.6071273,-3.3353245
1.252,7.3518705,6.0769916,0.80145764,-6.3885,1.6200145,-3.3888888
1.254,7.5449433,6.2796474,0.47565937,-6.4595227,1.6319067,-3.4405377
1.256,7.7361183,6.4893622,0.14851928,-6.5295773,1.6426438,-3.4904957
1.258,7.9253483,6.705903,-0.1791439,-6.599115,1.6521043,-3.5389147
1.26,8.112715,6.928755,-0.5062814,-6.6685286,1.66017,-3.5859652
1.262,8.29824,7.157538,-0.83184123,-6.7381353,1.666749,-3.6317587
1.264,8.481672,7.3916926,-1.1547403,-6.8081474,1.6717887,-3.6763415
1.266,8.66301,7.6307335,-1.4741368,-6.8786626,1.6752728,-3.7197042
1.268,8.842039,7.874076,-1.7889781,-6.9496336,1.6772273,-3.761773
1.27,9.018551,8.121207,-2.0982866,-7.020826,1.6776966,-3.8024855
1.272,9.19196,8.371542,-2.4012005,-7.0918922,1.6767578,-3.8417673
1.274,9.362181,8.624379,-2.6966736,-7.1623955,1.6745287,-3.8795204
1.276,9.529003,8.879016,-2.9836354,-7.231866,1.6711253,-3.9156065
1.278,9.69189,9.134887,-3.2611113,-7.2998257,1.6666725,-3.9498763
1.28,9.850493,9.391255,-3.5280235,-7.365844,1.6613351,-3.982133
1.282,10.004329,9.6476145,-3.7834356,-7.429584,1.6552826,-4.0121307
1.284,10.153084,9.903182,-4.026393,-7.490842,1.6487093,-4.0395613
1.286,10.296269,10.157202,-4.256101,-7.5495296,1.6418523,-4.064022
1.288,10.433497,10.409117,-4.4717484,-7.605629,1.6350325,-4.0850935
1.29,10.564293,10.658283,-4.67239,-7.659184,1.6286194,-4.1023474
1.292,10.688409,10.904025,-4.8572707,-7.7102194,1.6230881,-4.115303
1.294,10.805535,11.145657,-5.025835,-7.7587233,1.6190137,-4.123498
1.296,10.915192,11.382639,-5.177362,-7.8046074,1.617059,-4.1264935
1.298,11.017399,11.614239,-5.3113194,-7.84766,1.6179992,-4.1239457
1.3,11.1115675,11.83996,-5.427304,-7.8875175,1.6227202,-4.115651
1.302,11.197673,12.059204,-5.5247264,-7.9236574,1.6321803,-4.1015787
1.304,11.275559,12.271453,-5.603257,-7.955435,1.6473725,-4.0818486
1.306,11.345323,12.476378,-5.6627398,-7.9820604,1.6693496,-4.0567265
1.308,11.406923,12.673395,-5.703182,-8.002659,1.6991464,-4.026638
1.31,11.460518,12.862114,-5.724617,-8.016289,1.7378418,-3.9921694
1.312,11.506423,13.041973,-5.727377,-8.021959,1.7864634,-3.953938
1.314,11.545038,13.212476,-5.711979,-8.018669,1.8460195,-3.9125533
1.316,11.576875,13.373337,-5.678878,-8.005433,1.9174742,-3.8685584
1.318,11.602363,13.524094,-5.628927,-7.9812765,2.0017476,-3.8223665
1.32,11.6220045,13.664242,-5.562851,-7.9452734,2.0997324,-3.7742786
1.322,11.636663,13.793331,-5.4818225,-7.8965354,2.2122724,-3.7244296
1.324,11.646973,13.910982,-5.387045,-7.8342524,2.3401814,-3.6727428
1.326,11.653831,14.016989,-5.27997,-7.7576537,2.4841256,-3.6190617
1.328,11.65805,14.110909,-5.16212,-7.6660566,2.6445599,-3.5631642
1.33,11.660789,14.192404,-5.0353093,-7.558919,2.8217187,-3.50482
1.332,11.662825,14.261358,-4.9012895,-7.4358587,3.0155184,-3.4437957
1.334,11.665106,14.317709,-4.7619886,-7.296713,3.2255087,-3.37992
1.336,11.668382,14.361557,-4.619441,-7.14155,3.4508488,-3.313127
1.338,11.673866,14.393063,-4.4756203,-6.970703,3.6902525,-3.2434254
1.34,11.682515,14.412615,-4.332576,-6.7848425,3.9419975,-3.170896
1.342,11.694922,14.420649,-4.1923795,-6.5849633,4.2039547,-3.095613
1.344,11.712051,14.417772,-4.0567746,-6.3723807,4.473698,-3.0176895
1.346,11.734627,14.4047165,-3.9277084,-6.1486807,4.748539,-2.9372349
1.348,11.763651,14.382133,-3.8068523,-5.915657,5.0256567,-2.8543973
1.35,11.799568,14.350772,-3.6956904,-5.67523,5.3021965,-2.7693503
1.352,11.843073,14.311594,-3.5956283,-5.4293823,5.575389,-2.6823168
1.354,11.894463,14.265518,-3.5076582,-5.1800637,5.8425856,-2.5935836
1.356,11.954229,14.213478,-3.4325423,-4.9291406,6.1013637,-2.5035124
1.358,12.022684,14.156357,-3.3708405,-4.6783047,6.34955,-2.4125786
1.36,12.099941,14.09499,-3.322786,-4.429101,6.5852137,-2.321349
1.362,12.186421,14.030128,-3.2883704,-4.182869,6.806743,-2.230398
1.364,12.2820215,13.962364,-3.2673678,-3.9407258,7.012804,-2.140308
1.366,12.386917,13.89215,-3.2592437,-3.7036176,7.202424,-2.0517116
1.368,12.500906,13.819763,-3.2631752,-3.472324,7.374937,-1.9652405
1.37,12.623648,13.7456,-3.2782948,-3.2474394,7.530019,-1.8814907
1.372,12.754745,13.669617,-3.3037515,-3.0294018,7.667698,-1.8010446
1.374,12.893949,13.591934,-3.338344,-2.8184803,7.7883224,-1.7244049
1.376,13.040417,13.51244,-3.3807285,-2.614838,7.8925157,-1.6520112
1.378,13.193879,13.430892,-3.4297628,-2.4185078,7.981134,-1.5842451
1.38,13.35351,13.346853,-3.4841263,-2.2294078,8.055249,-1.5213747
1.382,13.518659,13.26006,-3.5425243,-2.0473595,8.116075,-1.4635923
1.384,13.688494,13.169916,-3.603812,-1.8721018,8.164862,-1.411011
1.386,13.861955,13.076046,-3.6667683,-1.7033327,8.202829,-1.363647
1.388,14.038307,12.977844,-3.7304127,-1.5407224,8.231125,-1.3214417
1.39,14.216646,12.874926,-3.79384,-1.3839059,8.2508135,-1.2842628
1.392,14.395939,12.766849,-3.856094,-1.2325339,8.2628765,-1.2519441
1.394,14.575339,12.653454,-3.9165235,-1.086257,8.268136,-1.2242876
1.396,14.753817,12.534631,-3.974399,-0.94472146,8.267328,-1.2010884
1.398,14.930542,12.410197,-4.0292287,-0.8076043,8.261061,-1.1821086
1.4,15.104795,12.280313,-4.0808325,-0.67461824,8.249852,-1.1671059
1.402,15.275547,12.145102,-4.1289463,-0.5454984,8.2341175,-1.1558146
1.404,15.442088,12.004941,-4.173418,-0.4200406,8.214178,-1.1479557
1.406,15.603866,11.860198,-4.2141504,-0.2980709,8.190279,-1.1432307
1.408,15.760153,11.711379,-4.2512865,-0.17949414,8.162621,-1.1413579
1.41,15.910585,11.55896,-4.284867,-0.06427002,8.131307,-1.1420592
1.412,16.05451,11.403514,-4.3152437,0.047586918,8.096386,-1.1450803
1.414,16.191801,11.24544,-4.3425426,0.1559937,8.057858,-1.1502041
1.416,16.322102,11.085132,-4.3668814,0.26081753,8.015621,-1.1572618
1.418,16.445162,10.9233465,-4.388358,0.3618362,7.969516,-1.1661274
1.42,16.560831,10.7605095,-4.407111,0.45882177,7.9193354,-1.1766752
1.422,16.668991,10.597291,-4.423149,0.5515225,7.8648868,-1.188793
1.424,16.76971,10.433989,-4.4365478,0.639678,7.8059797,-1.202447
1.426,16.86323,10.271017,-4.4473953,0.7230556,7.742427,-1.2176007
1.428,16.94928,10.108886,-4.4554663,0.8014376,7.6741276,-1.234256
1.43,17.027952,9.94796,-4.460596,0.8746786,7.601057,-1.252442
1.432,17.099382,9.788326,-4.46277,0.9426997,7.5232925,-1.2721926
1.434,17.16412,9.630126,-4.4618335,1.0054767,7.440982,-1.2935704
1.436,17.222397,9.473394,-4.457521,1.0630572,7.3543444,-1.3166431
1.438,17.274393,9.318375,-4.4496675,1.1155708,7.263685,-1.3414651
1.44,17.320232,9.165275,-4.4378047,1.1632042,7.1693816,-1.3680669
1.442,17.360378,9.014032,-4.421735,1.2062132,7.071856,-1.396436
1.444,17.394974,8.864603,-4.4011545,1.2449048,6.971585,-1.4265275
1.446,17.424347,8.7170105,-4.3758936,1.2796493,6.869065,-1.458242
1.448,17.448599,8.571122,-4.3456507,1.3108568,6.764843,-1.4914434
1.45,17.468033,8.426767,-4.3103075,1.3389736,6.6594725,-1.5259662
1.452,17.482986,8.283946,-4.2697897,1.3644942,6.5535307,-1.5616084
1.454,17.493536,8.142597,-4.224165,1.3879383,6.447563,-1.5981524
1.456,17.500055,8.002643,-4.1734614,1.409816,6.3420525,-1.6353245
1.458,17.50249,7.864056,-4.117821,1.4306266,6.2374415,-1.6729324
1.46,17.501244,7.7268553,-4.0574684,1.4508184,6.1341496,-1.710872
1.462,17.496162,7.590995,-3.9926767,1.4707775,6.032446,-1.7489854
1.464,17.487392,7.4565496,-3.9236288,1.490787,5.932447,-1.7871269
1.466,17.474857,7.3235216,-3.8507276,1.5110189,5.834119,-1.8251963
1.468,17.458782,7.1918616,-3.7743134,1.5315502,5.7373095,-1.8631302
1.47,17.439165,7.061658,-3.694847,1.5523119,5.6417727,-1.9008727
1.472,17.416073,6.932973,-3.6125932,1.5731399,5.547163,-1.9384072
1.474,17.389603,6.805868,-3.5277667,1.5937402,5.4531045,-1.975697
1.476,17.359627,6.680462,-3.4405994,1.613757,5.35921,-2.0127163
1.478,17.326311,6.556918,-3.35139,1.6327839,5.265131,-2.0494163
1.48,17.28959,6.4353666,-3.2602658,1.6504086,5.170562,-2.0857446
1.482,17.24947,6.315957,-3.167131,1.6662556,5.075268,-2.1216273
1.484,17.205921,6.19877,-3.0721364,1.679998,4.9790716,-2.156952
1.486,17.159164,6.0840154,-2.9753242,1.6914065,4.8818617,-2.1915965
1.488,17.109043,5.971758,-2.8766508,1.7003729,4.783582,-2.2253935
1.49,17.055576,5.862272,-2.7760296,1.7068855,4.684229,-2.258156
1.492,16.998924,5.755581,-2.6735682,1.7110279,4.583855,-2.2897065
1.494,16.938925,5.65184,-2.568995,1.7129492,4.482579,-2.3199372
1.496,16.875837,5.551057,-2.4624066,1.7128745,4.380624,-2.3487453
1.498,16.809555,5.4534125,-2.353681,1.711048,4.27826,-2.3760357
1.5,16.740053,5.358968,-2.2427511,1.7077302,4.175814,-2.401762
1.502,16.667572,5.267666,-2.1296735,1.7031504,4.073657,-2.4259152
1.504,16.592005,5.1795845,-2.0143294,1.6975251,3.972209,-2.448485
1.506,16.513527,5.0947003,-1.8968043,1.6910479,3.8719194,-2.4695182
1.508,16.432055,5.0130434,-1.7772799,1.6838722,3.7732577,-2.48906
1.51,16.347729,4.934555,-1.6558166,1.6761311,3.6767132,-2.5071785
1.512,16.260654,4.859234,-1.5326166,1.6679275,3.582706,-2.5238624
1.514,16.170914,4.787092,-1.4077911,1.6593418,3.4915967,-2.539047
1.516,16.078646,4.718006,-1.2817802,1.6504362,3.403735,-2.5527387
1.518,15.983814,4.6519876,-1.154614,1.6412754,3.319451,-2.5649033
1.52,15.886616,4.588944,-1.0267253,1.631914,3.2389758,-2.575418
1.522,15.787076,4.5287185,-0.89844227,1.6224053,3.162424,-2.584121
1.524,15.685403,4.4712677,-0.7701278,1.6128223,3.0898342,-2.5908492
1.526,15.581563,4.4166193,-0.64207935,1.6032319,3.0211682,-2.5954103
1.528,15.475711,4.364497,-0.51473475,1.5937288,2.9563367,-2.5976448
1.53,15.367972,4.314929,-0.38839245,1.5844034,2.8952074,-2.5974355
1.532,15.25853,4.26753,-0.2633977,1.575352,2.8376203,-2.5947113
1.534,15.147358,4.2223544,-0.1399548,1.56665,2.7834115,-2.589497
1.536,15.034435,4.179103,-0.018351555,1.558363,2.7324166,-2.5818858
1.538,14.920416,4.137454,0.100975275,1.5505142,2.6844773,-2.57204
1.54,14.805349,4.097327,0.21777749,1.5431027,2.6394162,-2.5601711
1.542,14.689203,4.0586395,0.3320744,1.5360904,2.597084,-2.5465484
1.544,14.5719795,4.0212045,0.44378066,1.5294123,2.5573092,-2.5314527
1.546,14.453989,3.9848578,0.55276275,1.5229793,2.5199037,-2.5151634
1.548,14.33542,3.9493585,0.65901065,1.5166883,2.4846816,-2.4978955
1.55,14.216654,3.9143906,0.7624109,1.510394,2.4514503,-2.4798465
1.552,14.09794,3.8798034,0.8629286,1.5039669,2.4200516,-2.461164
1.554,13.979721,3.8456218,0.9607117,1.4972718,2.3903794,-2.4419088
1.556,13.862021,3.8116903,1.0560007,1.4902058,2.362333,-2.4220588
1.558,13.745304,3.7779064,1.1487973,1.4826678,2.3358054,-2.4015405
1.56,13.629721,3.7442625,1.2393875,1.4746091,2.3107362,-2.3802285
1.562,13.515635,3.71068,1.3279498,1.466049,2.2870831,-2.3579865
1.564,13.403427,3.6770968,1.4146345,1.4570346,2.2648296,-2.3346684
1.566,13.2932,3.6437168,1.499738,1.4476678,2.2439961,-2.3101468
1.568,13.185274,3.6104746,1.5835433,1.4380834,2.224622,-2.2843447
1.57,13.079943,3.5774531,1.6662562,1.4284163,2.2067695,-2.2572064
1.572,12.977614,3.544665,1.7481093,1.4188236,2.1905222,-2.228725
1.574,12.87834,3.5120373,1.8291571,1.4094509,2.1759613,-2.1989603
1.576,12.782461,3.4798145,1.9097381,1.4004383,2.1632042,-2.1679993
1.578,12.6897335,3.4481258,1.9899609,1.3918954,2.1523457,-2.1359377
1.58,12.600391,3.4169235,2.0700345,1.38393,2.1434684,-2.1029098
1.582,12.514397,3.3862786,2.1500354,1.3766009,2.1366386,-2.0690184
1.584,12.431859,3.356234,2.2299886,1.3699504,2.1319017,-2.0343583
1.586,12.352769,3.3267565,2.309977,1.3639808,2.129292,-1.9989986
1.588,12.277099,3.2978387,2.3899713,1.3586974,2.1287994,-1.9629874
1.59,12.2048435,3.269446,2.4700186,1.3540727,2.1304142,-1.9263623
1.592,12.135874,3.2416217,2.5499477,1.350078,2.1341026,-1.8891613
1.594,12.070182,3.2143497,2.6298056,1.3466653,2.1398203,-1.8514035
1.596,12.007482,3.187541,2.709475,1.3437715,2.147466,-1.813108
1.598,11.947813,3.1612248,2.788996,1.3413284,2.1569426,-1.7742901
1.6,11.891019,3.1352863,2.8680854,1.3392727,2.168143,-1.7349702
1.602,11.836858,3.1097097,2.9468358,1.337539,2.180908,-1.6951866
1.604,11.785347,3.0845633,3.0249538,1.3360726,2.1950688,-1.6549683
1.606,11.736235,3.0598307,3.1025336,1.33482,2.2104516,-1.6143577
1.608,11.689448,3.035378,3.1794126,1.3337418,2.2268586,-1.5734149
1.61,11.64489,3.0112517,3.2555127,1.3328,2.24408,-1.5321904
1.612,11.602245,2.9875145,3.3307652,1.3319632,2.2619197,-1.4907458
1.614,11.56136,2.9640164,3.405144,1.3312085,2.2801757,-1.4491174
1.616,11.522274,2.940846,3.4784694,1.3305126,2.298676,-1.4073703
1.618,11.484755,2.918024,3.5509174,1.3298677,2.3172588,-1.3655809
1.62,11.448598,2.8955085,3.6223838,1.3292663,2.3357801,-1.323813
1.622,11.413725,2.87326,3.692758,1.3287021,2.354113,-1.2821381
1.624,11.380051,2.8512683,3.7621105,1.3281895,2.3721871,-1.2406418
1.626,11.347353,2.8294582,3.830515,1.3277047,2.3899393,-1.1994126
1.628,11.315617,2.807911,3.8978775,1.3272331,2.407334,-1.1585205
1.63,11.284508,2.7866607,3.9641752,1.3267621,2.424335,-1.1180542
1.632,11.254242,2.7656188,4.029416,1.3262709,2.4409425,-1.0781157
1.634,11.224385,2.7449293,4.093743,1.3257352,2.4571624,-1.0387819
1.636,11.194957,2.7245781,4.157073,1.3251315,2.4729989,-1.0001447
1.638,11.165892,2.7044575,4.219425,1.3244331,2.4884589,-0.96225774
1.64,11.136952,2.6846833,4.280781,1.3236086,2.5035317,-0.9251817
1.642,11.107971,2.6654315,4.3411555,1.3226192,2.5182,-0.8889441
1.644,11.078902,2.646606,4.40051,1.3214397,2.5324397,-0.8535609
1.646,11.049728,2.6283548,4.4588714,1.3200383,2.5462177,-0.81904376
1.648,11.020311,2.6107035,4.5162683,1.31837,2.5594802,-0.78538865
1.65,10.99055,2.59359,4.572627,1.3163862,2.5721955,-0.7525927
1.652,10.960373,2.5772016,4.627968,1.3140525,2.5843227,-0.72064435
1.654,10.929672,2.5614548,4.6822658,1.3113115,2.5958016,-0.6895296
1.656,10.898312,2.5464067,4.7355304,1.3081023,2.6065848,-0.65925896
1.658,10.866444,2.5321524,4.7877254,1.3043723,2.6166263,-0.6298346
1.66,10.833784,2.5187542,4.8388834,1.3000596,2.6258726,-0.6012823
1.662,10.800426,2.5062947,4.889082,1.2951188,2.6342864,-0.5736173
1.664,10.766263,2.4946456,4.9382453,1.2895176,2.6418269,-0.5468824
1.666,10.731428,2.4837878,4.986341,1.2832334,2.6484582,-0.52111596
1.668,10.695741,2.4738698,5.033503,1.2762423,2.6541576,-0.49637467
1.67,10.659363,2.4647639,5.0797005,1.2685333,2.6588924,-0.4726836
1.672,10.622098,2.4566455,5.125003,1.2601019,2.6626627,-0.45005125
1.674,10.584003,2.4494505,5.1694937,1.2509339,2.6654751,-0.4284808
1.676,10.545123,2.4431143,5.2132697,1.2410206,2.6673372,-0.4079467
1.678,10.505479,2.4376829,5.256221,1.230344,2.668252,-0.38838756
1.68,10.465087,2.4331155,5.298448,1.2188843,2.6682394,-0.36971682
1.682,10.423876,2.4294064,5.3399124,1.2066175,2.667318,-0.35184437
1.684,10.381908,2.4266899,5.3808036,1.193504,2.6655,-0.33467036
1.686,10.339212,2.4248004,5.4209914,1.1795217,2.6628058,-0.3180985
1.688,10.295868,2.423831,5.4606304,1.1646391,2.6592522,-0.30204707
1.69,10.251764,2.4238386,5.499698,1.1488415,2.6548522,-0.28644574
1.692,10.20681,2.4247506,5.5382876,1.1321052,2.6496336,-0.2712503
1.694,10.161199,2.426587,5.5764155,1.1144443,2.6436338,-0.25643545
1.696,10.114923,2.4293542,5.6140065,1.095854,2.6369038,-0.24200922
1.698,10.067814,2.4331315,5.651205,1.0763364,2.6294858,-0.22799116
1.7,10.019864,2.437933,5.687942,1.0558966,2.6214244,-0.2144072
1.702,9.971232,2.443708,5.7242985,1.0345588,2.6127892,-0.20129699
1.704,9.921821,2.4504635,5.7602973,1.0123408,2.6036263,-0.18869668
1.706,9.8716755,2.4581919,5.7958937,0.9892528,2.593978,-0.17664367
1.708,9.82061,2.466925,5.831026,0.9653148,2.5838933,-0.16516137
1.71,9.768772,2.4765935,5.8658495,0.94055057,2.5734224,-0.15426022
1.712,9.716045,2.48731,5.9002156,0.91497505,2.562613,-0.14394861
1.714,9.66238,2.498972,5.934228,0.8886025,2.5515008,-0.13419205
1.716,9.607859,2.5115528,5.967865,0.8614363,2.5401235,-0.124958634
1.718,9.552508,2.5250938,6.001088,0.83346623,2.5285258,-0.11619425
1.72,9.4962,2.5394711,6.0339413,0.80469245,2.5167322,-0.10783589
1.722,9.439217,2.5546687,6.0664816,0.7751067,2.504767,-0.09980589
1.724,9.3814335,2.5707264,6.0986633,0.74468166,2.4926555,-0.09204084
1.726,9.322761,2.5875196,6.1306357,0.7133937,2.4803956,-0.08448213
1.728,9.263516,2.6049857,6.1621995,0.6812251,2.4679925,-0.07706541
1.73,9.203636,2.6232412,6.1936035,0.64815456,2.4554498,-0.06974882
1.732,9.14335,2.6421027,6.2248526,0.61417264,2.4427671,-0.06251371
1.734,9.082663,2.661495,6.255846,0.5792961,2.429944,-0.055376887
1.736,9.0217,2.6814284,6.286761,0.54354274,2.4170065,-0.04835987
1.738,8.960599,2.7017074,6.3175898,0.50696236,2.4039981,-0.041523337
1.74,8.899626,2.72229,6.348518,0.46961018,2.3909655,-0.03492868
1.742,8.838756,2.7431636,6.379529,0.43155807,2.377986,-0.028669834
1.744,8.778152,2.7640214,6.4106946,0.3928771,2.3651602,-0.022854209
1.746,8.718066,2.78478,6.442,0.35364023,2.3525965,-0.01757276
1.748,8.658428,2.8054948,6.4736323,0.3139155,2.3404086,-0.012899816
1.75,8.59949,2.825929,6.505554,0.27377447,2.3287106,-0.0088995695
1.752,8.541353,2.8460371,6.537781,0.23328348,2.317623,-0.005602002
1.754,8.484108,2.8656337,6.570368,0.19250359,2.30727,-0.003001988
1.756,8.42779,2.8846438,6.6033125,0.15147993,2.297746,-0.0010566711
1.758,8.372492,2.9029608,6.636642,0.11025242,2.2891488,0.0003052354
1.76,8.318359,2.92065,6.670307,0.068847805,2.2815673,0.0011814833
1.762,8.265383,2.9374526,6.7043276,0.02728097,2.275081,0.0016827583
1.764,8.213633,2.9534369,6.7385554,-0.014446024,2.269757,0.0019296408
1.766,8.163147,2.9685645,6.772964,-0.05635518,2.265646,0.0020372272
1.768,8.113906,2.982791,6.807501,-0.098456055,2.2627923,0.0020914674
1.77,8.066035,2.9961114,6.842037,-0.1407775,2.2612302,0.0021734238
1.772,8.019366,3.0085485,6.8765326,-0.183341,2.2609665,0.0023109317
1.774,7.973998,3.020187,6.910957,-0.22617204,2.2620215,0.0025171638
1.776,7.9299545,3.031102,6.945066,-0.26926985,2.2643764,0.00276196
1.778,7.8870616,3.0413415,6.978845,-0.31260982,2.268014,0.0030032396
1.78,7.8453856,3.0510664,7.012117,-0.35616753,2.2729173,0.0031687617
1.782,7.804955,3.0602345,7.0449204,-0.39990625,2.2790504,0.0031817555
1.784,7.7656517,3.0691698,7.0772185,-0.44378334,2.2863815,0.0029860735
1.786,7.727417,3.077929,7.1088223,-0.48776782,2.2948704,0.002529204
1.788,7.6903105,3.0867226,7.1397705,-0.53183043,2.3044786,0.0018046498
1.79,7.654265,3.0957832,7.1701117,-0.5759513,2.3151739,0.00081288815
1.792,7.6192694,3.1053264,7.1997633,-0.62013876,2.3269227,-0.0004092455
1.794,7.585314,3.1155765,7.2288465,-0.67013896,2.3414125,-0.0018048882
1.796,7.552219,3.1267471,7.257224,-0.71825004,2.3563275,-0.0032938123
1.798,7.5200844,3.1390555,7.2850485,-0.7683192,2.372782,-0.0047643185
1.8,7.4887547,3.1527462,7.3122816,-0.82088554,2.390929,-0.006133318
1.802,7.4583144,3.1680675,7.339006,-0.8764129,2.4109044,-0.007309079
1.804,7.428384,3.1852765,7.3651733,-0.935172,2.4327776,-0.008218348
1.806,7.399099,3.2045484,7.39093,-0.99711615,2.456523,-0.008794665
1.808,7.370426,3.2260742,7.4163575,-1.0617527,2.481987,-0.009006143
1.81,7.342266,3.249958,7.441435,-1.1280948,2.5088606,-0.008849859
1.812,7.314342,3.2764459,7.466258,-1.1947008,2.5366833,-0.008342564
1.814,7.2866764,3.3055673,7.4907756,-1.2597966,2.564894,-0.007515788
1.816,7.2592683,3.337336,7.5151186,-1.3215334,2.5928895,-0.0064394474
1.818,7.2320356,3.3718524,7.5392632,-1.3782723,2.6201344,-0.005182624
1.82,7.204821,3.4091606,7.563144,-1.4288654,2.6462474,-0.0038378239
1.822,7.1777606,3.4491296,7.586836,-1.4728845,2.6710422,-0.0024943948
1.824,7.150605,3.4917326,7.6102676,-1.5106785,2.694592,-0.0012315512
1.826,7.1234055,3.5369475,7.6333857,-1.5433192,2.7171888,-0.00010716915
1.828,7.096177,3.584753,7.6561756,-1.5723873,2.7392738,0.00085246563
1.83,7.0688868,3.6350806,7.6785965,-1.5997107,2.7613952,0.0016390085
1.832,7.041471,3.6878288,7.7006063,-1.6270446,2.784076,0.0022833347
1.834,7.01412,3.7429292,7.721969,-1.6558564,2.8077493,0.0028355718
1.836,6.986901,3.8002727,7.7427387,-1.687175,2.8327267,0.0033720732
1.838,6.9598536,3.8597925,7.762876,-1.7215426,2.8591628,0.0039841533
1.84,6.9330354,3.9213278,7.782144,-1.7590809,2.887072,0.0047692657
1.842,6.906486,3.984894,7.8005342,-1.799605,2.9163778,0.00580287
1.844,6.880471,4.0503845,7.817931,-1.842712,2.9469054,0.0071493387
1.846,6.855133,4.1177297,7.834196,-1.8879306,2.9784615,0.00886035
1.848,6.830653,4.1868267,7.849325,-1.9314483,3.0098464,0.010944128
1.85,6.8070693,4.2575293,7.8631563,-1.9809877,3.0432918,0.013372302
1.852,6.784627,4.3297815,7.875639,-2.030791,3.0770373,0.016089559
1.854,6.7634487,4.4035063,7.886591,-2.0808287,3.1110086,0.019013166
1.856,6.7435923,4.47858,7.896058,-2.1310463,3.1451764,0.022024632
1.858,6.725356,4.554837,7.903864,-2.1813977,3.179521,0.025014162
1.86,6.708784,4.632263,7.9100833,-2.2318244,3.2140467,0.027837515
1.862,6.6939483,4.7107053,7.914549,-2.2822845,3.248764,0.030412316
1.864,6.6808662,4.790185,7.9172683,-2.3327336,3.2837064,0.032684803
1.866,6.669656,4.870605,7.918103,-2.38314,3.3189187,0.03464687
1.868,6.660307,4.9519596,7.9170885,-2.433499,3.3544326,0.03632486
1.87,6.6527505,5.0341525,7.9141946,-2.4838233,3.390287,0.037831664
1.872,6.6470957,5.117274,7.909327,-2.534135,3.4264927,0.03930211
1.874,6.643217,5.2013383,7.902537,-2.5844877,3.4630463,0.04090047
1.876,6.6409783,5.286337,7.893688,-2.634944,3.4999368,0.042808533
1.878,6.6403027,5.3723087,7.8827295,-2.6855788,3.53712,0.045193195
1.88,6.64094,5.4592223,7.869566,-2.7364511,3.5745344,0.048205376
1.882,6.642861,5.5472097,7.8542304,-2.787617,3.6120996,0.0519377
1.884,6.645835,5.6362824,7.8364596,-2.8391073,3.649721,0.056452274
1.886,6.649515,5.726441,7.816389,-2.890941,3.6873052,0.061744332
1.888,6.653885,5.817645,7.7938385,-2.943095,3.724749,0.06776142
1.89,6.6584435,5.9099474,7.768751,-2.9955354,3.7619593,0.07439458
1.892,6.6631637,6.003294,7.7409215,-3.0482204,3.7988505,0.08150077
1.894,6.667664,6.0976343,7.7102375,-3.1010785,3.835337,0.08890605
1.896,6.6716356,6.192995,7.676627,-3.1540155,3.8713276,0.09643614
1.898,6.674933,6.289254,7.6399913,-3.2069585,3.906764,0.10392332
1.9,6.6770864,6.3864384,7.600039,-3.2598095,3.941589,0.11120784
1.902,6.6781216,6.484504,7.5567627,-3.3124852,3.9757428,0.11817491
1.904,6.677688,6.58335,7.509856,-3.364895,4.0091934,0.1247679
1.906,6.675699,6.6830173,7.4593377,-3.416964,4.041905,0.13097107
1.908,6.671876,6.78345,7.4049025,-3.468617,4.073857,0.13683796
1.91,6.6660986,6.884736,7.346463,-3.5198145,4.105014,0.14247549
1.912,6.6582327,6.9868364,7.283815,-3.5705097,4.13536,0.14802074
1.914,6.648346,7.0898933,7.2167764,-3.6206903,4.164875,0.15365934
1.916,6.6362042,7.193897,7.145123,-3.6703467,4.193524,0.15955591
1.918,6.621752,7.298981,7.0686917,-3.7194977,4.221259,0.16587734
1.92,6.604974,7.405264,6.987322,-3.7681692,4.2480083,0.17277813
1.922,6.585981,7.5128384,6.900875,-3.8163958,4.273685,0.18038487
1.924,6.564637,7.6217456,6.809299,-3.8642097,4.298171,0.18876314
1.926,6.541011,7.73222,6.712412,-3.9116547,4.321328,0.19794083
1.928,6.5152006,7.8441434,6.6101913,-3.9587626,4.3429966,0.20792127
1.93,6.4872856,7.9575396,6.5025015,-4.0055737,4.3629994,0.21865535
1.932,6.457317,8.0723715,6.3893204,-4.052131,4.3811536,0.23005891
1.934,6.425378,8.188648,6.2706027,-4.0984793,4.3972545,0.2420299
1.936,6.3914733,8.306108,6.1464787,-4.144664,4.4111176,0.25445843
1.938,6.3556843,8.424613,6.0170126,-4.190731,4.4225345,0.2672119
1.94,6.318225,8.543888,5.8823,-4.2367334,4.4313097,0.2801733
1.942,6.279276,8.663557,5.742489,-4.2827063,4.43725,0.2932198
1.944,6.2387686,8.783355,5.597906,-4.3286915,4.4401755,0.30623293
1.946,6.1969643,8.90283,5.4486103,-4.3747067,4.4398994,0.3191049
1.948,6.153958,9.021461,5.2949576,-4.420773,4.4362593,0.3317454
1.95,6.1101274,9.13871,5.1372747,-4.466895,4.429112,0.3440845
1.952,6.0655203,9.254069,4.975894,-4.51304,4.418319,0.35607147
1.954,6.020436,9.366888,4.811183,-4.5591793,4.403773,0.36766934
1.956,5.9751377,9.476567,4.643443,-4.6052427,4.385397,0.3788736
1.958,5.9297757,9.582434,4.473165,-4.6511674,4.363147,0.38968897
1.96,5.8848724,9.683868,4.300522,-4.696863,4.3370175,0.40011978
1.962,5.840493,9.780231,4.1259336,-4.7422185,4.3070602,0.41019797
1.964,5.796852,9.870855,3.9497862,-4.7871113,4.2733855,0.41993046
1.966,5.7544575,9.9549885,3.7723336,-4.8313937,4.2361407,0.42930532
1.968,5.713539,10.0321,3.5938683,-4.874898,4.195532,0.43827963
1.97,5.6741667,10.101449,3.414516,-4.9174266,4.151833,0.44679236
1.972,5.636637,10.162481,3.2345142,-4.9587426,4.105341,0.4547484
1.974,5.601157,10.214704,3.0539513,-4.9986115,4.0563893,0.46201515
1.976,5.567711,10.257593,2.8728595,-5.0367703,4.005317,0.4684584
1.978,5.536437,10.290759,2.6911964,-5.0729513,3.9524496,0.47394562
1.98,5.5073094,10.313721,2.5088952,-5.106868,3.8981025,0.47836685
1.982,5.4801297,10.3262415,2.3257968,-5.1382594,3.8425646,0.48162985
1.984,5.4546943,10.3280945,2.1418045,-5.1668754,3.7860727,0.48367882
1.986,5.43079,10.319017,1.9567077,-5.1924725,3.728835,0.48447394
1.988,5.4080725,10.298925,1.7702639,-5.214864,3.671027,0.48401356
1.99,5.386156,10.267837,1.5823119,-5.233869,3.612767,0.4823289
1.992,5.36446,10.225647,1.3925927,-5.249353,3.5541434,0.47946453
1.994,5.342522,10.172499,1.2010527,-5.261196,3.4952207,0.47544622
1.996,5.319925,10.10857,1.007488,-5.2693477,3.4360263,0.47031903
1.998,5.2957773,10.034111,0.8118167,-5.2737637,3.376544,0.4641297
2,5.26962,9.949277,0.61420417,-5.2744226,3.3167517,0.45692348
2.002,5.2406926,9.854346,0.41481948,-5.2713246,3.2565963,0.4487512
2.004,5.2083936,9.749598,0.213938,-5.2644978,3.196004,0.43965173
2.006,5.1722326,9.635361,0.012005091,-5.2539873,3.134873,0.4296813
2.008,5.131322,9.512028,-0.19039726,-5.2398458,3.073094,0.41889334
2.01,5.085389,9.379846,-0.3923974,-5.222142,3.0105343,0.40733218
2.012,5.0336685,9.239228,-0.59326816,-5.200962,2.9470396,0.39506674
2.014,4.9757724,9.090576,-0.79186714,-5.176404,2.8824618,0.38217282
2.016,4.911192,8.934321,-0.98703325,-5.1485634,2.8166537,0.36873984
2.018,4.839605,8.7709,-1.1775484,-5.117526,2.749457,0.35487914
2.02,4.760805,8.600712,-1.3618464,-5.0833874,2.6807404,0.34072137
2.022,4.674534,8.424271,-1.5385026,-5.046221,2.610372,0.32641816
2.024,4.5805917,8.241893,-1.7059278,-5.0060935,2.5382361,0.312124
2.026,4.478874,8.054141,-1.8625076,-4.9630647,2.4642549,0.29804778
2.028,4.3692937,7.861505,-2.0067303,-4.917153,2.388374,0.28441024
2.03,4.2520976,7.6645336,-2.1370454,-4.868394,2.310576,0.27146864
2.032,4.127357,7.463714,-2.2520695,-4.816805,2.2308874,0.25951362
2.034,3.9954584,7.2597227,-2.3505313,-4.762408,2.1493697,0.24882507
2.036,3.8567154,7.053059,-2.4313416,-4.705219,2.066118,0.2397213
2.038,3.71147,6.8444743,-2.4935572,-4.645261,1.9812773,0.23254561
2.04,3.5602472,6.634554,-2.5365176,-4.5825715,1.8950262,0.22766304
2.042,3.4034486,6.423971,-2.5598338,-4.517183,1.8075902,0.22538996
2.044,3.2419262,6.213363,-2.5633721,-4.449131,1.7192318,0.22600865
2.046,3.0761938,6.0035214,-2.547391,-4.378437,1.630233,0.22977424
2.048,2.9070473,5.795041,-2.512193,-4.305129,1.5409017,0.23691273
2.05,2.7351723,5.588584,-2.45855,-4.229198,1.4515785,0.24756527
2.052,2.5611956,5.3848114,-2.3873425,-4.1506143,1.362611,0.2617911
2.054,2.3860283,5.1842957,-2.2997873,-4.069351,1.2743567,0.27958643
2.056,2.2102034,4.987643,-2.1972716,-3.9853535,1.1871473,0.30088663
2.058,2.034629,4.7954264,-2.0814538,-3.8985476,1.1013097,0.32557213
2.06,1.8599561,4.6080804,-1.954099,-3.808872,1.0171803,0.35348868
2.062,1.6870054,4.426021,-1.8170631,-3.7162592,0.9350854,0.38444018
2.064,1.5162928,4.24963,-1.6723703,-3.6206603,0.8553554,0.4181825
2.066,1.348462,4.0791507,-1.5219567,-3.522028,0.77832067,0.4544406
2.068,1.1841325,3.9148924,-1.3679587,-3.4203339,0.70430696,0.49290347
2.07,1.0238603,3.756931,-1.2121829,-3.3155813,0.6336266,0.53324604
2.072,0.868062,3.6054535,-1.0566818,-3.207808,0.5666018,0.5751302
2.074,0.7172452,3.46057,-0.90325236,-3.0970566,0.5035424,0.61821246
2.076,0.5716654,3.3223362,-0.75358486,-2.983402,0.44477144,0.66216356
2.078,0.43149173,3.1905382,-0.60924494,-2.866941,0.39059168,0.7066668
2.08,0.29726362,3.0652084,-0.4716491,-2.7478142,0.34128356,0.75138175
2.082,0.16894606,2.9462626,-0.34194136,-2.6262026,0.2970779,0.7960148
2.084,0.04675457,2.8334634,-0.22128648,-2.5023086,0.25817654,0.84028107
2.086,-0.069104314,2.726633,-0.110399604,-2.3763804,0.22471645,0.8839092
2.088,-0.17872378,2.6255221,-0.009974062,-2.2487037,0.19675282,0.926684
2.09,-0.28192347,2.530098,0.07947534,-2.1196077,0.17425758,0.9683969
2.092,-0.37867877,2.4399981,0.15770179,-1.9894783,0.15711465,1.0088807
2.094,-0.46901408,2.3549948,0.22444826,-1.8587434,0.14510494,1.0480072
2.096,-0.5531547,2.275024,0.27946275,-1.7278601,0.13792682,1.0857264
2.098,-0.6314471,2.2000613,0.32270026,-1.5973296,0.13521332,1.1220386
2.1,-0.7039373,2.129917,0.35429078,-1.4676774,0.13653514,1.1569915
2.102,-0.77067846,2.0642414,0.37452877,-1.3394163,0.14143237,1.1906575
2.104,-0.8318009,2.0027242,0.38366652,-1.2130733,0.14942032,1.2231568
2.106,-0.8875284,1.9452759,0.3821261,-1.0891403,0.1600323,1.2546372
2.108,-0.9379892,1.8916235,0.37028658,-0.9680662,0.17281327,1.2852166
2.11,-0.9836469,1.8417856,0.34851855,-0.85023606,0.18738386,1.3149922
2.112,-1.024692,1.7956312,0.31730694,-0.73597735,0.20338717,1.3440189
2.114,-1.0613942,1.7530565,0.2770846,-0.6255523,0.22049811,1.3722849
2.116,-1.0942069,1.7138689,0.22836518,-0.51917875,0.23843947,1.3997245
2.118,-1.1232082,1.6779149,0.17156821,-0.41701448,0.2569688,1.4262316
2.12,-1.1489348,1.6451948,0.10706359,-0.31919098,0.2759012,1.4516625
2.122,-1.1715724,1.615464,0.03546542,-0.22577646,0.29511446,1.4758419
2.124,-1.1914433,1.5885755,-0.04293567,-0.13678348,0.31457514,1.498553
2.126,-1.2089007,1.5643746,-0.12762803,-0.052178442,0.33426717,1.519559
2.128,-1.2241273,1.5426831,-0.21814996,0.028092861,0.35417897,1.5386324
2.13,-1.2376043,1.523361,-0.31417966,0.10412204,0.37436473,1.5555587
2.132,-1.2494855,1.5062361,-0.4152661,0.17606282,0.39496928,1.5701835
2.134,-1.2599659,1.4911426,-0.5209446,0.24413544,0.41619208,1.5823866
2.136,-1.2692196,1.4779679,-0.63074255,0.30859178,0.43821684,1.5920368
2.138,-1.2773706,1.4664787,-0.7441537,0.36967492,0.46118158,1.5990381
2.14,-1.2847403,1.456422,-0.8607608,0.42763227,0.48516166,1.6033225
2.142,-1.2913634,1.4476877,-0.9799758,0.4827115,0.5101708,1.6048392
2.144,-1.2973675,1.4400091,-1.1011838,0.5351164,0.5361067,1.6035457
2.146,-1.3028126,1.4332101,-1.223771,0.58501685,0.56275874,1.5994232
2.148,-1.3075957,1.4270622,-1.3471569,0.6325029,0.58981514,1.592514
2.15,-1.3117025,1.4214079,-1.4706213,0.67760867,0.6168981,1.5829031
2.152,-1.3149745,1.4159938,-1.5935159,0.72030896,0.6435978,1.5707438
2.154,-1.3174433,1.4106491,-1.715127,0.7605257,0.66948307,1.5562371
2.156,-1.3189913,1.405175,-1.8346844,0.79815626,0.69418484,1.5396361
2.158,-1.3195903,1.3993869,-1.9515696,0.8331039,0.7174121,1.5211954
2.16,-1.3189342,1.3931751,-2.0651448,0.8652808,0.7389232,1.5011489
2.162,-1.3170782,1.3863821,-2.1748655,0.89462566,0.75856733,1.4797146
2.164,-1.3138285,1.3789277,-2.2800379,0.9211174,0.77624893,1.4570304
2.166,-1.3091154,1.3706572,-2.3801577,0.9447939,0.79193676,1.4331844
2.168,-1.3029563,1.3615818,-2.4747882,0.9657346,0.8056358,1.4082211
2.17,-1.2953613,1.3517406,-2.5633893,0.98405886,0.81734514,1.3821373
2.172,-1.2862275,1.3410858,-2.645737,0.9999143,0.82706666,1.354923
2.174,-1.2755996,1.3296485,-2.7213776,1.0134525,0.83477545,1.326569
2.176,-1.2634618,1.3175818,-2.7902176,1.0248201,0.840417,1.2971168
2.178,-1.2499537,1.3049747,-2.8520436,1.0341376,0.84390044,1.2666544
2.18,-1.2352839,1.2920048,-2.9068418,1.041517,0.8451555,1.2353321
2.182,-1.2192729,1.2786794,-2.9544873,1.0470641,0.8441093,1.2033153
2.184,-1.2021582,1.2652519,-2.995194,1.0508399,0.8406279,1.1707664
2.186,-1.1842139,1.2519659,-3.0289629,1.052867,0.83453363,1.1378365
2.188,-1.1655354,1.2390566,-3.0558755,1.0531476,0.8256452,1.1046817
2.19,-1.1463792,1.2266693,-3.0761747,1.0516814,0.8138256,1.0714493
2.192,-1.1267006,1.2150912,-3.090067,1.0484674,0.7989384,1.0382382
2.194,-1.1067812,1.2045667,-3.097716,1.043519,0.7808522,1.005106
2.196,-1.0868583,1.1953025,-3.0994787,1.0368432,0.7594382,0.9720865
2.198,-1.0671039,1.1874632,-3.0955234,1.0284727,0.7345869,0.93920386
2.2,-1.0476797,1.1812264,-3.0861194,1.0184522,0.70621765,0.90646243
2.202,-1.0286484,1.1768078,-3.071555,1.0068724,0.67427665,0.87384206
2.204,-1.0102019,1.1743903,-3.0520668,0.9938336,0.63872784,0.8413317
2.206,-0.99226373,1.1739391,-3.0276883,0.97947407,0.5995632,0.8089205
2.208,-0.97479624,1.1754248,-2.9987087,0.9639617,0.55682296,0.77662385
2.21,-0.95794636,1.1789718,-2.9653883,0.9474721,0.5105651,0.74446815
2.212,-0.9420397,1.1848023,-2.9280949,0.9301945,0.4608843,0.71250105
2.214,-0.927067,1.1929846,-2.887146,0.91233164,0.40791887,0.6807932
2.216,-0.9129819,1.2033491,-2.8427367,0.8940927,0.35182917,0.64941037
2.218,-0.8996872,1.2159307,-2.795032,0.8756724,0.29281935,0.6184316
2.22,-0.8869074,1.230492,-2.7443185,0.8572617,0.23110005,0.5879266
2.222,-0.8747487,1.2469807,-2.69082,0.839027,0.16690774,0.5579412
2.224,-0.86316514,1.2652471,-2.6345806,0.8211194,0.10050006,0.5285197
2.226,-0.85194266,1.2852978,-2.5758734,0.803665,0.03212233,0.49967325
2.228,-0.8411183,1.3070865,-2.514831,0.7867795,-0.037966102,0.47139177
2.23,-0.83042526,1.3303318,-2.4515038,0.77053404,-0.10952545,0.4436409
2.232,-0.81983984,1.3550758,-2.3860917,0.7550122,-0.18230614,0.41638267
2.234,-0.8092341,1.3811748,-2.3186493,0.7402643,-0.25608337,0.38957053
2.236,-0.79851717,1.4086165,-2.249271,0.7263204,-0.3306254,0.36316115
2.238,-0.787635,1.4372084,-2.17803,0.7132217,-0.4057265,0.33711356
2.24,-0.7762879,1.4668658,-2.1049418,0.70098925,-0.48118755,0.3114056
2.242,-0.7646025,1.4975849,-2.0300078,0.68964636,-0.5568117,0.28601593
2.244,-0.75232804,1.5292108,-1.9533588,0.6791992,-0.63241774,0.26093015
2.246,-0.7395504,1.5616872,-1.875027,0.66966206,-0.70782554,0.2361438
2.248,-0.726102,1.5949663,-1.7950519,0.6610339,-0.78288287,0.21166173
2.25,-0.7119083,1.6290281,-1.7133125,0.6532944,-0.8574414,0.1874829
2.252,-0.697001,1.663844,-1.63,0.6464424,-0.9313729,0.16361338
2.254,-0.68131876,1.6994355,-1.5451133,0.6404674,-1.004578,0.14005652
2.256,-0.664886,1.735651,-1.4585555,0.6353433,-1.0769678,0.116835654
2.258,-0.64768183,1.7725376,-1.3704851,0.6310467,-1.1484692,0.09397298
2.26,-0.6296809,1.8100493,-1.2809492,0.62756455,-1.2190247,0.07150656
2.262,-0.610935,1.8482335,-1.1899797,0.6248778,-1.2885959,0.049479485
2.264,-0.5914046,1.8869848,-1.0976357,0.6229658,-1.3571671,0.027961373
2.266,-0.57106304,1.9263891,-1.0040123,0.62182,-1.4247189,0.007021308
2.268,-0.55003566,1.9664935,-0.90916663,0.62143064,-1.4912294,-0.013256431
2.27,-0.52832675,2.0073085,-0.8131277,0.62178314,-1.556688,-0.03279066
2.272,-0.5058477,2.0489154,-0.71605545,0.62287396,-1.6210794,-0.05150509
2.274,-0.48264006,2.091212,-0.6179507,0.6246966,-1.6843764,-0.06933802
2.276,-0.45873088,2.1343236,-0.518968,0.6272533,-1.7465376,-0.08623481
2.278,-0.43414152,2.1781847,-0.41909826,0.63054216,-1.8075159,-0.10216051
2.28,-0.40882197,2.222861,-0.31846803,0.6345629,-1.8672521,-0.11711514
2.282,-0.38285196,2.2682786,-0.21711063,0.6393134,-1.925694,-0.13109052
2.284,-0.3562186,2.314622,-0.11512405,0.6448109,-1.9827609,-0.14410633
2.286,-0.32882476,2.3617032,-0.012623668,0.6510574,-2.0384107,-0.1562072
2.288,-0.30065632,2.409551,0.09044349,0.65806746,-2.0925744,-0.16745472
2.29,-0.2717975,2.4581332,0.19397199,0.66585284,-2.1452105,-0.1779027
2.292,-0.24217018,2.507438,0.29791135,0.6744197,-2.1962786,-0.18762839
2.294,-0.21172014,2.5573444,0.40222138,0.6837854,-2.245742,-0.19672775
2.296,-0.18048993,2.6076505,0.5067942,0.6939671,-2.2935772,-0.20529974
2.298,-0.14828587,2.658407,0.6115562,0.70499,-2.3397713,-0.2134651
2.3,-0.115064144,2.7095232,0.7166268,0.71689224,-2.3843205,-0.22135997
2.302,-0.08117992,2.7607508,0.82195485,0.72969884,-2.4272065,-0.22910488
2.304,-0.04625678,2.8119357,0.9274318,0.7434515,-2.4684196,-0.23682988
2.306,-0.010254979,2.8629928,1.0330887,0.7581709,-2.5079477,-0.24465537
2.308,0.026921988,2.9137616,1.1388321,0.77389026,-2.545788,-0.25267315
2.31,0.06510854,2.9642234,1.2447464,0.7906416,-2.5819294,-0.26094162
2.312,0.104303,3.0141916,1.350815,0.80844235,-2.6163673,-0.2694807
2.314,0.14474207,3.0635629,1.4569172,0.82730126,-2.6490822,-0.27827275
2.316,0.1863522,3.1123776,1.5631663,0.8472198,-2.6800644,-0.28726828
2.318,0.22914213,3.160637,1.6695085,0.8681971,-2.709286,-0.29639482
2.32,0.27312773,3.2083018,1.7758994,0.8902118,-2.7367282,-0.3055446
2.322,0.31848764,3.2554102,1.8822455,0.9132349,-2.762366,-0.31461477
2.324,0.36510897,3.3019946,1.988696,0.9372302,-2.7861624,-0.32347846
2.326,0.41303015,3.3482184,2.0951042,0.96213746,-2.8080864,-0.33203602
2.328,0.46235836,3.394188,2.2013824,0.9878987,-2.8280985,-0.34017682
2.33,0.51299655,3.4401395,2.3075266,1.0144563,-2.8461776,-0.34779954
2.332,0.5651021,3.4861727,2.4134977,1.0417304,-2.8623,-0.35482335
2.334,0.6187142,3.5324636,2.5191634,1.0696406,-2.8764446,-0.36116123
2.336,0.6737281,3.5792155,2.624542,1.0981259,-2.8886118,-0.3667605
2.338,0.7302468,3.626673,2.7295337,1.1271037,-2.8988209,-0.37156367
2.34,0.7882906,3.6750555,2.8339784,1.1565125,-2.9070768,-0.37553716
2.342,0.8479253,3.7245011,2.9378088,1.1862993,-2.9134207,-0.37866378
2.344,0.9090872,3.7752168,3.0409956,1.2164035,-2.9179063,-0.3809644
2.346,0.9716861,3.8272986,3.1434088,1.2467649,-2.9205933,-0.38247418
2.348,1.0356562,3.8810258,3.2449133,1.2773285,-2.921557,-0.38325083
2.35,1.1010072,3.9364946,3.3454263,1.3080298,-2.9208794,-0.38338518
2.352,1.1677444,3.9937034,3.444864,1.338803,-2.9186492,-0.38297164
2.354,1.2356551,4.0527954,3.5431602,1.3695719,-2.9149754,-0.38211906
2.356,1.3046862,4.1137586,3.6401846,1.4002683,-2.909977,-0.38094985
2.358,1.3747755,4.176596,3.7358193,1.4308124,-2.903767,-0.37956965
2.36,1.4457474,4.2414,3.8299851,1.4611294,-2.8964581,-0.37807572
2.362,1.5174613,4.308068,3.922669,1.4911401,-2.8881683,-0.37654603
2.364,1.5897553,4.3764997,4.01377,1.5207736,-2.879024,-0.37504387
2.366,1.6625725,4.4466906,4.1031046,1.5499644,-2.8691368,-0.37360668
2.368,1.7354469,4.518539,4.190727,1.578648,-2.8586216,-0.37225544
2.37,1.8082645,4.5918293,4.276531,1.6067733,-2.8475769,-0.3709848
2.372,1.8808999,4.6664467,4.3603654,1.6342776,-2.8361177,-0.3697673
2.374,1.9530655,4.742255,4.4421353,1.6611087,-2.8243303,-0.36857963
2.376,2.024611,4.818887,4.5218163,1.6872205,-2.812282,-0.36739552
2.378,2.095207,4.8961525,4.5993705,1.7125525,-2.8000498,-0.3661914
2.38,2.1646953,4.973717,4.6747355,1.7370677,-2.787687,-0.3649528
2.382,2.2328105,5.0512977,4.7478833,1.7607192,-2.775233,-0.36369634
2.384,2.299221,5.1285,4.8186035,1.7834774,-2.7627127,-0.36245906
2.386,2.3640075,5.204947,4.887038,1.8053349,-2.75015,-0.36129856
2.388,2.426725,5.2802444,4.9530706,1.826278,-2.7375708,-0.36029768
2.39,2.4872565,5.353757,5.016697,1.8463233,-2.7249796,-0.3595611
2.392,2.5454354,5.4252696,5.0779996,1.8654965,-2.7123847,-0.3591975
2.394,2.6011517,5.494049,5.1368117,1.8838319,-2.6998172,-0.35931647
2.396,2.6541061,5.5597196,5.1933894,1.9013696,-2.6872907,-0.36003244
2.398,2.7043233,5.621731,5.247604,1.9181821,-2.6748059,-0.3614427
2.4,2.7516737,5.6795483,5.2996216,1.9343272,-2.6623607,-0.36362302
2.402,2.7959545,5.732691,5.3494024,1.9498479,-2.649953,-0.3666221
2.404,2.8372781,5.7807045,5.397114,1.9647907,-2.6375716,-0.37046278
2.406,2.8755202,5.823161,5.4428596,1.979192,-2.625178,-0.3751539
2.408,2.9107041,5.859625,5.486673,1.9930573,-2.6127279,-0.3806696
2.41,2.9427633,5.8897066,5.5287037,2.0063987,-2.6001768,-0.3869717
2.412,2.9720404,5.9132357,5.5690603,2.0191927,-2.5874746,-0.39400125
2.414,2.998355,5.92996,5.60793,2.0314252,-2.5745616,-0.40167034
2.416,3.021847,5.9397426,5.6454883,2.0430622,-2.5613756,-0.40989625
2.418,3.0426512,5.942544,5.6817975,2.0540738,-2.547865,-0.41856992
2.42,3.061032,5.938261,5.716996,2.0644264,-2.5339787,-0.4275558
2.422,3.0769815,5.927072,5.7512245,2.0740907,-2.5196881,-0.4367138
2.424,3.090859,5.9090347,5.784733,2.0830452,-2.5049582,-0.44589686
2.426,3.1028438,5.8843703,5.8176455,2.0912771,-2.489756,-0.45495522
2.428,3.1130466,5.853383,5.850096,2.0987692,-2.4740682,-0.46373117
2.43,3.121728,5.8164635,5.882143,2.1055198,-2.4578943,-0.47206485
2.432,3.1291385,5.7739887,5.914052,2.1115332,-2.4412203,-0.47982657
2.434,3.1355157,5.72641,5.9458933,2.116823,-2.4240413,-0.4868933
2.436,3.1410694,5.6740785,5.9777303,2.1214015,-2.4063733,-0.49318707
2.438,3.145914,5.6175866,6.0097723,2.1253018,-2.3882182,-0.4986316
2.44,3.1503732,5.557391,6.042073,2.1285586,-2.369567,-0.50318897
2.442,3.1545732,5.4940357,6.0747037,2.1312194,-2.3504238,-0.5068507
2.444,3.15865,5.42804,6.1077046,2.1333253,-2.3308048,-0.509629
2.446,3.1628006,5.3598714,6.141158,2.134933,-2.3107173,-0.5115503
2.448,3.167193,5.2899733,6.175169,2.1360865,-2.290147,-0.51265156
2.45,3.171768,5.218829,6.209792,2.1368399,-2.2691088,-0.51298344
2.452,3.176711,5.1468697,6.2451,2.13724,-2.2475977,-0.51259613
2.454,3.1821756,5.074487,6.280984,2.137331,-2.2256305,-0.51154876
2.456,3.1881363,5.002108,6.3174787,2.1371577,-2.2032115,-0.50991213
2.458,3.194652,4.929959,6.3545628,2.1367624,-2.1803498,-0.50776815
2.46,3.2017968,4.858297,6.3922133,2.1361616,-2.1570644,-0.5051739
2.462,3.2094693,4.7875557,6.43038,2.1353827,-2.1333826,-0.5022081
2.464,3.217703,4.7178526,6.469055,2.134438,-2.109328,-0.49893945
2.466,3.2265487,4.6493416,6.5081673,2.1333554,-2.0849395,-0.49543244
2.468,3.2358196,4.582206,6.547641,2.1321445,-2.0602567,-0.49175334
2.47,3.2455132,4.5164914,6.58742,2.1308236,-2.0353122,-0.48794925
2.472,3.2555904,4.4523787,6.6274934,2.129418,-2.0101418,-0.4840657
2.474,3.2660859,4.3898993,6.6676226,2.127948,-1.9847772,-0.4801494
2.476,3.2768414,4.3290854,6.7079105,2.1264439,-1.9592474,-0.47622263
2.478,3.2880487,4.269958,6.748194,2.1249263,-1.933564,-0.4723066
2.48,3.299413,4.2126317,6.7883945,2.123427,-1.907735,-0.46840906
2.482,3.3110223,4.1569605,6.828415,2.121975,-1.8817556,-0.46452665
2.484,3.322721,4.1029935,6.8682566,2.1205802,-1.8556049,-0.46065557
2.486,3.3344553,4.0508018,6.9076705,2.1192515,-1.8292642,-0.4567718
2.488,3.3463206,4.000283,6.9466066,2.1179829,-1.8027039,-0.4528495
2.49,3.3580613,3.9514465,6.9849277,2.1167548,-1.7758832,-0.4488541
2.492,3.3698294,3.9042087,7.022564,2.1155226,-1.7487961,-0.44476706
2.494,3.3816352,3.858614,7.0594215,2.114224,-1.7214372,-0.44056916
2.496,3.3933043,3.8145666,7.0952997,2.1127784,-1.693808,-0.4362479
2.498,3.4049103,3.7719893,7.130212,2.1110895,-1.6659355,-0.43180847
2.5,3.4164298,3.7309952,7.1639557,2.109062,-1.6378784,-0.42727584
2.502,3.4279358,3.6912804,7.1964855,2.1065876,-1.6097069,-0.42269993
2.504,3.439355,3.6529243,7.227726,2.1035597,-1.5815024,-0.41812634
2.506,3.450739,3.6158714,7.2576113,2.099881,-1.5533837,-0.41361564
2.508,3.4619975,3.5800028,7.286051,2.0954795,-1.5254564,-0.40921402
2.51,3.473165,3.5453568,7.3129883,2.0902956,-1.4978349,-0.40497708
2.512,3.4843102,3.511859,7.338473,2.0842853,-1.4706367,-0.40094554
2.514,3.4954157,3.4793515,7.3624554,2.0774527,-1.4439591,-0.39716232
2.516,3.5066972,3.4478326,7.385008,2.0697997,-1.4178824,-0.39365804
2.518,3.5178223,3.4172368,7.406137,2.0613375,-1.3924683,-0.39044645
2.52,3.5290847,3.3874443,7.4258504,2.0521011,-1.3677526,-0.38754478
2.522,3.5403922,3.3583522,7.4441767,2.0421298,-1.3437423,-0.38497663
2.524,3.5517678,3.3299625,7.4612665,2.0314696,-1.3204113,-0.38274074
2.526,3.5633526,3.302195,7.4770985,2.0201774,-1.2977258,-0.38084733
2.528,3.5750756,3.2749927,7.4917955,2.0082915,-1.2756119,-0.3793025
2.53,3.5870118,3.2484202,7.5054264,1.9958597,-1.2539792,-0.37810314
2.532,3.599328,3.2222552,7.518174,1.98292,-1.2327465,-0.37722003
2.534,3.6117833,3.1966162,7.530055,1.9695055,-1.2118185,-0.37663022
2.536,3.6245632,3.1714733,7.540966,1.9556288,-1.1911093,-0.37629828
2.538,3.6377614,3.1467035,7.5511856,1.941301,-1.1705437,-0.3761652
2.54,3.6511645,3.1223173,7.5607634,1.9265194,-1.1500673,-0.3761776
2.542,3.6649113,3.098322,7.5696297,1.911259,-1.1296415,-0.37626255
2.544,3.678976,3.0747123,7.577917,1.8955035,-1.1092498,-0.37634894
2.546,3.6934273,3.0515203,7.5856347,1.8792224,-1.0888863,-0.37635908
2.548,3.7081397,3.0286896,7.5927525,1.8623847,-1.068571,-0.37623447
2.55,3.7231119,3.0062249,7.599367,1.8449438,-1.0483398,-0.3759323
2.552,3.7382953,2.9842162,7.605472,1.8268588,-1.0282316,-0.37542182
2.554,3.753666,2.962595,7.61116,1.8081032,-1.0082995,-0.3746959
2.556,3.7691228,2.941375,7.616396,1.7886611,-0.9886125,-0.37375283
2.558,3.7845843,2.9205544,7.6211233,1.7685161,-0.96923447,-0.37262982
2.56,3.7999253,2.9001474,7.6254797,1.7476574,-0.9502263,-0.37138757
2.562,3.8151352,2.8801703,7.62939,1.7260985,-0.93165433,-0.37009642
2.564,3.8300362,2.8605654,7.63295,1.7038708,-0.91359097,-0.36880934
2.566,3.8447957,2.841211,7.6361957,1.6809982,-0.8960979,-0.3675807
2.568,3.8591194,2.8221176,7.6391706,1.6575142,-0.8792337,-0.36646235
2.57,3.8728552,2.80335,7.6418815,1.6334702,-0.8630338,-0.36546943
2.572,3.886094,2.7847152,7.644369,1.6089225,-0.84752125,-0.36462077
2.574,3.898636,2.7663202,7.6467533,1.5839062,-0.83270395,-0.36390072
2.576,3.9106224,2.7481303,7.6489964,1.5584625,-0.8185683,-0.3632718
2.578,3.9219701,2.7300467,7.6512623,1.532617,-0.80508834,-0.3627028
2.58,3.9324777,2.712181,7.6534557,1.5063812,-0.7922063,-0.36214614
2.582,3.9423287,2.6943908,7.6557407,1.4797705,-0.7798877,-0.36155123
2.584,3.9513428,2.6768067,7.6581564,1.4527891,-0.76806974,-0.3608613
2.586,3.9596667,2.6593304,7.660693,1.4254315,-0.75669795,-0.36002582
2.588,3.9671533,2.6420078,7.663538,1.3976915,-0.7457161,-0.3589935
2.59,3.9738972,2.6248617,7.666633,1.3695798,-0.7350731,-0.35770667
2.592,3.9796846,2.608075,7.670121,1.3411145,-0.7247145,-0.35612175
2.594,3.9846833,2.5915184,7.6739726,1.3123115,-0.7145924,-0.354194
2.596,3.9889374,2.575211,7.678171,1.2832054,-0.70465815,-0.3519128
2.598,3.992287,2.5593486,7.682869,1.2538269,-0.6948446,-0.34927222
2.6,3.9947116,2.5439022,7.6880884,1.2242057,-0.6850994,-0.34629416
2.602,3.9962654,2.5289397,7.693891,1.1943811,-0.6753551,-0.3430021
2.604,3.9968548,2.5145292,7.7002907,1.1644078,-0.66555315,-0.33943546
2.606,3.9964302,2.5007098,7.7072678,1.1343282,-0.65563494,-0.33564436
2.608,3.9950871,2.4875045,7.714839,1.1041734,-0.64554507,-0.33167633
2.61,3.9926476,2.4749265,7.7230005,1.0739975,-0.6352448,-0.32755584
2.612,3.989014,2.463139,7.7316856,1.0438508,-0.6246898,-0.32328695
2.614,3.9842932,2.4520762,7.741045,1.0137907,-0.6138478,-0.31884572
2.616,3.9785447,2.441743,7.7508745,0.98386085,-0.6026863,-0.3141775
2.618,3.9715936,2.4322126,7.761236,0.95411426,-0.5911631,-0.30922222
2.62,3.963495,2.4235368,7.7720594,0.9245923,-0.5792364,-0.3039034
2.622,3.954262,2.415702,7.783222,0.8953278,-0.5668609,-0.29813588
2.624,3.9437065,2.4088833,7.794737,0.86635643,-0.55398756,-0.29184413
2.626,3.9319806,2.4030013,7.8065405,0.837695,-0.5405497,-0.28495705
2.628,3.9192786,2.3980916,7.8184977,0.809364,-0.526477,-0.27743834
2.63,3.9054756,2.3941681,7.8305607,0.78136647,-0.51171124,-0.2692656
2.632,3.8906143,2.3912683,7.8427544,0.7537084,-0.4961975,-0.26043135
2.634,3.874829,2.3893154,7.8549185,0.7263826,-0.47988525,-0.25096196
2.636,3.8581634,2.3883271,7.867028,0.6993934,-0.462722,-0.2408988
2.638,3.840787,2.3882139,7.878971,0.6727333,-0.4446824,-0.2303046
2.64,3.8227794,2.3888147,7.890702,0.6464002,-0.42575705,-0.21925388
2.642,3.8041317,2.3903759,7.9020557,0.62040305,-0.40593606,-0.20781094
2.644,3.7850573,2.3925445,7.9130287,0.59473246,-0.38522455,-0.19606087
2.646,3.7656016,2.3952966,7.9236193,0.5693817,-0.36364117,-0.18408826
2.648,3.745911,2.398527,7.933672,0.54435563,-0.34120414,-0.17197952
2.65,3.7262464,2.4020927,7.943117,0.51964223,-0.31793898,-0.15980344
2.652,3.7063463,2.4058301,7.951947,0.49523765,-0.2938892,-0.14763935
2.654,3.6865501,2.409656,7.960052,0.47113934,-0.26908886,-0.13555133
2.656,3.6668704,2.4133613,7.967392,0.4473353,-0.24357995,-0.12359325
2.658,3.6474752,2.4167597,7.9739866,0.42382947,-0.21738869,-0.111799136
2.66,3.628331,2.4198432,7.979688,0.40061194,-0.19056392,-0.10019811
2.662,3.6095798,2.42244,7.984515,0.3776839,-0.16314961,-0.088801116
2.664,3.5913146,2.4244096,7.9884043,0.35503012,-0.13518791,-0.07762754
2.666,3.5736399,2.4256735,7.991352,0.33264312,-0.10672356,-0.06666286
2.668,3.55628,2.4261594,7.9933624,0.31051275,-0.0778037,-0.055888504
2.67,3.5397277,2.4258206,7.994356,0.28862473,-0.04846091,-0.045301333
2.672,3.5237012,2.4245863,7.9943776,0.2669503,-0.01875688,-0.034876965
2.674,3.5082943,2.4225464,7.9934254,0.2454659,0.011263609,-0.024591642
2.676,3.493432,2.419757,7.9915075,0.22413135,0.041568212,-0.014416058
2.678,3.4792721,2.4162302,7.9886837,0.20290476,0.072113834,-0.0043332186
2.68,3.465694,2.4120321,7.9848433,0.18175355,0.102856725,0.005694285
2.682,3.4526951,2.407236,7.9800587,0.16064538,0.13375178,0.015693434
2.684,3.4403698,2.4019656,7.9742203,0.13954538,0.16476314,0.025679648
2.686,3.4285002,2.396311,7.9675226,0.11842646,0.19585255,0.03567291
2.688,3.4171138,2.3904026,7.9597816,0.09726555,0.2269642,0.045687936
2.69,3.4062884,2.3843367,7.951165,0.07604029,0.25803378,0.05573853
2.692,3.395782,2.3783162,7.9415774,0.05473067,0.28899682,0.06581554
2.694,3.3855982,2.3724892,7.9310837,0.033334732,0.31979278,0.07591424
2.696,3.3756928,2.3670442,7.919668,0.011825281,0.35033798,0.086006254
2.698,3.3660421,2.3620043,7.9072614,-0.0098124575,0.38055936,0.09605626
2.7,3.3565905,2.3575706,7.893984,-0.03158266,0.4103851,0.10603215
2.702,3.3473113,2.3537576,7.8798113,-0.053504683,0.43974084,0.115894645
2.704,3.3381999,2.3507414,7.864729,-0.075590566,0.46855706,0.1255874
2.706,3.329001,2.3486373,7.848854,-0.09785036,0.49677762,0.13506028
2.708,3.3199103,2.3474016,7.8321195,-0.120300755,0.5243538,0.14425969
2.71,3.3107738,2.3472464,7.8145733,-0.14295143,0.5512333,0.1531305
2.712,3.301486,2.348116,7.7962055,-0.16582316,0.5773682,0.16162655
2.714,3.2920237,2.3501053,7.77714,-0.18892096,0.60273325,0.16971144
2.716,3.2824204,2.3532338,7.75741,-0.21224208,0.62730104,0.1773544
2.718,3.2725842,2.3574722,7.7369785,-0.23577893,0.65104467,0.18453994
2.72,3.2625818,2.3629022,7.7160683,-0.2595377,0.6739414,0.19125761
2.722,3.2523267,2.369405,7.6947174,-0.28351724,0.6959808,0.19750248
2.724,3.2417886,2.3770206,7.6728845,-0.3076992,0.71715164,0.20328708
2.726,3.2308183,2.3858542,7.650815,-0.33206874,0.7374662,0.2086252
2.728,3.2196174,2.3957765,7.6285124,-0.3566019,0.7569213,0.2135341
2.73,3.2080748,2.406726,7.6060286,-0.3812913,0.7755095,0.21803306
2.732,3.196125,2.4187794,7.5835648,-0.4061317,0.7932438,0.22215037
2.734,3.1839173,2.4318707,7.561062,-0.431126,0.8101459,0.22590487
2.736,3.1712725,2.4460285,7.5386,-0.45627928,0.8262335,0.22933197
2.738,3.1582937,2.4611871,7.5163794,-0.4815976,0.841519,0.23247568
2.74,3.1448877,2.4774036,7.494455,-0.50709814,0.85603034,0.23537324
2.742,3.1312268,2.4945648,7.472808,-0.53279436,0.86978936,0.23806396
2.744,3.1172547,2.5127485,7.45153,-0.5586961,0.8828212,0.24057764
2.746,3.1029046,2.5319555,7.4307413,-0.5848072,0.8951589,0.24294639
2.748,3.0882664,2.5521717,7.4105015,-0.6111297,0.9068288,0.2451845
2.75,3.073362,2.573285,7.390765,-0.63765186,0.917865,0.24729703
2.752,3.0582805,2.5953228,7.3715754,-0.6643593,0.9283076,0.24928437
2.754,3.042939,2.618313,7.352991,-0.6912554,0.93819445,0.2511266
2.756,3.0274568,2.6421702,7.335018,-0.71832126,0.9475762,0.2527992
2.758,3.0117764,2.6669018,7.3176336,-0.7455393,0.95649505,0.25427997
2.76,2.995998,2.6924875,7.3009176,-0.77290213,0.9650005,0.25556594
2.762,2.9802287,2.7188754,7.2847424,-0.8003917,0.97313905,0.2566433
2.764,2.9644244,2.7460191,7.2690964,-0.8279981,0.98096067,0.257514
2.766,2.9486234,2.7739081,7.2540236,-0.8557063,0.9885104,0.25818816
2.768,2.9329133,2.8024957,7.239332,-0.8834919,0.9958365,0.25868756
2.77,2.9173336,2.831654,7.22509,-0.9113559,1.0029829,0.25904617
2.772,2.9019024,2.8613868,7.211196,-0.93928576,1.0099957,0.2592967
2.774,2.8866353,2.891663,7.197571,-0.9672538,1.0169172,0.25948155
2.776,2.871553,2.9224617,7.184172,-0.9952451,1.0237982,0.25963867
2.778,2.8569152,2.9537513,7.170855,-1.023239,1.0306722,0.25979966
2.78,2.842482,2.9854436,7.157571,-1.0512106,1.0375979,0.25998965
2.782,2.828488,3.0174532,7.1442375,-1.0791439,1.0446342,0.2602287
2.784,2.814895,3.0497575,7.130719,-1.1069919,1.0518409,0.2605269
2.786,2.8018095,3.0823412,7.1170073,-1.1347377,1.0592717,0.26088557
2.788,2.7891445,3.1151302,7.1029663,-1.1623547,1.0669767,0.2612978
2.79,2.7769647,3.1480227,7.0885773,-1.1898216,1.0749977,0.26174313
2.792,2.7652981,3.1810527,7.073724,-1.2171127,1.0833735,0.2621949
2.794,2.7541068,3.2140625,7.0583706,-1.244216,1.0921038,0.2626206
2.796,2.7434268,3.2470324,7.04237,-1.2711244,1.1011908,0.26298422
2.798,2.7332158,3.2800174,7.0257325,-1.2978243,1.110614,0.26326218
2.8,2.7233999,3.312806,7.008361,-1.3243071,1.1203299,0.2634253
2.802,2.7139769,3.3453887,6.9902334,-1.3505487,1.1303055,0.2634429
2.804,2.7049608,3.377656,6.971321,-1.3765388,1.1404895,0.26329905
2.806,2.6962209,3.4095716,6.9515896,-1.4022504,1.1508319,0.26297605
2.808,2.6877809,3.4412136,6.931021,-1.4276562,1.161283,0.262452
2.81,2.6794462,3.4723806,6.9096107,-1.4527434,1.1718024,0.2617296
2.812,2.6711128,3.5031943,6.8872986,-1.4774896,1.1823587,0.26080713
2.814,2.6628535,3.5335102,6.8641295,-1.501873,1.192912,0.25967464
2.816,2.654586,3.5633779,6.8401346,-1.5258784,1.2034434,0.25835633
2.818,2.646169,3.5928607,6.815245,-1.5494841,1.2139345,0.25687912
2.82,2.6375513,3.6218638,6.7895756,-1.5726777,1.2243828,0.25527066
2.822,2.6286974,3.6504436,6.763131,-1.5954502,1.2347827,0.2535691
2.824,2.6197252,3.6786127,6.735887,-1.6177748,1.2451496,0.2518106
2.826,2.6103516,3.706409,6.7078037,-1.6396416,1.2555028,0.25003964
2.828,2.600638,3.7338338,6.678982,-1.6610413,1.2658687,0.24828699
2.83,2.5905063,3.7609293,6.6493673,-1.6819549,1.2762672,0.24657962
2.832,2.5800602,3.787809,6.6189322,-1.7023671,1.2867391,0.24494773
2.834,2.5692182,3.8143642,6.587821,-1.7222598,1.2972955,0.24340522
2.836,2.557967,3.840619,6.555912,-1.7416103,1.307951,0.24194932
2.838,2.5462878,3.8666325,6.5233145,-1.7604046,1.318722,0.24057811
2.84,2.5341964,3.8924315,6.4900723,-1.7786094,1.3295946,0.23928452
2.842,2.5216799,3.9178996,6.4561057,-1.7962049,1.3405528,0.23804522
2.844,2.5087757,3.9430344,6.421574,-1.8131713,1.3515673,0.23684281
2.846,2.4955359,3.9679127,6.3864145,-1.8294871,1.3625958,0.23565757
2.848,2.482044,3.9923785,6.35073,-1.8451246,1.3736084,0.23446584
2.85,2.4682941,4.016441,6.3145137,-1.8600652,1.3845549,0.23324776
2.852,2.4543803,4.039971,6.277894,-1.8743008,1.3953955,0.23197532
2.854,2.4402335,4.0628767,6.240962,-1.8878188,1.4060899,0.23063558
2.856,2.4260054,4.085082,6.2037296,-1.9006068,1.4166113,0.22922641
2.858,2.4118319,4.1065216,6.166357,-1.9126488,1.4269446,0.2277304
2.86,2.3976743,4.127092,6.1289353,-1.9239326,1.4370852,0.22614616
2.862,2.383668,4.1466837,6.091494,-1.934442,1.447052,0.22447246
2.864,2.3698015,4.165192,6.0540934,-1.9441496,1.4568695,0.22269219
2.866,2.3561184,4.182515,6.0169125,-1.9530286,1.466578,0.22079259
2.868,2.3427448,4.198558,5.979969,-1.9610364,1.4762303,0.21875
2.87,2.3295283,4.213293,5.943158,-1.9681401,1.4858731,0.21654874
2.872,2.3164902,4.226653,5.906709,-1.9742967,1.4955605,0.21415663
2.874,2.3036392,4.2385387,5.870574,-1.9794558,1.5053355,0.21155745
2.876,2.290959,4.248949,5.8347583,-1.9835813,1.5152376,0.20874989
2.878,2.278348,4.2578773,5.799287,-1.986656,1.5252839,0.205737
2.88,2.265754,4.265331,5.764071,-1.988642,1.53549,0.20253432
2.882,2.253009,4.27136,5.7290354,-1.9895363,1.5458584,0.19916523
2.884,2.2400231,4.275986,5.694151,-1.9893367,1.5563965,0.19568008
2.886,2.2267606,4.279188,5.659321,-1.9880664,1.5670917,0.19211483
2.888,2.212904,4.2810764,5.624533,-1.9857486,1.5779424,0.1885106
2.89,2.1984344,4.2817945,5.589678,-1.9824239,1.5889294,0.18491858
2.892,2.1831608,4.2814636,5.5545893,-1.978134,1.6000342,0.1813643
2.894,2.1670089,4.280114,5.519232,-1.9729245,1.6112499,0.17788279
2.896,2.1496997,4.277923,5.483477,-1.9668438,1.622546,0.17451161
2.898,2.1312032,4.2750325,5.4471617,-1.9599371,1.6339062,0.171278
2.9,2.1114345,4.2715554,5.410293,-1.9522538,1.6452941,0.16820961
2.902,2.090136,4.267648,5.3727527,-1.9438289,1.6566645,0.16534501
2.904,2.0673888,4.2634583,5.3344355,-1.9346869,1.6679873,0.16271412
2.906,2.042919,4.259096,5.2952385,-1.9248424,1.6792136,0.16035068
2.908,2.016768,4.2545924,5.2551837,-1.9143054,1.6903036,0.15826923
2.91,1.9888681,4.2501254,5.214137,-1.9030917,1.7012169,0.1564824
2.912,1.9592329,4.245777,5.172079,-1.8911862,1.71192,0.15498936
2.914,1.9277215,4.2416167,5.129072,-1.8785849,1.7223725,0.15378165
2.916,1.8944666,4.2376933,5.085044,-1.8652794,1.7325304,0.15284169
2.918,1.8593781,4.233977,5.040003,-1.8512735,1.7423534,0.15214741
2.92,1.8239899,4.230826,4.9951973,-1.8365679,1.7518033,0.15167463
2.922,1.7873056,4.2279773,4.949812,-1.821169,1.7608366,0.15140712
2.924,1.7492907,4.225533,4.903924,-1.8050889,1.7694104,0.15130275
2.926,1.7102093,4.2233667,4.857655,-1.7883488,1.7774944,0.15134525
2.928,1.6701949,4.2214494,4.811196,-1.770966,1.7850494,0.15150362
2.93,1.6295428,4.2197685,4.764701,-1.7529573,1.7920475,0.15174174
2.932,1.588326,4.218293,4.7183843,-1.7343436,1.7984661,0.1520189
2.934,1.5466653,4.216929,4.6724343,-1.7151487,1.8042849,0.15230507
2.936,1.5049739,4.21565,4.627135,-1.6953826,1.8095067,0.15256
2.938,1.4633813,4.214424,4.582611,-1.6750559,1.8141387,0.15273798
2.94,1.4220893,4.2131276,4.5390177,-1.6541624,1.8182011,0.15280122
2.942,1.3812537,4.211705,4.4966187,-1.6327019,1.8217297,0.15273005
2.944,1.3411033,4.210232,4.4554667,-1.6106613,1.8247875,0.15250015
2.946,1.3018711,4.208573,4.4157667,-1.5880418,1.8274292,0.15210652
2.948,1.2636461,4.2067385,4.3776054,-1.5657867,1.8296466,0.15157151
2.95,1.2265579,4.204685,4.3410916,-1.543473,1.8315456,0.1508938
2.952,1.1907605,4.2024646,4.3063035,-1.5212986,1.8331769,0.15009844
2.954,1.1563146,4.2000437,4.2732334,-1.499491,1.8345957,0.14921951
2.956,1.1232555,4.1973615,4.241998,-1.4782926,1.8358488,0.14828956
2.958,1.0915544,4.19452,4.2124906,-1.4579397,1.836968,0.1473437
2.96,1.0613704,4.191493,4.184758,-1.4386455,1.8379903,0.14641249
2.962,1.032639,4.188347,4.1587057,-1.4205669,1.8389332,0.14553106
2.964,1.0054486,4.1850595,4.134322,-1.4038129,1.8398058,0.14471716
2.966,0.97974664,4.181542,4.1115007,-1.388443,1.8406179,0.1439861
2.968,0.9553621,4.1779203,4.090158,-1.3744533,1.8413815,0.14334148
2.97,0.932357,4.174302,4.070263,-1.3617938,1.8421041,0.14278346
