Time_s_,Acc_x_m_s_2_,Acc_y_m_s_2_,Acc_z_m_s_2_,Gyro_x_1_s_,Gyro_y_1_s_,Gyro_z_1_s_
0,-0.026536323,-0.0018840511,-0.01721082,-0.1676515,-0.06201025,-0.6139354
0.002,-0.037538473,0.0010221563,-0.02443078,-0.16574024,-0.060825944,-0.6118221
0.004,-0.04992042,0.004502522,-0.032196004,-0.16383374,-0.060008265,-0.60956687
0.006,-0.06416683,0.008582535,-0.040445205,-0.16197294,-0.059702218,-0.60719204
0.008,-0.08034984,0.01337382,-0.04924825,-0.16021049,-0.060047068,-0.604733
0.01,-0.09851039,0.018966785,-0.05882249,-0.15861589,-0.06121324,-0.60223806
0.012,-0.119193636,0.02567187,-0.06921539,-0.15725948,-0.06334823,-0.59976107
0.014,-0.14236577,0.03359011,-0.080451325,-0.15621151,-0.06657366,-0.59734637
0.016,-0.16832596,0.042886674,-0.09262726,-0.15554324,-0.07097239,-0.5950383
0.018,-0.19727007,0.05374235,-0.10566426,-0.15530562,-0.076555096,-0.59285694
0.02,-0.22936529,0.06633255,-0.11941829,-0.15552679,-0.08325136,-0.59080374
0.022,-0.2647911,0.080699444,-0.1338948,-0.15622026,-0.09092574,-0.58886635
0.024,-0.30373603,0.09719744,-0.1491667,-0.15736878,-0.09938512,-0.5869964
0.026,-0.34633577,0.11591433,-0.16528715,-0.15894169,-0.10842381,-0.58511376
0.028,-0.39268553,0.13699016,-0.18230304,-0.16085614,-0.11789205,-0.58301306
0.03,-0.44281834,0.16058746,-0.2001396,-0.16317149,-0.12766203,-0.5806866
0.032,-0.4966777,0.18684913,-0.21885048,-0.16585809,-0.13767031,-0.5779753
0.034,-0.5540746,0.21576938,-0.23837559,-0.16892281,-0.14795785,-0.5747412
0.036,-0.6146733,0.24746871,-0.25878316,-0.17238554,-0.15870112,-0.57087815
0.038,-0.6782615,0.28176224,-0.28018436,-0.17628527,-0.17018297,-0.56631416
0.04,-0.7443706,0.31866992,-0.30249277,-0.18069188,-0.18278515,-0.5610546
0.042,-0.81248945,0.35784003,-0.32563287,-0.18567343,-0.19693758,-0.5551703
0.044,-0.8821471,0.39892954,-0.3493806,-0.19129083,-0.21309046,-0.54880273
0.046,-0.95251584,0.44149712,-0.37352854,-0.19758333,-0.23164085,-0.5421658
0.048,-1.0230154,0.4851936,-0.39806193,-0.20457485,-0.25292125,-0.5355443
0.05,-1.0926505,0.52927476,-0.42303383,-0.21224073,-0.27714214,-0.52922106
0.052,-1.1609442,0.57310784,-0.44813716,-0.22052604,-0.30437315,-0.52350146
0.054,-1.2278792,0.61611176,-0.4728116,-0.22931111,-0.33457494,-0.5186851
0.056,-1.2935184,0.6578715,-0.49717245,-0.23847733,-0.3675786,-0.5150401
0.058,-1.3555065,0.6967239,-0.5207406,-0.2478727,-0.40313214,-0.51279044
0.06,-1.4134575,0.73201597,-0.5435011,-0.25734845,-0.44092762,-0.5120947
0.062,-1.4670012,0.76324457,-0.5650063,-0.2667675,-0.4806157,-0.51305234
0.064,-1.5156144,0.7897336,-0.5847835,-0.27601722,-0.5218241,-0.51570123
0.066,-1.5590446,0.8111844,-0.6025821,-0.2850233,-0.5641668,-0.52002716
0.068,-1.5971057,0.8273091,-0.61810416,-0.29375076,-0.60725784,-0.52598643
0.07,-1.6297562,0.8378539,-0.63131213,-0.3021716,-0.6507047,-0.5334811
0.072,-1.656852,0.8423488,-0.6418815,-0.31030706,-0.6941334,-0.54236233
0.074,-1.6789329,0.8408792,-0.6496768,-0.31819296,-0.73717153,-0.5524236
0.076,-1.6962793,0.8335113,-0.65527624,-0.3258626,-0.7794452,-0.56340545
0.078,-1.7091755,0.82053417,-0.65901387,-0.3333484,-0.8205917,-0.575036
0.08,-1.7181454,0.8021593,-0.66103595,-0.3406729,-0.86028177,-0.5870712
0.082,-1.7238894,0.7788595,-0.66138965,-0.34781536,-0.8982359,-0.59929985
0.084,-1.726836,0.75122917,-0.6600982,-0.35472494,-0.9341862,-0.611575
0.086,-1.7277769,0.72011006,-0.65725887,-0.36133337,-0.9679107,-0.6238001
0.088,-1.727318,0.6861996,-0.6533735,-0.36757955,-0.9992846,-0.6358695
0.09,-1.7258238,0.650454,-0.6484357,-0.37342542,-1.0282611,-0.6477393
0.092,-1.7235707,0.61372125,-0.6423315,-0.37884694,-1.054874,-0.6594342
0.094,-1.7209624,0.57720226,-0.63510776,-0.38385487,-1.0792176,-0.6709608
0.096,-1.718123,0.5418028,-0.6269504,-0.3885318,-1.1014723,-0.6822634
0.098,-1.7150363,0.5084132,-0.617962,-0.39303327,-1.1218872,-0.69325304
0.1,-1.7117767,0.47789145,-0.6080503,-0.3976064,-1.1407716,-0.70373565
0.102,-1.7081456,0.4509281,-0.59719026,-0.4025534,-1.1585103,-0.71338356
0.104,-1.7038783,0.42780504,-0.5856355,-0.4081964,-1.1754985,-0.7217771
0.106,-1.698537,0.40875274,-0.57347655,-0.41483068,-1.1921352,-0.72844577
0.108,-1.691931,0.39390633,-0.5608278,-0.42274687,-1.2088389,-0.73293126
0.11,-1.683858,0.38333812,-0.54782104,-0.43215582,-1.226027,-0.7348683
0.112,-1.6740625,0.3767973,-0.53459865,-0.4431663,-1.2440423,-0.7340977
0.114,-1.6624146,0.3736469,-0.5210314,-0.4557557,-1.2631419,-0.7307632
0.116,-1.6487,0.3733074,-0.507244,-0.4697709,-1.283497,-0.725356
0.118,-1.6324912,0.3747731,-0.4928775,-0.4849388,-1.3051631,-0.718707
0.12,-1.6138756,0.37772062,-0.47845417,-0.50092936,-1.3281083,-0.7118958
0.122,-1.5925409,0.3812775,-0.46393412,-0.51739097,-1.352182,-0.706124
0.124,-1.5686855,0.3845016,-0.44954377,-0.5340146,-1.3771188,-0.70258236
0.126,-1.541925,0.38611326,-0.43571317,-0.5505332,-1.4025826,-0.70229757
0.128,-1.5120587,0.38505253,-0.4229424,-0.56673455,-1.4281616,-0.705951
0.13,-1.4791093,0.38045087,-0.41186348,-0.5824704,-1.4533873,-0.71382207
0.132,-1.4433112,0.37163258,-0.40302402,-0.5976346,-1.4777508,-0.72572696
0.134,-1.4050124,0.3579321,-0.39669293,-0.6121466,-1.5006976,-0.74102426
0.136,-1.364627,0.33907628,-0.39304385,-0.62596714,-1.5216885,-0.75871557
0.138,-1.3225249,0.31493765,-0.3925064,-0.63903046,-1.5402368,-0.77758193
0.14,-1.2789191,0.2854616,-0.39542174,-0.651173,-1.5558752,-0.7964141
0.142,-1.2344785,0.25095844,-0.40172005,-0.6621252,-1.5681909,-0.81417865
0.144,-1.1896396,0.2117524,-0.41094792,-0.6715689,-1.5769234,-0.83004695
0.146,-1.1448646,0.1681024,-0.42266887,-0.6791552,-1.5820029,-0.84344465
0.148,-1.1008955,0.12091388,-0.4358219,-0.6846043,-1.5836308,-0.85407835
0.15,-1.0586405,0.07111502,-0.44922712,-0.68770844,-1.5822453,-0.861943
0.152,-1.0185816,0.0197967,-0.4621328,-0.6883631,-1.5785482,-0.8672974
0.154,-0.9811654,-0.03203191,-0.47399986,-0.6866176,-1.5734148,-0.8705456
0.156,-0.9471646,-0.08331618,-0.48356104,-0.6827229,-1.5678136,-0.8720844
0.158,-0.9170571,-0.13296567,-0.4890141,-0.67712903,-1.562777,-0.87219834
0.16,-0.8915341,-0.1796668,-0.48883706,-0.6704112,-1.5592306,-0.8710327
0.162,-0.87050515,-0.22242425,-0.48211887,-0.6631489,-1.5578411,-0.8686026
0.164,-0.85358167,-0.26040024,-0.46800828,-0.655868,-1.5589421,-0.8648064
0.166,-0.8413474,-0.2927711,-0.44541374,-0.648977,-1.562475,-0.85946083
0.168,-0.83400214,-0.31879333,-0.41329402,-0.6427301,-1.5679629,-0.8523923
0.17,-0.8312049,-0.338206,-0.37138265,-0.6371588,-1.5745114,-0.843501
0.172,-0.83246374,-0.35078028,-0.31984666,-0.63206613,-1.58088,-0.83287126
0.174,-0.83722544,-0.35627455,-0.25940347,-0.6270151,-1.5855772,-0.82081074
0.176,-0.8447521,-0.35512936,-0.19058508,-0.62141776,-1.5870168,-0.807808
0.178,-0.8541623,-0.34767032,-0.11484495,-0.6146158,-1.5836813,-0.7945155
0.18,-0.8644825,-0.33482286,-0.03307569,-0.60591877,-1.5741901,-0.7817307
0.182,-0.87446404,-0.31746474,0.053020418,-0.594674,-1.5574439,-0.77035904
0.184,-0.882542,-0.29703802,0.14176509,-0.5802878,-1.5327246,-0.7612809
0.186,-0.8874092,-0.2750241,0.23197852,-0.5622158,-1.4997263,-0.7553281
0.188,-0.8878901,-0.25297785,0.32193714,-0.5399848,-1.4585254,-0.7532212
0.19,-0.88278747,-0.23227656,0.40945774,-0.5132324,-1.4095038,-0.75554526
0.192,-0.87087727,-0.21450594,0.4925619,-0.48175743,-1.3533678,-0.7627152
0.194,-0.85142404,-0.20121297,0.5693714,-0.44558194,-1.2910969,-0.77493
0.196,-0.8237179,-0.1941627,0.63853025,-0.40493953,-1.2238435,-0.79216254
0.198,-0.78744817,-0.19461748,0.6992849,-0.36027074,-1.1528925,-0.8141911
0.2,-0.74257183,-0.20384812,0.7507328,-0.31226453,-1.079644,-0.8406311
0.202,-0.6891335,-0.2228097,0.7922469,-0.2617839,-1.005538,-0.8709848
0.204,-0.62712115,-0.2526547,0.82389855,-0.20996095,-0.93221384,-0.90461594
0.206,-0.55707204,-0.2937371,0.8463491,-0.15806872,-0.86126214,-0.9407094
0.208,-0.47941816,-0.34636688,0.86026275,-0.107418746,-0.7942457,-0.9784673
0.21,-0.394727,-0.4105088,0.8664458,-0.059316076,-0.7326819,-1.0171312
0.212,-0.30375767,-0.48581737,0.8660349,-0.014959955,-0.67791015,-1.055969
0.214,-0.20807518,-0.57114035,0.8606584,0.024650894,-0.6310592,-1.0942855
0.216,-0.10946718,-0.66530293,0.85177803,0.058769763,-0.5929788,-1.1314465
0.218,-0.009154022,-0.76698375,0.8409895,0.08697526,-0.5641934,-1.1669185
0.22,0.09185445,-0.87491727,0.8294582,0.109182164,-0.54492044,-1.2003126
0.222,0.19268295,-0.987175,0.81807804,0.12563087,-0.53505516,-1.2313694
0.224,0.29262117,-1.1010213,0.8068929,0.13681594,-0.53421926,-1.259985
0.226,0.39094788,-1.2140551,0.79571843,0.14343081,-0.5417942,-1.2861102
0.228,0.48592687,-1.3243192,0.78435,0.14627905,-0.5569876,-1.3097684
0.23,0.5763111,-1.4312842,0.7742677,0.14620486,-0.5788661,-1.3310083
0.232,0.66033167,-1.5337818,0.76683134,0.1440086,-0.6064043,-1.3498578
0.234,0.736163,-1.629961,0.7635343,0.14033808,-0.63857603,-1.3662709
0.236,0.80230045,-1.7174773,0.7648243,0.13567248,-0.6743258,-1.3801534
0.238,0.8573603,-1.7943684,0.77081114,0.1303098,-0.7125979,-1.3914287
0.24,0.9004713,-1.8590618,0.7816795,0.1243691,-0.75238955,-1.4000589
0.242,0.93170273,-1.9106776,0.79751205,0.11788338,-0.7927816,-1.4061029
0.244,0.95067763,-1.9485819,0.81815577,0.110847734,-0.83291113,-1.4097292
0.246,0.9572108,-1.972373,0.84331536,0.10329546,-0.8718685,-1.4112256
0.248,0.9513358,-1.9819083,0.872474,0.095401496,-0.90860844,-1.4109993
0.25,0.9328128,-1.9768561,0.90438247,0.08754495,-0.94189733,-1.4094987
0.252,0.90195394,-1.9572558,0.9376559,0.08029484,-0.9703651,-1.4071435
0.254,0.85885787,-1.9231093,0.9705468,0.0743799,-0.992469,-1.4043365
0.256,0.8040728,-1.874679,1.0018039,0.070630595,-1.0065128,-1.4014897
0.258,0.7386289,-1.8130003,1.0298171,0.07001101,-1.0106153,-1.3989915
0.26,0.66375774,-1.7393341,1.0531467,0.073560394,-1.0029993,-1.3970878
0.262,0.5800268,-1.6549067,1.0714699,0.0823302,-0.9820152,-1.3957392
0.264,0.48888385,-1.5611954,1.0846063,0.097269915,-0.94627005,-1.394786
0.266,0.39166504,-1.459791,1.0919766,0.119001836,-0.8949939,-1.3941017
0.268,0.28988838,-1.3525498,1.0931606,0.14759424,-0.8283684,-1.3936818
0.27,0.18489301,-1.2411042,1.0883777,0.1824831,-0.74770844,-1.393751
0.272,0.0780108,-1.1271884,1.0782503,0.22244021,-0.6554991,-1.3947823
0.274,-0.029584974,-1.0124087,1.0634027,0.26566145,-0.5553014,-1.3974178
0.276,-0.1363748,-0.89849985,1.0445938,0.30993348,-0.45141998,-1.4024047
0.278,-0.24130887,-0.78709835,1.0229422,0.35280746,-0.34851694,-1.4104333
0.28,-0.34305203,-0.67976,0.9998058,0.39185518,-0.25112063,-1.4220195
0.282,-0.44105297,-0.5777359,0.97668505,0.4249649,-0.1631332,-1.437366
0.284,-0.5346793,-0.48195544,0.9554384,0.45057645,-0.08740187,-1.4562551
0.286,-0.6233846,-0.3930046,0.93781567,0.4678763,-0.02540195,-1.4780145
0.288,-0.7065104,-0.31146446,0.9259948,0.47689223,0.022842526,-1.5016074
0.29,-0.7835331,-0.2377213,0.9210422,0.47844732,0.05859804,-1.525717
0.292,-0.85396576,-0.17208052,0.923843,0.4740215,0.08419013,-1.5489454
0.294,-0.9174303,-0.1147306,0.9349639,0.46556193,0.102629006,-1.5699707
0.296,-0.97342813,-0.06558442,0.9546026,0.45522144,0.11710441,-1.58768
0.298,-1.0218142,-0.02437532,0.9827901,0.44511443,0.1305455,-1.6013023
0.3,-1.0622777,0.009094298,1.0193299,0.4370892,0.14532769,-1.610436
0.302,-1.0947425,0.03521943,1.063596,0.43253127,0.16307276,-1.6150708
0.304,-1.1189089,0.05439204,1.1146723,0.43228233,0.18462974,-1.6155298
0.306,-1.134589,0.06717676,1.171536,0.43671834,0.21024019,-1.6122968
0.308,-1.1417822,0.07405424,1.2328858,0.44579747,0.23961174,-1.6058619
0.31,-1.1405919,0.075757265,1.2974265,0.4591323,0.2721035,-1.5966445
0.312,-1.1314374,0.073126554,1.3639053,0.4760332,0.30690324,-1.5850301
0.314,-1.1148212,0.06691563,1.4308374,0.4955791,0.343224,-1.5714526
0.316,-1.0911579,0.057736576,1.4966778,0.5168123,0.38039917,-1.5564257
0.318,-1.0613056,0.046316504,1.5601802,0.5388552,0.41795027,-1.540401
0.32,-1.0262977,0.033385456,1.6202825,0.5609964,0.45562255,-1.5237157
0.322,-0.98698604,0.01923275,1.6765025,0.58269036,0.49338996,-1.5066264
0.324,-0.9436182,0.0047301054,1.7270759,0.60348856,0.53130436,-1.4893562
0.326,-0.89682674,-0.010017812,1.7719605,0.6230448,0.5694004,-1.4721642
0.328,-0.8475684,-0.024538457,1.810616,0.64107585,0.6076756,-1.4554303
0.33,-0.7971612,-0.038359284,1.8430037,0.6573975,0.6460149,-1.4396076
0.332,-0.7470113,-0.051362336,1.8693442,0.67199934,0.6842651,-1.4251803
0.334,-0.69827044,-0.06384575,1.8900869,0.6850342,0.7223089,-1.4125886
0.336,-0.65154845,-0.075846195,1.9057412,0.6967709,0.7600789,-1.4021567
0.338,-0.60681885,-0.08672857,1.916077,0.70757973,0.7975786,-1.394074
0.34,-0.5640163,-0.09561807,1.9201919,0.7178318,0.8348512,-1.3883911
0.342,-0.52282983,-0.1023798,1.9170921,0.7278596,0.87199724,-1.3850386
0.344,-0.48265186,-0.107816756,1.90624,0.7378759,0.90908533,-1.3838711
0.346,-0.44388977,-0.11293864,1.8884774,0.74794734,0.94603086,-1.3846501
0.348,-0.40632364,-0.118602395,1.8644671,0.7579602,0.9825271,-1.3870958
0.35,-0.36976957,-0.12549603,1.8347818,0.7676693,1.0181099,-1.3909463
0.352,-0.33463597,-0.13386536,1.7999275,0.77673894,1.0521569,-1.3959441
0.354,-0.30040288,-0.14435285,1.76047,0.7847874,1.0838962,-1.4018708
0.356,-0.266604,-0.15756065,1.7168653,0.7914381,1.1124711,-1.4085542
0.358,-0.23320195,-0.17383975,1.6697317,0.7963513,1.1370063,-1.4158866
0.36,-0.20009953,-0.1936571,1.6202853,0.7992284,1.1566837,-1.4238298
0.362,-0.16691256,-0.21735114,1.5696605,0.7998698,1.1708272,-1.4323561
0.364,-0.13347583,-0.24538994,1.5187486,0.798182,1.1789004,-1.4414058
0.366,-0.09991431,-0.27794123,1.4679557,0.7941301,1.1805074,-1.4508431
0.368,-0.06645775,-0.3147695,1.4177407,0.78771955,1.1753545,-1.4604962
0.37,-0.03390032,-0.35532725,1.3683827,0.7789609,1.1632649,-1.47012
0.372,-0.002481252,-0.39921582,1.3196723,0.7678841,1.144193,-1.479414
0.374,0.026738048,-0.44566762,1.2714965,0.7545317,1.1182399,-1.4880593
0.376,0.052933425,-0.49395686,1.223976,0.7389623,1.0856042,-1.4957695
0.378,0.07522854,-0.54330516,1.1770678,0.72123104,1.0465727,-1.5023005
0.38,0.092794955,-0.59290373,1.1309621,0.7013658,1.0014577,-1.5074841
0.382,0.1046353,-0.6418293,1.0859563,0.6793976,0.9506173,-1.511195
0.384,0.110112876,-0.6892472,1.0420406,0.6553203,0.8944062,-1.513418
0.386,0.10802469,-0.7339219,0.9995619,0.62912625,0.83317614,-1.5142317
0.388,0.09770167,-0.77488303,0.9585875,0.60080445,0.7672803,-1.5138229
0.39,0.07848239,-0.811324,0.9191291,0.5703461,0.69706714,-1.5124724
0.392,0.05038157,-0.8427724,0.88078284,0.5377416,0.6228659,-1.5105848
0.394,0.012838006,-0.8685459,0.84324473,0.5030122,0.5450175,-1.5085907
0.396,-0.034595788,-0.88794243,0.8060522,0.46620426,0.46382093,-1.5068731
0.398,-0.09226507,-0.90041554,0.76883876,0.4274082,0.37957442,-1.5058224
0.4,-0.16042191,-0.90523195,0.73149055,0.38677642,0.29263967,-1.5058227
0.402,-0.23920318,-0.90197945,0.6941832,0.3445032,0.2034564,-1.507247
0.404,-0.32810125,-0.8905801,0.6567528,0.30082387,0.11248833,-1.5104282
0.406,-0.42715108,-0.87108576,0.6191627,0.25604397,0.020275652,-1.515636
0.408,-0.53648543,-0.84353274,0.5816289,0.21054003,-0.072527945,-1.5230621
0.41,-0.6554086,-0.80824023,0.54399896,0.1647812,-0.16514587,-1.5327921
0.412,-0.7821661,-0.7661146,0.50519514,0.11928786,-0.25670195,-1.5448153
0.414,-0.91730225,-0.71695805,0.46472144,0.07459287,-0.34627026,-1.5590127
0.416,-1.0612123,-0.6606375,0.42234334,0.031209543,-0.43295395,-1.5751554
0.418,-1.2122308,-0.5976364,0.37770328,-0.010391906,-0.515936,-1.5929855
0.42,-1.3686732,-0.52887255,0.33034706,-0.049789466,-0.59451866,-1.6122472
0.422,-1.5294365,-0.4549107,0.2792581,-0.086657114,-0.6682228,-1.6326236
0.424,-1.6940453,-0.37544948,0.22313559,-0.12076463,-0.7367971,-1.6538181
0.426,-1.8623283,-0.29039246,0.16047058,-0.15200242,-0.8002143,-1.6755995
0.428,-2.0336292,-0.19963217,0.09133682,-0.1803614,-0.85863143,-1.6977849
0.43,-2.205587,-0.10408351,0.015038967,-0.20592424,-0.9123498,-1.7202361
0.432,-2.3773792,-0.003982067,-0.06954458,-0.22883746,-0.96175915,-1.7428674
0.434,-2.5483608,0.09979668,-0.16264473,-0.2493074,-1.0072925,-1.765631
0.436,-2.7179005,0.20750739,-0.26579213,-0.2676019,-1.0494378,-1.7884909
0.438,-2.884183,0.31866354,-0.37969697,-0.28399166,-1.088642,-1.8114237
0.44,-3.0464053,0.43305683,-0.50472575,-0.29873726,-1.1253238,-1.8345163
0.442,-3.202779,0.5503031,-0.6416971,-0.31207848,-1.159963,-1.8578495
0.444,-3.3526785,0.67041034,-0.7912348,-0.32426113,-1.1930997,-1.881446
0.446,-3.4962347,0.79386353,-0.95376205,-0.3355338,-1.2252803,-1.9053292
0.448,-3.6323984,0.92023194,-1.1294887,-0.34616414,-1.2571639,-1.9296517
0.45,-3.7600112,1.0485747,-1.3182456,-0.35642403,-1.289474,-1.9546597
0.452,-3.8782382,1.1781802,-1.5194862,-0.36648285,-1.3228463,-1.9805341
0.454,-3.986797,1.3086303,-1.7326074,-0.37651083,-1.3579539,-2.0074441
0.456,-4.0852337,1.4395123,-1.9568002,-0.38668862,-1.3956065,-2.0355427
0.458,-4.173511,1.5704305,-2.1910987,-0.39712587,-1.4364306,-2.0650496
0.46,-4.251639,1.7009933,-2.434412,-0.40793452,-1.4810879,-2.0962083
0.462,-4.319424,1.8306708,-2.6855192,-0.41921166,-1.5301622,-2.129139
0.464,-4.376918,1.9590502,-2.9431148,-0.43103975,-1.5841,-2.1638103
0.466,-4.42438,2.0857878,-3.2057252,-0.44350326,-1.6433014,-2.2001278
0.468,-4.461969,2.2101932,-3.4716406,-0.45672154,-1.7081994,-2.2379572
0.47,-4.489803,2.331674,-3.7394729,-0.47082862,-1.7791584,-2.27712
0.472,-4.5086374,2.449636,-4.007909,-0.485945,-1.8564335,-2.3173811
0.474,-4.5191336,2.5635383,-4.27541,-0.5022003,-1.9402941,-2.3584888
0.476,-4.522338,2.6729498,-4.5401917,-0.5196819,-2.0308647,-2.4002767
0.478,-4.5196266,2.777922,-4.8003073,-0.53841734,-2.128196,-2.4426615
0.48,-4.511169,2.8773713,-5.0547686,-0.5583399,-2.2322755,-2.4855807
0.482,-4.4992695,2.971703,-5.301553,-0.5793239,-2.3429303,-2.5289047
0.484,-4.4852653,3.0607233,-5.539239,-0.60119915,-2.4598317,-2.5724792
0.486,-4.4701324,3.1442294,-5.767168,-0.6237735,-2.582575,-2.6161816
0.488,-4.455153,3.222135,-5.984004,-0.6468488,-2.7107143,-2.6599565
0.49,-4.441942,3.2946181,-6.18843,-0.67023486,-2.8438141,-2.7038422
0.492,-4.431528,3.3617387,-6.3797708,-0.69379413,-2.9815302,-2.7479587
0.494,-4.4248915,3.4234426,-6.5566387,-0.7174567,-3.1236145,-2.7924626
0.496,-4.4229474,3.4798934,-6.7177486,-0.7412213,-3.2698483,-2.8376245
0.498,-4.4265423,3.5312908,-6.8618593,-0.7651112,-3.42007,-2.8838053
0.5,-4.4363675,3.5778646,-6.988041,-0.78920996,-3.574214,-2.931345
0.502,-4.452953,3.6200743,-7.095064,-0.81366223,-3.7321439,-2.9804668
0.504,-4.4761615,3.658149,-7.1820965,-0.83869106,-3.8937085,-3.0312898
0.506,-4.505846,3.6924522,-7.2480955,-0.86463267,-4.0587864,-3.0838318
0.508,-4.5417495,3.7233171,-7.2923684,-0.891772,-4.227027,-3.137997
0.51,-4.583103,3.7507062,-7.3139763,-0.9204104,-4.3979764,-3.1935892
0.512,-4.629139,3.774747,-7.312399,-0.95089686,-4.5712733,-3.2502553
0.514,-4.6790442,3.79557,-7.287441,-0.98347676,-4.7463255,-3.307711
0.516,-4.7312984,3.8131628,-7.2390776,-1.0183295,-4.922579,-3.365837
0.518,-4.783838,3.8270981,-7.167918,-1.0555819,-5.099527,-3.42457
0.52,-4.835677,3.8373744,-7.0743303,-1.0951872,-5.2764435,-3.4838233
0.522,-4.8862567,3.8440323,-6.9583797,-1.1369342,-5.4523726,-3.5435126
0.524,-4.932995,3.84614,-6.821191,-1.180505,-5.6262975,-3.60355
0.526,-4.9738483,3.8427982,-6.6647186,-1.2254953,-5.797064,-3.6637728
0.528,-5.008755,3.8337376,-6.4905057,-1.2713923,-5.963295,-3.72395
0.53,-5.0374203,3.8187068,-6.300394,-1.3176746,-6.123581,-3.7837877
0.532,-5.0585437,3.7968686,-6.09587,-1.3638391,-6.2764797,-3.8429189
0.534,-5.0706673,3.7668753,-5.8786097,-1.4094325,-6.4206133,-3.9010005
0.536,-5.0724664,3.7276669,-5.650541,-1.4540721,-6.554801,-3.957808
0.538,-5.0635605,3.6782618,-5.414738,-1.4974337,-6.678052,-4.0131755
0.54,-5.0450425,3.6185741,-5.1737804,-1.5393083,-6.78965,-4.0669365
0.542,-5.016558,3.5481734,-4.9298487,-1.579563,-6.889141,-4.1189213
0.544,-4.9783664,3.4664936,-4.6848874,-1.61817,-6.976331,-4.1690173
0.546,-4.9302797,3.3727345,-4.4410152,-1.6551903,-7.051322,-4.2171235
0.548,-4.873562,3.2665281,-4.2003965,-1.6907651,-7.1144447,-4.2632017
0.55,-4.808504,3.1473918,-3.9652917,-1.7251009,-7.1662326,-4.307214
0.552,-4.7363906,3.0151792,-3.7374725,-1.7584627,-7.2073717,-4.349073
0.554,-4.6566863,2.8694835,-3.5188484,-1.7911493,-7.2386093,-4.388627
0.556,-4.5685363,2.709329,-3.3113313,-1.8234838,-7.2607775,-4.4256697
0.558,-4.4733434,2.535006,-3.1161563,-1.855768,-7.2746935,-4.459976
0.56,-4.3727055,2.347477,-2.934876,-1.8883144,-7.2812214,-4.4913087
0.562,-4.2662826,2.146831,-2.7692568,-1.9214541,-7.2813206,-4.5193796
0.564,-4.153771,1.9329609,-2.62003,-1.9554702,-7.275899,-4.5438695
0.566,-4.0353327,1.7058092,-2.487832,-1.9906247,-7.2659273,-4.5644894
0.568,-3.9112377,1.4655093,-2.373306,-2.0271878,-7.252469,-4.5809193
0.57,-3.7816253,1.2122209,-2.277153,-2.0653934,-7.2365894,-4.592826
0.572,-3.6463833,0.94637203,-2.1998396,-2.1054244,-7.2193704,-4.5999184
0.574,-3.5056133,0.668213,-2.1419625,-2.1475096,-7.2020264,-4.6019106
0.576,-3.359342,0.3780619,-2.1038544,-2.1918721,-7.1858053,-4.5985174
0.578,-3.20758,0.07672119,-2.0853982,-2.2387238,-7.171935,-4.589467
0.58,-3.049989,-0.23540151,-2.0862143,-2.2882948,-7.161708,-4.5744796
0.582,-2.886899,-0.5573735,-2.1057415,-2.340818,-7.15639,-4.553259
0.584,-2.718695,-0.8881618,-2.1431484,-2.3964753,-7.1571174,-4.5254784
0.586,-2.545238,-1.227279,-2.19766,-2.4554377,-7.1650105,-4.4908304
0.588,-2.365942,-1.5743966,-2.2681978,-2.517841,-7.1811304,-4.448925
0.59,-2.1821747,-1.9278198,-2.3521264,-2.5837827,-7.2063684,-4.399337
0.592,-1.9933679,-2.2869318,-2.447697,-2.6533284,-7.241476,-4.341625
0.594,-1.8003001,-2.6502528,-2.5529332,-2.7265244,-7.2871513,-4.275433
0.596,-1.6037815,-3.0161905,-2.6662607,-2.8034306,-7.343934,-4.200479
0.598,-1.4049215,-3.3828387,-2.786736,-2.8840222,-7.412182,-4.1165433
0.6,-1.2040102,-3.7484918,-2.9132006,-2.9681697,-7.4920006,-4.023542
0.602,-1.0021445,-4.1108027,-3.044004,-3.055605,-7.583305,-3.9215078
0.604,-0.80052304,-4.46732,-3.1782947,-3.1459439,-7.685783,-3.8105564
0.606,-0.6000086,-4.8157587,-3.3150728,-3.2386496,-7.798853,-3.6908703
0.608,-0.40223205,-5.153308,-3.4525867,-3.3330412,-7.921651,-3.5627224
0.61,-0.206671,-5.478466,-3.5916522,-3.42831,-8.053072,-3.426451
0.612,-0.014342546,-5.7891903,-3.7322457,-3.5235577,-8.191805,-3.282423
0.614,0.17279124,-6.0822268,-3.8733714,-3.6178517,-8.336483,-3.1310139
0.616,0.35379076,-6.3551536,-4.01528,-3.7103114,-8.485838,-2.9725945
0.618,0.528095,-6.6058784,-4.1582694,-3.800222,-8.638847,-2.8075373
0.62,0.69473124,-6.8321924,-4.30288,-3.8870876,-8.794855,-2.6362593
0.622,0.852932,-7.0323086,-4.4492965,-3.9706564,-8.95363,-2.4592135
0.624,1.0017657,-7.204521,-4.5975933,-4.050906,-9.115369,-2.2768881
0.626,1.1405153,-7.347262,-4.7481403,-4.128003,-9.280653,-2.0897403
0.628,1.2681122,-7.459014,-4.9015117,-4.2022057,-9.450346,-1.8981919
0.63,1.3837512,-7.5388584,-5.0579214,-4.2737923,-9.625368,-1.7026463
0.632,1.4863992,-7.5857105,-5.217474,-4.3429694,-9.806472,-1.5035099
0.634,1.5754962,-7.5990653,-5.3805537,-4.409795,-9.994043,-1.3012137
0.636,1.6500998,-7.578578,-5.54692,-4.474177,-10.188046,-1.0962021
0.638,1.7093673,-7.524261,-5.7163506,-4.535798,-10.387792,-0.88901377
0.64,1.7526872,-7.436476,-5.888107,-4.5941133,-10.59195,-0.68014574
0.642,1.7790451,-7.3157673,-6.061166,-4.648427,-10.798927,-0.4700986
0.644,1.7872849,-7.1626544,-6.2342196,-4.6979265,-11.006845,-0.25941765
0.646,1.7764015,-6.9779243,-6.4059277,-4.7417526,-11.213535,-0.048700333
0.648,1.7455587,-6.7622123,-6.575242,-4.779087,-11.416832,0.16145003
0.65,1.6937554,-6.516452,-6.7408714,-4.809169,-11.614759,0.37046468
0.652,1.620173,-6.2418957,-6.901695,-4.831333,-11.805546,0.57784307
0.654,1.524092,-5.939686,-7.056557,-4.845006,-11.987615,0.78320396
0.656,1.4045675,-5.611101,-7.204593,-4.8497458,-12.159554,0.9862251
0.658,1.2608118,-5.2573333,-7.3447647,-4.845176,-12.320091,1.1865999
0.66,1.0921314,-4.8797536,-7.476305,-4.83105,-12.468103,1.3840008
0.662,0.89845204,-4.478972,-7.59804,-4.8072443,-12.602535,1.5781288
0.664,0.6781254,-4.0561132,-7.710143,-4.7737865,-12.722358,1.7686305
0.666,0.43081284,-3.6124783,-7.8120766,-4.730846,-12.8266,1.9550877
0.668,0.15728283,-3.149568,-7.9045234,-4.6787634,-12.914336,2.1369731
0.67,-0.14209366,-2.6688366,-7.9883633,-4.617993,-12.98468,2.3136666
0.672,-0.46786118,-2.1711173,-8.064095,-4.5490704,-13.036842,2.4845433
0.674,-0.8197956,-1.6576625,-8.132795,-4.472633,-13.070225,2.6490107
0.676,-1.1968918,-1.1299464,-8.195794,-4.389351,-13.084471,2.8065417
0.678,-1.5981569,-0.5894394,-8.2539625,-4.2999563,-13.079439,2.9566453
0.68,-2.0226002,-0.037733078,-8.308432,-4.2052007,-13.055263,3.098923
0.682,-2.4692965,0.52364683,-8.3603945,-4.1058264,-13.01232,3.2330453
0.684,-2.9370759,1.0933248,-8.411028,-4.0025578,-12.951236,3.3587387
0.686,-3.424427,1.6697179,-8.461478,-3.896056,-12.8728485,3.4757476
0.688,-3.9296718,2.2508378,-8.513617,-3.7869613,-12.7781515,3.5838377
0.69,-4.4515986,2.8351405,-8.569115,-3.6758723,-12.668148,3.6827662
0.692,-4.9876895,3.420683,-8.629343,-3.5633144,-12.543723,3.7722673
0.694,-5.535929,4.005915,-8.695485,-3.4498882,-12.405826,3.8519347
0.696,-6.094884,4.5895157,-8.768985,-3.336177,-12.25514,3.9213686
0.698,-6.6623645,5.169409,-8.851032,-3.222746,-12.092284,3.9803622
0.7,-7.2355905,5.743535,-8.942836,-3.1101446,-11.917895,4.0287576
0.702,-7.8124986,6.310305,-9.045196,-2.9988756,-11.732424,4.066381
0.704,-8.390287,6.867873,-9.158121,-2.8894336,-11.536256,4.0930443
0.706,-8.966545,7.4143796,-9.281446,-2.7823284,-11.329803,4.108519
0.708,-9.538619,7.948393,-9.414703,-2.6779761,-11.113431,4.112619
0.71,-10.103822,8.468755,-9.558125,-2.576726,-10.887462,4.105235
0.712,-10.65883,8.973644,-9.711451,-2.478847,-10.652195,4.086343
0.714,-11.201382,9.461891,-9.874724,-2.3845224,-10.407908,4.056002
0.716,-11.728997,9.9319935,-10.048735,-2.2938876,-10.154919,4.014349
0.718,-12.238159,10.382674,-10.2325735,-2.2070465,-9.8935795,3.9616177
0.72,-12.72754,10.814268,-10.423539,-2.124053,-9.62427,3.8981328
0.722,-13.194185,11.226181,-10.6210575,-2.0449371,-9.347456,3.8242564
0.724,-13.634748,11.617013,-10.825088,-1.9697205,-9.063651,3.7403843
0.726,-14.04713,11.986589,-11.034573,-1.8984152,-8.773451,3.6468773
0.728,-14.429565,12.334975,-11.248762,-1.8309954,-8.477508,3.5440502
0.73,-14.78013,12.662371,-11.466858,-1.7674122,-8.176498,3.432182
0.732,-15.097375,12.969186,-11.687686,-1.7075841,-7.871097,3.3114743
0.734,-15.3797245,13.255564,-11.910158,-1.6514014,-7.561922,3.182093
0.736,-15.626146,13.522134,-12.133254,-1.5987611,-7.249683,3.0442343
0.738,-15.835838,13.769605,-12.355717,-1.5495654,-6.935054,2.8981652
0.74,-16.008043,13.998845,-12.576687,-1.5037178,-6.618703,2.7441077
0.742,-16.142149,14.210606,-12.795495,-1.4611721,-6.3013763,2.5823064
0.744,-16.23834,14.406258,-13.011243,-1.4219048,-5.9838123,2.413097
0.746,-16.296597,14.58701,-13.223662,-1.3859944,-5.6669035,2.2369812
0.748,-16.317286,14.754268,-13.432827,-1.3534214,-5.3513236,2.0544424
0.75,-16.300863,14.9095745,-13.638921,-1.3241574,-5.0376906,1.8658522
0.752,-16.247747,15.054404,-13.842516,-1.2982187,-4.7266626,1.6715499
0.754,-16.158323,15.190056,-14.04422,-1.2756199,-4.41876,1.4719704
0.756,-16.033146,15.317891,-14.244389,-1.2562648,-4.1144123,1.2675195
0.758,-15.8730345,15.439107,-14.443651,-1.2399997,-3.8140123,1.0585091
0.76,-15.678616,15.554918,-14.642607,-1.226609,-3.5179338,0.8451637
0.762,-15.45043,15.666444,-14.842205,-1.2158515,-3.2265248,0.6276362
0.764,-15.189068,15.774675,-15.043352,-1.2074193,-2.9400651,0.4059968
0.766,-14.894922,15.880609,-15.246923,-1.2009532,-2.6588495,0.1802826
0.768,-14.56794,15.984991,-15.453709,-1.1960521,-2.38319,-0.049470663
0.77,-14.208454,16.088718,-15.664736,-1.1922584,-2.1133516,-0.28316927
0.772,-13.817043,16.191734,-15.88126,-1.1890626,-1.849597,-0.52065396
0.774,-13.39298,16.294577,-16.103407,-1.185943,-1.59219,-0.7616972
0.776,-12.936372,16.39811,-16.332296,-1.1823226,-1.3413653,-1.0059832
0.778,-12.447363,16.502682,-16.568016,-1.1776286,-1.0974002,-1.2531383
0.78,-11.925059,16.608288,-16.810259,-1.1712462,-0.86055976,-1.5027483
0.782,-11.369286,16.714838,-17.059063,-1.1625909,-0.63110006,-1.7543771
0.784,-10.779482,16.822319,-17.313965,-1.1510819,-0.40929765,-2.0075772
0.786,-10.154958,16.93056,-17.574444,-1.1361866,-0.19548798,-2.2619164
0.788,-9.495097,17.039423,-17.8399,-1.1174396,0.010001898,-2.5170202
0.79,-8.7995,17.148882,-18.109222,-1.0944294,0.20690346,-2.7725856
0.792,-8.067731,17.258696,-18.381222,-1.0668311,0.39491546,-3.0283437
0.794,-7.2993197,17.368536,-18.654398,-1.0343465,0.573776,-3.2839913
0.796,-6.494026,17.478022,-18.927076,-0.996693,0.7432842,-3.5392957
0.798,-5.6524158,17.587084,-19.19717,-0.95366025,0.90316474,-3.7941318
0.8,-4.7745056,17.695496,-19.462568,-0.90506124,1.053183,-4.048463
0.802,-3.861427,17.80315,-19.721413,-0.85074246,1.1931131,-4.30224
0.804,-2.914177,17.909813,-19.971577,-0.7905976,1.3226376,-4.555382
0.806,-1.9339764,18.015223,-20.210382,-0.7244859,1.4414467,-4.8078723
0.808,-0.92292935,18.119493,-20.435602,-0.65231705,1.5491837,-5.0596848
0.81,0.116901934,18.22208,-20.645464,-0.57409537,1.6454394,-5.3106956
0.812,1.1830902,18.322647,-20.837942,-0.48986244,1.7297573,-5.560686
0.814,2.2722964,18.42112,-21.011288,-0.3997053,1.8016531,-5.809332
0.816,3.3808448,18.517849,-21.163666,-0.3037808,1.8605812,-6.056213
0.818,4.505425,18.612356,-21.293755,-0.20232728,1.9059277,-6.300823
0.82,5.641981,18.704422,-21.400166,-0.0956569,1.9371641,-6.542638
0.822,6.785899,18.794489,-21.481787,0.015802324,1.9537888,-6.781134
0.824,7.933651,18.88261,-21.53714,0.1315436,1.9553556,-7.0158424
0.826,9.080779,18.96928,-21.564882,0.25099915,1.941577,-7.2464023
0.828,10.222714,19.05456,-21.565794,0.37355673,1.9123662,-7.4725065
0.83,11.355314,19.138283,-21.539684,0.49855697,1.8678133,-7.6939135
0.832,12.474527,19.220814,-21.486061,0.62533057,1.808217,-7.9104357
0.834,13.576238,19.302423,-21.405018,0.75319034,1.7340868,-8.121916
0.836,14.657535,19.383299,-21.29664,0.88149554,1.6461451,-8.328161
0.838,15.715351,19.463703,-21.160526,1.0096449,1.5452898,-8.528971
0.84,16.747086,19.54401,-20.996592,1.1371073,1.432565,-8.72406
0.842,17.750172,19.624489,-20.805336,1.2634073,1.309154,-8.913141
0.844,18.722998,19.705421,-20.586985,1.3881451,1.1763053,-9.095961
0.846,19.664364,19.786709,-20.341688,1.5109365,1.0353012,-9.272318
0.848,20.573408,19.868336,-20.069603,1.6314301,0.88744974,-9.442114
0.85,21.449463,19.9506,-19.770868,1.749336,0.7340975,-9.605374
0.852,22.29223,20.033642,-19.445587,1.8644254,0.5766034,-9.762232
0.854,23.102432,20.117235,-19.09387,1.976502,0.41627598,-9.912914
0.856,23.88128,20.201279,-18.715607,2.0853987,0.2543888,-10.057695
0.858,24.63027,20.285666,-18.310581,2.190987,0.092167854,-10.196875
0.86,25.351128,20.37025,-17.878551,2.2931297,-0.06929636,-10.3306875
0.862,26.046148,20.454819,-17.419155,2.391707,-0.22902393,-10.459294
0.864,26.717888,20.539068,-16.932133,2.4865763,-0.38616705,-10.582755
0.866,27.368874,20.622538,-16.417582,2.5775754,-0.5400057,-10.701014
0.868,28.002226,20.704573,-15.875558,2.664524,-0.68998384,-10.813917
0.87,28.620987,20.784348,-15.306283,2.7472234,-0.8356714,-10.9213085
0.872,29.228203,20.860746,-14.710039,2.825475,-0.976686,-11.023035
0.874,29.827148,20.932531,-14.087423,2.8991,-1.1127214,-11.118971
0.876,30.420883,20.998093,-13.439186,2.967979,-1.2434726,-11.209043
0.878,31.011967,21.056156,-12.766421,3.0320413,-1.3686109,-11.293203
0.88,31.603048,21.10517,-12.070463,3.091261,-1.4878078,-11.3715
0.882,32.196594,21.143526,-11.352736,3.1456497,-1.600779,-11.444052
0.884,32.794483,21.169245,-10.614735,3.1952698,-1.7072892,-11.511057
0.886,33.398438,21.180391,-9.858211,3.2401757,-1.8071423,-11.5727825
0.888,34.00978,21.17508,-9.085352,3.280424,-1.9002466,-11.629559
0.89,34.629208,21.151363,-8.298635,3.3159945,-1.9866333,-11.681812
0.892,35.257347,21.107498,-7.500228,3.346775,-2.0664787,-11.730036
0.894,35.894012,21.042286,-6.6925435,3.3725767,-2.14004,-11.774747
0.896,36.53883,20.954342,-5.877815,3.3930783,-2.2077026,-11.81642
0.898,37.191605,20.842342,-5.0582657,3.4078681,-2.2698965,-11.855463
0.9,37.851917,20.705217,-4.2363386,3.4164562,-2.3270473,-11.892126
0.902,38.518734,20.542236,-3.4145174,3.4182909,-2.379538,-11.926427
0.904,39.190895,20.353073,-2.5953503,3.412807,-2.4276543,-11.95823
0.906,39.867462,20.1375,-1.7814503,3.3994832,-2.4715142,-11.987207
0.908,40.54776,19.89541,-0.9752321,3.3779123,-2.5109859,-12.012909
0.91,41.23067,19.626846,-0.1789155,3.3478084,-2.5457373,-12.034828
0.912,41.915916,19.331963,0.6057272,3.309052,-2.5752685,-12.052507
0.914,42.603104,19.011082,1.3771424,3.261719,-2.598893,-12.065554
0.916,43.29184,18.664951,2.1338997,3.2060392,-2.6158538,-12.073643
0.918,43.98147,18.294575,2.8745599,3.1423726,-2.625377,-12.07654
0.92,44.671833,17.901215,3.597815,3.0711482,-2.626768,-12.074107
0.922,45.36317,17.485596,4.30222,2.992852,-2.6194594,-12.06625
0.924,46.05575,17.048613,4.98656,2.9079604,-2.6029987,-12.052812
0.926,46.750504,16.590954,5.649737,2.816927,-2.5770943,-12.033622
0.928,47.44792,16.113487,6.290887,2.7201748,-2.5415874,-12.008457
0.93,48.148235,15.617197,6.9094343,2.6180828,-2.4964058,-11.9770565
0.932,48.852093,15.103003,7.5045433,2.5110145,-2.441504,-11.939074
0.934,49.560295,14.571701,8.075274,2.3992844,-2.3768349,-11.894115
0.936,50.273808,14.024069,8.620675,2.2831757,-2.3023334,-11.841784
0.938,50.99314,13.460957,9.13999,2.1629386,-2.2178812,-11.781643
0.94,51.71863,12.883371,9.632895,2.038818,-2.123384,-11.713301
0.942,52.451122,12.291848,10.099009,1.9110303,-2.0187526,-11.636368
0.944,53.191994,11.686715,10.538076,1.7797694,-1.903904,-11.550482
0.946,53.941505,11.06852,10.949998,1.6452203,-1.778774,-11.455305
0.948,54.699783,10.438021,11.334455,1.5075116,-1.6434171,-11.350618
0.95,55.46708,9.796018,11.690686,1.3667693,-1.49803,-11.236309
0.952,56.24403,9.143177,12.018022,1.2230616,-1.3429465,-11.1123085
0.954,57.030148,8.480392,12.316076,1.0764518,-1.178633,-10.978735
0.956,57.824696,7.8086967,12.584936,0.9269948,-1.0056791,-10.835847
0.958,58.627342,7.128746,12.824972,0.77474546,-0.8247173,-10.683996
0.96,59.436913,6.4414244,13.036823,0.6197734,-0.6363025,-10.523603
0.962,60.252068,5.747759,13.221153,0.46221733,-0.44085097,-10.355179
0.964,61.07099,5.0485992,13.378384,0.3022523,-0.23865199,-10.17927
0.966,61.89113,4.344845,13.50909,0.1400919,-0.02987051,-9.996519
0.968,62.710358,3.6370678,13.613806,-0.024057388,0.18541527,-9.807639
0.97,63.526085,2.9259672,13.693157,-0.1899724,0.40715575,-9.613476
0.972,64.33541,2.2122774,13.747686,-0.3574438,0.6352322,-9.414979
0.974,65.13575,1.4967632,13.778358,-0.52632904,0.86942065,-9.213144
0.976,65.924355,0.7803836,13.786192,-0.6965771,1.1093736,-9.008925
0.978,66.69814,0.06441116,13.772268,-0.8682265,1.3545878,-8.803215
0.98,67.45371,-0.6500492,13.737606,-1.0413845,1.6044841,-8.596812
0.982,68.188416,-1.3619485,13.683189,-1.2162194,1.8584521,-8.390444
0.984,68.89952,-2.070109,13.610014,-1.392909,2.1159647,-8.184701
0.986,69.58541,-2.7738953,13.518942,-1.5715921,2.3766491,-7.980055
0.988,70.24379,-3.47262,13.410416,-1.7522843,2.6403723,-7.776837
0.99,70.873,-4.165416,13.285404,-1.9349086,2.9072902,-7.5753193
0.992,71.47157,-4.851483,13.144445,-2.119389,3.177741,-7.375798
0.994,72.03908,-5.529856,12.98844,-2.3056722,3.4521792,-7.1785827
0.996,72.57521,-6.199612,12.818161,-2.493784,3.7310658,-6.984006
0.998,73.080154,-6.8595853,12.634207,-2.683917,4.0147653,-6.792395
1,73.55489,-7.5088167,12.436846,-2.8764906,4.3034897,-6.604061
1.002,74.00104,-8.146276,12.225706,-3.072173,4.597214,-6.41925
1.004,74.42068,-8.771015,12.000612,-3.2718725,4.895715,-6.238197
1.006,74.81684,-9.381675,11.761353,-3.476677,5.1986995,-6.0611463
1.008,75.19246,-9.976893,11.507862,-3.6877847,5.5057945,-5.8883224
1.01,75.55147,-10.55507,11.240025,-3.9064367,5.816632,-5.7199674
1.012,75.899185,-11.114628,10.957958,-4.133787,6.1309676,-5.5562735
1.014,76.24116,-11.654197,10.661423,-4.3708177,6.448695,-5.3973074
1.016,76.58246,-12.17123,10.349663,-4.618397,6.7697,-5.2429957
1.018,76.92912,-12.663144,10.02277,-4.8772335,7.09402,-5.0930243
1.02,77.2872,-13.127113,9.680113,-5.147796,7.4218435,-4.9468813
1.022,77.66252,-13.5597515,9.321314,-5.4304442,7.753268,-4.8039546
1.024,78.06188,-13.957701,8.945862,-5.7254457,8.088151,-4.6635714
1.026,78.49176,-14.317499,8.553078,-6.0329733,8.42614,-4.525067
1.028,78.958565,-14.634707,8.142944,-6.3530836,8.766638,-4.387932
1.03,79.468735,-14.904742,7.715143,-6.6858006,9.108792,-4.251843
1.032,80.02864,-15.121837,7.2684517,-7.0311728,9.451437,-4.116624
1.034,80.64367,-15.279515,6.802397,-7.3893433,9.793029,-3.9821699
1.036,81.319435,-15.371534,6.3165607,-7.7605853,10.131679,-3.8482757
1.038,82.062004,-15.3908615,5.8129673,-8.145367,10.465187,-3.7145405
1.04,82.874466,-15.328445,5.2923317,-8.544366,10.791121,-3.5801501
1.042,83.75986,-15.173848,4.754181,-8.958454,11.106987,-3.443783
1.044,84.71849,-14.911583,4.19697,-9.388564,11.410199,-3.303482
1.046,85.74903,-14.524162,3.6245003,-9.835603,11.698159,-3.1566691
1.048,86.85339,-14.000225,3.0332546,-10.300352,11.968531,-3.0001893
1.05,88.04103,-13.334076,2.4306297,-10.783406,12.21921,-2.8304482
1.052,89.3108,-12.509472,1.8122807,-11.285075,12.448357,-2.643548
1.054,90.669914,-11.518957,1.177166,-11.805353,12.654539,-2.4354615
1.056,92.11878,-10.3444805,0.5228853,-12.34389,12.836683,-2.202158
1.058,93.65828,-8.960506,-0.14845467,-12.900078,12.9940405,-1.939932
1.06,95.294525,-7.350088,-0.82723904,-13.4728985,13.126301,-1.6455041
1.062,97.02801,-5.4933147,-1.5039067,-14.061168,13.233283,-1.3163793
1.064,98.85304,-3.3596935,-2.1861224,-14.663601,13.314899,-0.9509851
1.066,100.77553,-0.9462986,-2.8608632,-15.278754,13.371258,-0.5486112
1.068,102.80273,1.7309151,-3.5238605,-15.904855,13.402874,-0.10942602
1.07,104.93554,4.6985416,-4.1652575,-16.539654,13.410671,0.36551476
1.072,107.180855,7.996746,-4.7629423,-17.180328,13.396281,0.8745419
1.074,109.54719,11.664154,-5.30949,-17.823925,13.361702,1.4152718
1.076,112.03897,15.728107,-5.820307,-18.467724,13.308424,1.9844911
1.078,114.6903,20.173733,-6.3094234,-19.108145,13.239518,2.579322
1.08,117.52185,25.035301,-6.812269,-19.741217,13.15841,3.1988313
1.082,120.48721,30.32344,-7.3240166,-20.362373,13.068123,3.8433733
1.084,123.58276,35.992615,-7.840164,-20.96719,12.971755,4.5141187
1.086,126.86052,42.015305,-8.378998,-21.55142,12.871818,5.212512
1.088,130.3985,48.37406,-8.949444,-22.11087,12.769524,5.9397097
1.09,134.1926,55.046196,-9.491501,-22.642092,12.664421,6.698042
1.092,138.22218,62.075935,-10.0240555,-23.14247,12.554176,7.491098
1.094,142.50491,69.45923,-10.51194,-23.60866,12.43491,8.321413
1.096,147.04878,77.15973,-11.003525,-24.039856,12.298448,9.192018
1.098,151.85077,85.098015,-11.548611,-24.438557,12.131538,10.1096
1.1,156.90894,93.19645,-12.098621,-24.808403,11.9176655,11.082056
1.102,162.23297,101.41838,-12.60878,-25.155422,11.635905,12.116698
1.104,167.82544,109.703804,-13.0862465,-25.488241,11.261951,13.217372
1.106,173.68796,117.99025,-13.529915,-25.81578,10.769999,14.385209
1.108,179.77226,126.19781,-13.944748,-26.150799,10.128095,15.621816
1.11,186.04677,134.23857,-14.318306,-26.508327,9.298579,16.929026
1.112,192.48239,142.03159,-14.654251,-26.899632,8.244653,18.304283
1.114,199.06038,149.47156,-14.905935,-27.333385,6.932866,19.748081
1.116,205.75432,156.44795,-14.997223,-27.824127,5.3340654,21.268475
1.118,212.50853,162.86214,-14.851156,-28.384933,3.4354806,22.863707
1.12,219.26364,168.61626,-14.407167,-29.020948,1.2300644,24.540785
1.122,225.94434,173.63315,-13.631315,-29.737333,-1.2908869,26.296556
1.124,232.46085,177.84259,-12.46428,-30.543804,-4.1422257,28.110376
1.126,238.73393,181.15932,-10.815186,-31.42777,-7.312827,29.922756
1.128,244.70122,183.49417,-8.598925,-32.367676,-10.774551,31.674189
1.13,250.27914,184.79184,-5.7439747,-33.358337,-14.481599,33.308693
1.132,255.36969,185.05908,-2.2114327,-34.392254,-18.366894,34.754425
1.134,259.87527,184.31146,2.035545,-35.442364,-22.346472,35.915897
1.136,263.70697,182.55255,7.031086,-36.460613,-26.322195,36.687492
1.138,266.7729,179.8057,12.78577,-37.386803,-30.18552,36.972225
1.14,268.98282,176.11427,19.289219,-38.156544,-33.826904,36.68865
1.142,270.25702,171.5418,26.501572,-38.697884,-37.142185,35.772488
1.144,270.52115,166.17307,34.350044,-38.934475,-40.042328,34.184807
1.146,269.71017,160.10225,42.753613,-38.793884,-42.453297,31.922218
1.148,267.78464,153.42375,51.623966,-38.217785,-44.316185,29.021542
1.15,264.73596,146.23296,60.83121,-37.167393,-45.586563,25.555544
1.152,260.5804,138.63026,70.215355,-35.625988,-46.235992,21.624771
1.154,255.3589,130.7164,79.60513,-33.60119,-46.25477,17.352337
1.156,249.1369,122.5892,88.81754,-31.121723,-45.647816,12.87903
1.158,241.99576,114.35195,97.66295,-28.231712,-44.432995,8.359659
1.16,234.02861,106.1108,105.93698,-24.98656,-42.640995,3.9462833
1.162,225.36415,97.95252,113.458084,-21.444712,-40.309956,-0.2324152
1.164,216.14038,89.964386,120.056564,-17.665852,-37.488564,-4.0730934
1.166,206.51544,82.215645,125.57902,-13.712356,-34.237385,-7.484925
1.168,196.6511,74.7666,129.89037,-9.644083,-30.6248,-10.39174
1.17,186.70604,67.68005,132.8836,-5.51173,-26.72202,-12.730572
1.172,176.84381,61.007698,134.49031,-1.367034,-22.606445,-14.436688
1.174,167.22337,54.78952,134.69221,2.7338715,-18.346489,-15.466347
1.176,157.97583,49.084595,133.4878,6.737678,-14.00292,-15.785732
1.178,149.21805,43.94462,130.91878,10.593347,-9.63399,-15.380101
1.18,141.05394,39.362404,127.05017,14.237059,-5.3184323,-14.251917
1.182,133.55875,35.318176,121.96858,17.615763,-1.1370659,-12.465002
1.184,126.783554,31.797329,115.80175,20.701805,2.8284397,-10.131767
1.186,120.75947,28.79367,108.71218,23.466642,6.4955654,-7.385938
1.188,115.46895,26.327038,100.86427,25.874855,9.789259,-4.3747616
1.19,110.89424,24.355648,92.43811,27.896591,12.644499,-1.2614913
1.192,107.05139,22.858112,83.57303,29.520355,15.009037,1.7807102
1.194,103.88169,21.84792,74.413284,30.75386,16.851395,4.5913587
1.196,101.269196,21.298256,65.1207,31.613083,18.162903,7.0425067
1.198,99.092415,21.162395,55.835533,32.120865,18.960314,9.044064
1.2,97.31427,21.395184,46.63313,32.30687,19.279585,10.546485
1.202,95.893234,21.898886,37.661926,32.206127,19.173613,11.543299
1.204,94.74219,22.639967,29.004091,31.856121,18.709454,12.068517
1.206,93.788055,23.612621,20.803581,31.291042,17.96305,12.189898
1.208,92.9713,24.833834,13.163987,30.539114,17.012495,11.998663
1.21,92.233505,26.295341,6.0799894,29.621513,15.927821,11.596187
1.212,91.512505,27.94368,-0.43747902,28.550938,14.765044,11.083153
1.214,90.76396,29.751678,-6.3317633,27.333754,13.564141,10.558575
1.216,89.95387,31.693161,-11.571308,25.972998,12.348678,10.1185875
1.218,89.09538,33.75554,-16.132565,24.471464,11.128774,9.842327
1.22,88.17608,35.927166,-20.017872,22.83516,9.902229,9.777224
1.222,87.18161,38.18559,-23.221718,21.075523,8.659151,9.938401
1.224,86.091545,40.527378,-25.78881,19.210245,7.3869987,10.313282
1.226,84.89891,42.944424,-27.7743,17.263905,6.0745564,10.865444
1.228,83.62261,45.411938,-29.216427,15.267502,4.715322,11.540456
1.23,82.27525,47.90547,-30.12916,13.257699,3.3109095,12.2744255
1.232,80.87381,50.38727,-30.507751,11.273361,1.8696601,12.999549
1.234,79.43604,52.82513,-30.381737,9.348974,0.4025154,13.649115
1.236,77.96014,55.20887,-29.807236,7.51437,-1.0743077,14.167001
1.238,76.42642,57.53415,-28.829325,5.79374,-2.541391,14.514917
1.24,74.839134,59.770313,-27.481379,4.203881,-3.9803135,14.674674
1.242,73.21188,61.851685,-25.778616,2.7549121,-5.374382,14.647699
1.244,71.551704,63.739895,-23.754248,1.4506855,-6.7096434,14.451965
1.246,69.85848,65.432205,-21.45466,0.2899084,-7.9751334,14.117431
1.248,68.138245,66.92226,-18.919867,-0.73232317,-9.162816,13.680361
1.25,66.39953,68.20209,-16.190002,-1.6226926,-10.266949,13.178021
1.252,64.64725,69.26278,-13.299297,-2.3879933,-11.282959,12.644262
1.254,62.891457,70.094475,-10.278534,-3.0342212,-12.206764,12.106094
1.256,61.142082,70.69719,-7.1745377,-3.5662374,-13.034961,11.581962
1.258,59.398376,71.08258,-4.043829,-3.9880733,-13.764277,11.081954
1.26,57.653015,71.26585,-0.91358566,-4.303671,-14.391679,10.60887
1.262,55.899086,71.260345,2.1991253,-4.5167537,-14.914681,10.159727
1.264,54.133175,71.07802,5.271332,-4.6303625,-15.331043,9.727531
1.266,52.353523,70.73411,8.276846,-4.647348,-15.639245,9.303701
1.268,50.563137,70.242386,11.198697,-4.5709586,-15.838983,8.880587
1.27,48.768402,69.613144,14.0231285,-4.405111,-15.931219,8.453026
1.272,46.97017,68.85982,16.731672,-4.1547194,-15.91831,8.01892
1.274,45.168255,67.99674,19.304474,-3.8257565,-15.803973,7.5790987
1.276,43.36356,67.03652,21.726662,-3.4250488,-15.593091,7.136875
1.278,41.560448,65.98903,23.986464,-2.9602125,-15.291791,6.697566
1.28,39.762634,64.86448,26.070265,-2.439638,-14.9074135,6.267917
1.282,37.97264,63.673412,27.965109,-1.8722742,-14.448324,5.8553224
1.284,36.19413,62.422455,29.661963,-1.26746,-13.923722,5.466863
1.286,34.433693,61.11815,31.152332,-0.6348374,-13.343298,5.1085625
1.288,32.696136,59.772682,32.434387,0.015957475,-12.717144,4.785031
1.29,30.986504,58.39965,33.512604,0.67567956,-12.055639,4.4993353
1.292,29.309662,57.01156,34.392727,1.3355029,-11.369167,4.2528987
1.294,27.670605,55.618397,35.082966,1.9872125,-10.66776,4.0454626
1.296,26.074482,54.22839,35.593105,2.6233916,-9.960893,3.8752337
1.298,24.526848,52.84849,35.934204,3.237574,-9.257268,3.7392695
1.3,23.031929,51.48504,36.11953,3.8243458,-8.564636,3.6339064
1.302,21.59305,50.14313,36.162086,4.379346,-7.8896103,3.55513
1.304,20.21169,48.826054,36.075043,4.899272,-7.237575,3.4989038
1.306,18.888645,47.53439,35.87117,5.3818274,-6.612656,3.4614322
1.308,17.623451,46.267635,35.563347,5.8256264,-6.017802,3.4393582
1.31,16.415098,45.02494,35.164997,6.2301,-5.45491,3.4297347
1.312,15.262867,43.80499,34.69076,6.595389,-4.924947,3.4300215
1.314,14.166101,42.607506,34.152897,6.92214,-4.4281588,3.438089
1.316,13.123634,41.4324,33.563335,7.2114086,-3.9642675,3.4521728
1.318,12.134499,40.27991,32.934494,7.464487,-3.53263,3.4707184
1.32,11.197669,39.150696,32.27754,7.6828094,-3.1324582,3.492229
1.322,10.311575,38.045715,31.602886,7.867827,-2.762945,3.515221
1.324,9.474561,36.96553,30.91953,8.020933,-2.423274,3.5382185
1.326,8.684826,35.91068,30.235397,8.143571,-2.1125298,3.5597138
1.328,7.940151,34.881283,29.557205,8.2372465,-1.8296897,3.5781884
1.33,7.238736,33.87775,28.890074,8.303563,-1.5735581,3.5921292
1.332,6.5783625,32.900047,28.237928,8.344231,-1.3426998,3.600113
1.334,5.9576597,31.94817,27.603828,8.361095,-1.1353564,3.6009054
1.336,5.3748198,31.022375,26.989443,8.35606,-0.949479,3.5934896
1.338,4.828494,30.12296,26.39629,8.331085,-0.7827158,3.5770967
1.34,4.317314,29.250097,25.825232,8.288088,-0.63255244,3.5512688
1.342,3.8404474,28.403856,25.276495,8.228882,-0.49642026,3.5158694
1.344,3.3968487,27.58459,24.749626,8.155093,-0.37180907,3.471063
1.346,2.985754,26.792532,24.24303,8.068092,-0.25643778,3.4173362
1.348,2.6066303,26.027754,23.754992,7.9690046,-0.14834097,3.355445
1.35,2.2586365,25.290382,23.284035,7.858684,-0.0459589,3.2863936
1.352,1.940815,24.58083,22.828445,7.7377195,0.051836986,3.211404
1.354,1.6523438,23.899403,22.386164,7.6065063,0.14573374,3.1317961
1.356,1.392581,23.246437,21.955132,7.4653254,0.23604356,3.0489583
1.358,1.1608171,22.622057,21.533464,7.3144135,0.32274097,2.9642668
1.36,0.95617676,22.026253,21.119547,7.154004,0.40550995,2.8789883
1.362,0.77770615,21.459055,20.711828,6.984387,0.4838733,2.7941828
1.364,0.6242323,20.920214,20.309126,6.805925,0.55725056,2.7107446
1.366,0.49477005,20.409378,19.910252,6.619067,0.62499744,2.6293318
1.368,0.38806248,19.925886,19.514605,6.4243684,0.68646306,2.550335
1.37,0.30269718,19.468939,19.12193,6.2224255,0.7410234,2.4739153
1.372,0.23712063,19.037468,18.732365,6.0138993,0.7881392,2.4000003
1.374,0.18965435,18.630371,18.346497,5.799485,0.82740194,2.328327
1.376,0.158391,18.246157,17.96506,5.57987,0.85852075,2.2584746
1.378,0.14167547,17.883234,17.589115,5.355723,0.8813323,2.1898763
1.38,0.13740778,17.54,17.219696,5.127679,0.8957906,2.1219041
1.382,0.14367676,17.21447,16.857779,4.8963356,0.9019679,2.053892
1.384,0.15863323,16.90487,16.50437,4.6622596,0.9000248,1.9852078
1.386,0.18049622,16.609272,16.16064,4.425989,0.890206,1.9152949
1.388,0.20747614,16.325718,15.827591,4.1880174,0.87285876,1.8437309
1.39,0.2383337,16.052444,15.506137,3.9488516,0.8484187,1.7702265
1.392,0.2717166,15.787431,15.197163,3.7089813,0.8173922,1.694632
1.394,0.3064375,15.529048,14.901405,3.4688852,0.78034884,1.6169508
1.396,0.34123707,15.275623,14.619901,3.2290459,0.7379193,1.5373023
1.398,0.37495756,15.025659,14.353728,2.9899385,0.69078016,1.4559283
1.4,0.4068203,14.777873,14.103841,2.7520638,0.6396426,1.3731253
1.402,0.43617582,14.53116,13.871027,2.5159101,0.5852747,1.2892404
1.404,0.46275043,14.284666,13.655574,2.281982,0.5284585,1.2046585
1.406,0.4861331,14.037693,13.45759,2.0507836,0.47001082,1.1197629
1.408,0.5061574,13.789792,13.277046,1.8228068,0.41075668,1.0349455
1.41,0.5230408,13.54056,13.113594,1.598512,0.35151732,0.9506027
1.412,0.53689814,13.289983,12.966667,1.3783355,0.29310355,0.8671136
1.414,0.547935,13.038216,12.835554,1.1626675,0.23630026,0.78486174
1.416,0.55668354,12.785323,12.719423,0.95186657,0.18185459,0.70419776
1.418,0.5636437,12.531664,12.61725,0.7462478,0.13042772,0.62542456
1.42,0.5695524,12.277717,12.528039,0.54607266,0.08255558,0.5488232
1.422,0.5748613,12.024002,12.450606,0.3515472,0.038666636,0.47465175
1.424,0.58041954,11.77121,12.383783,0.1628364,-0.0009432733,0.40312412
1.426,0.5867009,11.5201025,12.326323,-0.019968186,-0.036110535,0.33441943
1.428,0.59456277,11.271279,12.2768955,-0.19682793,-0.066780634,0.268648
1.43,0.604548,11.025653,12.23424,-0.36778355,-0.092976466,0.20583211
1.432,0.6172483,10.78385,12.197036,-0.53292775,-0.11477115,0.14594866
1.434,0.63309836,10.54675,12.164335,-0.6924191,-0.13229476,0.08889414
1.436,0.65249276,10.314963,12.135159,-0.8464827,-0.14569059,0.034505233
1.438,0.6756463,10.089281,12.108683,-0.99536973,-0.155098,-0.017431814
1.44,0.7027986,9.870353,12.08404,-1.1393509,-0.16065802,-0.06716006
1.442,0.73412156,9.658805,12.060535,-1.2787205,-0.16252153,-0.1149421
1.444,0.7693136,9.455328,12.037393,-1.413778,-0.16081661,-0.16101629
1.446,0.8084824,9.260407,12.01412,-1.5448369,-0.1556705,-0.2055833
1.448,0.8518348,9.074381,11.990465,-1.6722071,-0.14719486,-0.24882643
1.45,0.89871264,8.897948,11.965711,-1.7962122,-0.13549067,-0.29088274
1.452,0.9489305,8.731348,11.939659,-1.9171817,-0.12063013,-0.33185905
1.454,1.0025072,8.574834,11.912285,-2.0354366,-0.10267474,-0.37181973
1.456,1.0589285,8.428919,11.883575,-2.1512911,-0.08168356,-0.41077495
1.458,1.1179583,8.293837,11.853579,-2.2650537,-0.057701036,-0.44873542
1.46,1.1794364,8.169637,11.822296,-2.3769834,-0.030765697,-0.48567075
1.462,1.2430217,8.05657,11.789734,-2.4873052,-0.00091059506,-0.5215102
1.464,1.3087158,7.9546013,11.755952,-2.5962155,0.031840593,-0.5561715
1.466,1.3761687,7.8638353,11.72094,-2.7038705,0.06748247,-0.58954525
1.468,1.4452379,7.784308,11.684702,-2.8103676,0.10602614,-0.6215192
1.47,1.5158353,7.7159986,11.647406,-2.9157805,0.1475068,-0.6519699
1.472,1.5881555,7.6587706,11.60922,-3.0201437,0.19198772,-0.68080735
1.474,1.662168,7.6126103,11.5702,-3.1234598,0.23957503,-0.70797884
1.476,1.7378635,7.577333,11.530411,-3.225699,0.29039672,-0.7334584
1.478,1.8153574,7.552927,11.489921,-3.3268056,0.34466368,-0.75728106
1.48,1.8948605,7.539213,11.448628,-3.4266734,0.40260875,-0.7795696
1.482,1.9764056,7.5361114,11.406435,-3.5252163,0.46443024,-0.8004501
1.484,2.0604644,7.543553,11.362984,-3.6222968,0.53038967,-0.82006115
1.486,2.1471791,7.561473,11.318102,-3.7177482,0.6007604,-0.8385986
1.488,2.2368164,7.589609,11.2711315,-3.8113744,0.67584854,-0.8562406
1.49,2.3298929,7.6279664,11.221656,-3.902967,0.755924,-0.873149
1.492,2.4266486,7.6765842,11.169008,-3.992305,0.8412595,-0.8894484
1.494,2.527258,7.7352796,11.112392,-4.0791826,0.9321011,-0.90521884
1.496,2.632101,7.8041787,11.050756,-4.1633916,1.0286678,-0.92048985
1.498,2.741476,7.8833456,10.983256,-4.2447634,1.1311255,-0.93523127
1.5,2.855586,7.9727974,10.908691,-4.32316,1.2395976,-0.9493911
1.502,2.9746761,8.072771,10.825927,-4.3984895,1.3541633,-0.9628992
1.504,3.0989254,8.183184,10.733851,-4.4707127,1.4748194,-0.97568345
1.506,3.2287397,8.304167,10.6312895,-4.539846,1.6014645,-0.9876871
1.508,3.3641813,8.435724,10.5170555,-4.6059823,1.7339201,-0.9988899
1.51,3.5053463,8.577949,10.39002,-4.6692624,1.871903,-1.009331
1.512,3.6525702,8.730703,10.249184,-4.729866,2.015047,-1.0190897
1.514,3.805796,8.89373,10.093477,-4.788037,2.1628888,-1.0283228
1.516,3.965051,9.067017,9.922073,-4.844019,2.3148844,-1.0372725
1.518,4.1304,9.250071,9.7342415,-4.8980346,2.4704075,-1.046225
1.52,4.3018055,9.442519,9.52942,-4.9503107,2.6287904,-1.0555243
1.522,4.4793534,9.643789,9.307203,-5.001049,2.7893348,-1.0655564
1.524,4.662912,9.853281,9.067321,-5.05043,2.9512963,-1.0767313
1.526,4.852502,10.070237,8.809851,-5.0985823,3.1139445,-1.0894516
1.528,5.0480304,10.293652,8.535021,-5.145648,3.276517,-1.1041265
1.53,5.2492695,10.522614,8.243194,-5.1917562,3.43823,-1.1211367
1.532,5.456198,10.755877,7.9351974,-5.2370706,3.5982537,-1.140799
1.534,5.6684575,10.992353,7.611917,-5.281813,3.7557487,-1.1633394
1.536,5.885829,11.230864,7.274618,-5.3262134,3.909871,-1.1889653
1.538,6.107977,11.470055,6.924718,-5.3706026,4.0596967,-1.2178292
1.54,6.3345537,11.708687,6.5640144,-5.4153714,4.204278,-1.250001
1.542,6.5652356,11.945473,6.194436,-5.460944,4.342662,-1.2855172
1.544,6.799651,12.179001,5.8181915,-5.507741,4.47393,-1.3243923
1.546,7.037266,12.408117,5.4376826,-5.556175,4.597211,-1.3666275
1.548,7.277728,12.631559,5.055508,-5.606581,4.7117076,-1.4121914
1.55,7.5204906,12.84829,4.674282,-5.6592116,4.816741,-1.4610441
1.552,7.765072,13.057318,4.2967653,-5.7141905,4.9117737,-1.5131364
1.554,8.011061,13.257755,3.9256349,-5.771494,4.996436,-1.5683625
1.556,8.257646,13.44909,3.563558,-5.8309584,5.0705557,-1.626565
1.558,8.503752,13.630989,3.212781,-5.8922596,5.134196,-1.6875367
1.56,8.749414,13.802979,2.876095,-5.9549522,5.1876535,-1.7509878
1.562,8.99384,13.965041,2.5555382,-6.018488,5.231435,-1.8165596
1.564,9.236128,14.117479,2.2529225,-6.0822587,5.2662783,-1.8838055
1.566,9.475752,14.260505,1.9697592,-6.14564,5.293111,-1.9522061
1.568,9.712233,14.394716,1.7073218,-6.207989,5.3130155,-2.0211816
1.57,9.94488,14.521141,1.4666929,-6.2687206,5.3271728,-2.0900848
1.572,10.173343,14.640481,1.2481343,-6.3273,5.336849,-2.1582494
1.574,10.397151,14.753831,1.05194,-6.3832474,5.3433094,-2.2249973
1.576,10.615975,14.862395,0.87793356,-6.4361515,5.347792,-2.2897086
1.578,10.82939,14.967503,0.7253777,-6.485671,5.351469,-2.3518171
1.58,11.037266,15.070449,0.59334815,-6.5315075,5.355397,-2.410881
1.582,11.239159,15.172624,0.48048675,-6.5733786,5.3605347,-2.466574
1.584,11.43494,15.275259,0.38527203,-6.611049,5.3676796,-2.5187454
1.586,11.624624,15.37967,0.3058684,-6.6442866,5.3774967,-2.5673923
1.588,11.808156,15.486864,0.24033618,-6.672888,5.390493,-2.6126704
1.59,11.985502,15.597954,0.18662286,-6.6966715,5.4070582,-2.6548915
1.592,12.156592,15.713687,0.1425736,-6.715487,5.4274344,-2.6944678
1.594,12.321447,15.834493,0.106134176,-6.7292385,5.451779,-2.7319179
1.596,12.480365,15.96069,0.075285435,-6.737897,5.48013,-2.767834
1.598,12.633265,16.092638,0.04807806,-6.7414865,5.5124774,-2.8028398
1.6,12.780207,16.22998,0.02265954,-6.7400956,5.548744,-2.8375692
1.602,12.921417,16.372171,-0.0024883747,-6.733877,5.5888166,-2.8726149
1.604,13.057032,16.518564,-0.02879858,-6.7230325,5.6325455,-2.9085176
1.606,13.187033,16.66814,-0.05742693,-6.7077713,5.6797886,-2.9457242
1.608,13.311726,16.81989,-0.0895195,-6.688303,5.7304006,-2.9845963
1.61,13.430981,16.972637,-0.12575293,-6.664832,5.784208,-3.0253758
1.612,13.544965,17.124865,-0.16667652,-6.637514,5.841058,-3.068165
1.614,13.653955,17.275087,-0.2126503,-6.6064577,5.9008446,-3.1128836
1.616,13.758135,17.42164,-0.26380682,-6.571707,5.9634914,-3.1593134
1.618,13.857693,17.562948,-0.3200307,-6.5332274,6.02893,-3.2070773
1.62,13.95298,17.697271,-0.3811345,-6.490919,6.0971637,-3.2556715
1.622,14.043959,17.823061,-0.44678688,-6.4446287,6.16828,-3.3045075
1.624,14.131086,17.938824,-0.5163102,-6.394124,6.2424626,-3.3529406
1.626,14.214639,18.042957,-0.5891738,-6.3391285,6.319961,-3.4003048
1.628,14.295031,18.134235,-0.6647372,-6.2793236,6.401105,-3.4459612
1.63,14.372551,18.211407,-0.7421484,-6.2143574,6.486281,-3.4893432
1.632,14.447657,18.273441,-0.82068586,-6.1438904,6.575918,-3.5299757
1.634,14.520732,18.319462,-0.89958,-6.0675783,6.670483,-3.5674644
1.636,14.59241,18.348795,-0.9783206,-5.985106,6.770444,-3.6014905
1.638,14.6631775,18.360725,-1.0564241,-5.896166,6.876255,-3.6318412
1.64,14.73362,18.354681,-1.1331944,-5.800503,6.988318,-3.658406
1.642,14.803994,18.330507,-1.2085099,-5.6978893,7.1070046,-3.6811466
1.644,14.875117,18.28806,-1.2819166,-5.5881443,7.232592,-3.700059
1.646,14.94738,18.227455,-1.3532462,-5.4711227,7.3652544,-3.7151685
1.648,15.021166,18.149153,-1.4223742,-5.3467193,7.5050383,-3.726522
1.65,15.097068,18.053358,-1.4893689,-5.2148666,7.6518607,-3.734158
1.652,15.1753435,17.940794,-1.5542512,-5.0755477,7.8054852,-3.7381454
1.654,15.256349,17.812115,-1.6172037,-4.9287934,7.965505,-3.7385702
1.656,15.340195,17.667955,-1.6785374,-4.7746873,8.131385,-3.7355988
1.658,15.426916,17.509275,-1.7384834,-4.613349,8.302459,-3.729459
1.66,15.516684,17.336767,-1.7972393,-4.4449716,8.477917,-3.7204535
1.662,15.609278,17.15137,-1.8551531,-4.2697983,8.656873,-3.7089722
1.664,15.704651,16.953976,-1.9124856,-4.088107,8.838387,-3.6955612
1.666,15.802551,16.7454,-1.9694533,-3.9002244,9.021435,-3.6808796
1.668,15.902524,16.52651,-2.026219,-3.7065399,9.204914,-3.6656466
1.67,16.004164,16.298058,-2.0829046,-3.5074837,9.387719,-3.650525
1.672,16.106836,16.060982,-2.139631,-3.303545,9.568768,-3.6361637
1.674,16.209957,15.815921,-2.1965265,-3.0952404,9.74697,-3.6231468
1.676,16.312668,15.563667,-2.2535098,-2.8831363,9.921223,-3.6119525
1.678,16.41436,15.304832,-2.3106246,-2.6678734,10.090459,-3.6029537
1.68,16.514202,15.039867,-2.3678217,-2.4501383,10.253641,-3.596421
1.682,16.611198,14.769607,-2.424755,-2.2306652,10.409756,-3.592509
1.684,16.704325,14.494664,-2.4812155,-2.010222,10.557841,-3.5912335
1.686,16.793026,14.215274,-2.5372157,-1.7895938,10.69694,-3.5925174
1.688,16.876314,13.931992,-2.5921764,-1.5695764,10.826135,-3.5961778
1.69,16.953331,13.645292,-2.6459112,-1.3509417,10.944582,-3.6019433
1.692,17.023426,13.355704,-2.6979795,-1.1344151,11.051539,-3.6094458
1.694,17.08596,13.063587,-2.7481236,-0.92064977,11.146358,-3.618264
1.696,17.140152,12.769497,-2.7957168,-0.7102227,11.228516,-3.627934
1.698,17.185425,12.473844,-2.8405285,-0.50363684,11.297608,-3.6380467
1.7,17.221533,12.17703,-2.882012,-0.30130553,11.353383,-3.6482296
1.702,17.248196,11.879539,-2.919797,-0.10357666,11.395737,-3.6581557
1.704,17.265005,11.581818,-2.9533875,0.08924818,11.424641,-3.6675663
1.706,17.271734,11.284391,-2.982504,0.27694106,11.440154,-3.6762755
1.708,17.268581,10.987429,-3.0066357,0.45930243,11.442389,-3.6841624
1.71,17.255587,10.691484,-3.025519,0.63613915,11.431468,-3.6910906
1.712,17.232906,10.397043,-3.0388103,0.80727386,11.407505,-3.6969514
1.714,17.200747,10.104451,-3.0462284,0.97251606,11.370628,-3.7016726
1.716,17.159687,9.814042,-3.0473404,1.1316667,11.320927,-3.7051399
1.718,17.109877,9.525995,-3.0417607,1.2845247,11.25849,-3.7071915
1.72,17.052158,9.240575,-3.0293312,1.4309072,11.183479,-3.7076793
1.722,16.987226,8.957963,-3.0098028,1.570638,11.0961275,-3.7065237
1.724,16.915543,8.678605,-2.9828274,1.7035654,10.996738,-3.7037044
1.726,16.837704,8.402628,-2.9482346,1.8295918,10.885677,-3.6991897
1.728,16.754543,8.130261,-2.9057221,1.9486661,10.763453,-3.6929684
1.73,16.666887,7.8617854,-2.8551636,2.0607934,10.630693,-3.6850808
1.732,16.575565,7.597387,-2.7962904,2.1660626,10.488099,-3.6755395
1.734,16.481298,7.3372717,-2.7290034,2.2646077,10.336459,-3.6643744
1.736,16.385,7.0815363,-2.6530576,2.3566208,10.176616,-3.6516056
1.738,16.287216,6.8303766,-2.5684652,2.442325,10.00944,-3.6372359
1.74,16.188644,6.5839725,-2.4751644,2.521993,9.835831,-3.6212816
1.742,16.090008,6.3424835,-2.3731904,2.595891,9.656664,-3.603769
1.744,15.9919815,6.105866,-2.262488,2.6643057,9.472827,-3.584715
1.746,15.894841,5.874375,-2.143149,2.7275538,9.2852,-3.5641625
1.748,15.7992115,5.6482563,-2.0151668,2.7859476,9.094675,-3.5421662
1.75,15.705381,5.4277086,-1.8789902,2.8398166,8.902145,-3.5188243
1.752,15.613993,5.212587,-1.7348623,2.8895156,8.708523,-3.4942396
1.754,15.525019,5.0029078,-1.5832496,2.9354107,8.514719,-3.4685414
1.756,15.438865,4.798621,-1.4247308,2.9779,8.3216305,-3.4418793
1.758,15.355608,4.5995817,-1.2597704,3.017397,8.130166,-3.4143941
1.76,15.275381,4.4058685,-1.08916,3.0543206,7.9411964,-3.3862028
1.762,15.197966,4.2174144,-0.91357946,3.0891001,7.755555,-3.3573945
1.764,15.123533,4.0341606,-0.73387194,3.1221433,7.574007,-3.3280778
1.766,15.052074,3.856003,-0.5507908,3.153851,7.397249,-3.2983215
1.768,14.983297,3.6828408,-0.3653264,3.1846037,7.2258825,-3.2681558
1.77,14.91688,3.5147197,-0.17850637,3.2147293,7.0604115,-3.2376003
1.772,14.85283,3.3514001,0.008779049,3.2445195,6.9012175,-3.2066445
1.774,14.790794,3.1928058,0.1954484,3.2741866,6.7485647,-3.1752725
1.776,14.730659,3.038698,0.38054323,3.3039174,6.602564,-3.1434114
1.778,14.672021,2.8890347,0.5630989,3.3338425,6.463207,-3.1109722
1.78,14.614635,2.7438042,0.74205065,3.3640094,6.3303437,-3.077867
1.782,14.558079,2.6027799,0.9165726,3.394426,6.203697,-3.0439727
1.784,14.502059,2.4660115,1.0858331,3.4250493,6.0828643,-3.009135
1.786,14.446232,2.3333035,1.2490153,3.455771,5.967345,-2.973212
1.788,14.390007,2.204729,1.4055524,3.4864407,5.856534,-2.9360595
1.79,14.333195,2.0802903,1.5548728,3.5168595,5.749754,-2.8975377
1.792,14.275661,1.959713,1.6964736,3.5467868,5.6463175,-2.8575644
1.794,14.217046,1.8430929,1.8298497,3.575951,5.545495,-2.8160677
1.796,14.15678,1.7305465,1.954926,3.604073,5.4465647,-2.7730165
1.798,14.094744,1.6219263,2.071464,3.6308675,5.348811,-2.728461
1.8,14.030701,1.5172367,2.179521,3.656055,5.251614,-2.6825256
1.802,13.964422,1.4163275,2.2791452,3.6793551,5.154396,-2.6353922
1.804,13.895769,1.3193145,2.3705373,3.7005115,5.0566225,-2.5872862
1.806,13.8246,1.226028,2.4539478,3.7192817,4.957838,-2.5384958
1.808,13.750814,1.1365867,2.5297756,3.7354453,4.857688,-2.489344
1.81,13.674228,1.0508509,2.598359,3.7488089,4.7559214,-2.4401875
1.812,13.594891,0.9687705,2.6603115,3.7591972,4.6523585,-2.3913746
1.814,13.512836,0.89033604,2.7161262,3.7664454,4.546892,-2.3432484
1.816,13.428284,0.8154826,2.7664456,3.7704272,4.4395285,-2.296133
1.818,13.341117,0.7442455,2.8118334,3.7710724,4.330345,-2.2502832
1.82,13.251461,0.67652416,2.8530655,3.7683308,4.2194853,-2.2059047
1.822,13.159489,0.6122656,2.8906739,3.7621677,4.1070976,-2.1631558
1.824,13.065369,0.5513067,2.9253492,3.7525907,3.9933596,-2.122116
1.826,12.969172,0.49361897,2.9576719,3.7396522,3.8784547,-2.0828152
1.828,12.871258,0.43917418,2.9883687,3.7234635,3.762558,-2.045208
1.83,12.771612,0.38786364,3.0179152,3.7041645,3.645866,-2.0092552
1.832,12.6704855,0.33970022,3.047046,3.6819293,3.5285773,-1.9749014
1.834,12.568033,0.29440022,3.076271,3.6569543,3.4108956,-1.9420794
1.836,12.464507,0.25190067,3.106157,3.629438,3.293012,-1.9107286
1.838,12.360171,0.21206331,3.1370795,3.5995789,3.1751144,-1.8808433
1.84,12.254982,0.17480707,3.169734,3.5675542,3.057375,-1.8524251
1.842,12.149284,0.13991165,3.2044795,3.5335205,2.9399493,-1.8254942
1.844,12.043249,0.10733795,3.2417564,3.4976134,2.822978,-1.8000557
1.846,11.936916,0.07700491,3.2818675,3.4599533,2.7065794,-1.7760929
1.848,11.830672,0.048662186,3.3253255,3.420637,2.590885,-1.7535614
1.85,11.724589,0.022252083,3.3723786,3.3797696,2.4760268,-1.7323793
1.852,11.618759,-0.0024819374,3.423222,3.3374643,2.3621588,-1.7123921
1.854,11.51329,-0.025493622,3.478072,3.2938588,2.2494445,-1.6933864
1.856,11.408352,-0.047021866,3.537111,3.249102,2.1381042,-1.6751282
1.858,11.304121,-0.0670948,3.6002958,3.203377,2.0283957,-1.6573576
1.86,11.200759,-0.0859046,3.6677492,3.156873,1.9206007,-1.6397897
1.862,11.098247,-0.10346365,3.739547,3.109801,1.8149998,-1.6221354
1.864,10.996775,-0.11981058,3.8154533,3.0623653,1.7118859,-1.6041331
1.866,10.89639,-0.1350627,3.8954017,3.014801,1.6115685,-1.585555
1.868,10.797251,-0.14916277,3.979062,2.9673262,1.5143418,-1.566189
1.87,10.6994295,-0.1621356,4.0663185,2.920139,1.42044,-1.545878
1.872,10.603213,-0.17409182,4.156738,2.8734097,1.3300968,-1.5245125
1.874,10.508365,-0.1849575,4.2499957,2.8272936,1.2434874,-1.5020261
1.876,10.41501,-0.19471169,4.3457537,2.781935,1.1607631,-1.4783711
1.878,10.323464,-0.20350194,4.4435625,2.7374508,1.0820035,-1.4535428
1.88,10.233747,-0.21128535,4.5430636,2.6939027,1.0072356,-1.4275616
1.882,10.145742,-0.2180326,4.6438036,2.6513057,0.9364117,-1.4004666
1.884,10.059484,-0.22371554,4.7454453,2.609659,0.8694183,-1.372295
1.886,9.974838,-0.2283616,4.8474655,2.5689406,0.8060969,-1.3431096
1.888,9.892091,-0.23209429,4.9494,2.5291173,0.7462516,-1.3129902
1.89,9.811084,-0.23500013,5.05097,2.4901495,0.68964994,-1.2820387
1.892,9.731907,-0.23699927,5.1517506,2.451972,0.63606805,-1.2503364
1.894,9.654492,-0.23832655,5.251502,2.4145374,0.5852564,-1.217969
1.896,9.5789795,-0.23891664,5.349869,2.377782,0.53697354,-1.1850371
1.898,9.50535,-0.2390275,5.4465714,2.341662,0.49099857,-1.151645
1.9,9.433412,-0.23857546,5.5413313,2.3061292,0.44712138,-1.1178911
1.902,9.363115,-0.2376213,5.634029,2.2711585,0.40517232,-1.0838665
1.904,9.294506,-0.23632884,5.724553,2.2367215,0.3650136,-1.0496502
1.906,9.2275915,-0.23468852,5.812757,2.202791,0.32652324,-1.0153102
1.908,9.162296,-0.23282814,5.898551,2.1693544,0.2896107,-0.98089767
1.91,9.098601,-0.23085546,5.981839,2.1364143,0.2542243,-0.9464608
1.912,9.036401,-0.22875476,6.062546,2.103964,0.22033912,-0.91202044
1.914,8.975614,-0.22663307,6.1407976,2.0719905,0.18791363,-0.8775953
1.916,8.916287,-0.22449279,6.2163653,2.040476,0.15692717,-0.84319454
1.918,8.858404,-0.22246337,6.289438,2.0094006,0.12735704,-0.8088327
1.92,8.801885,-0.22051215,6.359992,1.9787356,0.09918608,-0.7745364
1.922,8.746691,-0.21868467,6.428014,1.9484544,0.07238051,-0.74032867
1.924,8.692766,-0.21706724,6.493532,1.9185311,0.046911016,-0.7062282
1.926,8.639953,-0.21573496,6.5566325,1.8889263,0.022719294,-0.67225564
1.928,8.588322,-0.21474218,6.617348,1.8596083,-0.00023840368,-0.63843894
1.93,8.5378065,-0.21414423,6.6757226,1.8305464,-0.02200681,-0.60481995
1.932,8.488305,-0.21396041,6.731822,1.8016999,-0.04262814,-0.5714281
1.934,8.439947,-0.2142272,6.785854,1.773018,-0.062138572,-0.53829944
1.936,8.392418,-0.21488547,6.8378053,1.744469,-0.080559015,-0.505482
1.938,8.345803,-0.21609569,6.8877115,1.7160109,-0.09789437,-0.47302437
1.94,8.300082,-0.21789646,6.9358726,1.68759,-0.1141523,-0.44097078
1.942,8.255054,-0.2203238,6.9823008,1.6591667,-0.12931338,-0.40934813
1.944,8.210793,-0.22336793,7.02711,1.6307113,-0.14333421,-0.37818563
1.946,8.16729,-0.22696209,7.070394,1.6022198,-0.15618438,-0.34751558
1.948,8.12433,-0.23125434,7.112378,1.5736967,-0.1678083,-0.31733724
1.95,8.082073,-0.23629951,7.1529675,1.5451708,-0.17812638,-0.28762597
1.952,8.040234,-0.24194717,7.1923475,1.5166736,-0.18708125,-0.258357
1.954,7.998983,-0.24835873,7.2306,1.4882568,-0.1945962,-0.22948468
1.956,7.958268,-0.25536418,7.267802,1.4599705,-0.20061098,-0.20094481
1.958,7.9179087,-0.262985,7.303944,1.4318566,-0.20506395,-0.17266563
1.96,7.877999,-0.2711277,7.3390102,1.4039443,-0.20790601,-0.14458533
1.962,7.8385496,-0.27969956,7.373186,1.3762344,-0.20910986,-0.11664664
1.964,7.799489,-0.2886603,7.4062977,1.3487115,-0.20866176,-0.088794775
1.966,7.7608695,-0.29796576,7.438455,1.3213431,-0.20656663,-0.06099686
1.968,7.7225876,-0.30749512,7.469638,1.2940649,-0.20283213,-0.03322326
1.97,7.6847553,-0.3171656,7.499718,1.2668198,-0.19750625,-0.005480854
1.972,7.647332,-0.32679915,7.5287457,1.239534,-0.19064842,0.022208108
1.974,7.610287,-0.33647943,7.5566854,1.2121319,-0.18233508,0.04979995
1.976,7.5736923,-0.34601164,7.583411,1.1845529,-0.17262727,0.07722385
1.978,7.5376477,-0.3553114,7.609012,1.1567421,-0.16161041,0.104412004
1.98,7.501973,-0.3643632,7.6333613,1.1286788,-0.14936727,0.13127415
1.982,7.4667926,-0.37301183,7.6565933,1.1003482,-0.13597576,0.15772869
1.984,7.432105,-0.3811667,7.678636,1.0717397,-0.121515885,0.18370566
1.986,7.3980503,-0.38884926,7.699489,1.0428563,-0.10606277,0.20914057
1.988,7.364552,-0.3959403,7.719247,1.0137061,-0.08967969,0.2340058
1.99,7.33169,-0.40245223,7.737966,0.98429567,-0.0724265,0.25828725
1.992,7.299516,-0.40834594,7.7556386,0.95463234,-0.05436489,0.28199086
1.994,7.2680893,-0.41352844,7.772386,0.92470753,-0.035536066,0.3051358
1.996,7.2375336,-0.41809678,7.7882457,0.8945164,-0.01598978,0.32775795
1.998,7.207702,-0.42189813,7.803254,0.8640316,0.0042312443,0.34990406
2,7.1787944,-0.4249227,7.817526,0.833224,0.025089651,0.3716169
2.002,7.1508365,-0.42731786,7.831144,0.8020583,0.04656121,0.3929242
2.004,7.1237564,-0.42887282,7.844141,0.77049756,0.068611294,0.41385365
2.006,7.0975885,-0.42959857,7.856566,0.7385164,0.091239795,0.43443093
2.008,7.0723867,-0.42941284,7.8685217,0.7060772,0.11442624,0.45466536
2.01,7.0481553,-0.4284711,7.8801146,0.6731507,0.13816524,0.47455555
2.012,7.0248356,-0.4266336,7.8912735,0.63972247,0.16244861,0.4940947
2.014,7.002487,-0.42385054,7.9020543,0.6057819,0.18727776,0.5132846
2.016,6.980958,-0.42014885,7.9124546,0.5713268,0.21265498,0.5321209
2.018,6.9602075,-0.41543293,7.922379,0.5363573,0.23857403,0.5505976
2.02,6.9402037,-0.40960264,7.931874,0.5008817,0.2650496,0.56872207
2.022,6.9207897,-0.40263653,7.940957,0.46492487,0.29208001,0.5864765
2.024,6.9019575,-0.3943863,7.949429,0.42849785,0.31968927,0.6038782
2.026,6.883444,-0.38483286,7.957363,0.391636,0.3479039,0.6209481
2.028,6.8651032,-0.37388778,7.9646215,0.35434234,0.37674809,0.6376997
2.03,6.846769,-0.36137533,7.9710493,0.3166315,0.40622526,0.6541653
2.032,6.8282514,-0.34719896,7.9766216,0.27850494,0.43635696,0.67038476
2.034,6.8092465,-0.3311131,7.9810762,0.23994204,0.46714488,0.68642396
2.036,6.78955,-0.31306267,7.9843173,0.20091237,0.49856552,0.7023526
2.038,6.76896,-0.2928307,7.986302,0.16137435,0.53058577,0.7182294
2.04,6.7470493,-0.2702086,7.9867444,0.1212976,0.56314725,0.7341345
2.042,6.723612,-0.24508929,7.9856296,0.08064149,0.59616435,0.75013006
2.044,6.6981673,-0.21721697,7.9827175,0.039360687,0.62954175,0.76629174
2.046,6.6706967,-0.18660927,7.97794,-0.0025722831,0.66317546,0.7826754
2.048,6.6406355,-0.15291834,7.9711895,-0.045152307,0.6969271,0.7993263
2.05,6.6078916,-0.11604047,7.9624033,-0.08838695,0.7306501,0.81625634
2.052,6.5721426,-0.0758903,7.95143,-0.13224563,0.7642098,0.8334669
2.054,6.5330973,-0.03228712,7.9381866,-0.17671035,0.79745996,0.85094965
2.056,6.490473,0.014762878,7.9226866,-0.22174752,0.83024436,0.86867446
2.058,6.4441905,0.06538391,7.904896,-0.2673326,0.86241794,0.8866003
2.06,6.394011,0.119659185,7.884879,-0.31345826,0.8938327,0.9046899
2.062,6.340021,0.17743063,7.862616,-0.36010808,0.9243665,0.9228981
2.064,6.2818365,0.23884845,7.8382187,-0.40728927,0.9539058,0.9411887
2.066,6.2195687,0.30373478,7.8118234,-0.4550218,0.98235506,0.9595257
2.068,6.1533327,0.3721068,7.783586,-0.5033316,1.0096219,0.97787786
2.07,6.0830584,0.44372344,7.753605,-0.5522541,1.0356407,0.99621964
2.072,6.008856,0.51855326,7.722044,-0.60183513,1.0603682,1.0145254
2.074,5.931065,0.5964153,7.6892166,-0.65212786,1.0837529,1.0327523
2.076,5.84975,0.67717266,7.6551747,-0.7031832,1.1057779,1.0508693
2.078,5.76527,0.76048875,7.6201935,-0.7550533,1.126419,1.0688124
2.08,5.677876,0.84618473,7.584384,-0.80778474,1.1456462,1.0865023
2.082,5.587885,0.93394685,7.5481133,-0.86139053,1.1634575,1.1038457
2.084,5.495627,1.0236199,7.511643,-0.91589594,1.179858,1.1207176
2.086,5.4015436,1.114739,7.475254,-0.9713019,1.194855,1.1369909
2.088,5.3059883,1.206883,7.439084,-1.0275728,1.208469,1.152519
2.09,5.2096057,1.29983,7.403425,-1.084664,1.2207568,1.1671627
2.092,5.1127324,1.3931031,7.36846,-1.1425279,1.2317777,1.1807889
2.094,5.0160666,1.486285,7.334463,-1.2011,1.2416158,1.1932602
2.096,4.9198523,1.5791733,7.301743,-1.2602998,1.2503649,1.2044752
2.098,4.824658,1.6712241,7.2704716,-1.3200479,1.2581214,1.2143433
2.1,4.7310567,1.7620518,7.240863,-1.380291,1.2649732,1.2228189
2.102,4.639559,1.8514049,7.213154,-1.4409636,1.2710117,1.2299002
2.104,4.550656,1.9387398,7.187571,-1.5020113,1.2763146,1.2356344
2.106,4.4647403,2.0240126,7.1643133,-1.563397,1.28094,1.2401272
2.108,4.382405,2.1068046,7.1436777,-1.625076,1.2849318,1.2435124
2.11,4.3041034,2.1869109,7.125746,-1.6870036,1.2883009,1.2459788
2.112,4.2302094,2.2641633,7.1106014,-1.7491307,1.2910966,1.2477345
2.114,4.161266,2.3381917,7.098489,-1.811418,1.2933722,1.24896
2.116,4.0976233,2.4089437,7.0894966,-1.8738579,1.2951729,1.2498395
2.118,4.039586,2.4762723,7.0837307,-1.936414,1.296555,1.2505238
2.12,3.9875584,2.540196,7.0812674,-1.9990523,1.297626,1.2511232
2.122,3.9417882,2.600489,7.082144,-2.0617225,1.2985288,1.2516714
2.124,3.9025416,2.6572168,7.0864673,-2.1243608,1.2994331,1.2521439
2.126,3.8700058,2.7103505,7.094262,-2.1868956,1.300521,1.2524506
2.128,3.8444982,2.759915,7.105465,-2.2492492,1.3019905,1.2524486
2.13,3.8260171,2.8059626,7.120037,-2.3113344,1.3040533,1.2519561
2.132,3.8147018,2.8485444,7.137989,-2.3730497,1.3069146,1.2507982
2.134,3.810428,2.8879046,7.1592636,-2.4343097,1.3107791,1.2488153
2.136,3.8133883,2.9241724,7.1837196,-2.4950194,1.31584,1.245895
2.138,3.8235455,2.9576936,7.2112823,-2.55508,1.3222651,1.2420017
2.14,3.840759,2.9886463,7.241769,-2.614389,1.3302143,1.2371742
2.142,3.864925,3.017342,7.275025,-2.6728683,1.3398458,1.2315588
2.144,3.8960223,3.04408,7.3110113,-2.73041,1.3513038,1.2253839
2.146,3.933706,3.0694036,7.349393,-2.7869115,1.3647443,1.2189375
2.148,3.977899,3.0936067,7.389924,-2.8422973,1.3803096,1.2125481
2.15,4.02839,3.1171415,7.432417,-2.8964913,1.3981738,1.2065463
2.152,4.0847282,3.1406326,7.4765806,-2.9494193,1.4185352,1.2012312
2.154,4.146806,3.1645195,7.522094,-3.0010133,1.4415798,1.1968441
2.156,4.214096,3.1893897,7.568761,-3.0512557,1.4674985,1.1935421
2.158,4.2863836,3.2156744,7.616151,-3.1001334,1.4964569,1.1914022
2.16,4.363145,3.243896,7.6639166,-3.1476398,1.528607,1.1904062
2.162,4.4440565,3.2746458,7.711816,-3.1938004,1.564087,1.1904795
2.164,4.5287237,3.30837,7.759522,-3.2386477,1.6029999,1.1914775
2.166,4.616591,3.3455505,7.806613,-3.2822134,1.6453701,1.1932342
2.168,4.707281,3.3865843,7.8528185,-3.3245199,1.6912081,1.1955858
2.17,4.800292,3.4319193,7.8977585,-3.3655858,1.7404919,1.1983426
2.172,4.895088,3.4819016,7.9411283,-3.4054604,1.7931547,1.2013315
2.174,4.991165,3.536751,7.9826975,-3.4441864,1.8490703,1.2044075
2.176,5.088127,3.5967484,8.022049,-3.4818082,1.9081066,1.2074691
2.178,5.1852703,3.6621063,8.058989,-3.5183825,1.9701216,1.2104449
2.18,5.28226,3.7330122,8.093323,-3.553935,2.0349553,1.2132914
2.182,5.3785076,3.809548,8.124784,-3.5884955,2.1024394,1.2160052
2.184,5.4734526,3.891727,8.153147,-3.622095,2.1723967,1.2186007
2.186,5.5666256,3.9796743,8.178326,-3.6547532,2.2446845,1.221081
2.188,5.657589,4.0733232,8.2001505,-3.686459,2.3191466,1.2234626
2.19,5.745804,4.172521,8.218591,-3.717186,2.3956413,1.2257385
2.192,5.831031,4.277255,8.233326,-3.7469068,2.4740577,1.2278879
2.194,5.91279,4.387312,8.24441,-3.7755778,2.5542943,1.2298603
2.196,5.9905634,4.5025997,8.251685,-3.8031344,2.6362612,1.231581
2.198,6.064108,4.623004,8.255144,-3.8295283,2.7198863,1.2329493
2.2,6.133154,4.7481065,8.254687,-3.8546972,2.8051138,1.233856
2.202,6.1974473,4.8778906,8.250169,-3.8785841,2.8919156,1.234213
2.204,6.2566333,5.012088,8.24163,-3.9011364,2.98025,1.2339376
2.206,6.310754,5.1503296,8.2288,-3.9223223,3.0700812,1.2329934
2.208,6.3597193,5.292578,8.211681,-3.942106,3.1614084,1.2313745
2.21,6.4032207,5.4385757,8.190041,-3.9604633,3.2542224,1.2291126
2.212,6.441224,5.5881834,8.163824,-3.977378,3.348522,1.2263198
2.214,6.4738197,5.741251,8.132691,-3.992844,3.4442894,1.2231449
2.216,6.501027,5.8975825,8.0965185,-4.0068636,3.5415242,1.2197909
2.218,6.522826,6.0570827,8.0549555,-4.0194426,3.640202,1.2164763
2.22,6.539222,6.2196035,8.00778,-4.030621,3.7402854,1.2134681
2.222,6.5504894,6.385222,7.954772,-4.040455,3.8417137,1.2110212
2.224,6.5566206,6.5538807,7.895554,-4.0490117,3.9444,1.2093713
2.226,6.55764,6.725398,7.8299055,-4.056375,4.0482373,1.2087215
2.228,6.5538583,6.899845,7.7574697,-4.0626683,4.1530647,1.2092035
2.23,6.5452337,7.0770836,7.6779404,-4.068025,4.258685,1.210887
2.232,6.531928,7.2570715,7.591076,-4.072591,4.364871,1.2137768
2.234,6.5140724,7.4397025,7.4965296,-4.0765142,4.4713764,1.2177975
2.236,6.491846,7.62483,7.394107,-4.0799375,4.5779276,1.2228091
2.238,6.4653263,7.8123927,7.2836065,-4.08301,4.684215,1.2285998
2.24,6.4346237,8.002181,7.164838,-4.085845,4.7898846,1.2349273
2.242,6.3999515,8.194076,7.03757,-4.088584,4.8946,1.2415333
2.244,6.361471,8.387612,6.901705,-4.091337,4.9979753,1.2481759
2.246,6.319227,8.582705,6.757357,-4.0942125,5.0996165,1.2546277
2.248,6.273266,8.778978,6.604368,-4.097314,5.1991262,1.2607145
2.25,6.223927,8.976023,6.4428897,-4.1007566,5.2960997,1.2663392
2.252,6.1713543,9.173566,6.2729917,-4.104641,5.3901253,1.2714642
2.254,6.1157274,9.371148,6.094722,-4.1090894,5.4808106,1.276124
2.256,6.057433,9.568308,5.908367,-4.1142235,5.5677967,1.280381
2.258,5.996545,9.76461,5.7140813,-4.1201673,5.650735,1.2843444
2.26,5.9334683,9.959564,5.512184,-4.127043,5.729314,1.2881231
2.262,5.868618,10.152636,5.3029404,-4.1349697,5.8032594,1.291838
2.264,5.802188,10.343296,5.0867605,-4.1440506,5.8723197,1.2955819
2.266,5.734556,10.531033,4.8640003,-4.1544003,5.9362583,1.2993704
2.268,5.666139,10.715281,4.635162,-4.166114,5.994871,1.3032129
2.27,5.5973253,10.89544,4.400733,-4.179279,6.047951,1.3070551
2.272,5.5287004,11.070887,4.161124,-4.1939654,6.095295,1.310805
2.274,5.460471,11.241018,3.9168673,-4.2102256,6.1366973,1.3143204
2.276,5.393159,11.40524,3.6685567,-4.2281027,6.171961,1.3174471
2.278,5.327215,11.562974,3.4166465,-4.247621,6.2008886,1.3200104
2.28,5.2629514,11.7135315,3.1618075,-4.268804,6.223292,1.3218108
2.282,5.2008433,11.856302,2.9046068,-4.291651,6.2390184,1.3226466
2.284,5.141378,11.990663,2.645578,-4.316152,6.2479234,1.3223188
2.286,5.084681,12.115988,2.3854556,-4.3422704,6.249888,1.3206015
2.288,5.03122,12.231792,2.1247435,-4.3699784,6.244844,1.3172903
2.29,4.9812775,12.337532,1.8639913,-4.39922,6.232751,1.3121822
2.292,4.9350195,12.432732,1.6037984,-4.4299197,6.2136064,1.3051105
2.294,4.892589,12.516998,1.3448915,-4.4619994,6.1874547,1.2959101
2.296,4.8543115,12.589916,1.087728,-4.495335,6.154368,1.2844679
2.298,4.8201103,12.651193,0.83281994,-4.5297785,6.11448,1.2706914
2.3,4.7901306,12.700611,0.58063555,-4.565159,6.0679526,1.2545552
2.302,4.7643213,12.737903,0.33147192,-4.601253,6.014979,1.236068
2.304,4.7426476,12.7630825,0.08571005,-4.6378293,5.9558234,1.2152853
2.306,4.7251167,12.776068,-0.156353,-4.674634,5.8907933,1.1923158
2.308,4.7113867,12.77682,-0.39440393,-4.71138,5.820214,1.1672904
2.31,4.701322,12.765535,-0.62831163,-4.7477937,5.7444553,1.1403759
2.312,4.6946244,12.74233,-0.85805225,-4.7835793,5.6639295,1.111742
2.314,4.6909957,12.707498,-1.0835915,-4.8184824,5.579055,1.0815647
2.316,4.6899776,12.661368,-1.3049524,-4.8522573,5.490246,1.0500103
2.318,4.6911435,12.60427,-1.5221524,-4.884673,5.397923,1.0172362
2.32,4.6942134,12.536544,-1.7353692,-4.9155173,5.3024783,0.9834113
2.322,4.698714,12.458556,-1.944708,-4.9445996,5.204275,0.9486772
2.324,4.704098,12.370813,-2.1502664,-4.971742,5.1036406,0.91317034
2.326,4.7097707,12.27395,-2.352219,-4.9967804,5.0008836,0.87702537
2.328,4.715373,12.168303,-2.5507445,-5.019564,4.8962574,0.84037185
2.33,4.7202063,12.054609,-2.7459135,-5.0399446,4.7899623,0.80333436
2.332,4.7237105,11.933213,-2.9377751,-5.057766,4.6821947,0.7660489
2.334,4.7253594,11.804696,-3.1263516,-5.0728602,4.5730886,0.7286254
2.336,4.7247386,11.669689,-3.3116097,-5.0850883,4.462774,0.6911621
2.338,4.721156,11.528673,-3.4934068,-5.094321,4.35135,0.6537312
2.34,4.7142,11.38219,-3.6715293,-5.100437,4.23891,0.61637807
2.342,4.7034025,11.23082,-3.8456123,-5.1033587,4.1255198,0.5791458
2.344,4.6883087,11.07503,-4.0152984,-5.1030145,4.0112653,0.5420716
2.346,4.668556,10.915318,-4.1800685,-5.0993695,3.8962352,0.50519276
2.348,4.6438084,10.752196,-4.3392935,-5.0924015,3.7805142,0.46858752
2.35,4.6138515,10.586117,-4.4924545,-5.0821104,3.6641874,0.432364
2.352,4.57827,10.417535,-4.638719,-5.068509,3.5473406,0.3966918
2.354,4.5370083,10.246989,-4.7773724,-5.0516047,3.4300838,0.36179268
2.356,4.4899006,10.074854,-4.90773,-5.031425,3.3125334,0.32793212
2.358,4.436882,9.90146,-5.0288334,-5.0079722,3.194792,0.2953987
2.36,4.377941,9.727403,-5.1399603,-4.981271,3.0769966,0.2645154
2.362,4.313032,9.553094,-5.240353,-4.951338,2.9593277,0.23560047
2.364,4.2421856,9.378844,-5.329242,-4.9181833,2.8419747,0.20895076
2.366,4.165514,9.205098,-5.405927,-4.881838,2.7251625,0.18482316
2.368,4.0832825,9.032311,-5.469834,-4.84231,2.609157,0.16340983
2.37,3.9956324,8.860934,-5.520506,-4.7996235,2.4942534,0.14485002
2.372,3.9028034,8.691253,-5.5576005,-4.753791,2.380774,0.1292367
2.374,3.8050988,8.523642,-5.580916,-4.7048078,2.2690692,0.116612196
2.376,3.7027788,8.358515,-5.590322,-4.652688,2.1594982,0.106984735
2.378,3.596146,8.196191,-5.5858593,-4.5974245,2.052423,0.10034454
2.38,3.485649,8.036963,-5.5677485,-4.5390186,1.9481953,0.09664309
2.382,3.3714044,7.8811736,-5.536337,-4.4774733,1.847177,0.09583259
2.384,3.2539368,7.7291336,-5.492069,-4.4128003,1.7497438,0.097857356
2.386,3.1336956,7.5811205,-5.4356704,-4.345025,1.6562395,0.10265684
2.388,3.010915,7.437416,-5.3679028,-4.274187,1.5670192,0.11019528
2.39,2.886022,7.298217,-5.289753,-4.2003183,1.4824291,0.12042785
2.392,2.759532,7.163671,-5.2022977,-4.12346,1.4027977,0.13330162
2.394,2.6316888,7.033914,-5.1066227,-4.043657,1.3284423,0.14874578
2.396,2.503017,6.909113,-5.004077,-3.9609299,1.2596624,0.16665399
2.398,2.3738675,6.7892056,-4.8958893,-3.8753226,1.1967198,0.18689835
2.4,2.244608,6.6741943,-4.783402,-3.7868443,1.1398461,0.20931125
2.402,2.1156423,6.563959,-4.6679773,-3.6955206,1.0892388,0.23368382
2.404,1.9874793,6.4583945,-4.551257,-3.6013572,1.0450699,0.2597674
2.406,1.8602401,6.3573318,-4.4344177,-3.5043697,1.0074809,0.28727615
2.408,1.734451,6.2604213,-4.3188586,-3.4045677,0.9765816,0.3159032
2.41,1.6103519,6.1674705,-4.2058883,-3.3019598,0.9524705,0.34533226
2.412,1.4883051,6.0780845,-4.096549,-3.1965888,0.93524075,0.37523383
2.414,1.3686855,5.9918375,-3.992033,-3.0885143,0.9249591,0.40526104
2.416,1.2516297,5.908314,-3.8932338,-2.9778209,0.9216657,0.4350825
2.418,1.1376281,5.8271246,-3.8012872,-2.8646157,0.9254047,0.46438205
2.42,1.0268221,5.747841,-3.7167978,-2.7490563,0.93616664,0.4928952
2.422,0.9197384,5.66999,-3.6404712,-2.6313298,0.95392853,0.5204279
2.424,0.8165368,5.5931225,-3.5729425,-2.5116735,0.9786068,0.5468508
2.426,0.7175267,5.516849,-3.514701,-2.3903606,1.0100697,0.57212096
2.428,0.6229112,5.440849,-3.4662695,-2.2677138,1.0481337,0.59628683
2.43,0.5328443,5.3648815,-3.4277997,-2.1440682,1.0925233,0.61947614
2.432,0.44751978,5.28866,-3.3996866,-2.019806,1.1429174,0.64190125
2.434,0.3671553,5.212039,-3.3821023,-1.8953333,1.1989455,0.6638127
2.436,0.2920184,5.134634,-3.3751018,-1.7710633,1.2601839,0.685458
2.438,0.22210848,5.0566077,-3.3786979,-1.6474392,1.3261422,0.7070777
2.44,0.1576519,4.977745,-3.3930092,-1.5248919,1.3963361,0.7288617
2.442,0.09859133,4.898149,-3.4179516,-1.4038349,1.4702575,0.7509327
2.444,0.045022964,4.8178606,-3.453407,-1.2846589,1.5474123,0.7733302
2.446,-0.003247261,4.736946,-3.4993072,-1.1677272,1.6273392,0.7960142
2.448,-0.0461874,4.6554413,-3.5554492,-1.0533501,1.7095853,0.8188792
2.45,-0.08391011,4.5735283,-3.6216655,-0.94179815,1.7937627,0.84173876
2.452,-0.11667085,4.4912853,-3.6977158,-0.83325267,1.8795319,0.8643788
2.454,-0.14459419,4.408773,-3.7833757,-0.72784597,1.9666138,0.88654125
2.456,-0.16784632,4.3261156,-3.8783686,-0.62563396,2.0547762,0.90795374
2.458,-0.18667436,4.243306,-3.982406,-0.5266026,2.1438246,0.9283544
2.46,-0.20128024,4.1604753,-4.0950403,-0.4306879,2.2335842,0.94749904
2.462,-0.2118026,4.0775313,-4.21597,-0.33778697,2.3239167,0.96513605
2.464,-0.21857953,3.9944994,-4.344751,-0.24775451,2.4147055,0.98104656
2.466,-0.22178483,3.9113631,-4.4809837,-0.16041785,2.5058436,0.9950392
2.468,-0.22156906,3.8281093,-4.6242332,-0.07561554,2.5972214,1.0069388
2.47,-0.21827865,3.7445023,-4.7740474,0.0067947507,2.6887064,1.0165666
2.472,-0.21202493,3.6603909,-4.929812,0.08692476,2.78011,1.023763
2.474,-0.2029953,3.5758414,-5.0910506,0.16486083,2.8712099,1.0283742
2.476,-0.19133162,3.4904947,-5.2571783,0.24062766,2.9617062,1.0302796
2.478,-0.17721081,3.4043064,-5.427594,0.31419963,3.0512302,1.0293883
2.48,-0.16073823,3.317099,-5.601641,0.38549274,3.1393518,1.0256695
2.482,-0.14203358,3.2287812,-5.778637,0.45437852,3.2255714,1.0191505
2.484,-0.1212554,3.1393087,-5.957925,0.5206795,3.3093617,1.0099534
2.486,-0.09839511,3.048505,-6.1388617,0.5841933,3.3901632,0.998245
2.488,-0.0735898,2.9564097,-6.3206596,0.6447035,3.4674218,0.9842716
2.49,-0.046957016,2.8629782,-6.502617,0.70197743,3.5406184,0.96833086
2.492,-0.018363237,2.7682495,-6.684127,0.75579834,3.6092842,0.95074064
2.494,0.012015581,2.6721523,-6.864476,0.8059711,3.6730409,0.93183583
2.496,0.04413867,2.5748212,-7.0429916,0.8523512,3.7315824,0.91192776
2.498,0.07805109,2.4762058,-7.219146,0.8948301,3.784698,0.89129907
2.5,0.11371446,2.3764875,-7.3923817,0.93336004,3.83227,0.8701793
2.502,0.1509211,2.275828,-7.562253,0.9679546,3.874271,0.8487308
2.504,0.18973923,2.1742995,-7.728334,0.99868023,3.9107256,0.82705283
2.506,0.23003459,2.0720525,-7.8901587,1.0256416,3.9417028,0.80515456
2.508,0.27180076,1.969161,-8.047527,1.0489831,3.9673278,0.78301024
2.51,0.31489372,1.8658044,-8.20023,1.0688831,3.987718,0.7605378
2.512,0.35934043,1.7621487,-8.348132,1.0855248,4.0029974,0.73759866
2.514,0.4049034,1.6583548,-8.490937,1.099107,4.013255,0.7140373
2.516,0.45159125,1.5545022,-8.628832,1.1098201,4.0185413,0.6896981
2.518,0.4992001,1.4509125,-8.76173,1.1178197,4.0188622,0.6644242
2.52,0.5476804,1.3475432,-8.889718,1.123249,4.0141788,0.63807315
2.522,0.5967343,1.2446355,-9.013047,1.1262287,4.0044208,0.61055946
2.524,0.6461415,1.14241,-9.131739,1.1268601,3.9895015,0.5818378
2.526,0.6957035,1.0410941,-9.246061,1.1252089,3.9693215,0.5519227
2.528,0.7451806,0.9408537,-9.356147,1.1213315,3.9437876,0.5208844
2.53,0.7943635,0.8419188,-9.462183,1.11527,3.912826,0.48884326
2.532,0.842958,0.7445171,-9.564331,1.1070584,3.8763833,0.45598155
2.534,0.89074993,0.64904416,-9.6627655,1.0967265,3.8344326,0.4225062
2.536,0.9375577,0.5557779,-9.757524,1.0843129,3.7869985,0.38868093
2.538,0.9831586,0.4649526,-9.848705,1.0698711,3.734145,0.35476542
2.54,1.027401,0.37689978,-9.93637,1.0534673,3.6759589,0.32104933
2.542,1.0701408,0.29196447,-10.0205,1.0351715,3.6125607,0.28779846
2.544,1.1110792,0.21049702,-10.101173,1.0150769,3.544108,0.25525355
2.546,1.1500487,0.13290387,-10.178229,0.99329257,3.4707768,0.22362435
2.548,1.1869979,0.05948782,-10.251715,0.96993494,3.3927493,0.19306445
2.55,1.2218561,-0.009599924,-10.321379,0.9451351,3.3102329,0.16368318
2.552,1.2545152,-0.07395893,-10.387137,0.9190562,3.2234552,0.13552248
2.554,1.2848577,-0.13349116,-10.448845,0.8918654,3.1326528,0.10858297
2.556,1.3129601,-0.18804544,-10.506334,0.8637351,3.0380852,0.082821846
2.558,1.3387766,-0.23748422,-10.559365,0.8348646,2.94004,0.05817622
2.56,1.3621483,-0.28170693,-10.607799,0.80546975,2.8388252,0.034551322
2.562,1.3830719,-0.32064945,-10.651373,0.7757833,2.7347436,0.011847496
2.564,1.4013515,-0.35437465,-10.689884,0.7460104,2.628141,-0.010032713
2.566,1.4169817,-0.3828628,-10.723118,0.7163762,2.5193443,-0.03116247
2.568,1.430027,-0.406253,-10.750866,0.68707895,2.4086692,-0.051585734
2.57,1.4403343,-0.42472133,-10.772974,0.65829533,2.2964346,-0.07131845
2.572,1.4479208,-0.4384025,-10.789217,0.63019276,2.1829236,-0.09034911
2.574,1.4527626,-0.44752008,-10.7993965,0.6028956,2.06842,-0.108630836
2.576,1.4547715,-0.4522097,-10.803346,0.5765193,1.9531975,-0.12609977
2.578,1.4539857,-0.4527858,-10.800985,0.55116117,1.8375279,-0.14267775
2.58,1.4503446,-0.44944718,-10.792061,0.52691114,1.7216831,-0.15829143
2.582,1.4438949,-0.44248012,-10.77671,0.5038593,1.6059589,-0.1728845
2.584,1.4345899,-0.4322025,-10.754793,0.48211107,1.490664,-0.1864124
2.586,1.4225025,-0.41883337,-10.726351,0.4617834,1.3761376,-0.19884962
2.588,1.4076667,-0.4027064,-10.691379,0.443015,1.2627194,-0.21020615
2.59,1.3901606,-0.38415414,-10.649998,0.42593774,1.1507329,-0.22052847
2.592,1.3699999,-0.36337915,-10.602338,0.41069812,1.0405011,-0.22987603
2.594,1.3473306,-0.34061444,-10.548481,0.3974323,0.9323107,-0.2383394
2.596,1.3221898,-0.31622782,-10.4886675,0.3862638,0.826384,-0.2459957
2.598,1.2946124,-0.29034084,-10.423195,0.37729466,0.7229025,-0.25293252
2.6,1.2646999,-0.26319885,-10.35232,0.37057897,0.621987,-0.25921416
2.602,1.2324147,-0.23493993,-10.276236,0.36614135,0.5236935,-0.26488444
2.604,1.198062,-0.20576775,-10.19524,0.36396807,0.42803437,-0.2699469
2.606,1.1615419,-0.17567343,-10.109684,0.364005,0.33495694,-0.27435738
2.608,1.1229191,-0.14465058,-10.019864,0.36617485,0.24437511,-0.27803728
2.61,1.0823741,-0.11269739,-9.926061,0.3703801,0.15616545,-0.28085762
2.612,1.0399747,-0.07980299,-9.828489,0.3764947,0.07018382,-0.28264165
2.614,0.995914,-0.045776308,-9.727548,0.38439718,-0.013724396,-0.283178
2.616,0.9502735,-0.010619909,-9.623587,0.393948,-0.09572281,-0.282225
2.618,0.90319777,0.02591461,-9.516703,0.40504143,-0.17597023,-0.27954662
2.62,0.854836,0.06393936,-9.407253,0.4175674,-0.25460643,-0.27491227
2.622,0.8053112,0.10359371,-9.295434,0.431428,-0.33173716,-0.2681419
2.624,0.75490046,0.14496091,-9.181477,0.44656184,-0.4074604,-0.25908852
2.626,0.7036853,0.1881333,-9.0654335,0.4629146,-0.4818103,-0.24770224
2.628,0.6518941,0.23320058,-8.947512,0.4804871,-0.5547761,-0.23400564
2.63,0.5999136,0.28014448,-8.827843,0.4993012,-0.6263029,-0.21811137
2.632,0.5478239,0.32885993,-8.706362,0.5194099,-0.6962721,-0.20022303
2.634,0.49604654,0.37930638,-8.583354,0.5409036,-0.76455307,-0.18063165
2.636,0.4447236,0.431345,-8.458809,0.56390333,-0.8309698,-0.15968625
2.638,0.3940544,0.4847396,-8.332777,0.588541,-0.8953407,-0.13778248
2.64,0.34425855,0.53937733,-8.205399,0.6149758,-0.9574739,-0.115329325
2.642,0.29550147,0.594898,-8.076669,0.6433589,-1.0171915,-0.09269965
2.644,0.24812531,0.6511219,-7.9467955,0.67384464,-1.0743433,-0.0702281
2.646,0.20206928,0.7077826,-7.8157845,0.7065457,-1.1288326,-0.048161834
2.648,0.15762806,0.7647244,-7.6838245,0.7415555,-1.1805878,-0.026636481
2.65,0.11483884,0.82169837,-7.551011,0.77892244,-1.2295724,-0.005699247
2.652,0.07379222,0.8785514,-7.417419,0.81864655,-1.2758021,0.014726758
2.654,0.034704924,0.9351388,-7.283023,0.8607013,-1.3193039,0.034795195
2.656,-0.0023186207,0.9913184,-7.148157,0.9050054,-1.3601336,0.05474034
2.658,-0.037255764,1.0470221,-7.01274,0.9514491,-1.3983337,0.07482579
2.66,-0.07007837,1.1024662,-6.877038,0.99990505,-1.4339551,0.09532514
2.662,-0.10068846,1.1576319,-6.7411356,1.0502443,-1.4670286,0.11650407
2.664,-0.12886715,1.2126422,-6.6051083,1.1023147,-1.4975777,0.13857454
2.666,-0.15471625,1.2677487,-6.4689474,1.1559956,-1.5256246,0.16168684
2.668,-0.17830992,1.3231239,-6.333028,1.2111596,-1.551177,0.18592757
2.67,-0.19937348,1.3789415,-6.1972365,1.2677116,-1.57424,0.21131063
2.672,-0.21782994,1.4353722,-6.0618434,1.3255612,-1.5948136,0.23780686
2.674,-0.23361802,1.4927524,-5.9267607,1.3846347,-1.6128997,0.26531368
2.676,-0.24673462,1.551244,-5.792227,1.4448774,-1.6285291,0.29370552
2.678,-0.25712276,1.6110184,-5.6582603,1.5062416,-1.6417309,0.3228171
2.68,-0.26471066,1.6722658,-5.5249634,1.5686783,-1.6525637,0.35249102
2.682,-0.26955557,1.7351856,-5.392454,1.6321268,-1.6611271,0.38254493
2.684,-0.27167034,1.7998068,-5.2608013,1.6965181,-1.6675364,0.4128195
2.686,-0.27089882,1.8661425,-5.1301303,1.7617903,-1.6719415,0.4431739
2.688,-0.26729894,1.9343024,-5.000444,1.8278625,-1.674491,0.47349024
2.69,-0.26086974,2.0042887,-4.872004,1.8946438,-1.6753716,0.5036686
2.692,-0.2516265,2.0760577,-4.744704,1.9620469,-1.6747631,0.533627
2.694,-0.239568,2.1495726,-4.618655,2.0299816,-1.6728406,0.5633171
2.696,-0.22495794,2.2247584,-4.493969,2.0983667,-1.6697683,0.59268826
2.698,-0.20779943,2.3014147,-4.370762,2.167119,-1.6657,0.6217249
2.7,-0.18819511,2.379599,-4.249101,2.2361698,-1.6607454,0.6503969
2.702,-0.16621244,2.4590118,-4.1290097,2.3054624,-1.6550162,0.6786861
2.704,-0.14202249,2.5396106,-4.0106764,2.3749568,-1.6486042,0.7065688
2.706,-0.115820885,2.6213288,-3.8940842,2.4446054,-1.6415838,0.73400503
2.708,-0.0875268,2.7039387,-3.7792137,2.51437,-1.6340342,0.7609678
2.71,-0.05749488,2.78742,-3.6662467,2.584209,-1.6260463,0.787403
2.712,-0.02561009,2.8715248,-3.5550904,2.6540842,-1.6177288,0.8132406
2.714,0.007742524,2.9563966,-3.4460468,2.7239282,-1.6091968,0.8384029
2.716,0.042476892,3.0417104,-3.3389697,2.793667,-1.600594,0.8628044
2.718,0.07854545,3.1275444,-3.2339578,2.8632126,-1.5920862,0.8863789
2.72,0.11567426,3.2138045,-3.1309667,2.9324489,-1.5838542,0.90905595
2.722,0.15379465,3.3004403,-3.030085,3.0012386,-1.5760814,0.9307778
2.724,0.19271171,3.3873408,-2.9313092,3.0694194,-1.5689782,0.9515128
2.726,0.23237324,3.4746423,-2.834509,3.1368127,-1.5627635,0.9712421
2.728,0.27254337,3.5622668,-2.7397423,3.2032268,-1.557645,0.98999906
2.73,0.31313765,3.6502533,-2.6467733,3.2684653,-1.5538019,1.0078331
2.732,0.35412645,3.7386618,-2.5556262,3.3323226,-1.5514156,1.024804
2.734,0.3954183,3.8274307,-2.4661999,3.3946173,-1.5506457,1.0409797
2.736,0.4368961,3.9166584,-2.3783371,3.455181,-1.5515995,1.0564468
2.738,0.47841257,4.006258,-2.2917967,3.5138755,-1.5543828,1.0712737
2.74,0.5198141,4.0963154,-2.2064958,3.5705657,-1.5590712,1.0855039
2.742,0.56130975,4.1868234,-2.1223195,3.6251569,-1.5657059,1.0991813
2.744,0.6026476,4.277667,-2.039055,3.677592,-1.5743113,1.112302
2.746,0.6437598,4.368773,-1.9564533,3.7278295,-1.5849067,1.1248634
2.748,0.68461984,4.460058,-1.8743396,3.7758567,-1.5974953,1.1368284
2.75,0.7251657,4.5514193,-1.792567,3.821673,-1.612056,1.1481466
2.752,0.7653238,4.642763,-1.7109122,3.8653188,-1.6285644,1.1587456
2.754,0.8048812,4.7338333,-1.6292478,3.906828,-1.6469972,1.1685563
2.756,0.8440428,4.824525,-1.5473455,3.9462547,-1.6673123,1.1774794
2.758,0.8825525,4.9145207,-1.4650133,3.983643,-1.6894677,1.1854259
2.76,0.92041785,5.0037518,-1.3821609,4.019048,-1.7134105,1.1923054
2.762,0.9575132,5.0919228,-1.2986292,4.05252,-1.7390808,1.1980209
2.764,0.993675,5.178912,-1.2143192,4.0841155,-1.766407,1.2024766
2.766,1.0289447,5.2645063,-1.129092,4.1138663,-1.7953249,1.2056111
2.768,1.063208,5.348416,-1.0428714,4.141815,-1.8257549,1.2073628
2.77,1.0964743,5.430538,-0.9555103,4.167981,-1.8576251,1.2076952
2.772,1.1286693,5.5106263,-0.86685276,4.192383,-1.8908565,1.2065935
2.774,1.1596199,5.588605,-0.77693075,4.2150254,-1.9253685,1.2040884
2.776,1.1893473,5.664259,-0.68566847,4.2359076,-1.9610865,1.2002184
2.778,1.2178909,5.7375965,-0.5929491,4.255022,-1.9979218,1.1950555
2.78,1.245105,5.8085384,-0.49885714,4.2723513,-2.0357857,1.1886895
2.782,1.2709991,5.877157,-0.40326947,4.287874,-2.0746102,1.1812124
2.784,1.2956063,5.943403,-0.3062485,4.3015623,-2.114328,1.1727357
2.786,1.3188882,6.0073223,-0.2076894,4.3133874,-2.1548686,1.1633841
2.788,1.3407807,6.068991,-0.107709706,4.323346,-2.1961854,1.1532868
2.79,1.3613845,6.1284146,-0.0063045025,4.3314,-2.2382379,1.1425486
2.792,1.3808709,6.185707,0.096652865,4.3375387,-2.2809973,1.1312886
2.794,1.3990893,6.2409916,0.20103586,4.341756,-2.324431,1.1196284
2.796,1.4160697,6.29434,0.3068807,4.3440385,-2.3685477,1.1076577
2.798,1.4317981,6.345858,0.41421092,4.344377,-2.413334,1.0954736
2.8,1.4462733,6.3955903,0.5229839,4.342767,-2.4587843,1.0831406
2.802,1.4595752,6.443563,0.6330645,4.33921,-2.5048895,1.0706906
2.804,1.4715674,6.489824,0.7445513,4.3337193,-2.551635,1.0581518
2.806,1.482418,6.534395,0.85738635,4.3263235,-2.5990047,1.0455185
2.808,1.4920127,6.5773287,0.97157466,4.317057,-2.6469662,1.0327302
2.81,1.5003946,6.618372,1.0870457,4.3059716,-2.6954741,1.0197358
2.812,1.5075179,6.657676,1.203734,4.2931685,-2.744475,1.0064572
2.814,1.5132748,6.6949515,1.3216035,4.2787485,-2.7939034,0.99279284
2.816,1.5177356,6.7301526,1.4406048,4.2628264,-2.8436854,0.97864914
2.818,1.5207245,6.7632875,1.5606387,4.245511,-2.8937254,0.96394885
2.82,1.5223057,6.7939806,1.6816429,4.2269306,-2.943934,0.9486325
2.822,1.5223007,6.8222675,1.8034921,4.207183,-2.9942095,0.93267024
2.824,1.5208614,6.847966,1.9262727,4.186368,-3.0444484,0.9160726
2.826,1.5178431,6.870971,2.0497017,4.164552,-3.0945349,0.8988881
2.828,1.5131887,6.8911257,2.1737485,4.141797,-3.1443708,0.8812032
2.83,1.506954,6.9083834,2.2982094,4.1181374,-3.1938548,0.86313105
2.832,1.4992371,6.9227967,2.4230947,4.093581,-3.2429042,0.8448098
2.834,1.4898999,6.9342937,2.5482287,4.068124,-3.2914343,0.8263886
2.836,1.4790485,6.9427333,2.6734781,4.04175,-3.3393745,0.8080108
2.838,1.4666803,6.948164,2.7987463,4.0144553,-3.3866723,0.7898197
2.84,1.452882,6.950598,2.923954,3.986228,-3.4332724,0.77193236
2.842,1.4375916,6.9501247,3.0489354,3.957058,-3.4791203,0.75444007
2.844,1.4208331,6.946842,3.1736608,3.9269547,-3.5241761,0.73740196
2.846,1.402807,6.940667,3.2979474,3.895951,-3.5683846,0.7208545
2.848,1.3835194,6.9318056,3.4217062,3.8640945,-3.6117015,0.7047837
2.85,1.3630517,6.920341,3.5448956,3.8314428,-3.6540637,0.6891618
2.852,1.3414204,6.9062924,3.6674056,3.7980711,-3.6954203,0.6739385
2.854,1.318655,6.8899145,3.7892294,3.7640517,-3.7357016,0.6590617
2.856,1.2950785,6.8713264,3.9102764,3.7294655,-3.7748435,0.6444912
2.858,1.2706299,6.8507357,4.0304356,3.6943858,-3.81278,0.63017535
2.86,1.2454553,6.82815,4.1497345,3.658864,-3.84944,0.6161182
2.862,1.2197213,6.8038383,4.2681265,3.6229634,-3.8847585,0.60234404
2.864,1.1935687,6.777974,4.3856087,3.586708,-3.9186697,0.5888965
2.866,1.1670396,6.7506647,4.502081,3.5501103,-3.9511058,0.57584834
2.868,1.1403077,6.7222595,4.617549,3.5131931,-3.981997,0.563303
2.87,1.1134715,6.692841,4.732052,3.4759755,-4.011282,0.5513623
2.872,1.0868001,6.662526,4.8456244,3.4384844,-4.0389,0.5401337
2.874,1.0602472,6.631563,4.958165,3.4007628,-4.0647836,0.5296805
2.876,1.0338376,6.6000643,5.069827,3.362875,-4.0888824,0.52004266
2.878,1.0078723,6.5682526,5.1805663,3.3248823,-4.111135,0.51122713
2.88,0.98245764,6.536186,5.2903595,3.2868826,-4.131499,0.5031934
2.882,0.95769596,6.504028,5.399256,3.248986,-4.1499352,0.495867
2.884,0.93371797,6.471942,5.5073586,3.2113035,-4.1664066,0.489141
2.886,0.91056824,6.440071,5.6145926,3.173961,-4.1809006,0.48288727
2.888,0.88837385,6.4084105,5.721004,3.1370595,-4.1934032,0.4769919
2.89,0.8672104,6.377142,5.8266935,3.1006958,-4.2039127,0.47134566
2.892,0.84711945,6.346477,5.9315853,3.0649233,-4.212425,0.46587157
2.894,0.82817304,6.3164263,6.0357423,3.0297804,-4.218956,0.46053767
2.896,0.8104396,6.287106,6.1391816,2.9952598,-4.2235107,0.45536375
2.898,0.7940985,6.2586575,6.241952,2.961327,-4.2260933,0.45042777
2.9,0.77910304,6.231173,6.3440757,2.9279115,-4.226713,0.4458239
2.902,0.7655878,6.204645,6.445403,2.8949132,-4.225374,0.44171286
2.904,0.7536353,6.179129,6.546088,2.8622346,-4.2220755,0.43825316
2.906,0.7431536,6.154582,6.6461806,2.8297665,-4.2168207,0.43559694
2.908,0.7342198,6.130945,6.7454925,2.7974296,-4.2096205,0.43386722
2.91,0.7269515,6.108106,6.844215,2.7651453,-4.200493,0.43315363
2.912,0.7211492,6.0859323,6.9423466,2.7328908,-4.18944,0.4334731
2.914,0.71694076,6.0642304,7.039708,2.7006786,-4.1764803,0.4347651
2.916,0.71420634,6.042663,7.1363826,2.6685498,-4.1616497,0.43690634
2.918,0.7129185,6.0209713,7.2323494,2.6365929,-4.1449766,0.43969297
2.92,0.7129427,6.0009484,7.325136,2.604925,-4.1265,0.44286323
2.922,0.7141956,5.980642,7.4165707,2.573676,-4.1062393,0.4461217
2.924,0.71664715,5.959855,7.506506,2.5429971,-4.0842175,0.4491527
2.926,0.72009397,5.9382753,7.5947437,2.5130086,-4.0604715,0.45164585
2.928,0.7243867,5.9154944,7.6811314,2.4838324,-4.035014,0.4533428
2.93,0.72946846,5.8914747,7.7655697,2.4555686,-4.0078487,0.4540236
2.932,0.7351767,5.865825,7.8478127,2.428286,-3.9789636,0.45354104
2.934,0.7413219,5.838383,7.927684,2.4020195,-3.9483454,0.4518149
2.936,0.7478684,5.8090982,8.005076,2.3767698,-3.9159577,0.4488387
2.938,0.7546363,5.777867,8.079841,2.3525121,-3.881764,0.4446782
2.94,0.7614863,5.74468,8.151818,2.329209,-3.8457232,0.4394437
2.942,0.7682194,5.7095294,8.220865,2.3067977,-3.807788,0.4332863
2.944,0.774912,5.672615,8.286959,2.2852085,-3.7679193,0.4263885
2.946,0.78138727,5.6341295,8.350017,2.2643719,-3.726099,0.41892552
2.948,0.7876866,5.5942774,8.410004,2.2448254,-3.684287,0.41134155
2.95,0.7936675,5.553246,8.466824,2.2262096,-3.6416583,0.40367687
2.952,0.79939944,5.5112963,8.520617,2.2085714,-3.5986707,0.3961084
2.954,0.8048237,5.468702,8.571363,2.1919749,-3.5558472,0.3888079
2.956,0.80993044,5.425828,8.619193,2.1764905,-3.51375,0.38189566
2.958,0.8147306,5.3828325,8.664115,2.162175,-3.4729338,0.37546718
2.96,0.81920236,5.3399553,8.706305,2.1490624,-3.4338977,0.36958265
2.962,0.82332575,5.2975297,8.745832,2.1371613,-3.3970482,0.36427093
2.964,0.8273124,5.255596,8.7828865,2.126461,-3.3626704,0.35952616
2.966,0.8309127,5.2143803,8.817513,2.116895,-3.3309367,0.35532868
2.968,0.83429724,5.1739964,8.849936,2.1083984,-3.3018923,0.35164082
2.97,0.83742017,5.134625,8.880214,2.1008792,-3.2754755,0.34840775
