Time_s_,Acc_x_m_s_2_,Acc_y_m_s_2_,Acc_z_m_s_2_,Gyro_x_1_s_,Gyro_y_1_s_,Gyro_z_1_s_
0,-1.8312196,-3.7692826,-3.151884,1.1693532,0.9228898,-1.7176723
0.002,-1.8350601,-3.8278549,-3.0532084,1.134511,0.8671232,-1.7167345
0.004,-1.8431672,-3.88739,-2.9475045,1.0956786,0.8041508,-1.714884
0.006,-1.856422,-3.9475431,-2.8347466,1.0525744,0.73326784,-1.711735
0.008,-1.8753163,-4.0078645,-2.714926,1.0049803,0.6539597,-1.7068248
0.01,-1.9003317,-4.0679655,-2.588298,0.9527936,0.5659143,-1.6996784
0.012,-1.9326751,-4.1271343,-2.4546099,0.8960444,0.46906155,-1.6897756
0.014,-1.9729223,-4.184411,-2.3141656,0.8348936,0.3636322,-1.6765907
0.016,-2.0214047,-4.239162,-2.1672883,0.76957893,0.2500397,-1.659629
0.018,-2.0785472,-4.2903633,-2.014388,0.70040536,0.12881017,-1.638418
0.02,-2.1445744,-4.3370337,-1.8561947,0.6277868,0.0006723404,-1.6126077
0.022,-2.2199378,-4.377997,-1.6935123,0.5521531,-0.13357925,-1.5820397
0.024,-2.305788,-4.411784,-1.5264406,0.4738834,-0.2732098,-1.5467635
0.026,-2.4026875,-4.4370522,-1.3554217,0.39329243,-0.417566,-1.507052
0.028,-2.5106719,-4.452957,-1.1812247,0.30879846,-0.5690799,-1.4630435
0.03,-2.6296344,-4.458775,-1.0048636,0.22311285,-0.7230799,-1.4157903
0.032,-2.7592583,-4.4535995,-0.8276111,0.136205,-0.8791841,-1.3661349
0.034,-2.8991554,-4.436516,-0.65103436,0.048100203,-1.0367947,-1.3150413
0.036,-3.0488598,-4.4065523,-0.47656798,-0.041088082,-1.1950343,-1.2635832
0.038,-3.2076218,-4.3628535,-0.3058684,-0.13116658,-1.3527751,-1.2129147
0.04,-3.3744864,-4.3047,-0.14087415,-0.22182432,-1.5086775,-1.1643351
0.042,-3.5487556,-4.231146,0.016692877,-0.31266606,-1.6612856,-1.1191847
0.044,-3.7310696,-4.1409626,0.1663866,-0.40324014,-1.8091346,-1.0787886
0.046,-3.9215279,-4.03345,0.3080449,-0.4930257,-1.9507828,-1.0443673
0.048,-4.11892,-3.9086478,0.4418199,-0.58156747,-2.085067,-1.0169977
0.05,-4.3217063,-3.766984,0.5671272,-0.6685507,-2.2112646,-0.99747574
0.052,-4.529457,-3.608245,0.68295264,-0.7537679,-2.3290434,-0.9862411
0.054,-4.741912,-3.43216,0.7881131,-0.8371551,-2.4384785,-0.98338133
0.056,-4.9603825,-3.2388084,0.88518476,-0.9187492,-2.5400267,-0.9886086
0.058,-5.1818705,-3.027789,0.97002053,-0.99868083,-2.6344423,-1.0013053
0.06,-5.404726,-2.7997842,1.0419725,-1.0771743,-2.722638,-1.0205868
0.062,-5.6272473,-2.5557122,1.1009709,-1.1544769,-2.8056142,-1.0453391
0.064,-5.8507876,-2.2945032,1.1481075,-1.230814,-2.8843305,-1.0743293
0.066,-6.0780096,-2.015018,1.1834105,-1.3063456,-2.9595788,-1.1064136
0.068,-6.3079896,-1.7176855,1.2061894,-1.3811277,-3.0319273,-1.140597
0.07,-6.539779,-1.40371,1.2161617,-1.4550377,-3.1015668,-1.17611
0.072,-6.774138,-1.0734353,1.2133812,-1.5278796,-3.1684,-1.212404
0.074,-7.0105696,-0.72760355,1.1971014,-1.5994053,-3.2321637,-1.2490919
0.076,-7.2493644,-0.36657917,1.1678212,-1.6692134,-3.2923226,-1.2859702
0.078,-7.490974,0.009080291,1.1268557,-1.7367829,-3.348165,-1.3229965
0.08,-7.734195,0.3978566,1.0743378,-1.8015927,-3.3988743,-1.360131
0.082,-7.977907,0.79776686,1.0102004,-1.8631611,-3.4436023,-1.3972764
0.084,-8.221651,1.2067964,0.93447626,-1.9210589,-3.4815784,-1.434411
0.086,-8.464531,1.6230203,0.84664714,-1.9749125,-3.5121737,-1.471708
0.088,-8.70511,2.0440693,0.7458246,-2.0244005,-3.5348072,-1.5095229
0.09,-8.942176,2.4674504,0.6313063,-2.0692518,-3.548992,-1.5483103
0.092,-9.174408,2.8904243,0.5027496,-2.1092923,-3.55445,-1.5886254
0.094,-9.400578,3.31057,0.35965788,-2.1443691,-3.5508947,-1.6310825
0.096,-9.619883,3.7254438,0.2020027,-2.1742463,-3.5378652,-1.6764405
0.098,-9.830758,4.1325827,0.029401183,-2.1987352,-3.5152864,-1.7256179
0.1,-10.03158,4.5293865,-0.15825629,-2.2177577,-3.483564,-1.7794333
0.102,-10.221231,4.9133167,-0.3607998,-2.2313063,-3.4433444,-1.8383298
0.104,-10.398542,5.2822647,-0.57778525,-2.23954,-3.395735,-1.9025016
0.106,-10.562613,5.634072,-0.80859995,-2.2427905,-3.3424194,-1.9719625
0.108,-10.712897,5.967496,-1.0522604,-2.2415123,-3.2855031,-2.04662
0.11,-10.848859,6.281419,-1.3075192,-2.2363453,-3.2275114,-2.1262393
0.112,-10.970131,6.574904,-1.5725198,-2.2280626,-3.171289,-2.2105217
0.114,-11.076754,6.847533,-1.8448472,-2.2174287,-3.1196468,-2.29916
0.116,-11.168491,7.0991044,-2.121572,-2.205164,-3.0751548,-2.391806
0.118,-11.245913,7.3295774,-2.4004722,-2.191938,-3.0399866,-2.488069
0.12,-11.308596,7.5390472,-2.679593,-2.178318,-3.0157738,-2.5875068
0.122,-11.355865,7.7279406,-2.9564958,-2.1647751,-3.0035086,-2.6896186
0.124,-11.388733,7.8969555,-3.2276425,-2.151706,-3.00354,-2.793803
0.126,-11.409108,8.047234,-3.4899375,-2.1394012,-3.0156355,-2.8994105
0.128,-11.416137,8.178882,-3.739779,-2.1281474,-3.039122,-3.0057569
0.13,-11.408812,8.291786,-3.9733016,-2.118244,-3.0730615,-3.1121006
0.132,-11.387449,8.386677,-4.1874404,-2.1099896,-3.1163254,-3.2177665
0.134,-11.352872,8.464661,-4.379875,-2.103633,-3.167849,-3.3222468
0.136,-11.304699,8.526491,-4.549914,-2.0994108,-3.2266812,-3.42516
0.138,-11.241883,8.57272,-4.695692,-2.0975518,-3.2920558,-3.5261514
0.14,-11.1654005,8.604247,-4.8147244,-2.0982802,-3.3633654,-3.6248062
0.142,-11.076248,8.621669,-4.904976,-2.1017697,-3.440216,-3.7207332
0.144,-10.974803,8.625163,-4.965138,-2.1081648,-3.5224252,-3.8136394
0.146,-10.861172,8.614552,-4.9947834,-2.1175027,-3.609782,-3.9033163
0.148,-10.736022,8.589798,-4.9940085,-2.129803,-3.70219,-3.9894857
0.15,-10.600136,8.55074,-4.9631205,-2.1451757,-3.7998228,-4.0717387
0.152,-10.4541025,8.497103,-4.9027514,-2.163608,-3.9025483,-4.149624
0.154,-10.297634,8.428517,-4.8147483,-2.1849947,-4.0099945,-4.2228456
0.156,-10.131462,8.345045,-4.7012415,-2.2092896,-4.1219783,-4.2913437
0.158,-9.95761,8.247385,-4.5643935,-2.2364252,-4.238283,-4.3551483
0.16,-9.777834,8.13582,-4.4054265,-2.266331,-4.358553,-4.414259
0.162,-9.592506,8.00981,-4.22542,-2.2989507,-4.4823585,-4.468557
0.164,-9.40199,7.8686647,-4.025422,-2.3342097,-4.609064,-4.518006
0.166,-9.207161,7.7118526,-3.8069277,-2.3719063,-4.7377844,-4.5627356
0.168,-9.008858,7.5392056,-3.5716262,-2.41185,-4.8676624,-4.6029153
0.17,-8.808163,7.350599,-3.3213172,-2.4538546,-4.9977574,-4.6387296
0.172,-8.605483,7.145701,-3.0590806,-2.4976964,-5.1268864,-4.670283
0.174,-8.397628,6.922517,-2.7888439,-2.5431821,-5.253792,-4.697582
0.176,-8.182026,6.679571,-2.5129802,-2.5901413,-5.3772855,-4.7205987
0.178,-7.9597282,6.4171534,-2.233247,-2.63842,-5.496314,-4.739236
0.18,-7.7310877,6.1358824,-1.9520867,-2.6878657,-5.610039,-4.7533092
0.182,-7.4954877,5.83596,-1.6721921,-2.7383204,-5.717951,-4.7625847
0.184,-7.252433,5.517275,-1.3957701,-2.789641,-5.8199263,-4.766826
0.186,-7.0009737,5.1794252,-1.125947,-2.841702,-5.9162674,-4.765829
0.188,-6.7407475,4.822684,-0.8657987,-2.8943522,-6.007617,-4.759455
0.19,-6.4720125,4.447845,-0.6170006,-2.94745,-6.0950146,-4.7476597
0.192,-6.1949134,4.055841,-0.3812778,-3.0008628,-6.1797805,-4.7304006
0.194,-5.9100103,3.6478999,-0.15994477,-3.054497,-6.2634883,-4.707585
0.196,-5.618067,3.2252567,0.04592681,-3.1083345,-6.347838,-4.679044
0.198,-5.3200183,2.7892938,0.23569798,-3.1624172,-6.4345403,-4.64448
0.2,-5.017497,2.3417351,0.40847588,-3.216908,-6.5253353,-4.603437
0.202,-4.712051,1.884676,0.563223,-3.2720377,-6.6218476,-4.5553374
0.204,-4.405999,1.4201407,0.6991824,-3.3280022,-6.7253985,-4.4994373
0.206,-4.101626,0.95050704,0.81599164,-3.3850107,-6.837059,-4.4348383
0.208,-3.8012793,0.4782402,0.91350156,-3.443174,-6.9576797,-4.3605905
0.21,-3.5073295,0.00577271,0.99266773,-3.5024428,-7.0877714,-4.2757683
0.212,-3.2228088,-0.46431297,1.0548033,-3.5626707,-7.227465,-4.1795497
0.214,-2.9506016,-0.92939985,1.1009818,-3.6235757,-7.3765693,-4.0713496
0.216,-2.693659,-1.3866265,1.1322464,-3.6847904,-7.534742,-3.950874
0.218,-2.4546833,-1.833169,1.14957,-3.7458448,-7.7014966,-3.817956
0.22,-2.235809,-2.266134,1.1521474,-3.806293,-7.876294,-3.6725197
0.222,-2.03863,-2.6826756,1.1403706,-3.865671,-8.05863,-3.514709
0.224,-1.8647959,-3.0799737,1.115284,-3.9235563,-8.248212,-3.3447576
0.226,-1.7157235,-3.4558735,1.0783128,-3.9796376,-8.445105,-3.1630147
0.228,-1.5921077,-3.8081408,1.0313411,-4.033685,-8.649603,-2.969921
0.23,-1.4950054,-4.1345053,0.9753073,-4.0855455,-8.862117,-2.7659855
0.232,-1.4238614,-4.4332933,0.9098048,-4.135146,-9.083183,-2.551809
0.234,-1.376812,-4.703185,0.8345162,-4.182481,-9.313374,-2.3280876
0.236,-1.3516346,-4.942742,0.75095695,-4.227554,-9.553164,-2.0955968
0.238,-1.3484612,-5.1502047,0.6604433,-4.2703195,-9.802859,-1.8551766
0.24,-1.3667524,-5.3243036,0.56322443,-4.310649,-10.062458,-1.6077652
0.242,-1.4034932,-5.4649496,0.45980984,-4.3483553,-10.331668,-1.3543277
0.244,-1.4543564,-5.571707,0.35049254,-4.3831863,-10.609991,-1.0958235
0.246,-1.5181141,-5.643669,0.23616493,-4.414816,-10.896709,-0.8331878
0.248,-1.5935167,-5.6798186,0.11720294,-4.4427767,-11.19082,-0.56736106
0.25,-1.6774157,-5.6798186,-0.0063414276,-4.4664917,-11.491133,-0.29918754
0.252,-1.7673818,-5.643446,-0.1343835,-4.485316,-11.796358,-0.029481232
0.254,-1.861749,-5.570299,-0.2662049,-4.498487,-12.10499,0.24091753
0.256,-1.9598078,-5.459456,-0.40129852,-4.5051994,-12.415262,0.5112139
0.258,-2.0601456,-5.310838,-0.53932506,-4.5046716,-12.725223,0.7806951
0.26,-2.1619952,-5.1242094,-0.679782,-4.496104,-13.0326805,1.0486846
0.262,-2.2658153,-4.8988667,-0.82261646,-4.478786,-13.335365,1.3145815
0.264,-2.3718107,-4.6346693,-0.96781534,-4.4521594,-13.631018,1.577826
0.266,-2.4805126,-4.331858,-1.1148245,-4.4158607,-13.917461,1.8379507
0.268,-2.593952,-3.9901195,-1.2628905,-4.369706,-14.192598,2.0945365
0.27,-2.71435,-3.6089628,-1.4116969,-4.3136826,-14.454525,2.3472393
0.272,-2.844016,-3.1885092,-1.5612909,-4.2479606,-14.701569,2.595789
0.274,-2.9859827,-2.728558,-1.7120594,-4.1727467,-14.932058,2.8398795
0.276,-3.14308,-2.229063,-1.8647572,-4.088331,-15.144571,3.0791836
0.278,-3.3183424,-1.6902303,-2.019708,-3.9950628,-15.337845,3.3133078
0.28,-3.51517,-1.1124108,-2.17667,-3.8932142,-15.510498,3.541888
0.282,-3.7370408,-0.4963833,-2.3350487,-3.7829714,-15.661041,3.7645164
0.284,-3.9870028,0.15676522,-2.4941666,-3.664455,-15.787954,3.980776
0.286,-4.267951,0.8456471,-2.6533742,-3.537716,-15.8897085,4.1901894
0.288,-4.582147,1.5684472,-2.8122454,-3.4028049,-15.964876,4.3922935
0.29,-4.93157,2.3229394,-2.9709682,-3.2598453,-16.012354,4.5867
0.292,-5.3174667,3.1065607,-3.1295707,-3.1090426,-16.031387,4.773012
0.294,-5.740635,3.916818,-3.2879744,-2.9507818,-16.021824,4.9508586
0.296,-6.2011557,4.750653,-3.4462016,-2.7856984,-15.984108,5.1199017
0.298,-6.6983347,5.604494,-3.6038828,-2.6145978,-15.919147,5.2798457
0.3,-7.231107,6.47461,-3.7608461,-2.4385333,-15.828305,5.430414
0.302,-7.797076,7.3567743,-3.916683,-2.2587972,-15.713403,5.571389
0.304,-8.392994,8.246328,-4.0710726,-2.0768175,-15.576355,5.702604
0.306,-9.015312,9.138735,-4.223538,-1.8940601,-15.419016,5.8238397
0.308,-9.659936,10.029219,-4.3735857,-1.7120273,-15.243175,5.934834
0.31,-10.321679,10.9128,-4.5209627,-1.5321679,-15.050423,6.035097
0.312,-10.995602,11.7844095,-4.6651454,-1.3558168,-14.842064,6.1239486
0.314,-11.676015,12.639034,-4.805338,-1.1842284,-14.619152,6.2005887
0.316,-12.357573,13.471928,-4.940987,-1.0184681,-14.38249,6.26416
0.318,-13.035063,14.278706,-5.0714083,-0.8594383,-14.132723,6.3138285
0.32,-13.703211,15.055366,-5.1967425,-0.70792425,-13.87055,6.3488073
0.322,-14.356239,15.798191,-5.317104,-0.56467235,-13.596867,6.368456
0.324,-14.989499,16.504025,-5.431944,-0.43036103,-13.312651,6.3722887
0.326,-15.598249,17.170023,-5.540381,-0.30559242,-13.018978,6.3600044
0.328,-16.178581,17.793678,-5.6420074,-0.19091487,-12.717124,6.331633
0.33,-16.727718,18.37305,-5.7349415,-0.08668131,-12.408121,6.2874722
0.332,-17.243254,18.906887,-5.818891,0.0069568753,-12.092858,6.2279963
0.334,-17.72332,19.394325,-5.8947897,0.08997339,-11.772165,6.153781
0.336,-18.166786,19.835892,-5.9634833,0.16246638,-11.446665,6.065487
0.338,-18.573242,20.23235,-6.025033,0.22469434,-11.116728,5.963748
0.34,-18.943195,20.584953,-6.0789766,0.2770284,-10.782482,5.8492312
0.342,-19.27826,20.895386,-6.124916,0.31991464,-10.443905,5.7225657
0.344,-19.580462,21.165844,-6.163519,0.35388225,-10.10086,5.5843344
0.346,-19.851439,21.398407,-6.1968527,0.37938875,-9.753266,5.4352174
0.348,-20.093287,21.59579,-6.2267337,0.39688018,-9.40107,5.275965
0.35,-20.308466,21.761171,-6.2535715,0.40674716,-9.044258,5.107315
0.352,-20.499887,21.897583,-6.277795,0.40925342,-8.68304,4.9300056
0.354,-20.670675,22.00734,-6.3002973,0.40458122,-8.317754,4.7448463
0.356,-20.822832,22.09344,-6.3217864,0.39285925,-7.9487753,4.552623
0.358,-20.958975,22.158981,-6.344527,0.37410888,-7.5765886,4.354059
0.36,-21.080917,22.207035,-6.371246,0.34830374,-7.201705,4.149884
0.362,-21.189741,22.240698,-6.4043145,0.31538314,-6.824611,3.9407752
0.364,-21.28717,22.263123,-6.446139,0.27531064,-6.4457407,3.7273848
0.366,-21.37343,22.276844,-6.4989023,0.2280674,-6.0655036,3.5102763
0.368,-21.44879,22.284624,-6.5650454,0.17370039,-5.684247,3.2899237
0.37,-21.51281,22.289131,-6.646988,0.112347305,-5.3022604,3.066701
0.372,-21.563766,22.29217,-6.7468777,0.044264257,-4.9198146,2.8409176
0.374,-21.600048,22.29591,-6.8668633,-0.03016749,-4.537123,2.612772
0.376,-21.619247,22.30249,-7.0089183,-0.110419184,-4.154355,2.3823762
0.378,-21.618,22.313248,-7.1756306,-0.19579875,-3.771695,2.1497788
0.38,-21.59218,22.328777,-7.3690796,-0.28546774,-3.389343,1.9149711
0.382,-21.538387,22.3505,-7.5894723,-0.37844032,-3.0074782,1.6778514
0.384,-21.452728,22.37929,-7.8371973,-0.47363266,-2.6263134,1.4382845
0.386,-21.330608,22.41508,-8.112674,-0.5698655,-2.24608,1.1961174
0.388,-21.16812,22.458067,-8.415942,-0.66590583,-1.8669403,0.9511664
0.39,-20.960798,22.508469,-8.747338,-0.7604824,-1.4890475,0.7032435
0.392,-20.70336,22.565407,-9.107051,-0.8523538,-1.1125467,0.45217443
0.394,-20.392817,22.629234,-9.494364,-0.94030905,-0.73759454,0.19773158
0.396,-20.026009,22.699474,-9.908041,-1.0232087,-0.36432087,-0.060336202
0.398,-19.598818,22.774656,-10.347336,-1.1000448,0.0070751905,-0.3223186
0.4,-19.108347,22.854277,-10.809803,-1.1699151,0.37628537,-0.58849126
0.402,-18.552736,22.93757,-11.293083,-1.232032,0.742957,-0.8591186
0.404,-17.929628,23.02295,-11.795554,-1.2857155,1.1065865,-1.1343987
0.406,-17.237886,23.109545,-12.314563,-1.3304253,1.4664859,-1.4144253
0.408,-16.47676,23.19671,-12.84765,-1.3656796,1.8218614,-1.699222
0.41,-15.645956,23.283604,-13.392714,-1.3911366,2.171603,-1.9886862
0.412,-14.746055,23.36953,-13.947174,-1.406567,2.5143275,-2.282606
0.414,-13.777244,23.453371,-14.508425,-1.4117868,2.848595,-2.5807502
0.416,-12.740372,23.5339,-15.074108,-1.4067712,3.1727207,-2.8828673
0.418,-11.636116,23.609861,-15.64179,-1.3916355,3.4847832,-3.188702
0.42,-10.469414,23.68143,-16.212688,-1.36654,3.782925,-3.4979846
0.422,-9.241827,23.74961,-16.78277,-1.3317207,4.0652757,-3.8104198
0.424,-7.957117,23.814333,-17.348305,-1.2874479,4.3298845,-4.1257315
0.426,-6.611992,23.87366,-17.907549,-1.2340912,4.5749483,-4.443638
0.428,-5.211522,23.92863,-18.457672,-1.1720847,4.798727,-4.763743
0.43,-3.7590947,23.980413,-18.998646,-1.1018244,4.999689,-5.085656
0.432,-2.258048,24.029789,-19.528414,-1.0236254,5.1766143,-5.40904
0.434,-0.71305907,24.078127,-20.04349,-0.93781483,5.3284574,-5.7334456
0.436,0.87211645,24.12611,-20.541561,-0.84471035,5.4542565,-6.0582266
0.438,2.4950993,24.173616,-21.021282,-0.7445555,5.553302,-6.3826113
0.44,4.152125,24.22151,-21.480928,-0.63753325,5.6250963,-6.7056785
0.442,5.838089,24.271624,-21.917667,-0.5238011,5.6691866,-7.0263433
0.444,7.549155,24.325495,-22.328772,-0.40350688,5.6852183,-7.34344
0.446,9.281614,24.384233,-22.711422,-0.27679178,5.672953,-7.6557765
0.448,11.031852,24.448984,-23.062399,-0.14386043,5.6321535,-7.9622474
0.45,12.795969,24.520838,-23.377743,-0.004857281,5.5629663,-8.262012
0.452,14.569884,24.601154,-23.653442,0.13995214,5.4653754,-8.554277
0.454,16.347391,24.69197,-23.885452,0.28982466,5.3390484,-8.838582
0.456,18.128407,24.793425,-24.069803,0.44402483,5.183875,-9.114733
0.458,19.907581,24.906954,-24.202837,0.60168344,4.999957,-9.382778
0.46,21.681742,25.032991,-24.281343,0.7619007,4.787745,-9.64301
0.462,23.448004,25.171799,-24.3019,0.9234718,4.547245,-9.895685
0.464,25.203604,25.32347,-24.261496,1.0849696,4.2784224,-10.1410675
0.466,26.94639,25.487324,-24.157091,1.2449288,3.9817307,-10.379242
0.468,28.674812,25.662659,-23.98614,1.4018328,3.6577387,-10.609982
0.47,30.387249,25.848322,-23.746498,1.554241,3.3072019,-10.832877
0.472,32.082623,26.042484,-23.4366,1.7008207,2.9312723,-11.047521
0.474,33.760952,26.242638,-23.055496,1.8403159,2.531354,-11.253655
0.476,35.421677,26.446188,-22.602877,1.9716581,2.1092367,-11.451324
0.478,37.064697,26.650291,-22.07869,2.0939577,1.6672201,-11.641037
0.48,38.69044,26.851208,-21.483807,2.2065568,1.2078738,-11.8238125
0.482,40.29953,27.045155,-20.81977,2.3088644,0.7340784,-12.001167
0.484,41.892555,27.228014,-20.088354,2.4001858,0.2488842,-12.174782
0.486,43.470303,27.395641,-19.291935,2.4796982,-0.24456596,-12.346266
0.488,45.034157,27.543322,-18.432339,2.5465403,-0.7429757,-12.517162
0.49,46.584774,27.667173,-17.51171,2.5997775,-1.2428493,-12.688629
0.492,48.123543,27.762552,-16.533594,2.638435,-1.7406783,-12.861378
0.494,49.651634,27.825117,-15.501067,2.661605,-2.2329035,-13.035624
0.496,51.169353,27.851345,-14.417128,2.6685638,-2.715828,-13.211277
0.498,52.677574,27.837408,-13.28531,2.65888,-3.1856937,-13.388124
0.5,54.176727,27.77962,-12.108797,2.6324365,-3.6388144,-13.565939
0.502,55.666237,27.675575,-10.890845,2.5894759,-4.071573,-13.744612
0.504,57.146877,27.52201,-9.635478,2.5304618,-4.480875,-13.924167
0.506,58.61853,27.316765,-8.347036,2.4562242,-4.8636765,-14.1049
0.508,60.07959,27.05869,-7.029582,2.3679056,-5.217218,-14.286926
0.51,61.528866,26.74659,-5.6882668,2.2664065,-5.5396886,-14.470144
0.512,62.96547,26.379963,-4.32922,2.1525736,-5.8299437,-14.654179
0.514,64.38804,25.959167,-2.9573488,2.0271373,-6.0873785,-14.838235
0.516,65.79525,25.484901,-1.5791006,1.8909483,-6.3112807,-15.021178
0.518,67.18467,24.958612,-0.20078468,1.7448983,-6.5012712,-15.201536
0.52,68.55393,24.382227,1.1709061,1.5897365,-6.657576,-15.3776455
0.522,69.90021,23.758549,2.5286102,1.4261918,-6.780406,-15.547802
0.524,71.22008,23.090883,3.8647003,1.255023,-6.8698072,-15.710251
0.526,72.51059,22.382765,5.1715355,1.0769768,-6.925872,-15.863277
0.528,73.76784,21.63836,6.4412804,0.89282846,-6.948754,-16.005241
0.53,74.99084,20.86098,7.6689377,0.7033067,-6.9386353,-16.134537
0.532,76.1745,20.054276,8.843773,0.5090828,-6.8957777,-16.249592
0.534,77.315636,19.223743,9.956327,0.31079102,-6.820553,-16.348957
0.536,78.40557,18.376053,10.999603,0.109059334,-6.7134347,-16.431282
0.538,79.44466,17.514828,11.966772,-0.09543133,-6.574963,-16.495476
0.54,80.430565,16.644487,12.853821,-0.30200386,-6.405741,-16.540676
0.542,81.36043,15.770424,13.655437,-0.509902,-6.206423,-16.566221
0.544,82.23351,14.897438,14.365749,-0.71837234,-5.97781,-16.571709
0.546,83.04793,14.030877,14.981529,-0.9266634,-5.7208147,-16.55693
0.548,83.801285,13.176437,15.501478,-1.1340199,-5.4364815,-16.52172
0.55,84.49346,12.338502,15.92425,-1.3397431,-5.12609,-16.465937
0.552,85.12601,11.5201235,16.248318,-1.5432725,-4.7912273,-16.389267
0.554,85.70039,10.724604,16.473883,-1.7442083,-4.433831,-16.291325
0.556,86.21839,9.954966,16.602066,-1.9423485,-4.0561934,-16.171497
0.558,86.68324,9.213592,16.634594,-2.1377034,-3.6609006,-16.029041
0.56,87.09913,8.502089,16.573994,-2.3304648,-3.2507272,-15.863176
0.562,87.47087,7.821707,16.424046,-2.5209346,-2.8285975,-15.673185
0.564,87.80566,7.172252,16.189198,-2.7095098,-2.3973913,-15.458572
0.566,88.10514,6.555142,15.874989,-2.8965845,-1.9597945,-15.219171
0.568,88.37767,5.969246,15.487827,-3.082489,-1.5182247,-14.9552765
0.57,88.62961,5.4135814,15.034653,-3.2674584,-1.074759,-14.667707
0.572,88.86711,4.8866067,14.52206,-3.4516182,-0.63105893,-14.357786
0.574,89.0959,4.3865743,13.957165,-3.6349902,-0.18841384,-14.027296
0.576,89.321106,3.911737,13.346863,-3.8175573,0.25216576,-13.678432
0.578,89.54657,3.459855,12.697559,-3.9993157,0.6898581,-13.313585
0.58,89.77556,3.0287688,12.016247,-4.1803493,1.1239696,-12.935253
0.582,90.01012,2.6162624,11.309826,-4.3608766,1.5539025,-12.545968
0.584,90.25188,2.219833,10.584885,-4.5412984,1.9790177,-12.148242
0.586,90.502495,1.8366632,9.847626,-4.7221813,2.398709,-11.744504
0.588,90.76187,1.4651365,9.1036415,-4.904257,2.812442,-11.337029
0.59,91.028915,1.1039648,8.35775,-5.0883646,3.2198524,-10.927904
0.592,91.30231,0.7518873,7.614506,-5.2754207,3.620773,-10.519082
0.594,91.58029,0.40830135,6.8776016,-5.4663725,4.01538,-10.112303
0.596,91.86105,0.072919846,6.1498337,-5.662172,4.404153,-9.709096
0.598,92.14228,-0.25348377,5.4329453,-5.86376,4.7878857,-9.310809
0.6,92.42145,-0.5705929,4.727909,-6.072006,5.167609,-8.91856
0.602,92.69699,-0.8775978,4.0350533,-6.2878103,5.5444202,-8.533264
0.604,92.967636,-1.1733799,3.3546333,-6.512048,5.9195004,-8.15563
0.606,93.232346,-1.4561157,2.6866379,-6.745579,6.2939897,-7.786164
0.608,93.49042,-1.7228546,2.030243,-6.9892554,6.668853,-7.425175
0.61,93.74205,-1.9707317,1.3842201,-7.2439017,7.0448723,-7.0729
0.612,93.988,-2.196638,0.7465935,-7.510298,7.4226193,-6.729533
0.614,94.23082,-2.397581,0.11552429,-7.789098,7.80249,-6.3952727
0.616,94.474,-2.5706787,-0.50995636,-8.0808115,8.184723,-6.070351
0.618,94.721115,-2.7129421,-1.1304665,-8.385831,8.569317,-5.75509
0.62,94.9781,-2.8215294,-1.7465134,-8.704453,8.956029,-5.449978
0.622,95.25135,-2.894001,-2.3571587,-9.036916,9.344364,-5.155621
0.624,95.54697,-2.925888,-2.9629154,-9.383453,9.733528,-4.8726454
0.626,95.87283,-2.912819,-3.563219,-9.744335,10.122314,-4.6015754
0.628,96.23917,-2.8511658,-4.157032,-10.119855,10.509059,-4.3427014
0.63,96.65642,-2.734459,-4.742132,-10.510387,10.891715,-4.096021
0.632,97.13379,-2.560379,-5.3194637,-10.916368,11.267914,-3.8609865
0.634,97.683334,-2.3206596,-5.889492,-11.338278,11.635029,-3.6362624
0.636,98.31627,-2.0056152,-6.4535093,-11.776599,11.990345,-3.419751
0.638,99.03859,-1.602787,-7.0091305,-12.231683,12.331184,-3.2086995
0.64,99.85911,-1.1059914,-7.5478334,-12.703831,12.655009,-2.9996982
0.642,100.79672,-0.5079918,-8.063919,-13.193237,12.959393,-2.7888484
0.644,101.857544,0.20969391,-8.558988,-13.700088,13.242052,-2.5718827
0.646,103.051025,1.0648308,-9.046236,-14.22447,13.500866,-2.3442304
0.648,104.39206,2.0726433,-9.5382805,-14.766435,13.73394,-2.1011088
0.65,105.89717,3.2430725,-10.040203,-15.326028,13.939654,-1.8375683
0.652,107.57709,4.6003876,-10.5463,-15.903244,14.116471,-1.5484724
0.654,109.431366,6.185196,-11.045364,-16.498123,14.263054,-1.2285962
0.656,111.468994,8.025654,-11.5332775,-17.110626,14.378377,-0.8728014
0.658,113.690414,10.124256,-12.00973,-17.740534,14.461647,-0.4760282
0.66,116.1171,12.476997,-12.490013,-18.387503,14.512325,-0.033323944
0.662,118.75891,15.103874,-12.957937,-19.050835,14.530294,0.460068
0.664,121.60396,18.092438,-13.382601,-19.729357,14.516124,1.0085819
0.666,124.61963,21.476612,-13.813635,-20.421741,14.470362,1.6162276
0.668,127.851456,25.240902,-14.241516,-21.126587,14.3929405,2.2855914
0.67,131.22122,29.446201,-14.687153,-21.841818,14.284241,3.0179272
0.672,134.70457,34.1733,-15.2337,-22.563578,14.145952,3.8145766
0.674,138.32104,39.350986,-15.817955,-23.28728,13.978677,4.6758757
0.676,142.16318,44.82256,-16.523647,-24.008083,13.781967,5.6001663
0.678,146.27454,50.626183,-17.330292,-24.721634,13.553172,6.584399
0.68,150.55951,56.889706,-18.165367,-25.424149,13.286442,7.624375
0.682,155.01263,63.606712,-18.88684,-26.112228,12.97254,8.714345
0.684,159.60832,70.69568,-19.507103,-26.783142,12.597949,9.846178
0.686,164.33151,78.097946,-20.069778,-27.434187,12.145767,11.009304
0.688,169.18323,85.79816,-20.49887,-28.062498,11.593962,12.191335
0.69,174.15279,93.72899,-20.810371,-28.666569,10.913686,13.380581
0.692,179.24681,101.86938,-21.082367,-29.249653,10.067975,14.57078
0.694,184.4385,110.074776,-21.200813,-29.817469,9.014966,15.756557
0.696,189.7156,118.236725,-21.139084,-30.373745,7.7084947,16.92543
0.698,195.00412,126.26242,-20.887634,-30.913906,6.099788,18.072136
0.7,200.3056,134.03156,-20.434776,-31.421707,4.147559,19.196156
0.702,205.64807,141.41495,-19.735489,-31.87756,1.8085902,20.282948
0.704,211.00531,148.29984,-18.73035,-32.263725,-0.94957614,21.32627
0.706,216.32124,154.57762,-17.37365,-32.5708,-4.1350536,22.364248
0.708,221.4544,160.1445,-15.60614,-32.78712,-7.723563,23.406034
0.71,226.40134,164.82709,-13.34968,-32.893787,-11.67878,24.466473
0.712,231.29315,168.5526,-10.554537,-32.879196,-15.945578,25.558704
0.714,235.95488,171.27766,-7.2170534,-32.729156,-20.4525,26.689892
0.716,240.32198,172.95349,-3.3092442,-32.415775,-25.07836,27.836996
0.718,244.39066,173.49971,1.2066231,-31.94751,-29.671446,28.992546
0.72,248.07779,172.87544,6.363691,-31.388456,-34.0802,30.122227
0.722,251.30154,171.06467,12.176553,-30.807842,-38.17061,31.152695
0.724,253.99713,168.06755,18.637959,-30.269592,-41.822655,31.994415
0.726,256.0815,163.92224,25.713219,-29.842926,-44.939064,32.53304
0.728,257.47577,158.69382,33.348057,-29.579695,-47.45282,32.637146
0.73,258.1025,152.47179,41.466694,-29.493183,-49.33191,32.16955
0.732,257.8935,145.36823,49.97469,-29.549847,-50.583015,30.999905
0.734,256.78455,137.51074,58.760803,-29.671741,-51.239574,29.018394
0.736,254.72617,129.0343,67.69931,-29.747303,-51.347424,26.152401
0.738,251.68819,120.091255,76.646805,-29.6505,-50.96018,22.390062
0.74,247.65231,110.83792,85.45482,-29.258991,-50.13092,17.814325
0.742,242.63562,101.44385,93.96917,-28.47249,-48.904175,12.563961
0.744,236.67577,92.07669,102.033676,-27.231504,-47.32183,6.82078
0.746,229.84804,82.89262,109.500755,-25.522453,-45.421745,0.8265705
0.748,222.25455,74.04161,116.22162,-23.379017,-43.23926,-5.1294746
0.75,214.01436,65.66897,122.054016,-20.876837,-40.807953,-10.732605
0.752,205.24437,57.90501,126.88117,-18.119772,-38.158833,-15.682454
0.754,196.09694,50.848694,130.61247,-15.220989,-35.323692,-19.709503
0.756,186.73767,44.57985,133.1887,-12.280867,-32.321735,-22.58808
0.758,177.33789,39.161354,134.56964,-9.378766,-29.170792,-24.181839
0.76,168.06036,34.645515,134.7317,-6.570253,-25.891525,-24.470123
0.762,159.05864,31.050308,133.67247,-3.9009194,-22.505692,-23.484423
0.764,150.48907,28.346214,131.41646,-1.409275,-19.021267,-21.35963
0.766,142.4803,26.490135,128.02315,0.88497305,-15.451736,-18.311075
0.768,135.14323,25.442352,123.57512,2.9705482,-11.822563,-14.604685
0.77,128.53955,25.144047,118.18374,4.84095,-8.19804,-10.517625
0.772,122.724014,25.495022,111.94575,6.5306206,-4.652102,-6.3579593
0.774,117.74006,26.335274,104.970825,8.101988,-1.2490782,-2.3928127
0.776,113.616066,27.564377,97.44806,9.591386,1.9521239,1.1670393
0.778,110.27243,29.114563,89.49576,11.02126,4.8841763,4.151059
0.78,107.71442,30.839912,81.25821,12.420131,7.480338,6.4473724
0.782,105.851715,32.60207,72.91502,13.805689,9.685654,8.0017605
0.784,104.55296,34.42017,64.49964,15.1774845,11.462521,8.814738
0.786,103.64404,36.35616,56.189926,16.520857,12.794422,8.93781
0.788,103.029144,38.27202,48.042103,17.81209,13.678413,8.468793
0.79,102.73029,40.009964,40.08214,19.022236,14.1214485,7.540429
0.792,102.65616,41.594166,32.30968,20.120804,14.145458,6.302326
0.794,102.73815,43.113823,24.886858,21.075703,13.784628,4.9032435
0.796,102.90271,44.616302,17.964912,21.856565,13.082047,3.524417
0.798,103.07442,46.107677,11.560915,22.441359,12.092174,2.3528595
0.8,103.204956,47.64554,5.7753553,22.817019,10.872131,1.5354867
0.802,103.24353,49.23927,0.72514033,22.97979,9.476481,1.178281
0.804,103.1826,51.000298,-3.6709723,22.933823,7.9559546,1.3427472
0.806,103.004974,52.964844,-7.388401,22.687452,6.355298,2.0403256
0.808,102.74806,55.13514,-10.399411,22.253307,4.711356,3.2292004
0.81,102.37245,57.52441,-12.69586,21.650986,3.0533805,4.819444
0.812,101.834785,60.13302,-14.309309,20.906572,1.4044795,6.684594
0.814,101.15534,62.928978,-15.28233,20.050484,-0.21828318,8.675203
0.816,100.370766,65.86885,-15.643162,19.117651,-1.8022349,10.632544
0.818,99.56413,68.901146,-15.435738,18.146423,-3.3373892,12.403332
0.82,98.663414,72.027405,-14.718805,17.174875,-4.8159485,13.851876
0.822,97.51422,75.14457,-13.52433,16.235994,-6.230711,14.867836
0.824,96.2679,78.14995,-11.859032,15.357255,-7.5739303,15.379154
0.826,94.91851,80.976654,-9.776043,14.561481,-8.836284,15.363254
0.828,93.4068,83.604034,-7.346657,13.862991,-10.0075865,14.846112
0.83,91.75628,85.98696,-4.642025,13.266584,-11.07778,13.89497
0.832,89.976944,88.08174,-1.722538,12.769068,-12.038307,12.609695
0.834,88.05798,89.857765,1.3595352,12.361696,-12.881748,11.110644
0.836,86.00947,91.28026,4.559948,12.0320015,-13.603037,9.523207
0.838,83.839485,92.325386,7.8333054,11.765234,-14.200062,7.9631042
0.84,81.55907,92.98211,11.135551,11.546501,-14.672553,6.525486
0.842,79.18004,93.252235,14.422379,11.36261,-15.022408,5.2784376
0.844,76.72266,93.15083,17.650791,11.203583,-15.253518,4.262045
0.846,74.205795,92.70868,20.779377,11.06381,-15.371192,3.489657
0.848,71.64637,91.95625,23.774712,10.941444,-15.382628,2.9480233
0.85,69.0688,90.92987,26.603191,10.837574,-15.295625,2.6024137
0.852,66.48569,89.66264,29.239399,10.754934,-15.117584,2.406076
0.854,63.91163,88.18684,31.662666,10.695278,-14.855763,2.309175
0.856,61.351597,86.54153,33.85373,10.659027,-14.517519,2.2662811
0.858,58.815685,84.76015,35.80439,10.647066,-14.109822,2.2420104
0.86,56.31606,82.8723,37.512493,10.660999,-13.639594,2.2138686
0.862,53.874363,80.90222,38.97564,10.700696,-13.113616,2.1724966
0.864,51.50004,78.874664,40.19553,10.762683,-12.539383,2.1192915
0.866,49.19379,76.811874,41.175255,10.841794,-11.925415,2.0610123
0.868,46.95359,74.73045,41.919342,10.932766,-11.28056,2.0063782
0.87,44.78665,72.63709,42.434288,11.029824,-10.614181,1.9656271
0.872,42.705265,70.53787,42.7262,11.1269455,-9.93581,1.9486734
0.874,40.71037,68.45337,42.803288,11.218561,-9.254981,1.9627184
0.876,38.800865,66.40817,42.67657,11.2998085,-8.581186,2.0111427
0.878,36.978218,64.417366,42.361076,11.366593,-7.9234214,2.0933785
0.88,35.247326,62.489788,41.87321,11.415618,-7.2899284,2.205333
0.882,33.606926,60.63265,41.22813,11.444308,-6.6879687,2.340197
0.884,32.05623,58.853565,40.438267,11.450678,-6.1236234,2.4897785
0.886,30.591074,57.16474,39.519676,11.433227,-5.6017466,2.6458473
0.888,29.215908,55.578056,38.494072,11.390916,-5.1259985,2.8009756
0.89,27.940134,54.103424,37.385056,11.323059,-4.69896,2.9490814
0.892,26.769054,52.746624,36.21487,11.229217,-4.322224,3.0857143
0.894,25.695854,51.5015,35.001854,11.109184,-3.9965181,3.2081394
0.896,24.71043,50.352703,33.761494,10.963014,-3.7218647,3.3152106
0.898,23.80378,49.28663,32.509674,10.791047,-3.497659,3.4070425
0.9,22.969357,48.293125,31.261837,10.593988,-3.3227525,3.4845386
0.902,22.202204,47.36364,30.032444,10.372974,-3.195466,3.548862
0.904,21.498678,46.491127,28.834795,10.129665,-3.1136417,3.6010466
0.906,20.85546,45.670586,27.680674,9.866207,-3.0746145,3.6416628
0.908,20.269363,44.899925,26.581348,9.58526,-3.075239,3.67075
0.91,19.737415,44.178463,25.547016,9.28987,-3.1118722,3.6877992
0.912,19.257238,43.50578,24.586613,8.983427,-3.1804106,3.6918318
0.914,18.825836,42.88128,23.70784,8.669513,-3.2763824,3.6815748
0.916,18.439697,42.303574,22.917236,8.351778,-3.394998,3.6556559
0.918,18.095537,41.769306,22.220005,8.033842,-3.531322,3.6127868
0.92,17.789047,41.27336,21.62024,7.7191663,-3.6804552,3.5519483
0.922,17.515406,40.808983,21.120491,7.4108906,-3.8376713,3.472578
0.924,17.269148,40.369102,20.722143,7.111761,-3.9985604,3.3746321
0.926,17.044989,39.946606,20.425648,6.82406,-4.159187,3.2585921
0.928,16.837488,39.534916,20.230028,6.5495877,-4.3161917,3.1254978
0.93,16.641478,39.12791,20.133366,6.2896395,-4.466832,2.9768612
0.932,16.451805,38.719875,20.132675,6.044999,-4.609,2.8146431
0.934,16.26393,38.3055,20.223873,5.816018,-4.741192,2.64112
0.936,16.07322,37.87984,20.401934,5.6026998,-4.8624496,2.4587681
0.938,15.875468,37.438538,20.660862,5.404804,-4.9723244,2.2700987
0.94,15.666508,36.97755,20.993408,5.2219462,-5.0707254,2.0775342
0.942,15.442537,36.493267,21.391817,5.053726,-5.1577783,1.8832942
0.944,15.200792,35.982296,21.847767,4.8998623,-5.2336736,1.6892974
0.946,14.938651,35.44152,22.352615,4.7602024,-5.2985435,1.4970906
0.948,14.65358,34.86836,22.8977,4.634741,-5.3523655,1.3077161
0.95,14.343779,34.260532,23.473846,4.523629,-5.394835,1.1216944
0.952,14.008094,33.616016,24.071674,4.4271436,-5.425248,0.9391717
0.954,13.645679,32.933136,24.682251,4.345551,-5.442594,0.7600288
0.956,13.256101,32.21057,25.29639,4.279008,-5.445614,0.5840634
0.958,12.839783,31.447567,25.905209,4.227424,-5.432877,0.41116828
0.96,12.39739,30.643978,26.500278,4.190346,-5.402952,0.24145871
0.962,11.930358,29.800163,27.073452,4.166854,-5.354632,0.075324535
0.964,11.440443,28.917477,27.617252,4.1555467,-5.2871084,-0.08646786
0.966,10.9298725,27.997686,28.124866,4.154547,-5.2000904,-0.24279547
0.968,10.401019,27.043503,28.59034,4.161533,-5.093952,-0.39225066
0.97,9.85682,26.057959,29.008522,4.1738253,-4.9697814,-0.5332365
0.972,9.300135,25.04486,29.37513,4.1885443,-4.8293467,-0.664101
0.974,8.734671,24.008385,29.687172,4.202768,-4.675029,-0.7832916
0.976,8.1640835,22.953125,29.94254,4.2136745,-4.5096774,-0.8894849
0.978,7.591799,21.884033,30.1404,4.218706,-4.3363733,-0.98171544
0.98,7.0211906,20.80632,30.280848,4.2156224,-4.1582184,-1.0594813
0.982,6.455633,19.725506,30.364632,4.202514,-3.9781148,-1.122765
0.984,5.8984456,18.647154,30.393368,4.177851,-3.7986,-1.1720222
0.986,5.352542,17.577105,30.369123,4.1404405,-3.6216826,-1.2081339
0.988,4.820768,16.521248,30.294155,4.0894175,-3.4487784,-1.2323169
0.99,4.305679,15.485473,30.171263,4.0241833,-3.280688,-1.2460246
0.992,3.8095589,14.475458,30.003632,3.9443758,-3.1176193,-1.2507302
0.994,3.3348007,13.496535,29.794722,3.8498476,-2.959329,-1.2478185
0.996,2.8833208,12.553487,29.548155,3.74064,-2.8052015,-1.2384381
0.998,2.4567895,11.650888,29.267626,3.6169412,-2.6543512,-1.2234142
1,2.0567446,10.7928,28.956573,3.4791396,-2.5057094,-1.2031897
1.002,1.6843147,9.98282,28.618351,3.3277817,-2.3581223,-1.1778665
1.004,1.3404646,9.224201,28.256138,3.1635597,-2.2103891,-1.1472456
1.006,1.026062,8.519436,27.872662,2.987353,-2.061305,-1.1109695
1.008,0.74189377,7.8707204,27.470257,2.8002496,-1.9095671,-1.0686467
1.01,0.4882822,7.279644,27.0509,2.6035657,-1.7537953,-1.0200063
1.012,0.266016,6.7474027,26.61631,2.3988316,-1.5925537,-0.9650127
1.014,0.07522774,6.2744765,26.167957,2.1877778,-1.4243375,-0.9039303
1.016,-0.0838356,5.861105,25.707355,1.972264,-1.2476106,-0.83730423
1.018,-0.21123123,5.506786,25.23574,1.754213,-1.0609154,-0.7659898
1.02,-0.30701733,5.2106733,24.754433,1.5354884,-0.8629831,-0.6910944
1.022,-0.37124252,4.9711437,24.264534,1.3178382,-0.6528293,-0.61388266
1.024,-0.40403748,4.7861075,23.766891,1.102808,-0.4298606,-0.5357111
1.026,-0.40601778,4.6528893,23.262102,0.8916553,-0.19392508,-0.45792186
1.028,-0.37795925,4.568302,22.750801,0.6853064,0.05463317,-0.38178375
1.03,-0.32078123,4.529063,22.233263,0.484316,0.3149795,-0.30846217
1.032,-0.23526001,4.5313263,21.709837,0.28886405,0.58578616,-0.23900083
1.034,-0.12187338,4.5708094,21.180723,0.09882805,0.86532044,-0.17435917
1.036,0.018461704,4.643202,20.645863,-0.086147815,1.1515148,-0.11550027
1.038,0.18489695,4.7440486,20.104912,-0.26663753,1.4419966,-0.06342554
1.04,0.37626982,4.8687353,19.557522,-0.4433621,1.7341669,-0.019199073
1.042,0.5913358,5.012909,19.003334,-0.6171859,2.0252686,0.016099334
1.044,0.8286948,5.172176,18.44214,-0.7890459,2.3124347,0.04140997
1.046,1.0868845,5.3425484,17.87424,-0.95993537,2.592758,0.05577445
1.048,1.3643832,5.520244,17.300041,-1.1308444,2.863377,0.05840814
1.05,1.6597219,5.7019253,16.720465,-1.3027266,3.1215096,0.048783064
1.052,1.9712584,5.884516,16.136364,-1.4764688,3.3645413,0.026700974
1.054,2.2970157,6.06566,15.548821,-1.652815,3.5901165,-0.007663369
1.056,2.6350868,6.2431364,14.958767,-1.8323166,3.796246,-0.053746223
1.058,2.9839206,6.415107,14.3671875,-2.0153,3.9813807,-0.11069691
1.06,3.3415356,6.580345,13.775096,-2.2018588,4.144427,-0.177441
1.062,3.7060397,6.738063,13.183673,-2.3918414,4.28476,-0.25274658
1.064,4.0756803,6.8876595,12.593832,-2.5848577,4.4022164,-0.33530903
1.066,4.4488125,7.028928,12.006671,-2.7802794,4.4970713,-0.4238292
1.068,4.8240294,7.161912,11.423181,-2.9772909,4.570028,-0.5170841
1.07,5.1998577,7.2870116,10.844132,-3.1749122,4.6221356,-0.61400187
1.072,5.5747995,7.404977,10.270136,-3.3720474,4.654778,-0.7136821
1.074,5.947696,7.516609,9.70182,-3.5675488,4.6696324,-0.8154244
1.076,6.3176136,7.6228456,9.139711,-3.7602818,4.6686273,-0.918711
1.078,6.6835423,7.7248516,8.584035,-3.9491937,4.6538453,-1.0231942
1.08,7.04484,7.823682,8.035175,-4.1333985,4.627457,-1.1286604
1.082,7.4011793,7.9203134,7.4934893,-4.3121943,4.5916176,-1.2349575
1.084,7.751499,8.016174,6.958625,-4.4850965,4.5483875,-1.3419341
1.086,8.095291,8.112669,6.4302015,-4.6518655,4.4996204,-1.4493568
1.088,8.432196,8.211027,5.9077687,-4.812485,4.4469223,-1.5568645
1.09,8.761805,8.312355,5.390905,-4.9671583,4.391555,-1.6639537
1.092,9.084165,8.417278,4.87928,-5.116243,4.3344526,-1.7699816
1.094,9.398975,8.526573,4.3725452,-5.260203,4.2762103,-1.8742199
1.096,9.7061,8.640781,3.8704605,-5.3995514,4.217105,-1.9759163
1.098,10.005075,8.760345,3.3732486,-5.5347958,4.1571865,-2.0743866
1.1,10.295596,8.885473,2.8812284,-5.6663666,4.096301,-2.1691186
1.102,10.577403,9.016234,2.3948717,-5.7946444,4.034183,-2.2598066
1.104,10.849876,9.152701,1.9147334,-5.9199104,3.9705672,-2.346385
1.106,11.112481,9.294818,1.4414473,-6.0423603,3.9052248,-2.4290495
1.108,11.364735,9.442152,0.9757948,-6.162133,3.8380055,-2.5082326
1.11,11.605955,9.594181,0.51858187,-6.2792444,3.7689185,-2.5845263
1.112,11.835679,9.750342,0.0707736,-6.3936214,3.698111,-2.6585903
1.114,12.053123,9.909876,-0.36670685,-6.505204,3.625823,-2.7310853
1.116,12.257639,10.07188,-0.79274297,-6.6139665,3.5523868,-2.8025484
1.118,12.448492,10.235401,-1.2065868,-6.719871,3.4782345,-2.8733904
1.12,12.625325,10.399438,-1.6073883,-6.822903,3.4038475,-2.9438448
1.122,12.787264,10.562905,-1.9940982,-6.923085,3.3297,-3.0139458
1.124,12.933851,10.724895,-2.3658657,-7.0204864,3.2562335,-3.0835276
1.126,13.064475,10.884524,-2.7219625,-7.115193,3.1838307,-3.1522639
1.128,13.1789665,11.040917,-3.0616336,-7.207328,3.1127577,-3.2196708
1.13,13.277025,11.193145,-3.3844981,-7.2970304,3.043182,-3.28517
1.132,13.358378,11.340735,-3.6900532,-7.3844414,2.9751809,-3.3481352
1.134,13.422868,11.483086,-3.9777677,-7.4696693,2.9087358,-3.4079664
1.136,13.470793,11.6196165,-4.2473273,-7.552795,2.8437831,-3.4641027
1.138,13.502379,11.749944,-4.4983034,-7.633832,2.780218,-3.5160356
1.14,13.517993,11.87364,-4.730324,-7.7127156,2.7179413,-3.5633287
1.142,13.5180645,11.990694,-4.9431562,-7.789215,2.6569107,-3.6056175
1.144,13.502978,12.101038,-5.136257,-7.8629622,2.5971715,-3.6425776
1.146,13.473276,12.204956,-5.3092256,-7.9334154,2.5389004,-3.6739178
1.148,13.429381,12.302799,-5.4614186,-7.9998755,2.4824195,-3.6992931
1.15,13.372034,12.395068,-5.5926433,-8.06151,2.4282506,-3.7183535
1.152,13.302137,12.482046,-5.7024317,-8.117413,2.377045,-3.73066
1.154,13.220442,12.564492,-5.790639,-8.166643,2.3297195,-3.735693
1.156,13.128112,12.642857,-5.857385,-8.208231,2.2873938,-3.7328982
1.158,13.026308,12.717675,-5.9028015,-8.241278,2.2513447,-3.7216935
1.16,12.916209,12.789502,-5.927114,-8.2649145,2.2229483,-3.7015464
1.162,12.799288,12.85876,-5.931007,-8.278381,2.2036345,-3.6720104
1.164,12.677139,12.925586,-5.915339,-8.281066,2.1948051,-3.6328168
1.166,12.551246,12.990346,-5.8811,-8.272483,2.1977763,-3.58389
1.168,12.42313,13.053017,-5.8297186,-8.252225,2.213768,-3.5254223
1.17,12.29463,13.113392,-5.762645,-8.220011,2.2437599,-3.457902
1.172,12.167523,13.171109,-5.681513,-8.1757555,2.2884173,-3.3820953
1.174,12.043429,13.225779,-5.588079,-8.119546,2.348087,-3.2990546
1.176,11.924199,13.276852,-5.4841094,-8.051593,2.4227831,-3.2100956
1.178,11.81135,13.323457,-5.371613,-7.97223,2.5122008,-3.116748
1.18,11.706785,13.364495,-5.252467,-7.8818903,2.6157258,-3.0206785
1.182,11.612011,13.398793,-5.12863,-7.781057,2.7324395,-2.9235823
1.184,11.528541,13.425089,-5.0021334,-7.670225,2.8611524,-2.8270955
1.186,11.457517,13.442203,-4.8748302,-7.5498815,3.0004623,-2.7326832
1.188,11.400028,13.448793,-4.748321,-7.420499,3.1487935,-2.6415775
1.19,11.356673,13.443757,-4.6244664,-7.28252,3.3044863,-2.554774
1.192,11.327988,13.426245,-4.504798,-7.136383,3.4658024,-2.4729843
1.194,11.314493,13.395179,-4.3903403,-6.982539,3.6310143,-2.3965995
1.196,11.316221,13.349706,-4.2821035,-6.8215003,3.7983975,-2.3257387
1.198,11.332785,13.289352,-4.180978,-6.6538477,3.9663122,-2.2602751
1.2,11.363594,13.213896,-4.0878,-6.480253,4.1332355,-2.1998968
1.202,11.407636,13.123507,-4.0031357,-6.301496,4.2978115,-2.144178
1.204,11.463848,13.018453,-3.9274163,-6.1184273,4.458841,-2.0925884
1.206,11.530993,12.89922,-3.860839,-5.9319797,4.615326,-2.04457
1.208,11.607646,12.766739,-3.8036995,-5.743141,4.7664,-1.9995308
1.21,11.69223,12.621925,-3.7559872,-5.5528913,4.91133,-1.9568722
1.212,11.782932,12.466003,-3.7176433,-5.3622074,5.049485,-1.9159627
1.214,11.878165,12.30034,-3.6885219,-5.172018,5.1803513,-1.8761554
1.216,11.976095,12.126272,-3.668377,-4.9831686,5.3034706,-1.836802
1.218,12.074953,11.945387,-3.6569724,-4.796391,5.418438,-1.797266
1.22,12.173092,11.759058,-3.6538424,-4.6123238,5.5249267,-1.7569828
1.222,12.268982,11.568678,-3.658578,-4.4314737,5.6227183,-1.715476
1.224,12.3612585,11.37558,-3.670693,-4.2542477,5.711749,-1.6724266
1.226,12.448717,11.181063,-3.6897302,-4.0809174,5.792114,-1.6277075
1.228,12.530342,10.986063,-3.7150583,-3.9116678,5.864064,-1.5813801
1.23,12.60516,10.791682,-3.7461405,-3.7466116,5.927998,-1.5337174
1.232,12.672649,10.598618,-3.7824793,-3.5858018,5.9844103,-1.4851544
1.234,12.73253,10.407421,-3.823532,-3.4292595,6.033878,-1.4362442
1.236,12.784835,10.218338,-3.8686466,-3.2769701,6.0770426,-1.3876545
1.238,12.829472,10.0315075,-3.917141,-3.128889,6.1145577,-1.3400913
1.24,12.866565,9.847087,-3.9681797,-2.9849572,6.147041,-1.2942665
1.242,12.896645,9.664715,-4.02098,-2.8450644,6.1750827,-1.2508382
1.244,12.920209,9.484253,-4.0748234,-2.709061,6.1992273,-1.2103947
1.246,12.937686,9.305315,-4.128766,-2.5767484,6.2199583,-1.1734642
1.248,12.94989,9.127501,-4.1819763,-2.4478798,6.2377186,-1.1405109
1.25,12.957666,8.950241,-4.233463,-2.3221574,6.2529054,-1.1118866
1.252,12.961934,8.772839,-4.2823167,-2.1992102,6.265891,-1.0878476
1.254,12.963387,8.594771,-4.327835,-2.0786266,6.277051,-1.0685785
1.256,12.9629345,8.415201,-4.369281,-1.9600251,6.286701,-1.0541534
1.258,12.961565,8.233468,-4.406026,-1.8430394,6.295142,-1.0445502
1.26,12.960007,8.048941,-4.4372935,-1.727339,6.30268,-1.0396655
1.262,12.958946,7.8611817,-4.462627,-1.612647,6.3096485,-1.0393608
1.264,12.959138,7.6696,-4.4814324,-1.4987544,6.316394,-1.0434453
1.266,12.96111,7.473819,-4.4934845,-1.3855197,6.323274,-1.0517137
1.268,12.965317,7.2736254,-4.498498,-1.2728509,6.3306665,-1.0639398
1.27,12.972092,7.0689154,-4.496416,-1.1607316,6.3389606,-1.0798981
1.272,12.981906,6.85981,-4.487125,-1.0491763,6.3484874,-1.0993603
1.274,12.9948845,6.6464715,-4.470718,-0.93824244,6.3595324,-1.1220686
1.276,13.011372,6.429138,-4.4473553,-0.8280232,6.3722825,-1.1477606
1.278,13.031585,6.20819,-4.417325,-0.7186457,6.3868027,-1.1761489
1.28,13.055502,5.9841595,-4.3810863,-0.61026883,6.4030504,-1.2069023
1.282,13.083212,5.7575846,-4.339125,-0.5030718,6.4208407,-1.2396612
1.284,13.114634,5.5290375,-4.292098,-0.39726233,6.439829,-1.2740235
1.286,13.149505,5.299245,-4.2407293,-0.29307318,6.459538,-1.3095908
1.288,13.187771,5.0690117,-4.185529,-0.19074368,6.4793353,-1.3459194
1.29,13.228883,4.839204,-4.127391,-0.0905664,6.498412,-1.3825696
1.292,13.272554,4.610757,-4.066846,0.007138729,6.515891,-1.4190724
1.294,13.318392,4.38454,-4.004585,0.10204148,6.530816,-1.4549932
1.296,13.365917,4.161386,-3.9411073,0.19378495,6.5421934,-1.4899442
1.298,13.414776,3.9421623,-3.8769104,0.28199458,6.549031,-1.5235933
1.3,13.464344,3.7277627,-3.8123436,0.3662877,6.550398,-1.555677
1.302,13.514136,3.5186188,-3.7478042,0.44630694,6.5454845,-1.5860243
1.304,13.563725,3.315539,-3.6834438,0.5217278,6.5336337,-1.6145787
1.306,13.612453,3.1190732,-3.619396,0.5922549,6.514354,-1.6413761
1.308,13.6597805,2.929802,-3.555737,0.6577091,6.4873343,-1.6665359
1.31,13.705294,2.7482438,-3.49233,0.71802855,6.4525185,-1.6902922
1.312,13.748432,2.5746913,-3.4290686,0.77327824,6.4100466,-1.7129393
1.314,13.788842,2.4094296,-3.365903,0.82361245,6.36024,-1.7348266
1.316,13.8260765,2.2527606,-3.3025486,0.8692932,6.30355,-1.7562995
1.318,13.859723,2.1046758,-3.238785,0.910655,6.240577,-1.7777048
1.32,13.8895645,1.9652772,-3.1743581,0.9481034,6.1719885,-1.7993548
1.322,13.9155035,1.8344941,-3.1088643,0.9820566,6.0984716,-1.8215139
1.324,13.937148,1.7121029,-3.042066,1.012927,6.0207086,-1.8443503
1.326,13.954487,1.5980649,-2.9736476,1.0411112,5.939389,-1.8679494
1.328,13.967372,1.4921727,-2.90336,1.0669489,5.8551264,-1.8923259
1.33,13.975935,1.3941541,-2.830856,1.0907197,5.7684984,-1.9173934
1.332,13.9800825,1.3037152,-2.756051,1.1126263,5.680023,-1.9430225
1.334,13.979958,1.2205582,-2.6787944,1.1328313,5.5901594,-1.9690435
1.336,13.975563,1.1441951,-2.5989876,1.1514244,5.49935,-1.9952649
1.338,13.96722,1.0744319,-2.5164766,1.1684806,5.408004,-2.0215173
1.34,13.955266,1.0106721,-2.431265,1.184036,5.3165216,-2.0476286
1.342,13.939678,0.95266867,-2.3433805,1.1981304,5.2253003,-2.0734744
1.344,13.920758,0.8999853,-2.252853,1.2108408,5.1347313,-2.0989363
1.346,13.898693,0.8521776,-2.1597595,1.2222549,5.045181,-2.123956
1.348,13.873587,0.80901575,-2.0643506,1.2324939,4.957022,-2.1484566
1.35,13.84588,0.7698746,-1.9667628,1.2417024,4.870625,-2.172374
1.352,13.815672,0.73456955,-1.8672652,1.2500654,4.786335,-2.1956444
1.354,13.783297,0.70263195,-1.7662365,1.2577708,4.7044873,-2.218197
1.356,13.749025,0.6737633,-1.6638923,1.264996,4.625362,-2.2399452
1.358,13.712791,0.6476917,-1.5607169,1.2719083,4.549216,-2.260795
1.36,13.674767,0.624104,-1.4570804,1.2786405,4.4762545,-2.2806406
1.362,13.635124,0.6027436,-1.3534613,1.2852707,4.406603,-2.2993622
1.364,13.594151,0.5833497,-1.2501941,1.2918231,4.340315,-2.3168337
1.366,13.551672,0.5658665,-1.1476557,1.29826,4.277358,-2.332949
1.368,13.507894,0.5500107,-1.0464201,1.3044798,4.2175903,-2.3476079
1.37,13.462918,0.5356693,-0.9468596,1.3102971,4.1607556,-2.3607266
1.372,13.416647,0.5228553,-0.84940386,1.3154715,4.1065097,-2.3722148
1.374,13.369207,0.51147604,-0.7543106,1.3196923,4.054436,-2.3820066
1.376,13.320576,0.5014963,-0.66180015,1.3226097,4.004017,-2.3900502
1.378,13.270802,0.4928832,-0.5721655,1.3238658,3.9546838,-2.3963234
1.38,13.220032,0.48556376,-0.4855876,1.323105,3.9058418,-2.400834
1.382,13.168109,0.47948217,-0.40207386,1.3200008,3.8568993,-2.403626
1.384,13.115046,0.47472095,-0.3216188,1.3142654,3.8072882,-2.4047832
1.386,13.060944,0.47116184,-0.24405861,1.3056717,3.756518,-2.4044366
1.388,13.005731,0.46869373,-0.16916704,1.2940558,3.7041998,-2.402763
1.39,12.949299,0.46729517,-0.096631765,1.2793381,3.6500516,-2.3999794
1.392,12.891726,0.466743,-0.025977612,1.2615173,3.593945,-2.3963103
1.394,12.832876,0.4668336,0.043230057,1.2406939,3.535884,-2.3919647
1.396,12.772791,0.46738148,0.11148906,1.2170452,3.4760385,-2.387178
1.398,12.711221,0.46812773,0.17928529,1.1908361,3.4147034,-2.3821292
1.4,12.648182,0.46889544,0.247231,1.1624045,3.3522563,-2.3769479
1.402,12.583818,0.46928358,0.31586075,1.1321629,3.2891622,-2.37172
1.404,12.517851,0.46911907,0.3857653,1.1005493,3.2259564,-2.3664577
1.406,12.450365,0.4680543,0.45736122,1.0680103,3.1632178,-2.361127
1.408,12.381216,0.46587467,0.5309999,1.0349714,3.1015253,-2.3556182
1.41,12.310392,0.46230745,0.6071205,1.0018167,3.0414639,-2.3497603
1.412,12.237837,0.45726538,0.6859853,0.96888304,2.9835875,-2.3433342
1.414,12.163441,0.4503727,0.76773477,0.93643916,2.9284348,-2.3360963
1.416,12.08734,0.44160938,0.8524449,0.9046743,2.876498,-2.3277607
1.418,12.009634,0.43061686,0.94016314,0.8737258,2.8282099,-2.318056
1.42,11.930227,0.41739225,1.0308709,0.8436943,2.7839427,-2.306715
1.422,11.849229,0.40183592,1.1243832,0.81464565,2.7440002,-2.29349
1.424,11.766831,0.3839345,1.2204943,0.7866514,2.708653,-2.2781796
1.426,11.683012,0.3636198,1.3188264,0.759784,2.6780653,-2.2606263
1.428,11.598015,0.34086037,1.4191608,0.73413503,2.652338,-2.2407465
1.43,11.51202,0.31573105,1.5211105,0.7098268,2.6315823,-2.2185233
1.432,11.425049,0.28838253,1.6242635,0.6869761,2.61584,-2.1940153
1.434,11.337521,0.2589183,1.7281942,0.66570807,2.6051126,-2.167336
1.436,11.249573,0.22738647,1.8325028,0.6461383,2.5993893,-2.138647
1.438,11.161369,0.19402504,1.9368188,0.62836754,2.5986414,-2.1081603
1.44,11.073051,0.15897131,2.040591,0.6124549,2.6028066,-2.0760775
1.442,10.98517,0.12251234,2.1434097,0.5984113,2.6117928,-2.0425742
1.444,10.897901,0.08496618,2.244864,0.5862063,2.6254632,-2.00778
1.446,10.811537,0.046602726,2.3445854,0.5757575,2.6435797,-1.9717478
1.448,10.726222,0.007736683,2.4420054,0.5669193,2.665825,-1.9344685
1.45,10.642194,-0.031267166,2.5369315,0.55950546,2.6917677,-1.8958027
1.452,10.559829,-0.070082664,2.6289806,0.55327046,2.7208552,-1.8555729
1.454,10.479309,-0.10831928,2.717985,0.54794574,2.7524295,-1.8135507
1.456,10.400913,-0.14552164,2.803685,0.54319596,2.785688,-1.769507
1.458,10.324918,-0.18144321,2.8860679,0.53867483,2.8197472,-1.7232246
1.46,10.251396,-0.21552896,2.96505,0.5340017,2.8537009,-1.6745756
1.462,10.180553,-0.24749422,3.0407012,0.52878463,2.886639,-1.6235374
1.464,10.112483,-0.27703238,3.113123,0.5226116,2.9177089,-1.5702056
1.466,10.047316,-0.30386925,3.1824975,0.5150988,2.9461381,-1.514801
1.468,9.985353,-0.3276949,3.249144,0.50589216,2.9712863,-1.4576492
1.47,9.926641,-0.34824705,3.3133197,0.494707,2.9926777,-1.3991842
1.472,9.87118,-0.36526346,3.3755455,0.48131764,3.00999,-1.3398806
1.474,9.819007,-0.37860608,3.4362445,0.46558845,3.0230548,-1.2802334
1.476,9.770363,-0.3882401,3.4958453,0.44747543,3.031868,-1.2207601
1.478,9.72508,-0.3938744,3.5551355,0.4269991,3.0365338,-1.1619027
1.48,9.683231,-0.3955102,3.614562,0.40424323,3.037282,-1.1040409
1.482,9.644843,-0.39292908,3.674615,0.37932718,3.034451,-1.047423
1.484,9.609804,-0.38615704,3.735665,0.35238266,3.028423,-0.99217343
1.486,9.578068,-0.37496305,3.7981894,0.3235644,3.0196729,-0.93831384
1.488,9.549698,-0.359452,3.8625457,0.29303324,3.0086884,-0.88575333
1.49,9.524591,-0.33945894,3.92914,0.26094604,2.9959924,-0.83430386
1.492,9.502594,-0.3149023,3.998092,0.22744834,2.9821167,-0.7836982
1.494,9.483801,-0.28574467,4.0695763,0.19267797,2.967585,-0.73365164
1.496,9.467905,-0.25179696,4.143688,0.1567694,2.9528825,-0.6838647
1.498,9.454985,-0.21306086,4.2203546,0.119870305,2.9384818,-0.6340595
1.5,9.444891,-0.16947961,4.2994623,0.08211911,2.9248204,-0.58400416
1.502,9.437418,-0.12078571,4.3806496,0.04365778,2.9122982,-0.53350693
1.504,9.432615,-0.066903114,4.4636993,0.0046305656,2.901252,-0.48242334
1.506,9.429993,-0.0077528954,4.548283,-0.03485191,2.8920166,-0.43066958
1.508,9.429625,0.056811333,4.6339498,-0.07471013,2.8848853,-0.37819844
1.51,9.431362,0.12678623,4.720345,-0.11488545,2.8800914,-0.32500857
1.512,9.434841,0.2021761,4.806967,-0.15537369,2.8778207,-0.27114365
1.514,9.439873,0.28298426,4.8932924,-0.19619417,2.8782134,-0.21663794
1.516,9.446175,0.36927772,4.9788857,-0.2374109,2.8813596,-0.16154012
1.518,9.453565,0.46084166,5.0632706,-0.27910018,2.8873107,-0.10591811
1.52,9.461776,0.55757475,5.1458817,-0.3213582,2.8960586,-0.04982993
1.522,9.470525,0.6592946,5.2264295,-0.36429715,2.9075494,0.00665541
1.524,9.479696,0.7658138,5.304438,-0.4080032,2.9216957,0.06348096
1.526,9.488819,0.87679386,5.379559,-0.4525497,2.9383936,0.12059337
1.528,9.497407,0.9920659,5.4513736,-0.4979794,2.9575353,0.17792943
1.53,9.505364,1.1111293,5.5195436,-0.5442833,2.9789877,0.23541641
1.532,9.512291,1.2337308,5.583799,-0.5913851,3.0026302,0.29294628
1.534,9.517938,1.3594799,5.643931,-0.6391641,3.0283687,0.35040522
1.536,9.522121,1.4880638,5.6998143,-0.68745375,3.056115,0.40765947
1.538,9.524607,1.6191673,5.7511325,-0.736055,3.0857902,0.4645805
1.54,9.52498,1.7523668,5.79772,-0.78474975,3.1173368,0.5210514
1.542,9.523224,1.8872366,5.839412,-0.8333489,3.1506853,0.57698864
1.544,9.519081,2.0235612,5.8762317,-0.8817059,3.1857352,0.6323407
1.546,9.512438,2.1610677,5.9080625,-0.92972803,3.2223713,0.68711656
1.548,9.5033245,2.29934,5.934754,-0.9773867,3.2604628,0.7413877
1.55,9.491581,2.4383047,5.9564176,-1.0247124,3.2998505,0.7952397
1.552,9.476988,2.5776753,5.973133,-1.0718215,3.3403344,0.8487944
1.554,9.459633,2.7171783,5.9848237,-1.1188486,3.3816957,0.9021656
1.556,9.439438,2.8568273,5.991733,-1.1659983,3.4236915,0.9554623
1.558,9.416559,2.9963224,5.994028,-1.2134935,3.4660757,1.0087656
1.56,9.390889,3.135622,5.991768,-1.26154,3.508588,1.0621252
1.562,9.362468,3.274529,5.9850984,-1.3103523,3.5509858,1.1155541
1.564,9.331309,3.4129941,5.9743013,-1.3601097,3.5930638,1.169023
1.566,9.297242,3.5508904,5.959565,-1.4109571,3.6346207,1.2224638
1.568,9.2604265,3.6880965,5.9410477,-1.4629906,3.6754496,1.2757657
1.57,9.220726,3.8243928,5.9190664,-1.5162406,3.715378,1.3287948
1.572,9.178135,3.9595902,5.893702,-1.5706855,3.754241,1.3813989
1.574,9.1326475,4.093588,5.8654113,-1.6262404,3.7919092,1.433402
1.576,9.08398,4.2261667,5.834326,-1.6827502,3.8282657,1.4846264
1.578,9.032159,4.35695,5.800684,-1.7400218,3.863214,1.5348778
1.58,8.97721,4.4858093,5.7648087,-1.797827,3.8966818,1.5839622
1.582,8.919046,4.6123133,5.7268815,-1.8559283,3.9286423,1.6317207
1.584,8.857645,4.736307,5.6870275,-1.9140779,3.9590957,1.677999
1.586,8.792807,4.8574915,5.645407,-1.9720583,3.9880857,1.7226846
1.588,8.724686,4.9754252,5.6021576,-2.0296667,4.015659,1.7656994
1.59,8.653238,5.0899763,5.557263,-2.0867324,4.041867,1.806997
1.592,8.578688,5.2007627,5.5108733,-2.1431239,4.0667706,1.8465695
1.594,8.501024,5.307632,5.4629664,-2.1987362,4.090434,1.8844502
1.596,8.420534,5.4102077,5.413541,-2.2534866,4.1129007,1.9206823
1.598,8.337381,5.508395,5.362576,-2.3073037,4.134192,1.9553275
1.6,8.251762,5.6020384,5.309824,-2.3601224,4.154291,1.9884539
1.602,8.164072,5.690973,5.255171,-2.4118993,4.173152,2.0201151
1.604,8.074551,5.775069,5.19858,-2.462603,4.1906934,2.0503464
1.606,7.9835677,5.854133,5.139855,-2.5122123,4.2068276,2.0791745
1.608,7.89155,5.9281516,5.0788527,-2.560721,4.221434,2.1065745
1.61,7.799007,5.9969697,5.0153894,-2.6081138,4.2343593,2.1324809
1.612,7.7061896,6.0604854,4.949411,-2.6543977,4.245415,2.1567962
1.614,7.613545,6.1186285,4.8807573,-2.6995916,4.2543893,2.179392
1.616,7.521629,6.171257,4.8092604,-2.7437236,4.26105,2.2001338
1.618,7.4306035,6.2184305,4.734812,-2.78682,4.2651305,2.218876
1.62,7.3409314,6.260114,4.6571436,-2.8289154,4.266369,2.2354856
1.622,7.2528915,6.2962728,4.576215,-2.8700309,4.264514,2.2498631
1.624,7.1669197,6.3268027,4.4919415,-2.9101887,4.259333,2.2619352
1.626,7.083284,6.3517265,4.4041333,-2.9493947,4.25062,2.2716618
1.628,7.002233,6.3710566,4.312772,-2.9876375,4.238204,2.2790384
1.63,6.923953,6.3847637,4.217717,-3.0249066,4.2219653,2.2841072
1.632,6.848599,6.39303,4.1186876,-3.0611987,4.20183,2.2869132
1.634,6.7761645,6.395846,4.0158124,-3.096514,4.1777554,2.2875233
1.636,6.706984,6.393316,3.908916,-3.1308615,4.1497154,2.285999
1.638,6.641195,6.385578,3.7979183,-3.164283,4.1177382,2.2823994
1.64,6.5787215,6.372824,3.6827416,-3.1968102,4.0818186,2.2767673
1.642,6.519535,6.3552403,3.5632417,-3.2285137,4.041979,2.2691324
1.644,6.46356,6.3329225,3.4394536,-3.2594738,3.9982233,2.2595205
1.646,6.410777,6.3061705,3.3112392,-3.2897806,3.9505286,2.247957
1.648,6.361142,6.274989,3.178588,-3.319535,3.8988552,2.2344573
1.65,6.3147044,6.239745,3.0416117,-3.3488286,3.8431537,2.2190413
1.652,6.271199,6.2006164,2.9003935,-3.377751,3.7833486,2.2017417
1.654,6.2305098,6.157727,2.75499,-3.4063847,3.7193449,2.1825802
1.656,6.1925926,6.111241,2.6055431,-3.4348068,3.6510386,2.1616035
1.658,6.157256,6.06122,2.452314,-3.4630558,3.5783205,2.1388505
1.66,6.1244054,6.0078297,2.2955866,-3.4911554,3.5010793,2.1143477
1.662,6.093788,5.950968,2.1356456,-3.5190976,3.419231,2.088131
1.664,6.0652323,5.8908625,1.9730066,-3.546859,3.3326995,2.0602267
1.666,6.0385637,5.827428,1.8079232,-3.574382,3.2414403,2.030655
1.668,6.0135045,5.7607617,1.6410975,-3.6015933,3.145437,1.9994382
1.67,5.9899197,5.690761,1.4729993,-3.6283698,3.0447106,1.9665955
1.672,5.967548,5.6173344,1.3045068,-3.6545835,2.9393246,1.9321737
1.674,5.9461856,5.54044,1.1360602,-3.6800835,2.8293948,1.8962291
1.676,5.925624,5.459925,0.9686444,-3.7047007,2.7150621,1.8588238
1.678,5.905543,5.375657,0.80293846,-3.7282422,2.596522,1.8200595
1.68,5.8856826,5.2876754,0.63969207,-3.7505126,2.4740405,1.7800584
1.682,5.865784,5.195855,0.47989583,-3.7713134,2.3479042,1.7389643
1.684,5.845508,5.1002493,0.32425618,-3.7904248,2.2184522,1.6969398
1.686,5.824791,5.0007195,0.17369938,-3.8076162,2.0860636,1.6541915
1.688,5.8030233,4.8973827,0.028954744,-3.8226619,1.9511621,1.6109242
1.69,5.77999,4.7901993,-0.10921168,-3.8353217,1.8142058,1.5673587
1.692,5.7555003,4.6793528,-0.24001193,-3.8453674,1.6756628,1.5237339
1.694,5.729185,4.564915,-0.36273217,-3.8525944,1.5360413,1.4802728
1.696,5.7008524,4.4470787,-0.47670484,-3.8567824,1.3958442,1.4372005
1.698,5.6699276,4.3261957,-0.58136463,-3.8577466,1.2555721,1.3947568
1.7,5.636268,4.202513,-0.6761553,-3.8553302,1.1157087,1.3531594
1.702,5.5995483,4.0763097,-0.7607057,-3.8494081,0.9766919,1.3126554
1.704,5.5596085,3.9480195,-0.8345654,-3.839898,0.8389237,1.2734897
1.706,5.515979,3.8182557,-0.89749885,-3.8267643,0.7027693,1.2359024
1.708,5.4684563,3.687408,-0.9493747,-3.8100092,0.5685446,1.2001382
1.71,5.4168024,3.5560942,-0.9899459,-3.7896686,0.43653148,1.166446
1.712,5.360838,3.4247727,-1.0191934,-3.765821,0.30696595,1.1350625
1.714,5.300363,3.2940474,-1.0372758,-3.7385726,0.1800422,1.1061888
1.716,5.2352066,3.1645555,-1.0442595,-3.7080393,0.055918753,1.0799987
1.718,5.1652336,3.0369458,-1.0404165,-3.6743422,-0.065244496,1.0566266
1.72,5.090331,2.9116998,-1.0259652,-3.637598,-0.1833232,1.0361516
1.722,5.0105567,2.7894502,-1.0013177,-3.5979118,-0.2982018,1.0186287
1.724,4.925903,2.6707182,-0.9668007,-3.5553727,-0.40978914,1.0040528
1.726,4.8362536,2.556095,-0.9229455,-3.5100653,-0.5180024,0.99237525
1.728,4.741696,2.445882,-0.8703363,-3.4620218,-0.62276435,0.9835197
1.73,4.6423407,2.340568,-0.8094158,-3.41129,-0.7239898,0.97738636
1.732,4.5384803,2.2405286,-0.74091816,-3.3579006,-0.82161534,0.9738457
1.734,4.4301534,2.1461468,-0.6654155,-3.3019044,-0.91559064,0.97277033
1.736,4.317646,2.0575604,-0.5836034,-3.2433324,-1.0058469,0.97401106
1.738,4.2011547,1.9750608,-0.49626088,-3.1822453,-1.0923383,0.9774085
1.74,4.081059,1.8988429,-0.40409112,-3.1187286,-1.1750164,0.98280835
1.742,3.9576647,1.8288863,-0.30784857,-3.0528827,-1.2538365,0.9900576
1.744,3.8312213,1.7652667,-0.20841599,-2.9848075,-1.3287699,0.9989922
1.746,3.7020204,1.708003,-0.10652614,-2.9146042,-1.3997827,1.0094653
1.748,3.5705085,1.6569526,-0.0028983355,-2.8423615,-1.4668347,1.0213375
1.75,3.4370077,1.6119872,0.10170245,-2.7681966,-1.5299053,1.0344535
1.752,3.3018854,1.5728964,0.20667577,-2.6921906,-1.5889702,1.0486468
1.754,3.165492,1.5394981,0.3113773,-2.6144161,-1.6440077,1.0637528
1.756,3.0281622,1.5112323,0.41530108,-2.5349107,-1.6949983,1.0796014
1.758,2.8906734,1.4880071,0.517782,-2.4537156,-1.7419198,1.096009
1.76,2.7530937,1.4695121,0.61798215,-2.3708544,-1.7847894,1.1127913
1.762,2.6149254,1.455766,0.7167183,-2.2863512,-1.8236109,1.129781
1.764,2.4773114,1.446204,0.8128084,-2.2002258,-1.8583907,1.1468103
1.766,2.340522,1.4403392,0.9061432,-2.1124969,-1.8891532,1.1637306
1.768,2.2048647,1.4378474,0.9966548,-2.0232043,-1.9159193,1.1804395
1.77,2.0706236,1.4382935,1.0841807,-1.9324038,-1.9387014,1.1968498
1.772,1.9383498,1.4413295,1.1686647,-1.8401558,-1.9575163,1.2129173
1.774,1.8082091,1.4464496,1.2500546,-1.7465532,-1.9723763,1.2286494
1.776,1.6805625,1.4533597,1.3284867,-1.6516981,-1.9833059,1.2440664
1.778,1.5556331,1.4617546,1.4039723,-1.5557323,-1.9903064,1.2592388
1.78,1.4338679,1.4713353,1.4766759,-1.4588215,-1.9933965,1.2742417
1.782,1.3153675,1.4819362,1.5464749,-1.3611807,-1.9926188,1.289181
1.784,1.2003627,1.4931005,1.613657,-1.2630422,-1.9880302,1.3041371
1.786,1.0892406,1.5047673,1.6782105,-1.1646831,-1.9796964,1.319177
1.788,0.982086,1.5166818,1.7402238,-1.0664141,-1.9677429,1.3344057
1.79,0.87900907,1.5286491,1.799714,-0.96845686,-1.9523579,1.34994
1.792,0.78011656,1.5404605,1.8566372,-0.8710312,-1.9335598,1.3657382
1.794,0.6855244,1.5518303,1.9110284,-0.77442485,-1.9114542,1.3816961
1.796,0.5951037,1.5628641,1.9627249,-0.67888355,-1.8862858,1.397753
1.798,0.5089824,1.5733441,2.0117507,-0.5846063,-1.8582062,1.4138358
1.8,0.42708546,1.5831592,2.0579653,-0.49170372,-1.8273027,1.429837
1.802,0.34920603,1.5923014,2.1011112,-0.40023056,-1.7936611,1.4456189
1.804,0.27518708,1.6007769,2.141068,-0.31019658,-1.7573314,1.4610124
1.806,0.20494115,1.6086192,2.1776938,-0.22159314,-1.7183204,1.4758158
1.808,0.13842607,1.6157207,2.2107668,-0.1343998,-1.6766179,1.4897904
1.81,0.07531977,1.6222581,2.240241,-0.048621535,-1.6322055,1.5026541
1.812,0.01538825,1.6282336,2.2658715,0.03572738,-1.5850759,1.5141575
1.814,-0.04160762,1.6338972,2.287494,0.118591905,-1.5352526,1.5241203
1.816,-0.09562552,1.6391795,2.3049722,0.19987684,-1.4828264,1.5324234
1.818,-0.14698768,1.6443609,2.3183002,0.2794739,-1.4279412,1.5390886
1.82,-0.19572246,1.6495252,2.3272548,0.35724926,-1.3708072,1.5442958
1.822,-0.24216068,1.6550844,2.3317785,0.43309134,-1.3116937,1.5483216
1.824,-0.28638375,1.6611284,2.3318,0.50689673,-1.2508978,1.5515687
1.826,-0.328529,1.6679852,2.327345,0.5785631,-1.1887511,1.5544629
1.828,-0.36881536,1.6757572,2.3185334,0.6480308,-1.125563,1.5574142
1.83,-0.40731543,1.6848882,2.305331,0.7152351,-1.0616384,1.5607643
1.832,-0.444111,1.6954815,2.2877803,0.78009987,-0.997257,1.5647244
1.834,-0.47951674,1.7077701,2.2660472,0.84255147,-0.9326616,1.5693657
1.836,-0.5134853,1.7220159,2.240326,0.90249276,-0.8680782,1.5746229
1.838,-0.5461066,1.7383847,2.2107835,0.95980537,-0.803717,1.5803435
1.84,-0.5776226,1.7570769,2.177603,1.0143824,-0.73978347,1.5862999
1.842,-0.6080969,1.7781037,2.141142,1.0661206,-0.6764615,1.5921931
1.844,-0.63758993,1.8015256,2.101655,1.114849,-0.6139566,1.5977826
1.846,-0.66618055,1.8274103,2.0596325,1.160493,-0.55261254,1.6029575
1.848,-0.69387233,1.8557299,2.015466,1.2030993,-0.49263626,1.6076398
1.85,-0.72080994,1.8863566,1.9695549,1.2426859,-0.43415275,1.6117008
1.852,-0.7468194,1.9191995,1.9223855,1.2792919,-0.37740105,1.6150608
1.854,-0.771917,1.9541372,1.8744518,1.3129538,-0.32262033,1.6176798
1.856,-0.7960506,1.9908834,1.8261718,1.3437401,-0.26998767,1.6195319
1.858,-0.8191731,2.0292144,1.7779661,1.3717662,-0.21962942,1.6205987
1.86,-0.84104997,2.068824,1.7304201,1.3971531,-0.17165244,1.6208304
1.862,-0.86151737,2.1094341,1.6838793,1.4200277,-0.12611745,1.6201581
1.864,-0.88047427,2.1506324,1.6386584,1.4405148,-0.08305322,1.6184931
1.866,-0.8977801,2.1921663,1.595163,1.45873,-0.042454943,1.6157036
1.868,-0.9137322,2.2336597,1.5538905,1.4747895,-0.0042932443,1.6116309
1.87,-0.92766577,2.2745225,1.5154334,1.4887873,0.031477742,1.606116
1.872,-0.93888104,2.314145,1.4789144,1.5008013,0.06488855,1.5989997
1.874,-0.9480329,2.352333,1.4456334,1.5109103,0.09599722,1.5901277
1.876,-0.95503885,2.3889356,1.4154595,1.5191718,0.12484341,1.5793452
1.878,-0.9600169,2.423545,1.3884283,1.5256441,0.15143174,1.5665388
1.88,-0.96285915,2.455798,1.3646388,1.5303814,0.17576551,1.5516244
1.882,-0.9637698,2.4856339,1.3441495,1.5334228,0.19782574,1.5345505
1.884,-0.96268487,2.5126944,1.3268329,1.5348107,0.21758665,1.5153157
1.886,-0.959839,2.5368917,1.3125074,1.534599,0.23501137,1.4939659
1.888,-0.9550951,2.5579727,1.3010805,1.5328226,0.2500709,1.4706054
1.89,-0.9487557,2.5758762,1.2923914,1.5295253,0.2627411,1.445372
1.892,-0.940884,2.5905714,1.286335,1.524745,0.27301785,1.4184401
1.894,-0.931844,2.6022375,1.2826488,1.5185127,0.28090975,1.3900208
1.896,-0.9218029,2.6108816,1.2811456,1.5108795,0.2864629,1.360348
1.898,-0.9111837,2.6167934,1.2816722,1.5018854,0.28975144,1.329629
1.9,-0.90007466,2.620079,1.2840694,1.4915836,0.29085675,1.2980825
1.902,-0.8887812,2.6211083,1.2881544,1.4800212,0.2898906,1.2658856
1.904,-0.87752867,2.6201327,1.293775,1.4672711,0.2869657,1.23319
1.906,-0.86645395,2.617343,1.300767,1.4533992,0.28218827,1.2001231
1.908,-0.8557347,2.6131167,1.3089075,1.4384811,0.27565616,1.1667924
1.91,-0.84550244,2.60772,1.3181747,1.4226015,0.26746136,1.1332756
1.912,-0.8357755,2.6014316,1.3283664,1.4058417,0.2576785,1.0996288
1.914,-0.82658124,2.5945592,1.3394046,1.3882629,0.2463586,1.0659018
1.916,-0.81807464,2.5873635,1.3511462,1.3699102,0.23351085,1.0321223
1.918,-0.81043243,2.5802639,1.3634756,1.3508089,0.21911566,0.99832773
1.92,-0.8035111,2.5733852,1.3762959,1.3309553,0.20312259,0.9645653
1.922,-0.7973145,2.5670927,1.3897133,1.3103089,0.18544543,0.93087137
1.924,-0.79187447,2.5615907,1.403656,1.2888219,0.16597655,0.8972837
1.926,-0.7873199,2.5571587,1.4181764,1.2664434,0.1446266,0.8638227
1.928,-0.78347987,2.5539858,1.4332764,1.243137,0.12131624,0.83048046
1.93,-0.78048766,2.5521843,1.4491488,1.2189022,0.09602766,0.79721814
1.932,-0.7780614,2.5517645,1.4657876,1.193802,0.06881361,0.7639342
1.934,-0.77607214,2.552972,1.4832004,1.1679492,0.039820116,0.7305063
1.936,-0.7744373,2.5557652,1.5013463,1.1415216,0.009286078,0.6967709
1.938,-0.7731871,2.560212,1.5203211,1.1147472,-0.02246092,0.66253364
1.94,-0.77206665,2.566186,1.540205,1.087879,-0.055010296,0.62761533
1.942,-0.77102435,2.5736847,1.560997,1.0611684,-0.0879046,0.591827
1.944,-0.76976234,2.582703,1.5826083,1.0348299,-0.12063283,0.5550234
1.946,-0.7681929,2.5930848,1.6049783,1.0090582,-0.15269376,0.517115
1.948,-0.7661195,2.60478,1.6279533,0.9839712,-0.18361479,0.47808275
1.95,-0.76332134,2.6176403,1.651289,0.9596175,-0.21299201,0.43797714
1.952,-0.75956917,2.6316729,1.6747056,0.93600637,-0.24052726,0.39695844
1.954,-0.7546902,2.646756,1.6978388,0.9130951,-0.2660539,0.35526186
1.956,-0.74841,2.6628103,1.7201923,0.8907895,-0.28958124,0.3131847
1.958,-0.7406845,2.6797497,1.7415391,0.86896247,-0.31129575,0.27108604
1.96,-0.731207,2.6975229,1.7615811,0.8474784,-0.33157668,0.2293459
1.962,-0.7199928,2.7159615,1.780031,0.82620037,-0.35095906,0.18833429
1.964,-0.70683324,2.7350616,1.7967049,0.8049779,-0.37017196,0.14837447
1.966,-0.6917214,2.7547345,1.8115823,0.7836442,-0.390085,0.10971019
1.968,-0.6746026,2.7749345,1.8247651,0.7620487,-0.41166505,0.07248446
1.97,-0.65562,2.795589,1.8363831,0.7400366,-0.43589947,0.036717772
1.972,-0.63483226,2.8165205,1.8468318,0.7174684,-0.46375108,0.0022978187
1.974,-0.61242104,2.8376665,1.8566309,0.69424224,-0.4960831,-0.031007499
1.976,-0.5884887,2.8589573,1.8661976,0.6703205,-0.5335879,-0.06350955
1.978,-0.5632043,2.880133,1.8762205,0.6457229,-0.576756,-0.09556982
1.98,-0.53692627,2.9011307,1.8873104,0.6205542,-0.62583333,-0.1275525
1.982,-0.50978065,2.9218442,1.9001812,0.59501994,-0.6807796,-0.15978067
1.984,-0.48221222,2.9421258,1.9154083,0.56939673,-0.7412905,-0.19249925
1.986,-0.4543715,2.961777,1.9337022,0.5440241,-0.80678517,-0.22584727
1.988,-0.4261555,2.9806104,1.9554288,0.5192847,-0.8764613,-0.2598526
1.99,-0.39800817,2.9985764,1.9810054,0.49555427,-0.94933164,-0.29440582
1.992,-0.3699299,3.0154414,2.0106978,0.47316045,-1.0242732,-0.32927984
1.994,-0.34209907,3.0311975,2.0448122,0.452363,-1.1001124,-0.3641592
1.996,-0.31453437,3.045839,2.0834055,0.4333312,-1.1756701,-0.39865595
1.998,-0.2874732,3.0594223,2.126338,0.41612625,-1.2498497,-0.4323532
2,-0.2607984,3.0720165,2.173437,0.40069205,-1.3216889,-0.4648407
2.002,-0.23435485,3.083729,2.2244368,0.38689807,-1.3904117,-0.49574998
2.004,-0.20783865,3.0947325,2.2789664,0.37456673,-1.4554629,-0.524765
2.006,-0.18129092,3.105186,2.336661,0.36347008,-1.5165225,-0.5516758
2.008,-0.1542331,3.1152577,2.3971193,0.35339028,-1.5735137,-0.57631755
2.01,-0.12669414,3.1251795,2.4600003,0.34415704,-1.6265748,-0.598622
2.012,-0.09839189,3.1351063,2.524956,0.33563077,-1.6760279,-0.6185922
2.014,-0.069249034,3.1453104,2.591584,0.3277103,-1.7223263,-0.6362978
2.016,-0.039102316,3.1559086,2.659838,0.32034972,-1.7660015,-0.6518656
2.018,-0.007850647,3.167084,2.729399,0.31353542,-1.8075604,-0.6654731
2.02,0.024640799,3.1788445,2.8001513,0.3072914,-1.8474345,-0.6773605
2.022,0.058371425,3.1912413,2.8722508,0.30166999,-1.8859438,-0.68783474
2.024,0.0933429,3.204226,2.9455528,0.29674348,-1.9232665,-0.6972586
2.026,0.12976086,3.2177138,3.0201213,0.29258296,-1.959425,-0.7060395
2.028,0.16765225,3.231577,3.0960343,0.28926307,-1.9942982,-0.7146053
2.03,0.20682395,3.245639,3.1733615,0.28685516,-2.0276303,-0.7233682
2.032,0.24719512,3.2597663,3.252028,0.28544652,-2.0590923,-0.73270875
2.034,0.28893673,3.2736578,3.332089,0.28512067,-2.0882885,-0.7429443
2.036,0.3318199,3.2871468,3.4134297,0.2859498,-2.114823,-0.7542787
2.038,0.37569106,3.300085,3.4960465,0.28804222,-2.1383095,-0.7667986
2.04,0.420609,3.312325,3.579688,0.2914999,-2.1584237,-0.78047985
2.042,0.46643126,3.3236363,3.6643655,0.29642928,-2.174893,-0.7951782
2.044,0.51302433,3.3339512,3.7497556,0.30295068,-2.1875303,-0.8106439
2.046,0.560333,3.3432302,3.835695,0.31118423,-2.1962168,-0.8265762
2.048,0.6085198,3.3514447,3.9217758,0.32124144,-2.2009063,-0.84263253
2.05,0.6573794,3.3585534,4.007648,0.33322623,-2.2016194,-0.85846066
2.052,0.7069218,3.3645997,4.092954,0.34723133,-2.1984217,-0.8737469
2.054,0.757187,3.3695982,4.1774154,0.36333475,-2.1914196,-0.88825417
2.056,0.80807996,3.3735414,4.2607336,0.38159046,-2.1807444,-0.90180385
2.058,0.8596996,3.3766065,4.3427434,0.40200815,-2.1665542,-0.91431296
2.06,0.91195023,3.3787937,4.4232025,0.42459503,-2.1490338,-0.9257822
2.062,0.96477234,3.3801546,4.5019865,0.4493298,-2.1283736,-0.9363134
2.064,1.0183147,3.3807483,4.579063,0.47615162,-2.1047754,-0.9460544
2.066,1.0723839,3.380552,4.6543956,0.5049823,-2.0784578,-0.95521337
2.068,1.1271021,3.3796008,4.7278986,0.5357318,-2.049633,-0.9640207
2.07,1.1824296,3.3779552,4.7994494,0.5682703,-2.0185208,-0.9727002
2.072,1.238261,3.3756747,4.8690767,0.60247207,-1.985345,-0.9814608
2.074,1.2946802,3.3726633,4.936702,0.6381947,-1.9503263,-0.99047524
2.076,1.35148,3.3689828,5.0023355,0.6752734,-1.9136602,-0.99987245
2.078,1.4086958,3.3644562,5.06594,0.7135414,-1.8755447,-1.0097041
2.08,1.4662429,3.3591268,5.127443,0.75283176,-1.8361442,-1.0199888
2.082,1.5241134,3.3529668,5.1868296,0.7929803,-1.7956009,-1.0306906
2.084,1.5822276,3.3459125,5.244045,0.8338299,-1.7540478,-1.0417292
2.086,1.640482,3.3378768,5.299221,0.87521404,-1.7115701,-1.0529965
2.088,1.6988337,3.3289495,5.3522286,0.9169854,-1.6682501,-1.0643468
2.09,1.7571996,3.3190427,5.4031663,0.95901245,-1.6241527,-1.07564
2.092,1.8154802,3.3082223,5.4520626,1.0011511,-1.5793258,-1.0867448
2.094,1.8737503,3.2965958,5.498983,1.0432884,-1.5338056,-1.097523
2.096,1.9318244,3.2841833,5.543954,1.085314,-1.4876449,-1.1078773
2.098,1.9896439,3.2711139,5.587066,1.1271251,-1.4408726,-1.1177328
2.1,2.0472045,3.2574358,5.6282883,1.1686461,-1.3935353,-1.127027
2.102,2.1044927,3.2432418,5.6676426,1.2098023,-1.3457031,-1.1357422
2.104,2.1614242,3.2286136,5.7051735,1.250533,-1.2974546,-1.1438853
2.106,2.2180068,3.213558,5.740944,1.2907817,-1.2488772,-1.1514943
2.108,2.2742312,3.1983013,5.774899,1.3305076,-1.200075,-1.1586134
2.11,2.3301148,3.1828847,5.8071055,1.3696734,-1.151166,-1.1653147
2.112,2.3855662,3.1673024,5.837682,1.4082624,-1.1022679,-1.171689
2.114,2.4404864,3.151648,5.866601,1.4462531,-1.0534905,-1.1778103
2.116,2.4950547,3.135944,5.894025,1.4836099,-1.0049574,-1.1837611
2.118,2.5491042,3.1203132,5.920022,1.5203266,-0.95678174,-1.1896137
2.12,2.602736,3.104753,5.9446683,1.5564098,-0.90904975,-1.1954273
2.122,2.6558313,3.0893276,5.968052,1.5918441,-0.8618583,-1.2012525
2.124,2.708471,3.0740695,5.9903555,1.6266391,-0.8152748,-1.2071211
2.126,2.7605844,3.0591104,6.0116577,1.6607931,-0.7693601,-1.2130463
2.128,2.8121805,3.044367,6.032201,1.6943076,-0.7241602,-1.2190197
2.13,2.8631768,3.0299933,6.051933,1.7271781,-0.6797234,-1.2250206
2.132,2.9134612,3.0160437,6.070936,1.7594008,-0.6360624,-1.2310256
2.134,2.9631114,3.002479,6.0893865,1.7909644,-0.5932089,-1.2369833
2.136,3.0118814,2.9894092,6.107424,1.8218436,-0.5511675,-1.2428492
2.138,3.0598392,2.9768353,6.124963,1.8520125,-0.5099462,-1.2485796
2.14,3.1069212,2.9648685,6.1421394,1.881455,-0.46954143,-1.2541252
2.142,3.1530552,2.9535565,6.159015,1.910131,-0.42995775,-1.2594659
2.144,3.1982317,2.9428344,6.175621,1.9380014,-0.39118266,-1.2645763
2.146,3.242468,2.9328122,6.1920137,1.9650387,-0.35321823,-1.2694361
2.148,3.2855766,2.9234366,6.2080946,1.9912219,-0.3160593,-1.2740506
2.15,3.3273697,2.914791,6.2240324,2.0165312,-0.2797002,-1.2784222
2.152,3.3677077,2.9069958,6.2397165,2.0409544,-0.2441456,-1.2825705
2.154,3.406683,2.8999248,6.255292,2.0644817,-0.20939395,-1.2865092
2.156,3.4442644,2.8934932,6.270575,2.087129,-0.17544475,-1.2902493
2.158,3.4803421,2.8877876,6.2856483,2.1088996,-0.14230177,-1.2938148
2.16,3.5148418,2.88279,6.300516,2.1298084,-0.109980166,-1.2971966
2.162,3.5477428,2.8784316,6.3151913,2.1498735,-0.07848364,-1.3003936
2.164,3.5790064,2.8746626,6.3296747,2.1691196,-0.047809243,-1.3033776
2.166,3.6086698,2.8714228,6.3438935,2.187571,-0.017967999,-1.3061088
2.168,3.636582,2.8685427,6.3580027,2.2052548,0.011030018,-1.3085543
2.17,3.6628501,2.866016,6.372046,2.222199,0.03917688,-1.3106682
2.172,3.6875758,2.863752,6.3859463,2.2384276,0.066477835,-1.3123896
2.174,3.7106242,2.8615298,6.3997526,2.2539628,0.09293929,-1.3136628
2.176,3.7321658,2.859444,6.4135256,2.268858,0.11857611,-1.3144572
2.178,3.752233,2.8572726,6.4272494,2.2831435,0.14338535,-1.31475
2.18,3.7707992,2.8548682,6.4410563,2.2968428,0.16737986,-1.3145407
2.182,3.7881184,2.852096,6.4548326,2.3099613,0.19057804,-1.3138323
2.184,3.804151,2.8488164,6.4686465,2.3225284,0.2130112,-1.3126442
2.186,3.8190598,2.844877,6.482481,2.3345573,0.23472044,-1.3110433
2.188,3.8328767,2.84024,6.4963408,2.346043,0.25577065,-1.309112
2.19,3.8457613,2.8347821,6.510271,2.3569803,0.27622992,-1.3069391
2.192,3.8577752,2.8283343,6.5242496,2.367342,0.2961783,-1.3046126
2.194,3.8690438,2.8208075,6.5383334,2.3770812,0.31568986,-1.3022339
2.196,3.8795943,2.8120365,6.5525055,2.386146,0.33485782,-1.2998694
2.198,3.8895564,2.8018904,6.566776,2.3944716,0.35375303,-1.2975891
2.2,3.8989224,2.7903323,6.58107,2.4019766,0.3724376,-1.2954596
2.202,3.9077926,2.777278,6.595422,2.4085839,0.3909396,-1.2935143
2.204,3.9160082,2.7625954,6.6098537,2.4142227,0.4092576,-1.2917863
2.206,3.9237142,2.7462573,6.6243544,2.418839,0.42737168,-1.2903006
2.208,3.9310088,2.7282732,6.6389384,2.4224102,0.4452381,-1.289074
2.21,3.937818,2.7085967,6.6536455,2.424916,0.46279103,-1.2881138
2.212,3.944089,2.6872816,6.668523,2.4263768,0.47994316,-1.2874054
2.214,3.9499354,2.6644497,6.6834126,2.4268088,0.49660635,-1.286936
2.216,3.955197,2.64016,6.6984224,2.4262474,0.5127057,-1.2866611
2.218,3.959848,2.6143885,6.713627,2.424726,0.5281611,-1.2865257
2.22,3.9639301,2.5873833,6.7290206,2.4222853,0.5429383,-1.2864382
2.222,3.9674578,2.5593019,6.744551,2.4189687,0.55701244,-1.2862895
2.224,3.9704123,2.5302825,6.760347,2.4148207,0.5703827,-1.2859509
2.226,3.9726675,2.5005026,6.776331,2.409882,0.58306855,-1.2853055
2.228,3.9742644,2.4701047,6.79257,2.404191,0.5950986,-1.284246
2.23,3.9752016,2.439302,6.8090568,2.3977923,0.60653436,-1.2826602
2.232,3.9754634,2.4082842,6.8257437,2.3907566,0.61744624,-1.2804878
2.234,3.975081,2.3771868,6.84263,2.3831544,0.62791014,-1.2776909
2.236,3.9741232,2.3461292,6.8597574,2.3750637,0.63799727,-1.274276
2.238,3.9724402,2.3154821,6.8771167,2.366536,0.64778185,-1.2702782
2.24,3.9700928,2.285231,6.8946934,2.3576314,0.65731883,-1.2657275
2.242,3.9673986,2.2555666,6.9124484,2.3484137,0.66667837,-1.2606846
2.244,3.9641137,2.2265651,6.930424,2.3389242,0.67592984,-1.255223
2.246,3.9604015,2.1983974,6.9484444,2.3291864,0.6851452,-1.2494242
2.248,3.956263,2.171137,6.966665,2.3192282,0.6943853,-1.2433473
2.25,3.9518878,2.1447427,6.9849405,2.3090444,0.70370394,-1.2370702
2.252,3.9471655,2.1193728,7.0033097,2.2986228,0.7131419,-1.2306194
2.254,3.9421093,2.0950882,7.021649,2.2879338,0.72273207,-1.2240021
2.256,3.936919,2.0718992,7.0399847,2.2769394,0.73249465,-1.2172201
2.258,3.9317157,2.0498362,7.058258,2.2655942,0.7424356,-1.2102497
2.26,3.926487,2.0289223,7.076516,2.2538555,0.7525317,-1.203054
2.262,3.9214902,2.0091364,7.0946646,2.241663,0.7627513,-1.195583
2.264,3.9165473,1.9905453,7.112721,2.2289808,0.77305055,-1.1877958
2.266,3.91182,1.9731972,7.13073,2.2157686,0.7833683,-1.179659
2.268,3.9072802,1.9570246,7.1486416,2.2020047,0.79363865,-1.1711425
2.27,3.9030766,1.9421151,7.1665235,2.1876645,0.80380154,-1.162222
2.272,3.8992305,1.9285166,7.184357,2.1727283,0.8137985,-1.1528982
2.274,3.895605,1.9162397,7.2020464,2.1571734,0.82357055,-1.1431711
2.276,3.8924427,1.9053073,7.2197413,2.1409845,0.83306706,-1.1330646
2.278,3.8896813,1.8957345,7.237305,2.1241558,0.84224427,-1.1226147
2.28,3.8873773,1.8875875,7.254714,2.1066728,0.8510631,-1.1118536
2.282,3.8855605,1.8808172,7.2721357,2.0885274,0.8594989,-1.1008157
2.284,3.8841643,1.8755941,7.2894955,2.0697072,0.86752766,-1.0895416
2.286,3.8831518,1.8717089,7.3068094,2.0501983,0.87513953,-1.0780798
2.288,3.8824868,1.8693004,7.324029,2.0300055,0.8823171,-1.0664753
2.29,3.8822625,1.8683813,7.341197,2.0091221,0.88905,-1.054779
2.292,3.8823953,1.8689439,7.3583784,1.9875537,0.895337,-1.0430216
2.294,3.8828115,1.8710425,7.3755608,1.9652983,0.90118915,-1.0312376
2.296,3.8835309,1.8745859,7.392755,1.9423676,0.9066007,-1.0194592
2.298,3.8845494,1.8796492,7.409912,1.9187744,0.9115763,-1.0077271
2.3,3.885761,1.8861585,7.427002,1.8945283,0.91611594,-0.9960659
2.302,3.887167,1.8941901,7.4441237,1.8696462,0.9202312,-0.98450077
2.304,3.8887272,1.9038007,7.461133,1.8441446,0.92393273,-0.97304475
2.306,3.8904462,1.91506,7.4781046,1.8180298,0.9272294,-0.96172726
2.308,3.8921516,1.9278972,7.4950414,1.7913153,0.93012875,-0.950546
2.31,3.8938992,1.9423528,7.511936,1.7640109,0.93264425,-0.9395006
2.312,3.895739,1.9584684,7.528701,1.7361245,0.93479586,-0.92858505
2.314,3.897624,1.976336,7.545353,1.7076445,0.93661267,-0.9177813
2.316,3.8995073,1.9959953,7.561859,1.6785767,0.93812346,-0.90706444
2.318,3.9012103,2.0174654,7.578179,1.6489121,0.9393611,-0.8963926
2.32,3.9028509,2.0408344,7.5943174,1.6186354,0.94036245,-0.88573086
2.322,3.9044273,2.0661037,7.610215,1.5877233,0.94117486,-0.8750259
2.324,3.9058657,2.0933452,7.6259174,1.556155,0.94181746,-0.86423266
2.326,3.9072256,2.1226487,7.641307,1.5239129,0.94233537,-0.8533059
2.328,3.9085546,2.1540477,7.6563373,1.4909896,0.94275355,-0.8422047
2.33,3.9097176,2.1874747,7.671046,1.4573627,0.94310534,-0.830884
2.332,3.9107153,2.2230237,7.685373,1.4230151,0.9433966,-0.8192988
2.334,3.9116502,2.2606122,7.6992197,1.3879437,0.94364005,-0.807436
2.336,3.9124818,2.3003635,7.7125864,1.3521419,0.9438467,-0.7952724
2.338,3.9132051,2.342109,7.7254443,1.3156165,0.9440116,-0.7828032
2.34,3.9137566,2.3858323,7.7377844,1.278381,0.94413936,-0.7700381
2.342,3.9141483,2.4314733,7.7496014,1.2404455,0.94423187,-0.75699264
2.344,3.9143138,2.4789007,7.7608423,1.2018278,0.9443005,-0.74369305
2.346,3.914193,2.5280323,7.771368,1.162559,0.9443531,-0.7301786
2.348,3.9138403,2.5786068,7.781229,1.1226742,0.94439733,-0.7164926
2.35,3.9131422,2.630639,7.7904067,1.0822119,0.94444996,-0.7026682
2.352,3.9118497,2.6838682,7.7988663,1.0412068,0.9445194,-0.6887392
2.354,3.910048,2.7382295,7.8065195,0.99969673,0.94462603,-0.67475593
2.356,3.9074426,2.7935154,7.813466,0.9577145,0.94477093,-0.6607425
2.358,3.9038897,2.8496366,7.819602,0.91529775,0.94495684,-0.646734
2.36,3.899215,2.906438,7.8249836,0.87248254,0.94519436,-0.6327446
2.362,3.8933709,2.9637246,7.8295116,0.8292921,0.9454933,-0.61879694
2.364,3.886027,3.0214796,7.8332953,0.7857541,0.9458604,-0.6048866
2.366,3.8770947,3.0795116,7.836249,0.74189067,0.94628453,-0.5910105
2.368,3.8663507,3.1377666,7.8383737,0.697726,0.94677603,-0.5771668
2.37,3.8535824,3.19618,7.8396397,0.65326947,0.9473325,-0.56333727
2.372,3.8385491,3.2546825,7.8400693,0.60853785,0.9479755,-0.5495138
2.374,3.8209815,3.3133001,7.839584,0.5635508,0.94870543,-0.53567505
2.376,3.8007305,3.3720357,7.8382688,0.5183346,0.9495206,-0.521825
2.378,3.777497,3.430906,7.836178,0.47291028,0.95044255,-0.5079598
2.38,3.7511225,3.48996,7.833179,0.42730105,0.9514717,-0.49406713
2.382,3.7213664,3.5493295,7.8293014,0.38153553,0.9526237,-0.48013023
2.384,3.6880612,3.6091244,7.824629,0.33565408,0.95389366,-0.46613353
2.386,3.6508856,3.6695676,7.819102,0.28969958,0.95528835,-0.45204034
2.388,3.6098382,3.7307205,7.812745,0.24370384,0.95680773,-0.43777084
2.39,3.5648572,3.7928221,7.8056564,0.19769523,0.9584382,-0.4232415
2.392,3.5158613,3.8561044,7.797661,0.1517002,0.9601806,-0.40832728
2.394,3.4629645,3.920621,7.788747,0.1057452,0.96203583,-0.39288628
2.396,3.4061763,3.986673,7.7788982,0.0598436,0.9639898,-0.3767776
2.398,3.3456278,4.0542345,7.7681303,0.014009595,0.96604264,-0.35987866
2.4,3.2813392,4.123458,7.756256,-0.031761616,0.96819055,-0.34208974
2.402,3.2137287,4.1944504,7.7432714,-0.0774647,0.97044957,-0.32336345
2.404,3.1429746,4.267272,7.7290707,-0.12310968,0.9728411,-0.30371845
2.406,3.0692635,4.3419533,7.7135596,-0.16869694,0.97540146,-0.28325856
2.408,2.9929283,4.4184117,7.6966133,-0.21422611,0.9781758,-0.26217297
2.41,2.9143212,4.496547,7.678194,-0.25969845,0.9812321,-0.24075541
2.412,2.8336957,4.576275,7.6582766,-0.30509442,0.9846386,-0.21935362
2.414,2.7514648,4.657328,7.636837,-0.3504002,0.9884597,-0.1983686
2.416,2.6678684,4.7395377,7.6138535,-0.3955874,0.99273306,-0.17820682
2.418,2.5834246,4.8226604,7.589277,-0.4406228,0.9974817,-0.15927173
2.42,2.4983263,4.9064846,7.5631933,-0.48546964,1.0026973,-0.14189488
2.422,2.4128616,4.9906206,7.5357285,-0.53008056,1.008316,-0.12632583
2.424,2.327361,5.0748386,7.5069695,-0.5744454,1.014211,-0.112700276
2.426,2.2422793,5.15884,7.4772434,-0.61857086,1.0202016,-0.10100848
2.428,2.1577885,5.2422185,7.4467797,-0.66248035,1.0260981,-0.09110965
2.43,2.0744786,5.3246403,7.4160066,-0.7062496,1.0317049,-0.08274659
2.432,1.9924049,5.405786,7.3854637,-0.749963,1.0368476,-0.07557908
2.434,1.9121718,5.485241,7.355627,-0.7937352,1.0413916,-0.0692344
2.436,1.833885,5.5625563,7.327179,-0.8377082,1.0452274,-0.063337654
2.438,1.758117,5.6372194,7.3008537,-0.8820251,1.0483207,-0.057534702
2.44,1.6853034,5.708768,7.27734,-0.92680585,1.0506904,-0.051559806
2.442,1.6158283,5.776638,7.2574835,-0.97212064,1.0524149,-0.045244746
2.444,1.5499585,5.84029,7.242179,-1.0179865,1.0536227,-0.03852874
2.446,1.4882395,5.8989677,7.2321396,-1.064347,1.0544828,-0.03146585
2.448,1.4310861,5.9521375,7.228202,-1.1110717,1.0552125,-0.024211332
2.45,1.3787818,5.9990783,7.231053,-1.157943,1.0560901,-0.016995594
2.452,1.3315365,6.0390363,7.241439,-1.2046826,1.057425,-0.01013191
2.454,1.2896466,6.0714436,7.259838,-1.2509605,1.0595846,-0.003989354
2.456,1.2532415,6.0955625,7.286827,-1.2964278,1.0629597,0.0010415167
2.458,1.2223577,6.110834,7.322688,-1.3407176,1.0679883,0.0045841485
2.46,1.1970496,6.116692,7.3676615,-1.3834882,1.0751265,0.006316602
2.462,1.1771665,6.1127253,7.4216657,-1.4244355,1.0848416,0.005992517
2.464,1.1625423,6.098632,7.4846325,-1.4632868,1.0976005,0.0034851432
2.466,1.152832,6.074107,7.556195,-1.4998256,1.1138177,-0.0012237132
2.468,1.14781,6.039096,7.6357927,-1.53386,1.1338679,-0.008014038
2.47,1.1468406,5.993765,7.722765,-1.5652413,1.1580791,-0.01663506
2.472,1.1494527,5.9382734,7.8163123,-1.5938718,1.1866888,-0.026713192
2.474,1.1549597,5.8730655,7.915456,-1.6196549,1.219871,-0.037797064
2.476,1.1626983,5.7987795,8.019035,-1.6425445,1.257706,-0.049394637
2.478,1.1720948,5.7160397,8.125898,-1.6624727,1.3002398,-0.0610227
2.48,1.1823988,5.625766,8.234685,-1.6794231,1.3474417,-0.072203726
2.482,1.1928062,5.528879,8.344107,-1.6933963,1.399197,-0.082538694
2.484,1.2027612,5.426344,8.452773,-1.7044076,1.4553325,-0.09169257
2.486,1.2114091,5.319395,8.559243,-1.7125065,1.515647,-0.09940344
2.488,1.218328,5.2092457,8.662068,-1.7177502,1.5799034,-0.10547051
2.49,1.2228117,5.0970507,8.759998,-1.7202221,1.6478354,-0.109780505
2.492,1.2242503,4.98393,8.851834,-1.720032,1.7191473,-0.11228348
2.494,1.2222176,4.871173,8.936329,-1.7173071,1.7935292,-0.11296633
2.496,1.2162371,4.759874,9.012379,-1.7121848,1.8706436,-0.11186594
2.498,1.2057743,4.6513205,9.079088,-1.7048379,1.9501482,-0.10904212
2.5,1.1905236,4.546301,9.135679,-1.6954412,2.0316803,-0.10458721
2.502,1.1701179,4.445916,9.181501,-1.6841731,2.1148689,-0.09861861
2.504,1.1444068,4.3510017,9.216056,-1.6712304,2.1993284,-0.09125927
2.506,1.1132932,4.262326,9.238939,-1.656817,2.284678,-0.08264605
2.508,1.0764742,4.180711,9.2499895,-1.6411269,2.3705096,-0.07291166
2.51,1.0341306,4.1066275,9.24914,-1.6243725,2.4564373,-0.062192526
2.512,0.98592234,4.0406184,9.236453,-1.6067691,2.5420558,-0.050642308
2.514,0.9321766,3.9829242,9.212086,-1.5885252,2.6269784,-0.03840942
2.516,0.8730788,3.9338527,9.176403,-1.5698577,2.7108052,-0.02564029
2.518,0.8086958,3.8935733,9.129837,-1.5509902,2.7931664,-0.012481775
2.52,0.73935175,3.8621454,9.072968,-1.5321281,2.8737323,0.00093043596
2.522,0.6653094,3.8394868,9.006205,-1.513489,2.952197,0.014447756
2.524,0.5869093,3.8256366,8.930386,-1.4952868,3.0282712,0.027936414
2.526,0.50455904,3.8201604,8.846139,-1.4777232,3.1017127,0.041267663
2.528,0.41856337,3.8228846,8.754399,-1.4610149,3.1723175,0.054322943
2.53,0.32948256,3.833397,8.655899,-1.4453578,3.2399344,0.06700164
2.532,0.23782587,3.851371,8.551563,-1.4309419,3.304428,0.079215944
2.534,0.14416122,3.8761644,8.442108,-1.4179302,3.3657186,0.090883225
2.536,0.048861027,3.9072866,8.328329,-1.4064792,3.4237764,0.10194737
2.538,-0.04744339,3.944468,8.2110195,-1.3967305,3.4786012,0.11236504
2.54,-0.14256048,3.9851046,8.09417,-1.3887942,3.5302052,0.12210581
2.542,-0.23729134,4.029994,7.975973,-1.3827634,3.57865,0.13116199
2.544,-0.33121538,4.0784726,7.8573103,-1.3787062,3.6240017,0.13953781
2.546,-0.42358446,4.1299467,7.7388325,-1.3766761,3.666337,0.14726463
2.548,-0.5141525,4.183861,7.621215,-1.3767139,3.705735,0.15437579
2.55,-0.60239077,4.2395782,7.5050683,-1.3788545,3.7422707,0.16091159
2.552,-0.68783593,4.296528,7.390913,-1.3830931,3.7760437,0.16691503
2.554,-0.7701285,4.354171,7.279219,-1.3894464,3.807153,0.17242098
2.556,-0.8490119,4.4120617,7.1704483,-1.3979077,3.8357,0.1774629
2.558,-0.9242432,4.469736,7.0649242,-1.4084651,3.8617847,0.18204546
2.56,-0.9955566,4.526787,6.962944,-1.4211097,3.8855138,0.186187
2.562,-1.062789,4.5829,6.8647184,-1.435818,3.9069958,0.18987018
2.564,-1.1259305,4.6376934,6.770444,-1.452559,3.9263232,0.1930731
2.566,-1.1849358,4.6909895,6.6801376,-1.4713048,3.9435725,0.19578204
2.568,-1.2397594,4.7425556,6.593853,-1.490893,3.958704,0.19798672
2.57,-1.2906082,4.7922363,6.5115767,-1.5117154,3.9719162,0.19968495
2.572,-1.3374994,4.8398848,6.4333496,-1.5334535,3.9832666,0.20089293
2.574,-1.3806436,4.8854265,6.359008,-1.5557513,3.9928343,0.20165041
2.576,-1.4201138,4.928849,6.2884903,-1.578217,4.000712,0.20201278
2.578,-1.4563081,4.970103,6.221732,-1.6004525,4.007026,0.20204523
2.58,-1.489223,5.0092134,6.158533,-1.6220925,4.0119367,0.20182124
2.582,-1.5191793,5.0462523,6.098771,-1.6428236,4.015609,0.20140985
2.584,-1.5463016,5.0812025,6.0422077,-1.6624006,4.018221,0.20087585
2.586,-1.5708945,5.114104,5.9888196,-1.6806687,4.0199637,0.20027307
2.588,-1.5932064,5.145153,5.93836,-1.6975423,4.021001,0.19964209
2.59,-1.613303,5.174304,5.8906603,-1.7130018,4.021482,0.19901776
