Time_s_,Acc_x_m_s_2_,Acc_y_m_s_2_,Acc_z_m_s_2_,Gyro_x_1_s_,Gyro_y_1_s_,Gyro_z_1_s_
0,-2.9951303,-3.064012,-3.6671877,-4.2219768,-3.2348995,-5.5280566
0.002,-2.8249536,-3.2711148,-4.014612,-4.2477055,-3.2688818,-5.4747005
0.004,-2.6466298,-3.4824042,-4.3739805,-4.2784247,-3.313962,-5.4117947
0.006,-2.46005,-3.6967905,-4.745485,-4.3150897,-3.372878,-5.337703
0.008,-2.2649813,-3.9134307,-5.128915,-4.3587036,-3.448697,-5.250734
0.01,-2.061095,-4.1313825,-5.5241156,-4.41027,-3.5447676,-5.1492352
0.012,-1.8479999,-4.3491797,-5.9305053,-4.4707437,-3.6645179,-5.031626
0.014,-1.6249176,-4.565136,-6.347557,-4.540908,-3.8111978,-4.896517
0.016,-1.3912482,-4.7773423,-6.774467,-4.6212907,-3.9876022,-4.7428594
0.018,-1.1463504,-4.983739,-7.2098927,-4.712151,-4.1958632,-4.570057
0.02,-0.88989305,-5.1818285,-7.6524873,-4.813452,-4.437348,-4.378001
0.022,-0.6215229,-5.3686466,-8.100866,-4.9248385,-4.7125325,-4.167034
0.024,-0.3411901,-5.540661,-8.554002,-5.04565,-5.0209637,-3.937916
0.026,-0.048766613,-5.6942487,-9.010431,-5.174993,-5.361418,-3.6917837
0.028,0.25577736,-5.8258333,-9.468608,-5.3137817,-5.736114,-3.4262156
0.03,0.5732126,-5.9318514,-9.925573,-5.4582467,-6.1382747,-3.1477296
0.032,0.9004345,-6.007001,-10.380795,-5.607289,-6.5655885,-2.857537
0.034,1.234405,-6.046526,-10.83613,-5.759695,-7.0157385,-2.5567832
0.036,1.576066,-6.047963,-11.2905655,-5.914201,-7.486454,-2.246514
0.038,1.9250116,-6.0084696,-11.740284,-6.0694985,-7.975447,-1.9276544
0.04,2.277954,-5.9236,-12.182349,-6.224244,-8.480431,-1.6008877
0.042,2.6302524,-5.7888045,-12.614628,-6.3770733,-8.999077,-1.2667046
0.044,2.9792724,-5.6011124,-13.035828,-6.526637,-9.529048,-0.92543197
0.046,3.321515,-5.358209,-13.444583,-6.671604,-10.067944,-0.57744086
0.048,3.6524773,-5.058048,-13.840289,-6.8106284,-10.613333,-0.22324103
0.05,3.9677315,-4.699299,-14.222952,-6.9423866,-11.162614,0.1364457
0.052,4.262965,-4.2810564,-14.591647,-7.06551,-11.71304,0.5006244
0.054,4.532797,-3.8021758,-14.944786,-7.178615,-12.261754,0.8680206
0.056,4.781692,-3.2659688,-15.296551,-7.2802987,-12.805782,1.2371516
0.058,4.991895,-2.6663399,-15.623687,-7.369174,-13.34208,1.6062584
0.06,5.1597176,-2.004754,-15.925804,-7.4437656,-13.867459,1.9734145
0.062,5.2815943,-1.2830992,-16.203417,-7.502573,-14.378632,2.3366804
0.064,5.3548656,-0.5040722,-16.455193,-7.544229,-14.872348,2.6941838
0.066,5.377221,0.32925272,-16.680136,-7.5673933,-15.345474,3.0440984
0.068,5.3460007,1.2130861,-16.876919,-7.5708084,-15.794872,3.3847735
0.07,5.259022,2.143549,-17.043116,-7.553458,-16.217518,3.7148414
0.072,5.115383,3.1166453,-17.17595,-7.5146008,-16.610601,4.033102
0.074,4.914151,4.127687,-17.274536,-7.4537144,-16.971624,4.3383875
0.076,4.655856,5.171061,-17.336979,-7.370615,-17.298601,4.629594
0.078,4.3421435,6.240656,-17.361893,-7.2654915,-17.590075,4.9056764
0.08,3.9755592,7.3302865,-17.348282,-7.1390033,-17.845058,5.1657577
0.082,3.5596929,8.433435,-17.295362,-6.9921446,-18.063019,5.409086
0.084,3.0969396,9.543919,-17.201862,-6.826233,-18.24367,5.634926
0.086,2.5907674,10.654602,-17.067274,-6.642803,-18.387009,5.842513
0.088,2.045556,11.7584305,-16.891066,-6.443602,-18.49325,6.0310926
0.09,1.4657435,12.848606,-16.672459,-6.230391,-18.562588,6.1999054
0.092,0.85583043,13.918573,-16.41151,-6.004976,-18.59538,6.348337
0.094,0.22031534,14.962009,-16.109013,-5.7691007,-18.592043,6.4758134
0.096,-0.43592525,15.973143,-15.766501,-5.524409,-18.553043,6.5818667
0.098,-1.1091822,16.947008,-15.385644,-5.2725163,-18.479052,6.6661096
0.1,-1.7956684,17.878887,-14.967822,-5.015057,-18.370815,6.728408
0.102,-2.4911082,18.764288,-14.514656,-4.7535844,-18.229002,6.7687216
0.104,-3.1915236,19.598896,-14.028341,-4.4897275,-18.05468,6.7872205
0.106,-3.8937445,20.379358,-13.511601,-4.2251844,-17.849033,6.7843866
0.108,-4.5952086,21.10315,-12.967934,-3.9616911,-17.613253,6.7610793
0.11,-5.2937193,21.76891,-12.40126,-3.7010407,-17.348652,6.7183547
0.112,-5.9878073,22.375914,-11.815287,-3.4450758,-17.056597,6.657305
0.114,-6.676176,22.924065,-11.213956,-3.1956444,-16.73856,6.5790024
0.116,-7.358012,23.414005,-10.601031,-2.9544947,-16.396036,6.4844875
0.118,-8.032936,23.84726,-9.980636,-2.7231557,-16.030396,6.3747015
0.12,-8.700486,24.226192,-9.3569975,-2.503003,-15.642924,6.2505245
0.122,-9.36049,24.553215,-8.734655,-2.2952101,-15.235012,6.112699
0.124,-10.013285,24.831299,-8.117727,-2.1006706,-14.8079815,5.9618645
0.126,-10.65894,25.063837,-7.510341,-1.9200535,-14.363176,5.79871
0.128,-11.297052,25.254278,-6.9175057,-1.7539291,-13.9019985,5.623924
0.13,-11.92776,25.4065,-6.3432674,-1.6027437,-13.425964,5.43813
0.132,-12.550714,25.524162,-5.791863,-1.4667916,-12.936831,5.241892
0.134,-13.165,25.610836,-5.266993,-1.346215,-12.436526,5.035666
0.136,-13.769779,25.670397,-4.7727866,-1.2410318,-11.927088,4.819901
0.138,-14.364095,25.706957,-4.3127384,-1.1511815,-11.410691,4.5950646
0.14,-14.9471245,25.724407,-3.8911574,-1.0763887,-10.88934,4.361587
0.142,-15.514584,25.7253,-3.5096369,-1.0161916,-10.364729,4.1199036
0.144,-16.063526,25.712986,-3.1681006,-0.96997416,-9.838345,3.8704524
0.146,-16.594206,25.692469,-2.8693388,-0.9368811,-9.311211,3.6136441
0.148,-17.104822,25.667538,-2.617931,-0.9158804,-8.783959,3.3499696
0.15,-17.590889,25.639856,-2.4160976,-0.90580404,-8.256962,3.0800247
0.152,-18.0475,25.61102,-2.264411,-0.9052993,-7.730253,2.80446
0.154,-18.472193,25.583683,-2.1622138,-0.9129212,-7.203827,2.523946
0.156,-18.861591,25.560436,-2.1086311,-0.92731243,-6.677747,2.239247
0.158,-19.21161,25.54307,-2.1020784,-0.9470452,-6.1518917,1.9510585
0.16,-19.518692,25.533234,-2.1405053,-0.9707701,-5.6263494,1.6599536
0.162,-19.779251,25.531912,-2.2230396,-0.99724936,-5.101479,1.3664377
0.164,-19.989223,25.53922,-2.3488874,-1.0253277,-4.5777183,1.0710847
0.166,-20.144968,25.555323,-2.5167818,-1.0539308,-4.055639,0.77449524
0.168,-20.243464,25.580482,-2.7263212,-1.0821389,-3.5360053,0.47718537
0.17,-20.282066,25.61488,-2.974411,-1.1091342,-3.0196795,0.1795336
0.172,-20.258583,25.658762,-3.2574039,-1.1341784,-2.5076191,-0.118186355
0.174,-20.170692,25.711903,-3.5732856,-1.156632,-2.000868,-0.41583604
0.176,-20.015926,25.773363,-3.919466,-1.1759138,-1.5005361,-0.7133745
0.178,-19.791014,25.84208,-4.2943926,-1.1914691,-1.0077322,-1.0108508
0.18,-19.49451,25.917234,-4.6965184,-1.2027831,-0.52360076,-1.3083793
0.182,-19.125687,25.997433,-5.124753,-1.2093563,-0.0492934,-1.6060677
0.184,-18.682608,26.081396,-5.5764174,-1.2107189,0.4140097,-1.9039884
0.186,-18.165049,26.16818,-6.0500526,-1.2064373,0.8650955,-2.2021785
0.188,-17.573364,26.256603,-6.5437455,-1.196117,1.3027613,-2.5006347
0.19,-16.908257,26.344883,-7.055403,-1.1794122,1.725873,-2.7992902
0.192,-16.170626,26.431376,-7.583279,-1.1559961,2.1333957,-3.0979848
0.194,-15.361254,26.514303,-8.125734,-1.1255887,2.5243866,-3.3964515
0.196,-14.481372,26.59215,-8.681237,-1.0879359,2.8980448,-3.6943946
0.198,-13.532782,26.663326,-9.248192,-1.0428114,3.2537425,-3.9915528
0.2,-12.517995,26.726227,-9.825117,-0.99006134,3.590942,-4.287738
0.202,-11.43977,26.779358,-10.41043,-0.9295785,3.9092245,-4.5828257
0.204,-10.301093,26.82124,-11.001881,-0.86126786,4.2083745,-4.876772
0.206,-9.105571,26.850353,-11.597343,-0.78505576,4.4882708,-5.16956
0.208,-7.857048,26.865591,-12.195101,-0.70096135,4.7486844,-5.4612417
0.21,-6.559761,26.866203,-12.792942,-0.6090745,4.989355,-5.751921
0.212,-5.2183914,26.851744,-13.388999,-0.5095128,5.210189,-6.041671
0.214,-3.837399,26.821804,-13.980778,-0.40242922,5.411098,-6.3304524
0.216,-2.421734,26.776237,-14.565384,-0.2880367,5.591954,-6.6181216
0.218,-0.9765749,26.715076,-15.139927,-0.16656816,5.752573,-6.9044013
0.22,0.49318087,26.638548,-15.701057,-0.03831041,5.892783,-7.1888585
0.222,1.983018,26.546871,-16.245867,0.09644401,6.0124683,-7.4709225
0.224,3.4886618,26.440483,-16.770782,0.23740304,6.1115146,-7.749938
0.226,5.003759,26.320778,-17.274553,0.38429368,6.18983,-8.025209
0.228,6.5219297,26.190607,-17.753439,0.5368928,6.2472944,-8.296031
0.23,8.03885,26.051142,-18.204266,0.6949866,6.2837963,-8.561727
0.232,9.551902,25.903376,-18.623243,0.85837054,6.2992296,-8.821669
0.234,11.055959,25.750322,-19.005512,1.0267969,6.2934775,-9.075353
0.236,12.547059,25.59509,-19.348448,1.1999304,6.2664595,-9.322426
0.238,14.022041,25.44081,-19.648378,1.3773831,6.2181597,-9.562694
0.24,15.478884,25.290407,-19.902382,1.5586516,6.1486235,-9.796094
0.242,16.914808,25.1474,-20.106764,1.743131,6.0580034,-10.0226755
0.244,18.328026,25.014874,-20.258553,1.9301168,5.946684,-10.242479
0.246,19.717775,24.895657,-20.355474,2.1188054,5.815197,-10.455557
0.248,21.08423,24.792341,-20.395512,2.3083642,5.664326,-10.661936
0.25,22.427612,24.707613,-20.376825,2.4979277,5.4949923,-10.861576
0.252,23.749096,24.643574,-20.297794,2.686596,5.3081365,-11.054327
0.254,25.051117,24.601755,-20.157352,2.873448,5.1047373,-11.239885
0.256,26.336267,24.583555,-19.95518,3.057607,4.8858347,-11.418014
0.258,27.607807,24.590033,-19.691093,3.2382798,4.6525097,-11.588534
0.26,28.869379,24.621817,-19.365356,3.4144776,4.405479,-11.751232
0.262,30.124842,24.679188,-18.978651,3.585159,4.145177,-11.905731
0.264,31.378082,24.761847,-18.531797,3.7493124,3.8720558,-12.051729
0.266,32.633007,24.868977,-18.0261,3.905976,3.586668,-12.189114
0.268,33.893513,24.999088,-17.463339,4.054215,3.2894678,-12.31786
0.27,35.163326,25.150175,-16.845295,4.193172,2.9807858,-12.438005
0.272,36.445923,25.319548,-16.173561,4.3220925,2.6610894,-12.549637
0.274,37.743813,25.504265,-15.449774,4.4404097,2.33112,-12.652885
0.276,39.059315,25.700848,-14.675972,4.547715,1.9917498,-12.747988
0.278,40.39382,25.905155,-13.854071,4.6437426,1.6439376,-12.835259
0.28,41.74789,26.112877,-12.986507,4.7283735,1.2887745,-12.915234
0.282,43.121815,26.318964,-12.075271,4.8016343,0.9275155,-12.988829
0.284,44.514576,26.518358,-11.122527,4.863635,0.5614605,-13.05741
0.286,45.9248,26.705738,-10.130701,4.9145527,0.19197178,-13.122795
0.288,47.34997,26.87587,-9.101942,4.954632,-0.17944336,-13.187248
0.29,48.788746,27.022741,-8.039411,4.98409,-0.5513134,-13.253377
0.292,50.23862,27.140812,-6.945889,5.0030847,-0.92213535,-13.323934
0.294,51.69632,27.22496,-5.8241105,5.011659,-1.2902989,-13.401529
0.296,53.158897,27.270014,-4.6773705,5.009775,-1.6540914,-13.488268
0.298,54.623478,27.270885,-3.509108,4.9972844,-2.0117474,-13.585552
0.3,56.08735,27.222927,-2.3230405,4.9739923,-2.3613462,-13.693821
0.302,57.547455,27.12204,-1.123251,4.93966,-2.700858,-13.812479
0.304,59.000973,26.964727,0.08638811,4.8940735,-3.0280852,-13.940044
0.306,60.44512,26.748089,1.3017788,4.837155,-3.3406134,-14.074427
0.308,61.877647,26.469666,2.5186152,4.7689304,-3.636043,-14.213184
0.31,63.29616,26.127752,3.7326207,4.68956,-3.9121556,-14.353704
0.312,64.69827,25.721502,4.9400134,4.5992966,-4.166877,-14.493562
0.314,66.08217,25.250631,6.1363473,4.4987364,-4.3980355,-14.630846
0.316,67.4463,24.715693,7.3172436,4.3885217,-4.6037602,-14.764273
0.318,68.78928,24.118195,8.478818,4.269265,-4.78292,-14.892873
0.32,70.11011,23.459978,9.616283,4.141608,-4.9348865,-15.015913
0.322,71.40815,22.74365,10.725674,4.006239,-5.059264,-15.132994
0.324,72.6822,21.972452,11.802589,3.8639011,-5.1558986,-15.243793
0.326,73.93149,21.149988,12.843053,3.7153058,-5.2252073,-15.34795
0.328,75.15525,20.28046,13.84367,3.561091,-5.268038,-15.444947
0.33,76.35232,19.368464,14.800472,3.4018917,-5.2854266,-15.534062
0.332,77.52172,18.419113,15.709986,3.2382815,-5.2785263,-15.6143265
0.334,78.66287,17.437525,16.568153,3.0706904,-5.248685,-15.684469
0.336,79.77708,16.428288,17.37277,2.8993938,-5.1973734,-15.742985
0.338,80.864716,15.395492,18.119322,2.7245526,-5.1260557,-15.788234
0.34,81.924095,14.345189,18.804537,2.546205,-5.0361776,-15.818566
0.342,82.952644,13.283685,19.425156,2.3642783,-4.929167,-15.832462
0.344,83.95129,12.2150955,19.97774,2.1786613,-4.8062186,-15.828625
0.346,84.91952,11.143638,20.461464,1.9892373,-4.6683645,-15.80611
0.348,85.85629,10.073983,20.87519,1.7959371,-4.516433,-15.764471
0.35,86.76094,9.010288,21.218464,1.5988193,-4.350961,-15.703762
0.352,87.63356,7.956399,21.490175,1.3980393,-4.1721683,-15.624455
0.354,88.47291,6.9165487,21.69051,1.1939034,-3.9799583,-15.527308
0.356,89.27764,5.8947945,21.820879,0.98680973,-3.7739766,-15.413148
0.358,90.04632,4.8946257,21.882421,0.77717876,-3.5537038,-15.282676
0.36,90.77803,3.9189749,21.876766,0.5654044,-3.318596,-15.136323
0.362,91.471466,2.9705944,21.805698,0.35183668,-3.0681074,-14.97428
0.364,92.125244,2.0517635,21.67186,0.13669348,-2.801879,-14.796534
0.366,92.73803,1.1644268,21.478926,-0.07991123,-2.5197928,-14.602908
0.368,93.30939,0.30962753,21.231081,-0.29797363,-2.2220204,-14.393276
0.37,93.83885,-0.51185036,20.932138,-0.5175991,-1.9089124,-14.167598
0.372,94.32596,-1.2994804,20.586002,-0.7389531,-1.580982,-13.926116
0.374,94.770065,-2.0529137,20.19664,-0.9622059,-1.2387426,-13.669355
0.376,95.17065,-2.772028,19.76849,-1.187501,-0.88260007,-13.398123
0.378,95.5273,-3.4570675,19.305828,-1.4149823,-0.5128653,-13.113386
0.38,95.84068,-4.108967,18.813011,-1.6447992,-0.12972593,-12.81625
0.382,96.111496,-4.7280636,18.294369,-1.8771024,0.26681685,-12.507906
0.384,96.34056,-5.3144045,17.753849,-2.1121407,0.6768458,-12.189555
0.386,96.52974,-5.8687916,17.19495,-2.350296,1.1004612,-11.86242
0.388,96.680855,-6.3915434,16.621105,-2.5920463,1.5377526,-11.5278225
0.39,96.79639,-6.882947,16.03497,-2.8380265,1.9888221,-11.187154
0.392,96.87932,-7.343172,15.438671,-3.0889804,2.453795,-10.841878
0.394,96.93329,-7.772249,14.834137,-3.34576,2.9328382,-10.493446
0.396,96.96232,-8.170168,14.223366,-3.6093283,3.4260418,-10.143314
0.398,96.971634,-8.536539,13.608311,-3.8806777,3.9334636,-9.792957
0.4,96.96664,-8.870523,12.990784,-4.1608505,4.4551053,-9.443823
0.402,96.9536,-9.171316,12.372028,-4.450882,4.9908967,-9.097204
0.404,96.93944,-9.437748,11.75322,-4.7518735,5.540527,-8.754297
0.406,96.93121,-9.668167,11.135399,-5.0649414,6.1033616,-8.416197
0.408,96.93657,-9.860649,10.519424,-5.3911552,6.6784,-8.083994
0.41,96.964615,-10.01317,9.906948,-5.7315063,7.264207,-7.7587824
0.412,97.0247,-10.123425,9.299492,-6.086822,7.8589416,-7.441722
0.414,97.12488,-10.188406,8.698593,-6.457753,8.460476,-7.13421
0.416,97.27401,-10.204738,8.106316,-6.844747,9.0664,-6.8378997
0.418,97.48344,-10.168964,7.5248947,-7.247996,9.67407,-6.5544558
0.42,97.763245,-10.077505,6.9572525,-7.6674824,10.280677,-6.2854233
0.422,98.12365,-9.926786,6.4060745,-8.103021,10.883185,-6.0321245
0.424,98.57419,-9.711834,5.8757133,-8.554354,11.478322,-5.79546
0.426,99.12422,-9.426491,5.3708,-9.021279,12.062527,-5.575675
0.428,99.783615,-9.063347,4.8925056,-9.503719,12.631932,-5.3722687
0.43,100.56094,-8.610353,4.443844,-10.001741,13.182419,-5.184002
0.432,101.45826,-8.055077,4.027508,-10.515618,13.709631,-5.0089207
0.434,102.48859,-7.398058,3.6518593,-11.045885,14.209025,-4.844289
0.436,103.669876,-6.6387157,3.3248768,-11.593285,14.675957,-4.6865854
0.438,105.001205,-5.755539,3.0571346,-12.15863,15.105994,-4.531494
0.44,106.47752,-4.7148666,2.8496513,-12.742729,15.495233,-4.3740244
0.442,108.10357,-3.4876823,2.708376,-13.346235,15.840451,-4.208448
0.444,109.88301,-2.0584946,2.6273499,-13.969496,16.139404,-4.0283103
0.446,111.830376,-0.42807388,2.6047325,-14.612471,16.391102,-3.8267844
0.448,113.954025,1.4242516,2.640871,-15.274544,16.595957,-3.5969048
0.45,116.2518,3.544716,2.740673,-15.954466,16.755991,-3.3317564
0.452,118.73181,5.969862,2.9114637,-16.650387,16.874762,-3.0246854
0.454,121.38781,8.735001,3.1524875,-17.359882,16.95723,-2.6697032
0.456,124.21911,11.856113,3.433505,-18.079983,17.009554,-2.2618363
0.458,127.21857,15.359514,3.7591934,-18.807201,17.038862,-1.7973104
0.46,130.31555,19.297852,4.120099,-19.538097,17.052177,-1.2738764
0.462,133.54028,23.720951,4.4599514,-20.26928,17.056356,-0.69142413
0.464,136.84926,28.650648,4.798376,-20.997286,17.058039,-0.051475048
0.466,140.09146,34.075783,5.0905476,-21.719044,17.062431,0.64421415
0.468,143.44154,39.80991,5.230362,-22.43195,17.073656,1.393137
0.47,147.09673,45.774582,5.176449,-23.133444,17.09577,2.190957
0.472,150.82613,52.14775,4.961216,-23.821033,17.130947,3.0326433
0.474,154.62411,58.97178,4.578884,-24.492128,17.178688,3.912735
0.476,158.4689,66.205124,4.152363,-25.145454,17.23626,4.8264723
0.478,162.32266,73.74223,3.7064667,-25.781061,17.297575,5.7701664
0.48,166.16661,81.52418,3.1085358,-26.39931,17.354156,6.7397633
0.482,169.98242,89.473465,2.35952,-27.002201,17.395025,7.7313776
0.484,173.7472,97.47467,1.5141602,-27.593433,17.405415,8.740737
0.486,177.46191,105.46813,0.44670105,-28.177048,17.365667,9.762454
0.488,181.1303,113.378265,-0.9200134,-28.762394,17.247047,10.792198
0.49,184.68607,121.15773,-2.5373917,-29.364033,17.015242,11.82321
0.492,188.13899,128.65752,-4.3388367,-29.990417,16.637825,12.845635
0.494,191.62006,135.61115,-6.221092,-30.643684,16.071856,13.84484
0.496,195.05841,141.94437,-8.186493,-31.319187,15.2707,14.807288
0.498,198.42068,147.49739,-10.245594,-32.034878,14.190023,15.775743
0.5,201.73828,152.13159,-12.286844,-32.821083,12.796714,16.765553
0.502,205.03664,155.75256,-14.17828,-33.690823,11.047131,17.737776
0.504,208.33218,158.3043,-15.794222,-34.638218,8.875018,18.67995
0.506,211.62195,159.76021,-17.020552,-35.65106,6.256594,19.604034
0.508,214.90784,160.11765,-17.75063,-36.714066,3.218976,20.549595
0.51,218.21689,159.35832,-17.881172,-37.788815,-0.19701004,21.515308
0.512,221.54396,157.48592,-17.317312,-38.83551,-3.972074,22.517546
0.514,224.84499,154.554,-15.967702,-39.83822,-8.056798,23.57975
0.516,228.09819,150.6336,-13.753353,-40.79159,-12.373246,24.70643
0.518,231.27682,145.83151,-10.623129,-41.66711,-16.841076,25.881105
0.52,234.34264,140.2792,-6.545642,-42.408005,-21.353893,27.059092
0.522,237.24985,134.12885,-1.5148872,-42.94906,-25.792442,28.163292
0.524,239.92526,127.559875,4.440789,-43.237762,-30.046972,29.114504
0.526,242.28397,120.752396,11.266486,-43.204124,-33.983913,29.823505
0.528,244.24692,113.877945,18.865486,-42.774296,-37.482403,30.215258
0.53,245.7231,107.10388,27.10802,-41.900364,-40.447266,30.239706
0.532,246.61295,100.58212,35.852295,-40.563675,-42.80071,29.869347
0.534,246.83012,94.446846,44.92185,-38.78343,-44.493706,29.096062
0.536,246.2903,88.81438,54.123497,-36.620163,-45.514557,27.921597
0.538,244.92027,83.76021,63.30661,-34.16924,-45.890846,26.349743
0.54,242.6721,79.3298,72.32325,-31.543587,-45.68502,24.389101
0.542,239.52783,75.55015,81.0078,-28.853374,-44.98628,22.054342
0.544,235.47906,72.44309,89.18787,-26.19457,-43.903152,19.371523
0.546,230.54279,69.99577,96.70752,-23.6427,-42.54986,16.385288
0.548,224.77106,68.154434,103.42229,-21.238075,-41.02158,13.165551
0.55,218.24045,66.84437,109.21889,-18.982637,-39.393467,9.803125
0.552,211.03448,65.996826,114.00424,-16.827951,-37.71322,6.377741
0.554,203.26205,65.55386,117.71416,-14.712012,-36.00076,3.035161
0.556,195.0391,65.46799,120.30252,-12.595238,-34.23113,-0.042051792
0.558,186.50638,65.666214,121.74808,-10.455535,-32.346466,-2.7300181
0.56,177.82173,66.05754,122.05759,-8.277608,-30.322048,-4.941295
0.562,169.12672,66.5789,121.262665,-6.05812,-28.149715,-6.6196327
0.564,160.56935,67.179474,119.41978,-3.8210669,-25.803604,-7.6930265
0.566,152.28929,67.82679,116.626205,-1.5908642,-23.24612,-8.149273
0.568,144.41672,68.479965,112.95883,0.6187687,-20.498121,-8.013162
0.57,137.11124,69.08487,108.531364,2.7868953,-17.616438,-7.3204403
0.572,130.40765,69.606026,103.5069,4.866287,-14.667162,-6.130535
0.574,124.39357,70.03693,97.97142,6.800932,-11.748659,-4.5274444
0.576,119.20412,70.387924,92.07155,8.551705,-8.965598,-2.6172628
0.578,114.64096,70.786736,85.985886,10.100431,-6.4100876,-0.54497695
0.58,110.563324,71.1926,79.80664,11.414389,-4.1865406,1.535201
0.582,107.217804,71.35087,73.565704,12.465119,-2.3685713,3.4592373
0.584,104.540215,71.20912,67.34631,13.248224,-0.9985595,5.0710917
0.586,102.46877,70.79667,61.13346,13.771942,-0.09996462,6.2445726
0.588,100.94307,70.17331,55.03331,14.060308,0.33347797,6.895068
0.59,99.87089,69.32814,49.265717,14.155645,0.3424611,6.9868526
0.592,99.16196,68.262054,43.86914,14.113967,-0.0009036064,6.5325813
0.594,98.734955,67.002914,38.832092,13.996067,-0.6021571,5.5831223
0.596,98.49675,65.525444,34.292732,13.863317,-1.3544569,4.2220826
0.598,98.37059,63.838856,30.283829,13.772573,-2.1515045,2.5615418
0.6,98.3508,61.946674,26.708485,13.767255,-2.900425,0.7311001
0.602,98.36212,59.957897,23.482685,13.871527,-3.52704,-1.1321135
0.604,98.26365,58.053158,20.52201,14.088861,-3.9804912,-2.8909762
0.606,98.13881,56.20912,17.857464,14.403189,-4.2389836,-4.4161158
0.608,98.01218,54.506046,15.506119,14.783858,-4.3071494,-5.593732
0.61,97.85121,53.002888,13.372532,15.19254,-4.211567,-6.3346953
0.612,97.64889,51.72817,11.379715,15.58869,-3.9940205,-6.580101
0.614,97.41639,50.699997,9.487843,15.934042,-3.7027059,-6.3031616
0.616,97.18189,49.939873,7.6857986,16.19796,-3.387608,-5.509369
0.618,96.9608,49.47519,5.975807,16.360367,-3.096234,-4.2373476
0.62,96.74298,49.36554,4.3634796,16.412354,-2.866636,-2.5554209
0.622,96.54632,49.652657,2.858307,16.355564,-2.7250543,-0.55621815
0.624,96.40544,50.337807,1.4655952,16.195694,-2.6924875,1.6466374
0.626,96.31154,51.41624,0.19340134,15.943497,-2.7825181,3.931157
0.628,96.24989,52.8582,-0.9391594,15.614353,-2.9984365,6.177168
0.63,96.204544,54.620853,-1.9162025,15.224018,-3.3378258,8.273944
0.632,96.15773,56.6502,-2.7210083,14.7862,-3.7938502,10.127824
0.634,96.1063,58.874115,-3.3321266,14.310817,-4.3563356,11.667116
0.636,96.04201,61.227776,-3.7335014,13.803946,-5.013284,12.846118
0.638,95.94002,63.653854,-3.9012833,13.268718,-5.7516246,13.646989
0.64,95.78644,66.09191,-3.8158417,12.706902,-6.556943,14.079049
0.642,95.57316,68.486465,-3.477005,12.120445,-7.4132543,14.174241
0.644,95.281235,70.78472,-2.8785439,11.5127735,-8.303643,13.980314
0.646,94.89871,72.93688,-2.0229836,10.889349,-9.210967,13.554519
0.648,94.41421,74.91452,-0.9600563,10.257631,-10.117871,12.95675
0.65,93.81094,76.69295,0.2666092,9.62685,-11.00686,12.243371
0.652,93.07222,78.24759,1.6404533,9.007186,-11.861265,11.462975
0.654,92.189476,79.554436,3.1525345,8.408959,-12.666534,10.654231
0.656,91.157646,80.60582,4.7887344,7.8416176,-13.4112425,9.846046
0.658,89.982635,81.40185,6.535284,7.313469,-14.087197,9.058108
0.66,88.670784,81.94918,8.373827,6.831578,-14.688057,8.301832
0.662,87.23222,82.25412,10.280586,6.4012895,-15.20944,7.5831504
0.664,85.67442,82.32441,12.236059,6.025878,-15.649365,6.9051895
0.666,84.0087,82.16924,14.218257,5.706363,-16.008423,6.2695923
0.668,82.24484,81.8019,16.203312,5.4414954,-16.289154,5.6775236
0.67,80.39404,81.24163,18.163742,5.2282543,-16.495314,5.1301146
0.672,78.47505,80.50467,20.076517,5.0620337,-16.631805,4.628442
0.674,76.50578,79.60862,21.927233,4.9373198,-16.704664,4.173647
0.676,74.49469,78.576065,23.703962,4.8480988,-16.720612,3.766376
0.678,72.45152,77.427414,25.39422,4.788471,-16.686565,3.4065247
0.68,70.384834,76.18062,26.983223,4.7530613,-16.609236,3.0928798
0.682,68.303055,74.85122,28.458288,4.737278,-16.494886,2.8228283
0.684,66.21629,73.456635,29.817253,4.7374744,-16.349129,2.592331
0.686,64.130714,72.0157,31.067163,4.751006,-16.176716,2.3962164
0.688,62.05838,70.543205,32.214508,4.776089,-15.981556,2.2286096
0.69,60.008408,69.052475,33.26337,4.8117013,-15.766806,2.0834627
0.692,57.98759,67.55658,34.21683,4.857416,-15.534959,1.9550924
0.694,56.003963,66.06523,35.07929,4.913252,-15.287903,1.8385711
0.696,54.064014,64.58742,35.853794,4.9795117,-15.026985,1.729991
0.698,52.170822,63.130936,36.5446,5.0566745,-14.753035,1.6265163
0.7,50.3299,61.700417,37.152573,5.1452336,-14.466488,1.5263319
0.702,48.54334,60.2991,37.68039,5.245588,-14.16756,1.4285035
0.704,46.81171,58.92788,38.13253,5.3579164,-13.856337,1.3327928
0.706,45.134556,57.58619,38.5138,5.482077,-13.5329275,1.2394123
0.708,43.511593,56.273056,38.828278,5.6175313,-13.197598,1.1488433
0.71,41.943245,54.987778,39.079712,5.7633576,-12.850821,1.0616469
0.712,40.430145,53.730156,39.271275,5.9182215,-12.493354,0.9782667
0.714,38.97303,52.500942,39.404884,6.0803833,-12.126248,0.8989496
0.716,37.573025,51.301067,39.481396,6.2477765,-11.750816,0.8236098
0.718,36.231163,50.131966,39.501255,6.4181085,-11.368586,0.7517986
0.72,34.948704,48.994514,39.46521,6.588954,-10.981231,0.68276143
0.722,33.72608,47.889816,39.3749,6.7579055,-10.590497,0.61548066
0.724,32.563374,46.818356,39.232933,6.922658,-10.198148,0.5487163
0.726,31.460438,45.780586,39.042503,7.0811467,-9.805845,0.48112345
0.728,30.416786,44.776012,38.80692,7.231618,-9.415087,0.41128945
0.73,29.431011,43.803806,38.529697,7.372668,-9.027257,0.33780384
0.732,28.50121,42.862732,38.21416,7.503217,-8.643549,0.25939083
0.734,27.625223,41.95087,37.863445,7.622514,-8.265061,0.17494297
0.736,26.800709,41.066063,37.480755,7.73008,-7.892789,0.08359504
0.738,26.024525,40.206215,37.06933,7.8256555,-7.527709,-0.015257359
0.74,25.29362,39.369038,36.63284,7.9091115,-7.170849,-0.121886134
0.742,24.604586,38.5523,36.17535,7.980444,-6.823314,-0.23626709
0.744,23.954056,37.753975,35.701214,8.039697,-6.4862537,-0.35803103
0.746,23.338245,36.971653,35.21505,8.086944,-6.1608205,-0.4865173
0.748,22.753727,36.20285,34.721443,8.122286,-5.8481665,-0.6208428
0.75,22.19698,35.44515,34.22474,8.145842,-5.5493894,-0.7599185
0.752,21.664001,34.696346,33.72954,8.15775,-5.2654576,-0.9025417
0.754,21.151173,33.954117,33.240063,8.158176,-4.997184,-1.0474821
0.756,20.654533,33.21607,32.76042,8.147324,-4.745161,-1.1935017
0.758,20.170322,32.479866,32.294765,8.125458,-4.5097113,-1.3394567
0.76,19.694881,31.74355,31.846655,8.0928955,-4.290905,-1.4842916
0.762,19.224945,31.005325,31.41935,8.050005,-4.0885468,-1.6270828
0.764,18.75703,30.263746,31.016117,7.9971886,-3.9022372,-1.7669902
0.766,18.288214,29.517609,30.639456,7.934918,-3.731361,-1.9032478
0.768,17.815851,28.765749,30.29169,7.8637667,-3.5750675,-2.0351539
0.77,17.337818,28.007416,29.974232,7.784423,-3.432282,-2.162087
0.772,16.852036,27.242287,29.687832,7.6977086,-3.3017051,-2.283492
0.774,16.357178,26.470375,29.432041,7.604588,-3.1818209,-2.3988445
0.776,15.852474,25.691463,29.205996,7.506193,-3.0708377,-2.507637
0.778,15.337514,24.905983,29.008097,7.403815,-2.9667053,-2.6093302
0.78,14.812283,24.114573,28.835815,7.298871,-2.8671317,-2.703318
0.782,14.2771,23.318237,28.68603,7.1928487,-2.7695992,-2.7889454
0.784,13.732887,22.518276,28.555227,7.0872574,-2.6714218,-2.8655298
0.786,13.18092,21.716137,28.439585,6.983549,-2.5699015,-2.932373
0.788,12.622474,20.913649,28.334484,6.882942,-2.4624596,-2.9887135
0.79,12.059172,20.112755,28.235348,6.786334,-2.3467724,-3.0337589
0.792,11.493057,19.315454,28.137463,6.694248,-2.2209501,-3.0667102
0.794,10.926452,18.523767,28.03647,6.6067824,-2.0836287,-3.0869124
0.796,10.361652,17.739925,27.92786,6.523583,-1.9340215,-3.0939069
0.798,9.801205,16.965967,27.807617,6.443838,-1.7719622,-3.087499
0.8,9.24725,16.204151,27.672049,6.366367,-1.5979006,-3.067781
0.802,8.702017,15.456482,27.518364,6.289676,-1.4128096,-3.0352643
0.804,8.167236,14.725157,27.34383,6.2120976,-1.2180722,-2.990961
0.806,7.645304,14.012092,27.146652,6.1319036,-1.0153832,-2.9362364
0.808,7.1374855,13.31912,26.925508,6.0473857,-0.8065959,-2.8727107
0.81,6.6453733,12.648006,26.679647,5.956937,-0.5936341,-2.8021894
0.812,6.1702695,12.000122,26.409079,5.859201,-0.3783406,-2.7264726
0.814,5.713206,11.376995,26.114058,5.7531266,-0.16236901,-2.6472278
0.816,5.27509,10.779772,25.79564,5.6379466,0.05285275,-2.5658581
0.818,4.856716,10.209318,25.455288,5.5132384,0.26616,-2.4834383
0.82,4.45856,9.666513,25.094719,5.378861,0.4766283,-2.400666
0.822,4.0811205,9.151848,24.71594,5.2348886,0.68350184,-2.317873
0.824,3.7246714,8.66593,24.321476,5.0815315,0.8861747,-2.2350194
0.826,3.389395,8.209095,23.913792,4.919052,1.0841128,-2.1518712
0.828,3.0755448,7.7815485,23.495518,4.7476883,1.2767936,-2.068112
0.83,2.7829978,7.3833523,23.069365,4.56758,1.4636296,-1.9833828
0.832,2.5118337,7.0143585,22.637918,4.3787193,1.6439711,-1.8973866
0.834,2.2620225,6.674417,22.203568,4.1809735,1.8171666,-1.8099464
0.836,2.0336514,6.3629713,21.768772,3.9741395,1.9825382,-1.7210853
0.838,1.8265507,6.0795355,21.335966,3.757923,2.1394432,-1.6310558
0.84,1.640532,5.823377,20.907373,3.5320277,2.2872508,-1.5403731
0.842,1.4754663,5.593694,20.485308,3.2962403,2.4253745,-1.4498533
0.844,1.3310244,5.3895836,20.07168,3.0505013,2.5533004,-1.3605397
0.846,1.2066822,5.210098,19.668386,2.794928,2.6705856,-1.2736832
0.848,1.1022035,5.0538616,19.277277,2.5298731,2.7768998,-1.1905992
0.85,1.0172325,4.919441,18.899822,2.2559648,2.8720188,-1.1126584
0.852,0.95111346,4.8055,18.537115,1.9741232,2.9558606,-1.0412521
0.854,0.90331566,4.7103233,18.190125,1.685539,3.0285747,-0.97772324
0.856,0.87331295,4.632347,17.859344,1.3917034,3.0905843,-0.92324275
0.858,0.8602847,4.569888,17.545036,1.0943544,3.14258,-0.8787515
0.86,0.8631822,4.521259,17.247124,0.79544234,3.1855462,-0.8450206
0.862,0.88136774,4.4845133,16.965242,0.497154,3.2207105,-0.8225717
0.864,0.9137777,4.4579043,16.698814,0.20180136,3.2495048,-0.81159633
0.866,0.9596682,4.439787,16.44708,-0.08831799,3.2734482,-0.81200176
0.868,1.018372,4.4286046,16.208683,-0.37101233,3.2940784,-0.82337165
0.87,1.0891218,4.4227705,15.982361,-0.6442421,3.312939,-0.8449784
0.872,1.1711016,4.4208837,15.76672,-0.90629786,3.3314571,-0.87587833
0.874,1.2636595,4.4216957,15.55996,-1.1558836,3.3508453,-0.91494256
0.876,1.3662581,4.424034,15.360605,-1.3922011,3.3720872,-0.9609672
0.878,1.478178,4.4272637,15.167117,-1.6149632,3.3959074,-1.0127344
0.88,1.5987064,4.4304924,14.9782915,-1.8244073,3.4227657,-1.0690509
0.882,1.7274306,4.4330277,14.792939,-2.021281,3.4528465,-1.1288183
0.884,1.8636878,4.43445,14.610373,-2.2067623,3.4860823,-1.1910727
0.886,2.0067148,4.4347734,14.429311,-2.3823502,3.5221782,-1.254992
0.888,2.1560378,4.434048,14.248817,-2.5497537,3.5606077,-1.3198535
0.89,2.3111918,4.432428,14.068459,-2.710752,3.6007328,-1.3849932
0.892,2.4715981,4.430282,13.887622,-2.8670595,3.6418424,-1.449808
0.894,2.6367881,4.4280243,13.705678,-3.0202084,3.683232,-1.513762
0.896,2.8059611,4.4264183,13.522111,-3.1714787,3.7242706,-1.5763843
0.898,2.9788852,4.426071,13.336688,-3.321905,3.7644067,-1.6372987
0.9,3.1550417,4.4277763,13.148915,-3.4722342,3.8032253,-1.6962394
0.902,3.3337288,4.432553,12.958542,-3.622941,3.8404655,-1.7530531
0.904,3.514446,4.44153,12.764787,-3.7742617,3.8760235,-1.8077114
0.906,3.6970415,4.455713,12.566931,-3.926233,3.909954,-1.8603323
0.908,3.881141,4.4762535,12.363926,-4.078774,3.9423952,-1.9111539
0.91,4.0668497,4.5039077,12.154636,-4.2317457,3.973555,-1.9604951
0.912,4.2541685,4.53962,11.937505,-4.3850117,4.0036545,-2.0087485
0.914,4.443593,4.5839405,11.711124,-4.5384507,4.032906,-2.056323
0.916,4.6346135,4.637699,11.473778,-4.6920314,4.0614557,-2.1036067
0.918,4.8277974,4.7014484,11.223976,-4.8457966,4.089321,-2.1509511
0.92,5.0229115,4.776006,10.960187,-4.9998965,4.1164083,-2.1985743
0.922,5.219963,4.8621073,10.680778,-5.1545353,4.1425,-2.246587
0.924,5.4191837,4.960236,10.383858,-5.309974,4.1672173,-2.2949858
0.926,5.620748,5.071002,10.067609,-5.466521,4.190069,-2.3435977
0.928,5.824663,5.1949687,9.7301655,-5.6244845,4.210517,-2.3921425
0.93,6.0308685,5.332679,9.369577,-5.7841625,4.227944,-2.44025
0.932,6.2394705,5.484329,8.98405,-5.9458323,4.2417064,-2.4875128
0.934,6.4505424,5.649847,8.571931,-6.109727,4.251186,-2.5335438
0.936,6.664279,5.828911,8.131664,-6.2760124,4.2557936,-2.578006
0.938,6.8806486,6.021351,7.661731,-6.444803,4.255036,-2.6206806
0.94,7.09967,6.2267456,7.160741,-6.6161838,4.248509,-2.6614473
0.942,7.321081,6.4445667,6.6276093,-6.7901697,4.2359376,-2.7003345
0.944,7.544559,6.6741567,6.0615597,-6.9667425,4.217154,-2.7374856
0.946,7.7696085,6.9147043,5.461935,-7.145848,4.1920547,-2.7731953
0.948,7.995636,7.165475,4.8286076,-7.327481,4.1605444,-2.8078341
0.95,8.222047,7.425299,4.161961,-7.5116887,4.1224365,-2.8418474
0.952,8.448021,7.692647,3.4625597,-7.6986084,4.077428,-2.8756695
0.954,8.672514,7.9656863,2.7317586,-7.8884583,4.025001,-2.9096723
0.956,8.8956585,8.241775,1.9706463,-8.081561,3.964468,-2.9441962
0.958,9.116493,8.5187235,1.1812673,-8.278313,3.894958,-2.9795232
0.96,9.333109,8.794202,0.36694002,-8.479157,3.8153813,-3.0158281
0.962,9.544625,9.065519,-0.46888924,-8.684583,3.7244298,-3.0532112
0.964,9.749834,9.32985,-1.3222911,-8.895059,3.6207361,-3.0916805
0.966,9.94769,9.584369,-2.1888807,-9.110968,3.503007,-3.1311784
0.968,10.137084,9.826513,-3.063881,-9.332599,3.3701282,-3.1716146
0.97,10.316915,10.0534,-3.941919,-9.560154,3.2212598,-3.2129707
0.972,10.485802,10.262329,-4.8169246,-9.793655,3.0558925,-3.2552638
0.974,10.642846,10.450504,-5.682515,-10.032998,2.8738806,-3.2985122
0.976,10.787468,10.615416,-6.532565,-10.277993,2.675445,-3.3427298
0.978,10.918757,10.75478,-7.360627,-10.528372,2.4610784,-3.3878515
0.98,11.036426,10.866741,-8.160499,-10.78388,2.23145,-3.4337044
0.982,11.140217,10.9497595,-8.926172,-11.044283,1.987273,-3.479895
0.984,11.22975,11.003167,-9.651518,-11.3093195,1.7293012,-3.5256603
0.986,11.304594,11.026537,-10.330768,-11.578773,1.4581662,-3.5698693
0.988,11.364617,11.019717,-10.958299,-11.852414,1.1743779,-3.6110208
0.99,11.409751,10.983493,-11.528791,-12.129769,0.8787266,-3.647392
0.992,11.440295,10.918885,-12.037296,-12.41005,0.5722643,-3.677173
0.994,11.456298,10.827633,-12.47909,-12.692011,0.25637573,-3.6985626
0.996,11.457621,10.712184,-12.8498535,-12.973854,-0.06699067,-3.7098584
0.998,11.444172,10.575357,-13.145954,-13.253065,-0.39525783,-3.7095752
1,11.415975,10.420579,-13.364117,-13.526403,-0.7252472,-3.696414
1.002,11.372694,10.252191,-13.502029,-13.789923,-1.0533118,-3.669252
1.004,11.313935,10.073922,-13.558472,-14.039086,-1.3753401,-3.6270483
1.006,11.239834,9.889778,-13.531643,-14.268932,-1.6868675,-3.568812
1.008,11.1491585,9.704594,-13.422094,-14.474322,-1.9831383,-3.4936774
1.01,11.042191,9.523028,-13.2313175,-14.650194,-2.25933,-3.4008894
1.012,10.918629,9.349815,-12.961649,-14.791778,-2.5105555,-3.2898602
1.014,10.778122,9.189616,-12.6164465,-14.894881,-2.7319245,-3.160355
1.016,10.620268,9.047098,-12.200636,-14.956113,-2.9187672,-3.0125797
1.018,10.445214,8.926314,-11.720234,-14.9730835,-3.0668685,-2.8471932
1.02,10.253142,8.831009,-11.182641,-14.944503,-3.1726322,-2.665296
1.022,10.044689,8.76417,-10.596172,-14.870247,-3.2332735,-2.4683032
1.024,9.820554,8.728184,-9.970005,-14.7513275,-3.2469444,-2.257872
1.026,9.581755,8.724623,-9.313959,-14.589822,-3.2129035,-2.0357718
1.028,9.329764,8.754566,-8.63829,-14.388724,-3.1316571,-1.8038218
1.03,9.066179,8.818206,-7.953331,-14.151708,-3.0049717,-1.5637581
1.032,8.792707,8.9151,-7.2693653,-13.882886,-2.8357456,-1.3173283
1.034,8.511017,9.044115,-6.5958414,-13.586767,-2.6280339,-1.0663513
1.036,8.223007,9.203497,-5.9420004,-13.26801,-2.387171,-0.81264377
1.038,7.9307942,9.391018,-5.315929,-12.931082,-2.1191912,-0.55814385
1.04,7.6366262,9.603514,-4.724783,-12.580114,-1.830667,-0.3049451
1.042,7.3426247,9.837795,-4.1747355,-12.218844,-1.5284699,-0.05526018
1.044,7.0509577,10.090206,-3.670852,-11.850592,-1.2196362,0.18865728
1.046,6.763339,10.357219,-3.2165532,-11.478144,-0.9107126,0.42466557
1.048,6.481859,10.63439,-2.8141043,-11.103807,-0.6074485,0.65073466
1.05,6.20862,10.917393,-2.4643805,-10.729462,-0.3146659,0.86509526
1.052,5.945616,11.201834,-2.1672535,-10.3566885,-0.036040433,1.0663753
1.054,5.694843,11.483421,-1.9214435,-9.986781,0.22604422,1.2536069
1.056,5.45782,11.757903,-1.7247502,-9.620836,0.4704452,1.4262054
1.058,5.236175,12.021198,-1.5742699,-9.259801,0.6970942,1.583942
1.06,5.0311584,12.269619,-1.4665766,-8.904506,0.9067164,1.7268622
1.062,4.844214,12.499949,-1.3977278,-8.55567,1.1006714,1.8552667
1.064,4.6764536,12.709425,-1.3635991,-8.213851,1.2807206,1.9695747
1.066,4.527785,12.895931,-1.3596714,-7.8794785,1.4488169,2.070229
1.068,4.3992357,13.057113,-1.3821113,-7.552777,1.6068912,2.1576529
1.07,4.2925124,13.191005,-1.4276195,-7.233731,1.7568166,2.2322404
1.072,4.207779,13.29617,-1.4927483,-6.9221396,1.900248,2.2943509
1.074,4.145296,13.371527,-1.574337,-6.6176434,2.0385273,2.3443246
1.076,4.1051555,13.416246,-1.6696057,-6.319743,2.1727362,2.3825746
1.078,4.0874043,13.429831,-1.7761836,-6.027856,2.303693,2.4096556
1.08,4.0918713,13.412303,-1.892242,-5.741376,2.4320285,2.4262648
1.082,4.1184683,13.364102,-2.016859,-5.4597125,2.5582442,2.4332354
1.084,4.1666,13.286079,-2.149107,-5.1823597,2.682767,2.4315248
1.086,4.23521,13.179215,-2.2880297,-4.908897,2.8059585,2.4222105
1.088,4.3235784,13.044808,-2.4330573,-4.6389112,2.9282541,2.4064407
1.09,4.430283,12.884209,-2.583711,-4.3721147,3.050277,2.385189
1.092,4.554122,12.699061,-2.7396364,-4.108537,3.1724124,2.3592918
1.094,4.6938057,12.490873,-2.900909,-3.8482778,3.2950594,2.3295095
1.096,4.8479195,12.26164,-3.0675879,-3.591575,3.4185164,2.296443
1.098,5.0148387,12.0134,-3.2397819,-3.3387601,3.542929,2.2605305
1.1,5.192707,11.748175,-3.4176416,-3.0902586,3.6682346,2.222
1.102,5.379384,11.468038,-3.6011844,-2.8465338,3.7941947,2.1809301
1.104,5.573083,11.175039,-3.7907922,-2.6080556,3.9204483,2.1372614
1.106,5.7721357,10.870909,-3.986289,-2.3752763,4.0465565,2.0908234
1.108,5.974553,10.55746,-4.1876364,-2.1486278,4.1719913,2.0413604
1.11,6.178182,10.236378,-4.3946185,-1.9284744,4.2961864,1.9885616
1.112,6.381476,9.908783,-4.606701,-1.715132,4.4185305,1.9320974
1.114,6.5827446,9.576628,-4.82288,-1.5088348,4.538481,1.8716784
1.116,6.7801,9.241421,-5.04339,-1.3097483,4.6555057,1.8070338
1.118,6.97253,8.903895,-5.266629,-1.1179794,4.769138,1.7379444
1.12,7.157921,8.5650215,-5.4912333,-0.9335841,4.8789625,1.6642668
1.122,7.3351336,8.225262,-5.7160096,-0.7565641,4.98465,1.5859882
1.124,7.5030737,7.885236,-5.9398103,-0.58687043,5.08596,1.5032126
1.126,7.660845,7.545238,-6.1610465,-0.424426,5.182736,1.416174
1.128,7.8074074,7.205866,-6.378333,-0.26911855,5.2749195,1.3252648
1.13,7.9422436,6.867592,-6.5903416,-0.120813444,5.362519,1.2310323
1.132,8.064782,6.5308743,-6.795799,0.02064526,5.445625,1.13415
1.134,8.174798,6.1961718,-6.9936795,0.15541467,5.524341,1.035414
1.136,8.272312,5.863895,-7.1832433,0.2836694,5.598813,0.93569523
1.138,8.357334,5.5344567,-7.363765,0.4055948,5.6692023,0.83590555
1.14,8.430241,5.2082033,-7.5348377,0.5213688,5.735652,0.7369685
1.142,8.491293,4.8855104,-7.696188,0.6311891,5.7982726,0.6397331
1.144,8.54121,4.566705,-7.8475266,0.7352571,5.8571744,0.54498005
1.146,8.580642,4.252132,-7.9885626,0.8337847,5.912422,0.45338452
1.148,8.610055,3.9421635,-8.11945,0.9269855,5.9640384,0.3654772
1.15,8.630215,3.6372488,-8.240165,1.0150719,6.0120254,0.28166032
1.152,8.64181,3.3378034,-8.350769,1.0982755,6.0563455,0.20219278
1.154,8.645545,3.0441368,-8.4514065,1.1768057,6.0969114,0.12720108
1.156,8.64221,2.7564707,-8.542387,1.2508926,6.1336074,0.056697488
1.158,8.632438,2.4752707,-8.623843,1.3207407,6.1662617,-0.009419918
1.16,8.616953,2.2008348,-8.696157,1.3865515,6.1946487,-0.07134223
1.162,8.596328,1.9332772,-8.75956,1.4485297,6.2185535,-0.12931454
1.164,8.571025,1.6727602,-8.814384,1.506871,6.2377496,-0.18362379
1.166,8.541697,1.4194376,-8.860935,1.5617855,6.2520103,-0.23462558
1.168,8.508802,1.1733603,-8.89942,1.6135004,6.2611423,-0.28268313
1.17,8.472643,0.9345534,-8.930084,1.6622257,6.2649894,-0.3281994
1.172,8.433442,0.7029908,-8.953098,1.708196,6.2634077,-0.37158823
1.174,8.391435,0.47859907,-8.968586,1.7516321,6.256291,-0.41325593
1.176,8.347006,0.26115704,-8.976541,1.7927401,6.243564,-0.45358872
1.178,8.30028,0.050503492,-8.97674,1.8317108,6.2251987,-0.4929266
1.18,8.251525,-0.15370345,-8.969239,1.868712,6.2012243,-0.53155994
1.182,8.200802,-0.35167766,-8.953818,1.9038739,6.171705,-0.5697205
1.184,8.148406,-0.5436981,-8.930356,1.9372947,6.1367493,-0.60755646
1.186,8.094308,-0.7300303,-8.898634,1.9690425,6.0965114,-0.6451254
1.188,8.0387335,-0.9111173,-8.858434,1.9991734,6.0512366,-0.6824031
1.19,7.981886,-1.0872653,-8.809744,2.0277188,6.0012045,-0.7192918
1.192,7.9239516,-1.2589369,-8.752286,2.0547113,5.9467564,-0.7556256
1.194,7.8652687,-1.4264715,-8.685956,2.0801969,5.888333,-0.7911912
1.196,7.8061733,-1.5903115,-8.610814,2.1042213,5.826436,-0.8257654
1.198,7.7469354,-1.7509437,-8.5267515,2.1268625,5.7616067,-0.85911024
1.2,7.688013,-1.9088326,-8.433804,2.1482282,5.6944456,-0.8910403
1.202,7.629693,-2.0644798,-8.332157,2.1684551,5.6255684,-0.92138886
1.204,7.5725403,-2.218294,-8.222014,2.1877193,5.555611,-0.9500706
1.206,7.5170355,-2.3707538,-8.103603,2.206218,5.4851713,-0.9770609
1.208,7.4634285,-2.5223224,-7.9773664,2.2241917,5.414852,-1.0023837
1.21,7.412367,-2.6734836,-7.843769,2.2418704,5.345205,-1.0261265
1.212,7.3640633,-2.8244815,-7.703482,2.2594745,5.27672,-1.0484154
1.214,7.3190446,-2.9757745,-7.5569396,2.277189,5.209834,-1.0693958
1.216,7.277316,-3.127537,-7.4050426,2.2951353,5.1449404,-1.0891867
1.218,7.239235,-3.2799501,-7.2485137,2.3133643,5.082374,-1.1078892
1.22,7.2049584,-3.4332478,-7.088262,2.3318434,5.022443,-1.1255572
1.222,7.1743693,-3.5873573,-6.925039,2.3504584,4.965409,-1.1421857
1.224,7.1476035,-3.7422981,-6.759938,2.369041,4.91148,-1.1576942
1.226,7.124241,-3.8977103,-6.593807,2.3873556,4.8608265,-1.1719629
1.228,7.1043353,-4.053378,-6.427664,2.4051383,4.8135405,-1.1848086
1.23,7.0873427,-4.208855,-6.26255,2.4220948,4.769649,-1.1959955
1.232,7.0729065,-4.363422,-6.0994244,2.4379363,4.7290487,-1.205219
1.234,7.0604906,-4.516453,-5.939046,2.452393,4.6915326,-1.2121371
1.236,7.0495963,-4.667118,-5.7823744,2.4652374,4.656805,-1.2163721
1.238,7.039671,-4.8144836,-5.6301184,2.4762774,4.6244874,-1.2175393
1.24,7.0301633,-4.957509,-5.482948,2.4853745,4.594107,-1.2152176
1.242,7.0203657,-5.095051,-5.341444,2.4924326,4.5651217,-1.2090254
1.244,7.009663,-5.225922,-5.2060866,2.4974144,4.536998,-1.1985813
1.246,6.9976115,-5.34896,-5.0772023,2.5003424,4.50921,-1.183588
1.248,6.9836955,-5.4630914,-4.955097,2.5013094,4.481276,-1.163791
1.25,6.9674053,-5.567088,-4.839786,2.5004416,4.4528112,-1.139008
1.252,6.9482713,-5.659774,-4.7312055,2.4979007,4.4235253,-1.1091732
1.254,6.9260077,-5.740054,-4.629423,2.4938807,4.3932233,-1.074308
1.256,6.9003215,-5.807049,-4.5342226,2.4885902,4.3618355,-1.0345498
1.258,6.871229,-5.859935,-4.4450727,2.4822316,4.329366,-0.99012905
1.26,6.83864,-5.8982387,-4.3616104,2.474993,4.295903,-0.9413861
1.262,6.8023906,-5.921313,-4.2833376,2.4670312,4.261557,-0.8887597
1.264,6.762588,-5.928887,-4.209599,2.4584858,4.226504,-0.83275205
1.266,6.719472,-5.9208755,-4.1398916,2.4494672,4.190945,-0.7738903
1.268,6.673135,-5.897308,-4.0735073,2.4400425,4.1550784,-0.7127601
1.27,6.6237307,-5.858361,-4.0097356,2.4302464,4.119062,-0.64998364
1.272,6.571518,-5.8043222,-3.947832,2.420081,4.0830636,-0.5861759
1.274,6.516758,-5.7357764,-3.8871694,2.4094958,4.047197,-0.5219605
1.276,6.459855,-5.653395,-3.8269603,2.3984056,4.0115337,-0.45794445
1.278,6.401025,-5.5579762,-3.7664373,2.386685,3.9760985,-0.39467323
1.28,6.3406706,-5.4505005,-3.704893,2.3741858,3.9408643,-0.33258867
1.282,6.279187,-5.331902,-3.6416516,2.3607621,3.9057765,-0.27208453
1.284,6.216893,-5.203376,-3.575992,2.3463168,3.870751,-0.21344662
1.286,6.154119,-5.0659223,-3.507288,2.3307664,3.8357053,-0.15686274
1.288,6.091395,-4.9207993,-3.4349313,2.314092,3.8005722,-0.10242915
1.29,6.028779,-4.769124,-3.3582616,2.2963312,3.7653058,-0.050171733
1.292,5.9669,-4.6120257,-3.276673,2.2775793,3.729909,-5.173683e-05
1.294,5.9059944,-4.450594,-3.1897945,2.257988,3.694427,0.047992706
1.296,5.84667,-4.2860146,-3.0971603,2.237751,3.6589885,0.09407389
1.298,5.789165,-4.1192684,-2.998434,2.2170758,3.6237812,0.13827181
1.3,5.7338457,-3.9512117,-2.893313,2.1961606,3.5890436,0.18066543
1.302,5.6811028,-3.7828019,-2.781643,2.1751933,3.5550585,0.22131133
1.304,5.631145,-3.6148012,-2.6633775,2.154346,3.5221307,0.2602352
1.306,5.58426,-3.4478788,-2.538633,2.1337729,3.4905958,0.29746562
1.308,5.540663,-3.2825813,-2.4076607,2.113584,3.4607923,0.33302158
1.31,5.5003304,-3.1192708,-2.2707868,2.0938678,3.4330282,0.366965
1.312,5.4631753,-2.9582553,-2.1283762,2.0746784,3.407555,0.39937449
1.314,5.4292035,-2.7997248,-1.9810847,2.0560358,3.3845603,0.4304043
1.316,5.3982897,-2.6436949,-1.8294547,2.0379367,3.3641524,0.46027625
1.318,5.37022,-2.4898653,-1.6743178,2.020331,3.3463297,0.489268
1.32,5.344523,-2.3379328,-1.5164475,2.0031478,3.3309684,0.5176988
1.322,5.3209386,-2.1876283,-1.3566828,1.9862856,3.317849,0.5459674
1.324,5.298964,-2.0384502,-1.1959939,1.9696088,3.3066707,0.5745076
1.326,5.278134,-1.8897824,-1.0352079,1.9529428,3.297016,0.60377175
1.328,5.257827,-1.741014,-0.875239,1.9361081,3.2884192,0.63419896
1.33,5.2373786,-1.5913146,-0.717063,1.9188919,3.280371,0.66620845
1.332,5.2162147,-1.4400268,-0.56147885,1.9010671,3.2723384,0.70013475
1.334,5.1935453,-1.2865002,-0.40930903,1.8824079,3.2637877,0.73623335
1.336,5.168937,-1.1301225,-0.26134765,1.8626615,3.2541835,0.77469593
1.338,5.1416216,-0.9702549,-0.1181463,1.8415604,3.2430081,0.8155894
1.34,5.1111927,-0.8064405,0.019863486,1.8188671,3.2297812,0.8588882
1.342,5.0770917,-0.63830215,0.15206563,1.7943753,3.214064,0.90447587
1.344,5.038941,-0.46554083,0.2782346,1.7678913,3.1954656,0.9521464
1.346,4.9962554,-0.28798634,0.3981309,1.7392745,3.1736398,1.0015901
1.348,4.9489317,-0.10575244,0.5115303,1.7084094,3.1482863,1.0524186
1.35,4.8968277,0.080936104,0.6184125,1.6752166,3.1191528,1.1041911
1.352,4.8401217,0.2715587,0.71875954,1.639655,3.0860367,1.1564481
1.354,4.778974,0.46554533,0.81282914,1.6016977,3.0488243,1.2087346
1.356,4.713725,0.66214615,0.90081924,1.5613253,3.0074847,1.26058
1.358,4.644548,0.8603969,0.98287183,1.5185357,2.9620862,1.3115567
1.36,4.572154,1.0590856,1.0593799,1.473305,2.9128032,1.3612567
1.362,4.4971266,1.2570689,1.1306565,1.4256234,2.8598938,1.4092941
1.364,4.4198675,1.4529511,1.1969749,1.3754704,2.8037245,1.4552913
1.366,4.3411226,1.645546,1.2586452,1.3228409,2.7447548,1.4988995
1.368,4.2614927,1.8332117,1.3159074,1.2677531,2.6834953,1.5397698
1.37,4.181625,2.0148141,1.3691599,1.2102586,2.6204844,1.5775738
1.372,4.1021056,2.1890342,1.4186634,1.1504596,2.5562553,1.6120263
1.374,4.023333,2.3547904,1.4645368,1.0885267,2.4913325,1.6428806
1.376,3.9456604,2.5110407,1.5070984,1.0246783,2.4261973,1.6699628
1.378,3.8695521,2.6567745,1.5465491,0.9592027,2.3612547,1.6931934
1.38,3.7952335,2.7912195,1.5831387,0.89244395,2.2968507,1.7125919
1.382,3.7229433,2.9136698,1.6168861,0.824768,2.2332592,1.7282889
1.384,3.6529388,3.0236995,1.6480726,0.75656503,2.1706975,1.7405277
1.386,3.584793,3.1211286,1.6766772,0.6881919,2.109355,1.749677
1.388,3.5184565,3.2058556,1.7024752,0.6199652,2.0493827,1.7561674
1.39,3.4536164,3.2781649,1.7254288,0.55216956,1.9909338,1.7604841
1.392,3.3897543,3.3383238,1.7455313,0.48502615,1.9341552,1.7631088
1.394,3.3265538,3.3868558,1.7625564,0.41869408,1.8791965,1.7645073
1.396,3.2632506,3.424462,1.77633,0.3532814,1.8262092,1.7650493
1.398,3.1990492,3.4519958,1.7867036,0.28887367,1.7753382,1.7650284
1.4,3.1333294,3.4704585,1.7936525,0.22550811,1.7267253,1.7646662
1.402,3.065277,3.4807491,1.7970699,0.16320457,1.6804789,1.7640778
1.404,2.9944398,3.483852,1.7971807,0.101958826,1.6366494,1.7633058
1.406,2.9201236,3.4808593,1.7939957,0.041743755,1.5952405,1.7623281
1.408,2.8418996,3.472761,1.7874925,-0.017480731,1.5561867,1.7611148
1.41,2.7594268,3.4604702,1.7778583,-0.075788915,1.5193386,1.7596397
1.412,2.672335,3.4450288,1.7651805,-0.13329256,1.4844859,1.757899
1.414,2.5804405,3.4271474,1.7496976,-0.19013295,1.4513632,1.7559171
1.416,2.483481,3.4075117,1.7318138,-0.24648188,1.4196724,1.7537371
1.418,2.3814642,3.386664,1.7119021,-0.3024976,1.3891084,1.751393
1.42,2.2745695,3.3650715,1.6903667,-0.35834506,1.3593752,1.748859
1.422,2.1629128,3.343088,1.6676593,-0.41415536,1.3302518,1.7460308
1.424,2.0465114,3.3209856,1.6444356,-0.47002482,1.3016073,1.7427379
1.426,1.9258013,3.2987525,1.6212772,-0.5260052,1.2734053,1.7386937
1.428,1.8012776,3.2762997,1.5988921,-0.5821035,1.2456923,1.7335447
1.43,1.673545,3.2533646,1.5780427,-0.6382475,1.2185855,1.7268606
1.432,1.5431089,3.22981,1.5594212,-0.69432193,1.1922811,1.7182153
1.434,1.4106865,3.2051883,1.543726,-0.7501668,1.1669931,1.7072513
1.436,1.2769802,3.1792123,1.5316842,-0.80554926,1.1429291,1.6937351
1.438,1.1427875,3.151324,1.5240654,-0.86018324,1.1202412,1.6775608
1.44,1.0088575,3.1209676,1.5215263,-0.91370445,1.0990131,1.6587365
1.442,0.8760263,3.087609,1.5245789,-0.96569204,1.0792598,1.6373918
1.444,0.7451447,3.0507278,1.533865,-1.0156667,1.0609819,1.6137342
1.446,0.61714303,3.0098774,1.549693,-1.0631386,1.0442246,1.5880178
1.448,0.49279743,2.9645233,1.572376,-1.1076295,1.0291115,1.5604805
1.45,0.37317216,2.9142563,1.6020449,-1.1487141,1.0159038,1.5313296
1.452,0.25897646,2.8587117,1.6389645,-1.1860641,1.0050329,1.500694
1.454,0.15106319,2.7976267,1.6828979,-1.2194382,0.9970929,1.4686166
1.456,0.050284833,2.730856,1.733782,-1.2487208,0.9927839,1.4350951
1.458,-0.042711765,2.6583548,1.7913876,-1.2739277,0.9928474,1.4001157
1.46,-0.12742114,2.580127,1.8553993,-1.295181,0.997983,1.3636962
1.462,-0.2032345,2.4963725,1.9252094,-1.3126693,1.0087686,1.3259163
1.464,-0.26967993,2.4073002,2.00032,-1.3266155,1.0255902,1.2869713
1.466,-0.32640192,2.313318,2.0800216,-1.3372943,1.0485692,1.2471102
1.468,-0.37312958,2.2148614,2.163715,-1.3449669,1.0776178,1.2066623
1.47,-0.40976784,2.1125536,2.2505982,-1.349864,1.1124784,1.1660254
1.472,-0.43617803,2.0068614,2.3398454,-1.3522063,1.1527216,1.125573
1.474,-0.45247006,1.8985137,2.4307923,-1.3521965,1.1978629,1.0856538
1.476,-0.4588214,1.7881068,2.5226731,-1.3500166,1.2473954,1.0465194
1.478,-0.4556509,1.6763843,2.6146932,-1.3458204,1.3008287,1.0082655
1.48,-0.4432177,1.5640199,2.7061088,-1.3397578,1.3577627,0.9708991
1.482,-0.4221068,1.4515845,2.7963045,-1.3319545,1.4178672,0.9343127
1.484,-0.39281198,1.3397061,2.8846388,-1.3225136,1.4808805,0.89830434
1.486,-0.35602188,1.2290009,2.9705174,-1.311511,1.5465933,0.8626231
1.488,-0.31247663,1.1201552,3.0532951,-1.2989855,1.6148251,0.82698643
1.49,-0.26313794,1.0138528,3.1323888,-1.2849598,1.685415,0.7911312
1.492,-0.20865291,0.9105972,3.2074554,-1.2694532,1.7582378,0.75488436
1.494,-0.15000547,0.8110052,3.277985,-1.2524728,1.8331714,0.71818674
1.496,-0.08759074,0.7153638,3.3436863,-1.2340301,1.9101145,0.6810644
1.498,-0.022413252,0.6242029,3.4043524,-1.2141585,1.9889618,0.6436305
1.5,0.0449604,0.5378975,3.4596295,-1.1928836,2.0696023,0.6060688
1.502,0.11386355,0.4567404,3.5092802,-1.1702552,2.1519272,0.5686188
1.504,0.18367924,0.38110763,3.5530007,-1.1463174,2.2358382,0.53152734
1.506,0.25405356,0.31119713,3.590621,-1.1211274,2.321234,0.4950579
1.508,0.32460833,0.24728382,3.621795,-1.0947651,2.408005,0.45945975
1.51,0.39494205,0.1895044,3.6461995,-1.0673027,2.4960628,0.42495406
1.512,0.46472144,0.13810933,3.6635065,-1.0388082,2.5852947,0.39170572
1.514,0.53354836,0.09333769,3.6734405,-1.0093484,2.6755702,0.35981914
1.516,0.60124743,0.05535736,3.6758237,-0.97899693,2.7667332,0.32932353
1.518,0.6677497,0.02418711,3.6706247,-0.9478096,2.8586063,0.3001858
1.52,0.73289794,-0.00010475516,3.6577287,-0.9158136,2.9509878,0.27233475
1.522,0.79664856,-0.017573476,3.6371336,-0.8830643,3.043611,0.24563445
1.524,0.8591651,-0.02812624,3.608807,-0.8496331,3.1361542,0.21988212
1.526,0.920677,-0.031906426,3.5727756,-0.8155688,3.2283018,0.19485696
1.528,0.9812642,-0.02908887,3.5290473,-0.7809333,3.3196843,0.17031479
1.53,1.0410838,-0.019891903,3.477841,-0.745811,3.4099183,0.14602546
1.532,1.1004136,-0.004625052,3.419295,-0.7102708,3.498644,0.121773615
1.534,1.1594833,0.0163524,3.3535695,-0.6743797,3.5855029,0.09735069
1.536,1.2183585,0.042785197,3.2808516,-0.63822126,3.670171,0.072583124
1.538,1.277226,0.07426177,3.2015238,-0.60186774,3.752358,0.04734552
1.54,1.3362056,0.11037341,3.1159449,-0.5653647,3.8318355,0.021520808
1.542,1.3955178,0.15061018,3.0245285,-0.5287477,3.9084346,-0.0049695373
1.544,1.4552636,0.19460166,2.9276817,-0.4920267,3.9820576,-0.032194376
1.546,1.5156616,0.24169996,2.825872,-0.455163,4.0526676,-0.060227856
1.548,1.5767478,0.2914525,2.7194915,-0.41811907,4.1202803,-0.08914229
1.55,1.6386989,0.3432834,2.6090977,-0.38084525,4.1849475,-0.11899519
1.552,1.7016068,0.3967019,2.49514,-0.34326273,4.246748,-0.14985667
1.554,1.7654659,0.45118916,2.3781066,-0.30531394,4.3057857,-0.181789
1.556,1.8302377,0.5060356,2.258547,-0.26694024,4.36216,-0.21485361
1.558,1.8960305,0.5609164,2.1368916,-0.22810811,4.415965,-0.24908617
1.56,1.9626263,0.61518276,2.013598,-0.18879855,4.4672832,-0.28452247
1.562,2.0302277,0.6684232,1.8890096,-0.1490081,4.5161943,-0.32117343
1.564,2.0986624,0.72017384,1.7635396,-0.108760834,4.5627375,-0.35903966
1.566,2.1679049,0.77004325,1.6374519,-0.06809592,4.6069746,-0.39809334
1.568,2.2377007,0.81776595,1.51107,-0.027093172,4.648935,-0.43827462
1.57,2.3081667,0.86295027,1.384655,0.014154971,4.6886616,-0.47949648
1.572,2.379139,0.90547955,1.2585624,0.055541098,4.726185,-0.5216407
1.574,2.4503603,0.9451704,1.1327902,0.09694755,4.761543,-0.5645706
1.576,2.5217922,0.9819788,1.0075803,0.13824773,4.794771,-0.60811365
1.578,2.593277,1.0158538,0.88299453,0.1793046,4.8259134,-0.6520972
1.58,2.6647074,1.0468237,0.7592203,0.2199536,4.8549876,-0.6963243
1.582,2.7360098,1.0750204,0.63629764,0.2600509,4.8820305,-0.7406154
1.584,2.8069065,1.1005569,0.5143992,0.2994563,4.907063,-0.7847822
1.586,2.8772657,1.1235673,0.3933916,0.33801305,4.930092,-0.82866246
1.588,2.9471242,1.1444523,0.27340716,0.37558264,4.9511204,-0.8721256
1.59,3.0161915,1.1633945,0.15438724,0.41204453,4.9701643,-0.9150537
1.592,3.0844924,1.1806784,0.036339402,0.4472857,4.9872103,-0.9573739
1.594,3.1517973,1.196677,-0.080702424,0.48121434,5.002247,-0.9990534
1.596,3.2180817,1.2116743,-0.19678473,0.5137607,5.015279,-1.0400676
1.598,3.283223,1.2259824,-0.31193042,0.54487383,5.0262914,-1.0804144
1.6,3.3471866,1.2397671,-0.42616165,0.57450414,5.0352807,-1.1201013
1.602,3.409765,1.2534714,-0.5394337,0.60262644,5.042253,-1.1591257
1.604,3.4709249,1.2672759,-0.6518116,0.6292171,5.0472198,-1.1974862
1.606,3.5305934,1.2815127,-0.7632568,0.6542386,5.050191,-1.2351744
1.608,3.5887265,1.2961508,-0.8737527,0.67767715,5.0511856,-1.2721636
1.61,3.6452227,1.3114607,-0.98327875,0.69950616,5.0502586,-1.308414
1.612,3.7001672,1.3274645,-1.0919472,0.71970105,5.0474367,-1.3439003
1.614,3.7533724,1.3441815,-1.1997064,0.73823166,5.042767,-1.3785849
1.616,3.804816,1.3615826,-1.3064939,0.7550854,5.0363035,-1.4124464
1.618,3.8545182,1.3795623,-1.4122057,0.77026474,5.0281215,-1.4454917
1.62,3.9024658,1.3979627,-1.5168788,0.7837833,5.0182705,-1.4777501
1.622,3.9485974,1.4166687,-1.6203446,0.7956969,5.0068173,-1.5092963
1.624,3.992956,1.435356,-1.7225682,0.8060806,4.993821,-1.540239
1.626,4.0354815,1.4538554,-1.8235112,0.8150317,4.979343,-1.5707152
1.628,4.076174,1.4718387,-1.9230306,0.82268214,4.963439,-1.6008843
1.63,4.115184,1.4890208,-2.0209246,0.82917434,4.9461384,-1.6309114
1.632,4.152418,1.5051749,-2.1170468,0.83466333,4.9274764,-1.6609527
1.634,4.187875,1.5199045,-2.2111664,0.83930737,4.9074802,-1.6911364
1.636,4.2215834,1.5330602,-2.3031197,0.84323764,4.886156,-1.7215335
1.638,4.2536826,1.5443377,-2.3926601,0.846563,4.86349,-1.7521721
1.64,4.2841706,1.5535467,-2.4794497,0.84937286,4.8394666,-1.7830102
1.642,4.313075,1.5604779,-2.563211,0.8517214,4.814048,-1.813927
1.644,4.340561,1.5649483,-2.6436722,0.8536316,4.7871766,-1.8447685
1.646,4.3665805,1.566885,-2.7204003,0.85508865,4.758788,-1.8753176
1.648,4.391264,1.5662762,-2.7931561,0.85605574,4.7288203,-1.9053364
1.65,4.414653,1.5631982,-2.8616393,0.85648185,4.697184,-1.9346027
1.652,4.436702,1.5575802,-2.925477,0.85630125,4.6638036,-1.9628997
1.654,4.457527,1.5495509,-2.9842768,0.85545975,4.6285877,-1.990032
1.656,4.4772964,1.5392606,-3.0378284,0.8538897,4.5914655,-2.0158517
1.658,4.4959154,1.5269394,-3.0857937,0.85154474,4.5523796,-2.0402498
1.66,4.513548,1.5126747,-3.1279588,0.84838885,4.5112805,-2.063173
1.662,4.530191,1.4966743,-3.1639879,0.844373,4.4681306,-2.084613
1.664,4.5457907,1.4792271,-3.1937912,0.8394786,4.4229198,-2.1046035
1.666,4.560547,1.4604883,-3.2172108,0.8336915,4.375676,-2.1231914
1.668,4.5744896,1.4405575,-3.234117,0.8270127,4.3264437,-2.140458
1.67,4.587567,1.4197218,-3.2445636,0.8194531,4.27528,-2.1564867
1.672,4.5997534,1.3980078,-3.2484522,0.8110376,4.2222724,-2.1713617
1.674,4.6112967,1.3755579,-3.2458193,0.80180866,4.16753,-2.1851542
1.676,4.621998,1.3524827,-3.2368336,0.79182124,4.1111917,-2.1979234
1.678,4.6319613,1.3288215,-3.221657,0.7811357,4.0534024,-2.2097049
1.68,4.6411386,1.3047428,-3.200477,0.76982576,3.9943256,-2.2205405
1.682,4.6494823,1.2801641,-3.173606,0.75797975,3.9341261,-2.2304428
1.684,4.657048,1.2551063,-3.1413321,0.74568355,3.872988,-2.239425
1.686,4.663774,1.2294068,-3.103947,0.73300546,3.8110895,-2.2474823
1.688,4.669709,1.2031244,-3.0617352,0.720028,3.7485952,-2.25458
1.69,4.6746345,1.1761667,-3.0152514,0.7068201,3.6856718,-2.2606843
1.692,4.678567,1.1483854,-2.96475,0.6934281,3.6224573,-2.2657473
1.694,4.68162,1.1197461,-2.9107978,0.679907,3.559084,-2.2696974
1.696,4.683658,1.0901492,-2.853688,0.66630936,3.4956808,-2.2724614
1.698,4.6846523,1.0594102,-2.7938085,0.65269333,3.4323642,-2.27395
1.7,4.684555,1.0274105,-2.731581,0.6391116,3.369234,-2.2740757
1.702,4.683197,0.99411446,-2.6674309,0.625623,3.306396,-2.2727504
1.704,4.6807604,0.95927465,-2.6016474,0.61229974,3.243966,-2.2699094
1.706,4.677146,0.922771,-2.5345688,0.599222,3.182046,-2.265498
1.708,4.672179,0.884562,-2.4665697,0.5864567,3.1207569,-2.2594805
1.71,4.6660557,0.84451437,-2.3978176,0.57408357,3.0601962,-2.2518392
1.712,4.6586704,0.8025296,-2.3286483,0.56216526,3.0004578,-2.2425723
1.714,4.650025,0.75844985,-2.2592568,0.55077857,2.941649,-2.2316725
1.716,4.640092,0.7122376,-2.1898718,0.5400006,2.8838606,-2.2191257
1.718,4.629026,0.6640395,-2.1206675,0.5298861,2.8271668,-2.2049255
1.72,4.616717,0.6135802,-2.0517268,0.5204928,2.7716408,-2.1890683
1.722,4.603134,0.56095904,-1.9831722,0.5118757,2.7173574,-2.171534
1.724,4.5884585,0.5062516,-1.9151112,0.5040932,2.6643915,-2.152289
1.726,4.572622,0.4494406,-1.8477235,0.49719203,2.6128027,-2.131312
1.728,4.5557427,0.39058602,-1.781074,0.4912172,2.5626607,-2.108603
1.73,4.537923,0.32987309,-1.7150542,0.48621428,2.514026,-2.0841656
1.732,4.519227,0.26741368,-1.6498449,0.48222643,2.4669442,-2.0580282
1.734,4.499651,0.20338844,-1.5854661,0.47928298,2.4214835,-2.0302138
1.736,4.4794707,0.13775395,-1.5219254,0.4774077,2.3776965,-2.0007772
1.738,4.4586215,0.07089715,-1.4591976,0.47662586,2.3356261,-1.9697604
1.74,4.437259,0.002911806,-1.3974723,0.47696298,2.2953155,-1.9372141
1.742,4.4156375,-0.066024065,-1.3367095,0.47842902,2.2568035,-1.9032114
1.744,4.393733,-0.13565485,-1.2769965,0.48104352,2.2201347,-1.8678174
1.746,4.371685,-0.2058086,-1.2182652,0.4848128,2.1853368,-1.8310966
1.748,4.349689,-0.27627206,-1.1605779,0.48972666,2.1524346,-1.7931323
1.75,4.327896,-0.34680146,-1.1041015,0.49577153,2.1214452,-1.7540151
1.752,4.306289,-0.41718954,-1.0487847,0.5029252,2.0923712,-1.7138427
1.754,4.285098,-0.4872077,-0.99464834,0.51115346,2.0652153,-1.6727352
1.756,4.264494,-0.5567175,-0.9418938,0.52042,2.0399404,-1.6308072
1.758,4.2444973,-0.6254457,-0.89047897,0.5306638,2.0165102,-1.5881612
1.76,4.225232,-0.6932687,-0.8404845,0.54183817,1.994872,-1.5449274
1.762,4.20699,-0.75990194,-0.7919831,0.55388135,1.9749559,-1.5012283
1.764,4.1896772,-0.8252872,-0.745029,0.56673753,1.9566789,-1.4571438
1.766,4.1734633,-0.88922393,-0.69956803,0.5803579,1.9399513,-1.4127637
1.768,4.158475,-0.9515609,-0.65572715,0.59466875,1.9246677,-1.3681792
1.77,4.1447463,-1.0121499,-0.61351585,0.60961235,1.9107443,-1.3234686
1.772,4.1324773,-1.0708628,-0.57300234,0.62514466,1.8980904,-1.2787085
1.774,4.121695,-1.1276088,-0.5341697,0.64120287,1.886614,-1.2339656
1.776,4.1124635,-1.1822569,-0.49703908,0.65771437,1.8762413,-1.189342
1.778,4.1049304,-1.2347904,-0.46165264,0.67460775,1.8668997,-1.144933
1.78,4.09909,-1.2850702,-0.42791402,0.691827,1.8585285,-1.1008153
1.782,4.094983,-1.3330171,-0.39594078,0.70930225,1.8510655,-1.0570711
1.784,4.0925627,-1.3785864,-0.36564422,0.7269769,1.844434,-1.0137734
1.786,4.0919986,-1.4218385,-0.3369937,0.74479365,1.8385828,-0.9709825
1.788,4.093275,-1.4627275,-0.30999005,0.76270247,1.8334209,-0.92875844
1.79,4.0963035,-1.5012407,-0.28452027,0.78064996,1.828858,-0.88714266
1.792,4.1010227,-1.5373533,-0.26059258,0.7985856,1.8247967,-0.8461836
1.794,4.107392,-1.5710896,-0.23794508,0.81645405,1.8211188,-0.8059185
1.796,4.1152754,-1.6023604,-0.21664417,0.834198,1.8177,-0.7663764
1.798,4.124689,-1.631297,-0.19663012,0.8517508,1.8144159,-0.72759473
1.8,4.13537,-1.6578535,-0.1777159,0.8690506,1.8111336,-0.6896195
1.802,4.1472864,-1.6821238,-0.15981591,0.88602877,1.8077177,-0.65248156
1.804,4.160249,-1.704072,-0.14286876,0.902619,1.8040504,-0.61622286
1.806,4.174174,-1.7238225,-0.12675858,0.9187545,1.8000187,-0.58088857
1.808,4.1888065,-1.7413841,-0.11132836,0.9343877,1.7955129,-0.54650134
1.81,4.2039905,-1.7568367,-0.09649134,0.94945025,1.7904422,-0.5130829
1.812,4.21972,-1.770262,-0.082051635,0.9638928,1.7847152,-0.48066005
1.814,4.2356954,-1.7817001,-0.06802261,0.9776509,1.7782766,-0.44923505
1.816,4.2517633,-1.7912695,-0.05429101,0.99068725,1.7710634,-0.41880906
1.818,4.268005,-1.799083,-0.04068041,1.0029417,1.7630429,-0.3893998
1.82,4.2840643,-1.8052714,-0.027222872,1.0143611,1.754199,-0.36100447
1.822,4.2999873,-1.8099223,-0.013784051,1.0249099,1.7445165,-0.33362255
1.824,4.3155866,-1.8131173,-0.0002619028,1.0345412,1.7340059,-0.30726045
1.826,4.330785,-1.8149455,0.013357401,1.0432277,1.7226955,-0.28191712
1.828,4.3456044,-1.815619,0.027223468,1.050947,1.7106057,-0.25759834
1.83,4.3599057,-1.8151801,0.041220307,1.0577062,1.6977626,-0.23429966
1.832,4.3738055,-1.813743,0.055461407,1.0635061,1.684197,-0.21203
1.834,4.3870974,-1.811537,0.06999636,1.068359,1.6699405,-0.19077748
1.836,4.3999352,-1.8085318,0.08482933,1.0722855,1.6550009,-0.17053199
1.838,4.4121785,-1.8049037,0.09995663,1.0753071,1.6393965,-0.15128082
1.84,4.4238524,-1.8008009,0.11534202,1.0774428,1.6231141,-0.13299584
1.842,4.4349084,-1.7963252,0.13104105,1.078721,1.6061532,-0.115649045
1.844,4.44544,-1.7915071,0.14707279,1.0791531,1.5884976,-0.09921348
1.846,4.4553404,-1.7864817,0.16340184,1.0787466,1.5701283,-0.08365387
1.848,4.464747,-1.7813882,0.17994928,1.0775104,1.5510175,-0.06894153
1.85,4.473542,-1.7762105,0.19693327,1.075445,1.5311509,-0.05504197
1.852,4.481697,-1.7710313,0.21424735,1.0725586,1.5105097,-0.041927934
1.854,4.4893394,-1.7659498,0.23182988,1.0688546,1.4891063,-0.029565394
1.856,4.4963846,-1.7609264,0.24971521,1.0643343,1.4669505,-0.017925918
1.858,4.50271,-1.7559581,0.26796865,1.059011,1.4440548,-0.0069806576
1.86,4.508384,-1.7512088,0.28670824,1.052899,1.4204593,0.0033130646
1.862,4.5133486,-1.7466497,0.30573714,1.0460128,1.3962046,0.012978733
1.864,4.517551,-1.7422544,0.3251922,1.038385,1.3713487,0.022046864
1.866,4.520885,-1.7380068,0.34510994,1.030043,1.3459427,0.03055197
1.868,4.523323,-1.7339933,0.3654871,1.0210266,1.3200395,0.038520753
1.87,4.524927,-1.7302313,0.38637495,1.0113589,1.293701,0.045993447
1.872,4.5254455,-1.7266595,0.4077794,1.0010884,1.266989,0.053010106
1.874,4.5249596,-1.7232134,0.42971015,0.9902563,1.2399564,0.0596084
1.876,4.523225,-1.7199787,0.45212126,0.97889674,1.2126703,0.065834165
1.878,4.520366,-1.7169011,0.47517264,0.9670554,1.1851676,0.07172161
1.88,4.5162153,-1.7139156,0.49882787,0.9547512,1.1575019,0.07731879
1.882,4.5107007,-1.7110624,0.5230942,0.94203126,1.1297437,0.08267456
1.884,4.5038953,-1.7083408,0.5479847,0.92890966,1.1019368,0.0878312
1.886,4.495664,-1.7056985,0.57347083,0.91540897,1.0741332,0.09284264
1.888,4.485911,-1.7030575,0.5995823,0.9015489,1.0463803,0.0977537
1.89,4.474719,-1.7004282,0.62632596,0.8873552,1.0187501,0.10261381
1.892,4.4620094,-1.6978977,0.6536393,0.87284166,0.99128544,0.10747695
1.894,4.4477544,-1.695297,0.681482,0.85803056,0.9640567,0.112387896
1.896,4.4319634,-1.692574,0.70985174,0.8429381,0.9371259,0.11741811
1.898,4.4146776,-1.6897672,0.73871684,0.8275975,0.9105507,0.12261516
1.9,4.3958063,-1.6868448,0.767979,0.81203586,0.8843902,0.12802422
1.902,4.375485,-1.6837695,0.79764163,0.7962817,0.8587141,0.13369167
1.904,4.3537264,-1.6804864,0.8275653,0.7803746,0.83358073,0.13964835
1.906,4.330573,-1.6770005,0.8577425,0.7643429,0.8090546,0.14592314
1.908,4.3059363,-1.6733016,0.88811135,0.7482431,0.78518724,0.15251827
1.91,4.280003,-1.6692998,0.9185181,0.7321117,0.7620345,0.1594351
1.912,4.25275,-1.6649873,0.9489816,0.71598756,0.7396631,0.16665828
1.914,4.224213,-1.6604302,0.9793664,0.69990915,0.718121,0.17416036
1.916,4.1944804,-1.6555855,1.0095749,0.6839113,0.69744635,0.1819304
1.918,4.1636353,-1.6503757,1.0394559,0.66802114,0.67767024,0.18993965
1.92,4.1317654,-1.6447845,1.0690241,0.6522722,0.65883684,0.19817093
1.922,4.098846,-1.6388261,1.0981196,0.6366792,0.64096147,0.20662054
1.924,4.065071,-1.6324754,1.1267121,0.621259,0.62405133,0.21527672
1.926,4.030524,-1.6256672,1.1547191,0.6060137,0.60810107,0.22415793
1.928,3.9951234,-1.6184179,1.1820964,0.59093887,0.5931049,0.23329169
1.93,3.9591677,-1.6105976,1.2087803,0.5760348,0.57903486,0.24272004
1.932,3.9226809,-1.6022222,1.2346079,0.5612868,0.56588537,0.25249746
1.934,3.8858178,-1.5932634,1.2597108,0.54667366,0.5536041,0.26267636
1.936,3.848572,-1.583787,1.2840207,0.5321715,0.5421594,0.2733305
1.938,3.810995,-1.5735645,1.3073806,0.5177553,0.53151333,0.2845317
1.94,3.7734597,-1.5626696,1.3299123,0.5033989,0.5216306,0.29634058
1.942,3.7358062,-1.5511074,1.3515304,0.48907816,0.512472,0.3088101
1.944,3.6982195,-1.5387549,1.3722706,0.47477227,0.50399935,0.32198894
1.946,3.6607733,-1.5257401,1.3921552,0.4604602,0.49619585,0.3358862
1.948,3.6236043,-1.511926,1.4111357,0.446128,0.48902082,0.35048467
1.95,3.5868177,-1.4975061,1.429144,0.43177778,0.482454,0.36572883
1.952,3.5504327,-1.4824055,1.4462986,0.41740552,0.4764896,0.38154647
1.954,3.5144913,-1.4667851,1.4625478,0.4030279,0.4711123,0.397839
1.956,3.479095,-1.4504952,1.4778465,0.38865143,0.4663039,0.4144867
1.958,3.4441175,-1.4337063,1.4923111,0.3742961,0.46206188,0.43136513
1.96,3.4097586,-1.4165249,1.5057914,0.35998675,0.45837575,0.4483504
1.962,3.375997,-1.3989563,1.518326,0.34573802,0.45524317,0.46533304
1.964,3.3427505,-1.3810532,1.5300274,0.33157843,0.45264727,0.48222038
1.966,3.3100874,-1.3629011,1.5407524,0.3175336,0.45057547,0.49896348
1.968,3.2780676,-1.3445654,1.5504408,0.30362833,0.4490314,0.5155276
1.97,3.2465594,-1.3259904,1.5590816,0.2898677,0.4479883,0.5319145
1.972,3.2156923,-1.3072698,1.5668325,0.27625927,0.44742876,0.5481616
1.974,3.1853247,-1.2884551,1.5735182,0.26279175,0.44732893,0.56432074
1.976,3.1554425,-1.2694821,1.5791271,0.24946289,0.44766316,0.580449
1.978,3.1260571,-1.2503241,1.5836776,0.23625988,0.44840318,0.59662557
1.98,3.0970867,-1.2309331,1.5870779,0.22314903,0.44951743,0.6129121
1.982,3.0685782,-1.2113333,1.5892785,0.21010825,0.45097563,0.6293544
1.984,3.040405,-1.191457,1.5904293,0.1971015,0.45273674,0.64598167
1.986,3.012548,-1.1711304,1.5903666,0.1841074,0.45473984,0.6628175
1.988,2.9849403,-1.1503081,1.5890106,0.17111683,0.45694184,0.67984885
1.99,2.9575827,-1.1289189,1.586445,0.15809827,0.4592791,0.6970421
1.992,2.9303865,-1.1069794,1.5826951,0.14503977,0.46169004,0.7143604
1.994,2.903287,-1.0842936,1.5777154,0.13194273,0.464095,0.7317536
1.996,2.87634,-1.0608038,1.571566,0.11879446,0.46642476,0.7491621
1.998,2.8494787,-1.0364509,1.564113,0.105588526,0.46859103,0.7665222
2,2.8226614,-1.0112519,1.5554576,0.09231901,0.47051752,0.7837864
2.002,2.795921,-0.98509437,1.5456382,0.07898587,0.47213352,0.8009
2.004,2.7692232,-0.9579922,1.5347079,0.06557195,0.47336107,0.81781304
2.006,2.7425175,-0.92993134,1.522687,0.052075386,0.4741324,0.83448434
2.008,2.7157292,-0.9009346,1.5095301,0.038481206,0.47438774,0.8508792
2.01,2.6890085,-0.87092876,1.4954183,0.024788976,0.47407824,0.86695695
2.012,2.662174,-0.8400156,1.4803216,0.010998517,0.47315577,0.8826837
2.014,2.6353528,-0.8083189,1.4642622,-0.002893865,0.47158843,0.8980323
2.016,2.6083481,-0.77566415,1.4473442,-0.016887903,0.46934757,0.9129858
2.018,2.5813973,-0.74224234,1.4296081,-0.030970216,0.46640337,0.92753345
2.02,2.5544844,-0.70818764,1.4111888,-0.04514575,0.46274197,0.94166106
2.022,2.5274868,-0.6735075,1.3920071,-0.059415728,0.4583358,0.9553666
2.024,2.5005615,-0.63826394,1.3721936,-0.07376835,0.45318037,0.9686521
2.026,2.4735975,-0.6025025,1.351713,-0.088211864,0.44725835,0.9815136
2.028,2.446644,-0.56640416,1.3306952,-0.10274997,0.44056123,0.9939511
2.03,2.4197702,-0.5300766,1.3090849,-0.11738318,0.4330914,1.0059707
2.032,2.3929029,-0.49358892,1.287022,-0.13210583,0.4248454,1.0175612
2.034,2.3659627,-0.45698428,1.2645267,-0.14690316,0.41582224,1.0287119
2.036,2.3390281,-0.42046916,1.2416111,-0.16177294,0.4060121,1.0394181
2.038,2.3121367,-0.38399225,1.218302,-0.17668939,0.39542705,1.04966
2.04,2.2850718,-0.3477486,1.1946408,-0.1916422,0.3840759,1.0594075
2.042,2.2578855,-0.31181532,1.1708052,-0.20661178,0.37195864,1.0686504
2.044,2.230498,-0.2761422,1.1466,-0.2215786,0.3590661,1.0773877
2.046,2.2030056,-0.24081796,1.1222422,-0.23651764,0.34539434,1.0856007
2.048,2.1753263,-0.20601511,1.0977991,-0.25143033,0.33094805,1.0932968
2.05,2.147259,-0.17164415,1.0733289,-0.26629448,0.31572592,1.1004963
2.052,2.1188993,-0.13772318,1.0488836,-0.28110316,0.29973203,1.1072183
2.054,2.0902362,-0.10441068,1.0245187,-0.29583392,0.2829718,1.1134909
2.056,2.0611804,-0.0715639,1.0002973,-0.3104879,0.26547515,1.1193452
2.058,2.0317504,-0.039296746,0.97630936,-0.32504746,0.24727073,1.1248174
2.06,2.0018184,-0.007532716,0.9526814,-0.33949247,0.22840172,1.1299314
2.062,1.9715368,0.023648292,0.92940336,-0.35380453,0.20892654,1.1347132
2.064,1.9408089,0.05427724,0.9064807,-0.36796096,0.18890439,1.1391726
2.066,1.9096521,0.08431637,0.8841165,-0.3819398,0.16841172,1.1433254
2.068,1.878165,0.11380914,0.8622507,-0.39571416,0.14750451,1.1471719
2.07,1.8461714,0.14271778,0.8410144,-0.40926307,0.12624958,1.1507025
2.072,1.8138183,0.17095807,0.82045966,-0.42255723,0.1047256,1.1539003
2.074,1.7810802,0.19859177,0.8005899,-0.4355662,0.082977206,1.1567621
2.076,1.7481161,0.22555709,0.78152007,-0.44825426,0.061066538,1.159271
2.078,1.7148066,0.25186706,0.7632209,-0.46059883,0.039038777,1.1614169
2.08,1.6811892,0.27749023,0.74583733,-0.4725686,0.016941667,1.1632015
2.082,1.6474204,0.30236307,0.72922486,-0.48414204,-0.005192429,1.1646285
2.084,1.6134198,0.3265049,0.7135985,-0.49530238,-0.027323097,1.1657047
2.086,1.5792781,0.34984195,0.69889605,-0.5060294,-0.04940167,1.1664517
2.088,1.5449793,0.3723198,0.68514127,-0.5163008,-0.07138565,1.1668953
2.09,1.5106004,0.3939549,0.6723665,-0.5260991,-0.09322217,1.16707
2.092,1.4761906,0.41474497,0.6606792,-0.535402,-0.11486256,1.1670125
2.094,1.441721,0.43465617,0.6499425,-0.5441783,-0.13625726,1.1667598
2.096,1.4073005,0.45354837,0.6402597,-0.55240154,-0.1573491,1.166345
2.098,1.3729467,0.47145975,0.63173646,-0.56003183,-0.17807636,1.1657813
2.1,1.3386402,0.48833337,0.6242969,-0.5670426,-0.1983966,1.1651042
2.102,1.3044258,0.50423896,0.61780214,-0.5734025,-0.2182742,1.1643198
2.104,1.2702999,0.5190741,0.61244553,-0.57909214,-0.23768204,1.1634324
2.106,1.2361709,0.5328646,0.60812,-0.58409417,-0.25658813,1.1624504
2.108,1.2022412,0.54550844,0.6049073,-0.5884082,-0.27497932,1.1613684
2.11,1.1684359,0.5570804,0.6027084,-0.59202605,-0.29284233,1.1601868
2.112,1.1346791,0.56754434,0.60154825,-0.59496206,-0.31015506,1.1589125
2.114,1.1010835,0.57679236,0.6013074,-0.59722877,-0.32691252,1.1575501
2.116,1.0677053,0.58489835,0.6020367,-0.5988351,-0.343104,1.1560972
2.118,1.0343912,0.5918336,0.6037802,-0.59978414,-0.35870737,1.1545793
2.12,1.0010908,0.5975705,0.6063658,-0.6000871,-0.37370986,1.1529893
2.122,0.967929,0.6021182,0.60979885,-0.599742,-0.38807976,1.1513399
2.124,0.9347793,0.6055675,0.6139954,-0.59874046,-0.40179247,1.1496397
2.126,0.9016133,0.6077711,0.6188772,-0.597085,-0.4148422,1.1479057
2.128,0.8681159,0.60894215,0.6243892,-0.59475374,-0.42719525,1.1461463
2.13,0.834261,0.6091832,0.6304605,-0.59174037,-0.4388352,1.1443828
2.132,0.8000507,0.6086002,0.63704824,-0.58801603,-0.44973904,1.1426378
2.134,0.7653519,0.6072085,0.64410245,-0.5835701,-0.45990098,1.1409246
2.136,0.7300651,0.6051687,0.65156806,-0.57838583,-0.46930683,1.1392659
2.138,0.6940433,0.60269195,0.6593941,-0.57246405,-0.47795027,1.1376796
2.14,0.6571957,0.5999586,0.66753066,-0.56580114,-0.48583448,1.1361808
2.142,0.6194866,0.5970953,0.6758385,-0.5584047,-0.49294823,1.1347806
2.144,0.5805962,0.5943059,0.684259,-0.55028516,-0.49929416,1.1334746
2.146,0.54044235,0.5918658,0.6926919,-0.54147696,-0.50488114,1.1322585
2.148,0.49894392,0.58985597,0.7010922,-0.53200746,-0.50971854,1.1311221
2.15,0.4559248,0.58859575,0.7094095,-0.5219141,-0.51381445,1.1300368
2.152,0.41101074,0.58838964,0.7174757,-0.51124525,-0.5171989,1.1289833
2.154,0.36426193,0.5893342,0.72537214,-0.5000503,-0.5198964,1.1279114
2.156,0.31546095,0.59174293,0.73293185,-0.48838073,-0.5219605,1.1267886
2.158,0.26440838,0.59582025,0.74025905,-0.47630572,-0.5234497,1.125588
2.16,0.21119153,0.6017926,0.74723566,-0.4638862,-0.52445674,1.1242933
2.162,0.1555624,0.60988706,0.753925,-0.45118007,-0.52507,1.1229186
2.164,0.09749994,0.620301,0.7603432,-0.4382565,-0.5254099,1.1214864
2.166,0.037036955,0.63308024,0.7666097,-0.4251643,-0.52561307,1.1200451
2.168,-0.025743991,0.64835453,0.7728616,-0.41197133,-0.5258294,1.1186805
2.17,-0.09062114,0.66618586,0.7791455,-0.39874464,-0.5262243,1.1174924
2.172,-0.15766352,0.68666196,0.7855351,-0.38554767,-0.52696824,1.1165767
2.174,-0.22653586,0.7096596,0.7923204,-0.37243298,-0.5281979,1.1160433
2.176,-0.297065,0.73498714,0.7996098,-0.35945544,-0.5300132,1.1159747
2.178,-0.36872685,0.7625131,0.80757976,-0.34664902,-0.5324643,1.1164036
2.18,-0.4413331,0.792107,0.8163678,-0.3340542,-0.5355247,1.1173143
2.182,-0.5147011,0.823618,0.8263831,-0.3216993,-0.53910935,1.1186229
2.184,-0.58837223,0.85646415,0.8376768,-0.3095893,-0.543074,1.1201646
2.186,-0.66196513,0.8903035,0.85047686,-0.2977275,-0.54721725,1.1217082
2.188,-0.7349945,0.9246276,0.8650168,-0.28608918,-0.5513045,1.1229815
2.19,-0.80692685,0.9589865,0.8813003,-0.2746298,-0.5551172,1.1236647
2.192,-0.87763995,0.9929242,0.8996746,-0.26328588,-0.558436,1.1234452
2.194,-0.9465984,1.0257344,0.92007476,-0.2519915,-0.56108576,1.1220376
2.196,-1.0136689,1.0570511,0.9427006,-0.2406599,-0.56294155,1.1191983
2.198,-1.0785313,1.0862696,0.96761274,-0.22918466,-0.5639054,1.1147666
2.2,-1.1409104,1.1128476,0.99488264,-0.2174587,-0.56391907,1.1086552
2.202,-1.2007395,1.1363668,1.0244346,-0.20539874,-0.5629419,1.1008413
2.204,-1.257767,1.1564276,1.0563571,-0.19292015,-0.5609465,1.0913893
2.206,-1.3120034,1.1727619,1.0905724,-0.17994979,-0.55790246,1.08041
2.208,-1.3634017,1.1849494,1.1269541,-0.16645241,-0.55376554,1.0680902
2.21,-1.411943,1.1928895,1.1654344,-0.15238488,-0.54848015,1.0546439
2.212,-1.457673,1.1963518,1.2059627,-0.13771904,-0.5419239,1.0402606
2.214,-1.500572,1.1952912,1.2482954,-0.12246847,-0.5339564,1.0251231
2.216,-1.54078,1.189631,1.2922688,-0.106658936,-0.5244895,1.0094233
2.218,-1.5786277,1.1796108,1.3376064,-0.09030551,-0.5134078,0.9933557
2.22,-1.6139686,1.1652766,1.3841256,-0.07342285,-0.50055873,0.9770824
2.222,-1.6469632,1.1467925,1.4316144,-0.05600196,-0.4858054,0.9607548
2.224,-1.6779218,1.1244682,1.4798226,-0.03803754,-0.46902448,0.9444861
2.226,-1.7069516,1.0985658,1.5283682,-0.019546539,-0.45008963,0.92834866
2.228,-1.7338965,1.0693904,1.5769563,-0.0005567074,-0.42889988,0.91237825
2.23,-1.7590235,1.0373625,1.6253153,0.018891364,-0.4053726,0.8965623
2.232,-1.7826153,1.0028701,1.6734656,0.038728416,-0.3794449,0.8808761
2.234,-1.8046037,0.96616733,1.7208682,0.058887213,-0.351079,0.86526495
2.236,-1.8249116,0.9276159,1.7672393,0.07928069,-0.3202721,0.8496802
2.238,-1.8436028,0.88763106,1.8122954,0.099827915,-0.28706318,0.8340862
2.24,-1.860837,0.8464815,1.8558538,0.12047067,-0.2515309,0.818467
2.242,-1.8768802,0.80449253,1.8976533,0.14116135,-0.21379554,0.80283153
2.244,-1.8916426,0.76201093,1.937498,0.16187611,-0.17397611,0.78722787
2.246,-1.905247,0.71932554,1.9752653,0.18261415,-0.13224311,0.7717082
2.248,-1.917616,0.6765539,2.0106375,0.20340326,-0.08875516,0.75632465
2.25,-1.9289728,0.6341357,2.0435967,0.22425573,-0.043670163,0.7411148
2.252,-1.9393648,0.59225595,2.0740728,0.24518815,0.0028514415,0.72609293
2.254,-1.948608,0.5509552,2.1021047,0.26620576,0.050664976,0.7112349
2.256,-1.9569254,0.51047564,2.127635,0.28731298,0.099650875,0.69649315
2.258,-1.9643738,0.4709783,2.150609,0.30849338,0.14968628,0.6817741
2.26,-1.9708499,0.4324932,2.1710105,0.32971773,0.20067216,0.6669775
2.262,-1.9762869,0.39507675,2.188904,0.35095134,0.25250906,0.65197146
2.264,-1.9806836,0.35877994,2.204348,0.37214357,0.3051135,0.6366463
2.266,-1.9840666,0.3236392,2.217369,0.39326406,0.35835618,0.62095594
2.268,-1.986351,0.28978607,2.227941,0.41430104,0.4121267,0.60484326
2.27,-1.9876636,0.25725535,2.2362704,0.4352486,0.4663638,0.5882728
2.272,-1.9877841,0.22610731,2.2423482,0.45608646,0.5209793,0.5712234
2.274,-1.9867976,0.19651058,2.2463157,0.47678167,0.5758564,0.55371255
2.276,-1.9845563,0.16855735,2.2481987,0.49731815,0.63090813,0.53575
2.278,-1.9810549,0.142411,2.2481928,0.5176701,0.6860506,0.5173902
2.28,-1.9760749,0.11821595,2.2464004,0.5378121,0.74119145,0.498684
2.282,-1.9694026,0.095994994,2.2429075,0.5577126,0.79624355,0.47967952
2.284,-1.9610785,0.07608065,2.2376752,0.5773312,0.8511022,0.46044
2.286,-1.9508055,0.058740556,2.2307725,0.59660554,0.9056746,0.4410247
2.288,-1.9386697,0.04409623,2.2222328,0.6154742,0.9598328,0.42149398
2.29,-1.9242265,0.032408193,2.2122402,0.63385713,1.0134658,0.40190628
2.292,-1.9073653,0.02395247,2.2006059,0.65167546,1.0664575,0.3823194
2.294,-1.888031,0.019284949,2.1875725,0.66883504,1.1186947,0.36278793
2.296,-1.866199,0.01867266,2.173118,0.68525326,1.1700723,0.3433541
2.298,-1.8417042,0.022614196,2.1573904,0.70083606,1.220486,0.324049
2.3,-1.8147471,0.031499207,2.140497,0.7154994,1.2698437,0.30488732
2.302,-1.785072,0.045669228,2.1226656,0.72914547,1.3180405,0.28585827
2.304,-1.7527817,0.06569567,2.104001,0.7417016,1.3649774,0.26695344
2.306,-1.7177396,0.09168577,2.0846324,0.7530767,1.4105628,0.24813071
2.308,-1.6800514,0.124180615,2.0646777,0.7631948,1.4546902,0.22933733
2.31,-1.6400342,0.16350842,2.0443861,0.7719631,1.4972218,0.2105065
2.312,-1.5975395,0.20973557,2.0240548,0.7792791,1.5380114,0.19156355
2.314,-1.5527945,0.26315004,2.0037308,0.78504986,1.576901,0.17240626
2.316,-1.5059414,0.32378355,1.983701,0.7891743,1.6137042,0.15291202
2.318,-1.4571698,0.39160895,1.9641473,0.7915382,1.6482297,0.13292134
2.32,-1.4065194,0.46639356,1.9453475,0.79201955,1.6803219,0.112247884
2.322,-1.3541332,0.5481092,1.9275423,0.79050744,1.7098626,0.09069723
2.324,-1.3002329,0.63636446,1.9109216,0.78689396,1.7367753,0.06804198
2.326,-1.2449859,0.7308425,1.8957012,0.78109986,1.7610309,0.044049144
2.328,-1.1883415,0.83094436,1.8822759,0.7730644,1.7826918,0.018483877
2.33,-1.1307087,0.9362626,1.8707552,0.76276094,1.8018662,-0.008868754
2.332,-1.0721638,1.046231,1.8612514,0.7502358,1.8187304,-0.038189054
2.334,-1.0126702,1.1600842,1.8541006,0.735577,1.8334922,-0.06959924
2.336,-0.95239836,1.2770591,1.8495507,0.7189524,1.8463724,-0.10314521
2.338,-0.891491,1.396349,1.8477236,0.7005712,1.8576206,-0.1388199
2.34,-0.8297877,1.5169773,1.8487654,0.6807234,1.8674765,-0.17654413
2.342,-0.76707613,1.637989,1.8525379,0.659725,1.8761711,-0.21617523
2.344,-0.70358706,1.7585719,1.8595102,0.637935,1.8839195,-0.2575391
2.346,-0.63909805,1.8778292,1.8696349,0.6157261,1.890949,-0.3004339
2.348,-0.57362556,1.9947417,1.8830451,0.5934729,1.8974937,-0.3446406
2.35,-0.5070209,2.1085036,1.899694,0.5715221,1.9038101,-0.38992476
2.352,-0.43900305,2.2183087,1.9194803,0.5501973,1.9101819,-0.4360479
2.354,-0.36967444,2.323478,1.9423758,0.52979374,1.9169221,-0.48275906
2.356,-0.29884177,2.4233863,1.9682622,0.5105567,1.9243851,-0.5297691
2.358,-0.22646391,2.5175521,1.9970119,0.49269378,1.9329393,-0.5767739
2.36,-0.15230095,2.6054237,2.0283227,0.47637844,1.9429771,-0.6234089
2.362,-0.07634181,2.686789,2.0619478,0.46174398,1.9549057,-0.6692493
2.364,0.0014674067,2.761601,2.0974698,0.44890347,1.9691324,-0.7138336
2.366,0.08119649,2.8297195,2.1344876,0.43794197,1.9860697,-0.7566387
2.368,0.16279906,2.8912578,2.1725037,0.42892608,2.0061102,-0.79710764
2.37,0.24621546,2.9463482,2.211134,0.42190906,2.029625,-0.8346769
2.372,0.33136058,2.9953556,2.249736,0.41692942,2.0569444,-0.8688164
2.374,0.41792738,3.0385704,2.2877433,0.41400802,2.0883427,-0.89908147
2.376,0.5060628,3.0764086,2.3244638,0.41314736,2.1240475,-0.9251392
2.378,0.59539914,3.1091833,2.3594239,0.41433987,2.1642632,-0.94680744
2.38,0.685732,3.1372576,2.3919363,0.41755936,2.20915,-0.96405727
2.382,0.77680856,3.1610641,2.42141,0.4227877,2.2588246,-0.9770226
2.384,0.8683039,3.1808796,2.447208,0.42999947,2.3133974,-0.9859946
2.386,0.95983493,3.1971445,2.468793,0.43918562,2.3729477,-0.9914014
2.388,1.0510738,3.2099862,2.485487,0.4503797,2.4375212,-0.99375856
2.39,1.1413896,3.2196872,2.4969013,0.46361476,2.5071142,-0.9936595
2.392,1.2306644,3.2262526,2.5026505,0.4789575,2.5816748,-0.9916929
2.394,1.3184018,3.2297037,2.5023942,0.49649894,2.6610694,-0.9884252
2.396,1.4043181,3.2299612,2.4958205,0.51630735,2.745106,-0.9843759
2.398,1.4872303,3.2288227,2.4848423,0.5384391,2.8334951,-0.97998905
2.4,1.5674145,3.224751,2.467793,0.56289196,2.9258654,-0.97563183
2.402,1.6446688,3.217608,2.4448485,0.5896089,3.0217443,-0.9716024
2.404,1.7186979,3.2072659,2.4161558,0.61845803,3.1206057,-0.96812546
2.406,1.7891759,3.1936522,2.3819904,0.64922726,3.2218673,-0.9653413
2.408,1.8558896,3.1765938,2.3426485,0.6816164,3.324894,-0.9633196
2.41,1.9188027,3.156033,2.2985518,0.71528065,3.4290113,-0.9620644
2.412,1.9776546,3.132058,2.2500923,0.74983686,3.5335393,-0.96152264
2.414,2.0323913,3.1046503,2.197912,0.78490114,3.6377907,-0.96156037
2.416,2.0829272,3.074052,2.1425896,0.8201028,3.7410972,-0.9619918
2.418,2.1292393,3.040369,2.0847926,0.85510314,3.842841,-0.9625722
2.42,2.171493,3.003875,2.0250416,0.8896222,3.94244,-0.96302676
2.422,2.2096677,2.9649608,1.9639372,0.9234416,4.0393677,-0.96305776
2.424,2.2439144,2.9238644,1.9021696,0.9563908,4.133181,-0.9623425
2.426,2.274407,2.881016,1.8402673,0.9874572,4.2211547,-0.9610779
2.428,2.301319,2.8368802,1.7787638,1.0170542,4.3043537,-0.9588569
2.43,2.3247597,2.7919083,1.7180573,1.0450174,4.382304,-0.9555879
2.432,2.3449667,2.7462814,1.658558,1.071201,4.4546094,-0.9512654
2.434,2.362239,2.700412,1.6005962,1.0954919,4.521012,-0.94596934
2.436,2.3768656,2.6545863,1.5444608,1.1178083,4.581374,-0.9398414
2.438,2.3890176,2.6091018,1.4902447,1.1381099,4.635716,-0.9330731
2.44,2.399022,2.5640683,1.4382017,1.1564062,4.6842012,-0.9258737
2.442,2.4071484,2.5196834,1.3884737,1.172752,4.7271276,-0.9184563
2.444,2.4134789,2.4760795,1.341047,1.1872562,4.7649016,-0.91099715
2.446,2.418349,2.4334314,1.2958924,1.2000636,4.797984,-0.9036516
2.448,2.4219813,2.3918424,1.2530875,1.2113123,4.82687,-0.89654547
