Time_s_,Acc_x_m_s_2_,Acc_y_m_s_2_,Acc_z_m_s_2_,Gyro_x_1_s_,Gyro_y_1_s_,Gyro_z_1_s_
0,-0.40828195,0.7059352,1.5720608,0.2183977,0.7711664,-0.95598984
0.002,-0.5495458,0.73837095,1.5606977,0.22846916,0.78494257,-0.94066995
0.004,-0.69975543,0.7716093,1.5486319,0.23990852,0.8001063,-0.92384064
0.006,-0.8590341,0.80587184,1.5358571,0.25282502,0.81659055,-0.90535456
0.008,-1.0274669,0.8409946,1.522259,0.26730892,0.83428335,-0.8851896
0.01,-1.204988,0.8768863,1.5078424,0.28337222,0.8530017,-0.8634449
0.012,-1.3916631,0.9133148,1.492043,0.3009613,0.87248915,-0.8403044
0.014,-1.5869832,0.9497068,1.474343,0.31996524,0.89242786,-0.8160615
0.016,-1.7904158,0.98602396,1.4545981,0.34021413,0.9124525,-0.79109466
0.018,-2.001164,1.0218506,1.4327494,0.36149552,0.9321904,-0.76588064
0.02,-2.2183235,1.0567802,1.4086863,0.38356256,0.95126826,-0.74097115
0.022,-2.439037,1.0891056,1.3807888,0.40616983,0.96936446,-0.7169187
0.024,-2.662705,1.119252,1.3470169,0.4291363,0.986268,-0.6942385
0.026,-2.8913646,1.146955,1.3138235,0.45234624,1.0018418,-0.67337155
0.028,-3.121397,1.1721294,1.2793468,0.47627956,1.016637,-0.6539471
0.03,-3.347204,1.1944988,1.2411293,0.5002924,1.0298777,-0.6372209
0.032,-3.5672786,1.2130028,1.1978858,0.5245122,1.0418473,-0.6232099
0.034,-3.7825446,1.2263988,1.1503102,0.54909873,1.0528247,-0.6118468
0.036,-3.9892678,1.2331302,1.0975643,0.5742135,1.0630885,-0.6029882
0.038,-4.182105,1.2329689,1.0400754,0.59999573,1.0729291,-0.59650224
0.04,-4.35831,1.2261624,0.97881055,0.6265125,1.0826265,-0.592269
0.042,-4.517772,1.2122047,0.9147866,0.65378076,1.0924261,-0.590108
0.044,-4.6578083,1.1897709,0.8471214,0.6817351,1.102493,-0.58981884
0.046,-4.7746882,1.1580558,0.7757867,0.71025026,1.1129603,-0.59116226
0.048,-4.8663063,1.1169813,0.7016462,0.73910713,1.1238284,-0.5938475
0.05,-4.9322023,1.0666003,0.6260097,0.7680011,1.1350633,-0.59762573
0.052,-4.9716196,1.0067655,0.5493773,0.79649615,1.1465821,-0.60223675
0.054,-4.983226,0.9375813,0.47243246,0.82417077,1.1581062,-0.6073767
0.056,-4.9717956,0.86066365,0.39551008,0.8504919,1.1695254,-0.6129376
0.058,-4.9314976,0.77500105,0.3207196,0.8751085,1.1810187,-0.6186188
0.06,-4.863393,0.68125606,0.24912363,0.8978504,1.1923996,-0.62397695
0.062,-4.7684093,0.5805938,0.18160474,0.9184368,1.2033973,-0.629007
0.064,-4.648206,0.4744146,0.11885798,0.936545,1.2139703,-0.63393974
0.066,-4.504531,0.36396456,0.061534483,0.952005,1.2240326,-0.6386095
0.068,-4.3400555,0.25044274,0.010208234,0.9648474,1.2332234,-0.6425591
0.07,-4.1570225,0.13491702,-0.034551237,0.9752317,1.2413279,-0.6457458
0.072,-3.9590645,0.019012332,-0.07207063,0.9833597,1.2484876,-0.64850646
0.074,-3.7471716,-0.09647739,-0.1028358,0.989562,1.2549485,-0.6510107
0.076,-3.5254319,-0.21019256,-0.12605631,0.9942713,1.2607756,-0.6531911
0.078,-3.2969804,-0.32092643,-0.143982,0.9979489,1.2660362,-0.65507865
0.08,-3.0641475,-0.42711937,-0.15719739,1.0010295,1.2710013,-0.65687144
0.082,-2.8285828,-0.5282955,-0.16542573,1.0039008,1.2759345,-0.65872175
0.084,-2.5951185,-0.6222807,-0.17317672,1.0068902,1.2809447,-0.66065025
0.086,-2.3676095,-0.70803833,-0.17901827,1.0102266,1.2860813,-0.6626834
0.088,-2.1464703,-0.7872796,-0.17588748,1.0139954,1.2914205,-0.6648839
0.09,-1.9372818,-0.85774684,-0.16448592,1.0181686,1.2970263,-0.6673017
0.092,-1.742379,-0.9182762,-0.14742698,1.0226467,1.3028977,-0.66989
0.094,-1.5664783,-0.9677799,-0.13112622,1.0272673,1.3090466,-0.6725761
0.096,-1.4150958,-1.0048605,-0.119920455,1.0318518,1.3155106,-0.67531765
0.098,-1.2803277,-1.033643,-0.10994239,1.0362418,1.3223908,-0.6780444
0.1,-1.1630502,-1.0546528,-0.09351009,1.0403574,1.3298181,-0.6806483
0.102,-1.0731261,-1.0634515,-0.07712096,1.0441668,1.3378569,-0.68301713
0.104,-1.0105354,-1.0599014,-0.069945164,1.0477065,1.346581,-0.6850597
0.106,-0.97212833,-1.0459081,-0.06980632,1.0511067,1.3561214,-0.6867621
0.108,-0.96348804,-1.0205034,-0.0699517,1.054499,1.3664765,-0.6880809
0.11,-0.98637015,-0.9842003,-0.0681561,1.058082,1.3774221,-0.68901414
0.112,-1.0366948,-0.93881154,-0.062198915,1.0617607,1.3885225,-0.68989414
0.114,-1.1152915,-0.8837359,-0.051532637,1.06547,1.3996823,-0.6911441
0.116,-1.2242401,-0.8192738,-0.039212834,1.0691998,1.4104621,-0.69283646
0.118,-1.3623004,-0.74689513,-0.028291402,1.0727372,1.420178,-0.6949455
0.12,-1.5269744,-0.6678192,-0.018254342,1.0758257,1.4286144,-0.69798946
0.122,-1.7162855,-0.5826967,-0.0065289317,1.0781326,1.4356723,-0.70271397
0.124,-1.9279921,-0.4920364,0.008488759,1.0794501,1.4410592,-0.70935255
0.126,-2.1590302,-0.39706612,0.02656247,1.0797768,1.4443215,-0.7176829
0.128,-2.4061608,-0.298779,0.046562325,1.0790805,1.4452536,-0.7275823
0.13,-2.6660752,-0.19857597,0.067571655,1.0772982,1.444514,-0.7393845
0.132,-2.9361463,-0.09735584,0.09041337,1.0746232,1.4431956,-0.75366825
0.134,-3.2113142,0.0018424988,0.11621509,1.0716313,1.4415729,-0.7706165
0.136,-3.4845612,0.097718716,0.13925254,1.069084,1.4397612,-0.78999573
0.138,-3.7538104,0.18803215,0.16155213,1.0678468,1.4386169,-0.81177485
0.14,-4.0177145,0.27114427,0.18471141,1.0688635,1.4389813,-0.8360117
0.142,-4.270486,0.34634602,0.20864306,1.0730851,1.4410801,-0.8624734
0.144,-4.505341,0.41287446,0.2321654,1.0813704,1.4449307,-0.8910299
0.146,-4.7209153,0.47048998,0.25606412,1.0942683,1.4501458,-0.9217823
0.148,-4.9163265,0.51765466,0.28014833,1.1118289,1.4555513,-0.9545977
0.15,-5.0882363,0.5529783,0.3040582,1.1335099,1.4595131,-0.98907
0.152,-5.2321453,0.5763147,0.32811135,1.1582015,1.460379,-1.0248435
0.154,-5.3471212,0.5881858,0.3544774,1.1843792,1.4567432,-1.0616925
0.156,-5.4337516,0.5885742,0.3843947,1.2104098,1.4476792,-1.0993516
0.158,-5.491394,0.576982,0.4183808,1.2348322,1.4328853,-1.1375093
0.16,-5.5186024,0.5532868,0.45699272,1.2565455,1.4127773,-1.1758195
0.162,-5.5157056,0.5179758,0.5018176,1.2749131,1.3885059,-1.2138729
0.164,-5.4840755,0.4714856,0.5539418,1.2898262,1.36174,-1.2511684
0.166,-5.4245577,0.41415954,0.61389726,1.3017371,1.3343694,-1.2872016
0.168,-5.338084,0.3464589,0.6825298,1.311274,1.3080636,-1.321467
0.17,-5.226163,0.26920176,0.7600643,1.3192558,1.2842597,-1.3534577
0.172,-5.090232,0.18293405,0.8466793,1.3264501,1.2636976,-1.3829094
0.174,-4.9320607,0.088363886,0.9424796,1.3331155,1.2462928,-1.4096175
0.176,-4.7533655,-0.013786554,1.0467827,1.3392342,1.2317808,-1.433382
0.178,-4.5551605,-0.122988224,1.1587435,1.3445297,1.2196217,-1.4543136
0.18,-4.339054,-0.23857594,1.2774712,1.3485994,1.2091472,-1.4729607
0.182,-4.1067214,-0.35993886,1.4016521,1.3511391,1.1997069,-1.490013
0.184,-3.8592906,-0.48644626,1.5298696,1.3520079,1.1904316,-1.5057919
0.186,-3.5980225,-0.6177106,1.6610819,1.3510457,1.1806521,-1.5203594
0.188,-3.3241909,-0.75307155,1.7941514,1.3481529,1.1706754,-1.5341537
0.19,-3.0392787,-0.8919445,1.9276538,1.3434618,1.1607194,-1.547769
0.192,-2.7457128,-1.0329965,2.0602508,1.3372341,1.1502829,-1.5612586
0.194,-2.4424634,-1.1767081,2.1927736,1.3297179,1.1389885,-1.5743824
0.196,-2.130557,-1.3223753,2.3198035,1.3210596,1.1268348,-1.587053
0.198,-1.8137263,-1.4670317,2.4332147,1.3112726,1.1137141,-1.5990531
0.2,-1.4906127,-1.6117916,2.5345557,1.3003128,1.0996821,-1.6101103
0.202,-1.1636282,-1.7557142,2.6264968,1.2881675,1.0850918,-1.6202673
0.204,-0.83346444,-1.8979045,2.7130177,1.2748415,1.0703077,-1.6296884
0.206,-0.50059205,-2.0376527,2.7941005,1.2603544,1.0556167,-1.6383473
0.208,-0.1767286,-2.169743,2.8624694,1.2447149,1.0413417,-1.6460334
0.21,0.1377883,-2.294031,2.91051,1.227917,1.0279344,-1.6525352
0.212,0.4493835,-2.4138997,2.9449878,1.2099571,1.0159299,-1.6576201
0.214,0.7533847,-2.5274777,2.9718726,1.1909146,1.0058961,-1.6610026
0.216,1.043827,-2.6319168,2.984741,1.1709509,0.998329,-1.6624197
0.218,1.3236456,-2.7275207,2.975578,1.1502476,0.9935972,-1.661617
0.22,1.5908971,-2.8129368,2.943742,1.128943,0.9919285,-1.6583798
0.222,1.8389997,-2.8864763,2.8888786,1.1072185,0.9933897,-1.6525161
0.224,2.0678444,-2.9487271,2.812581,1.0851994,0.9978236,-1.6440014
0.226,2.277612,-2.9994802,2.7191381,1.0629809,1.0049158,-1.6328927
0.228,2.4655147,-3.037541,2.6112924,1.04068,1.0142139,-1.6193005
0.23,2.6288402,-3.0626197,2.4875896,1.0183978,1.0251576,-1.6033705
0.232,2.7665515,-3.0752473,2.3454022,0.9962675,1.0371811,-1.5852623
0.234,2.8777494,-3.0758662,2.1838932,0.9744701,1.0497656,-1.5651408
0.236,2.961672,-3.064745,2.004041,0.9532372,1.0624263,-1.5431726
0.238,3.0181022,-3.042432,1.8075157,0.93280596,1.074722,-1.5195459
0.24,3.047432,-3.009253,1.5954776,0.91344744,1.0862688,-1.4944783
0.242,3.05001,-2.9654307,1.3685378,0.8954146,1.096691,-1.468254
0.244,3.0265086,-2.9113753,1.1270481,0.8788929,1.1056387,-1.4412364
0.246,2.9775624,-2.8482966,0.87203735,0.8640041,1.1127543,-1.413855
0.248,2.9040992,-2.7766767,0.60518163,0.8507828,1.1176564,-1.386613
0.25,2.8075655,-2.6972752,0.32788965,0.8391727,1.1199399,-1.3600937
0.252,2.689537,-2.6112206,0.041613467,0.8290526,1.11919,-1.3349257
0.254,2.5517886,-2.5195918,-0.2524141,0.8202684,1.1150045,-1.3117325
0.256,2.396611,-2.4238064,-0.55260277,0.81265485,1.1070588,-1.2911227
0.258,2.2261817,-2.3248324,-0.85701454,0.8060664,1.095055,-1.2736461
0.26,2.0427477,-2.2235065,-1.1635802,0.8004252,1.0787762,-1.2597275
0.262,1.8488433,-2.1208692,-1.4706372,0.79571265,1.0580885,-1.2496393
0.264,1.6467907,-2.0178258,-1.7765299,0.79196584,1.0329384,-1.2434956
0.266,1.4390739,-1.9151871,-2.0796568,0.7892686,1.0033528,-1.2412355
0.268,1.2281739,-1.8136189,-2.3781796,0.78772765,0.969404,-1.2426467
0.27,1.0162892,-1.7138585,-2.6699753,0.78748393,0.93123525,-1.247384
0.272,0.8059316,-1.6167505,-2.9529169,0.7886944,0.8890301,-1.255019
0.274,0.5991005,-1.5229452,-3.224854,0.7915246,0.84301597,-1.2650656
0.276,0.39758158,-1.4333061,-3.4837232,0.7961333,0.7934345,-1.2770591
0.278,0.20348275,-1.3483598,-3.727719,0.8026825,0.7405389,-1.2905449
0.28,0.018606037,-1.2688913,-3.9543636,0.811281,0.684553,-1.3051392
0.282,-0.15585688,-1.1953347,-4.161554,0.8219601,0.6256553,-1.3204856
0.284,-0.3184784,-1.1282189,-4.3475995,0.8347,0.5640147,-1.3362952
0.286,-0.4682162,-1.0679522,-4.510725,0.8494185,0.4998147,-1.3523061
0.288,-0.60468507,-1.0148844,-4.649302,0.8659563,0.43326658,-1.368253
0.29,-0.7269898,-0.9695045,-4.761793,0.8841138,0.36463314,-1.3838979
0.292,-0.83483994,-0.93200463,-4.8470035,0.90368485,0.29429504,-1.3990391
0.294,-0.927862,-0.9027248,-4.903992,0.9244431,0.22273141,-1.4134532
0.296,-1.0059401,-0.8817222,-4.9319983,0.9461931,0.15055925,-1.4268734
0.298,-1.0690429,-0.86941147,-4.9307604,0.9688033,0.07853633,-1.4390645
0.3,-1.1169219,-0.8659343,-4.900207,0.9922321,0.0075600743,-1.4498324
0.302,-1.1495836,-0.8714776,-4.840627,1.0165112,-0.061306953,-1.4590652
0.304,-1.1672137,-0.8862199,-4.7524233,1.0417638,-0.12684625,-1.4667332
0.306,-1.1696242,-0.9103152,-4.6364775,1.0681745,-0.18780288,-1.4729252
0.308,-1.1566256,-0.9439173,-4.494313,1.0959377,-0.24296266,-1.4778138
0.31,-1.1279309,-0.9871763,-4.3276253,1.1252198,-0.2912993,-1.4816412
0.312,-1.0836147,-1.040225,-4.1385417,1.1561427,-0.33202928,-1.4846702
0.314,-1.0233638,-1.1030453,-3.9293866,1.1887196,-0.3647353,-1.4871945
0.316,-0.9467714,-1.1755883,-3.7025294,1.2228587,-0.38935784,-1.489541
0.318,-0.8535203,-1.2577684,-3.4603157,1.2583356,-0.40623492,-1.4920136
0.32,-0.7430447,-1.3492428,-3.2056754,1.2948153,-0.41608065,-1.4948947
0.322,-0.61484724,-1.4498237,-2.9415586,1.331861,-0.41990644,-1.49842
0.324,-0.46861422,-1.55928,-2.6712716,1.3689591,-0.41895416,-1.5028045
0.326,-0.30421126,-1.6770536,-2.3982208,1.4055462,-0.41455764,-1.5082299
0.328,-0.12151253,-1.8025237,-2.1254683,1.4410535,-0.40804794,-1.5148097
0.33,0.07980561,-1.9350188,-1.856598,1.4749453,-0.4006409,-1.5226058
0.332,0.29980832,-2.0735388,-1.5945965,1.5067433,-0.39338234,-1.5316179
0.334,0.5380748,-2.2169278,-1.3426443,1.5360731,-0.38709652,-1.541774
0.336,0.79378814,-2.3636272,-1.1039196,1.5626613,-0.3823672,-1.5529791
0.338,1.0661566,-2.5119622,-0.8814595,1.5863733,-0.3795642,-1.5650809
0.34,1.3537769,-2.6600943,-0.67755,1.6071901,-0.37883252,-1.577877
0.342,1.6553509,-2.8059363,-0.49416712,1.6252217,-0.38014665,-1.5911443
0.344,1.9692433,-2.9475164,-0.33284885,1.6406779,-0.3833492,-1.6045892
0.346,2.2933846,-3.082703,-0.19517486,1.6538315,-0.38824517,-1.6179041
0.348,2.6255872,-3.209265,-0.082531914,1.6650262,-0.3946199,-1.6308291
0.35,2.9633589,-3.325036,0.004007086,1.6746492,-0.40229636,-1.6431304
0.352,3.3042593,-3.428055,0.06376907,1.6830738,-0.41118675,-1.6545838
0.354,3.6458578,-3.5163918,0.09675059,1.6906648,-0.42127535,-1.6649958
0.356,3.9857297,-3.5886922,0.103367925,1.6977757,-0.4326253,-1.6741738
0.358,4.3212633,-3.6435332,0.08452082,1.7047063,-0.4453686,-1.6819589
0.36,4.6497474,-3.6798387,0.041622028,1.711726,-0.45959732,-1.6882187
0.362,4.9685793,-3.696868,-0.023792282,1.7191058,-0.47531217,-1.6928815
0.364,5.2753515,-3.694112,-0.110064596,1.7270885,-0.49238655,-1.6958861
0.366,5.567593,-3.6713958,-0.21533443,1.7358809,-0.51061106,-1.6972308
0.368,5.8430095,-3.6291127,-0.33716163,1.7456522,-0.5296617,-1.696923
0.37,6.0997744,-3.568133,-0.47279763,1.7565206,-0.5491334,-1.6949722
0.372,6.3363585,-3.4894288,-0.6190265,1.7685605,-0.5685804,-1.6914032
0.374,6.551384,-3.3941438,-0.7725415,1.7817734,-0.58756375,-1.6862291
0.376,6.7439117,-3.28376,-0.93025446,1.796117,-0.60569036,-1.6794465
0.378,6.913322,-3.160214,-1.08939,1.8114773,-0.62264204,-1.671012
0.38,7.059322,-3.0255911,-1.2476826,1.8277106,-0.6382148,-1.6608528
0.382,7.181882,-2.8820314,-1.4029168,1.8446424,-0.65231013,-1.6488851
0.384,7.2813587,-2.7317965,-1.5527828,1.8621124,-0.6648704,-1.6350302
0.386,7.358754,-2.5771344,-1.6952263,1.8799875,-0.67583907,-1.6192644
0.388,7.415123,-2.4203968,-1.8283968,1.8981841,-0.68516624,-1.6016232
0.39,7.4518166,-2.263372,-1.9509953,1.9167039,-0.6928043,-1.5822157
0.392,7.47054,-2.1082106,-2.061936,1.9356095,-0.6987239,-1.5612494
0.394,7.4731603,-1.9567897,-2.1605196,1.9550256,-0.70294726,-1.5390357
0.396,7.4619236,-1.8108559,-2.246489,1.9750974,-0.7055646,-1.5159727
0.398,7.439029,-1.6716925,-2.320131,1.9959887,-0.70680285,-1.4925367
0.4,7.406834,-1.5403531,-2.382327,2.0178716,-0.7070122,-1.4692068
0.402,7.3679276,-1.4178622,-2.43451,2.0408893,-0.7067352,-1.4464328
0.404,7.3247313,-1.304788,-2.4783366,2.0651274,-0.7066635,-1.4246262
0.406,7.279808,-1.201579,-2.5156655,2.0906427,-0.70760536,-1.4041348
0.408,7.2355022,-1.1081936,-2.548453,2.1174426,-0.71043426,-1.385237
0.41,7.194127,-1.0243769,-2.5788796,2.1454875,-0.7160219,-1.3681725
0.412,7.15804,-0.9495162,-2.6095898,2.1747355,-0.725173,-1.353101
0.414,7.12926,-0.8829893,-2.6429062,2.2051272,-0.7386048,-1.3400986
0.416,7.1096945,-0.82404697,-2.6815138,2.2365973,-0.75692016,-1.3291746
0.418,7.1008444,-0.77178323,-2.7286215,2.269129,-0.7805892,-1.3202678
0.42,7.104579,-0.7251301,-2.7869995,2.3027358,-0.8099526,-1.3132588
0.422,7.1222258,-0.682945,-2.859334,2.3374772,-0.8452755,-1.307983
0.424,7.154872,-0.64352405,-2.9488366,2.3734322,-0.88675594,-1.304228
0.426,7.2027636,-0.6050303,-3.058487,2.4107146,-0.93455964,-1.3017267
0.428,7.266071,-0.5656433,-3.1906419,2.4494848,-0.98880154,-1.3001984
0.43,7.3422694,-0.5233567,-3.3464153,2.4899068,-1.0495993,-1.2993515
0.432,7.433157,-0.47845435,-3.5263755,2.532175,-1.1170723,-1.2988955
0.434,7.541978,-0.4317248,-3.7331066,2.5764713,-1.1913514,-1.2985564
0.436,7.6673503,-0.38089037,-3.9663208,2.622938,-1.2726008,-1.2980624
0.438,7.807937,-0.3240335,-4.2260337,2.6716764,-1.3610332,-1.2971369
0.44,7.9639926,-0.25930762,-4.5107284,2.7227404,-1.4568892,-1.2955004
0.442,8.133905,-0.18484807,-4.8160295,2.7761269,-1.5604346,-1.2928822
0.444,8.311592,-0.09761691,-5.136552,2.8317637,-1.6719548,-1.2890428
0.446,8.497216,-0.00027799606,-5.4572124,2.8895078,-1.7916896,-1.2837439
0.448,8.697042,0.10174298,-5.774185,2.9491758,-1.9198998,-1.2767434
0.45,8.90673,0.21163654,-6.095294,3.0105226,-2.0568583,-1.2678185
0.452,9.120404,0.33290887,-6.423914,3.0732508,-2.2026918,-1.2567774
0.454,9.339177,0.4645629,-6.758921,3.137038,-2.3573725,-1.2434758
0.456,9.564922,0.60549545,-7.0918236,3.2015693,-2.5206008,-1.2278266
0.458,9.796096,0.75640726,-7.410946,3.2665927,-2.6917546,-1.2098218
0.46,10.031163,0.91798115,-7.704234,3.331882,-2.8698988,-1.1895249
0.462,10.270227,1.089179,-7.9628754,3.3973322,-3.0536275,-1.166959
0.464,10.512778,1.267591,-8.183571,3.4630077,-3.2411995,-1.1420494
0.466,10.758075,1.4511056,-8.365779,3.528937,-3.4310145,-1.1148586
0.468,11.005925,1.6377783,-8.507233,3.5952299,-3.6213577,-1.0854969
0.47,11.256688,1.8261266,-8.60413,3.6620302,-3.8107007,-1.0539103
0.472,11.510543,2.0159278,-8.653301,3.729438,-3.9977727,-1.0200467
0.474,11.767822,2.2074022,-8.652811,3.797503,-4.1817136,-0.9839101
0.476,12.029758,2.4002714,-8.602416,3.8662739,-4.3615336,-0.9453192
0.478,12.296447,2.5949497,-8.504963,3.9361832,-4.535177,-0.9036044
0.48,12.567273,2.7918777,-8.364954,4.007842,-4.7014894,-0.85825956
0.482,12.841404,2.9911828,-8.186834,4.081939,-4.8600445,-0.8092203
0.484,13.11748,3.1929002,-7.974276,4.159124,-5.01001,-0.7562314
0.486,13.393016,3.3973517,-7.7314296,4.2397485,-5.1504793,-0.69880116
0.488,13.664529,3.605384,-7.4631567,4.324355,-5.280113,-0.63661385
0.49,13.927788,3.8178496,-7.174722,4.4139876,-5.3969154,-0.5698123
0.492,14.178022,4.0357795,-6.8725357,4.510154,-5.498522,-0.4990325
0.494,14.4099,4.260415,-6.563265,4.6146207,-5.582627,-0.42520785
0.496,14.617067,4.493547,-6.2527504,4.7290716,-5.6473384,-0.34935498
0.498,14.793172,4.736924,-5.9458113,4.85485,-5.6913176,-0.27249813
0.5,14.931347,4.9922743,-5.646449,4.9927063,-5.713705,-0.19578028
0.502,15.024851,5.261738,-5.3580184,5.142607,-5.713892,-0.12059593
0.504,15.066885,5.547309,-5.083077,5.303639,-5.691388,-0.048605204
0.506,15.051079,5.850992,-4.8233542,5.474025,-5.645538,0.018357992
0.508,14.972048,6.1745224,-4.5795255,5.6512475,-5.575382,0.078415155
0.51,14.824775,6.5196733,-4.3514376,5.832382,-5.479471,0.12986588
0.512,14.605444,6.8884974,-4.1379805,6.014474,-5.356008,0.17150402
0.514,14.311636,7.2826934,-3.9374905,6.1949677,-5.2030897,0.20284319
0.516,13.942475,7.7036457,-3.748322,6.3718963,-5.0193167,0.22408509
0.518,13.49873,8.15233,-3.5685678,6.543979,-4.80429,0.23617363
0.52,12.982673,8.62946,-3.3964276,6.7107005,-4.5589437,0.24087667
0.522,12.398097,9.135479,-3.2295344,6.871943,-4.2864275,0.24037993
0.524,11.750342,9.670469,-3.0658288,7.027758,-3.992015,0.2368598
0.526,11.0457325,10.234207,-2.9031904,7.1781645,-3.6829858,0.23231018
0.528,10.29209,10.825851,-2.7392068,7.322926,-3.3680334,0.22826457
0.53,9.497809,11.443865,-2.5723743,7.461445,-3.0569377,0.22535324
0.532,8.67251,12.086248,-2.401465,7.592663,-2.76002,0.2232027
0.534,7.8261886,12.750168,-2.2251105,7.7155547,-2.4855185,0.22117412
0.536,6.969382,13.432358,-2.0420585,7.8293815,-2.2400367,0.21847439
0.538,6.112162,14.1294565,-1.8516989,7.9338655,-2.0292845,0.21369791
0.54,5.2661514,14.837709,-1.6536226,8.02925,-1.8572946,0.2053076
0.542,4.437752,15.555073,-1.4472017,8.115833,-1.7267313,0.19220263
0.544,3.6326618,16.278849,-1.229785,8.193863,-1.6389496,0.17384952
0.546,2.8608186,17.002983,-1.0011797,8.263693,-1.5939353,0.15005946
0.548,2.1303146,17.722305,-0.76056194,8.325886,-1.5903616,0.12067652
0.55,1.4461485,18.432364,-0.507596,8.381169,-1.6259096,0.08543742
0.552,0.81443894,19.128983,-0.24318218,8.430275,-1.6977177,0.044023156
0.554,0.24304235,19.807755,0.032731056,8.473813,-1.8027238,-0.0038194656
0.556,-0.2680363,20.469553,0.31420708,8.512174,-1.9378092,-0.05821812
0.558,-0.7239224,21.116142,0.6089916,8.545599,-2.0998385,-0.11922693
0.56,-1.1186244,21.740652,0.93242645,8.574212,-2.2856712,-0.18692887
0.562,-1.4479766,22.338156,1.2905178,8.598138,-2.4921582,-0.26143003
0.564,-1.7156457,22.909237,1.6830463,8.617499,-2.716261,-0.34290922
0.566,-1.9249856,23.454113,2.1034431,8.632406,-2.9550672,-0.43166244
0.568,-2.076065,23.971455,2.5452785,8.642923,-3.2058432,-0.5280181
0.57,-2.1698027,24.460566,3.0048814,8.64909,-3.466055,-0.6322708
0.572,-2.2092016,24.922737,3.4831958,8.650931,-3.7333121,-0.7446692
0.574,-2.1968508,25.35992,3.9855413,8.648441,-4.005354,-0.865428
0.576,-2.1352046,25.773603,4.5170903,8.641583,-4.2799997,-0.99469495
0.578,-2.0272453,26.164196,5.0787144,8.630299,-4.555157,-1.1325848
0.58,-1.8764029,26.531662,5.6689324,8.614506,-4.828838,-1.2791193
0.582,-1.6859251,26.875065,6.286339,8.594113,-5.0991607,-1.434183
0.584,-1.4592856,27.19369,6.9299192,8.569029,-5.36439,-1.5975215
0.586,-1.2007228,27.487808,7.599256,8.53914,-5.6228476,-1.7687333
0.588,-0.91331357,27.757195,8.295,8.504342,-5.8729343,-1.9473038
0.59,-0.59967315,28.00195,9.017387,8.4645405,-6.1131535,-2.1326575
0.592,-0.26269406,28.222582,9.764748,8.419643,-6.342079,-2.3241513
0.594,0.09497589,28.419703,10.533953,8.369574,-6.558411,-2.5211277
0.596,0.47111535,28.593245,11.322037,8.314243,-6.7610216,-2.722897
0.598,0.86377716,28.742668,12.126499,8.253576,-6.948973,-2.9287868
0.6,1.27059,28.867699,12.9451065,8.187504,-7.121528,-3.1380937
0.602,1.6895288,28.967737,13.776231,8.115954,-7.2781625,-3.350127
0.604,2.1186807,29.041845,14.618109,8.038908,-7.4185543,-3.5641782
0.606,2.556526,29.088923,15.468124,7.9563904,-7.542567,-3.7795184
0.608,3.0016823,29.107784,16.323055,7.868449,-7.6502514,-3.9953904
0.61,3.4533672,29.097404,17.179512,7.775228,-7.7417693,-4.2110224
0.612,3.9107118,29.056826,18.034266,7.676899,-7.81739,-4.4256244
0.614,4.3736706,28.98509,18.884058,7.57369,-7.8775077,-4.638404
0.616,4.8416767,28.882362,19.725502,7.465829,-7.9226027,-4.848568
0.618,5.316087,28.746666,20.555332,7.353555,-7.953278,-5.0553265
0.62,5.796886,28.577417,21.369438,7.2370825,-7.97022,-5.257882
0.622,6.2845993,28.373804,22.164434,7.116617,-7.9742537,-5.4554496
0.624,6.780072,28.13563,22.936531,6.992342,-7.9662795,-5.6472883
0.626,7.284175,27.86272,23.682419,6.864381,-7.9472103,-5.8327246
0.628,7.797653,27.55563,24.398682,6.732845,-7.917947,-6.0111566
0.63,8.322644,27.213959,25.082994,6.5978255,-7.8793488,-6.182062
0.632,8.859414,26.837433,25.729498,6.4594,-7.832153,-6.3449955
0.634,9.407995,26.426914,26.33746,6.31765,-7.7769713,-6.4995856
0.636,9.970743,25.982471,26.904057,6.172691,-7.7142763,-6.645546
0.638,10.5478325,25.505564,27.42675,6.0246725,-7.6443987,-6.7826495
0.64,11.139429,24.997421,27.904284,5.873779,-7.5675526,-6.910697
0.642,11.74584,24.459139,28.335194,5.72025,-7.4838233,-7.0295215
0.644,12.3666935,23.892006,28.718464,5.564373,-7.3932347,-7.138955
0.646,13.001425,23.29755,29.053305,5.4064703,-7.2958474,-7.2388854
0.648,13.649332,22.677303,29.339273,5.246908,-7.191638,-7.329194
0.65,14.309099,22.033072,29.576303,5.0861096,-7.0806627,-7.4096804
0.652,14.979247,21.36691,29.764362,4.9245186,-6.9630504,-7.480132
0.654,15.658158,20.680893,29.904219,4.762582,-6.8390393,-7.540343
0.656,16.343481,19.977097,29.996838,4.600725,-6.7089977,-7.5901384
0.658,17.032688,19.25766,30.043625,4.439309,-6.573348,-7.6293674
0.66,17.723135,18.524925,30.046137,4.2786694,-6.4324026,-7.6578407
0.662,18.411911,17.781233,30.00597,4.119035,-6.287,-7.6754804
0.664,19.096087,17.028847,29.924955,3.9606194,-6.1379685,-7.6822295
0.666,19.772682,16.270088,29.805151,3.803653,-5.98578,-7.6779156
0.668,20.438812,15.507366,29.64856,3.6482635,-5.8311944,-7.6624365
0.67,21.091244,14.743125,29.457397,3.4945934,-5.6748343,-7.6357536
0.672,21.727055,13.979604,29.233839,3.342807,-5.5172276,-7.597815
0.674,22.343172,13.219178,28.979752,3.1930902,-5.358897,-7.5486436
0.676,22.936764,12.464169,28.697676,3.0456278,-5.20025,-7.488329
0.678,23.505234,11.716757,28.389843,2.9006286,-5.041664,-7.4170117
0.68,24.046003,10.979363,28.058584,2.75831,-4.8834515,-7.334938
0.682,24.556833,10.253927,27.70627,2.618874,-4.725893,-7.2424726
0.684,25.03567,9.542649,27.335234,2.4825323,-4.569174,-7.14009
0.686,25.480944,8.8470955,26.947542,2.3494596,-4.4133787,-7.028327
0.688,25.89092,8.1690445,26.545094,2.2198174,-4.258545,-6.907793
0.69,26.264427,7.5100136,26.12954,2.093707,-4.1046357,-6.77913
0.692,26.600235,6.8713226,25.702572,1.9712446,-3.9515886,-6.6430063
0.694,26.897617,6.254136,25.265907,1.852545,-3.7993255,-6.5000906
0.696,27.156319,5.6593733,24.82104,1.7377017,-3.6478002,-6.351074
0.698,27.376099,5.0878487,24.36957,1.626818,-3.496995,-6.196663
0.7,27.556862,4.5402737,23.913128,1.5199699,-3.346919,-6.0375633
0.702,27.698647,4.0168905,23.45314,1.4172254,-3.1977143,-5.87451
0.704,27.801775,3.5178642,22.990791,1.3186316,-3.049512,-5.7083282
0.706,27.866545,3.043418,22.527296,1.2242293,-2.9024758,-5.5397964
0.708,27.893578,2.5936432,22.063631,1.1340783,-2.7567964,-5.3696914
0.71,27.883974,2.1682396,21.60083,1.0482314,-2.612659,-5.1987453
0.712,27.838274,1.7669029,21.139992,0.9667375,-2.4702678,-5.0276747
0.714,27.757296,1.3891869,20.681915,0.8896282,-2.3299277,-4.8571844
0.716,27.641819,1.0346193,20.227358,0.8169421,-2.1915183,-4.687851
0.718,27.492546,0.702672,19.776943,0.7486428,-2.0551658,-4.5202236
0.72,27.310104,0.39263344,19.331093,0.6846236,-1.921313,-4.3549204
0.722,27.095514,0.10372639,18.890179,0.6248169,-1.7900581,-4.192394
0.724,26.849594,-0.1647911,18.45469,0.56906605,-1.6616243,-4.0330434
0.726,26.573763,-0.4144659,18.024918,0.51716864,-1.5362934,-3.877245
0.728,26.267765,-0.64473057,17.600943,0.4689144,-1.4142911,-3.7253451
0.73,25.93352,-0.85685253,17.183395,0.4240892,-1.2958443,-3.5776782
0.732,25.57235,-1.0518131,16.771967,0.3824792,-1.1811385,-3.4345622
0.734,25.185051,-1.2307758,16.366688,0.34389126,-1.0703313,-3.296284
0.736,24.773064,-1.3948002,15.967688,0.30815005,-0.9635304,-3.1631498
0.738,24.338003,-1.5452051,15.574966,0.2750907,-0.86083364,-3.0354605
0.74,23.880363,-1.6823177,15.187927,0.24456847,-0.7622949,-2.9135318
0.742,23.402863,-1.8066473,14.808691,0.21643132,-0.66792315,-2.7976677
0.744,22.908173,-1.9196157,14.434582,0.19053519,-0.5776956,-2.6881733
0.746,22.3967,-2.0215712,14.065964,0.16672003,-0.4915992,-2.5853302
0.748,21.871214,-2.114088,13.7033615,0.1448105,-0.40957236,-2.489394
0.75,21.334404,-2.1979198,13.346149,0.12465632,-0.33155817,-2.4005575
0.752,20.78829,-2.2735357,12.994624,0.10610151,-0.257515,-2.3189845
0.754,20.235489,-2.341567,12.648719,0.089018464,-0.18739629,-2.244782
0.756,19.678583,-2.402482,12.308285,0.073257625,-0.121171296,-2.1780198
0.758,19.119736,-2.4566813,11.973532,0.058671415,-0.058833778,-2.1187363
0.76,18.561625,-2.5046883,11.644541,0.04509431,-0.00044709444,-2.066946
0.762,18.006624,-2.5467615,11.321559,0.03234583,0.053880572,-2.0226238
0.764,17.45686,-2.583128,11.004606,0.020244032,0.103963435,-1.9856995
0.766,16.914747,-2.6138802,10.69382,0.008591652,0.1495387,-1.9560814
0.768,16.382486,-2.6390438,10.38927,-0.0028230548,0.19029635,-1.9336171
0.77,15.861858,-2.6587038,10.091043,-0.014199227,0.22587276,-1.9181213
0.772,15.354372,-2.6728349,9.799295,-0.025726885,0.25590396,-1.9093556
0.774,14.861404,-2.681397,9.514104,-0.0375807,0.28008676,-1.9070394
0.776,14.383934,-2.6843352,9.235541,-0.04989806,0.2981776,-1.9108765
0.778,13.922951,-2.6814756,8.96377,-0.06281343,0.3100415,-1.9205405
0.78,13.47941,-2.6731462,8.698852,-0.07644203,0.3156516,-1.935713
0.782,13.053732,-2.6593223,8.441055,-0.09088412,0.31508434,-1.9560429
0.784,12.6466465,-2.6403408,8.190528,-0.106203556,0.30850405,-1.981202
0.786,12.258479,-2.6164227,7.947431,-0.1224502,0.29613626,-2.010864
0.788,11.889526,-2.5880442,7.7118645,-0.13966128,0.27824342,-2.0446925
0.79,11.54001,-2.5558066,7.484174,-0.15784436,0.2550888,-2.082327
0.792,11.210031,-2.5203557,7.264596,-0.17698371,0.22693396,-2.1233935
0.794,10.899805,-2.4825873,7.053232,-0.19702214,0.19400269,-2.1674793
0.796,10.609129,-2.4432974,6.850263,-0.21789423,0.15650827,-2.214164
0.798,10.337998,-2.4034443,6.656176,-0.23950613,0.11467272,-2.2629895
0.8,10.086192,-2.364019,6.471323,-0.2617604,0.06875634,-2.3134718
0.802,9.853632,-2.3261018,6.296213,-0.28453022,0.019046366,-2.3651216
0.804,9.64002,-2.2909555,6.13124,-0.307693,-0.03409183,-2.4174306
0.806,9.445091,-2.2597322,5.97683,-0.33113623,-0.09021497,-2.4698887
0.808,9.268346,-2.2335355,5.8335104,-0.35477126,-0.14884996,-2.5219913
0.81,9.109563,-2.2135375,5.7017326,-0.37851286,-0.20946515,-2.5732517
0.812,8.9681425,-2.2006612,5.5820494,-0.40231717,-0.27149963,-2.6231744
0.814,8.84337,-2.1959407,5.4748945,-0.42616245,-0.3343917,-2.6712608
0.816,8.734724,-2.2002144,5.3807526,-0.45004097,-0.39759076,-2.717012
0.818,8.641093,-2.2141726,5.300228,-0.47398952,-0.46057582,-2.7599416
0.82,8.561441,-2.2382011,5.233609,-0.49805436,-0.52287817,-2.7995412
0.822,8.494911,-2.2726853,5.181238,-0.5222614,-0.5840589,-2.8353271
0.824,8.440336,-2.3176405,5.143561,-0.54662335,-0.6436628,-2.8668137
0.826,8.396585,-2.3731492,5.120865,-0.5711137,-0.70123434,-2.893528
0.828,8.362364,-2.4390793,5.113558,-0.5956515,-0.75626266,-2.9150138
0.83,8.336412,-2.5150144,5.122187,-0.62009704,-0.80816007,-2.9308403
0.832,8.317162,-2.6001773,5.14702,-0.6442651,-0.85625196,-2.9406166
0.834,8.302919,-2.6937754,5.1882105,-0.667904,-0.89977545,-2.9439893
0.836,8.292231,-2.7946384,5.245866,-0.69073164,-0.9379056,-2.9406471
0.838,8.283381,-2.9015653,5.3199897,-0.7124245,-0.96976066,-2.9302926
0.84,8.274725,-3.0133014,5.4107337,-0.73262715,-0.99445474,-2.912668
0.842,8.264462,-3.1284585,5.518091,-0.75096095,-1.0111122,-2.8875399
0.844,8.251244,-3.2456427,5.641987,-0.7670546,-1.018928,-2.8546948
0.846,8.233172,-3.3630419,5.781932,-0.7805315,-1.0171809,-2.8139572
0.848,8.208583,-3.4791021,5.937488,-0.79103994,-1.0052464,-2.7651827
0.85,8.175958,-3.5920873,6.107823,-0.7982345,-0.9825985,-2.7082438
0.852,8.133715,-3.7003448,6.292182,-0.80180156,-0.9488356,-2.6430678
0.854,8.0801,-3.8021793,6.4893775,-0.80147976,-0.9036474,-2.5696483
0.856,8.013463,-3.8956852,6.69816,-0.79708946,-0.8468359,-2.4880142
0.858,7.932004,-3.9791043,6.916825,-0.78852624,-0.77832013,-2.3982608
0.86,7.833844,-4.050576,7.1437535,-0.7757682,-0.69814956,-2.3005395
0.862,7.7175775,-4.1083975,7.37707,-0.7589042,-0.6065488,-2.1950645
0.864,7.581632,-4.150943,7.615051,-0.7381462,-0.5039042,-2.0821197
0.866,7.424264,-4.1766763,7.856189,-0.71380943,-0.39076573,-1.9620544
0.868,7.2443247,-4.1842594,8.098661,-0.68627375,-0.2678129,-1.8352998
0.87,7.0402193,-4.1723657,8.340766,-0.6559888,-0.13579464,-1.7023524
0.872,6.8107176,-4.1399646,8.580913,-0.6234076,0.0045256615,-1.5637558
0.874,6.554742,-4.0859537,8.817543,-0.5889916,0.15240932,-1.4201231
0.876,6.2710676,-4.0092883,9.049403,-0.55319184,0.30720744,-1.272136
0.878,5.9587874,-3.9090548,9.275377,-0.51641744,0.468403,-1.1205193
0.88,5.6173015,-3.784476,9.494835,-0.47902378,0.6356418,-0.96607774
0.882,5.245879,-3.634978,9.707228,-0.44132248,0.80869675,-0.8096704
0.884,4.844305,-3.4599502,9.912633,-0.40359536,0.98746747,-0.6522231
0.886,4.412461,-3.2591593,10.111099,-0.36609143,1.1719276,-0.4947206
0.888,3.9501815,-3.0322304,10.302835,-0.32907233,1.3620783,-0.3381983
0.89,3.45747,-2.7788258,10.488094,-0.29278898,1.5578809,-0.1837256
0.892,2.934816,-2.498815,10.667353,-0.2575395,1.7592005,-0.032393515
0.894,2.3826075,-2.1920326,10.841139,-0.22364292,1.9657286,0.114735484
0.896,1.801553,-1.8585339,11.010013,-0.19143748,2.1769917,0.25663084
0.898,1.1922421,-1.4982495,11.174422,-0.16129148,2.392336,0.3923111
0.9,0.5558883,-1.1114635,11.334784,-0.13359469,2.6108942,0.5208813
0.902,-0.10642183,-0.69846106,11.491631,-0.10873115,2.8316038,0.6415319
0.904,-0.7934712,-0.2595806,11.645544,-0.08705521,3.053239,0.75352204
0.906,-1.5035203,0.20450354,11.796968,-0.06887871,3.2744694,0.8561919
0.908,-2.234775,0.6930604,11.9457,-0.054433465,3.4938602,0.9489252
0.91,-2.9850318,1.2050223,12.091498,-0.043872595,3.7099817,1.0311245
0.912,-3.752396,1.739438,12.233702,-0.03727472,3.9214187,1.1022059
0.914,-4.534009,2.294964,12.371666,-0.0346303,4.126812,1.1615727
0.916,-5.3273396,2.8702211,12.504863,-0.035869956,4.324907,1.2086124
0.918,-6.1290364,3.4635236,12.63253,-0.040870786,4.514495,1.2427119
0.92,-6.9359703,4.072991,12.753423,-0.049480677,4.694445,1.2632422
0.922,-7.74445,4.696372,12.86607,-0.06152582,4.8636875,1.2695947
0.924,-8.550583,5.331148,12.9691925,-0.076853275,5.0211554,1.2611661
0.926,-9.350876,5.974881,13.061522,-0.09529531,5.1658454,1.23739
0.928,-10.141288,6.6246624,13.141689,-0.116677046,5.296811,1.1977345
0.93,-10.918039,7.2777367,13.208459,-0.1408534,5.4131727,1.1417327
0.932,-11.677378,7.9312167,13.260307,-0.16766357,5.514106,1.0689644
0.934,-12.415433,8.581978,13.295725,-0.1969558,5.5988817,0.9791306
0.936,-13.128647,9.226957,13.313374,-0.22860146,5.6668305,0.87200975
0.938,-13.813631,9.863144,13.31198,-0.2624935,5.7173605,0.7475114
0.94,-14.467079,10.487535,13.290634,-0.29853487,5.7499037,0.6056783
0.942,-15.086211,11.0970955,13.248796,-0.33666813,5.763925,0.4467032
0.944,-15.668579,11.6890745,13.186098,-0.37684858,5.7588654,0.27095532
0.946,-16.212267,12.260705,13.102497,-0.41905177,5.73414,0.07895565
0.948,-16.715569,12.809557,12.99828,-0.46330506,5.68917,-0.1286447
0.95,-17.17728,13.333485,12.873924,-0.50966793,5.623334,-0.35105324
0.952,-17.596558,13.830452,12.730158,-0.55823,5.5360136,-0.5873511
0.954,-17.973024,14.298711,12.568241,-0.60910773,5.4266405,-0.83652806
0.956,-18.306734,14.736613,12.389898,-0.66244143,5.294756,-1.0975115
0.958,-18.597832,15.142735,12.197224,-0.71836174,5.140025,-1.369156
0.96,-18.846573,15.51567,11.992814,-0.77698016,4.962284,-1.6502852
0.962,-19.053705,15.854433,11.779175,-0.8383607,4.7616363,-1.9396667
0.964,-19.219715,16.15794,11.558975,-0.9025081,4.5384936,-2.2360659
0.966,-19.345432,16.425299,11.335025,-0.9693707,4.29364,-2.538253
0.968,-19.431488,16.655762,11.110115,-1.0388234,4.028261,-2.8449874
0.97,-19.478718,16.848694,10.887153,-1.1106561,3.7439654,-3.1550896
0.972,-19.488045,17.00357,10.669053,-1.1846243,3.442806,-3.4674327
0.974,-19.460142,17.120077,10.458704,-1.260427,3.127195,-3.7809625
0.976,-19.395576,17.197926,10.258725,-1.3377504,2.7998745,-4.094684
0.978,-19.294952,17.2371,10.071744,-1.4162261,2.4638164,-4.4076695
0.98,-19.15894,17.23763,9.899979,-1.4955077,2.1221123,-4.7190623
0.982,-18.987999,17.199762,9.74564,-1.575254,1.7778887,-5.028056
0.984,-18.782824,17.123894,9.610605,-1.6551169,1.434234,-5.3338757
0.986,-18.543676,17.010752,9.496233,-1.7347955,1.0941687,-5.6357813
0.988,-18.270681,16.860859,9.403645,-1.8139973,0.760576,-5.933096
0.99,-17.96489,16.675146,9.333418,-1.8924497,0.43624973,-6.225154
0.992,-17.625996,16.455482,9.286066,-1.969883,0.123830795,-6.5113115
0.994,-17.25397,16.20312,9.261369,-2.0460746,-0.17417097,-6.791008
0.996,-16.849812,15.919949,9.259045,-2.120791,-0.4554112,-7.063721
0.998,-16.413876,15.608124,9.27833,-2.193789,-0.71769166,-7.3290205
1,-15.9461155,15.270042,9.318159,-2.264814,-0.959008,-7.5865526
1.002,-15.44716,14.908199,9.377706,-2.3335483,-1.1775701,-7.8360243
1.004,-14.917022,14.525365,9.455982,-2.3996286,-1.3718057,-8.077244
1.006,-14.35564,14.124618,9.551828,-2.462614,-1.5403805,-8.310117
1.008,-13.763146,13.709233,9.664227,-2.522005,-1.6822219,-8.534651
1.01,-13.139298,13.282518,9.791584,-2.5772672,-1.7965515,-8.750941
1.012,-12.4838705,12.847787,9.932324,-2.6278205,-1.8828764,-8.959178
1.014,-11.797015,12.409014,10.084695,-2.6730568,-1.9410357,-9.159656
1.016,-11.078306,11.969681,10.247117,-2.7123375,-1.9712427,-9.352813
1.018,-10.327824,11.533495,10.418339,-2.7450309,-1.9740536,-9.539192
1.02,-9.545546,11.104191,10.597269,-2.7705462,-1.9503579,-9.719441
1.022,-8.731312,10.685089,10.78291,-2.7882779,-1.9014509,-9.894271
1.024,-7.885419,10.279677,10.974351,-2.79772,-1.8290164,-10.064533
1.026,-7.0083685,9.891769,11.171242,-2.7984586,-1.7351189,-10.231126
1.028,-6.100233,9.523267,11.371361,-2.7901545,-1.6221833,-10.394918
1.03,-5.1631227,9.178922,11.574727,-2.772591,-1.4930165,-10.5568285
1.032,-4.1969304,8.861489,11.780873,-2.7457051,-1.350718,-10.71773
1.034,-3.2031205,8.573941,11.989686,-2.7095594,-1.1986544,-10.8784275
1.036,-2.183077,8.319426,12.201041,-2.6643715,-1.040432,-11.039639
1.038,-1.138277,8.101028,12.415043,-2.6105077,-0.87986374,-11.201998
1.04,-0.07001376,7.9214144,12.631641,-2.5485232,-0.72094107,-11.365997
1.042,1.0201654,7.7831454,12.850875,-2.4791164,-0.56776,-11.531955
1.044,2.1306016,7.6886578,13.072809,-2.4031017,-0.42446804,-11.700108
1.046,3.2596908,7.640447,13.297926,-2.3214405,-0.2951994,-11.870615
1.048,4.406499,7.6408405,13.526682,-2.2351573,-0.18396091,-12.043493
1.05,5.5702963,7.6915207,13.759535,-2.145347,-0.09451723,-12.218695
1.052,6.7505236,7.7942834,13.997316,-2.0531456,-0.030329704,-12.3960705
1.054,7.946984,7.9502406,14.2407055,-1.9596729,0.0055208206,-12.5754175
1.056,9.159776,8.159978,14.488571,-1.8660302,0.010514736,-12.756541
1.058,10.392016,8.421207,14.741507,-1.7732852,-0.0175066,-12.9390335
1.06,11.637764,8.737989,15.002756,-1.6824183,-0.080071926,-13.122447
1.062,12.901443,9.107546,15.278999,-1.5943079,-0.178123,-13.306338
1.064,14.187153,9.528318,15.566789,-1.5097194,-0.3120737,-13.490142
1.066,15.496219,10.00107,15.868017,-1.4293447,-0.4818182,-13.6732235
1.068,16.832151,10.5213995,16.18541,-1.3537488,-0.68677855,-13.854904
1.07,18.19627,11.088502,16.521297,-1.2833943,-0.9259658,-14.034432
1.072,19.59225,11.697414,16.878376,-1.2186275,-1.1980724,-14.211008
1.074,21.021519,12.345768,17.257786,-1.1596689,-1.5015247,-14.383782
1.076,22.485996,13.030378,17.663437,-1.1067348,-1.8344655,-14.551893
1.078,23.98908,13.746617,18.09653,-1.0598874,-2.1948488,-14.714434
1.08,25.53261,14.490658,18.5585,-1.019094,-2.5804095,-14.8705435
1.082,27.117489,15.258865,19.05118,-0.9843397,-2.9888277,-15.019454
1.084,28.74508,16.046406,19.576202,-0.95552826,-3.4176157,-15.160362
1.086,30.41459,16.850079,20.13559,-0.9324899,-3.8641508,-15.292438
1.088,32.12458,17.666904,20.73123,-0.91498137,-4.3258696,-15.414778
1.09,33.87535,18.492188,21.363173,-0.90288734,-4.8006806,-15.526878
1.092,35.66523,19.322382,22.031092,-0.89584684,-5.2862763,-15.62812
1.094,37.490833,20.15516,22.734606,-0.8934612,-5.780031,-15.7177105
1.096,39.349495,20.986282,23.472824,-0.89534664,-6.2803497,-15.795101
1.098,41.237007,21.813116,24.24402,-0.90096426,-6.785246,-15.859404
1.1,43.149742,22.632492,25.046093,-0.90987015,-7.29292,-15.909847
1.102,45.08251,23.440605,25.876133,-0.9215236,-7.80161,-15.945538
1.104,47.029972,24.234142,26.730883,-0.93540716,-8.309634,-15.965561
1.106,48.987545,25.010149,27.606396,-0.95085526,-8.815412,-15.969189
1.108,50.949364,25.765137,28.498516,-0.9671297,-9.317124,-15.955603
1.11,52.909454,26.495306,29.402344,-0.9834728,-9.813178,-15.923894
1.112,54.862526,27.196978,30.312752,-0.99909973,-10.30181,-15.873294
1.114,56.802444,27.86617,31.224545,-1.0132551,-10.781315,-15.802945
1.116,58.72374,28.49872,32.132652,-1.0252099,-11.250059,-15.712008
1.118,60.62187,29.090471,33.031723,-1.0342054,-11.706447,-15.599845
1.12,62.491882,29.637894,33.91674,-1.0394411,-12.148979,-15.465776
1.122,64.33001,30.137386,34.782463,-1.0401332,-12.57637,-15.30905
1.124,66.13328,30.585215,35.62456,-1.0355325,-12.987651,-15.129038
1.126,67.89835,30.978031,36.438534,-1.0248778,-13.38207,-14.925105
1.128,69.62319,31.31318,37.22038,-1.0074408,-13.75908,-14.696602
1.13,71.3056,31.588358,37.966286,-0.9823874,-14.118356,-14.442973
1.132,72.94409,31.802551,38.67299,-0.94890213,-14.459704,-14.16367
1.134,74.538,31.955173,39.337433,-0.90608203,-14.782933,-13.858206
1.136,76.086426,32.046658,39.956215,-0.85301805,-15.08782,-13.526231
1.138,77.58811,32.080284,40.52886,-0.7887716,-15.374074,-13.167563
1.14,79.04486,32.057903,41.054108,-0.7123883,-15.641318,-12.782232
1.142,80.45581,31.985546,41.532177,-0.62290204,-15.888966,-12.370416
1.144,81.822044,31.870342,41.963608,-0.5192051,-16.116024,-11.932145
1.146,83.14504,31.72044,42.350006,-0.40030873,-16.321945,-11.467873
1.148,84.427025,31.546152,42.69332,-0.26507676,-16.506376,-10.97833
1.15,85.67014,31.359928,42.99681,-0.11223388,-16.668251,-10.464159
1.152,86.87709,31.175837,43.265083,0.059454083,-16.807383,-9.9264145
1.154,88.0505,31.009924,43.503834,0.25142193,-16.923626,-9.366185
1.156,89.19302,30.879707,43.719772,0.46504998,-17.017002,-8.784789
1.158,90.30647,30.804247,43.920544,0.7017338,-17.087696,-8.18366
1.16,91.393234,30.803831,44.114044,0.9627054,-17.136028,-7.5641327
1.162,92.45625,30.899878,44.30799,1.2490783,-17.162752,-6.9277377
1.164,93.49729,31.115227,44.511196,1.5618374,-17.168615,-6.2760134
1.166,94.519516,31.471922,44.734352,1.9017094,-17.154617,-5.610318
1.168,95.52507,31.995464,44.98539,2.2691789,-17.12204,-4.9317546
1.17,96.52219,32.705868,45.272392,2.6644595,-17.072336,-4.2411547
1.172,97.51244,33.625885,45.595955,3.0873682,-17.007149,-3.5390563
1.174,98.49011,34.786533,45.96333,3.5373592,-16.928345,-2.8259335
1.176,99.44882,36.225426,46.382576,4.0136375,-16.837833,-2.1020966
1.178,100.39864,37.933228,46.86728,4.515177,-16.737537,-1.3675573
1.18,101.36322,39.919315,47.44122,5.0406575,-16.629396,-0.62226665
1.182,102.342575,42.224575,48.11017,5.5885515,-16.515226,0.13402677
1.184,103.332085,44.88605,48.860924,6.157167,-16.39662,0.9017868
1.186,104.34553,47.89986,49.65832,6.7446356,-16.274887,1.6816697
1.188,105.40933,51.273037,50.498096,7.349084,-16.150879,2.4745204
1.19,106.51434,55.030743,51.390316,7.9686975,-16.024736,3.2815688
1.192,107.64699,59.168335,52.332134,8.601721,-15.895816,4.1044807
1.194,108.828636,63.67183,53.33872,9.2464695,-15.76255,4.9452553
1.196,110.06357,68.54053,54.40414,9.901446,-15.622149,5.806294
1.198,111.33676,73.79048,55.499535,10.565298,-15.470608,6.6906166
1.2,112.63554,79.42676,56.610176,11.236692,-15.3028,7.601514
1.202,113.929825,85.417694,57.781303,11.914814,-15.1122055,8.542713
1.204,115.20275,91.715744,59.070435,12.599007,-14.891604,9.518032
1.206,116.5294,98.25711,60.512863,13.287886,-14.633947,10.530068
1.208,117.98774,104.997055,62.10383,13.979197,-14.330908,11.582901
1.21,119.64717,111.961395,63.7219,14.672551,-13.971635,12.683897
1.212,121.508995,119.12997,65.2746,15.36994,-13.543235,13.841066
1.214,123.52674,126.472,66.77905,16.073973,-13.030985,15.060446
1.216,125.71187,133.9113,68.24136,16.78543,-12.418299,16.3475
1.218,128.06984,141.34338,69.71064,17.50219,-11.690028,17.709003
1.22,130.62407,148.71695,71.23625,18.221355,-10.829145,19.150784
1.222,133.40703,156.00449,72.85163,18.941319,-9.812514,20.67614
1.224,136.44305,163.14545,74.527954,19.66101,-8.615026,22.285597
1.226,139.74548,170.04057,76.20137,20.377937,-7.2125034,23.975653
1.228,143.32954,176.59648,77.84521,21.087482,-5.5775957,25.735657
1.23,147.21367,182.73236,79.43293,21.779057,-3.6826282,27.543999
1.232,151.39902,188.3578,80.94614,22.435337,-1.5095148,29.371675
1.234,155.87657,193.41174,82.36615,23.03575,0.954649,31.18378
1.236,160.64642,197.84015,83.66785,23.556423,3.714693,32.93639
1.238,165.707,201.5874,84.80818,23.971512,6.7617598,34.577286
1.24,171.05759,204.61006,85.72175,24.256546,10.07149,36.049576
1.242,176.6937,206.87312,86.33757,24.394672,13.6093645,37.301346
1.244,182.6042,208.35211,86.582756,24.37098,17.33326,38.286285
1.246,188.74976,209.04851,86.37026,24.16945,21.17606,38.955864
1.248,195.08191,208.97176,85.61169,23.785828,25.058138,39.280148
1.25,201.54222,208.14372,84.2254,23.236208,28.897152,39.266205
1.252,208.07153,206.59291,82.13485,22.54924,32.608204,38.940914
1.254,214.59909,204.35678,79.28252,21.76263,36.102314,38.33084
1.256,221.04498,201.48198,75.62456,20.921799,39.28448,37.454536
1.258,227.32051,198.02623,71.119965,20.073685,42.06017,36.326435
1.26,233.32892,194.04944,65.7428,19.262413,44.35113,34.954285
1.262,238.95877,189.61542,59.4859,18.52356,46.102264,33.333836
1.264,244.09921,184.78632,52.365868,17.875813,47.284546,31.445904
1.266,248.63373,179.62479,44.43345,17.324121,47.90161,29.263248
1.268,252.44527,174.19856,35.76693,16.862114,47.990192,26.758461
1.27,255.4294,168.56882,26.45095,16.471367,47.614155,23.909904
1.272,257.51825,162.77771,16.58812,16.121012,46.85506,20.710773
1.274,258.6558,156.87064,6.3060455,15.767476,45.797035,17.178888
1.276,258.784,150.88808,-4.2310486,15.357263,44.513126,13.361234
1.278,257.87924,144.8563,-14.840347,14.833094,43.05775,9.335496
1.28,255.94066,138.80392,-25.328018,14.139035,41.460777,5.207118
1.282,252.98457,132.77478,-35.492813,13.224382,39.721184,1.1026049
1.284,249.06235,126.79396,-45.134026,12.051265,37.813675,-2.8388386
1.286,244.25208,120.8746,-54.05957,10.597003,35.70215,-6.4799194
1.288,238.63449,115.0909,-62.09974,8.852606,33.339302,-9.69611
1.29,232.30661,109.497116,-69.11571,6.8245506,30.677586,-12.382148
1.292,225.40251,104.120926,-74.96822,4.534774,27.6827,-14.460003
1.294,218.06726,98.99174,-79.52919,2.0171576,24.33762,-15.885181
1.296,210.42787,94.178955,-82.69938,-0.68656063,20.642183,-16.651524
1.298,202.6039,89.730606,-84.4551,-3.5198517,16.619411,-16.783745
1.3,194.74533,85.66929,-84.820435,-6.413803,12.333626,-16.325748
1.302,186.987,82.03596,-83.83471,-9.306203,7.8725805,-15.353569
1.304,179.4152,78.867424,-81.58145,-12.142359,3.3376582,-13.9726715
1.306,172.12637,76.1799,-78.151794,-14.860777,-1.1479564,-12.286731
1.308,165.2139,73.97471,-73.65073,-17.394642,-5.4394007,-10.383654
1.31,158.7408,72.26422,-68.2282,-19.676773,-9.378517,-8.342699
1.312,152.76157,71.078705,-62.10353,-21.640705,-12.810281,-6.247222
1.314,147.29175,70.43631,-55.4957,-23.226255,-15.603769,-4.182495
1.316,142.25601,70.34285,-48.59146,-24.38673,-17.660427,-2.224981
1.318,137.59998,70.761406,-41.539215,-25.093569,-18.918493,-0.43315506
1.32,133.28993,71.59023,-34.405838,-25.343864,-19.361303,1.1501081
1.322,129.35228,72.78274,-27.327715,-25.159689,-19.018757,2.495495
1.324,125.82479,74.29824,-20.540977,-24.583199,-17.962349,3.589875
1.326,122.66299,76.124985,-14.231647,-23.672672,-16.296139,4.435925
1.328,119.8239,78.25133,-8.584343,-22.49715,-14.148114,5.050647
1.33,117.24658,80.59981,-3.731907,-21.130327,-11.658299,5.462202
1.332,114.86927,83.07991,0.2507651,-19.64431,-8.964691,5.705215
1.334,112.646805,85.642334,3.3695583,-18.1041,-6.193781,5.8179264
1.336,110.54706,88.26811,5.660866,-16.565413,-3.453779,5.8378954
1.338,108.53684,90.92038,7.126895,-15.075253,-0.8305111,5.795805
1.34,106.583176,93.54729,7.7842436,-13.671793,1.6132617,5.7115703
1.342,104.67017,96.10923,7.6581335,-12.384369,3.8376145,5.5941744
1.344,102.786835,98.545494,6.7907753,-11.234408,5.8221946,5.443426
1.346,100.90872,100.8067,5.244543,-10.237759,7.559577,5.2523212
1.348,99.01301,102.859665,3.104908,-9.405106,9.051919,5.010913
1.35,97.07654,104.67473,0.47572136,-8.742868,10.306583,4.710593
1.352,95.08118,106.23009,-2.5415592,-8.254732,11.331664,4.347986
1.354,93.01381,107.51082,-5.850439,-7.940734,12.13293,3.926534
1.356,90.883064,108.49625,-9.34857,-7.7929363,12.715817,3.4574637
1.358,88.69326,109.179405,-12.942297,-7.798873,13.0888815,2.9587574
1.36,86.446175,109.56018,-16.550707,-7.945319,13.258554,2.4517214
1.362,84.13593,109.6476,-20.099186,-8.217535,13.230317,1.9573795
1.364,81.76167,109.45599,-23.527864,-8.5998335,13.011097,1.4945033
1.366,79.3253,109.00135,-26.780602,-9.076616,12.610285,1.0797015
1.368,76.83147,108.29947,-29.794958,-9.632446,12.04064,0.72613907
1.37,74.289246,107.37188,-32.516365,-10.251011,11.318105,0.43918157
1.372,71.7173,106.24192,-34.899563,-10.915346,10.461414,0.2175057
1.374,69.13046,104.937294,-36.910934,-11.608746,9.492618,0.059689283
1.376,66.54849,103.48556,-38.53401,-12.315114,8.43655,-0.034284353
1.378,63.991447,101.910034,-39.75964,-13.018822,7.3195457,-0.06594229
1.38,61.471756,100.240036,-40.570442,-13.704512,6.1686106,-0.038285732
1.382,58.980297,98.51727,-40.959038,-14.357534,5.0108185,0.045497417
1.384,56.520546,96.77139,-40.935753,-14.964368,3.8725677,0.18210316
1.386,54.11481,95.03178,-40.536022,-15.5131855,2.778518,0.36700773
1.388,51.769157,93.331116,-39.800415,-15.994074,1.7505537,0.59395695
1.39,49.49231,91.69072,-38.772842,-16.39897,0.80765116,0.8558378
1.392,47.294956,90.1176,-37.496147,-16.721598,-0.03425336,1.1454916
1.394,45.182663,88.62575,-36.014126,-16.9576,-0.7624568,1.4558115
1.396,43.156616,87.23302,-34.377037,-17.104462,-1.3674943,1.779572
1.398,41.218502,85.937996,-32.627056,-17.16135,-1.8430051,2.1094422
1.4,39.367996,84.72974,-30.79916,-17.129107,-2.1856103,2.4382453
1.402,37.60739,83.605225,-28.932968,-17.010294,-2.3949544,2.7593818
1.404,35.938972,82.57047,-27.070065,-16.8093,-2.4736824,3.0670714
1.406,34.367073,81.628365,-25.246284,-16.532198,-2.4273643,3.35634
1.408,32.895153,80.78066,-23.490002,-16.186731,-2.2642612,3.6229248
1.41,31.5272,80.02962,-21.826042,-15.782171,-1.995139,3.8634686
1.412,30.265192,79.37874,-20.278208,-15.329128,-1.633007,4.0755014
1.414,29.109179,78.82516,-18.867704,-14.8392105,-1.1927098,4.257396
1.416,28.055157,78.357185,-17.609327,-14.3246155,-0.6904348,4.408405
1.418,27.096764,77.96032,-16.511723,-13.797726,-0.14320636,4.528622
1.42,26.22817,77.62034,-15.57754,-13.270525,0.43180156,4.6189604
1.422,25.443386,77.3275,-14.804501,-12.75419,1.0178857,4.68099
1.424,24.736101,77.074844,-14.186886,-12.2585945,1.5994785,4.716839
1.426,24.10006,76.85781,-13.716281,-11.791904,2.1627672,4.7291245
1.428,23.529364,76.67256,-13.383558,-11.36038,2.6961796,4.720748
1.43,23.018764,76.514915,-13.177864,-10.968262,3.1906552,4.694742
1.432,22.561413,76.3817,-13.08737,-10.617859,3.6397595,4.654047
1.434,22.150826,76.268486,-13.098967,-10.309765,4.0396743,4.6012907
1.436,21.779966,76.16991,-13.199163,-10.0431595,4.389055,4.5386696
1.438,21.44136,76.080605,-13.373451,-9.816142,4.6886854,4.467949
1.44,21.12741,75.99454,-13.608256,-9.626047,4.941074,4.390544
1.442,20.830994,75.90578,-13.89134,-9.469667,5.150119,4.3075266
1.444,20.544952,75.808685,-14.211496,-9.343452,5.320727,4.219701
1.446,20.262844,75.6982,-14.5589905,-9.2436905,5.458456,4.1277313
1.448,19.978947,75.56964,-14.926904,-9.166578,5.5692434,4.032226
1.45,19.687891,75.41872,-15.310105,-9.108285,5.659107,3.9338543
1.452,19.385223,75.24065,-15.705232,-9.065088,5.733958,3.8333228
1.454,19.06665,75.03102,-16.11033,-9.033394,5.799453,3.73134
1.456,18.729055,74.785126,-16.524643,-9.009779,5.8608704,3.6285727
1.458,18.370214,74.49859,-16.94841,-8.991066,5.923049,3.5256085
1.46,17.988302,74.16782,-17.382862,-8.974314,5.990363,3.4229689
1.462,17.58177,73.78937,-17.830671,-8.956784,6.0666704,3.3211725
1.464,17.14992,73.360115,-18.295454,-8.935952,6.155285,3.2207358
1.466,16.692764,72.8779,-18.781147,-8.909519,6.2589025,3.1221929
1.468,16.211178,72.34124,-19.291466,-8.87537,6.3794575,3.0261621
1.47,15.706434,71.74963,-19.829948,-8.831555,6.5179768,2.9333673
1.472,15.18058,71.10329,-20.39924,-8.776315,6.6744204,2.8446927
1.474,14.636435,70.40287,-21.001463,-8.70812,6.847497,2.7611272
1.476,14.07732,69.649536,-21.637592,-8.625815,7.034687,2.6836057
1.478,13.507027,68.84477,-22.307775,-8.528656,7.232234,2.6128604
1.48,12.929956,67.990326,-23.011387,-8.416464,7.435171,2.5492516
1.482,12.350187,67.08848,-23.74663,-8.289657,7.63764,2.4926534
1.484,11.772272,66.14138,-24.511093,-8.149327,7.8331623,2.442371
1.486,11.200148,65.15094,-25.301447,-7.9971824,8.0149555,2.3972158
1.488,10.637465,64.11928,-26.11332,-7.835449,8.176371,2.3555532
1.49,10.087502,63.048897,-26.940926,-7.666742,8.311276,2.3154235
1.492,9.553854,61.94178,-27.778063,-7.493848,8.414406,2.2747092
1.494,9.038994,60.800144,-28.618713,-7.3195114,8.481645,2.2313156
1.496,8.54487,59.626156,-29.456606,-7.146293,8.510215,2.1833446
1.498,8.072809,58.422333,-30.285526,-6.9763293,8.498817,2.1292179
1.5,7.6237373,57.190964,-31.099297,-6.8112392,8.44755,2.0677943
1.502,7.1974335,55.934875,-31.891867,-6.6520042,8.35787,1.9984198
1.504,6.7936325,54.656937,-32.65785,-6.4989557,8.232459,1.9208734
1.506,6.4114437,53.360176,-33.392677,-6.351713,8.074889,1.8354356
1.508,6.049324,52.047928,-34.09233,-6.2093186,7.8893604,1.7427378
1.51,5.7053185,50.723526,-34.753555,-6.0704055,7.680416,1.6436901
1.512,5.3771496,49.390335,-35.373634,-5.9332848,7.452607,1.5394013
1.514,5.062355,48.05171,-35.950653,-5.796133,7.210194,1.4310727
1.516,4.7585907,46.711018,-36.48287,-5.6571765,6.9568934,1.3199146
1.518,4.4635735,45.37166,-36.969116,-5.51482,6.6957073,1.2070062
1.52,4.1746807,44.03733,-37.408714,-5.3677816,6.42888,1.0932934
1.522,3.8899746,42.711815,-37.80139,-5.215157,6.157925,0.9795401
1.524,3.6076164,41.398964,-38.147186,-5.0564604,5.883702,0.86631155
1.526,3.326004,40.102688,-38.445957,-4.8915887,5.606625,0.75397587
1.528,3.0452366,38.82573,-38.697464,-4.720786,5.3268275,0.6426945
1.53,2.7645645,37.571205,-38.90233,-4.5445495,5.0443068,0.5325196
1.532,2.4836502,36.341507,-39.060577,-4.3635554,4.7591066,0.42339826
1.534,2.2031803,35.138367,-39.17218,-4.1785593,4.471452,0.31520247
1.536,1.9238415,33.96302,-39.23768,-3.990364,4.1817665,0.20775104
1.538,1.6464138,32.816322,-39.25777,-3.7996843,3.8907685,0.10084474
1.54,1.3722553,31.698969,-39.23362,-3.607098,3.599494,-0.0057640076
1.542,1.103302,30.611162,-39.166843,-3.4130306,3.3091881,-0.11231053
1.544,0.8414192,29.552994,-39.059246,-3.2177167,3.0212808,-0.21899831
1.546,0.58904076,28.524267,-38.9128,-3.0212383,2.7373314,-0.32598877
1.548,0.348341,27.524641,-38.729626,-2.823523,2.4589126,-0.43341827
1.55,0.12206459,26.553696,-38.512108,-2.6244278,2.1875162,-0.54138255
1.552,-0.087667465,25.610996,-38.262764,-2.4237864,1.9244349,-0.64991915
1.554,-0.27854824,24.696226,-37.98442,-2.2214546,1.6707519,-0.7590099
1.556,-0.4483614,23.808826,-37.67961,-2.0173855,1.4272498,-0.86857617
1.558,-0.59510136,22.948223,-37.35098,-1.8116436,1.194354,-0.9784499
1.56,-0.7170458,22.113947,-37.000793,-1.6044514,0.9721464,-1.088387
1.562,-0.81288433,21.305878,-36.63131,-1.3961295,0.76036876,-1.1980572
1.564,-0.8814163,20.523989,-36.244064,-1.1871006,0.5584597,-1.3070644
1.566,-0.92170334,19.768421,-35.840652,-0.9778904,0.36560184,-1.4149956
1.568,-0.9333706,19.039515,-35.422012,-0.76906836,0.18081015,-1.5214156
1.57,-0.9161272,18.337624,-34.98888,-0.561188,0.0029856563,-1.6259041
1.572,-0.8700962,17.663242,-34.541534,-0.35478467,-0.16901726,-1.7281197
1.574,-0.79542637,17.017044,-34.079853,-0.15031637,-0.33634222,-1.8278165
1.576,-0.69289875,16.399591,-33.603214,0.051831923,-0.5000869,-1.9248435
1.578,-0.56370544,15.811668,-33.110786,0.25137526,-0.66125333,-2.0191739
1.58,-0.40897942,15.254002,-32.601383,0.44812018,-0.820719,-2.1109366
1.582,-0.23026371,14.727213,-32.073708,0.64197147,-0.9791722,-2.2003691
1.584,-0.029459,14.231985,-31.526543,0.83290607,-1.137121,-2.2878191
1.586,0.19159412,13.768773,-30.958944,1.020982,-1.2948632,-2.3737218
1.588,0.43121624,13.3379,-30.369934,1.2063003,-1.4524828,-2.4585595
1.59,0.6871681,12.939497,-29.758097,1.3890076,-1.6098564,-2.542849
1.592,0.9575176,12.573362,-29.122599,1.5692677,-1.7666743,-2.6270823
1.594,1.2399282,12.239138,-28.46288,1.747256,-1.9224935,-2.7117004
1.596,1.5325518,11.936475,-27.77853,1.9231726,-2.0766804,-2.797066
1.598,1.8329601,11.6647625,-27.069288,2.0972302,-2.2285013,-2.8834138
1.6,2.138914,11.422979,-26.335361,2.2696476,-2.3771138,-2.9708369
1.602,2.4480257,11.210115,-25.577541,2.440682,-2.5215878,-3.0592792
1.604,2.7582302,11.024889,-24.7972,2.6106548,-2.6609173,-3.1485178
1.606,3.0672593,10.8660145,-23.996157,2.7799463,-2.7940152,-3.2382023
1.608,3.3732314,10.732124,-23.176369,2.9490166,-2.9197428,-3.327877
1.61,3.6741567,10.621878,-22.340145,3.1183999,-3.03697,-3.4170315
1.612,3.9685798,10.533576,-21.489899,3.2886622,-3.1445599,-3.5051477
1.614,4.254675,10.465592,-20.628515,3.4603963,-3.241417,-3.5917492
1.616,4.5307727,10.416428,-19.75896,3.6341662,-3.3265476,-3.6764414
1.618,4.795551,10.384689,-18.88478,3.8105073,-3.3990712,-3.7589264
1.62,5.0476847,10.369001,-18.009645,3.989861,-3.4582968,-3.8389883
1.622,5.286043,10.368137,-17.137342,4.172576,-3.503709,-3.9165087
1.624,5.5098386,10.3810215,-16.271719,4.3588705,-3.5350013,-3.9914417
1.626,5.718265,10.406534,-15.416531,4.548834,-3.552088,-4.0637674
1.628,5.9108667,10.443534,-14.57579,4.7424383,-3.555119,-4.133523
1.63,6.087561,10.491096,-13.753211,4.939577,-3.5444152,-4.2007694
1.632,6.2481737,10.548321,-12.95239,5.140072,-3.5204706,-4.2655444
1.634,6.3928275,10.6146145,-12.17673,5.343688,-3.4839625,-4.327796
1.636,6.5219536,10.689484,-11.42944,5.5501423,-3.435749,-4.3874173
1.638,6.6360574,10.772732,-10.713386,5.75915,-3.3767657,-4.4442844
1.64,6.7357607,10.864212,-10.031235,5.970415,-3.3080268,-4.498223
1.642,6.8221946,10.963827,-9.3851385,6.1836357,-3.2306538,-4.549061
1.644,6.8962994,11.071712,-8.7769375,6.398489,-3.1458206,-4.5965815
1.646,6.9592857,11.188126,-8.20797,6.6146326,-3.054713,-4.640589
1.648,7.01252,11.313311,-7.6789856,6.8317137,-2.9584978,-4.6808796
1.65,7.057556,11.447617,-7.1903734,7.049331,-2.8583825,-4.7172713
1.652,7.0957937,11.591532,-6.741811,7.267055,-2.755562,-4.7496085
1.654,7.1288996,11.74579,-6.332906,7.484433,-2.651217,-4.7777233
1.656,7.1585107,11.911035,-5.9627066,7.700924,-2.546513,-4.801427
1.658,7.186137,12.087999,-5.629757,7.91591,-2.4426353,-4.820521
1.66,7.2133455,12.277449,-5.332355,8.128683,-2.3407977,-4.834743
1.662,7.241784,12.480108,-5.0684276,8.338463,-2.2422616,-4.8437862
1.664,7.2730985,12.696543,-4.835683,8.544444,-2.148305,-4.847345
1.666,7.308545,12.92755,-4.631752,8.7458,-2.060241,-4.845174
1.668,7.3495903,13.173925,-4.453767,8.941727,-1.9793794,-4.837116
1.67,7.3976765,13.436138,-4.2993402,9.13145,-1.9069731,-4.823136
1.672,7.4541817,13.71439,-4.1657615,9.314262,-1.8442068,-4.8033333
1.674,7.520271,14.008724,-4.0505624,9.489504,-1.7921417,-4.777955
1.676,7.597433,14.318904,-3.950993,9.656609,-1.7517533,-4.747337
1.678,7.6868386,14.644778,-3.8644676,9.815086,-1.7238343,-4.7118998
1.68,7.7894864,14.986279,-3.7885141,9.964505,-1.7090385,-4.672153
1.682,7.9065866,15.343382,-3.7209232,10.104508,-1.7078629,-4.628605
1.684,8.039003,15.715617,-3.659834,10.234757,-1.720675,-4.5818157
1.686,8.187944,16.10243,-3.6035905,10.354965,-1.7477474,-4.5324283
1.688,8.354407,16.50314,-3.550588,10.464882,-1.7892649,-4.4811907
1.69,8.539477,16.916739,-3.4993083,10.564318,-1.8453044,-4.428928
1.692,8.744182,17.342295,-3.4482985,10.653063,-1.915971,-4.376516
1.694,8.969578,17.778807,-3.3962073,10.730957,-2.0013509,-4.324877
1.696,9.216615,18.225113,-3.341817,10.797894,-2.1014736,-4.274969
1.698,9.486302,18.680014,-3.2840958,10.853806,-2.2163563,-4.2277317
1.7,9.779385,19.142326,-3.2220576,10.898672,-2.3459668,-4.1840706
1.702,10.096687,19.610586,-3.1543808,10.932468,-2.4902048,-4.144717
1.704,10.438658,20.083439,-3.0796816,10.955212,-2.648878,-4.1102533
1.706,10.805431,20.559366,-2.9967394,10.966933,-2.8216903,-4.081065
1.708,11.197628,21.036915,-2.9042428,10.967769,-3.008233,-4.0573072
1.71,11.615189,21.514946,-2.8008838,10.957922,-3.2079735,-4.038953
1.712,12.058046,21.992205,-2.6847224,10.937628,-3.4202785,-4.02584
1.714,12.525872,22.46707,-2.553762,10.907126,-3.6444268,-4.0177655
1.716,13.018225,22.937439,-2.4062977,10.866563,-3.879682,-4.0144634
1.718,13.534646,23.401085,-2.2399874,10.816003,-4.1253853,-4.0155816
1.72,14.074404,23.855854,-2.052576,10.755415,-4.38095,-4.0206766
1.722,14.636255,24.299986,-1.8418112,10.684643,-4.6459246,-4.029333
1.724,15.218856,24.731253,-1.6056247,10.60346,-4.9199815,-4.04121
1.726,15.820757,25.146671,-1.3419132,10.511582,-5.202908,-4.0561028
1.728,16.44008,25.542925,-1.0483499,10.408688,-5.4945745,-4.07401
1.73,17.074772,25.916567,-0.7229719,10.294483,-5.7948985,-4.0951853
1.732,17.721912,26.264185,-0.36422396,10.168718,-6.1038156,-4.120168
1.734,18.378931,26.582172,0.029363155,10.031244,-6.421222,-4.149739
1.736,19.042847,26.867105,0.4585514,9.881956,-6.7469287,-4.18497
1.738,19.710758,27.115206,0.92364454,9.720835,-7.0806265,-4.2270627
1.74,20.378872,27.323124,1.424303,9.547903,-7.421818,-4.277317
1.742,21.043476,27.48719,1.959856,9.363218,-7.769743,-4.337013
1.744,21.700966,27.603767,2.529121,9.166869,-8.123344,-4.407285
1.746,22.34758,27.669472,3.1301584,8.959007,-8.481253,-4.488908
1.748,22.979013,27.681,3.7604809,8.739876,-8.841663,-4.5822515
1.75,23.591183,27.63576,4.416927,8.509897,-9.202281,-4.6873026
1.752,24.179594,27.531214,5.0956492,8.269711,-9.560526,-4.803665
1.754,24.739977,27.365402,5.792105,8.020124,-9.913539,-4.9306493
1.756,25.267973,27.136745,6.501367,7.7621984,-10.258318,-5.067348
1.758,25.759342,26.84451,7.217836,7.4971175,-10.591756,-5.21268
1.76,26.209597,26.488668,7.935708,7.2261477,-10.9107685,-5.365457
1.762,26.614489,26.06986,8.648846,6.9504857,-11.212416,-5.524461
1.764,26.970028,25.589241,9.351152,6.671239,-11.493899,-5.688494
1.766,27.27251,25.048676,10.036442,6.3893986,-11.7525015,-5.856376
1.768,27.51801,24.450834,10.698363,6.105809,-11.985781,-6.0268884
1.77,27.703548,23.798656,11.330874,5.8211346,-12.191459,-6.198862
1.772,27.82637,23.09608,11.928138,5.5358863,-12.367448,-6.3711014
1.774,27.883812,22.3479,12.484604,5.2504587,-12.511844,-6.5423617
1.776,27.874123,21.559307,12.995213,4.9652004,-12.623028,-6.7111874
1.778,27.795908,20.736,13.455302,4.680441,-12.699694,-6.8759
1.78,27.64838,19.884472,13.86138,4.396606,-12.740932,-7.0345664
1.782,27.431505,19.011526,14.210316,4.114298,-12.746215,-7.184968
1.784,27.145977,18.124233,14.499887,3.834309,-12.715547,-7.32465
1.786,26.792864,17.229856,14.728698,3.5576777,-12.64943,-7.4509706
1.788,26.374409,16.335373,14.895956,3.2857013,-12.548883,-7.561199
1.79,25.893463,15.447547,15.001871,3.0199103,-12.415372,-7.652671
1.792,25.353598,14.572903,15.047327,2.762006,-12.250763,-7.722923
1.794,24.75906,13.71811,15.033885,2.5137818,-12.057208,-7.76981
1.796,24.114601,12.889612,14.963957,2.277009,-11.836997,-7.7916183
1.798,23.425701,12.092691,14.840124,2.0533152,-11.592428,-7.7871766
1.8,22.698269,11.332088,14.66577,1.8441074,-11.32564,-7.7558904
1.802,21.93848,10.612302,14.444504,1.6504066,-11.038618,-7.697672
1.804,21.152836,9.937126,14.180298,1.4727969,-10.733071,-7.612832
1.806,20.348278,9.309214,13.877586,1.3114547,-10.410246,-7.502103
1.808,19.53148,8.730454,13.540985,1.1661892,-10.071043,-7.366545
1.81,18.709751,8.201805,13.174717,1.0365031,-9.716091,-7.2075596
1.812,17.889767,7.7239246,12.783447,0.921698,-9.345903,-7.026878
1.814,17.078434,7.2962284,12.3713,0.8209425,-8.960984,-6.8265285
1.816,16.282799,6.9174247,11.942475,0.73339343,-8.561953,-6.6087837
1.818,15.508694,6.5854697,11.500923,0.65822864,-8.149717,-6.3760777
1.82,14.761694,6.2977524,11.050547,0.5946901,-7.7255383,-6.1309514
1.822,14.04636,6.051776,10.594393,0.5420876,-7.2909675,-5.87604
1.824,13.367256,5.844722,10.135515,0.49981946,-6.8479853,-5.6139617
1.826,12.728908,5.673403,9.676865,0.46733397,-6.3989654,-5.3472915
1.828,12.13493,5.534158,9.220409,0.44407064,-5.946435,-5.078443
1.83,11.587994,5.4231024,8.76808,0.4295258,-5.493114,-4.8094964
1.832,11.089835,5.336689,8.321702,0.42317045,-5.0418916,-4.5422416
1.834,10.641916,5.2712417,7.883296,0.42442748,-4.5956244,-4.2782235
1.836,10.245371,5.2238393,7.4542537,0.43266296,-4.157044,-4.018713
1.838,9.901415,5.191124,7.0351996,0.44724268,-3.7286463,-3.7646446
1.84,9.610234,5.1698823,6.627205,0.4674579,-3.312759,-3.5166974
1.842,9.371632,5.157201,6.231286,0.49256656,-2.911408,-3.2753677
1.844,9.1843,5.150271,5.848139,0.52180725,-2.526347,-3.0410256
1.846,9.04679,5.146666,5.478357,0.5543729,-2.15914,-2.8139524
1.848,8.95701,5.144293,5.1225634,0.5894208,-1.8110949,-2.5943604
1.85,8.913094,5.1410165,4.781305,0.6261201,-1.483222,-2.382452
1.852,8.912781,5.135167,4.454874,0.6637099,-1.1762248,-2.1785016
1.854,8.952992,5.125394,4.1434665,0.70149785,-0.8905557,-1.9828687
1.856,9.0304785,5.1105084,3.8475668,0.738809,-0.6265931,-1.7960091
1.858,9.142082,5.0897164,3.5675697,0.7749369,-0.38467842,-1.6184453
1.86,9.284515,5.0620813,3.3039787,0.80923134,-0.16505224,-1.4506581
1.862,9.454283,5.027194,3.0572193,0.84110755,0.03224057,-1.293088
1.864,9.647767,4.984608,2.8279734,0.8700322,0.20732296,-1.1461556
1.866,9.861322,4.934134,2.6167407,0.8955145,0.36041865,-1.0101707
1.868,10.091257,4.8755417,2.4240835,0.91714185,0.49180672,-0.88526934
1.87,10.334032,4.8085823,2.2503185,0.9346262,0.6019205,-0.7713651
1.872,10.586414,4.7331567,2.0955954,0.94784695,0.6914871,-0.66817546
1.874,10.844834,4.649603,1.96,0.95688546,0.76159894,-0.57524884
1.876,11.106124,4.5581837,1.843463,0.96199155,0.81374675,-0.4920545
1.878,11.3675995,4.4592705,1.7456999,0.9635887,0.8498725,-0.41800004
1.88,11.626076,4.353626,1.6663446,0.9622699,0.8723066,-0.35244337
1.882,11.878923,4.241741,1.604794,0.9587579,0.88365686,-0.29476935
1.884,12.124001,4.1241746,1.5603781,0.9538313,0.8869087,-0.24445075
1.886,12.359249,4.0015693,1.5320606,0.9483063,0.8852233,-0.20093787
1.888,12.582777,3.8745744,1.5188417,0.9429511,0.8816601,-0.16363472
1.89,12.7931185,3.743809,1.5191703,0.93846834,0.87900096,-0.13197142
1.892,12.988835,3.6100998,1.53156,0.93544424,0.87964654,-0.10541713
1.894,13.1689415,3.4739466,1.5543127,0.9344038,0.88551235,-0.08344531
1.896,13.332584,3.3360705,1.5856967,0.93579006,0.89792037,-0.06549758
1.898,13.479049,3.197098,1.6240897,0.9399912,0.91761154,-0.051018596
1.9,13.607965,3.0574892,1.6677103,0.94741464,0.9448333,-0.039547324
1.902,13.718982,2.9175992,1.71489,0.9584432,0.97930264,-0.030750036
1.904,13.8119335,2.7774947,1.7641306,0.9734075,1.0202563,-0.024433136
1.906,13.8867855,2.6372094,1.813766,0.99256456,1.0666072,-0.02052617
1.908,13.943481,2.4970884,1.8625793,1.0161574,1.1171278,-0.01909262
1.91,13.982179,2.3573966,1.9091,1.0444165,1.1706107,-0.02031058
1.912,14.003429,2.2175927,1.9520392,1.0775182,1.2258356,-0.024473667
1.914,14.00751,2.0771956,1.990304,1.115459,1.2815621,-0.031944036
1.916,13.994802,1.9363256,2.0228696,1.1580447,1.3365501,-0.043060303
1.918,13.965751,1.7948537,2.0488431,1.2049253,1.3897029,-0.058061898
1.92,13.920744,1.6527631,2.0676124,1.255635,1.4401537,-0.0770784
1.922,13.860672,1.509613,2.0783546,1.3095847,1.4872631,-0.1001277
1.924,13.785889,1.3655446,2.0805674,1.3660603,1.5304798,-0.1270811
1.926,13.696763,1.2207639,2.0739214,1.42428,1.5692794,-0.15763152
1.928,13.594275,1.0755162,2.0580645,1.4834158,1.6031283,-0.19130003
1.93,13.479317,0.93009996,2.0327375,1.5426679,1.6315138,-0.22744262
1.932,13.353319,0.78448963,1.9979649,1.6012927,1.6539267,-0.2653125
1.934,13.216843,0.6391063,1.9539099,1.6586013,1.6698223,-0.30415374
1.936,13.070246,0.49460554,1.9007638,1.7140043,1.6786194,-0.34322345
1.938,12.914428,0.3519621,1.8389206,1.7670131,1.679745,-0.38183904
1.94,12.750438,0.21183848,1.7687526,1.8172745,1.6726773,-0.41938257
1.942,12.580142,0.074401855,1.6906893,1.8645627,1.6569884,-0.4553129
1.944,12.40469,-0.059617758,1.6053643,1.9087412,1.6323808,-0.48918068
1.946,12.224798,-0.18956304,1.5137393,1.949775,1.5986904,-0.5206394
1.948,12.0408535,-0.31457138,1.4171755,1.9877152,1.5559604,-0.54943556
1.95,11.853939,-0.43389535,1.3165846,2.0226605,1.5044023,-0.5753704
1.952,11.665361,-0.54728436,1.2130516,2.0547528,1.4443939,-0.59832656
1.954,11.476349,-0.6543884,1.1076844,2.0841672,1.3764919,-0.6182356
1.956,11.287937,-0.7549789,1.0017719,2.1111062,1.3013908,-0.6350809
1.958,11.101049,-0.8488662,0.8966043,2.135792,1.2199117,-0.6488759
1.96,10.916664,-0.9358587,0.79326487,2.1584494,1.1329396,-0.6597139
1.962,10.735498,-1.0159895,0.69283843,2.1792798,1.041417,-0.6677338
1.964,10.558496,-1.089349,0.5963838,2.1984677,0.94628036,-0.67312074
1.966,10.386499,-1.1561289,0.5047262,2.2161665,0.8484429,-0.67609876
1.968,10.220282,-1.2165706,0.4185846,2.2325013,0.74875027,-0.6769198
1.97,10.060361,-1.2708821,0.3385489,2.2475681,0.6479786,-0.6758455
1.972,9.907313,-1.3195457,0.26530266,2.261432,0.54680884,-0.67313176
1.974,9.761607,-1.3626716,0.19909644,2.2741318,0.44581354,-0.66903627
1.976,9.623726,-1.4005909,0.14026237,2.2856936,0.34545505,-0.6637747
1.978,9.494041,-1.4337008,0.088980675,2.296144,0.24610162,-0.6575334
1.98,9.372821,-1.4622808,0.045259476,2.3055024,0.14802265,-0.65045714
1.982,9.260149,-1.4866314,0.0092384815,2.3137994,0.05140513,-0.6426325
1.984,9.156134,-1.5071805,-0.019174099,2.321083,-0.043635488,-0.6341182
1.986,9.060802,-1.5240927,-0.04005432,2.3273957,-0.13704413,-0.624954
1.988,8.9740715,-1.5375981,-0.05343771,2.3328128,-0.22881359,-0.6151484
1.99,8.895948,-1.5479782,-0.059675932,2.3374012,-0.31895798,-0.6047181
1.992,8.826358,-1.5555665,-0.05894637,2.341229,-0.4075402,-0.59366906
1.994,8.765149,-1.560596,-0.05154991,2.3443563,-0.4946307,-0.582047
1.996,8.71206,-1.5632765,-0.03785634,2.3468366,-0.5803154,-0.56991774
1.998,8.667039,-1.5636796,-0.018351793,2.348732,-0.66468596,-0.5573708
2,8.629733,-1.5619065,0.0065603256,2.3500695,-0.7478241,-0.54450387
2.002,8.600008,-1.5580996,0.036497355,2.3508706,-0.8298387,-0.53142637
2.004,8.577593,-1.5521463,0.07103658,2.3511558,-0.91081995,-0.51826715
2.006,8.562241,-1.5442599,0.10969496,2.3509557,-0.9908662,-0.50513995
2.008,8.553723,-1.5344731,0.1520977,2.3502772,-1.070081,-0.49214244
2.01,8.551846,-1.5228416,0.19779348,2.349152,-1.1485655,-0.47936943
2.012,8.556372,-1.5092733,0.24656367,2.3475955,-1.2264264,-0.46689287
2.014,8.567148,-1.4937973,0.2978649,2.3456402,-1.3037732,-0.4547364
2.016,8.583907,-1.4764385,0.35147643,2.343307,-1.380717,-0.44293496
2.018,8.606539,-1.4571401,0.40707302,2.3406408,-1.4573722,-0.43150872
2.02,8.6347885,-1.4359908,0.46429706,2.3376608,-1.5338583,-0.4204566
2.022,8.668315,-1.4129344,0.523062,2.3343973,-1.610282,-0.40978995
2.024,8.707148,-1.3880156,0.5831177,2.3308854,-1.6867408,-0.39950925
2.026,8.751006,-1.3612237,0.64426804,2.327156,-1.7633064,-0.3896402
2.028,8.799751,-1.3326113,0.70634866,2.3232408,-1.8400228,-0.38020313
2.03,8.853111,-1.3022641,0.7691407,2.3191636,-1.9169089,-0.3712359
2.032,8.910767,-1.270087,0.8325753,2.314955,-1.9939485,-0.3627718
2.034,8.972612,-1.2362391,0.8965063,2.3106384,-2.0711052,-0.35484055
2.036,9.038273,-1.2008165,0.96081686,2.306228,-2.148302,-0.347486
2.038,9.107519,-1.1638283,1.025377,2.3017201,-2.2254486,-0.34073067
2.04,9.180044,-1.1254933,1.0900304,2.297121,-2.3024333,-0.33458778
2.042,9.2553,-1.0858601,1.1548883,2.2923958,-2.379128,-0.32906502
2.044,9.333101,-1.0450661,1.2196496,2.2875118,-2.455418,-0.3241628
2.046,9.412997,-1.0031958,1.284293,2.2824202,-2.5311673,-0.3198681
2.048,9.49457,-0.9605081,1.3486974,2.2770734,-2.6062708,-0.3161527
2.05,9.577514,-0.91712546,1.4128906,2.2714067,-2.6806211,-0.31299052
2.052,9.661309,-0.8731009,1.4767033,2.2653477,-2.7541363,-0.31034642
2.054,9.745546,-0.82854164,1.5400108,2.2588372,-2.8267574,-0.30820614
2.056,9.829807,-0.7836443,1.6027958,2.2518144,-2.898431,-0.30654553
2.058,9.91375,-0.7384907,1.6648765,2.2442224,-2.969131,-0.30535093
2.06,9.996997,-0.6932448,1.7262753,2.236022,-3.0388262,-0.30461478
2.062,10.079241,-0.6479771,1.7868562,2.2271984,-3.107493,-0.30434617
2.064,10.160089,-0.6027459,1.8465866,2.2177472,-3.1750953,-0.30454654
2.066,10.239266,-0.5577103,1.9054296,2.207697,-3.2415922,-0.30522794
2.068,10.316635,-0.5128343,1.963371,2.197096,-3.3069124,-0.30639803
2.07,10.391927,-0.46831745,2.020332,2.1860206,-3.3709645,-0.30804276
2.072,10.465124,-0.42412037,2.0762005,2.1745515,-3.4336333,-0.3101607
2.074,10.535995,-0.38034058,2.1308432,2.1628032,-3.4947817,-0.31274235
2.076,10.604642,-0.33697265,2.1843038,2.150888,-3.5542688,-0.3157598
2.078,10.670896,-0.2940542,2.2364626,2.1389174,-3.6119416,-0.319188
2.08,10.734867,-0.25166333,2.2872088,2.127007,-3.6676333,-0.32297027
2.082,10.796595,-0.20968843,2.3363218,2.1152608,-3.7211866,-0.32706994
2.084,10.856165,-0.16825348,2.3837914,2.1037786,-3.7724535,-0.33142072
2.086,10.913633,-0.12736714,2.4293785,2.0926507,-3.8213027,-0.33595854
2.088,10.969285,-0.086904705,2.4729123,2.0819438,-3.8676317,-0.3406105
2.09,11.023124,-0.04684502,2.5142903,2.0717196,-3.9113817,-0.34529746
2.092,11.075312,-0.007142484,2.5532827,2.062018,-3.9525409,-0.34994215
2.094,11.126193,0.0322631,2.5897593,2.05286,-3.9911654,-0.35446405
2.096,11.175724,0.07133779,2.6236029,2.0442672,-4.0273595,-0.3587873
2.098,11.224171,0.11014488,2.654625,2.0362349,-4.061291,-0.3628387
2.1,11.271659,0.1487911,2.6828098,2.0287595,-4.093186,-0.36656398
2.102,11.31837,0.1873247,2.7080784,2.0218084,-4.1233044,-0.36990976
2.104,11.364411,0.22565272,2.7303088,2.015355,-4.151962,-0.37283581
2.106,11.410033,0.26376253,2.749484,2.0093617,-4.1794715,-0.37532008
2.108,11.455125,0.30172923,2.7657065,2.0037851,-4.2061586,-0.37734896
2.11,11.499943,0.33944654,2.7789235,1.998576,-4.2323284,-0.37892014
2.112,11.544457,0.37683403,2.7892728,1.9936812,-4.2582555,-0.3800432
2.114,11.588644,0.41382837,2.7967684,1.9890398,-4.2841926,-0.38073742
2.116,11.632432,0.45040572,2.8016849,1.9845984,-4.3103323,-0.38103276
2.118,11.675865,0.486464,2.8040538,1.9803036,-4.3368325,-0.38095248
2.12,11.718684,0.5220283,2.8040962,1.9761056,-4.363798,-0.38051647
2.122,11.760766,0.55685866,2.8019047,1.9719341,-4.391297,-0.37973845
2.124,11.801915,0.5910373,2.797794,1.9677235,-4.41935,-0.37861907
2.126,11.84208,0.6244823,2.7918746,1.9634055,-4.447955,-0.37712264
2.128,11.880801,0.65718985,2.7843254,1.9588953,-4.477085,-0.37520295
2.13,11.917808,0.68912715,2.775373,1.9541109,-4.5067034,-0.37279588
2.132,11.952963,0.7202442,2.7651496,1.9489784,-4.536767,-0.3697949
2.134,11.985787,0.75073844,2.7539084,1.9434097,-4.56724,-0.36609948
2.136,12.016038,0.78056,2.74185,1.9373422,-4.5981,-0.3615772
2.138,12.043353,0.8099001,2.729148,1.9307251,-4.629331,-0.35613
2.14,12.06759,0.8388607,2.716145,1.9235227,-4.6609263,-0.3496455
2.142,12.088455,0.8675032,2.7029183,1.9157295,-4.692883,-0.34204078
2.144,12.105639,0.89601016,2.6897888,1.9073836,-4.7252026,-0.33324993
2.146,12.119098,0.92449176,2.6769204,1.8985379,-4.7578807,-0.32323658
2.148,12.128573,0.9530821,2.664569,1.8892791,-4.7908998,-0.31200564
2.15,12.133978,0.9819263,2.6529257,1.8797132,-4.824248,-0.29956985
2.152,12.135337,1.011081,2.6422324,1.8699708,-4.857892,-0.28596306
2.154,12.132558,1.0406663,2.6327534,1.8601832,-4.891769,-0.27124178
2.156,12.125697,1.0707674,2.6246862,1.8505129,-4.925798,-0.2554648
2.158,12.114804,1.1014931,2.6181858,1.8411144,-4.9598656,-0.23869848
2.16,12.100037,1.1328633,2.6134853,1.8321507,-4.99382,-0.22099698
2.162,12.081651,1.1649582,2.6107626,1.8237792,-5.0274973,-0.20241582
2.164,12.059747,1.1977404,2.6101642,1.8161619,-5.0607195,-0.18301284
2.166,12.034544,1.2312946,2.611811,1.8094479,-5.093284,-0.16284633
2.168,12.006429,1.2655969,2.6158361,1.8037745,-5.124981,-0.14198291
2.17,11.975598,1.3005489,2.622212,1.7992914,-5.1555977,-0.120476484
2.172,11.942348,1.3361449,2.631024,1.7961335,-5.1849284,-0.09838939
2.174,11.907075,1.3722949,2.6423597,1.7944148,-5.2127643,-0.07578349
2.176,11.869976,1.409013,2.656166,1.7942581,-5.2389326,-0.052696586
2.178,11.8313675,1.4463339,2.6724691,1.7957546,-5.263297,-0.02917564
2.18,11.791539,1.4841597,2.6913352,1.7989807,-5.2857456,-0.005267024
2.182,11.750911,1.522466,2.7127533,1.8039994,-5.306205,0.01898694
2.184,11.709768,1.5611825,2.7366526,1.810853,-5.324618,0.043557882
2.186,11.668339,1.6003144,2.7629368,1.8195586,-5.3409653,0.06842375
2.188,11.627,1.6399038,2.7917595,1.8301495,-5.355234,0.093575716
2.19,11.5857725,1.6800566,2.8230965,1.8426358,-5.367405,0.11900759
2.192,11.545075,1.7207323,2.8569927,1.8570273,-5.377449,0.14473939
2.194,11.504972,1.7620971,2.8935318,1.873356,-5.385309,0.17079556
2.196,11.465645,1.8040143,2.932866,1.8916618,-5.390882,0.19721866
2.198,11.4270735,1.8465545,2.9750118,1.9119929,-5.3940353,0.22407782
2.2,11.3895855,1.889805,3.0201669,1.9344066,-5.3945975,0.25145674
2.202,11.353023,1.9339019,3.068349,1.9589502,-5.3923917,0.27944267
2.204,11.317338,1.9788274,3.1197648,1.9856627,-5.387255,0.30811942
2.206,11.28259,2.0246902,3.1744142,2.0145514,-5.379032,0.33754492
2.208,11.248772,2.0714173,3.23244,2.0456207,-5.367619,0.36776352
2.21,11.215715,2.1191592,3.2940574,2.0788221,-5.3529296,0.39876342
2.212,11.183147,2.1680536,3.359307,2.1140866,-5.3348956,0.43050027
2.214,11.15096,2.2181382,3.4283993,2.1513336,-5.31348,0.4629177
2.216,11.118827,2.2695346,3.5014944,2.1904542,-5.288655,0.49594104
2.218,11.086574,2.3221679,3.578582,2.23133,-5.260384,0.529482
2.22,11.05374,2.3762908,3.6600604,2.2738442,-5.2286363,0.56346416
2.222,11.02002,2.4319441,3.7457812,2.3178988,-5.1933546,0.597813
2.224,10.985048,2.4891794,3.8360603,2.3633966,-5.154468,0.63247204
2.226,10.948326,2.5480447,3.9308953,2.4102817,-5.111865,0.667433
2.228,10.909331,2.6086488,4.030529,2.458541,-5.065438,0.702705
2.23,10.867669,2.6709871,4.134989,2.508175,-5.0150595,0.7383274
2.232,10.822693,2.735364,4.2444305,2.559228,-4.9605665,0.7743646
2.234,10.773934,2.8017924,4.359002,2.6117575,-4.9017773,0.8109144
2.236,10.720676,2.8703866,4.4786673,2.6658244,-4.8384986,0.8480768
2.238,10.662439,2.9413314,4.6035857,2.7214952,-4.7705326,0.8859488
2.24,10.598759,3.0146995,4.7337894,2.7788405,-4.6976333,0.9246247
2.242,10.528936,3.0906992,4.869251,2.8378937,-4.6195483,0.9641963
2.244,10.452567,3.1693382,5.0100036,2.8986714,-4.536025,1.0047528
2.246,10.369167,3.250764,5.155923,2.9611669,-4.4467897,1.0463579
2.248,10.278273,3.3350053,5.307006,3.0253193,-4.351588,1.0890791
2.25,10.1794615,3.422216,5.4629927,3.0910769,-4.2501926,1.1329967
2.252,10.07252,3.5124388,5.623707,3.1583714,-4.142396,1.178187
2.254,9.957399,3.6056857,5.7888927,3.2271156,-4.0280385,1.2247313
2.256,9.833728,3.7019386,5.9582663,3.297234,-3.907027,1.2727363
2.258,9.701706,3.8010654,6.131508,3.3686576,-3.779314,1.3222964
2.26,9.561253,3.9029398,6.3081903,3.44132,-3.6449292,1.3735155
2.262,9.412744,4.0073323,6.487772,3.5151396,-3.503961,1.4264804
2.264,9.256479,4.1140146,6.6696978,3.5900416,-3.3565621,1.4812673
2.266,9.092957,4.222776,6.853425,3.6659422,-3.2029386,1.5379114
2.268,8.92272,4.3331513,7.0383835,3.7427227,-3.043331,1.5964111
2.27,8.746536,4.4447827,7.223952,3.820257,-2.8780024,1.6567516
2.272,8.564991,4.557263,7.408835,3.8983994,-2.707218,1.718896
2.274,8.379024,4.670158,7.593155,3.9769688,-2.5312784,1.7828121
2.276,8.190016,4.782772,7.77608,4.055779,-2.350488,1.8484764
2.278,7.9991455,4.8945866,7.9563556,4.1346292,-2.165167,1.9158461
2.28,7.80715,5.005144,8.13373,4.213295,-1.9756376,1.9848866
2.282,7.6153946,5.1138606,8.307184,4.2915406,-1.7822248,2.0555794
2.284,7.4251375,5.2202487,8.475806,4.3691382,-1.5852423,2.127912
2.286,7.2376194,5.3236494,8.6390505,4.4458523,-1.3850272,2.20189
2.288,7.0540457,5.4236083,8.796359,4.5214357,-1.181905,2.2775006
2.29,6.8753343,5.5199704,8.947099,4.595662,-0.97620404,2.3547318
2.292,6.7025995,5.6121497,9.090666,4.6682644,-0.768294,2.4335506
2.294,6.5369186,5.6998343,9.22661,4.738967,-0.5586157,2.5138867
2.296,6.379064,5.7827597,9.354343,4.8074827,-0.34768116,2.5956364
2.298,6.229824,5.860698,9.473377,4.873514,-0.13607517,2.6786413
2.3,6.0899644,5.9334574,9.583218,4.936719,0.07552288,2.7626925
2.302,5.9596043,6.001119,9.683566,4.996751,0.2863876,2.8475056
2.304,5.83891,6.06381,9.774308,5.0532293,0.49566853,2.9326942
2.306,5.727788,6.121889,9.8554325,5.105852,0.7025625,3.01793
2.308,5.625893,6.175465,9.9271345,5.1542506,0.9061713,3.1027787
2.31,5.532717,6.224877,9.989482,5.198058,1.1055827,3.1867583
2.312,5.447392,6.2705145,10.042941,5.2369537,1.2999955,3.269423
2.314,5.3690486,6.312824,10.087703,5.270689,1.4886633,3.350328
2.316,5.2963724,6.352273,10.124259,5.299058,1.6708915,3.4290504
2.318,5.228016,6.389438,10.153095,5.3219433,1.8461757,3.5052073
2.32,5.162305,6.424775,10.17465,5.3393116,2.0141892,3.5784798
2.322,5.0975666,6.4590616,10.189594,5.351187,2.1747644,3.648584
2.324,5.0319047,6.4930296,10.198618,5.3576517,2.3278606,3.7153218
2.326,4.9632673,6.5273967,10.202256,5.3588285,2.4735794,3.778591
2.328,4.889834,6.562767,10.201204,5.354849,2.6120996,3.8383384
2.33,4.809604,6.599727,10.195849,5.3458395,2.7436352,3.8945794
2.332,4.720631,6.638829,10.186756,5.331934,2.868391,3.9473767
2.334,4.620979,6.680675,10.174299,5.313243,2.9865649,3.9967768
2.336,4.508939,6.725737,10.158853,5.289836,3.0983324,4.0428243
2.338,4.3830304,6.7743683,10.140456,5.261752,3.2038245,4.085497
2.34,4.2418046,6.8266554,10.119138,5.2289925,3.303102,4.1247215
2.342,4.08421,6.8828363,10.094769,5.1915627,3.3961852,4.160391
2.344,3.909267,6.9429836,10.067079,5.14944,3.4830496,4.1923227
2.346,3.7163463,7.0070086,10.035659,5.1026053,3.5636306,4.2202992
2.348,3.505159,7.0747843,9.999935,5.0510674,3.637794,4.2440925
2.35,3.2753792,7.146046,9.959293,4.994823,3.7053459,4.263466
2.352,3.0274,7.2204156,9.912993,4.9338875,3.7660258,4.278159
2.354,2.7614515,7.2974977,9.8602495,4.8682737,3.8195295,4.2879214
2.356,2.4780526,7.3768673,9.80036,4.797984,3.8655186,4.292525
2.358,2.178067,7.4579935,9.732478,4.7229853,3.9036903,4.291801
2.36,1.8623693,7.5403037,9.655932,4.6432,3.9336386,4.2855625
2.362,1.5319681,7.6233497,9.570086,4.5586214,3.9550357,4.2738276
2.364,1.1879549,7.706506,9.474439,4.469221,3.9675446,4.2567067
2.366,0.8318074,7.789276,9.368684,4.3749323,3.970706,4.2343774
2.368,0.46466374,7.871187,9.25258,4.275716,3.964089,4.207178
2.37,0.08801341,7.9517546,9.126247,4.1715813,3.9472542,4.175539
2.372,-0.296983,8.030578,8.989834,4.0625706,3.9196973,4.1399918
2.374,-0.68902326,8.107087,8.843913,3.9487696,3.8809235,4.101099
2.376,-1.0866768,8.180935,8.689075,3.8303638,3.8305266,4.0594273
2.378,-1.4887657,8.251694,8.526342,3.707562,3.7681918,4.015483
2.38,-1.8941059,8.319081,8.3566675,3.5806077,3.6937296,3.9697123
2.382,-2.3014796,8.382639,8.181909,3.449803,3.6071265,3.922472
2.384,-2.709729,8.442044,8.002708,3.3154747,3.5085456,3.8740458
2.386,-3.1182606,8.497014,7.82077,3.1779697,3.3983164,3.8246467
2.388,-3.5261765,8.5473585,7.6382937,3.037671,3.276904,3.7744331
2.39,-3.9320054,8.592615,7.4565573,2.895001,3.1449056,3.723521
2.392,-4.3352304,8.632483,7.277569,2.7504094,3.0030215,3.672
2.394,-4.735035,8.666723,7.10318,2.6043792,2.8520653,3.6199102
2.396,-5.130663,8.695054,6.9348154,2.4574122,2.6929345,3.567295
2.398,-5.5214057,8.717101,6.7740703,2.3100352,2.5265918,3.514194
2.4,-5.9064555,8.732555,6.622431,2.162787,2.3540776,3.4606361
2.402,-6.285391,8.741326,6.4815106,2.0161917,2.1764956,3.4066648
2.404,-6.6576476,8.743178,6.3525214,1.8707752,1.994986,3.3523223
2.406,-7.022824,8.737936,6.2367344,1.7270439,1.8107135,3.2976913
2.408,-7.3803644,8.725486,6.1350865,1.5854802,1.6248356,3.2428458
2.41,-7.730035,8.705746,6.0484366,1.4465239,1.4385136,3.1878667
2.412,-8.071253,8.678595,5.9772735,1.3105705,1.2528888,3.1328285
2.414,-8.403652,8.643858,5.921882,1.1779648,1.0690795,3.077786
2.416,-8.727039,8.601692,5.882209,1.049017,0.8881515,3.0227785
2.418,-9.041093,8.552309,5.8581777,0.92399657,0.7111103,2.9678504
2.42,-9.345667,8.495871,5.849558,0.8031464,0.5389049,2.9130409
2.422,-9.640518,8.4325905,5.855884,0.68666625,0.37243733,2.8583517
2.424,-9.925656,8.362827,5.8767357,0.5747416,0.21257555,2.8037899
2.426,-10.2009,8.286921,5.9113193,0.4675425,0.060141087,2.7493534
2.428,-10.466351,8.2051735,5.9587927,0.36523044,-0.08407372,2.695048
2.43,-10.721753,8.117959,6.0180674,0.26792446,-0.21930492,2.6408973
2.432,-10.96709,8.025354,6.087906,0.17576051,-0.34482175,2.5869298
2.434,-11.202341,7.927873,6.167015,0.08886063,-0.45995912,2.5331764
2.436,-11.427349,7.8258166,6.2540903,0.0073156357,-0.56412816,2.4797072
2.438,-11.642201,7.7197156,6.3476605,-0.06879318,-0.65685296,2.4265847
2.44,-11.846922,7.60996,6.446232,-0.1394012,-0.7377671,2.3738909
2.442,-12.041297,7.497021,6.5483675,-0.2044782,-0.80665725,2.3217125
2.444,-12.225273,7.381289,6.6524467,-0.26401675,-0.8634613,2.2701318
2.446,-12.398692,7.2632136,6.7569866,-0.31806874,-0.9082821,2.2192044
2.448,-12.561588,7.143164,6.860879,-0.36673915,-0.94137204,2.1689987
2.45,-12.713757,7.02169,6.9627705,-0.41017312,-0.9631368,2.1195352
2.452,-12.8551655,6.899023,7.0613384,-0.44858506,-0.9740938,2.0708284
2.454,-12.985655,6.7755866,7.155657,-0.4822405,-0.9748611,2.022879
2.456,-13.104995,6.651794,7.2448454,-0.51144964,-0.96611583,1.975655
2.458,-13.213129,6.5279016,7.3280783,-0.5365809,-0.94859326,1.9291389
2.46,-13.309812,6.4043465,7.404746,-0.55800515,-0.92302465,1.8833041
2.462,-13.395216,6.281483,7.47435,-0.576107,-0.8901416,1.838139
2.464,-13.468984,6.159521,7.5365925,-0.591251,-0.8506477,1.7936397
2.466,-13.531122,6.038816,7.5911293,-0.603776,-0.8051847,1.7497926
2.468,-13.581535,5.919662,7.6379623,-0.6139916,-0.75433224,1.7065862
2.47,-13.620169,5.8023434,7.6771154,-0.6221834,-0.6985933,1.6640105
2.472,-13.647036,5.687067,7.70874,-0.62859476,-0.6383722,1.6220423
2.474,-13.662148,5.574198,7.7330446,-0.6334208,-0.5740001,1.5806575
2.476,-13.665643,5.463912,7.75031,-0.63683057,-0.5057357,1.5398207
2.478,-13.657599,5.356371,7.760844,-0.6389909,-0.43380177,1.4994966
2.48,-13.63811,5.251759,7.765111,-0.6400455,-0.35836756,1.4596474
2.482,-13.607333,5.1502953,7.763416,-0.64013517,-0.2796033,1.4202268
2.484,-13.565417,5.0521917,7.7561407,-0.6393826,-0.19769196,1.3812103
2.486,-13.512609,4.957416,7.7438107,-0.63792104,-0.112848505,1.3425446
2.488,-13.449065,4.86617,7.7265882,-0.63588285,-0.025328606,1.3041933
2.49,-13.375063,4.778527,7.7049994,-0.63339055,0.06456117,1.2660966
2.492,-13.290869,4.6945953,7.679309,-0.6305717,0.15646335,1.2281892
2.494,-13.196803,4.6144295,7.649971,-0.62754345,0.2499727,1.1903882
2.496,-13.093062,4.538121,7.617352,-0.6244279,0.34466046,1.1526015
2.498,-12.979984,4.465578,7.5817575,-0.6213403,0.44006062,1.1147251
2.5,-12.858023,4.396851,7.543542,-0.6183777,0.5357101,1.0766708
2.502,-12.727423,4.332018,7.5029817,-0.6156394,0.6311685,1.0383308
2.504,-12.588636,4.270888,7.4604025,-0.61321753,0.72602344,0.9996215
2.506,-12.44209,4.2135825,7.4161444,-0.61119556,0.8199002,0.96046114
2.508,-12.288391,4.1601124,7.3703895,-0.6096231,0.91247904,0.9207969
2.51,-12.127776,4.1103554,7.3234787,-0.6085317,1.0034944,0.8806013
2.512,-11.96088,4.0644345,7.275632,-0.60791314,1.0927721,0.8398622
2.514,-11.788257,4.0223303,7.2270193,-0.6077442,1.1801847,0.7985707
2.516,-11.610424,3.9840388,7.1778955,-0.60796165,1.2656803,0.75673723
2.518,-11.427974,3.9494739,7.1283817,-0.60848397,1.3492547,0.71438265
2.52,-11.241538,3.9188113,7.0788193,-0.6092138,1.4309596,0.6715272
2.522,-11.051704,3.8920262,7.029241,-0.6100347,1.5109024,0.62819517
2.524,-10.859161,3.8691134,6.9797125,-0.61083233,1.5892231,0.584424
2.526,-10.664406,3.8501284,6.9305143,-0.61148167,1.6660781,0.54025507
2.528,-10.467975,3.835041,6.881648,-0.61187243,1.7416542,0.4957498
2.53,-10.270625,3.8239355,6.833041,-0.6119136,1.8161348,0.45099345
2.532,-10.07274,3.816921,6.784666,-0.61148894,1.8897213,0.40606102
2.534,-9.874835,3.8139744,6.736492,-0.61050296,1.9626052,0.36106452
2.536,-9.677445,3.8151884,6.688461,-0.6088664,2.0349674,0.3161393
2.538,-9.48104,3.820712,6.640473,-0.60649717,2.1069915,0.2714105
2.54,-9.286043,3.8305438,6.592393,-0.6033173,2.178847,0.22704259
2.542,-9.09276,3.8449275,6.544135,-0.59923613,2.2506852,0.1831719
2.544,-8.901561,3.8638234,6.49548,-0.5941886,2.322631,0.1399346
2.546,-8.712752,3.8873408,6.44624,-0.5880932,2.3947895,0.097455814
2.548,-8.526462,3.9154892,6.396263,-0.5809019,2.4672403,0.055847883
2.55,-8.3428135,3.9483476,6.3453836,-0.57257605,2.5400288,0.015193015
2.552,-8.162198,3.9860055,6.293392,-0.5630944,2.613165,-0.024451539
2.554,-7.984457,4.0283833,6.240104,-0.5524575,2.6866186,-0.06304946
2.556,-7.8097878,4.075496,6.185325,-0.54067963,2.7602906,-0.10058683
2.558,-7.638092,4.12731,6.128702,-0.52780586,2.8340442,-0.1370705
2.56,-7.46936,4.1837044,6.0701036,-0.5138868,2.9076986,-0.17253292
2.562,-7.303424,4.2445855,6.0094543,-0.49900624,2.9810317,-0.2070258
2.564,-7.140278,4.3097496,5.946413,-0.4832649,3.0537848,-0.2406238
2.566,-6.9797597,4.378979,5.8808956,-0.4667779,3.12566,-0.273416
2.568,-6.821827,4.4520164,5.812805,-0.4496708,3.1963391,-0.30549994
2.57,-6.666262,4.5285344,5.7419496,-0.43207574,3.2654872,-0.3369989
2.572,-6.512707,4.608132,5.668317,-0.41414678,3.3327568,-0.36805156
2.574,-6.361232,4.6904902,5.5918283,-0.3960226,3.3977869,-0.39878723
2.576,-6.211576,4.77511,5.512562,-0.3778507,3.4602194,-0.42935634
2.578,-6.0636315,4.8615546,5.4304924,-0.35979235,3.5197072,-0.4599045
2.58,-5.9173083,4.949271,5.3457327,-0.3419936,3.5759282,-0.4905754
2.582,-5.772474,5.0377736,5.258339,-0.32459915,3.6285784,-0.52148247
2.584,-5.629009,5.126527,5.168371,-0.3077411,3.6773767,-0.55273134
2.586,-5.486931,5.2150774,5.076056,-0.2915572,3.7220898,-0.5843954
2.588,-5.346139,5.302862,4.98159,-0.27617544,3.762513,-0.6165321
2.59,-5.206591,5.3893447,4.885102,-0.26170588,3.798493,-0.64917946
2.592,-5.068456,5.474008,4.7870436,-0.24823236,3.829891,-0.68234926
2.594,-4.931693,5.5563655,4.687563,-0.23583621,3.8566146,-0.71603286
2.596,-4.7963505,5.636007,4.586833,-0.22458939,3.8786001,-0.75021744
2.598,-4.662656,5.7124753,4.4852753,-0.21453236,3.8958132,-0.784891
2.6,-4.530568,5.7852263,4.383132,-0.20571141,3.9082317,-0.82004523
2.602,-4.400133,5.853971,4.2807136,-0.19813548,3.9158309,-0.85568476
2.604,-4.27162,5.91835,4.178239,-0.19181615,3.918604,-0.8917983
2.606,-4.145187,5.978067,4.0761456,-0.18675965,3.9165623,-0.92839175
2.608,-4.020814,6.0327463,3.974695,-0.18297267,3.9097073,-0.96546733
2.61,-3.8986583,6.082123,3.8741512,-0.18042961,3.8980486,-1.0030395
2.612,-3.779028,6.1260614,3.774907,-0.17912318,3.8815997,-1.0411081
2.614,-3.6620386,6.1645136,3.6772022,-0.17903697,3.8603764,-1.0796645
2.616,-3.5476556,6.1972694,3.5813136,-0.1801434,3.8344102,-1.1186796
2.618,-3.4359462,6.22432,3.487589,-0.18241373,3.8037298,-1.158113
2.62,-3.3272974,6.2457595,3.3962414,-0.18581493,3.7683802,-1.1979136
2.622,-3.221526,6.261508,3.3075457,-0.19031805,3.7284274,-1.237999
2.624,-3.118658,6.271716,3.2218754,-0.19589545,3.6839492,-1.2782717
2.626,-3.0186756,6.2764087,3.1393259,-0.20250353,3.6350353,-1.3186105
2.628,-2.9217737,6.275823,3.0602121,-0.21012108,3.5818024,-1.3588822
2.63,-2.8278074,6.2700367,2.984621,-0.21872872,3.5243742,-1.398951
2.632,-2.7368932,6.259345,2.9128318,-0.22829056,3.4628837,-1.4386859
2.634,-2.6488056,6.2439265,2.844877,-0.23880664,3.3974907,-1.4779557
2.636,-2.563628,6.2240324,2.780873,-0.2502557,3.32837,-1.5166497
2.638,-2.4812784,6.199955,2.7209458,-0.2626093,3.2557235,-1.5546551
2.64,-2.4015136,6.171866,2.6651878,-0.27586213,3.1797664,-1.5918857
2.642,-2.3243876,6.140005,2.6135392,-0.28998846,3.1007288,-1.6282775
2.644,-2.2497075,6.1047964,2.5659637,-0.30497625,3.01886,-1.663789
2.646,-2.1772866,6.0663953,2.5223804,-0.32081342,2.934437,-1.6983933
2.648,-2.1068807,6.025032,2.4826765,-0.33747488,2.8477416,-1.7320737
2.65,-2.038449,5.981043,2.4468045,-0.35494402,2.7590594,-1.7648346
2.652,-1.9716973,5.934545,2.4145567,-0.37320969,2.6686826,-1.7966912
2.654,-1.9064567,5.885718,2.3857682,-0.3922492,2.576908,-1.8276621
2.656,-1.8422887,5.8346434,2.3601642,-0.4120478,2.4840493,-1.8577663
2.658,-1.779227,5.7816033,2.337619,-0.43257064,2.3904042,-1.8870401
2.66,-1.7168082,5.7265244,2.3176632,-0.4537928,2.2962441,-1.9155089
2.662,-1.6546823,5.669494,2.300116,-0.47567165,2.2018468,-1.943224
2.664,-1.5928973,5.6105704,2.2847252,-0.49818,2.1074646,-1.9702299
2.666,-1.5308437,5.5496206,2.2710195,-0.5212517,2.0133305,-1.9965956
2.668,-1.4684039,5.486674,2.258803,-0.54484755,1.919651,-2.0224063
2.67,-1.4053332,5.421702,2.2477782,-0.56892043,1.8265884,-2.0477726
2.672,-1.341352,5.354562,2.2376409,-0.5934247,1.7342921,-2.0727997
2.674,-1.2761561,5.2850943,2.2281907,-0.61833006,1.6428726,-2.0976021
2.676,-1.2095225,5.213239,2.219073,-0.6436089,1.552419,-2.1222963
2.678,-1.1411673,5.1388826,2.210121,-0.66925216,1.4629948,-2.1469595
2.68,-1.0709456,5.0619545,2.2011423,-0.6952592,1.3746312,-2.1716733
2.682,-0.9989242,4.9823475,2.1919973,-0.72164226,1.2873495,-2.1964793
2.684,-0.92470145,4.899909,2.182543,-0.7484084,1.2011471,-2.2213752
2.686,-0.84816635,4.8146353,2.1726515,-0.7755896,1.1160398,-2.246329
2.688,-0.76936555,4.7265344,2.1623166,-0.80319136,1.0320129,-2.271296
2.69,-0.6882468,4.635704,2.151567,-0.8312483,0.94906557,-2.296202
2.692,-0.604782,4.542163,2.140433,-0.8597843,0.8671954,-2.3209662
2.694,-0.5190609,4.44603,2.1290092,-0.8887987,0.7864082,-2.345493
2.696,-0.43126318,4.3475256,2.1173077,-0.9182917,0.7067445,-2.3696995
2.698,-0.34125614,4.246814,2.1054764,-0.94825643,0.6282375,-2.3934944
2.7,-0.24943346,4.1442122,2.093669,-0.9786749,0.5509435,-2.4167905
2.702,-0.155765,4.0399404,2.081985,-1.0095321,0.4749294,-2.4395165
2.704,-0.060492426,3.9344685,2.070628,-1.0407872,0.40026394,-2.4615889
2.706,0.036025763,3.828058,2.0598085,-1.0723889,0.32701933,-2.4829392
2.708,0.13383466,3.721097,2.0496216,-1.1043035,0.25526905,-2.503508
2.71,0.23247284,3.613998,2.0402894,-1.1364856,0.18507244,-2.5232387
2.712,0.33165616,3.5071592,2.031882,-1.1688749,0.11650003,-2.5420866
2.714,0.43126664,3.4010022,2.0246525,-1.2014116,0.049619697,-2.5600333
2.716,0.5310178,3.2959049,2.0186114,-1.2340362,-0.015500522,-2.5770497
2.718,0.6306748,3.1922884,2.0139375,-1.2666829,-0.078794315,-2.593142
2.72,0.7299396,3.0906072,2.010703,-1.2992918,-0.14019026,-2.6083314
2.722,0.8287564,2.9910576,2.008916,-1.3317965,-0.19961461,-2.622641
2.724,0.9267298,2.894004,2.008658,-1.3641356,-0.2569623,-2.6361032
2.726,1.0235689,2.7997808,2.0099275,-1.3962451,-0.31215847,-2.6487637
2.728,1.1191992,2.7086227,2.01262,-1.4280705,-0.3651097,-2.6606488
2.73,1.2134538,2.6208012,2.0167115,-1.4595528,-0.41573966,-2.671792
2.732,1.3061085,2.5366204,2.022108,-1.4906399,-0.46396363,-2.682217
2.734,1.3970628,2.4562426,2.0287337,-1.5213001,-0.5096971,-2.6919112
2.736,1.4861884,2.3798785,2.03643,-1.5514923,-0.5528819,-2.7008643
2.738,1.5734792,2.3076444,2.045065,-1.5811747,-0.5934727,-2.7090402
2.74,1.6589395,2.2396772,2.0544412,-1.6103194,-0.631439,-2.7164001
2.742,1.7425253,2.1760693,2.0644557,-1.6388972,-0.6667412,-2.722908
2.744,1.8242136,2.1169314,2.0749385,-1.6668639,-0.69937474,-2.728514
2.746,1.9041396,2.062066,2.0856159,-1.6941881,-0.72933584,-2.7331812
2.748,1.9822888,2.0115316,2.096313,-1.7208409,-0.75665414,-2.736896
2.75,2.0587115,1.9652606,2.1069064,-1.7467868,-0.7813688,-2.739655
2.752,2.1336548,1.9231545,2.1172032,-1.7719802,-0.8035159,-2.7414818
2.754,2.2072296,1.8848764,2.1270049,-1.7963827,-0.82315755,-2.7424262
2.756,2.2793934,1.8502787,2.1361303,-1.8199401,-0.8403617,-2.7425513
2.758,2.3503878,1.8190821,2.144337,-1.8426125,-0.85519385,-2.7419405
2.76,2.420408,1.7910372,2.1515796,-1.864371,-0.86773163,-2.7406912
2.762,2.4893923,1.7658609,2.1577024,-1.8851781,-0.87805724,-2.7389069
2.764,2.557688,1.7432126,2.1624894,-1.904994,-0.88623744,-2.736693
2.766,2.625154,1.7227154,2.165923,-1.9238191,-0.89234895,-2.7341356
2.768,2.6921592,1.7039573,2.1678112,-1.9416437,-0.89646083,-2.7313008
2.77,2.7585158,1.6867491,2.1682115,-1.9584819,-0.8986558,-2.7282598
2.772,2.8245032,1.6706221,2.1669421,-1.9743387,-0.89900076,-2.72504
2.774,2.890224,1.6553141,2.1639237,-1.9892405,-0.89757943,-2.7216468
2.776,2.955536,1.6405537,2.1592405,-2.0032134,-0.8944645,-2.7180808
2.778,3.020522,1.6261225,2.1527443,-2.0162885,-0.8897461,-2.714316
2.78,3.0852547,1.6116884,2.1444473,-2.028496,-0.8835031,-2.710297
2.782,3.1498246,1.5971355,2.1343584,-2.0398605,-0.87582266,-2.7059734
2.784,3.2141614,1.582296,2.1224456,-2.050408,-0.8667857,-2.701281
2.786,3.278147,1.5671308,2.1088657,-2.060165,-0.8564902,-2.696167
2.788,3.3419611,1.5515392,2.0935311,-2.0691376,-0.8450219,-2.6905785
2.79,3.405488,1.5354625,2.0765266,-2.0773568,-0.8324816,-2.6844614
2.792,3.4687812,1.5189756,2.0579069,-2.0848424,-0.8189504,-2.6777868
2.794,3.5318177,1.5022299,2.037746,-2.0915987,-0.8045136,-2.6705256
2.796,3.5944176,1.4852226,2.0160885,-2.0976424,-0.7892728,-2.6626403
2.798,3.656621,1.468001,1.9930074,-2.1029904,-0.7732968,-2.6541207
2.8,3.7183888,1.4507687,1.9686432,-2.1076508,-0.7566634,-2.6449594
2.802,3.7796698,1.4336753,1.94303,-2.1116276,-0.73943883,-2.6351266
2.804,3.840373,1.4169142,1.9163649,-2.1149359,-0.72168565,-2.6246092
2.806,3.900462,1.4005425,1.8886445,-2.1175818,-0.70346105,-2.6133971
2.808,3.959627,1.384881,1.8600866,-2.1195886,-0.6847986,-2.6014683
2.81,4.017873,1.3700048,1.830683,-2.1209686,-0.66573036,-2.5888095
2.812,4.0750537,1.3561218,1.800451,-2.1217432,-0.6462749,-2.5753949
2.814,4.131099,1.3433354,1.7695748,-2.121932,-0.62645274,-2.5612013
2.816,4.1856923,1.3318653,1.7380507,-2.1215565,-0.6062585,-2.5461993
2.818,4.2389235,1.3217047,1.7059857,-2.1206627,-0.5856899,-2.5303698
2.82,4.2905335,1.3131222,1.6733959,-2.1192775,-0.5647344,-2.5137048
2.822,4.3405027,1.3059403,1.6403171,-2.1174335,-0.54337007,-2.4961972
2.824,4.3886867,1.3002869,1.6066964,-2.115167,-0.52158004,-2.477856
2.826,4.434993,1.2960963,1.5725473,-2.1125178,-0.49935323,-2.4587145
2.828,4.479272,1.2932943,1.5378792,-2.1095133,-0.47667098,-2.4388347
2.83,4.5216246,1.2916911,1.5027092,-2.106184,-0.45354992,-2.4182863
2.832,4.5619965,1.2911214,1.4669826,-2.1025603,-0.42999256,-2.3971672
2.834,4.600484,1.2913549,1.4306862,-2.0986567,-0.406013,-2.3756046
2.836,4.637089,1.292183,1.3937378,-2.0944974,-0.3816465,-2.3537235
2.838,4.6718717,1.2931733,1.3560762,-2.0900943,-0.3569429,-2.3316603
2.84,4.7049294,1.2940093,1.317684,-2.0854483,-0.3319505,-2.3095396
2.842,4.736338,1.2943372,1.2784213,-2.0805678,-0.30674022,-2.287476
2.844,4.7661877,1.293737,1.2382686,-2.0754342,-0.28137112,-2.2655718
2.846,4.79474,1.291794,1.1972256,-2.070055,-0.25592637,-2.2439022
2.848,4.822093,1.2881451,1.1551558,-2.0644312,-0.23049557,-2.2225022
2.85,4.848347,1.2823693,1.112033,-2.0585687,-0.20515263,-2.2013974
2.852,4.8736715,1.2740587,1.0677162,-2.052477,-0.17996293,-2.1805742
2.854,4.8982735,1.2629542,1.0223433,-2.0461664,-0.15499544,-2.159985
2.856,4.9222016,1.2488626,0.9758478,-2.0396738,-0.13030672,-2.139577
2.858,4.9457116,1.2313386,0.92821723,-2.0330353,-0.105953336,-2.1192648
2.86,4.968856,1.2103262,0.87939334,-2.026285,-0.081971586,-2.0989482
2.862,4.99173,1.1856513,0.8293968,-2.019469,-0.058392107,-2.078542
2.864,5.014387,1.1572233,0.7783543,-2.0126367,-0.035239935,-2.0579462
2.866,5.037124,1.1249883,0.7263253,-2.0058239,-0.012529194,-2.0370698
2.868,5.059776,1.0890608,0.6733849,-1.9990665,0.009735107,-2.0158272
2.87,5.0824747,1.0492951,0.61947024,-1.9923965,0.03153813,-1.9941527
2.872,5.105376,1.0058906,0.56473553,-1.9858351,0.052859843,-1.9719875
2.874,5.1282344,0.9589634,0.5092789,-1.9794024,0.0736897,-1.9492933
2.876,5.1513453,0.9088327,0.45325065,-1.9731195,0.09402329,-1.9260483
2.878,5.174511,0.8556429,0.39670834,-1.9669864,0.11386287,-1.9022433
2.88,5.1977396,0.7994876,0.33975917,-1.9610096,0.1332024,-1.8778753
2.882,5.2210326,0.74074644,0.2825088,-1.9552009,0.15204477,-1.8529639
2.884,5.244377,0.679623,0.22506753,-1.9495566,0.17041948,-1.8275261
2.886,5.267608,0.6164257,0.16752312,-1.9440845,0.18835303,-1.8015816
2.888,5.2906938,0.55137175,0.1100218,-1.938787,0.2058655,-1.775152
2.89,5.313518,0.48484594,0.05270475,-1.9336631,0.22298977,-1.7482576
2.892,5.336,0.41714585,-0.0044639707,-1.9287242,0.23976529,-1.7209185
2.894,5.358078,0.3486424,-0.06127006,-1.9239738,0.25622693,-1.6931453
2.896,5.379683,0.27952462,-0.11771208,-1.919418,0.27240452,-1.6649545
2.898,5.4006186,0.21012065,-0.17359382,-1.9150673,0.28833306,-1.6363546
2.9,5.420735,0.14086573,-0.22889295,-1.9109119,0.3040406,-1.6073396
2.902,5.440114,0.07201655,-0.2835761,-1.9069449,0.31956255,-1.5779359
2.904,5.4584055,0.0038484186,-0.33751363,-1.9031587,0.33491677,-1.548145
2.906,5.475716,-0.06322068,-0.39059445,-1.8995264,0.35012448,-1.5179682
2.908,5.4918437,-0.12889583,-0.44290322,-1.8960243,0.36522976,-1.4874117
2.91,5.5067906,-0.19295655,-0.49434936,-1.8926212,0.38026273,-1.4564695
2.912,5.520345,-0.25505435,-0.544892,-1.8892772,0.39526242,-1.4251523
2.914,5.532568,-0.3149859,-0.5945587,-1.8859674,0.4102724,-1.3934577
2.916,5.5433855,-0.37240684,-0.6431677,-1.8826486,0.42535147,-1.3613784
2.918,5.552813,-0.42712173,-0.69084966,-1.8792875,0.44055077,-1.3289112
2.92,5.5608873,-0.47893,-0.737557,-1.8758638,0.4559247,-1.296068
2.922,5.567513,-0.5277017,-0.7831949,-1.8723425,0.471528,-1.2628458
2.924,5.5727034,-0.5733015,-0.82782835,-1.8686999,0.48743144,-1.2292535
2.926,5.5765986,-0.6156385,-0.8713963,-1.8649051,0.5036957,-1.195288
2.928,5.579083,-0.6545391,-0.9139909,-1.8609139,0.52037114,-1.1609635
2.93,5.5803375,-0.69010603,-0.95551836,-1.8566966,0.53751683,-1.1262857
2.932,5.580237,-0.7221979,-0.99606335,-1.8522187,0.5551777,-1.0912677
2.934,5.5788903,-0.75093174,-1.0355831,-1.8474258,0.57341206,-1.0559341
2.936,5.5764008,-0.7762992,-1.0740185,-1.842262,0.59225774,-1.0202984
2.938,5.572935,-0.7985094,-1.1114798,-1.8366709,0.6117488,-0.98439825
2.94,5.5684633,-0.81754255,-1.1479566,-1.8305895,0.63192064,-0.9482686
2.942,5.5630913,-0.83365154,-1.1834083,-1.8239741,0.65281224,-0.91195154
2.944,5.556784,-0.8469405,-1.217962,-1.8167694,0.6744479,-0.8754958
2.946,5.549758,-0.8576374,-1.2515004,-1.8089262,0.6968518,-0.8389604
2.948,5.5419874,-0.8659059,-1.2840874,-1.8004179,0.7200364,-0.8024063
2.95,5.533592,-0.8718941,-1.315752,-1.7912236,0.7440118,-0.76588714
2.952,5.524619,-0.87587047,-1.3464687,-1.7813284,0.7687698,-0.7294629
2.954,5.515138,-0.87800646,-1.3763752,-1.7707447,0.7943028,-0.6931765
2.956,5.505214,-0.87848765,-1.4054303,-1.759479,0.82058847,-0.6570561
2.958,5.4949536,-0.8775694,-1.4337335,-1.7475522,0.8476026,-0.6211245
2.96,5.4843974,-0.87539136,-1.4612942,-1.7349892,0.8753086,-0.5853882
2.962,5.4735293,-0.87217367,-1.4882166,-1.7218313,0.9036501,-0.54984844
2.964,5.4624414,-0.86806977,-1.5146768,-1.7081026,0.932577,-0.5145066
2.966,5.451196,-0.8632225,-1.5406713,-1.6938398,0.9620149,-0.4793356
2.968,5.4397664,-0.85775334,-1.5663443,-1.6790788,0.99188685,-0.4443298
2.97,5.4282837,-0.85185426,-1.5917004,-1.6638665,1.022103,-0.4094907
2.972,5.416902,-0.84572184,-1.616817,-1.6482466,1.0525736,-0.37483275
2.974,5.405561,-0.8393124,-1.6419063,-1.6322589,1.0831766,-0.34036574
2.976,5.3942137,-0.8328138,-1.6670473,-1.6159599,1.1137996,-0.30612656
2.978,5.3829613,-0.8263772,-1.692228,-1.5993989,1.1442966,-0.27214077
2.98,5.3719206,-0.81995046,-1.717579,-1.582646,1.1745497,-0.23845664
2.982,5.3609586,-0.81369174,-1.7431252,-1.5657706,1.2044256,-0.20511156
2.984,5.350389,-0.8076295,-1.7690117,-1.5488135,1.2337837,-0.17213959
2.986,5.3399186,-0.8017815,-1.7952312,-1.5318394,1.2625215,-0.13956982
2.988,5.3297143,-0.7962605,-1.8218398,-1.514908,1.2905413,-0.10742289
2.99,5.3199034,-0.79100704,-1.8488715,-1.498059,1.3177664,-0.07570267
2.992,5.310147,-0.78605705,-1.8762875,-1.4813254,1.344157,-0.044409096
2.994,5.300601,-0.781447,-1.9041299,-1.4647238,1.3696948,-0.013533771
2.996,5.2913313,-0.7770958,-1.9324216,-1.4482533,1.3943948,0.016948342
2.998,5.282163,-0.7729833,-1.9612418,-1.4319103,1.4182985,0.04706502
3,5.273051,-0.7690824,-1.9905906,-1.4156687,1.4414636,0.07686806
3.002,5.263897,-0.76531124,-2.0203748,-1.3995031,1.4639727,0.10638821
3.004,5.2546453,-0.7616104,-2.0507004,-1.383387,1.4859035,0.13565516
3.006,5.2452207,-0.7578615,-2.0816002,-1.3672892,1.5073379,0.16469976
3.008,5.2355714,-0.7538941,-2.113082,-1.3511746,1.5283496,0.19352564
3.01,5.225668,-0.74968517,-2.1450114,-1.3350275,1.5489873,0.22214073
3.012,5.215352,-0.74515104,-2.1774936,-1.3188319,1.5692945,0.2505245
3.014,5.2045283,-0.74015534,-2.2105231,-1.3025831,1.5892828,0.27864254
3.016,5.193128,-0.73462033,-2.244195,-1.2862723,1.6089572,0.30646777
3.018,5.1810656,-0.7283969,-2.278399,-1.26992,1.6283016,0.33396733
3.02,5.168085,-0.721336,-2.313189,-1.2535521,1.6473004,0.36109486
3.022,5.1542096,-0.71337235,-2.3485494,-1.2371825,1.665916,0.38783213
3.024,5.139272,-0.7043097,-2.3844783,-1.2208306,1.6841229,0.41416478
3.026,5.123267,-0.69420564,-2.4210181,-1.2045305,1.7018979,0.440094
3.028,5.1060176,-0.6828997,-2.4580946,-1.1882944,1.719223,0.46562082
3.03,5.08749,-0.6703315,-2.4956098,-1.1721354,1.7360737,0.49077013
3.032,5.067658,-0.65639687,-2.5336754,-1.1560684,1.7524416,0.5155687
3.034,5.046451,-0.6410402,-2.57213,-1.1400911,1.7683041,0.5400578
3.036,5.023811,-0.62423384,-2.610893,-1.1242061,1.7836496,0.5642817
3.038,4.999528,-0.6059309,-2.6498954,-1.1084152,1.7984802,0.5882651
3.04,4.9739466,-0.5861448,-2.6890755,-1.0926974,1.8127887,0.6120395
3.042,4.9469833,-0.56501174,-2.7282658,-1.077026,1.8265892,0.63562304
3.044,4.918716,-0.5425482,-2.7674716,-1.0613666,1.8398972,0.6590042
3.046,4.889055,-0.51882124,-2.806618,-1.0456765,1.8527279,0.6821605
3.048,4.8581567,-0.49386573,-2.8455715,-1.0298964,1.8651075,0.7050508
3.05,4.826066,-0.4678352,-2.8842921,-1.0139761,1.8770515,0.7276163
3.052,4.7928586,-0.44077396,-2.9226947,-0.99786687,1.8885664,0.7497772
3.054,4.758687,-0.41295266,-2.9607172,-0.9815288,1.8996617,0.7714454
3.056,4.7235494,-0.38444495,-2.9982753,-0.9649278,1.9103423,0.7925426
3.058,4.6877265,-0.35546625,-3.0353022,-0.94803464,1.9206156,0.8129956
3.06,4.6511536,-0.32607627,-3.0717077,-0.93084604,1.9304816,0.8327499
3.062,4.6140385,-0.29647434,-3.107456,-0.91336584,1.9399483,0.8517837
3.064,4.5763516,-0.26674116,-3.1424751,-0.8956002,1.9490407,0.87008953
3.066,4.5382085,-0.23697603,-3.176637,-0.8775512,1.9577696,0.88770014
3.068,4.4996862,-0.20739317,-3.2098546,-0.85922116,1.9661844,0.90467155
3.07,4.460923,-0.17801392,-3.2421114,-0.8406,1.9743313,0.92109513
3.072,4.421972,-0.14889002,-3.2733042,-0.8216551,1.9822662,0.9370724
3.074,4.3828144,-0.12011075,-3.3033762,-0.802349,1.9900522,0.9527191
3.076,4.343578,-0.09178972,-3.3322935,-0.78264093,1.9977477,0.96814895
3.078,4.3042636,-0.06381202,-3.3600886,-0.76248115,2.0054011,0.98346734
3.08,4.264916,-0.03622818,-3.3866718,-0.74182427,2.0130577,0.9987421
3.082,4.2265115,-0.009615183,-3.4116457,-0.7206446,2.0207481,1.0140193
3.084,4.1884413,0.0164392,-3.4352446,-0.69893044,2.0284772,1.0293033
3.086,4.150861,0.04196453,-3.4574614,-0.67668587,2.0362365,1.0445654
3.088,4.1138268,0.06692362,-3.4783263,-0.65395254,2.044011,1.0597517
3.09,4.077331,0.09128833,-3.4977832,-0.6307908,2.0517316,1.0747836
3.092,4.0415826,0.11504984,-3.515922,-0.6072687,2.0592973,1.0895765
3.094,4.0065384,0.1381588,-3.5326133,-0.5834698,2.066585,1.1040299
3.096,3.9724493,0.16052747,-3.548069,-0.55947506,2.0734432,1.1180571
3.098,3.9393263,0.18222809,-3.562267,-0.53534555,2.079728,1.1315666
3.1,3.9072385,0.20316672,-3.5752606,-0.51111525,2.0852814,1.1444883
3.102,3.8763776,0.22330928,-3.5871534,-0.4868077,2.0899794,1.1567488
3.104,3.8466647,0.24264812,-3.5979776,-0.46240944,2.093744,1.1682928
3.106,3.818177,0.26109815,-3.6078005,-0.4379023,2.0965257,1.1790808
3.108,3.7910004,0.27864552,-3.6166453,-0.41327792,2.0983057,1.1890848
3.11,3.7651424,0.29527593,-3.6246452,-0.38937348,2.09923,1.1981015
3.112,3.7405226,0.3109696,-3.6318853,-0.3657944,2.099352,1.2062424
3.114,3.7171924,0.3257339,-3.6384158,-0.34272167,2.0988045,1.2135028
3.116,3.6951327,0.33956861,-3.6442475,-0.32036728,2.097733,1.2198975
3.118,3.6742449,0.35247612,-3.6495152,-0.2989593,2.0962849,1.2254682
3.12,3.6545105,0.36447906,-3.654354,-0.27872118,2.094601,1.2302734
3.122,3.635828,0.37569523,-3.6587195,-0.25983173,2.092794,1.2343853
3.124,3.6182637,0.38615537,-3.6627283,-0.24241877,2.0909567,1.2378714
3.126,3.6016338,0.3958702,-3.6662927,-0.22655198,2.0891588,1.240817
3.128,3.5859861,0.40490937,-3.6695395,-0.21223763,2.0874407,1.2433026
3.13,3.5713,0.4132483,-3.6725504,-0.1994292,2.0858326,1.2453911
3.132,3.5574536,0.42095423,-3.6752555,-0.18803611,2.084353,1.2471505
