Time_s_,Acc_x_m_s_2_,Acc_y_m_s_2_,Acc_z_m_s_2_,Gyro_x_1_s_,Gyro_y_1_s_,Gyro_z_1_s_
0,-0.34808975,-0.030034456,0.150646,-0.070163056,-0.53060836,0.6376129
0.002,-0.37611398,-0.021741226,0.14535825,-0.06494816,-0.5205397,0.64856446
0.004,-0.40565082,-0.012283795,0.1408323,-0.05904712,-0.5102827,0.6606312
0.006,-0.43624142,-0.0013972297,0.13670537,-0.052358553,-0.500073,0.6739219
0.008,-0.46808618,0.01139228,0.13317747,-0.04475276,-0.49025777,0.6885314
0.01,-0.5006358,0.025860712,0.13065016,-0.036112472,-0.48127472,0.70448756
0.012,-0.5343516,0.041733295,0.12872553,-0.026342858,-0.4736334,0.72175837
0.014,-0.56851447,0.058466315,0.12684172,-0.015392862,-0.46792373,0.7401835
0.016,-0.6031877,0.07574692,0.12522513,-0.0032544099,-0.46477485,0.75944525
0.018,-0.6382832,0.09356232,0.12417318,0.01000753,-0.4648372,0.77909553
0.02,-0.673688,0.111644164,0.12400381,0.02423516,-0.46877915,0.79860127
0.022,-0.7090759,0.12971261,0.12480076,0.039153732,-0.47726268,0.8173326
0.024,-0.7439732,0.14723627,0.12688768,0.054380864,-0.49089456,0.83461016
0.026,-0.77778476,0.16361828,0.13081287,0.06942904,-0.5101945,0.8497781
0.028,-0.8103761,0.17836925,0.13666184,0.0840731,-0.5353388,0.8627831
0.03,-0.841739,0.19107364,0.14411327,0.097288705,-0.5669766,0.8723004
0.032,-0.8712747,0.20113401,0.1535134,0.10859789,-0.60501397,0.8780068
0.034,-0.8985741,0.20803078,0.16556323,0.117623545,-0.64912194,0.879786
0.036,-0.92317736,0.21128793,0.18045107,0.124124,-0.69870293,0.8777336
0.038,-0.94443834,0.21023512,0.19767898,0.12798592,-0.7529059,0.87205845
0.04,-0.96164155,0.20432982,0.21626939,0.12928659,-0.81058216,0.86308116
0.042,-0.9740857,0.19315267,0.23532608,0.1283155,-0.8702796,0.8512999
0.044,-0.9809114,0.17648657,0.2543564,0.12554744,-0.93036866,0.8373261
0.046,-0.9815834,0.15431058,0.273032,0.12159752,-0.9891014,0.82189274
0.048,-0.97513425,0.12658802,0.29088783,0.11719412,-1.0446815,0.8057995
0.05,-0.9607495,0.09335582,0.3071543,0.11310287,-1.0953722,0.78980047
0.052,-0.93769574,0.05469744,0.3210561,0.110037476,-1.139596,0.77455336
0.054,-0.9053767,0.010788605,0.33171406,0.108628795,-1.1760837,0.76055366
0.056,-0.8639175,-0.03839034,0.33847648,0.109329924,-1.2038971,0.74811405
0.058,-0.81226456,-0.092173174,0.34046644,0.11236021,-1.2225277,0.7373217
0.06,-0.7501119,-0.15018094,0.33729702,0.117732406,-1.231927,0.7281126
0.062,-0.677799,-0.21169627,0.32904097,0.12525949,-1.232468,0.7203554
0.064,-0.5953567,-0.2761135,0.31543207,0.13461237,-1.2248986,0.7138721
0.066,-0.5032658,-0.3425493,0.29652205,0.14534184,-1.210225,0.70843333
0.068,-0.4019177,-0.41038206,0.2721373,0.15694201,-1.189601,0.7038259
0.07,-0.29213864,-0.47887605,0.24189162,0.16891874,-1.164217,0.6999047
0.072,-0.17500472,-0.5474249,0.20578273,0.18087903,-1.1351297,0.6965649
0.074,-0.051546156,-0.61542594,0.16392453,0.19257341,-1.1031259,0.69370794
0.076,0.07711013,-0.6821922,0.11639094,0.2039309,-1.0686189,0.69126254
0.078,0.20938846,-0.7470208,0.06366484,0.21504566,-1.0316556,0.6891365
0.08,0.3439769,-0.8091746,0.0058763027,0.22618264,-0.991974,0.68720764
0.082,0.47942868,-0.86776066,-0.05679694,0.23771146,-0.94912046,0.68535185
0.084,0.6143298,-0.92188925,-0.12413031,0.25001755,-0.90260696,0.68348175
0.086,0.7472857,-0.97093576,-0.1957471,0.26343524,-0.85202277,0.68153113
0.088,0.8769944,-1.0143254,-0.27143437,0.278181,-0.797225,0.67943025
0.09,1.0020491,-1.0514649,-0.35118586,0.2943125,-0.7384222,0.677151
0.092,1.1213131,-1.081788,-0.4349445,0.31170925,-0.67617023,0.6747365
0.094,1.2338169,-1.1049774,-0.52219373,0.3300598,-0.61139476,0.67222166
0.096,1.3387764,-1.1206926,-0.6126827,0.34886852,-0.5453334,0.66961515
0.098,1.4353261,-1.1284373,-0.705735,0.36753997,-0.47933507,0.66688144
0.1,1.5229365,-1.1282055,-0.8005185,0.38542882,-0.4147647,0.6639346
0.102,1.6012046,-1.1199093,-0.8964274,0.40192038,-0.35290205,0.66066825
0.104,1.6697545,-1.1037112,-0.992975,0.41650367,-0.29477936,0.656971
0.106,1.7282871,-1.0797898,-1.0899485,0.42883465,-0.24109113,0.6527137
0.108,1.7761933,-1.0484196,-1.186774,0.43876374,-0.19211942,0.6477678
0.11,1.8129107,-1.0099547,-1.2834558,0.44634724,-0.14780104,0.6420229
0.112,1.8381522,-0.96421194,-1.3797555,0.45184246,-0.107715964,0.6354018
0.114,1.8516675,-0.9112287,-1.4759978,0.4556462,-0.07112759,0.6278554
0.116,1.85282,-0.8511839,-1.5717216,0.45823973,-0.03711301,0.6193716
0.118,1.841647,-0.78452027,-1.6661103,0.46013814,-0.004658282,0.61000836
0.12,1.8176554,-0.7111883,-1.7579015,0.46188292,0.027232379,0.5999222
0.122,1.7811552,-0.6314383,-1.845436,0.46393833,0.05944881,0.5893583
0.124,1.7317828,-0.5453508,-1.9275986,0.4666621,0.09268269,0.5785824
0.126,1.6699746,-0.45329666,-2.0044174,0.47025406,0.12732103,0.567884
0.128,1.596236,-0.35575885,-2.0762682,0.4747941,0.16340059,0.5575856
0.13,1.5114791,-0.2532072,-2.1435373,0.48024914,0.20059825,0.54806024
0.132,1.4164547,-0.14609215,-2.2058802,0.48651016,0.23827358,0.5396959
0.134,1.312256,-0.034987256,-2.262778,0.4934022,0.27554363,0.5328313
0.136,1.2004592,0.079329446,-2.3136816,0.5007512,0.3113765,0.5277282
0.138,1.0831661,0.19566728,-2.3575835,0.50841326,0.34468466,0.52451646
0.14,0.96273756,0.3128169,-2.3932784,0.51630014,0.37440354,0.5231741
0.142,0.8413302,0.42940542,-2.4204655,0.52434987,0.39950046,0.5235597
0.144,0.7213668,0.54395485,-2.4389477,0.5324939,0.41907084,0.5253853
0.146,0.6054275,0.65496755,-2.4480314,0.5406547,0.432391,0.52825737
0.148,0.49579352,0.7611514,-2.4465122,0.5487367,0.43897733,0.53172886
0.15,0.39482534,0.861113,-2.433249,0.55665845,0.43864477,0.53529066
0.152,0.3051048,0.9534858,-2.4076905,0.5643125,0.43148,0.5384718
0.154,0.2286806,1.0367565,-2.3700168,0.57153946,0.41780236,0.5408773
0.156,0.16775565,1.1096668,-2.3207963,0.5781005,0.39806086,0.542253
0.158,0.1239336,1.1710348,-2.2604368,0.5836846,0.3727447,0.54249173
0.16,0.0984271,1.2202089,-2.1893063,0.58790416,0.34235263,0.54167885
0.162,0.092139795,1.256851,-2.1081636,0.59032154,0.30738437,0.5400328
0.164,0.10542664,1.2808782,-2.0178618,0.5904958,0.26838946,0.53783315
0.166,0.1384555,1.2924159,-1.9198152,0.5880504,0.22601083,0.5353941
0.168,0.1907037,1.292076,-1.816095,0.58274776,0.18101269,0.5330274
0.17,0.26145086,1.2804871,-1.7086332,0.5745189,0.13428715,0.5309837
0.172,0.34952217,1.258671,-1.5994619,0.5634751,0.0868192,0.5294706
0.174,0.4531919,1.2281189,-1.4901049,0.5498477,0.039604455,0.528608
0.176,0.5705676,1.1901991,-1.3821511,0.5339829,-0.0064187646,0.52845806
0.178,0.6993667,1.1467581,-1.2770449,0.5162356,-0.050521612,0.52904123
0.18,0.83733666,1.0996346,-1.1761733,0.49691814,-0.09227219,0.5303369
0.182,0.9821708,1.0507352,-1.0811071,0.47620514,-0.13163033,0.53229207
0.184,1.1312239,1.0020585,-0.9937919,0.4541296,-0.16894352,0.5348097
0.186,1.2824374,0.9551157,-0.91604614,0.4305656,-0.20488818,0.53773993
0.188,1.4335425,0.9113778,-0.848948,0.40528554,-0.2403628,0.54092586
0.19,1.5825531,0.87198615,-0.79281557,0.37801957,-0.27634233,0.54418564
0.192,1.7272794,0.83842385,-0.7476637,0.34851158,-0.31375754,0.547301
0.194,1.8656683,0.8118075,-0.7136998,0.3165787,-0.35338038,0.5500272
0.196,1.9960775,0.7930863,-0.6910483,0.28217822,-0.39574486,0.5520941
0.198,2.1168883,0.78318,-0.6791459,0.2454054,-0.44115484,0.5532476
0.2,2.2264104,0.78244704,-0.67748094,0.20642057,-0.4897377,0.55322635
0.202,2.3233337,0.790508,-0.68565696,0.16541795,-0.54148525,0.5517849
0.204,2.4055243,0.8081574,-0.7018682,0.12258091,-0.5962689,0.5486919
0.206,2.4692314,0.83613014,-0.72372,0.078078024,-0.653873,0.54373926
0.208,2.5166824,0.8717079,-0.7501084,0.032075323,-0.7140136,0.5367489
0.21,2.546445,0.9145864,-0.7809924,-0.015282199,-0.7763603,0.5275493
0.212,2.5588274,0.96380347,-0.8144815,-0.06390111,-0.84062314,0.51602757
0.214,2.5541902,1.0191159,-0.8492978,-0.11367783,-0.9065236,0.50209874
0.216,2.5316463,1.0809131,-0.88458014,-0.16450328,-0.9738543,0.48575878
0.218,2.4904618,1.1493875,-0.9202815,-0.21621855,-1.042488,0.46712267
0.22,2.430162,1.2243638,-0.9550233,-0.26861358,-1.1123832,0.44638178
0.222,2.3504605,1.3047218,-0.9863217,-0.32141736,-1.1835515,0.42372262
0.224,2.251835,1.3890898,-1.0116045,-0.37426397,-1.2560289,0.39932337
0.226,2.134824,1.4758384,-1.0291054,-0.42666882,-1.3298275,0.3733641
0.228,1.9999902,1.5635054,-1.0387243,-0.4780758,-1.4048438,0.34595177
0.23,1.8485762,1.6509576,-1.0410869,-0.5279095,-1.4809444,0.31703785
0.232,1.6821183,1.7373564,-1.0365345,-0.57540315,-1.5578433,0.28671134
0.234,1.5027902,1.8219107,-1.0243169,-0.61971945,-1.6349949,0.25514108
0.236,1.3128011,1.90378,-1.0034338,-0.6600497,-1.7114711,0.22232485
0.238,1.114648,1.9819386,-0.973379,-0.69561815,-1.7858074,0.18828332
0.24,0.9106327,2.0555074,-0.9341512,-0.72562337,-1.8563187,0.15325886
0.242,0.7035378,2.123436,-0.88681006,-0.74926513,-1.9211292,0.11761862
0.244,0.4960841,2.1847405,-0.83290267,-0.7657734,-1.9781729,0.08176935
0.246,0.29083484,2.2385714,-0.77391976,-0.7745205,-2.0254989,0.046150804
0.248,0.090429306,2.28435,-0.7115025,-0.77510285,-2.0614738,0.011209071
0.25,-0.10308856,2.321641,-0.6470512,-0.76731455,-2.0848498,-0.022500634
0.252,-0.28764772,2.3501189,-0.5811942,-0.7511489,-2.0949543,-0.054314137
0.254,-0.4613406,2.3698347,-0.5152626,-0.7267523,-2.091744,-0.08351672
0.256,-0.6224708,2.380803,-0.45039788,-0.69449866,-2.0757813,-0.109384775
0.258,-0.7698134,2.3829541,-0.38753903,-0.65497804,-2.0482755,-0.13124168
0.26,-0.9028398,2.3762794,-0.32745206,-0.60910577,-2.0110772,-0.1485681
0.262,-1.0215632,2.3612812,-0.27032125,-0.5582049,-1.9665848,-0.16112143
0.264,-1.1263992,2.3390698,-0.2162258,-0.5039837,-1.9175446,-0.16905007
0.266,-1.2184399,2.3108287,-0.16507918,-0.44841862,-1.8668072,-0.17294946
0.268,-1.2986467,2.2778544,-0.11618328,-0.39364898,-1.8171874,-0.17379165
0.27,-1.3681953,2.2411115,-0.068926156,-0.34171897,-1.7711637,-0.17278251
0.272,-1.4286965,2.2017798,-0.023344055,-0.29433143,-1.730561,-0.17120436
0.274,-1.4810688,2.1606092,0.020455912,-0.2526253,-1.6963296,-0.17018327
0.276,-1.526043,2.1181812,0.06314348,-0.21701664,-1.6683601,-0.17044008
0.278,-1.5647773,2.0751545,0.10520194,-0.18713963,-1.6455033,-0.17227215
0.28,-1.5990031,2.032915,0.14597803,-0.16191441,-1.6256793,-0.17557183
0.282,-1.6292697,1.9921352,0.18501201,-0.13968581,-1.6061385,-0.17984718
0.284,-1.6560012,1.9533811,0.2218686,-0.11851871,-1.5837584,-0.18438274
0.286,-1.6795363,1.9171963,0.25588164,-0.096631765,-1.5555573,-0.18862781
0.288,-1.7000086,1.8836641,0.2864311,-0.072517514,-1.5190916,-0.19216287
0.29,-1.7170615,1.8527119,0.31275523,-0.045102894,-1.4727846,-0.19460166
0.292,-1.7302191,1.8244345,0.33405164,-0.013951182,-1.4162323,-0.19587108
0.294,-1.7385728,1.7986723,0.34984833,0.020709455,-1.3499362,-0.19624853
0.296,-1.7416743,1.7757043,0.3594804,0.05811131,-1.2753729,-0.1961512
0.298,-1.7384948,1.7554989,0.36206388,0.097124934,-1.1949128,-0.19591898
0.3,-1.7283654,1.7380002,0.357279,0.13652155,-1.1113544,-0.1957615
0.302,-1.710467,1.7226948,0.3451488,0.17510942,-1.0277219,-0.19575879
0.304,-1.6843745,1.7096815,0.32616353,0.21178326,-0.947026,-0.19594447
0.306,-1.6499949,1.698849,0.3015238,0.24558592,-0.87190115,-0.19624059
0.308,-1.6073381,1.6897656,0.27219528,0.2757411,-0.80437124,-0.19649939
0.31,-1.5558563,1.6821071,0.23962446,0.30172357,-0.74579155,-0.19664785
0.312,-1.4960216,1.676011,0.20566027,0.3232704,-0.69668555,-0.1966635
0.314,-1.4275029,1.6704456,0.17080896,0.34044373,-0.65662706,-0.19660836
0.316,-1.3490562,1.6646266,0.13567027,0.35357726,-0.6244184,-0.19665673
0.318,-1.2648448,1.6604801,0.10251316,0.363188,-0.59832704,-0.19701476
0.32,-1.174564,1.6571554,0.07448722,0.36988598,-0.57629794,-0.19789514
0.322,-1.0797925,1.6543841,0.052514397,0.3743065,-0.55617356,-0.19951414
0.324,-0.98130125,1.651412,0.038307637,0.37701586,-0.53591603,-0.20208527
0.326,-0.8789987,1.6471074,0.033622496,0.37844318,-0.5138605,-0.20576622
0.328,-0.7728522,1.6408571,0.039833173,0.37886438,-0.48881397,-0.21062161
0.33,-0.66333246,1.6329172,0.056912944,0.3783434,-0.46016523,-0.2166087
0.332,-0.55155885,1.6242561,0.0838207,0.37672213,-0.42789206,-0.22350575
0.334,-0.43892938,1.6160142,0.11924563,0.37366667,-0.39255494,-0.2309865
0.336,-0.326783,1.6095654,0.1626131,0.3687046,-0.35521236,-0.238659
0.338,-0.21668077,1.6060779,0.21396708,0.36126533,-0.3172473,-0.24610563
0.34,-0.11054963,1.6062291,0.27381754,0.3507188,-0.28030595,-0.25288656
0.342,-0.009697139,1.6103508,0.34245884,0.3364464,-0.246182,-0.25859764
0.344,0.08376253,1.6188253,0.41918197,0.31789294,-0.21659905,-0.2629667
0.346,0.16803354,1.6321614,0.5029216,0.29463166,-0.19305255,-0.26590264
0.348,0.2419619,1.6508689,0.5932782,0.2664244,-0.17666553,-0.26748887
0.35,0.3038835,1.6757218,0.68972003,0.23326863,-0.16812444,-0.26794425
0.352,0.35272342,1.7072666,0.7914499,0.19543883,-0.16758122,-0.26762995
0.354,0.38804382,1.7458367,0.8974769,0.15352726,-0.17459959,-0.26705295
0.356,0.40912455,1.7916093,1.0065656,0.108409435,-0.18813433,-0.266786
0.358,0.41566908,1.8443788,1.1179442,0.06120321,-0.20664339,-0.26734087
0.36,0.4079535,1.9033875,1.2308817,0.013269335,-0.22827615,-0.26915842
0.362,0.3860438,1.9680601,1.3439279,-0.033925503,-0.25100142,-0.27249303
0.364,0.35052633,2.0371273,1.4561716,-0.07892811,-0.27269804,-0.2773432
0.366,0.30207133,2.109354,1.5666816,-0.12035392,-0.29131347,-0.28356034
0.368,0.24219465,2.1836495,1.6748506,-0.15698026,-0.3050174,-0.29085234
0.37,0.17227995,2.2588959,1.7794075,-0.18781316,-0.3122134,-0.298825
0.372,0.094234586,2.3338828,1.8786858,-0.21213967,-0.3115741,-0.3070875
0.374,0.010339141,2.406839,1.9718595,-0.2295624,-0.30207774,-0.3152963
0.376,-0.076865196,2.476129,2.0577288,-0.24001406,-0.28301507,-0.32315922
0.378,-0.16575992,2.540544,2.1345615,-0.24372026,-0.25403717,-0.33045763
0.38,-0.2542708,2.599284,2.2007957,-0.24113554,-0.21514943,-0.3370235
0.382,-0.34047413,2.6514914,2.2558193,-0.23289847,-0.16669093,-0.34273815
0.384,-0.4228344,2.696969,2.299109,-0.21974063,-0.109344244,-0.34752023
0.386,-0.5001497,2.7356105,2.32977,-0.20245478,-0.04407975,-0.3513185
0.388,-0.5707314,2.766911,2.347074,-0.18190525,0.027883872,-0.35412008
0.39,-0.63320255,2.7904696,2.3508453,-0.15898228,0.10515253,-0.35591817
0.392,-0.6871021,2.8065147,2.3402958,-0.13450839,0.1862358,-0.35673213
0.394,-0.73215914,2.8155494,2.3144796,-0.10921128,0.26962876,-0.35662824
0.396,-0.7682059,2.8180687,2.272908,-0.08374354,0.35379738,-0.35573304
0.398,-0.7951405,2.8146048,2.215377,-0.05867993,0.4372564,-0.35418293
0.4,-0.813292,2.8056655,2.1421134,-0.034518227,0.51866347,-0.3520955
0.402,-0.8229028,2.7915893,2.0537248,-0.011685714,0.5967382,-0.34962618
0.404,-0.82504654,2.7732015,1.9512135,0.009489924,0.6703936,-0.3469557
0.406,-0.8208442,2.7510996,1.835627,0.028784275,0.7387683,-0.34426692
0.408,-0.8110845,2.7260218,1.7078202,0.04606852,0.801213,-0.34168506
0.41,-0.796337,2.6984339,1.56833,0.061336488,0.8573459,-0.33928132
0.412,-0.7775228,2.6686306,1.4183555,0.0747475,0.9070543,-0.33708853
0.414,-0.75545204,2.6368833,1.2597165,0.08657086,0.9504933,-0.335063
0.416,-0.7308825,2.6036565,1.0941427,0.09721029,0.9880847,-0.33310533
0.418,-0.7047388,2.5695505,0.9236212,0.107147485,1.0204576,-0.3311079
0.42,-0.6780842,2.5352252,0.75039685,0.11688137,1.048302,-0.32891217
0.422,-0.6517229,2.5012176,0.576639,0.12689686,1.0723076,-0.32634127
0.424,-0.6264401,2.467872,0.40483022,0.13765734,1.093078,-0.32321316
0.426,-0.6030842,2.4355273,0.23717773,0.14952299,1.1110594,-0.31936395
0.428,-0.58249295,2.4045167,0.075740576,0.16273642,1.1265051,-0.3146628
0.43,-0.56535137,2.3750947,-0.07773891,0.17741686,1.139493,-0.3090086
0.432,-0.5517579,2.3471527,-0.22133088,0.19355655,1.1500022,-0.30233067
0.434,-0.54229367,2.3208094,-0.35337386,0.21104771,1.1579157,-0.29461145
0.436,-0.53730255,2.2960978,-0.4724568,0.2297129,1.1630564,-0.28584078
0.438,-0.5368103,2.273035,-0.5771133,0.24933448,1.1653022,-0.2760104
0.44,-0.54019195,2.2509096,-0.6666466,0.2696813,1.1646209,-0.2651048
0.442,-0.5474983,2.229777,-0.74221677,0.29055992,1.1610821,-0.2530893
0.444,-0.5588749,2.2092774,-0.8029261,0.31181398,1.1548265,-0.23997328
0.446,-0.57458234,2.188909,-0.8480472,0.33331853,1.1460594,-0.22579533
0.448,-0.59381056,2.1683092,-0.8774679,0.354972,1.1351106,-0.21063673
0.45,-0.6155478,2.1470854,-0.8923962,0.37671155,1.1223798,-0.1945838
0.452,-0.6393654,2.125299,-0.89480793,0.39851785,1.1082611,-0.17776197
0.454,-0.6640245,2.10245,-0.88660693,0.42038947,1.0931438,-0.1603761
0.456,-0.68827254,2.0777607,-0.8696821,0.44231665,1.0774405,-0.14263704
0.458,-0.7111838,2.0506036,-0.84607244,0.46427923,1.0615181,-0.12478131
0.46,-0.73102486,2.0202203,-0.8173934,0.48625213,1.0456512,-0.10705981
0.462,-0.74679863,1.9863329,-0.7851974,0.5081737,1.0300546,-0.089737475
0.464,-0.75787807,1.9493041,-0.7509778,0.5299425,1.0148163,-0.073109955
0.466,-0.7629798,1.9091642,-0.7157275,0.5513767,0.9998959,-0.05747971
0.468,-0.76080525,1.8659048,-0.6819277,0.57223815,0.9850806,-0.04307002
0.47,-0.75007856,1.8197256,-0.65193665,0.592219,0.96990407,-0.02998197
0.472,-0.7300971,1.7709768,-0.62683845,0.61099935,0.95377034,-0.018203259
0.474,-0.7003399,1.7201983,-0.6076124,0.6282041,0.936033,-0.007733941
0.476,-0.6601863,1.6677092,-0.5943654,0.6433979,0.9160002,0.0014282763
0.478,-0.60922104,1.6142486,-0.5882392,0.65613043,0.89299536,0.009369731
0.48,-0.546532,1.5603614,-0.59004426,0.6659647,0.8663917,0.016227067
0.482,-0.47222617,1.506427,-0.6001276,0.6724765,0.8356738,0.022110403
0.484,-0.38677847,1.4534317,-0.6185576,0.6752519,0.8004724,0.027070075
0.486,-0.29113168,1.4025576,-0.6441647,0.67390627,0.7605542,0.031124562
0.488,-0.18647268,1.3552006,-0.67495525,0.66807246,0.715829,0.03428316
0.49,-0.07425138,1.3126807,-0.7084312,0.65748,0.66637313,0.036522746
0.492,0.043957412,1.2764955,-0.74231005,0.6420024,0.6123694,0.0378471
0.494,0.16623026,1.2478352,-0.77509034,0.6216749,0.55409634,0.03832528
0.496,0.29064474,1.2281917,-0.8057287,0.59673315,0.49198374,0.038100585
0.498,0.41599232,1.2183892,-0.8334349,0.5675664,0.42661247,0.03736736
0.5,0.5427243,1.2182028,-0.85889554,0.5346866,0.35874355,0.03638941
0.502,0.6684293,1.228863,-0.8816329,0.49872372,0.2893904,0.035410583
0.504,0.7914163,1.2505481,-0.8960388,0.46046704,0.21982935,0.034664854
0.506,0.91100436,1.2825801,-0.8975358,0.42084825,0.15154007,0.034429044
0.508,1.0257359,1.3253249,-0.8866726,0.38088855,0.08616768,0.0348773
0.51,1.1364176,1.3777905,-0.86623555,0.3416928,0.025416225,0.036055088
0.512,1.2435637,1.4385114,-0.84323025,0.30443352,-0.029082105,0.037915602
0.514,1.3442394,1.5077083,-0.8209471,0.27031153,-0.07580376,0.040312603
0.516,1.4424495,1.5812148,-0.7850269,0.24055594,-0.11344363,0.04302328
0.518,1.5386684,1.6565452,-0.72873247,0.21634105,-0.1409731,0.045751307
0.52,1.6323358,1.7329435,-0.65602565,0.19868764,-0.15771793,0.048128113
0.522,1.7225904,1.8097078,-0.5727107,0.18835482,-0.16343878,0.04968959
0.524,1.8082185,1.8855218,-0.4843449,0.18570851,-0.1583999,0.04996188
0.526,1.8874296,1.9600275,-0.3971488,0.19057383,-0.14350292,0.048509337
0.528,1.9669131,2.0286791,-0.30530828,0.20220818,-0.12023491,0.0450791
0.53,2.0482187,2.088538,-0.19533974,0.21932973,-0.09059542,0.03958241
0.532,2.1291413,2.1403983,-0.06569886,0.2401394,-0.057023935,0.03197397
0.534,2.2064679,2.1859617,0.07720274,0.26243472,-0.022034675,0.022275738
0.536,2.277772,2.2258017,0.22879136,0.28389412,0.01231426,0.010759965
0.538,2.3411992,2.2600229,0.38751948,0.3023877,0.044504523,-0.0020782948
0.54,2.3947043,2.2888243,0.555658,0.31615132,0.07343952,-0.015657201
0.542,2.436469,2.3132432,0.73707026,0.32401252,0.09865888,-0.029486045
0.544,2.464916,2.334967,0.9340747,0.32533556,0.12025787,-0.043259166
0.546,2.4784207,2.356164,1.1452672,0.31947535,0.13888116,-0.056659892
0.548,2.4750185,2.3786879,1.366378,0.30611804,0.15622658,-0.06955971
0.55,2.4531512,2.4044025,1.592943,0.28550047,0.17420304,-0.082218
0.552,2.4125295,2.4342778,1.8223919,0.258451,0.19426072,-0.09502361
0.554,2.3536916,2.4693658,2.050901,0.2262296,0.21729481,-0.108280085
0.556,2.2775555,2.5105953,2.2750158,0.19031958,0.24367839,-0.12210525
0.558,2.1850488,2.5583684,2.4917583,0.15210141,0.2736274,-0.1363466
0.56,2.0774186,2.613017,2.697701,0.11277129,0.3077191,-0.15082309
0.562,1.9562018,2.674674,2.88896,0.073676005,0.34668517,-0.16584712
0.564,1.8232446,2.7433293,3.0610235,0.036439985,0.3906747,-0.1819085
0.566,1.6817478,2.8186219,3.2089424,0.0028508157,0.43928596,-0.1990892
0.568,1.5349859,2.8994017,3.3278031,-0.025314778,0.49186492,-0.21709524
0.57,1.3860801,2.984014,3.412683,-0.04664354,0.5475674,-0.23551658
0.572,1.2381018,3.0708137,3.4601972,-0.060273707,0.60530615,-0.2540108
0.574,1.094002,3.157686,3.4682884,-0.06586239,0.66387063,-0.27247378
0.576,0.9564251,3.2428026,3.4360495,-0.06352952,0.72195154,-0.29102573
0.578,0.8272557,3.3245084,3.3643904,-0.053805113,0.77813715,-0.3099286
0.58,0.7076776,3.4016345,3.2544012,-0.037647903,0.8309777,-0.32945728
0.582,0.5987959,3.4729419,3.1076903,-0.016363978,0.87910986,-0.34997666
0.584,0.5008931,3.537719,2.9270914,0.008518785,0.9214176,-0.37192822
0.586,0.41352618,3.5955877,2.7158668,0.035457134,0.95708334,-0.3956768
0.588,0.33571482,3.6459646,2.4786487,0.0630714,0.98548114,-0.4214062
0.59,0.26601386,3.688603,2.2208667,0.09022722,1.0060776,-0.44922245
0.592,0.20335603,3.7235322,1.9476945,0.11603412,1.018711,-0.47908646
0.594,0.14657319,3.7508092,1.6638573,0.13992295,1.0237353,-0.5107491
0.596,0.09455109,3.770617,1.373882,0.16160986,1.0216091,-0.5437507
0.598,0.04657817,3.7831635,1.0820975,0.18106557,1.012835,-0.5775147
0.6,0.0015456676,3.788806,0.7929046,0.19870111,0.99786043,-0.6116514
0.602,-0.041204333,3.7877798,0.5108232,0.21469155,0.9766995,-0.6457665
0.604,-0.082262635,3.7805405,0.24030215,0.2288439,0.9497733,-0.67943424
0.606,-0.12165511,3.7674012,-0.014507592,0.24084766,0.9181279,-0.71252584
0.608,-0.15937853,3.7488904,-0.25013065,0.2505542,0.88298655,-0.7452386
0.61,-0.19606304,3.725805,-0.46300495,0.25818267,0.845484,-0.77789295
0.612,-0.229128,3.6973069,-0.65198326,0.26435196,0.8064365,-0.8108529
0.614,-0.25683165,3.663453,-0.82049716,0.26989418,0.7662513,-0.8442602
0.616,-0.27808106,3.62459,-0.9698967,0.27545416,0.7254015,-0.8777532
0.618,-0.2906536,3.579895,-1.097177,0.2813842,0.6848495,-0.91115534
0.62,-0.29442084,3.529727,-1.19944,0.2878697,0.64543796,-0.94480884
0.622,-0.28819513,3.474133,-1.2728179,0.29499242,0.60736835,-0.97909075
0.624,-0.26731145,3.4114704,-1.3196864,0.30277967,0.5703151,-1.0140713
0.626,-0.23447299,3.344449,-1.3563693,0.3111288,0.5337101,-1.0494915
0.628,-0.18821204,3.2730968,-1.3863013,0.3196615,0.4968827,-1.0848649
0.63,-0.12683439,3.196374,-1.4028003,0.32776856,0.45935753,-1.1196961
0.632,-0.04881966,3.1138957,-1.4009712,0.33479548,0.42101946,-1.1536146
0.634,0.04640621,3.0262494,-1.3793601,0.3402531,0.3821203,-1.1863645
0.636,0.15857458,2.933496,-1.3381984,0.34390113,0.34316292,-1.2176567
0.638,0.2802773,2.839793,-1.288099,0.34574196,0.30477306,-1.24712
0.64,0.41016865,2.7468495,-1.2417909,0.34593695,0.26767483,-1.2743484
0.642,0.5499835,2.6532893,-1.1965106,0.34477574,0.23260415,-1.2989392
0.644,0.7005264,2.5583296,-1.1441708,0.34256327,0.20022342,-1.3204682
0.646,0.86040986,2.463432,-1.0817002,0.3396153,0.1711218,-1.3385254
0.648,1.0273731,2.3705645,-1.0109636,0.33622336,0.14583,-1.3527715
0.65,1.1989348,2.2814145,-0.9372773,0.33264256,0.12486264,-1.3629953
0.652,1.372324,2.1970117,-0.86571306,0.32912314,0.10860948,-1.3691436
0.654,1.5450463,2.117877,-0.7985109,0.32589257,0.0973399,-1.3713061
0.656,1.7150028,2.044506,-0.7341156,0.3231483,0.091205746,-1.3697182
0.658,1.8803333,1.9775803,-0.66955155,0.32099792,0.09024851,-1.3647199
0.66,2.039266,1.917746,-0.60323364,0.31943607,0.09438127,-1.3567232
0.662,2.1899855,1.8654344,-0.5359456,0.31835985,0.1034078,-1.3462547
0.664,2.3309898,1.8207042,-0.4696436,0.31759548,0.11703271,-1.3338987
0.666,2.460745,1.7835324,-0.40637898,0.31695455,0.13485664,-1.320247
0.668,2.5781987,1.7536494,-0.3476926,0.3162408,0.1563034,-1.3058461
0.67,2.6831152,1.7306564,-0.29414666,0.315238,0.18057075,-1.2911782
0.672,2.7756782,1.7141589,-0.24576831,0.3137366,0.20668389,-1.2767024
0.674,2.8565087,1.7031348,-0.2012161,0.31154156,0.23353174,-1.2628535
0.676,2.9252362,1.6974194,-0.16055048,0.3084705,0.25990963,-1.2500623
0.678,2.981659,1.6968181,-0.1230818,0.3043699,0.28455758,-1.2387298
0.68,3.0263858,1.7010401,-0.08815086,0.29910377,0.30619642,-1.2291901
0.682,3.0602112,1.7094474,-0.055895567,0.29254252,0.32363668,-1.2216989
0.684,3.0836172,1.721562,-0.026729465,0.2845872,0.33588228,-1.2164164
0.686,3.09754,1.737142,-0.00119555,0.27518997,0.3422369,-1.2134004
0.688,3.1028118,1.7560748,0.020774484,0.26435918,0.34238267,-1.2125915
0.69,3.1006641,1.7780073,0.03967178,0.25217864,0.33640578,-1.2138332
0.692,3.0919898,1.8028944,0.0555017,0.23882248,0.32477766,-1.2168639
0.694,3.0778632,1.8304749,0.06832147,0.22454877,0.30831298,-1.2213304
0.696,3.059048,1.8607985,0.07806289,0.20966354,0.28802678,-1.2268095
0.698,3.035935,1.8940088,0.08502817,0.19451746,0.26506346,-1.2328418
0.7,3.0089293,1.9304909,0.08973873,0.17945722,0.24054995,-1.2389612
0.702,2.9777722,1.970608,0.09260917,0.16479197,0.21548568,-1.2447542
0.704,2.9425654,2.0147452,0.09381032,0.15086058,0.19095246,-1.2497716
0.706,2.903001,2.0631945,0.09343922,0.13792689,0.16778897,-1.2536076
0.708,2.8585281,2.116161,0.09123683,0.12618692,0.14653693,-1.2559533
0.71,2.808465,2.1739676,0.08693385,0.11581905,0.12762119,-1.2565709
0.712,2.752218,2.2369568,0.08001387,0.10694629,0.111256406,-1.2553396
0.714,2.6888287,2.3052437,0.070705056,0.09962934,0.09745772,-1.2522415
0.716,2.6174383,2.3785276,0.059560776,0.09392357,0.08608724,-1.2473347
0.718,2.5370545,2.4566925,0.04694152,0.08984262,0.0768812,-1.2408044
0.72,2.446701,2.539402,0.03316784,0.087347895,0.069460556,-1.2329706
0.722,2.3454382,2.6260858,0.018746734,0.08635235,0.06339724,-1.2242608
0.724,2.2326946,2.7160664,0.004156351,0.086729124,0.058270723,-1.2151798
0.726,2.108123,2.808471,-0.009971619,0.088298604,0.05367492,-1.20622
0.728,1.9715881,2.9021087,-0.022929907,0.09085286,0.04923065,-1.1978697
0.73,1.8233628,2.9955802,-0.033646345,0.09414008,0.044611797,-1.1905923
0.732,1.6639123,3.087522,-0.040930152,0.097913906,0.039575085,-1.1848218
0.734,1.4941051,3.176224,-0.04344344,0.101943985,0.0339323,-1.1809802
0.736,1.3150334,3.2600536,-0.040014505,0.106034786,0.027556777,-1.1794633
0.738,1.1279333,3.3374543,-0.0296309,0.11004734,0.020374507,-1.1806426
0.74,0.9343929,3.4068217,-0.011364579,0.11387995,0.012329757,-1.1848685
0.742,0.7360617,3.4666543,0.015740633,0.11748713,0.0033847094,-1.1924533
0.744,0.5351839,3.515616,0.05278176,0.12086512,-0.0064319074,-1.203644
0.746,0.33407724,3.5527525,0.1005553,0.124026254,-0.017026722,-1.2185922
0.748,0.13506281,3.5771203,0.15931284,0.1270353,-0.028252393,-1.2373505
0.75,-0.058847427,3.5878794,0.22906095,0.13000806,-0.039887786,-1.2598703
0.752,-0.2450757,3.5843732,0.3091448,0.13306792,-0.051707357,-1.2859619
0.754,-0.42128146,3.566627,0.39924645,0.13638791,-0.06344816,-1.3153064
0.756,-0.5849072,3.5345037,0.49836487,0.14015117,-0.07485628,-1.3474604
0.758,-0.73395777,3.488555,0.6057257,0.1444798,-0.08588573,-1.3819746
0.76,-0.86628497,3.4296017,0.72041714,0.14954337,-0.0963991,-1.4183311
0.762,-0.98017025,3.3586612,0.84120905,0.15550363,-0.10624632,-1.455951
0.764,-1.0738355,3.2767804,0.9664438,0.16243008,-0.115431756,-1.4942716
0.766,-1.1459236,3.1852446,1.0942994,0.17037064,-0.12397286,-1.5327252
0.768,-1.1955111,3.085649,1.2224325,0.17935053,-0.13185966,-1.570731
0.77,-1.2221142,2.9795618,1.3484604,0.1893324,-0.13909212,-1.6077031
0.772,-1.2254666,2.868754,1.4703312,0.20027542,-0.14564982,-1.6430521
0.774,-1.2058077,2.7550268,1.5861841,0.2121194,-0.15144947,-1.6762164
0.776,-1.163454,2.6399384,1.694217,0.22479168,-0.15636885,-1.7066907
0.778,-1.0994816,2.525305,1.7928492,0.23817489,-0.1602203,-1.7340726
0.78,-1.0153997,2.412704,1.8806449,0.25213227,-0.16279984,-1.7581017
0.782,-0.91280425,2.3033404,1.9565029,0.26647317,-0.1638631,-1.7786334
0.784,-0.79375243,2.1991873,2.0186515,0.28099087,-0.16316286,-1.7956319
0.786,-0.6602943,2.1010203,2.0672894,0.29547083,-0.16049603,-1.8091474
0.788,-0.51424897,2.0099277,2.1016612,0.30967999,-0.15573063,-1.8192751
0.79,-0.35802436,1.9267857,2.1215234,0.32339978,-0.14883319,-1.8261818
0.792,-0.19388533,1.8521137,2.1269784,0.33642027,-0.13989517,-1.8300703
0.794,-0.023933887,1.7862444,2.1184173,0.34857017,-0.12912071,-1.8311616
0.796,0.14951456,1.729255,2.0964022,0.3597436,-0.116808,-1.8296969
0.798,0.32433486,1.6811701,2.0620346,0.36986178,-0.10337862,-1.8259623
0.8,0.49834436,1.6419276,2.016642,0.37890583,-0.08931753,-1.8202555
0.802,0.669688,1.6111951,1.961884,0.3868692,-0.07512215,-1.8128996
0.804,0.836367,1.5888182,1.8995566,0.39376473,-0.061267585,-1.8042165
0.806,0.99671674,1.5743145,1.8314121,0.3996398,-0.04816073,-1.7945527
0.808,1.1494771,1.5671101,1.7593265,0.40452197,-0.036149293,-1.7842549
0.81,1.2933259,1.5665674,1.6848874,0.4084587,-0.02545929,-1.7736304
0.812,1.4275584,1.5718758,1.6095915,0.41149932,-0.016195029,-1.7629547
0.814,1.5513173,1.5821525,1.5349709,0.4137124,-0.008295,-1.752459
0.816,1.6640962,1.5965292,1.4623559,0.41517428,-0.0015400052,-1.742322
0.818,1.765348,1.6142943,1.3932269,0.4159998,0.004440993,-1.7326467
0.82,1.8546811,1.6345644,1.3289056,0.41633567,0.010114104,-1.7234751
0.822,1.9315436,1.6567051,1.2706057,0.41633543,0.015996933,-1.714808
0.824,1.9959414,1.6802098,1.2189598,0.41617057,0.022632778,-1.7065771
0.826,2.0477054,1.7046745,1.1736717,0.41600686,0.030512959,-1.6986488
0.828,2.087035,1.7296126,1.1349978,0.41602677,0.04004976,-1.690833
0.83,2.1140583,1.754714,1.1029701,0.41638422,0.0515448,-1.6829184
0.832,2.129123,1.7794954,1.077036,0.41721666,0.06517589,-1.674688
0.834,2.1325102,1.8037497,1.0564741,0.41862595,0.08099526,-1.6659669
0.836,2.1245377,1.8273795,1.0408529,0.42069262,0.098925054,-1.6566477
0.838,2.1055808,1.8502936,1.0293385,0.42346174,0.1187938,-1.646688
0.84,2.0763917,1.8724383,1.0211034,0.42693093,0.14033441,-1.6361258
0.842,2.037767,1.8937393,1.0152513,0.4310788,0.16319276,-1.6251081
0.844,1.990342,1.9143808,1.0106676,0.43584335,0.18692699,-1.6138399
0.846,1.9351614,1.9343351,1.006722,0.44114748,0.21107107,-1.602585
0.848,1.8733119,1.9536092,1.0027766,0.4469063,0.235155,-1.5916528
0.85,1.8058674,1.9721863,0.9983077,0.4530086,0.2587169,-1.5813631
0.852,1.7341564,1.9899446,0.99272096,0.45935583,0.28135622,-1.5720239
0.854,1.6593524,2.0068223,0.98542917,0.4658493,0.30276102,-1.5639386
0.856,1.5828278,2.0227187,0.97613096,0.47241783,0.3227045,-1.5573646
0.858,1.5057983,2.0374084,0.96453977,0.4790321,0.3410566,-1.5524698
0.86,1.4294767,2.0505738,0.95075583,0.48568225,0.35778427,-1.5493402
0.862,1.3553632,2.0619807,0.9350874,0.4923757,0.37292886,-1.5480068
0.864,1.2845733,2.071194,0.9175856,0.49912313,0.3865534,-1.5484092
0.866,1.2181674,2.077961,0.89897764,0.50594646,0.3987549,-1.5504268
0.868,1.1570506,2.0818863,0.8797796,0.51286465,0.4096179,-1.5538737
0.87,1.1019135,2.0826144,0.8605968,0.5199083,0.4191881,-1.5585139
0.872,1.0532088,2.0798578,0.8419569,0.5270699,0.4274833,-1.5640755
0.874,1.0111948,2.0734448,0.8245242,0.53432554,0.43452704,-1.5702695
0.876,0.9760383,2.0632122,0.8088678,0.54163694,0.4403281,-1.5767908
0.878,0.94776523,2.0492187,0.795613,0.54897076,0.44492286,-1.583374
0.88,0.9260638,2.03153,0.7852069,0.556269,0.4483832,-1.5897744
0.882,0.91058,2.0102077,0.77777016,0.5634685,0.4508266,-1.595779
0.884,0.90052736,1.9856039,0.7735264,0.5705132,0.4524442,-1.6012082
0.886,0.89497226,1.9580745,0.7727455,0.5773653,0.45347732,-1.6059368
0.888,0.8929942,1.928104,0.77535427,0.58398056,0.45426118,-1.6098732
0.89,0.8934515,1.8963755,0.7811403,0.59032434,0.4551658,-1.6129832
0.892,0.8950243,1.8637507,0.78975886,0.59638095,0.45653152,-1.6152602
0.894,0.89667326,1.8309537,0.8005773,0.6021299,0.45866573,-1.6167285
0.896,0.8973594,1.7989961,0.8130247,0.6075726,0.46180147,-1.6174313
0.898,0.8958577,1.7684994,0.8265202,0.61271644,0.4660391,-1.6174389
0.9,0.891376,1.7402096,0.84040296,0.6175627,0.47130638,-1.6168356
0.902,0.8832422,1.7148314,0.8542416,0.6221131,0.47737223,-1.6157446
0.904,0.8706636,1.6929201,0.8674426,0.62638044,0.48386467,-1.6143028
0.906,0.8530078,1.6750865,0.87956494,0.6303938,0.49030265,-1.6126753
0.908,0.83000505,1.6617044,0.89008623,0.6341747,0.4961359,-1.6110278
0.91,0.8016683,1.6529098,0.89848065,0.6377603,0.50082886,-1.6095525
0.912,0.7681788,1.6488384,0.90435946,0.6411844,0.50393087,-1.6084683
0.914,0.72986543,1.6495043,0.90751064,0.6445236,0.5050692,-1.6079732
0.916,0.6875327,1.6548389,0.90772724,0.64788765,0.50402224,-1.6082164
0.918,0.64197886,1.6645255,0.90481424,0.65139914,0.5007507,-1.6093563
0.92,0.59428006,1.6779633,0.8987683,0.6551945,0.49535322,-1.6114949
0.922,0.5454236,1.6946756,0.8898529,0.65941745,0.48806316,-1.6146911
0.924,0.49661326,1.7140865,0.8783711,0.6641931,0.47922862,-1.6189829
0.926,0.4490927,1.7355285,0.8647823,0.66966397,0.4692492,-1.6243469
0.928,0.40436256,1.7581683,0.8494464,0.67593914,0.45852822,-1.6307437
0.93,0.36400354,1.7812856,0.8326465,0.6830953,0.44740653,-1.6381146
0.932,0.32923913,1.8041497,0.81476724,0.6911499,0.43612486,-1.6463664
0.934,0.30130845,1.8260638,0.7961001,0.70009434,0.42480555,-1.6553941
0.936,0.28115222,1.8465309,0.77732956,0.70987374,0.41344312,-1.6650743
0.938,0.26974592,1.8650696,0.75874215,0.7203827,0.4018997,-1.6752921
0.94,0.26806736,1.881274,0.74062854,0.73148525,0.38999137,-1.6859207
0.942,0.27659872,1.8949741,0.7232716,0.7430534,0.37747324,-1.6968253
0.944,0.29564443,1.9057714,0.70717263,0.7549507,0.36414313,-1.7078615
0.946,0.32512248,1.9135946,0.6921816,0.7670473,0.34988955,-1.7188954
0.948,0.36481768,1.9184333,0.67848825,0.77923936,0.33468932,-1.7297901
0.95,0.4143718,1.9204878,0.6662553,0.7914409,0.31865445,-1.7403904
0.952,0.47306645,1.919935,0.65540916,0.8036025,0.3020256,-1.7505293
0.954,0.5402612,1.9170672,0.6458452,0.81569713,0.28516048,-1.7600508
0.956,0.61496836,1.9123023,0.63720536,0.82772297,0.2685125,-1.7687851
0.958,0.69604874,1.9060109,0.6290657,0.83971846,0.252562,-1.7765878
0.96,0.7823287,1.8985631,0.6212351,0.85171086,0.23777848,-1.7833529
0.962,0.87250155,1.8904359,0.6133428,0.8637449,0.2245836,-1.789026
0.964,0.96510607,1.8819516,0.60503143,0.8758493,0.21330489,-1.7935824
0.966,1.0587547,1.8732939,0.5956868,0.8880375,0.20414813,-1.7970539
0.968,1.1523265,1.8649411,0.58485854,0.9003075,0.19720595,-1.7995285
0.97,1.2445267,1.8572701,0.571879,0.91266376,0.19246243,-1.8011438
0.972,1.3341601,1.8506106,0.55600834,0.92509496,0.18981843,-1.8020434
0.974,1.4205095,1.845136,0.5365312,0.9375964,0.18912603,-1.8023908
0.976,1.5026321,1.8409785,0.5127077,0.95015585,0.19017513,-1.8023231
0.978,1.580106,1.8381429,0.48395264,0.9627811,0.19270682,-1.8019407
0.98,1.6526291,1.8364683,0.44962692,0.9754782,0.19643968,-1.8013262
0.982,1.720156,1.8359685,0.4092031,0.98826987,0.20107776,-1.8005093
0.984,1.7826959,1.8365316,0.3623259,1.0011971,0.20633781,-1.799495
0.986,1.840252,1.8381015,0.30856368,1.0143136,0.21191022,-1.7982805
0.988,1.8933976,1.8404971,0.24767715,1.0276929,0.217525,-1.7968289
0.99,1.9427596,1.8434994,0.1794768,1.0414244,0.2229418,-1.7951126
0.992,1.9891653,1.8470733,0.10364956,1.0556142,0.22796206,-1.7931012
0.994,2.0335896,1.8509809,0.019863337,1.0703843,0.23241623,-1.7907848
0.996,2.0771337,1.8551064,-0.07207179,1.0858378,0.23618798,-1.7881577
0.998,2.1207118,1.8593849,-0.17216629,1.102089,0.23917231,-1.7852242
1,2.1653433,1.8636218,-0.28025442,1.1192236,0.24128583,-1.7819957
1.002,2.2123263,1.8677157,-0.39640957,1.1372892,0.24241456,-1.7784803
1.004,2.2626085,1.8717177,-0.5204072,1.15629,0.24240702,-1.7746791
1.006,2.3171182,1.8757292,-0.6522735,1.1761875,0.24106237,-1.7705936
1.008,2.3769684,1.8798437,-0.7918901,1.1968975,0.23813866,-1.7662138
1.01,2.4430833,1.8841231,-0.93909526,1.2183138,0.23336166,-1.7615039
1.012,2.515882,1.8887534,-1.0937434,1.2403196,0.22646731,-1.7564113
1.014,2.596234,1.8938551,-1.2555797,1.2628195,0.21722333,-1.7508421
1.016,2.6846776,1.899424,-1.424526,1.2857462,0.20547432,-1.7446959
1.018,2.7816064,1.9055227,-1.600455,1.3090689,0.19114481,-1.7378938
1.02,2.886919,1.9125457,-1.7831473,1.3328028,0.17427126,-1.7303473
1.022,3.0008652,1.9206816,-1.9724475,1.3569869,0.1550004,-1.721975
1.024,3.123413,1.9298285,-2.1683917,1.3816884,0.13355711,-1.712686
1.026,3.2541406,1.9403614,-2.370884,1.4070064,0.11021743,-1.7024398
1.028,3.3925517,1.9524707,-2.5798132,1.4330409,0.08530336,-1.6911975
1.03,3.538248,1.9664574,-2.7951643,1.4599024,0.05917963,-1.6789696
1.032,3.6906333,1.9823261,-3.0173266,1.4876846,0.032188606,-1.6657736
1.034,3.8491073,2.000279,-3.2465491,1.516463,0.004638225,-1.651624
1.036,4.0130196,2.0204134,-3.4833474,1.5462987,-0.02322355,-1.6365572
1.038,4.1816187,2.0429199,-3.7281063,1.5772201,-0.051255032,-1.6205989
1.04,4.354135,2.0679967,-3.9810436,1.6092192,-0.079413295,-1.6037583
1.042,4.5298786,2.0958042,-4.242573,1.6422589,-0.10779279,-1.586056
1.044,4.707879,2.126539,-4.5130067,1.6762658,-0.13662061,-1.5674744
1.046,4.8877406,2.160434,-4.79266,1.7111518,-0.16622216,-1.5479895
1.048,5.068577,2.1975455,-5.081967,1.7468064,-0.19702148,-1.5275333
1.05,5.2497897,2.2381365,-5.3807993,1.7831346,-0.2295064,-1.5060768
1.052,5.430348,2.2827451,-5.687944,1.8200601,-0.26418954,-1.4835982
1.054,5.6085496,2.332662,-6.0046926,1.857545,-0.30157298,-1.4600649
1.056,5.7845817,2.3884008,-6.3314905,1.8955809,-0.34215587,-1.4354508
1.058,5.9576755,2.4500513,-6.6685667,1.9341875,-0.3864426,-1.4097707
1.06,6.1277313,2.5171292,-7.015266,1.9734033,-0.43496627,-1.3830477
1.062,6.2952514,2.589416,-7.368906,2.0132787,-0.48829263,-1.3552978
1.064,6.4606705,2.6673188,-7.726433,2.0538502,-0.5470304,-1.3265604
1.066,6.620463,2.7533941,-8.084105,2.095124,-0.61186785,-1.296875
1.068,6.765837,2.8516052,-8.441055,2.137099,-0.683516,-1.2662909
1.07,6.903943,2.9578152,-8.792807,2.1797378,-0.7627237,-1.2348741
1.072,7.0413246,3.0691965,-9.142217,2.2229855,-0.8502508,-1.2026949
1.074,7.17437,3.189592,-9.48658,2.266764,-0.9468029,-1.1698728
1.076,7.297189,3.323612,-9.818132,2.3110096,-1.0529597,-1.1365759
1.078,7.409183,3.4732904,-10.134819,2.355659,-1.1691399,-1.1030093
1.08,7.5148463,3.636191,-10.431858,2.4006574,-1.2955658,-1.069389
1.082,7.6118097,3.8121905,-10.709856,2.4459894,-1.4321322,-1.0359566
1.084,7.698266,4.001354,-10.962842,2.4917119,-1.5783819,-1.0029544
1.086,7.77591,4.201598,-11.180727,2.5379727,-1.7336493,-0.9706478
1.088,7.847225,4.411007,-11.358127,2.5849905,-1.8969505,-0.9392974
1.09,7.9142447,4.6290784,-11.493505,2.632958,-2.067075,-0.90909034
1.092,7.9762607,4.8573804,-11.587704,2.682104,-2.24253,-0.88014174
1.094,8.033915,5.0958257,-11.639247,2.7327075,-2.421578,-0.85259104
1.096,8.090499,5.342371,-11.645922,2.7850664,-2.6023965,-0.8266548
1.098,8.1489525,5.5948305,-11.606882,2.839512,-2.7832506,-0.8026011
1.1,8.211205,5.851988,-11.520571,2.8965344,-2.9621832,-0.78048676
1.102,8.279771,6.111833,-11.384869,2.9565864,-3.1371613,-0.76021
1.104,8.358264,6.371803,-11.199468,3.019778,-3.3072965,-0.74174505
1.106,8.449959,6.628861,-10.967023,3.0861218,-3.471921,-0.72507375
1.108,8.558348,6.879662,-10.690044,3.155515,-3.630687,-0.7100637
1.11,8.685646,7.121546,-10.372492,3.227881,-3.7835007,-0.6963766
1.112,8.834576,7.3520336,-10.019984,3.303087,-3.930556,-0.68361384
1.114,9.006954,7.5689416,-9.637828,3.380939,-4.072869,-0.6714354
1.116,9.203894,7.7703705,-9.231256,3.4613276,-4.211371,-0.65950924
1.118,9.425856,7.9549704,-8.804934,3.5440605,-4.3469973,-0.6475007
1.12,9.672573,8.121855,-8.363448,3.6288884,-4.480988,-0.6350851
1.122,9.943001,8.2706585,-7.9120684,3.7155716,-4.61479,-0.62203383
1.124,10.234702,8.401795,-7.456825,3.8039005,-4.7495165,-0.6081143
1.126,10.544683,8.51603,-7.0035458,3.8936744,-4.885184,-0.5929887
1.128,10.868718,8.614652,-6.5582733,3.9847324,-5.0205693,-0.57621706
1.13,11.201904,8.699459,-6.126392,4.0770907,-5.152952,-0.55733246
1.132,11.538009,8.772968,-5.712682,4.1711054,-5.277777,-0.53588456
1.134,11.870514,8.838632,-5.321146,4.2674456,-5.388714,-0.5114564
1.136,12.192207,8.900005,-4.9551425,4.3669915,-5.4782543,-0.48372263
1.138,12.495463,8.961299,-4.6175632,4.4706354,-5.5385537,-0.45253015
1.14,12.772636,9.026747,-4.310855,4.5791936,-5.561987,-0.41789347
1.142,13.016265,9.100724,-4.0366287,4.693219,-5.5423017,-0.380005
1.144,13.218992,9.187679,-3.7963207,4.812899,-5.475331,-0.3393243
1.146,13.3742,9.291824,-3.5904307,4.9379354,-5.3594675,-0.29653907
1.148,13.476009,9.4172,-3.4188786,5.0674934,-5.1958823,-0.25244206
1.15,13.519536,9.567355,-3.2811792,5.2002974,-4.9883156,-0.20791847
1.152,13.501031,9.745334,-3.175777,5.3347735,-4.742693,-0.16399968
1.154,13.418105,9.953518,-3.1007497,5.469119,-4.466965,-0.121992946
1.156,13.269133,10.193664,-3.0535877,5.6016994,-4.170273,-0.08320427
1.158,13.054131,10.467061,-3.031457,5.731282,-3.8615513,-0.04865426
1.16,12.774228,10.774168,-3.0316436,5.8567376,-3.5502825,-0.01921928
1.162,12.432419,11.1146555,-3.0514705,5.977187,-3.2456946,0.004278362
1.164,12.032993,11.487097,-3.0856993,6.0919294,-2.9562473,0.02116394
1.166,11.579629,11.890251,-3.1299572,6.200572,-2.6891956,0.031094909
1.168,11.077891,12.322828,-3.1800392,6.303002,-2.4499574,0.034032583
1.17,10.533462,12.782962,-3.232551,6.3992505,-2.2428715,0.030097067
1.172,9.952417,13.268092,-3.2852037,6.4896245,-2.0706096,0.019545853
1.174,9.341497,13.77455,-3.3349771,6.5745554,-1.9339244,0.0027674437
1.176,8.710906,14.297038,-3.3789651,6.6545076,-1.8320136,-0.019759595
1.178,8.0735035,14.830031,-3.4112263,6.729959,-1.763056,-0.04757279
1.18,7.4267874,15.375196,-3.4298997,6.801404,-1.7247361,-0.08031535
1.182,6.772381,15.931016,-3.4268394,6.869325,-1.7142073,-0.11767888
1.184,6.122345,16.489567,-3.4009006,6.93404,-1.7283657,-0.15935665
1.186,5.4880104,17.044363,-3.3545883,6.995678,-1.7642342,-0.20505995
1.188,4.873431,17.59234,-3.2843451,7.0542874,-1.8191246,-0.25458246
1.19,4.278756,18.134655,-3.1898499,7.1098866,-1.890581,-0.30775183
1.192,3.711075,18.669,-3.0664072,7.1625085,-1.9763284,-0.3644523
1.194,3.1755219,19.192926,-2.9168754,7.21215,-2.074513,-0.4246995
1.196,2.6732693,19.705803,-2.7461996,7.258822,-2.1835709,-0.48858148
1.198,2.2053204,20.206148,-2.55344,7.3025036,-2.302214,-0.5562245
1.2,1.7737281,20.69093,-2.3351116,7.343143,-2.429472,-0.6277894
1.202,1.3826385,21.155964,-2.0878367,7.3806844,-2.564585,-0.7034694
1.204,1.0338103,21.599564,-1.8126593,7.4150906,-2.7069197,-0.7834374
1.206,0.72664475,22.022188,-1.5119972,7.446322,-2.8559136,-0.8678695
1.208,0.4609629,22.423832,-1.1874857,7.4743567,-3.0109477,-0.9568969
1.21,0.23755479,22.80377,-0.8418522,7.49916,-3.1713123,-1.050635
1.212,0.056186676,23.162003,-0.47803497,7.52072,-3.3362217,-1.149186
1.214,-0.084266186,23.498894,-0.09750557,7.5390406,-3.5047593,-1.2526233
1.216,-0.18464541,23.815178,0.30014515,7.5540886,-3.6759272,-1.3609695
1.218,-0.24608696,24.111486,0.71399593,7.565833,-3.8485932,-1.4742179
1.22,-0.26921713,24.387896,1.1434059,7.574213,-4.0215673,-1.5923101
1.222,-0.2558875,24.64442,1.5883417,7.579168,-4.193606,-1.7151326
1.224,-0.20756125,24.881046,2.047368,7.5806293,-4.3634458,-1.8425177
1.226,-0.1255846,25.097813,2.518567,7.578518,-4.529872,-1.9742908
1.228,-0.011877537,25.294947,2.9993906,7.572786,-4.691746,-2.110245
1.23,0.13140106,25.472675,3.48771,7.563366,-4.8480525,-2.25012
1.232,0.30233383,25.631098,3.9823694,7.55023,-4.998002,-2.39363
1.234,0.49911857,25.770313,4.483083,7.5333557,-5.141018,-2.5404549
1.236,0.71951795,25.890652,4.9893465,7.5127015,-5.276717,-2.690251
1.238,0.96207714,25.992592,5.500906,7.488273,-5.404933,-2.8426394
1.24,1.2250092,26.076323,6.017103,7.460081,-5.5256667,-2.997255
1.242,1.5068965,26.142036,6.537284,7.4281487,-5.6390686,-3.1537411
1.244,1.806179,26.189611,7.0606203,7.3924866,-5.7453976,-3.3117487
1.246,2.1215384,26.218998,7.5865636,7.353117,-5.8449917,-3.4709203
1.248,2.4519184,26.230087,8.11471,7.3100595,-5.938244,-3.6308851
1.25,2.795939,26.222971,8.644947,7.263344,-6.025602,-3.7913013
1.252,3.1525936,26.197561,9.17728,7.213,-6.1075015,-3.9518266
1.254,3.520931,26.153671,9.7117605,7.1590343,-6.1843944,-4.112106
1.256,3.9001544,26.091007,10.248163,7.1014485,-6.256671,-4.2718067
1.258,4.289463,26.009161,10.786173,7.04021,-6.3246946,-4.430597
1.26,4.6882677,25.907646,11.325403,6.9752817,-6.3887644,-4.5881715
1.262,5.0959635,25.786148,11.865586,6.906607,-6.4491224,-4.744244
1.264,5.5125427,25.643307,12.4054985,6.834133,-6.505952,-4.8985567
1.266,5.936644,25.479006,12.94424,6.757791,-6.559321,-5.0508437
1.268,6.3679767,25.292393,13.481936,6.6775355,-6.6092267,-5.20087
1.27,6.8065605,25.082478,14.0174465,6.593343,-6.6555653,-5.348396
1.272,7.251651,24.848766,14.549503,6.5051985,-6.6982036,-5.493218
1.274,7.7029586,24.590424,15.076829,6.4131045,-6.736924,-5.635105
1.276,8.160598,24.306412,15.597918,6.317067,-6.7714925,-5.7738056
1.278,8.624113,23.996101,16.111113,6.2171235,-6.8016815,-5.909027
1.28,9.094374,23.659552,16.61443,6.1133347,-6.8272324,-6.040411
1.282,9.568687,23.295824,17.106804,6.005797,-6.8478923,-6.1675596
1.284,10.050018,22.90383,17.586016,5.8946633,-6.863399,-6.2900257
1.286,10.536568,22.48397,18.049763,5.7800975,-6.8734455,-6.407324
1.288,11.028388,22.036602,18.4968,5.6623077,-6.8776903,-6.5189667
1.29,11.525269,21.561893,18.925194,5.5415344,-6.875769,-6.6244626
1.292,12.026857,21.060423,19.333063,5.4180098,-6.8672767,-6.7233534
1.294,12.532598,20.53309,19.718298,5.2920337,-6.8516545,-6.815143
1.296,13.041758,19.981018,20.079308,5.163873,-6.8286004,-6.899438
1.298,13.553358,19.405891,20.414806,5.0338397,-6.797707,-6.975859
1.3,14.06641,18.809357,20.72338,4.902228,-6.7585883,-7.0440187
1.302,14.579739,18.193356,21.00395,4.7692957,-6.710992,-7.103558
1.304,15.091601,17.560051,21.255486,4.6353016,-6.654716,-7.154119
1.306,15.600456,16.911724,21.477215,4.500496,-6.589604,-7.195335
1.308,16.104397,16.250856,21.668577,4.3651295,-6.5156,-7.2268176
1.31,16.601254,15.580103,21.829313,4.2294602,-6.432873,-7.2482243
1.312,17.088955,14.902173,21.959345,4.0936766,-6.34144,-7.2592597
1.314,17.565388,14.219933,22.05896,3.958024,-6.241275,-7.259489
1.316,18.028248,13.535993,22.128595,3.8227415,-6.132608,-7.2485676
1.318,18.475277,12.853123,22.16869,3.6880727,-6.0156155,-7.226304
1.32,18.904415,12.173808,22.179817,3.5542662,-5.890464,-7.1925626
1.322,19.313452,11.500541,22.162792,3.421533,-5.7573547,-7.1472692
1.324,19.700249,10.83576,22.11858,3.2901232,-5.616483,-7.090472
1.326,20.062832,10.181606,22.04827,3.1602829,-5.468087,-7.0223274
1.328,20.399616,9.540158,21.953175,3.032249,-5.312419,-6.943113
1.33,20.709255,8.913189,21.834442,2.906261,-5.149752,-6.8532066
1.332,20.990517,8.302556,21.693325,2.7825522,-4.980411,-6.7531023
1.334,21.242659,7.709719,21.530891,2.6613646,-4.8047915,-6.643381
1.336,21.46475,7.1361494,21.348358,2.542914,-4.623389,-6.5247087
1.338,21.656353,6.5827694,21.14703,2.4274263,-4.4367905,-6.3977766
1.34,21.817266,6.0504932,20.928171,2.3151402,-4.2456717,-6.263358
1.342,21.947178,5.5401444,20.692705,2.2062616,-4.0508065,-6.122244
1.344,22.04617,5.0522785,20.441683,2.1009886,-3.8530111,-5.975281
1.346,22.1144,4.5871544,20.175987,1.999482,-3.6531668,-5.8233457
1.348,22.151861,4.1449084,19.896523,1.9018483,-3.452214,-5.6673737
1.35,22.159039,3.7255158,19.604094,1.8082037,-3.2508516,-5.5082397
1.352,22.136305,3.3289378,19.299234,1.7186186,-3.0499213,-5.34684
1.354,22.084171,2.9548454,18.982635,1.6331416,-2.850214,-5.184079
1.356,22.003437,2.6027372,18.654955,1.5518204,-2.6523983,-5.0207977
1.358,21.894432,2.2719407,18.316826,1.4746445,-2.4571505,-4.8578043
1.36,21.758146,1.9616606,17.968925,1.4015739,-2.2651298,-4.695862
1.362,21.595333,1.6710837,17.611736,1.3325263,-2.0769534,-4.535679
1.364,21.406792,1.3992422,17.2458,1.2673949,-1.8931582,-4.3778706
1.366,21.193247,1.1452227,16.871838,1.2060726,-1.7144936,-4.2230034
1.368,20.955605,0.9080453,16.490498,1.1483476,-1.5417038,-4.071737
1.37,20.69476,0.686851,16.102596,1.0940148,-1.375319,-3.9245555
1.372,20.411707,0.480371,15.708519,1.0428321,-1.215972,-3.7818418
1.374,20.107225,0.28838158,15.309563,0.9945582,-1.0642747,-3.6439972
1.376,19.783451,0.10903692,14.906371,0.9489894,-0.9207424,-3.5113885
1.378,19.441404,-0.05858326,14.498843,0.9058991,-0.78580487,-3.3843265
1.38,19.081842,-0.2153244,14.088121,0.86508566,-0.6597568,-3.2630672
1.382,18.706432,-0.36233807,13.6751795,0.82637835,-0.5427862,-3.1478353
1.384,18.316525,-0.5003867,13.260957,0.7896395,-0.4349602,-3.0388174
1.386,17.913105,-0.6298022,12.846561,0.7547392,-0.3362149,-2.9361556
1.388,17.497946,-0.7513385,12.43307,0.7215746,-0.24637125,-2.8399537
1.39,17.071745,-0.86604357,12.021641,0.69005203,-0.16516404,-2.7502847
1.392,16.638302,-0.9737544,11.612745,0.6600993,-0.092259064,-2.667211
1.394,16.1959,-1.0742745,11.207809,0.63164604,-0.027288586,-2.5907345
1.396,15.748074,-1.1687326,10.808195,0.6046525,0.030140191,-2.5208242
1.398,15.295743,-1.2573881,10.414127,0.57908684,0.08042005,-2.4574227
1.4,14.840188,-1.3400025,10.027081,0.55493647,0.12393035,-2.4004452
1.402,14.383038,-1.4166827,9.648221,0.53218657,0.16104458,-2.3497972
1.404,13.926073,-1.4875093,9.278685,0.5108239,0.19211398,-2.3053586
1.406,13.470877,-1.5523386,8.918945,0.49083143,0.21744916,-2.2669997
1.408,13.019321,-1.6112866,8.569576,0.47219443,0.23735012,-2.2345753
1.41,12.572979,-1.6643806,8.231453,0.45489395,0.25210065,-2.2079012
1.412,12.133509,-1.7116747,7.905059,0.43891513,0.26197946,-2.1867669
1.414,11.702911,-1.7531676,7.590909,0.42423964,0.26722264,-2.1709402
1.416,11.282948,-1.7889102,7.289383,0.4108345,0.2680897,-2.1601787
1.418,10.875151,-1.8189242,7.000595,0.3986218,0.2648154,-2.1542208
1.42,10.4813595,-1.8434331,6.7247276,0.38751602,0.25757483,-2.1528037
1.422,10.103181,-1.8627322,6.461785,0.37738508,0.24650283,-2.155659
1.424,9.742094,-1.8772147,6.211708,0.3680551,0.23167622,-2.1625092
1.426,9.399342,-1.8872161,5.974482,0.35933155,0.21310064,-2.1730616
1.428,9.076285,-1.8932381,5.7500114,0.35099262,0.19074732,-2.1870103
1.43,8.773888,-1.8958144,5.5382056,0.34278828,0.16457862,-2.2040226
1.432,8.493099,-1.8955314,5.3389792,0.33447456,0.1345779,-2.2237315
1.434,8.234472,-1.8929799,5.152022,0.32584333,0.100770414,-2.2457373
1.436,7.998678,-1.8888724,4.977082,0.31669676,0.06325495,-2.2696397
1.438,7.7856574,-1.88376,4.813755,0.30685985,0.022258341,-2.295021
1.44,7.595426,-1.8783748,4.6620927,0.29619604,-0.021898508,-2.321466
1.442,7.4277086,-1.8734446,4.521981,0.28459972,-0.06878498,-2.3485851
1.444,7.28166,-1.8696387,4.3935266,0.2720018,-0.11787066,-2.376001
1.446,7.156745,-1.8675137,4.2766967,0.2583748,-0.16854158,-2.4033775
1.448,7.0518823,-1.8676119,4.171393,0.24371415,-0.22012419,-2.4304247
1.45,6.9659476,-1.8704388,4.0776134,0.22804719,-0.27192518,-2.4568808
1.452,6.8977222,-1.8763499,3.9954576,0.2114234,-0.32322788,-2.4825034
1.454,6.845545,-1.8856373,3.925047,0.193919,-0.37334636,-2.507073
1.456,6.8077173,-1.8983908,3.866549,0.1756202,-0.42163032,-2.5303864
1.458,6.782442,-1.914742,3.8201234,0.1566379,-0.46747315,-2.5522523
1.46,6.767806,-1.9345734,3.785647,0.13705719,-0.5103506,-2.5724869
1.462,6.7619057,-1.9579699,3.7632055,0.11695778,-0.5498333,-2.5909243
1.464,6.76291,-1.9845951,3.7528377,0.09640384,-0.5855944,-2.6074119
1.466,6.7686753,-2.0141008,3.7543242,0.075449586,-0.617399,-2.6218076
1.468,6.7774334,-2.045956,3.7674463,0.054130673,-0.6450999,-2.6340022
1.47,6.7870665,-2.079662,3.792134,0.032487392,-0.66862446,-2.6438994
1.472,6.7956953,-2.1146233,3.8281379,0.0105804205,-0.6879118,-2.6514208
1.474,6.8015585,-2.1502795,3.8751082,-0.011518359,-0.70287657,-2.6564848
1.476,6.803072,-2.185916,3.9324572,-0.033692956,-0.71343046,-2.6590416
1.478,6.7986383,-2.2209363,3.9996002,-0.05581355,-0.71943796,-2.6590605
1.48,6.786774,-2.2549136,4.076039,-0.07771635,-0.7207204,-2.6564884
1.482,6.766098,-2.2871838,4.161114,-0.0992018,-0.71706545,-2.6512446
1.484,6.7352705,-2.317191,4.254278,-0.12004948,-0.7082707,-2.6432543
1.486,6.6932926,-2.3443081,4.354823,-0.14001977,-0.6941135,-2.6324198
1.488,6.6391997,-2.3679276,4.461892,-0.15889311,-0.6744041,-2.6186435
1.49,6.572194,-2.387595,4.5749097,-0.1764586,-0.6489884,-2.6017947
1.492,6.4915886,-2.4028695,4.6929574,-0.19252074,-0.61776906,-2.5817578
1.494,6.3968873,-2.4133685,4.815031,-0.20693827,-0.58070195,-2.5584154
1.496,6.2876616,-2.4188251,4.940214,-0.21959859,-0.53777146,-2.5316563
1.498,6.163407,-2.4189217,5.067612,-0.23042184,-0.4890306,-2.5014
1.5,6.024237,-2.413415,5.19641,-0.23939735,-0.4345916,-2.4675827
1.502,5.8699617,-2.4020467,5.325671,-0.24651581,-0.37460214,-2.430179
1.504,5.700745,-2.3845375,5.4547234,-0.25181758,-0.30926973,-2.3891957
1.506,5.5166426,-2.36062,5.5828333,-0.25537735,-0.23888499,-2.3446977
1.508,5.317938,-2.3300846,5.7091894,-0.25730318,-0.1637783,-2.296811
1.51,5.1050787,-2.2928395,5.832858,-0.2577349,-0.08434439,-2.2457118
1.512,4.878282,-2.248592,5.953224,-0.25686795,-0.0010071993,-2.1916308
1.514,4.6377172,-2.1969914,6.069829,-0.25488788,0.08579689,-2.1348464
1.516,4.383969,-2.1377652,6.182333,-0.25199914,0.17564261,-2.0756662
1.518,4.117234,-2.0707147,6.2902603,-0.24842685,0.2681331,-2.0144498
1.52,3.837985,-1.9954748,6.3931227,-0.24438757,0.36292768,-1.9515796
1.522,3.5465438,-1.9117608,6.490673,-0.24009421,0.45977023,-1.8874669
1.524,3.2432232,-1.8192887,6.5829573,-0.23574835,0.55845433,-1.8225393
1.526,2.9282827,-1.7178822,6.6699586,-0.23154835,0.6587918,-1.7572362
1.528,2.602037,-1.6073861,6.7519045,-0.22766866,0.7606206,-1.6920075
1.53,2.2644565,-1.4874496,6.8287487,-0.22428434,0.8637917,-1.6272782
1.532,1.9154723,-1.3578706,6.900781,-0.22154722,0.96812016,-1.5634722
1.534,1.5551529,-1.2183542,6.9681854,-0.21960713,1.0733625,-1.5010092
1.536,1.183351,-1.0688173,7.031217,-0.21861413,1.1792345,-1.4402978
1.538,0.7998519,-0.90902686,7.090413,-0.218703,1.2854048,-1.3817089
1.54,0.40452015,-0.73879194,7.1461935,-0.22,1.3914883,-1.3255979
1.542,-0.002840519,-0.5579927,7.1989408,-0.22259095,1.4970857,-1.2723016
1.544,-0.42248464,-0.36664033,7.2492266,-0.22655623,1.6017976,-1.2221497
1.546,-0.8547468,-0.16463292,7.297555,-0.2319512,1.7052242,-1.1754526
1.548,-1.299516,0.047980785,7.34449,-0.23877946,1.8070121,-1.1325153
1.55,-1.7569053,0.27120042,7.390557,-0.24704158,1.9068292,-1.0936291
1.552,-2.226659,0.50504506,7.4362245,-0.25669384,2.00441,-1.0590982
1.554,-2.7084918,0.7494705,7.481716,-0.26766402,2.0995314,-1.029222
1.556,-3.201858,1.0043833,7.5273156,-0.27988353,2.1920102,-1.0043305
1.558,-3.7060342,1.2697437,7.573348,-0.29325444,2.2817116,-0.9847745
1.56,-4.2202687,1.5453943,7.61998,-0.3076835,2.3685603,-0.9708992
1.562,-4.7433376,1.8311367,7.667403,-0.3230778,2.4525006,-0.963097
1.564,-5.2740073,2.1269283,7.715408,-0.33933887,2.5335045,-0.9617748
1.566,-5.810622,2.4325418,7.7637544,-0.35635686,2.611572,-0.96734214
1.568,-6.3516307,2.7479062,7.812214,-0.37404338,2.6867373,-0.9802135
1.57,-6.8951187,3.072727,7.860944,-0.39231455,2.7590528,-1.0007831
1.572,-7.439129,3.4069235,7.9096274,-0.41107154,2.82859,-1.0294261
1.574,-7.981557,3.7501159,7.957793,-0.43023372,2.8954113,-1.066474
1.576,-8.519965,4.1019783,8.00494,-0.4497153,2.9595518,-1.1122202
1.578,-9.05216,4.4620895,8.050644,-0.46945387,3.0210078,-1.1669202
1.58,-9.5756645,4.829907,8.094078,-0.48939866,3.0796943,-1.2307799
1.582,-10.088018,5.204715,8.134871,-0.50953853,3.1354306,-1.3039799
1.584,-10.586926,5.5858335,8.172282,-0.5298773,3.1879125,-1.3866711
1.586,-11.0701475,5.972337,8.205642,-0.5504512,3.236704,-1.4789643
1.588,-11.535422,6.3631516,8.234261,-0.5713247,3.2812123,-1.5809352
1.59,-11.980705,6.7572145,8.257367,-0.5925826,3.3206859,-1.6926434
1.592,-12.404114,7.153239,8.274385,-0.61433625,3.3542283,-1.8140879
1.594,-12.803847,7.549823,8.28476,-0.6367209,3.3807983,-1.9452326
1.596,-13.178403,7.945212,8.287796,-0.65990245,3.3992348,-2.0859818
1.598,-13.526594,8.33757,8.282903,-0.6840677,3.4082556,-2.2361653
1.6,-13.8473215,8.724942,8.269204,-0.7094425,3.4065046,-2.3955507
1.602,-14.139858,9.105412,8.246121,-0.73629016,3.392565,-2.5637994
1.604,-14.403681,9.476682,8.213183,-0.76492107,3.3649762,-2.7405028
1.606,-14.638297,9.83658,8.170105,-0.7957051,3.3222845,-2.9251604
1.608,-14.843533,10.182918,8.116754,-0.8290088,3.2631104,-3.11719
1.61,-15.019556,10.513362,8.052935,-0.8652177,3.1861677,-3.3159351
1.612,-15.1663265,10.825519,7.978717,-0.90471077,3.0903616,-3.5206938
1.614,-15.284185,11.117197,7.894234,-0.94783854,2.9747972,-3.7307029
1.616,-15.373503,11.386188,7.7997622,-0.9949187,2.8388727,-3.9451728
1.618,-15.434711,11.63039,7.6959834,-1.0462286,2.6823182,-4.1632957
1.62,-15.468489,11.84794,7.583849,-1.1019793,2.50522,-4.3842626
1.622,-15.475221,12.0368595,7.464379,-1.1623238,2.3080077,-4.6072736
1.624,-15.455324,12.195608,7.3386474,-1.2273395,2.0915089,-4.831552
1.626,-15.409342,12.322737,7.207997,-1.2970777,1.8568684,-5.056348
1.628,-15.337506,12.417289,7.0740027,-1.3715179,1.6055447,-5.2809577
1.63,-15.239972,12.478253,6.9383326,-1.4505899,1.3392937,-5.5047107
1.632,-15.116858,12.505101,6.8028326,-1.5341588,1.0601373,-5.726956
1.634,-14.968191,12.497499,6.669241,-1.6220396,0.77033424,-5.947089
1.636,-14.794083,12.455568,6.53951,-1.7139949,0.4723313,-6.164527
1.638,-14.594338,12.379828,6.4154906,-1.8097136,0.16877031,-6.378726
1.64,-14.368429,12.2711115,6.29916,-1.9088238,-0.13755894,-6.5891867
1.642,-14.115821,12.130543,6.192083,-2.0108974,-0.44376135,-6.7954497
1.644,-13.835854,11.959553,6.095748,-2.1154225,-0.7468703,-6.9971004
1.646,-13.527919,11.75982,6.01153,-2.2218504,-1.0439074,-7.1938057
1.648,-13.191473,11.533552,5.9408617,-2.329573,-1.3319213,-7.385279
1.65,-12.82609,11.283244,5.8849134,-2.4379323,-1.6080663,-7.5713015
1.652,-12.431166,11.011738,5.8446236,-2.5462272,-1.8696258,-7.751721
1.654,-12.0062065,10.722162,5.8206506,-2.653731,-2.1140552,-7.9264383
1.656,-11.550703,10.417759,5.813418,-2.7596931,-2.3390517,-8.095426
1.658,-11.064589,10.101822,5.823154,-2.8633277,-2.5425477,-8.2586975
1.66,-10.54798,9.77824,5.8498626,-2.963844,-2.7227414,-8.416296
1.662,-10.000824,9.450576,5.8935385,-3.0604775,-2.8780992,-8.568337
1.664,-9.423451,9.122818,5.9540987,-3.1524563,-3.0074015,-8.714971
1.666,-8.816509,8.798744,6.031209,-3.2390208,-3.1097434,-8.8563595
1.668,-8.180681,8.4824295,6.1242943,-3.3194313,-3.1845384,-8.992731
1.67,-7.5168753,8.177681,6.2324147,-3.392957,-3.2315786,-9.124357
1.672,-6.826193,7.888227,6.354665,-3.458914,-3.2510157,-9.251568
1.674,-6.1098814,7.6176925,6.490162,-3.5166624,-3.2433782,-9.374725
1.676,-5.369403,7.369409,6.637828,-3.565624,-3.2095208,-9.494247
1.678,-4.606246,7.1465616,6.7965064,-3.6052883,-3.1507041,-9.610603
1.68,-3.822059,6.9522066,6.9649105,-3.635183,-3.0684762,-9.724325
1.682,-3.018275,6.7890043,7.142046,-3.6549406,-2.9647815,-9.836003
1.684,-2.196745,6.659462,7.3267775,-3.6643128,-2.8419075,-9.946262
1.686,-1.3588619,6.5655804,7.5180244,-3.6631598,-2.702486,-10.055757
1.688,-0.5059011,6.509021,7.714435,-3.6514864,-2.5494738,-10.165153
1.69,0.36073136,6.49117,7.9147544,-3.629411,-2.3861015,-10.275096
1.692,1.2398975,6.5131907,8.117684,-3.5972185,-2.2158556,-10.3861885
1.694,2.1312003,6.5757003,8.322049,-3.5553198,-2.0423822,-10.498975
1.696,3.0341458,6.6791677,8.526709,-3.5042458,-1.8694048,-10.613901
1.698,3.9484553,6.8235683,8.730766,-3.4446564,-1.700686,-10.731336
1.7,4.874471,7.0085373,8.933155,-3.3773017,-1.5399256,-10.851503
1.702,5.812293,7.2335396,9.1330185,-3.3030062,-1.390717,-10.974527
1.704,6.7630515,7.4977226,9.329762,-3.2226534,-1.2564168,-11.100414
1.706,7.7281504,7.799658,9.522954,-3.1371884,-1.140152,-11.22904
1.708,8.709003,8.138016,9.712125,-3.047572,-1.044774,-11.360167
1.71,9.707454,8.511026,9.897003,-2.954809,-0.97281265,-11.493458
1.712,10.72544,8.916793,10.077635,-2.8599062,-0.9264555,-11.628491
1.714,11.764716,9.352968,10.253904,-2.763872,-0.9075608,-11.764767
1.716,12.826647,9.817387,10.425635,-2.6676888,-0.91763735,-11.9017515
1.718,13.913824,10.307158,10.593754,-2.57232,-0.95779467,-12.038868
1.72,15.033,10.812566,10.754953,-2.4786873,-1.0287871,-12.175535
1.722,16.174557,11.342172,10.918276,-2.3876543,-1.1309972,-12.311159
1.724,17.344727,11.885212,11.088671,-2.299995,-1.2644076,-12.44516
1.726,18.550114,12.44302,11.2625675,-2.2163827,-1.4286461,-12.576959
1.728,19.79126,13.012268,11.44211,-2.1373818,-1.6230206,-12.706009
1.73,21.071068,13.589751,11.628946,-2.0634348,-1.8465147,-12.831768
1.732,22.389885,14.173367,11.828186,-1.9948626,-2.0978127,-12.953688
1.734,23.749937,14.758953,12.040314,-1.9318627,-2.3753629,-13.07123
1.736,25.151585,15.344548,12.265987,-1.8745086,-2.6774154,-13.183856
1.738,26.59457,15.928446,12.508631,-1.822751,-3.0020723,-13.291031
1.74,28.078707,16.508602,12.771996,-1.7764285,-3.3473165,-13.392221
1.742,29.604527,17.082386,13.059027,-1.7353183,-3.7110906,-13.486912
1.744,31.16929,17.64999,13.372576,-1.6991714,-4.0913053,-13.574589
1.746,32.770863,18.211344,13.71543,-1.6676931,-4.4858513,-13.654699
1.748,34.40944,18.763773,14.088055,-1.6405302,-4.892608,-13.726638
1.75,36.08207,19.307076,14.491211,-1.6172748,-5.309007,-13.789387
1.752,37.784435,19.841064,14.92552,-1.5977243,-5.7335286,-13.842612
1.754,39.51254,20.36499,15.391285,-1.5812589,-6.1636195,-13.88533
1.756,41.261757,20.87865,15.888559,-1.5674866,-6.5969315,-13.916563
1.758,43.026493,21.382294,16.41632,-1.555892,-7.031491,-13.935236
1.76,44.801945,21.875732,16.973253,-1.5458595,-7.465107,-13.940067
1.762,46.58345,22.358753,17.557749,-1.5368617,-7.8957887,-13.929904
1.764,48.366035,22.831526,18.167532,-1.5282946,-8.321178,-13.90347
1.766,50.144512,23.293713,18.799679,-1.5195203,-8.739114,-13.859589
1.768,51.914032,23.74494,19.451477,-1.50983,-9.147596,-13.797315
1.77,53.66927,24.18446,20.119884,-1.4984845,-9.544644,-13.715879
1.772,55.40533,24.611069,20.801506,-1.4847583,-9.928324,-13.614735
1.774,57.11788,25.023678,21.492657,-1.4680157,-10.296925,-13.493676
1.776,58.80256,25.421196,22.189766,-1.4476575,-10.649023,-13.352831
1.778,60.455757,25.801952,22.889414,-1.4231861,-10.983405,-13.192379
1.78,62.074295,26.164543,23.588772,-1.3942652,-11.299295,-13.012635
1.782,63.655365,26.507542,24.285112,-1.3606688,-11.596352,-12.813976
1.784,65.19696,26.82951,24.975767,-1.3222586,-11.874657,-12.596633
1.786,66.69743,27.129072,25.65833,-1.2789192,-12.134689,-12.360625
1.788,68.15554,27.404835,26.330341,-1.2304617,-12.37731,-12.105784
1.79,69.570305,27.655437,26.98982,-1.1765659,-12.60368,-11.831797
1.792,70.94088,27.879944,27.634722,-1.1168064,-12.815167,-11.53823
1.794,72.26742,28.077576,28.263437,-1.0506796,-13.0133095,-11.22464
1.796,73.54996,28.248318,28.874775,-0.97760016,-13.19961,-10.890637
1.798,74.78875,28.392626,29.467844,-0.89696014,-13.375591,-10.536083
1.8,75.98469,28.51154,30.041725,-0.80820274,-13.5427,-10.161083
1.802,77.13924,28.606462,30.59598,-0.71079993,-13.702265,-9.766008
1.804,78.25348,28.680323,31.130451,-0.60425127,-13.855711,-9.351658
1.806,79.32919,28.736826,31.644936,-0.48786736,-14.003377,-8.918369
1.808,80.36879,28.781185,32.139767,-0.36125684,-14.14648,-8.467308
1.81,81.37434,28.819742,32.616646,-0.22359681,-14.285526,-7.9995327
1.812,82.34917,28.860275,33.07762,-0.074037075,-14.420409,-7.5161552
1.814,83.29581,28.912306,33.52604,0.08839607,-14.550993,-7.01838
1.816,84.216644,28.986816,33.966232,0.26490045,-14.676735,-6.507281
1.818,85.11542,29.095388,34.402943,0.4566388,-14.797159,-5.9840126
1.82,85.99504,29.250961,34.841515,0.6647887,-14.911321,-5.4495926
1.822,86.85859,29.468386,35.28718,0.89047813,-15.018077,-4.9048223
1.824,87.70939,29.763588,35.746025,1.134793,-15.116419,-4.3503494
1.826,88.55086,30.152193,36.22441,1.3987389,-15.205471,-3.7866259
1.828,89.3857,30.651047,36.72803,1.6832411,-15.284384,-3.2137418
1.83,90.213326,31.283262,37.265686,1.9890137,-15.352581,-2.6315217
1.832,91.045204,32.05822,37.837093,2.316595,-15.40991,-2.0397196
1.834,91.88034,33.00231,38.45237,2.6663685,-15.456352,-1.437964
1.836,92.71356,34.13302,39.123062,3.0384474,-15.492137,-0.82582617
1.838,93.54945,35.46875,39.85117,3.4326708,-15.517806,-0.20298052
1.84,94.38109,37.041824,40.637074,3.8486173,-15.534005,0.43082237
1.842,95.22739,38.84542,41.48709,4.285644,-15.5413475,1.0758173
1.844,96.10916,40.890064,42.412254,4.742944,-15.540411,1.7322545
1.846,97.01207,43.21474,43.414738,5.2196717,-15.531542,2.4005158
1.848,97.95801,45.835487,44.491512,5.7150717,-15.514845,3.0812173
1.85,98.96983,48.761753,45.638348,6.228518,-15.490023,3.7752335
1.852,100.04057,52.00836,46.842457,6.7595844,-15.456359,4.4838004
1.854,101.174774,55.57622,48.091537,7.3080397,-15.4125185,5.208685
1.856,102.406715,59.454773,49.395016,7.873905,-15.356463,5.9521875
1.858,103.72437,63.657936,50.745857,8.457466,-15.285265,6.71723
1.86,105.13104,68.20216,52.116993,9.059192,-15.195161,7.5074253
1.862,106.64321,73.09703,53.482956,9.6796055,-15.08157,8.326617
1.864,108.207375,78.3416,54.86461,10.319307,-14.93882,9.178963
1.866,109.7971,83.897575,56.32483,10.979182,-14.759623,10.068575
1.868,111.482704,89.712006,57.897903,11.659815,-14.536267,10.999286
1.87,113.33862,95.75189,59.5791,12.361092,-14.261034,11.974402
1.872,115.4128,102.02763,61.299347,13.081697,-13.923485,12.99731
1.874,117.74074,108.56227,62.96927,13.819642,-13.512712,14.072451
1.876,120.34233,115.35866,64.53343,14.574453,-13.015045,15.203276
1.878,123.17673,122.38632,66.012695,15.344554,-12.415064,16.394182
1.88,126.22727,129.50478,67.480415,16.126013,-11.696671,17.650572
1.882,129.49747,136.64194,68.94903,16.914557,-10.839581,18.97431
1.884,133.01007,143.78723,70.38372,17.705925,-9.820433,20.363817
1.886,136.78801,150.92764,71.76603,18.496206,-8.615139,21.816633
1.888,140.84296,158.01222,73.08288,19.280918,-7.1975904,23.327917
1.89,145.17905,164.96255,74.293015,20.054039,-5.539919,24.887966
1.892,149.79901,171.69547,75.35349,20.805244,-3.6159906,26.481096
1.894,154.66563,178.11804,76.265045,21.51958,-1.4018463,28.080826
1.896,159.77524,184.14265,76.99805,22.178484,1.1204877,29.655853
1.898,165.12556,189.68121,77.52679,22.762096,3.9623458,31.175577
1.9,170.68642,194.68141,77.815025,23.251648,7.11469,32.59497
1.902,176.44388,199.09552,77.81404,23.631884,10.562756,33.859108
1.904,182.40063,202.8649,77.46309,23.885157,14.280333,34.912834
1.906,188.54535,205.94235,76.69914,23.996891,18.223799,35.712017
1.908,194.84128,208.29883,75.45639,23.952667,22.337677,36.221127
1.91,201.23712,209.91618,73.66159,23.73435,26.524012,36.404263
1.912,207.67387,210.78564,71.24231,23.348461,30.692163,36.267605
1.914,214.10605,210.8906,68.13628,22.815842,34.74476,35.83777
1.916,220.47879,210.21475,64.29189,22.16975,38.576176,35.14616
1.918,226.7085,208.76326,59.69153,21.454208,42.081623,34.21479
1.92,232.70952,206.55634,54.33315,20.718756,45.162006,33.052128
1.922,238.3909,203.62444,48.21501,20.014627,47.732903,31.653955
1.924,243.65536,200.00694,41.346104,19.382786,49.73226,30.003983
1.926,248.39972,195.75406,33.76436,18.847832,51.122665,28.076647
1.928,252.5221,190.9245,25.538315,18.415298,51.89294,25.841473
1.93,255.9286,185.58195,16.755863,18.06796,52.055252,23.270256
1.932,258.5343,179.78662,7.51503,17.769508,51.643795,20.344719
1.934,260.2731,173.60388,-2.069191,17.468529,50.70794,17.066467
1.936,261.08997,167.10089,-11.851486,17.102537,49.303154,13.465209
1.938,260.936,160.33893,-21.66433,16.606092,47.487938,9.598769
1.94,259.79227,153.37256,-31.33181,15.919168,45.319504,5.55011
1.942,257.6623,146.25989,-40.673096,14.994247,42.847157,1.4263039
1.944,254.5668,139.07358,-49.509216,13.79947,40.110874,-2.645525
1.946,250.55975,131.88426,-57.657936,12.3209305,37.142166,-6.5271034
1.948,245.71637,124.775185,-64.95285,10.562544,33.963017,-10.076639
1.95,240.13443,117.82634,-71.248474,8.54344,30.590557,-13.166163
1.952,233.90582,111.145996,-76.428116,6.2933607,27.037607,-15.693027
1.954,227.13792,104.81101,-80.39822,3.8478317,23.320427,-17.57487
1.956,219.97812,98.86853,-83.0887,1.245018,19.444546,-18.765062
1.958,212.53879,93.38558,-84.46474,-1.4703274,15.418279,-19.261755
1.96,204.93561,88.42096,-84.526794,-4.2533274,11.261625,-19.106754
1.962,197.30737,84.01422,-83.30078,-7.056873,7.0067377,-18.369843
1.964,189.76907,80.20504,-80.8482,-9.832526,2.7212176,-17.13558
1.966,182.40173,77.03299,-77.2818,-12.54715,-1.5372677,-15.525377
1.968,175.31815,74.50531,-72.72042,-15.159013,-5.685232,-13.6530075
1.97,168.59453,72.618675,-67.29405,-17.615683,-9.6120205,-11.610158
1.972,162.27737,71.36931,-61.162357,-19.85601,-13.193327,-9.466768
1.974,156.45168,70.750046,-54.53879,-21.813879,-16.300053,-7.282591
1.976,151.13791,70.766174,-47.66047,-23.426388,-18.811338,-5.113652
1.978,146.25919,71.40492,-40.714767,-24.637691,-20.62781,-3.012083
1.98,141.75519,72.61026,-33.846115,-25.40839,-21.68159,-1.0280504
1.982,137.60095,74.27991,-27.150883,-25.722958,-21.941895,0.7922354
1.984,133.78143,76.31087,-20.730223,-25.590702,-21.420273,2.4112358
1.986,130.28725,78.62953,-14.728188,-25.044334,-20.17046,3.8005939
1.988,127.14402,81.19064,-9.337097,-24.137127,-18.281647,4.941932
1.99,124.32663,84.022415,-4.740902,-22.937288,-15.871248,5.8293667
1.992,121.77984,87.05003,-1.0112686,-21.521395,-13.074566,6.4701204
1.994,119.43452,90.144066,1.8461761,-19.968077,-10.032492,6.88297
1.996,117.23159,93.201355,3.821476,-18.352074,-6.8808527,7.094205
1.998,115.1299,96.168304,4.9189796,-16.739357,-3.742641,7.1323028
2,113.09866,99.01444,5.1846676,-15.185524,-0.7215619,7.0235543
2.002,111.10934,101.706436,4.6723824,-13.736974,2.1004934,6.7889085
2.004,109.165146,104.21488,3.4101124,-12.431036,4.6625876,6.443042
2.006,107.22998,106.50325,1.4745293,-11.295581,6.923913,5.995704
2.008,105.271736,108.53891,-1.0525732,-10.348587,8.862603,5.454319
2.01,103.285805,110.266914,-4.0729804,-9.599349,10.4717655,4.8271656
2.012,101.24871,111.65086,-7.4763036,-9.050182,11.754978,4.1267734
2.014,99.127144,112.682304,-11.146517,-8.697743,12.72292,3.371275
2.016,96.909065,113.35584,-14.975284,-8.532509,13.390208,2.5852132
2.018,94.60447,113.66676,-18.859886,-8.538563,13.775527,1.7988883
2.02,92.2271,113.62059,-22.699974,-8.697988,13.900752,1.043963
2.022,89.786285,113.23307,-26.40723,-8.992317,13.786454,0.3490472
2.024,87.2727,112.54101,-29.909092,-9.403041,13.452875,-0.26390448
2.026,84.68469,111.58754,-33.14584,-9.9124975,12.921243,-0.77999145
2.028,82.04166,110.40185,-36.084885,-10.503391,12.213262,-1.1906017
2.03,79.35545,109.009415,-38.694744,-11.158311,11.350575,-1.4948175
2.032,76.636696,107.43793,-40.93287,-11.859807,10.354897,-1.6979817
2.034,73.89699,105.7166,-42.76217,-12.59094,9.248632,-1.8070078
2.036,71.15112,103.87396,-44.16478,-13.335641,8.055148,-1.8290105
2.038,68.41161,101.93863,-45.139397,-14.078278,6.7986383,-1.7719526
2.04,65.68749,99.94087,-45.68832,-14.803469,5.503765,-1.643779
2.042,62.98587,97.917465,-45.81293,-15.49608,4.195515,-1.451684
2.044,60.3088,95.90111,-45.52457,-16.141794,2.8991299,-1.2023199
2.046,57.665077,93.92151,-44.856186,-16.727493,1.6395979,-0.9026375
2.048,55.072407,92.01103,-43.851498,-17.241474,0.44109392,-0.56012726
2.05,52.536945,90.20026,-42.554092,-17.673569,-0.6732693,-0.18242598
2.052,50.065544,88.506454,-41.011093,-18.015366,-1.6818948,0.22296143
2.054,47.66532,86.93287,-39.270763,-18.260273,-2.565557,0.6485672
2.056,45.338684,85.480354,-37.38316,-18.40377,-3.3082128,1.0867271
2.058,43.08635,84.14273,-35.392845,-18.443436,-3.8974328,1.5297265
2.06,40.91426,82.90739,-33.34066,-18.37899,-4.3249683,1.9700928
2.062,38.828674,81.76987,-31.268333,-18.21246,-4.5871363,2.400837
2.064,36.83656,80.73033,-29.21564,-17.948217,-4.685068,2.8154478
2.066,34.946518,79.787605,-27.217442,-17.593042,-4.624642,3.208024
2.068,33.16638,78.94187,-25.302011,-17.156027,-4.416312,3.573351
2.07,31.502836,78.195206,-23.493715,-16.648354,-4.0748315,3.90697
2.072,29.96069,77.548294,-21.815304,-16.082949,-3.618506,4.2051497
2.074,28.54199,76.99608,-20.286121,-15.474007,-3.0684147,4.464917
2.076,27.243155,76.52675,-18.91927,-14.83637,-2.447381,4.684346
2.078,26.059715,76.12583,-17.722141,-14.184727,-1.778778,4.8626633
2.08,24.987494,75.77992,-16.698227,-13.532999,-1.0852506,5.0002894
2.082,24.021118,75.47906,-15.846893,-12.893681,-0.38750768,5.0988054
2.084,23.155254,75.21566,-15.164221,-12.277205,0.29666507,5.1609645
2.086,22.38419,74.984436,-14.644334,-11.6915655,0.9532497,5.1905127
2.088,21.700966,74.7813,-14.279506,-11.142185,1.5723834,5.191886
2.09,21.098534,74.60275,-14.060144,-10.63205,2.148378,5.169813
2.092,20.568745,74.44522,-13.975873,-10.161993,2.679439,5.1289988
2.094,20.10363,74.30513,-14.016746,-9.731204,3.1670299,5.0737844
2.096,19.69488,74.177414,-14.172904,-9.337747,3.6150167,5.0078316
2.098,19.334213,74.055725,-14.434576,-8.979111,4.0286846,4.933976
2.1,19.012897,73.93268,-14.792969,-8.652691,4.413826,4.8541226
2.102,18.7224,73.80054,-15.239919,-8.356257,4.7760296,4.769285
2.104,18.454617,73.65131,-15.767659,-8.088128,5.120068,4.6797547
2.106,18.202192,73.47702,-16.369205,-7.8472853,5.449547,4.5853615
2.108,17.95889,73.26961,-17.03808,-7.6332855,5.766712,4.4857016
2.11,17.718187,73.02177,-17.768375,-7.446065,6.0726695,4.3802953
2.112,17.475183,72.7268,-18.554304,-7.285624,6.367545,4.268858
2.114,17.226267,72.3782,-19.389927,-7.151766,6.6507454,4.151361
2.116,16.968225,71.97021,-20.269024,-7.0438743,6.9214334,4.0280685
2.118,16.698101,71.49775,-21.185669,-6.960702,7.1787753,3.8996854
2.12,16.41333,70.95666,-22.134537,-6.900214,7.4221244,3.7672586
2.122,16.111328,70.34374,-23.11041,-6.859663,7.651136,3.6319654
2.124,15.790962,69.65691,-24.107506,-6.835649,7.866002,3.4949822
2.126,15.451199,68.89517,-25.11927,-6.824359,8.067208,3.3574462
2.128,15.09136,68.05892,-26.139074,-6.8218412,8.255394,3.220305
2.13,14.711502,67.14946,-27.159552,-6.8242054,8.431218,3.0841904
2.132,14.311492,66.16876,-28.172892,-6.8278613,8.595147,2.9494004
2.134,13.891761,65.11987,-29.172028,-6.8296504,8.747207,2.8159177
2.136,13.453233,64.00707,-30.149456,-6.827025,8.886939,2.6834035
2.138,12.996929,62.83537,-31.098352,-6.818115,9.013273,2.551245
2.14,12.523809,61.610195,-32.011814,-6.8017473,9.124461,2.4186583
2.142,12.035049,60.33703,-32.883415,-6.7773457,9.218154,2.284799
2.144,11.532518,59.02116,-33.70683,-6.744875,9.2915125,2.1488054
2.146,11.017876,57.668312,-34.47628,-6.704693,9.341391,2.0099323
2.148,10.492264,56.28463,-35.18593,-6.6575,9.364542,1.8676393
2.15,9.956413,54.876286,-35.83058,-6.6042414,9.357821,1.7216661
2.152,9.41276,53.44816,-36.405266,-6.546021,9.3184,1.5720513
2.154,8.862846,52.005318,-36.90632,-6.483968,9.243972,1.419245
2.156,8.308016,50.55332,-37.331295,-6.418997,9.132989,1.2641861
2.158,7.7495375,49.097137,-37.67842,-6.3517213,8.98483,1.1082706
2.16,7.1887693,47.64173,-37.946762,-6.282304,8.799736,0.9532592
2.162,6.6275635,46.192215,-38.136623,-6.2103376,8.579123,0.8012247
2.164,6.0676193,44.753048,-38.2494,-6.134803,8.325306,0.65454555
2.166,5.511221,43.32841,-38.288067,-6.0541506,8.0414505,0.515507
2.168,4.9605722,41.92217,-38.256844,-5.966402,7.7315435,0.3861363
2.17,4.4179173,40.537956,-38.16141,-5.8692236,7.4000826,0.26805568
2.172,3.8858385,39.178635,-38.008244,-5.760193,7.051988,0.16224146
2.174,3.3670244,37.84651,-37.804623,-5.6370025,6.692428,0.06899834
2.176,2.864438,36.543564,-37.55817,-5.497634,6.3266234,-0.011996746
2.178,2.3807402,35.271225,-37.27693,-5.340604,5.959569,-0.081630945
2.18,1.9182978,34.030212,-36.968613,-5.164937,5.595988,-0.14123368
2.182,1.4797487,32.82071,-36.640812,-4.9702635,5.24018,-0.19244456
2.184,1.0673757,31.642391,-36.300438,-4.756839,4.8958254,-0.2370758
2.186,0.68364334,30.494316,-35.953854,-4.5255675,4.5658855,-0.276927
2.188,0.33011484,29.37492,-35.606663,-4.2779174,4.2525363,-0.31367087
2.19,0.008564472,28.28271,-35.2633,-4.01589,3.95706,-0.34879446
2.192,-0.278965,27.215162,-34.927155,-3.7419274,3.6798725,-0.38359034
2.194,-0.5317931,26.170607,-34.600754,-3.4588196,3.4204888,-0.41911912
2.196,-0.7493179,25.147495,-34.28519,-3.1696293,3.1775699,-0.4562217
2.198,-0.9307916,24.14434,-33.980457,-2.8775468,2.9489996,-0.49553394
2.2,-1.0761223,23.159964,-33.685776,-2.5858235,2.7320123,-0.5375359
2.202,-1.1850789,22.193163,-33.399837,-2.297614,2.523377,-0.58252215
2.204,-1.2581055,21.24286,-33.120144,-2.0158267,2.3196611,-0.63058805
2.206,-1.2967286,20.308779,-32.843586,-1.7430391,2.1174865,-0.68166375
2.208,-1.3026919,19.391079,-32.5667,-1.4814279,1.9137006,-0.73554206
2.21,-1.2776682,18.490364,-32.285694,-1.2327651,1.7055281,-0.79193926
2.212,-1.2233298,17.607384,-31.996525,-0.99832773,1.4907718,-0.85041785
2.214,-1.142002,16.743338,-31.695341,-0.77889645,1.2680068,-0.9104503
2.216,-1.0356641,15.8995285,-31.37844,-0.5747925,1.03652,-0.97152066
2.218,-0.9069097,15.077847,-31.04267,-0.38589036,0.7964227,-1.0331745
2.22,-0.7577431,14.280039,-30.68533,-0.2116524,0.5486404,-1.0949798
2.222,-0.5903747,13.507777,-30.304375,-0.051174507,0.2947321,-1.156564
2.224,-0.40722394,12.763081,-29.898657,0.096741,0.036799192,-1.2177292
2.226,-0.21060562,12.047594,-29.468056,0.2335209,-0.22273302,-1.2785239
2.228,-0.0025434494,11.362837,-29.012632,0.36074775,-0.48130986,-1.3392467
2.23,0.21468711,10.710159,-28.533005,0.48011142,-0.7363982,-1.4004345
2.232,0.4393897,10.090763,-28.030676,0.5933103,-0.9856914,-1.4628012
2.234,0.6693094,9.505927,-27.507732,0.7019739,-1.227231,-1.5271599
2.236,0.9027982,8.956781,-26.966368,0.8076249,-1.4595474,-1.5943196
2.238,1.1384418,8.444035,-26.409075,0.91158,-1.6817195,-1.6650077
2.24,1.3745282,7.9681654,-25.838757,1.014946,-1.8933971,-1.7398001
2.242,1.6100516,7.5300064,-25.258287,1.118549,-2.09477,-1.8190268
2.244,1.8438952,7.130008,-24.669844,1.2229463,-2.2865179,-1.9027213
2.246,2.0752597,6.767807,-24.076015,1.3284441,-2.4697149,-1.9906272
2.248,2.3036604,6.443201,-23.478844,1.4351075,-2.6456938,-2.0822198
2.25,2.5285943,6.1557937,-22.880363,1.542831,-2.8159492,-2.176774
2.252,2.7497377,5.9052224,-22.282402,1.6513833,-2.982018,-2.2734232
2.254,2.9669707,5.6908984,-21.68636,1.7604553,-3.145339,-2.3712668
2.256,3.1802638,5.5119166,-21.093157,1.8697324,-3.3071752,-2.469449
2.258,3.3896933,5.367104,-20.503325,1.9789146,-3.4685419,-2.5672472
2.26,3.5955782,5.2551217,-19.91705,2.0877445,-3.6301765,-2.6641068
2.262,3.7982366,5.1747212,-19.334343,2.1960363,-3.7924864,-2.7596908
2.264,3.9980407,5.1243734,-18.754992,2.3036883,-3.9555514,-2.8538725
2.266,4.1951995,5.102563,-18.178461,2.4106603,-4.1191607,-2.9467483
2.268,4.3902445,5.1076612,-17.604172,2.5169542,-4.28285,-3.038567
2.27,4.5838146,5.137862,-17.031294,2.6226444,-4.4459615,-3.1297026
2.272,4.7763014,5.1913204,-16.458908,2.7278605,-4.607681,-3.2206082
2.274,4.96832,5.266279,-15.88616,2.832763,-4.767097,-3.3117428
2.276,5.1604037,5.36077,-15.31214,2.9375436,-4.923257,-3.403529
2.278,5.352854,5.4730177,-14.735911,3.042415,-5.0752077,-3.4962916
2.28,5.5461006,5.601258,-14.156646,3.1476278,-5.222044,-3.5902474
2.282,5.7405653,5.74387,-13.573521,3.2534297,-5.3629246,-3.6854856
2.284,5.9365673,5.89935,-12.98608,3.36008,-5.4971027,-3.7819602
2.286,6.134157,6.066165,-12.393674,3.467845,-5.6239223,-3.879528
2.288,6.3335123,6.243058,-11.795945,3.576965,-5.74283,-3.9779558
2.29,6.535136,6.4287643,-11.192748,3.687637,-5.853337,-4.0769444
2.292,6.73896,6.622196,-10.58427,3.800051,-5.9550066,-4.176143
2.294,6.9451323,6.8222885,-9.970645,3.914373,-6.047456,-4.275181
2.296,7.153569,7.028414,-9.352506,4.0307384,-6.1302824,-4.373703
2.298,7.36446,7.240136,-8.730556,4.1492715,-6.2030444,-4.4713793
2.3,7.577614,7.457073,-8.105755,4.2700977,-6.2652483,-4.567913
2.302,7.793214,7.6789665,-7.479272,4.3933682,-6.3163486,-4.6630554
2.304,8.011372,7.905668,-6.8525634,4.51925,-6.3557343,-4.756597
2.306,8.23184,8.136969,-6.2273617,4.6479397,-6.3827496,-4.848366
2.308,8.454744,8.372692,-5.605195,4.779682,-6.396748,-4.938198
2.31,8.679984,8.612834,-4.9881454,4.9147253,-6.3971424,-5.02598
2.312,8.907576,8.857543,-4.3782253,5.0533233,-6.383442,-5.111592
2.314,9.137509,9.107099,-3.7776062,5.195694,-6.35535,-5.1949086
2.316,9.370074,9.361432,-3.1885977,5.3420043,-6.3127975,-5.2758236
2.318,9.60529,9.621002,-2.613373,5.492334,-6.2559996,-5.354226
2.32,9.843345,9.885824,-2.054062,5.646662,-6.1854973,-5.429995
2.322,10.084475,10.156085,-1.5126958,5.804846,-6.102172,-5.5029936
2.324,10.329182,10.431976,-0.9911351,5.9666114,-6.007268,-5.5730314
2.326,10.577558,10.713716,-0.49114752,6.131574,-5.9023304,-5.6399093
2.328,10.830029,11.001634,-0.014164686,6.299244,-5.7892017,-5.703383
2.33,11.087143,11.29592,0.43832517,6.46901,-5.669997,-5.763209
2.332,11.349443,11.596879,0.86517453,6.6401796,-5.5469995,-5.819167
2.334,11.617564,11.904884,1.2656012,6.8119764,-5.422621,-5.8710637
2.336,11.892145,12.220291,1.6390219,6.9835625,-5.2993655,-5.9187646
2.338,12.173971,12.543412,1.9849367,7.1540217,-5.1797485,-5.962211
2.34,12.463879,12.874724,2.30339,7.322413,-5.066225,-6.001405
2.342,12.762556,13.214625,2.5946612,7.487768,-4.961143,-6.0364194
2.344,13.070923,13.56358,2.8590798,7.6491184,-4.8666897,-6.0674224
2.346,13.38986,13.921873,3.0971704,7.805486,-4.784875,-6.0946336
2.348,13.720142,14.289738,3.3097916,7.9559016,-4.717485,-6.118333
2.35,14.062652,14.667511,3.4978166,8.099458,-4.6660776,-6.138834
2.352,14.418175,15.055301,3.662366,8.235266,-4.6319604,-6.1564727
2.354,14.787322,15.45314,3.804618,8.362499,-4.616179,-6.17161
2.356,15.170788,15.861032,3.9261236,8.480389,-4.619505,-6.18469
2.358,15.569033,16.278545,4.02846,8.588241,-4.6424475,-6.196204
2.36,15.982589,16.70531,4.113088,8.685438,-4.685238,-6.206746
2.362,16.411865,17.140461,4.1818447,8.77147,-4.747837,-6.217004
2.364,16.857063,17.582947,4.236337,8.84592,-4.8299284,-6.2277503
2.366,17.318516,18.031599,4.2782516,8.908494,-4.9310026,-6.239889
2.368,17.795967,18.485043,4.309395,8.958995,-5.0503283,-6.25443
2.37,18.289352,18.941399,4.3315954,8.997301,-5.1870117,-6.2724533
2.372,18.798334,19.398148,4.346595,9.023386,-5.3400254,-6.295105
2.374,19.322546,19.852507,4.356512,9.037278,-5.508246,-6.3235617
2.376,19.861343,20.301659,4.3633966,9.039034,-5.6904984,-6.358955
2.378,20.415659,20.74186,4.3687553,9.028695,-5.8855762,-6.402317
2.38,20.982544,21.170448,4.3756456,9.006279,-6.092266,-6.4544992
2.382,21.560356,21.584236,4.3859425,8.971762,-6.309336,-6.516142
2.384,22.147907,21.979664,4.4012117,8.925064,-6.5355663,-6.5876145
2.386,22.743568,22.353119,4.423169,8.866067,-6.76975,-6.6689625
2.388,23.345268,22.700867,4.4533367,8.794588,-7.0106387,-6.7599354
2.39,23.950502,23.019478,4.4930153,8.710454,-7.2569547,-6.8599515
2.392,24.556828,23.305693,4.543392,8.613479,-7.507356,-6.9681773
2.394,25.161589,23.556276,4.6055098,8.503528,-7.7603836,-7.083575
2.396,25.762291,23.7682,4.679968,8.380558,-8.014505,-7.2049313
2.398,26.35642,23.93843,4.7670126,8.244686,-8.268119,-7.3309836
2.4,26.94123,24.064442,4.8664703,8.096207,-8.519541,-7.46047
2.402,27.513826,24.143879,4.9780974,7.9355736,-8.767085,-7.592174
2.404,28.071287,24.17457,5.1012263,7.763446,-9.009136,-7.725013
2.406,28.610798,24.154608,5.2351193,7.580684,-9.244048,-7.858096
2.408,29.12948,24.082258,5.378454,7.388188,-9.470788,-7.990728
2.41,29.624252,23.956371,5.5298142,7.186924,-9.68848,-8.122358
2.412,30.092127,23.776392,5.6873064,6.9779263,-9.896284,-8.25265
2.414,30.530018,23.542011,5.849042,6.7620916,-10.093786,-8.381386
2.416,30.93503,23.253645,6.012846,6.540097,-10.28097,-8.508434
2.418,31.304081,22.91208,6.1762114,6.3124065,-10.458071,-8.633573
2.42,31.63443,22.518532,6.336883,6.079232,-10.625503,-8.75643
2.422,31.923027,22.074356,6.492491,5.84055,-10.783762,-8.876472
2.424,32.167057,21.581417,6.640872,5.5960913,-10.933387,-8.99295
2.426,32.363766,21.04243,6.7798786,5.345396,-11.074863,-9.10491
2.428,32.510475,20.460281,6.9074607,5.087858,-11.20853,-9.211198
2.43,32.604748,19.83899,7.0217743,4.822812,-11.334539,-9.310499
2.432,32.644386,19.182652,7.1212606,4.5495687,-11.452839,-9.401478
2.434,32.62756,18.495764,7.204736,4.267499,-11.56315,-9.482791
2.436,32.55275,17.783382,7.2713685,3.9761124,-11.665039,-9.553191
2.438,32.4189,17.050697,7.320508,3.6750832,-11.757924,-9.611543
2.44,32.225418,16.303019,7.3521647,3.3643603,-11.841259,-9.656914
2.442,31.972105,15.545691,7.366453,3.04424,-11.914529,-9.688526
2.444,31.659126,14.784138,7.3637686,2.7153783,-11.977276,-9.70584
2.446,31.287361,14.023931,7.3447285,2.3788714,-12.029116,-9.7084255
2.448,30.858067,13.270339,7.3102307,2.0362315,-12.069675,-9.695962
2.45,30.373219,12.52841,7.261038,1.6893868,-12.098557,-9.6682205
2.452,29.835281,11.802794,7.1981707,1.3406434,-12.115173,-9.624908
2.454,29.247297,11.098061,7.1227374,0.9926541,-12.11872,-9.565737
2.456,28.612747,10.418224,7.0357013,0.64835,-12.108169,-9.4903755
2.458,27.935732,9.766895,6.9378157,0.31081438,-12.082212,-9.398497
2.46,27.220482,9.147074,6.8298974,-0.016852856,-12.039377,-9.289841
2.462,26.471613,8.5611725,6.712269,-0.3315308,-11.97772,-9.16428
2.464,25.693935,8.01118,6.585097,-0.6303139,-11.89547,-9.021848
2.466,24.892742,7.498358,6.4482965,-0.9106517,-11.791099,-8.862791
2.468,24.07328,7.023617,6.3014746,-1.1702638,-11.663048,-8.687662
2.47,23.240767,6.587222,6.1443706,-1.4072907,-11.509949,-8.497275
2.472,22.40047,6.1891966,5.976271,-1.6203625,-11.330905,-8.2926855
2.474,21.557476,5.829237,5.79669,-1.8086176,-11.125497,-8.075123
2.476,20.716545,5.506297,5.6048913,-1.9716988,-10.893814,-7.8458934
2.478,19.882935,5.2192554,5.400014,-2.1096597,-10.636459,-7.606303
2.48,19.061287,4.9666896,5.181403,-2.222941,-10.354522,-7.357604
2.482,18.25565,4.7477202,4.948669,-2.3123012,-10.049569,-7.1009674
2.484,17.47005,4.5606556,4.701221,-2.3787756,-9.723548,-6.837392
2.486,16.70836,4.4033523,4.4389515,-2.4235897,-9.37875,-6.5677085
2.488,15.972183,4.274263,4.16233,-2.448166,-9.017666,-6.2925673
2.49,15.266295,4.1704493,3.8707564,-2.454086,-8.642953,-6.012483
2.492,14.593376,4.0897255,3.5652604,-2.4430091,-8.257271,-5.7278695
2.494,13.955086,4.030233,3.2471328,-2.4166932,-7.863262,-5.4391413
2.496,13.35306,3.989974,2.9175446,-2.3769197,-7.4634867,-5.146725
2.498,12.789009,3.9669945,2.5781085,-2.3254707,-7.060465,-4.851168
2.5,12.26398,3.9592822,2.2306168,-2.2641013,-6.6566024,-4.553214
2.502,11.778302,3.9647548,1.8771996,-2.194441,-6.2541666,-4.253859
2.504,11.332054,3.9815779,1.5200775,-2.1179762,-5.855246,-3.9543707
2.506,10.925324,4.0079327,1.1615138,-2.0360355,-5.4617844,-3.656307
2.508,10.55766,4.042324,0.8039521,-1.9497774,-5.075585,-3.3613994
2.51,10.228549,4.0831614,0.4499187,-1.8602215,-4.69827,-3.071446
2.512,9.937146,4.129194,0.10179776,-1.7682244,-4.3312483,-2.7882218
2.514,9.682515,4.179488,-0.23843956,-1.6744716,-3.9757113,-2.5133333
2.516,9.463621,4.2329326,-0.56853044,-1.5795333,-3.632622,-2.2481034
2.518,9.279178,4.2887173,-0.8863049,-1.4838754,-3.3026783,-1.9934734
2.52,9.12776,4.345682,-1.1897697,-1.3878359,-2.9862819,-1.7499591
2.522,9.007953,4.402932,-1.4770062,-1.2916569,-2.683518,-1.5176984
2.524,8.918242,4.4596887,-1.7465198,-1.1954948,-2.394217,-1.2965338
2.526,8.856908,4.515234,-1.9967582,-1.0994455,-2.11797,-1.0860872
2.528,8.822044,4.568943,-2.2266138,-1.003542,-1.8541498,-0.8858025
2.53,8.811873,4.6204767,-2.4351778,-0.90777737,-1.6019129,-0.695019
2.532,8.824682,4.6696916,-2.621941,-0.81211936,-1.360235,-0.51306003
2.534,8.858607,4.716331,-2.7865958,-0.71650904,-1.1279315,-0.33928353
2.536,8.911739,4.7601595,-2.9290915,-0.62087035,-0.9038044,-0.17308576
2.538,8.982405,4.8008304,-3.04971,-0.525122,-0.68667763,-0.013931878
2.54,9.068648,4.8380337,-3.1488407,-0.42916307,-0.47543254,0.13865282
2.542,9.1689,4.871498,-3.2273002,-0.33288175,-0.2690426,0.2850512
2.544,9.281265,4.9011755,-3.2862334,-0.2362021,-0.066612504,0.42551878
2.546,9.404208,4.926691,-3.3267806,-0.1391106,0.1325995,0.560185
2.548,9.536181,4.9479475,-3.3503132,-0.04164787,0.32917756,0.68907005
2.55,9.675571,4.9650183,-3.3584297,0.056090735,0.5235772,0.8121059
2.552,9.821021,4.977763,-3.3527842,0.15397817,0.71617794,0.9291759
2.554,9.971485,4.9861174,-3.3349204,0.25187403,0.90727127,1.0401318
2.556,10.125841,4.9897084,-3.3066735,0.34964022,1.0970736,1.1448238
2.558,10.282921,4.9883976,-3.2696927,0.44716182,1.2857218,1.243147
2.56,10.441773,4.981965,-3.2256334,0.54436517,1.4732802,1.3350718
2.562,10.601602,4.9701443,-3.1762393,0.6412417,1.6597565,1.4206021
2.564,10.7614765,4.9527082,-3.1231556,0.7378419,1.8450865,1.4997958
2.566,10.920497,4.9293904,-3.067744,0.83422434,2.0290613,1.5727987
2.568,11.078123,4.8998446,-3.011296,0.93043256,2.2113755,1.6397685
2.57,11.233685,4.864096,-2.9551604,1.0264975,2.391645,1.7008545
2.572,11.386577,4.821926,-2.9002078,1.1223917,2.569397,1.7561829
2.574,11.536398,4.7731686,-2.8473492,1.2180116,2.744107,1.805892
2.576,11.682449,4.717743,-2.7972217,1.3131808,2.915248,1.8501675
2.578,11.824329,4.6556025,-2.7503924,1.4076943,3.0823474,1.8892334
2.58,11.961534,4.5867105,-2.7073374,1.5013273,3.2449875,1.9232943
2.582,12.093654,4.5110393,-2.668318,1.5938202,3.4027836,1.9525689
2.584,12.220442,4.4285383,-2.6335824,1.6849284,3.5553455,1.9772514
2.586,12.341485,4.3394156,-2.6031463,1.774398,3.7023103,1.9975351
2.588,12.456122,4.2437215,-2.5769749,1.8620007,3.8433063,2.013616
2.59,12.564005,4.1417804,-2.5550666,1.9475265,3.978026,2.0256584
2.592,12.665062,4.033559,-2.537427,2.0307899,4.106152,2.0338187
2.594,12.758903,3.9195795,-2.5237756,2.1116116,4.2273693,2.038289
2.596,12.845035,3.8004808,-2.514036,2.1898482,4.341321,2.039295
2.598,12.923413,3.6768332,-2.507936,2.265414,4.4476724,2.0371232
2.6,12.993837,3.5490913,-2.5052867,2.3382576,4.5460877,2.0320935
2.602,13.056057,3.4179113,-2.5059638,2.4083652,4.6362305,2.0245588
2.604,13.1095495,3.2837796,-2.5096626,2.4757533,4.7177477,2.0148652
2.606,13.154207,3.147421,-2.5163183,2.540449,4.7902727,2.003369
2.608,13.189659,3.009593,-2.5259128,2.6024847,4.853426,1.9904534
2.61,13.216023,2.870829,-2.5382273,2.6618865,4.906826,1.9764838
2.612,13.2332945,2.7319155,-2.553309,2.7186747,4.9501057,1.9618055
2.614,13.241567,2.593453,-2.571116,2.7728662,4.982918,1.9467032
2.616,13.240452,2.456225,-2.5914412,2.8244405,5.0049524,1.931403
2.618,13.229985,2.320821,-2.614226,2.873346,5.015947,1.9160551
2.62,13.210134,2.187818,-2.6394024,2.9195092,5.015693,1.900736
2.622,13.181359,2.05736,-2.667091,2.9628384,5.004092,1.8854531
2.624,13.143887,1.9297712,-2.6971185,3.0032449,4.981116,1.8701502
2.626,13.097969,1.8055058,-2.7295308,3.0406208,4.9468417,1.8547624
2.628,13.043844,1.6848145,-2.7643852,3.074878,4.901462,1.8392181
2.63,12.9819765,1.5681345,-2.8017125,3.1059356,4.8452635,1.8234493
2.632,12.91272,1.4555645,-2.841515,3.13374,4.7786207,1.8074329
2.634,12.83664,1.3474009,-2.883771,3.158247,4.701986,1.7911918
2.636,12.7542925,1.2437408,-2.9284487,3.1794467,4.6158686,1.7748017
2.638,12.666194,1.1447177,-2.9755783,3.197347,4.520834,1.7583947
2.64,12.573021,1.0505025,-3.0251684,3.2119634,4.4174695,1.7421298
2.642,12.475384,0.9612894,-3.07717,3.2233217,4.306391,1.7262069
2.644,12.373999,0.87723684,-3.131424,3.2314866,4.1881914,1.7108155
2.646,12.269493,0.7984674,-3.187798,3.2365227,4.0634604,1.6961678
2.648,12.162589,0.7252643,-3.2461267,3.2385056,3.932732,1.6824415
2.65,12.05396,0.65753937,-3.3062234,3.237538,3.7965102,1.669812
2.652,11.944134,0.59561944,-3.3678484,3.2337327,3.6552367,1.6584122
2.654,11.833689,0.53971314,-3.4307318,3.2272215,3.5093007,1.6483405
2.656,11.7234125,0.4898317,-3.494658,3.2181368,3.3590448,1.6396519
2.658,11.613707,0.44615412,-3.559342,3.206615,3.2047875,1.6323576
2.66,11.505224,0.40867114,-3.6244915,3.1927814,3.0468025,1.6263992
2.662,11.398285,0.37773943,-3.6897817,3.176757,2.8853698,1.6216774
2.664,11.2932415,0.35314322,-3.7550006,3.1586232,2.7207732,1.6180552
2.666,11.190607,0.3350327,-3.8197496,3.138451,2.553289,1.6153321
2.668,11.09074,0.32331324,-3.8836985,3.1162672,2.3832378,1.6133221
2.67,10.993668,0.3179388,-3.9465103,3.0920856,2.2109356,1.6118064
2.672,10.899689,0.31898117,-4.0078115,3.065882,2.0366993,1.6105676
2.674,10.808796,0.3260045,-4.067231,3.0376294,1.8608665,1.6093743
2.676,10.72122,0.33899832,-4.1245613,3.0072985,1.6837614,1.6080545
2.678,10.6369095,0.35783052,-4.179515,2.9748783,1.5057168,1.6064858
2.68,10.55585,0.3820598,-4.2316895,2.940392,1.3270235,1.604562
2.682,10.478032,0.4115727,-4.2809167,2.903908,1.1479726,1.6022302
2.684,10.403219,0.44604778,-4.3268766,2.8655517,0.9688299,1.5994896
2.686,10.3313,0.48529482,-4.3693104,2.825484,0.78983927,1.5963595
2.688,10.262096,0.52898216,-4.407992,2.7839055,0.6112281,1.5928816
2.69,10.195448,0.5768509,-4.442709,2.74104,0.43321428,1.5890937
2.692,10.131214,0.62854457,-4.4732256,2.6971333,0.25600854,1.5850312
2.694,10.0690775,0.68384266,-4.499254,2.6524553,0.07983053,1.5807189
2.696,10.008947,0.74243045,-4.5206704,2.6072516,-0.09509906,1.5761561
2.698,9.950671,0.80406046,-4.5371647,2.561748,-0.26853383,1.5713519
2.7,9.894003,0.86840725,-4.548668,2.5161722,-0.44020197,1.5662829
2.702,9.8388195,0.935225,-4.554846,2.4707322,-0.6098387,1.560944
2.704,9.785032,1.0043008,-4.5556498,2.4256,-0.77714145,1.5553167
2.706,9.732525,1.0752654,-4.5509157,2.380938,-0.9418167,1.5493965
2.708,9.681374,1.1478858,-4.5405164,2.3369026,-1.1035771,1.5431918
2.71,9.631502,1.2220492,-4.5243053,2.293645,-1.2621503,1.5367146
2.712,9.582855,1.2973392,-4.50228,2.2512908,-1.4172914,1.5299762
2.714,9.535613,1.3735394,-4.4743843,2.209972,-1.5687842,1.5230007
2.716,9.489698,1.4504321,-4.4405174,2.1697931,-1.7164617,1.51579
2.718,9.445322,1.5277181,-4.4007134,2.1308582,-1.8601818,1.5083382
2.72,9.402485,1.6052837,-4.3552294,2.0932436,-1.9998538,1.5006332
2.722,9.361523,1.6827946,-4.304056,2.0570333,-2.1354394,1.492626
2.724,9.322304,1.7599812,-4.2472982,2.0222836,-2.2669148,1.4842889
2.726,9.285164,1.836669,-4.1851306,1.9890509,-2.3942995,1.4755795
2.728,9.250147,1.9126246,-4.117687,1.9573534,-2.5176418,1.4664625
2.73,9.217512,1.9876282,-4.0452404,1.9272144,-2.6370075,1.4568853
2.732,9.187381,2.0615726,-3.9679434,1.8986356,-2.75248,1.4468027
2.734,9.159878,2.1341872,-3.8859897,1.8716192,-2.86413,1.4361905
2.736,9.134995,2.2054014,-3.7996538,1.8461523,-2.9720416,1.4250178
2.738,9.112833,2.275105,-3.7091026,1.8222222,-3.0762668,1.4132881
2.74,9.093564,2.3432028,-3.6146574,1.7998242,-3.1768527,1.4010192
2.742,9.077131,2.4096909,-3.5166256,1.7789619,-3.2738047,1.3882401
2.744,9.063504,2.4744244,-3.4151769,1.7596462,-3.3671198,1.3749814
2.746,9.052735,2.53743,-3.3107028,1.7418933,-3.4567623,1.3613
2.748,9.044816,2.5987868,-3.2034795,1.7257259,-3.54268,1.3472731
2.75,9.039414,2.6585407,-3.0937245,1.7111802,-3.6248214,1.3329635
2.752,9.036538,2.7166624,-2.9818623,1.6983024,-3.7031045,1.318453
2.754,9.036106,2.7733514,-2.8682802,1.6871212,-3.7774515,1.3038373
2.756,9.037827,2.8287988,-2.7533293,1.67767,-3.8477814,1.2891953
2.758,9.041557,2.8830922,-2.6374822,1.6699795,-3.9140415,1.2746236
2.76,9.047151,2.9365819,-2.520947,1.6640546,-3.9761739,1.2602148
2.762,9.05419,2.9892938,-2.404192,1.6598904,-4.0341377,1.2460458
2.764,9.062705,3.0415285,-2.28748,1.6574625,-4.0879364,1.232187
2.766,9.072358,3.0934732,-2.1711974,1.6567411,-4.137587,1.2187119
2.768,9.082843,3.1453128,-2.055632,1.6576766,-4.1831384,1.2056556
2.77,9.093911,3.1971989,-1.9410701,1.6602116,-4.224655,1.1930482
2.772,9.105299,3.249291,-1.8278201,1.6642723,-4.262233,1.1809086
2.774,9.116776,3.3017144,-1.716145,1.6697702,-4.2959733,1.1692264
2.776,9.127958,3.3544474,-1.6062126,1.6766059,-4.3260016,1.1579974
2.778,9.138686,3.407629,-1.4982588,1.684688,-4.352452,1.1471899
2.78,9.148711,3.4612598,-1.392407,1.6939262,-4.3754625,1.1367733
2.782,9.157565,3.5152645,-1.2888365,1.7042252,-4.395171,1.1267178
2.784,9.165199,3.569775,-1.1876433,1.7154853,-4.41172,1.1169944
2.786,9.171263,3.6245422,-1.0888262,1.7276297,-4.425219,1.1075845
2.788,9.175536,3.6794784,-0.9924259,1.7405723,-4.4357815,1.0984827
2.79,9.177876,3.7344427,-0.8985243,1.7542421,-4.4434943,1.0897107
2.792,9.178022,3.789365,-0.80703235,1.7685807,-4.448452,1.0812752
2.794,9.175699,3.844028,-0.7179327,1.7835295,-4.450716,1.073209
2.796,9.170757,3.8982615,-0.6312034,1.7990366,-4.450371,1.0655627
2.798,9.162861,3.9519367,-0.5467088,1.815049,-4.4474764,1.0583935
2.8,9.152019,4.0047083,-0.46431875,1.8315125,-4.4421234,1.051748
2.802,9.137892,4.05651,-0.38406587,1.8483787,-4.434415,1.0456741
2.804,9.120447,4.1070724,-0.30589747,1.8655798,-4.424461,1.0402336
2.806,9.099545,4.156112,-0.22958803,1.8830684,-4.4124084,1.0354509
2.808,9.075238,4.203395,-0.15508962,1.9007833,-4.3984203,1.0313537
2.81,9.047226,4.248797,-0.08223128,1.9186468,-4.382661,1.0279472
2.812,9.015439,4.292122,-0.01097703,1.9365917,-4.365324,1.0252175
2.814,8.979869,4.3331847,0.05880785,1.9545543,-4.346615,1.0231347
2.816,8.940429,4.371868,0.12722754,1.9724592,-4.326724,1.0216796
2.818,8.896946,4.40816,0.19436455,1.9902319,-4.305849,1.0208111
2.82,8.849452,4.441943,0.2603507,2.0077767,-4.284178,1.020495
2.822,8.797842,4.4732604,0.3253615,2.0249968,-4.2618856,1.0207326
2.824,8.742098,4.502159,0.38938642,2.0418005,-4.239135,1.0215293
2.826,8.682131,4.528634,0.45257616,2.0580904,-4.216049,1.0229113
2.828,8.6178875,4.552866,0.5150082,2.0737727,-4.192734,1.0249408
2.83,8.549265,4.57501,0.57688713,2.088737,-4.169303,1.0276867
2.832,8.476126,4.595236,0.6381848,2.1028666,-4.145854,1.0312362
2.834,8.398531,4.613847,0.6990795,2.1160762,-4.1224427,1.0356779
2.836,8.316255,4.6310225,0.7596402,2.128303,-4.0991187,1.0411122
2.838,8.229243,4.6471376,0.8200574,2.1394963,-4.075895,1.0476413
2.84,8.13729,4.6624446,0.8804474,2.1496372,-4.0527687,1.0553501
2.842,8.040179,4.6774044,0.94103074,2.1587133,-4.0297046,1.0643164
2.844,7.937894,4.6923,1.0018592,2.166743,-4.006646,1.0745854
2.846,7.8303576,4.70746,1.0632088,2.1737604,-3.983494,1.086201
2.848,7.7172384,4.7233276,1.1251075,2.1798139,-3.9601166,1.0991827
2.85,7.5984645,4.7401557,1.1879499,2.1849942,-3.9363236,1.1135249
2.852,7.473827,4.758381,1.2518511,2.1894007,-3.91188,1.1292336
2.854,7.343193,4.7784057,1.3169472,2.1931686,-3.8864806,1.1463294
2.856,7.206466,4.800493,1.3836185,2.1964543,-3.859774,1.1648421
2.858,7.0635114,4.8249664,1.452098,2.199439,-3.831356,1.1848071
2.86,6.91429,4.851736,1.5223941,2.2022989,-3.8007984,1.2063048
2.862,6.7588243,4.881119,1.5947961,2.205223,-3.7676578,1.2294168
2.864,6.59711,4.913089,1.6693861,2.208391,-3.7315116,1.2542396
2.866,6.429317,4.9478173,1.7463772,2.211948,-3.6919687,1.2808535
2.868,6.255377,4.985352,1.8260608,2.2159936,-3.6486778,1.3093235
2.87,6.075372,5.025843,1.908453,2.220603,-3.6013684,1.339668
2.872,5.889807,5.069122,1.9938654,2.2258167,-3.549815,1.3718996
2.874,5.698796,5.114957,2.082159,2.2316542,-3.493856,1.4059861
2.876,5.502722,5.163276,2.1733935,2.2381027,-3.433387,1.441859
2.878,5.302114,5.2138195,2.2674608,2.2451303,-3.3683395,1.4794486
2.88,5.09741,5.266448,2.3642457,2.2527056,-3.2986927,1.518663
2.882,4.8893943,5.3206654,2.4637127,2.2608116,-3.2244017,1.5594192
2.884,4.6786532,5.376391,2.5655425,2.2694485,-3.1454196,1.6016258
2.886,4.465808,5.433249,2.6696396,2.278646,-3.0617018,1.6452141
2.888,4.2514453,5.4908156,2.7757006,2.2884219,-2.9732037,1.6901224
2.89,4.03639,5.5488167,2.8835762,2.2988245,-2.8798962,1.7362816
2.892,3.8213599,5.6068487,2.992936,2.3098962,-2.781747,1.7836418
2.894,3.6070187,5.664537,3.103496,2.3216796,-2.678755,1.8321557
2.896,3.3943212,5.721498,3.2147784,2.3342319,-2.5709286,1.8817788
2.898,3.1836607,5.777322,3.326458,2.3475966,-2.4582837,1.9324561
2.9,2.9758031,5.831783,3.4380999,2.361825,-2.3408298,1.984098
2.902,2.771505,5.884411,3.5491815,2.3769426,-2.21856,2.036603
2.904,2.5714457,5.934837,3.6590438,2.3929675,-2.0914598,2.0898695
2.906,2.375983,5.982767,3.7669618,2.409905,-1.959502,2.1437917
2.908,2.185744,6.028037,3.8723366,2.4277482,-1.8226782,2.1982634
2.91,2.000995,6.070532,3.9747589,2.446489,-1.6809831,2.2532036
2.912,1.822554,6.109955,4.0733795,2.4661093,-1.5344541,2.3085306
2.914,1.6504523,6.14612,4.167515,2.4865768,-1.3831844,2.3641481
2.916,1.4848752,6.1790395,4.2564216,2.5078099,-1.2273505,2.4199502
2.918,1.3257887,6.2085457,4.339319,2.5296884,-1.0672148,2.475793
2.92,1.1735142,6.2345657,4.4154587,2.552034,-0.90314734,2.5314772
2.922,1.0278655,6.2569904,4.4842,2.5746472,-0.735638,2.5867612
2.924,0.8886589,6.2757716,4.544902,2.597271,-0.5652782,2.6413708
2.926,0.7558662,6.2909064,4.596946,2.6196518,-0.39272928,2.695006
2.928,0.62912834,6.3023167,4.639729,2.6415513,-0.21870911,2.7473745
2.93,0.5080016,6.310117,4.672655,2.6627638,-0.04393053,2.7981844
2.932,0.39213294,6.314207,4.6952252,2.6831105,0.130885,2.847148
2.934,0.28098446,6.3146825,4.707028,2.702439,0.3050586,2.8940115
2.936,0.17402829,6.3115807,4.7074933,2.7206094,0.47796404,2.9385366
2.938,0.07061662,6.3048797,4.696203,2.7374878,0.6490727,2.9804726
2.94,-0.02976609,6.2946625,4.672839,2.7529464,0.8179005,3.0195673
2.942,-0.12791716,6.281005,4.63709,2.7668302,0.9840739,3.0555284
2.944,-0.22447938,6.263992,4.5886326,2.7789042,1.1473175,3.0880334
2.946,-0.32008752,6.243725,4.5272903,2.788898,1.3074412,3.116756
2.948,-0.4153615,6.220348,4.4530015,2.7964916,1.4642887,3.141377
2.95,-0.51092386,6.1941156,4.3656025,2.801334,1.6177044,3.161613
2.952,-0.6073345,6.1650095,4.265106,2.8030603,1.767444,3.1772408
2.954,-0.70520777,6.1333604,4.1515794,2.801321,1.9131604,3.1881065
2.956,-0.8050827,6.0993395,4.0251646,2.795814,2.0543966,3.19412
2.958,-0.90718734,6.0630956,3.8861918,2.786258,2.190561,3.1952481
2.96,-1.0121768,6.024925,3.7347655,2.772439,2.3209584,3.1915064
2.962,-1.120345,5.9849977,3.5713043,2.7541862,2.4448063,3.1829665
2.964,-1.2319535,5.943492,3.3962486,2.7313535,2.5612562,3.1697485
2.966,-1.3472884,5.9007273,3.2100303,2.7038586,2.6694527,3.152007
2.968,-1.4666,5.8568563,3.0132537,2.6716697,2.7685707,3.1299403
2.97,-1.5898976,5.812291,2.806793,2.6348162,2.8578515,3.103786
2.972,-1.7174609,5.7670684,2.591402,2.593365,2.936591,3.073813
2.974,-1.8492892,5.7214665,2.367949,2.547439,3.0041885,3.0403242
2.976,-1.985466,5.6755867,2.1373847,2.497168,3.0601249,3.003634
2.978,-2.1257665,5.6294456,1.9006448,2.442737,3.1039445,2.9640605
2.98,-2.2701888,5.583065,1.6589124,2.3843076,3.135245,2.9219122
2.982,-2.41871,5.5367894,1.4133276,2.3220592,3.1536858,2.8775048
2.984,-2.5710282,5.4906588,1.1653517,2.256168,3.1589568,2.8311567
2.986,-2.727032,5.4447293,0.91628075,2.1868303,3.150814,2.7831707
2.988,-2.8863976,5.399086,0.66755956,2.1142359,3.1290922,2.7338195
2.99,-3.048626,5.353641,0.42058325,2.0385787,3.0937104,2.683395
2.992,-3.2136776,5.3085575,0.17683196,1.9600601,3.044672,2.63218
2.994,-3.3810945,5.263732,-0.062359214,1.8788891,2.9821396,2.5804381
2.996,-3.550198,5.2191596,-0.2957291,1.7953157,2.9063854,2.528442
2.998,-3.720555,5.1749005,-0.52190274,1.7096384,2.8178177,2.4764433
3,-3.8915358,5.130746,-0.73979133,1.622166,2.7169573,2.4246707
3.002,-4.062658,5.0867267,-0.9481277,1.5332178,2.6044877,2.3733149
3.004,-4.2334385,5.042869,-1.1458352,1.4431146,2.481226,2.3225307
3.006,-4.403316,4.999092,-1.3318179,1.3521851,2.348116,2.2724643
3.008,-4.571618,4.955368,-1.5051615,1.2607472,2.2061715,2.2232063
3.01,-4.737796,4.91156,-1.665057,1.1691142,2.0564754,2.1748443
3.012,-4.9013867,4.8676353,-1.8107188,1.0776005,1.9001579,2.1274514
3.014,-5.0619025,4.823612,-1.9413841,0.9864954,1.7383429,2.0810814
3.016,-5.218891,4.7794185,-2.0565896,0.89606726,1.5721636,2.0357826
3.018,-5.3719225,4.7348547,-2.156028,0.8065883,1.4027281,1.9915966
3.02,-5.5207443,4.689802,-2.2398043,0.7182938,1.2311019,1.9485815
3.022,-5.66521,4.644298,-2.3075526,0.63142455,1.0583072,1.9067771
3.024,-5.8049445,4.5983133,-2.359446,0.5462073,0.88532996,1.8662126
3.026,-5.939683,4.551732,-2.3957672,0.4628717,0.71313405,1.8269126
3.028,-6.0693254,4.504548,-2.4166718,0.38163614,0.54262424,1.7888812
3.03,-6.193841,4.456732,-2.422605,0.3027414,0.37469718,1.7521073
3.032,-6.313203,4.4083276,-2.414035,0.22641194,0.21022052,1.7165563
3.034,-6.4273176,4.35925,-2.3914952,0.15290082,0.050011426,1.682193
3.036,-6.53655,4.309542,-2.3556614,0.08244786,-0.10515222,1.6489505
3.038,-6.640797,4.259081,-2.3070445,0.015290737,-0.25456136,1.6167672
3.04,-6.7402854,4.2078834,-2.246412,-0.048322767,-0.39757374,1.585582
3.042,-6.8351393,4.1560073,-2.1743333,-0.1081796,-0.53367114,1.5553272
3.044,-6.9256334,4.1034546,-2.091635,-0.16409203,-0.66241956,1.5259265
3.046,-7.011861,4.050225,-1.9988948,-0.21588796,-0.7834811,1.4973154
3.048,-7.0940495,3.99641,-1.8968401,-0.2634508,-0.8966228,1.4694338
3.05,-7.172301,3.9419997,-1.7862248,-0.30669236,-1.0017081,1.44224
3.052,-7.2467265,3.8871648,-1.6677895,-0.34553584,-1.0986446,1.415714
3.054,-7.3175497,3.8319948,-1.5422554,-0.37994325,-1.1873821,1.389847
3.056,-7.384892,3.7765298,-1.4103762,-0.4098984,-1.2678989,1.3646613
3.058,-7.448831,3.7208767,-1.2729175,-0.43540412,-1.3401701,1.3401918
3.06,-7.509508,3.6651285,-1.1306185,-0.45649165,-1.4041616,1.3164724
3.062,-7.5668244,3.6094332,-0.9841603,-0.47321302,-1.4598296,1.2935655
3.064,-7.620993,3.5539672,-0.83432096,-0.48564273,-1.5071154,1.2715083
3.066,-7.671908,3.4988286,-0.6817844,-0.4938939,-1.5459678,1.2503285
3.068,-7.7196503,3.4441776,-0.5273291,-0.49809173,-1.576361,1.230052
3.07,-7.7640624,3.3900995,-0.3714741,-0.49837238,-1.5982997,1.2106903
3.072,-7.805043,3.3367636,-0.21495223,-0.49490812,-1.6118251,1.1922324
3.074,-7.842637,3.2842774,-0.058466196,-0.48786515,-1.6170423,1.1746501
3.076,-7.8766937,3.2327724,0.0973438,-0.4774192,-1.6141189,1.1579064
3.078,-7.907007,3.1823463,0.25179052,-0.46374294,-1.6032896,1.1419618
3.08,-7.9335866,3.133174,0.4041617,-0.44701698,-1.5848367,1.1267592
3.082,-7.9562483,3.0853024,0.5537206,-0.42741656,-1.5590675,1.1122392
3.084,-7.9748745,3.0387068,0.69983613,-0.40513968,-1.5263315,1.0983088
3.086,-7.989358,2.9934351,0.84178925,-0.3803924,-1.4869941,1.0848712
3.088,-7.9996824,2.9496083,0.97903526,-0.35339957,-1.4414122,1.0718169
3.09,-8.005713,2.9072838,1.110793,-0.32438892,-1.3899405,1.0590454
3.092,-8.007348,2.8662891,1.2366574,-0.2936002,-1.3329308,1.0464501
3.094,-8.004684,2.8268147,1.3560423,-0.26129383,-1.2707356,1.0339345
3.096,-7.997525,2.7888708,1.4685664,-0.2276974,-1.2037067,1.0214174
3.098,-7.9860487,2.7524428,1.5737113,-0.1930436,-1.1322087,1.0088495
3.1,-7.970237,2.7175539,1.6711724,-0.15755422,-1.0566239,0.9961965
3.102,-7.950108,2.684227,1.7604762,-0.12142357,-0.97731674,0.98341596
3.104,-7.925754,2.6525335,1.8415436,-0.08483513,-0.89466196,0.9704789
3.106,-7.8973765,2.6225228,1.9141657,-0.047971696,-0.80902094,0.9573628
3.108,-7.8649473,2.5942383,1.9780966,-0.010986865,-0.7207447,0.94403917
3.11,-7.828776,2.5677836,2.0334368,0.025963113,-0.6301643,0.9304734
3.112,-7.7889957,2.5432386,2.0800042,0.06272592,-0.53760767,0.91664517
3.114,-7.7456636,2.5206397,2.1178427,0.099148795,-0.44338745,0.90252995
3.116,-7.699277,2.5001054,2.1470041,0.13508321,-0.34781885,0.8880879
3.118,-7.649873,2.4816227,2.1675472,0.17038311,-0.25121808,0.8732979
3.12,-7.597822,2.465271,2.179679,0.2048958,-0.1539136,0.85813296
3.122,-7.5433593,2.451223,2.1835103,0.23845905,-0.056241706,0.8425555
3.124,-7.486625,2.4394312,2.1792693,0.27090752,0.041408837,0.8265126
3.126,-7.427906,2.4299383,2.1673083,0.3020832,0.13862193,0.8099719
3.128,-7.3674817,2.4228032,2.1478968,0.3318149,0.23497453,0.792876
3.13,-7.305564,2.4180384,2.1214428,0.35992628,0.33001417,0.775175
3.132,-7.2423806,2.4156222,2.088251,0.38624698,0.42329222,0.75681835
3.134,-7.1781654,2.4155633,2.0487728,0.4106133,0.5143603,0.73775697
3.136,-7.1130013,2.4177442,2.0034056,0.43287015,0.60278964,0.7179618
3.138,-7.047074,2.4221504,1.9525201,0.45288426,0.68819654,0.69742703
3.14,-6.9806075,2.4286718,1.896581,0.4705482,0.7702591,0.6761473
3.142,-6.9135633,2.437183,1.8358319,0.4857771,0.8486933,0.65414035
3.144,-6.846177,2.4475932,1.7708,0.49852437,0.9232971,0.6314235
3.146,-6.778386,2.4597254,1.7018263,0.50877655,0.9939264,0.6080387
3.148,-6.7102847,2.4734728,1.6293772,0.51654685,1.0604887,0.58402634
3.15,-6.6417494,2.4885292,1.5538173,0.5218711,1.1229333,0.5594224
3.152,-6.572895,2.5048718,1.4755012,0.5248126,1.181228,0.5342436
3.154,-6.5035567,2.5221555,1.3949212,0.5254277,1.2353629,0.50849664
3.156,-6.433856,2.5402052,1.3123217,0.5237766,1.2853192,0.4821946
3.158,-6.3635345,2.558745,1.2280909,0.5199193,1.3310673,0.45531613
3.16,-6.292702,2.5775297,1.1426373,0.51391494,1.3725505,0.42783028
3.162,-6.2212133,2.596304,1.056363,0.5057944,1.4096998,0.39970365
3.164,-6.1490703,2.6147985,0.9695827,0.49559745,1.4424255,0.37091267
3.166,-6.0761857,2.6327267,0.88264084,0.4833599,1.4706388,0.34142178
3.168,-6.002501,2.6499498,0.7959305,0.46912062,1.4942414,0.31121734
3.17,-5.9280696,2.6661892,0.70985234,0.4529014,1.5131366,0.28029907
3.172,-5.852996,2.6813185,0.6247704,0.4347268,1.527241,0.2486776
3.174,-5.7770934,2.6950097,0.54112667,0.41464323,1.5365039,0.21638784
3.176,-5.7004747,2.7072675,0.45913565,0.39268735,1.5408945,0.18347819
3.178,-5.6233025,2.7178686,0.3792808,0.36889857,1.5404156,0.15001044
3.18,-5.5456204,2.7267613,0.30186582,0.34333488,1.5350975,0.116049856
3.182,-5.4675756,2.733833,0.22729456,0.31604433,1.5250053,0.08168718
3.184,-5.389117,2.7390196,0.15598649,0.28708935,1.5102353,0.04699552
3.186,-5.3105154,2.7422986,0.088208854,0.25654805,1.4909109,0.0120642185
3.188,-5.2318377,2.7437034,0.02439773,0.2245005,1.4671856,-0.023027033
3.19,-5.1532393,2.7431777,-0.03518516,0.19102961,1.439236,-0.058214933
3.192,-5.0748425,2.7408535,-0.090024054,0.15623236,1.4072804,-0.093431145
3.194,-4.996766,2.7368193,-0.13993376,0.12020973,1.3715402,-0.12861826
3.196,-4.9189873,2.7310126,-0.18466735,0.08307699,1.3322779,-0.16371703
3.198,-4.8416114,2.7235835,-0.22406465,0.04495363,1.2897558,-0.19867793
3.2,-4.7647,2.7146132,-0.25784868,0.005969748,1.2442747,-0.23346585
3.202,-4.688441,2.7043173,-0.28610158,-0.033736765,1.1961639,-0.26803857
3.204,-4.612839,2.6927085,-0.30868155,-0.07401489,1.1457766,-0.3023553
3.206,-4.5377865,2.6798604,-0.32569832,-0.11469944,1.0934907,-0.33637762
3.208,-4.463369,2.665928,-0.33714944,-0.15562804,1.039698,-0.37006277
3.21,-4.389525,2.6510408,-0.3431893,-0.19662625,0.98478836,-0.40337336
3.212,-4.3162117,2.6352668,-0.34395248,-0.2375275,0.9291855,-0.43626964
3.214,-4.2433453,2.618753,-0.33961457,-0.27817607,0.87328607,-0.46872228
3.216,-4.1708097,2.6015286,-0.3305226,-0.31840688,0.8174643,-0.5007168
3.218,-4.098718,2.5837672,-0.3169548,-0.35809916,0.7620453,-0.5322432
3.22,-4.026812,2.565577,-0.29932135,-0.39714724,0.7073108,-0.5633087
3.222,-3.9549212,2.5469894,-0.2778533,-0.4354784,0.65348566,-0.59392154
3.224,-3.8830569,2.5281277,-0.25297457,-0.47304463,0.6007515,-0.6241065
3.226,-3.8110347,2.5090961,-0.22514355,-0.50983495,0.549229,-0.6539035
3.228,-3.7386796,2.4900067,-0.19472855,-0.54586995,0.49898097,-0.6833432
3.23,-3.6659584,2.470959,-0.16212559,-0.58119583,0.4500408,-0.7124481
3.232,-3.5927207,2.451977,-0.12770152,-0.61584705,0.4024495,-0.74123836
3.234,-3.5188277,2.4331944,-0.09193075,-0.6498784,0.3562283,-0.7697377
3.236,-3.4441457,2.4146705,-0.05511439,-0.6833212,0.3113982,-0.79795396
3.238,-3.3686092,2.3965313,-0.017573893,-0.71620375,0.26800358,-0.82586503
3.24,-3.2920492,2.3788772,0.020321548,-0.7485509,0.22610685,-0.85346586
3.242,-3.2144651,2.3617523,0.05827713,-0.780354,0.18579477,-0.8807342
3.244,-3.1357481,2.3452203,0.0960148,-0.81158185,0.14716548,-0.90764
3.246,-3.0560715,2.3294704,0.13335928,-0.84221435,0.11031977,-0.934158
3.248,-2.9751234,2.314441,0.16995072,-0.8722131,0.07538157,-0.9602609
3.25,-2.892991,2.300294,0.20568833,-0.9015363,0.042453542,-0.9859339
3.252,-2.809739,2.2871132,0.2404069,-0.93014824,0.011653036,-1.0111555
3.254,-2.7252886,2.2750053,0.27389854,-0.95801353,-0.01692745,-1.0359144
3.256,-2.6396973,2.2640884,0.3060314,-0.9851004,-0.043212324,-1.0601953
3.258,-2.5529919,2.2544103,0.33663163,-1.0113943,-0.06714855,-1.0839975
3.26,-2.465273,2.2460887,0.36559737,-1.0368775,-0.08868463,-1.107321
3.262,-2.37653,2.2391236,0.39290875,-1.0615246,-0.10779445,-1.1301756
3.264,-2.2868938,2.233728,0.41835344,-1.085321,-0.12446116,-1.152574
3.266,-2.196299,2.229907,0.44202197,-1.1082618,-0.13871753,-1.1745362
3.268,-2.105012,2.2276058,0.4637515,-1.1303343,-0.15058324,-1.1960772
3.27,-2.0128937,2.2270205,0.48342204,-1.1515384,-0.16010082,-1.217205
3.272,-1.9201411,2.2280717,0.50099933,-1.1718585,-0.16734065,-1.2379496
3.274,-1.8266995,2.2308297,0.51653236,-1.1913007,-0.17237847,-1.2583195
3.276,-1.7326969,2.2354038,0.529928,-1.2098696,-0.1752946,-1.2783297
3.278,-1.6380886,2.2416785,0.54115,-1.2275668,-0.17619011,-1.2979854
3.28,-1.5429678,2.2497773,0.5501619,-1.2443949,-0.17516471,-1.3172941
3.282,-1.4473382,2.2595618,0.5569793,-1.2603654,-0.17231067,-1.3362648
3.284,-1.3513149,2.2710605,0.56154376,-1.2754943,-0.1677357,-1.3549051
3.286,-1.2548752,2.284133,0.5640116,-1.289822,-0.1615624,-1.3732176
3.288,-1.1579381,2.2987812,0.56423867,-1.30338,-0.15389848,-1.3911946
3.29,-1.0606391,2.3149054,0.5622741,-1.316208,-0.14485629,-1.4088464
3.292,-0.96296763,2.3323824,0.55819714,-1.3283542,-0.13455205,-1.4261801
3.294,-0.86508626,2.3511887,0.5519353,-1.3398553,-0.123107,-1.4431924
3.296,-0.76684576,2.3711832,0.5435796,-1.3507826,-0.110645264,-1.4598799
3.298,-0.66832995,2.3922346,0.53316605,-1.3611962,-0.09728564,-1.4762473
3.3,-0.5694641,2.4141924,0.5206557,-1.3711385,-0.083141714,-1.4923052
3.302,-0.47033247,2.4368978,0.50602555,-1.380663,-0.068332344,-1.5080712
3.304,-0.37103248,2.4602833,0.48939037,-1.3898262,-0.05297476,-1.5235596
3.306,-0.27153835,2.4841995,0.47082478,-1.3986629,-0.037186384,-1.5387897
3.308,-0.17191476,2.5084808,0.4502809,-1.4072088,-0.021069258,-1.5537877
3.31,-0.072174616,2.5328467,0.42781806,-1.4154882,-0.0047270358,-1.5685866
3.312,0.027613565,2.5572793,0.40356258,-1.4235272,0.011730373,-1.5832205
3.314,0.12742975,2.5815854,0.3774697,-1.4313524,0.02819711,-1.5977137
3.316,0.2271198,2.605532,0.34965244,-1.4389889,0.044572294,-1.6121044
3.318,0.32670814,2.6289983,0.32016927,-1.4464582,0.060752034,-1.6264094
3.32,0.42601293,2.65188,0.28912282,-1.4537834,0.07663959,-1.6406622
3.322,0.52502984,2.6739454,0.25655574,-1.4609927,0.092133194,-1.6548827
3.324,0.623583,2.695056,0.22246373,-1.4681191,0.10714075,-1.6690996
3.326,0.7215519,2.7150917,0.18706542,-1.4751976,0.12158853,-1.6833119
3.328,0.8190813,2.733811,0.1503759,-1.4822567,0.13540825,-1.6975348
3.33,0.9158517,2.7512004,0.112412274,-1.489331,0.14853096,-1.7117609
3.332,1.011698,2.7671366,0.07323265,-1.4964604,0.1609171,-1.7259827
3.334,1.1066108,2.7814536,0.032979846,-1.5036851,0.17252997,-1.7401745
3.336,1.2005363,2.7941093,-0.008253217,-1.5110452,0.18334144,-1.7543176
3.338,1.2931801,2.804983,-0.05041921,-1.5185759,0.193347,-1.7683796
3.34,1.3846552,2.8140316,-0.093459964,-1.5263132,0.20252949,-1.7823318
3.342,1.4747446,2.821152,-0.13727832,-1.5342859,0.21088648,-1.7961411
3.344,1.5633379,2.8263597,-0.18176341,-1.5425315,0.21841604,-1.8097751
3.346,1.6504862,2.8295557,-0.2269584,-1.5510575,0.22511733,-1.8232
3.348,1.7360231,2.830806,-0.27273035,-1.5598747,0.2309916,-1.8363812
3.35,1.8198965,2.830017,-0.31899846,-1.5689783,0.23604527,-1.8492976
3.352,1.9021225,2.8272877,-0.36563933,-1.5783601,0.24028552,-1.8619134
3.354,1.9825518,2.8227708,-0.41274965,-1.5880083,0.24370727,-1.8742021
3.356,2.0612297,2.8163826,-0.46019077,-1.5978974,0.24630791,-1.8861319
3.358,2.1380312,2.8083072,-0.50783265,-1.6080148,0.24810016,-1.8976773
3.36,2.2130318,2.798559,-0.5556699,-1.61834,0.24907976,-1.9088074
3.362,2.2861993,2.7872188,-0.60366845,-1.6288563,0.2492449,-1.919494
3.364,2.3574395,2.7744029,-0.6517581,-1.6395563,0.24860245,-1.9296961
3.366,2.4268665,2.7603135,-0.6997956,-1.6504333,0.24715912,-1.939368
3.368,2.4944253,2.74509,-0.74784565,-1.6614904,0.24493006,-1.9484677
3.37,2.5602229,2.7288802,-0.79574776,-1.6727252,0.24194008,-1.9569411
3.372,2.6242468,2.7118635,-0.84352314,-1.684137,0.23821244,-1.9647386
3.374,2.6864908,2.6941404,-0.8909824,-1.6957223,0.23378134,-1.9718039
3.376,2.7469647,2.6759887,-0.93820333,-1.7074739,0.22869202,-1.9780886
3.378,2.8057394,2.6576836,-0.98511267,-1.7193776,0.22297907,-1.9835453
3.38,2.8627589,2.63932,-1.0315378,-1.7314131,0.2166791,-1.9881438
3.382,2.9181514,2.6211615,-1.077525,-1.7435479,0.20982456,-1.991854
3.384,2.9721003,2.6033325,-1.1229692,-1.7557511,0.20244956,-1.9946572
3.386,3.0245626,2.5859776,-1.1678209,-1.7679782,0.19458413,-1.9965346
3.388,3.0753558,2.569373,-1.2119982,-1.7801887,0.18625987,-1.9974923
3.39,3.1248221,2.5536666,-1.2553661,-1.7923261,0.17750198,-1.9975313
3.392,3.1728878,2.5390458,-1.2979804,-1.8043576,0.16831928,-1.9966636
3.394,3.2195206,2.525621,-1.3396606,-1.8162415,0.15874177,-1.994904
3.396,3.264915,2.5134826,-1.3803968,-1.8279446,0.14877176,-1.9922774
3.398,3.3089976,2.5028248,-1.4201226,-1.8394322,0.13842425,-1.9887985
3.4,3.3518677,2.4936643,-1.458714,-1.8506818,0.12771201,-1.9844977
3.402,3.393639,2.4860857,-1.4962516,-1.8616848,0.11666158,-1.9793963
3.404,3.4342685,2.4800713,-1.5326,-1.8724289,0.10530925,-1.9735038
3.406,3.4736207,2.4756987,-1.5677899,-1.8829111,0.09370369,-1.9668436
3.408,3.5120015,2.4728184,-1.6018052,-1.8931315,0.08190462,-1.9594228
3.41,3.5491705,2.471539,-1.6345491,-1.9030954,0.06999344,-1.951258
3.412,3.5853515,2.4717286,-1.6661093,-1.9128066,0.058056295,-1.9423624
3.414,3.620542,2.4732487,-1.6964787,-1.9222679,0.046182573,-1.9327582
3.416,3.6545832,2.4759932,-1.7257464,-1.9314762,0.034466803,-1.9224569
3.418,3.6876464,2.479836,-1.7538174,-1.9404151,0.02299869,-1.9114914
3.42,3.7197149,2.4846032,-1.7807996,-1.9490657,0.011871576,-1.8998985
3.422,3.750831,2.4900565,-1.8067596,-1.9574076,0.0011460185,-1.8877206
3.424,3.780998,2.4959779,-1.8316479,-1.9654094,-0.009117007,-1.875012
3.426,3.8101692,2.5022159,-1.8555902,-1.9730499,-0.01886934,-1.8618348
3.428,3.8384717,2.5085435,-1.8786176,-1.9802942,-0.028086543,-1.8482535
3.43,3.8659284,2.5146227,-1.9008813,-1.9871145,-0.036750257,-1.8343527
3.432,3.8925166,2.5203252,-1.9224043,-1.9934903,-0.04484421,-1.8202103
3.434,3.9183996,2.5252857,-1.9432046,-1.9993982,-0.052369356,-1.8058937
3.436,3.9436588,2.5294216,-1.9633844,-2.004817,-0.05933535,-1.7914667
3.438,3.9682364,2.5324824,-1.9830275,-2.0097346,-0.06574893,-1.7769885
3.44,3.9923027,2.5342813,-2.0021799,-2.0141437,-0.07162559,-1.7625115
3.442,4.0160275,2.5345712,-2.0207634,-2.018038,-0.076985836,-1.7480476
3.444,4.039341,2.5334253,-2.0390706,-2.02142,-0.08183408,-1.733623
3.446,4.0624523,2.530517,-2.0568907,-2.0242808,-0.08617267,-1.719219
3.448,4.085488,2.5259037,-2.074428,-2.0266266,-0.090016454,-1.7048161
3.45,4.1083765,2.5195527,-2.091682,-2.0284574,-0.093358904,-1.6903813
3.452,4.131362,2.5114698,-2.1086743,-2.0297828,-0.09619206,-1.6758621
3.454,4.154495,2.50184,-2.1253977,-2.030615,-0.098502725,-1.6611985
3.456,4.1776567,2.4906826,-2.1419442,-2.03095,-0.10027984,-1.646321
3.458,4.201134,2.478144,-2.1583,-2.0308,-0.10151461,-1.6311662
3.46,4.2249265,2.464624,-2.1744955,-2.030178,-0.102182955,-1.615659
3.462,4.2489815,2.4501631,-2.1906457,-2.029093,-0.10226372,-1.5997428
3.464,4.2735167,2.4350002,-2.2065625,-2.0275614,-0.1017372,-1.5833495
3.466,4.298472,2.419502,-2.2224336,-2.0255895,-0.100581676,-1.5664213
3.468,4.323611,2.4040303,-2.2382748,-2.0231926,-0.09877887,-1.5489144
3.47,4.3491936,2.3887436,-2.2541435,-2.0203953,-0.096316874,-1.5307916
3.472,4.375157,2.3740878,-2.27002,-2.0172143,-0.09316835,-1.5120213
