Time_s_,Acc_x_m_s_2_,Acc_y_m_s_2_,Acc_z_m_s_2_,Gyro_x_1_s_,Gyro_y_1_s_,Gyro_z_1_s_
0,-0.3074732,0.31699634,1.4289459,0.1951706,0.3264722,-0.8337441
0.002,-0.29609835,0.29683107,1.5103862,0.18980743,0.340703,-0.83242536
0.004,-0.28700107,0.28122035,1.5917355,0.1832671,0.356335,-0.8311511
0.006,-0.28052765,0.2709099,1.6727927,0.17537199,0.3734155,-0.8299011
0.008,-0.27693284,0.2666722,1.7531035,0.16596045,0.3918994,-0.82862437
0.01,-0.27649942,0.2693361,1.8321418,0.15492806,0.41172424,-0.8272618
0.012,-0.2797987,0.27968782,1.909405,0.1422766,0.43281507,-0.82572985
0.014,-0.28738034,0.29878098,1.984103,0.12808596,0.455064,-0.8239043
0.016,-0.29982105,0.32760435,2.0554185,0.1125897,0.47833905,-0.8215887
0.018,-0.31726536,0.3667237,2.122301,0.09615795,0.5025355,-0.8185256
0.02,-0.33980078,0.4166351,2.1839077,0.07929368,0.5276123,-0.814404
0.022,-0.36767298,0.47753528,2.2394557,0.062593445,0.5536219,-0.80886173
0.024,-0.4013181,0.54960376,2.2881804,0.04671569,0.5807335,-0.8015176
0.026,-0.44104025,0.6328598,2.3292503,0.032309666,0.6092323,-0.79201514
0.028,-0.4869624,0.7267815,2.3617005,0.019654065,0.6402,-0.7799548
0.03,-0.5391983,0.8308263,2.384862,0.009566799,0.6729802,-0.76533383
0.032,-0.59789395,0.94426805,2.398347,0.0023141205,0.70805347,-0.74804986
0.034,-0.6631651,1.0662622,2.4020984,-0.001966551,0.74580646,-0.7280699
0.036,-0.7348552,1.1956215,2.396222,-0.0032972991,0.7864015,-0.7055084
0.038,-0.81270576,1.3308957,2.3806615,-0.0018278658,0.8298038,-0.68060464
0.04,-0.8965298,1.4706523,2.3551903,0.0021140575,0.8757628,-0.65370065
0.042,-0.98590875,1.613028,2.3198903,0.00809443,0.92381775,-0.6252239
0.044,-1.0805511,1.7560989,2.275196,0.015612453,0.97331166,-0.5956518
0.046,-1.179922,1.8980563,2.2221327,0.024094224,1.0233957,-0.5655642
0.048,-1.2833738,2.037133,2.1617181,0.032954246,1.073099,-0.53555423
0.05,-1.3899491,2.1716325,2.095172,0.041609406,1.1213875,-0.5062115
0.052,-1.498728,2.299979,2.0238228,0.04950562,1.1672671,-0.47811764
0.054,-1.6085474,2.4206674,1.9489698,0.056171536,1.2098402,-0.4517975
0.056,-1.7183728,2.5329378,1.8740114,0.06127265,1.2483541,-0.42770103
0.058,-1.8262342,2.6347585,1.7975346,0.06464332,1.2822481,-0.40621126
0.06,-1.930307,2.7250915,1.7204217,0.066274345,1.3111982,-0.3876441
0.062,-2.029027,2.803306,1.6433004,0.06628883,1.3351212,-0.37224734
0.064,-2.1206179,2.869019,1.56697,0.06489551,1.3541163,-0.36018533
0.066,-2.2031124,2.9215581,1.4924612,0.062337458,1.3684603,-0.35156387
0.068,-2.2748384,2.9608753,1.4207844,0.05890876,1.3785763,-0.3464569
0.07,-2.3340425,2.9870665,1.3526115,0.05484736,1.3849919,-0.34490955
0.072,-2.379313,3.0005846,1.2879264,0.05031669,1.3882735,-0.34689927
0.074,-2.4096801,3.002214,1.2259903,0.045408607,1.3889942,-0.35228413
0.076,-2.423283,2.9923735,1.1650457,0.040159702,1.387732,-0.3607515
0.078,-2.4199226,2.9720511,1.1044197,0.034580052,1.3850625,-0.3718179
0.08,-2.3995695,2.9424646,1.0436751,0.028677762,1.381577,-0.3848068
0.082,-2.362068,2.9052055,0.982211,0.022480667,1.3778914,-0.3988751
0.084,-2.3079882,2.8619153,0.9191841,0.016073585,1.374637,-0.41310593
0.086,-2.238313,2.81424,0.8534176,0.009589493,1.3724525,-0.42658573
0.088,-2.1546397,2.7640395,0.7836722,0.0032138824,1.3719492,-0.43841398
0.09,-2.0586379,2.7130725,0.70884514,-0.002788365,1.373703,-0.44777215
0.092,-1.9519677,2.6632116,0.62797403,-0.008094251,1.3781965,-0.45400804
0.094,-1.8362119,2.6159909,0.5399563,-0.012319505,1.3858626,-0.4566546
0.096,-1.7148733,2.5740476,0.4452139,-0.015078306,1.3970779,-0.45542163
0.098,-1.5911952,2.5393703,0.34416565,-0.015956461,1.4121407,-0.45019573
0.1,-1.4670844,2.5132926,0.236339,-0.01453346,1.4312952,-0.44099826
0.102,-1.3448915,2.497113,0.121091425,-0.010425448,1.4546875,-0.42800117
0.104,-1.2275712,2.4918368,-0.001585491,-0.0033028126,1.4823694,-0.41147935
0.106,-1.1175128,2.4980676,-0.13068484,0.007079959,1.5142689,-0.39178824
0.108,-1.0166891,2.5162764,-0.26467615,0.020853043,1.5501657,-0.36936235
0.11,-0.92638695,2.5465322,-0.40178922,0.038015544,1.589687,-0.3447374
0.112,-0.8476188,2.5889232,-0.54030067,0.058443308,1.6323113,-0.31856257
0.114,-0.7813868,2.6427088,-0.67908823,0.08185071,1.6773372,-0.29161212
0.116,-0.7277891,2.7064242,-0.8167896,0.10784125,1.723884,-0.26473218
0.118,-0.68729436,2.7790692,-0.9519621,0.1359201,1.7708726,-0.2388305
0.12,-0.65908146,2.8586957,-1.0818539,0.16550773,1.8170625,-0.21488136
0.122,-0.6437971,2.944527,-1.2058148,0.19592941,1.8611171,-0.19386679
0.124,-0.6413599,3.0353618,-1.3204131,0.22648811,1.9016364,-0.17671677
0.126,-0.6506628,3.1289384,-1.4208784,0.25647926,1.9372013,-0.16431874
0.128,-0.67052156,3.2232661,-1.5056026,0.28517556,1.9665468,-0.15748027
0.13,-0.6980272,3.3157117,-1.5746243,0.3118921,1.9885291,-0.15674907
0.132,-0.7309438,3.4043012,-1.6277096,0.33601135,2.0022411,-0.16239867
0.134,-0.76801145,3.4879699,-1.6639165,0.35702473,2.0071723,-0.17447403
0.136,-0.80773497,3.5658178,-1.6820397,0.37454808,2.0032775,-0.19275689
0.138,-0.8484095,3.6376104,-1.681004,0.3883618,1.9909678,-0.21670794
0.14,-0.88925105,3.7029247,-1.6604863,0.39843804,1.9711013,-0.24556139
0.142,-0.92900926,3.7613647,-1.6210713,0.40496624,1.9449283,-0.27840623
0.144,-0.9666659,3.8126278,-1.5636008,0.40836632,1.9140261,-0.31419605
0.146,-1.0017126,3.8568597,-1.488795,0.40921712,1.8801267,-0.35176814
0.148,-1.0337692,3.894279,-1.3972652,0.40823746,1.8448832,-0.3899484
0.15,-1.0623908,3.9252143,-1.2897778,0.4061557,1.8098226,-0.4276325
0.152,-1.0872293,3.9502606,-1.1679058,0.40370303,1.7763646,-0.46391237
0.154,-1.1077824,3.9698908,-1.0338975,0.40148973,1.7456377,-0.49809211
0.156,-1.1241136,3.9845228,-0.89041543,0.39992958,1.7184985,-0.5296658
0.158,-1.1365638,3.9950356,-0.739734,0.39931262,1.6955751,-0.55835146
0.16,-1.1457815,4.002465,-0.58406293,0.3997802,1.6771991,-0.58415216
0.162,-1.1522622,4.007625,-0.4251471,0.4013424,1.6634512,-0.6072347
0.164,-1.1568413,4.0116954,-0.26451924,0.40388143,1.6541591,-0.6279186
0.166,-1.1603116,4.015541,-0.10348046,0.40720034,1.6489832,-0.6466737
0.168,-1.1631576,4.019863,0.056808442,0.41115522,1.6475458,-0.6640463
0.17,-1.1658233,4.025081,0.21505907,0.41565853,1.6494699,-0.6806276
0.172,-1.168685,4.031278,0.37012848,0.42068738,1.6543362,-0.6969974
0.174,-1.1722974,4.0387793,0.5207344,0.426266,1.6616178,-0.7135931
0.176,-1.1767454,4.0474415,0.66587305,0.43245673,1.6707027,-0.7306741
0.178,-1.1823299,4.0571423,0.8048218,0.43928915,1.680886,-0.74834996
0.18,-1.190005,4.067954,0.9367497,0.44674215,1.6913898,-0.7665387
0.182,-1.1979909,4.078772,1.0619433,0.4546889,1.7013044,-0.7850615
0.184,-1.2047036,4.08854,1.1833724,0.46286052,1.7097768,-0.80378973
0.186,-1.2133094,4.0986514,1.2991719,0.47084987,1.7160323,-0.8225885
0.188,-1.2225841,4.108244,1.4063624,0.47819385,1.7194318,-0.84136784
0.19,-1.2305608,4.1163564,1.5042634,0.4844162,1.7196124,-0.8601869
0.192,-1.2382163,4.1228566,1.5938841,0.4890973,1.7166152,-0.8793081
0.194,-1.2448461,4.126933,1.6760371,0.49194705,1.710877,-0.8991165
0.196,-1.2486961,4.127787,1.750495,0.4928431,1.7031736,-0.92006195
0.198,-1.2486063,4.1249785,1.8165962,0.49187222,1.6944873,-0.94256175
0.2,-1.2439104,4.118265,1.8727069,0.48934332,1.6859087,-0.9669386
0.202,-1.2336777,4.107116,1.9179418,0.48569262,1.678494,-0.99332607
0.204,-1.2174625,4.091362,1.9523213,0.48146307,1.6730232,-1.0216154
0.206,-1.1927785,4.070284,1.9750888,0.47713462,1.669858,-1.0514263
0.208,-1.1585112,4.0440025,1.9854558,0.47315705,1.6690373,-1.082226
0.21,-1.1144804,4.0128593,1.9834535,0.46989956,1.6702644,-1.1134425
0.212,-1.059863,3.9771852,1.9690226,0.46750808,1.6729027,-1.1444759
0.214,-0.99349487,3.9373698,1.9419287,0.46595824,1.67632,-1.1747922
0.216,-0.91469896,3.8939748,1.9016635,0.46515137,1.6799455,-1.2042159
0.218,-0.8231664,3.847567,1.8479756,0.46500254,1.6829637,-1.2326343
0.22,-0.71920323,3.7988024,1.7807925,0.46544456,1.6846042,-1.2598766
0.222,-0.60288465,3.7482066,1.7002671,0.46631736,1.6842654,-1.2859573
0.224,-0.4742291,3.6967335,1.6073997,0.4673844,1.6815131,-1.3110027
0.226,-0.33428335,3.6456294,1.5033782,0.46846128,1.676137,-1.3350224
0.228,-0.1834321,3.5953665,1.3896651,0.46943402,1.6681056,-1.3580294
0.23,-0.023116231,3.546895,1.2665286,0.47022873,1.6574463,-1.3801134
0.232,0.14674687,3.499957,1.136257,0.47073138,1.6442025,-1.4013293
0.234,0.32505703,3.4546723,0.99849683,0.47081876,1.6284611,-1.4216349
0.236,0.50952685,3.4123702,0.85250765,0.47037375,1.6103818,-1.4409857
0.238,0.6976963,3.3738952,0.7012031,0.4693113,1.5901939,-1.4593792
0.24,0.8859987,3.3403368,0.5478544,0.46758538,1.568203,-1.4768287
0.242,1.0720849,3.3120043,0.3945371,0.46518457,1.5447639,-1.493301
0.244,1.2548275,3.288124,0.24213856,0.46214318,1.5202812,-1.50874
0.246,1.4323462,3.2681634,0.09133291,0.4585049,1.4951866,-1.5230651
0.248,1.6023548,3.2516642,-0.057211637,0.4543255,1.4699192,-1.5361345
0.25,1.7633617,3.238412,-0.20241511,0.44969404,1.4448825,-1.5477757
0.252,1.913702,3.2282186,-0.34273815,0.44468534,1.4203904,-1.5578331
0.254,2.0517595,3.2207487,-0.4770856,0.43939462,1.396647,-1.5661778
0.256,2.1762114,3.215666,-0.60499763,0.433904,1.3737273,-1.5727552
0.258,2.2858684,3.2127314,-0.7256353,0.42827326,1.3516035,-1.5776174
0.26,2.379947,3.2112663,-0.8377403,0.42255297,1.3301437,-1.5809141
0.262,2.4578147,3.2105663,-0.93989074,0.41676608,1.3091686,-1.5828692
0.264,2.5191784,3.2100286,-1.0309274,0.41089877,1.2884995,-1.5837835
0.266,2.5645711,3.2087166,-1.110089,0.40497673,1.2680082,-1.5840154
0.268,2.5947325,3.2055373,-1.1769116,0.39905393,1.2475696,-1.5839117
0.27,2.6105661,3.1992984,-1.2310935,0.39315957,1.2271706,-1.5836998
0.272,2.6131685,3.189227,-1.2727408,0.38730878,1.2071836,-1.5837533
0.274,2.603825,3.1745229,-1.3019089,0.3815406,1.1879574,-1.5845344
0.276,2.583702,3.1548798,-1.3188939,0.3760015,1.1697646,-1.5863007
0.278,2.5540085,3.1304462,-1.3237339,0.37086195,1.1528642,-1.5892463
0.28,2.5160382,3.101462,-1.3166434,0.36619925,1.1374598,-1.5936227
0.282,2.470901,3.0686345,-1.2981611,0.3620255,1.1236496,-1.5996126
0.284,2.420063,3.0324204,-1.2689974,0.3583467,1.1114945,-1.6072358
0.286,2.3646445,2.9936206,-1.2301848,0.35520822,1.1008812,-1.6164225
0.288,2.305958,2.952985,-1.1828903,0.35262853,1.0914334,-1.6271124
0.29,2.245476,2.9112687,-1.127933,0.3506387,1.0826309,-1.6391149
0.292,2.181988,2.8701663,-1.0671662,0.34924275,1.0738425,-1.6521089
0.294,2.1154778,2.8309786,-1.0041223,0.3484558,1.0643891,-1.6657503
0.296,2.049931,2.7929852,-0.9372957,0.34832615,1.0536376,-1.6797011
0.298,1.9841447,2.757847,-0.8656813,0.34890294,1.0410447,-1.6936501
0.3,1.9166951,2.7269738,-0.7914363,0.35024482,1.0262042,-1.707351
0.302,1.8488555,2.7010496,-0.7177057,0.35239494,1.0089221,-1.7206554
0.304,1.7800882,2.6812382,-0.64644146,0.35538378,0.9892321,-1.7334806
0.306,1.708893,2.6684058,-0.5780643,0.35921994,0.9674208,-1.7457922
0.308,1.634914,2.6627932,-0.51273584,0.36389202,0.94397044,-1.7575978
0.31,1.5579472,2.6643605,-0.4500053,0.36938503,0.9195013,-1.7689075
0.312,1.4771607,2.6736417,-0.39020908,0.37567592,0.8947161,-1.7797196
0.314,1.3922919,2.6897292,-0.33362544,0.38273957,0.8703742,-1.7900169
0.316,1.3026608,2.7118382,-0.280874,0.39056268,0.8472217,-1.7997593
0.318,1.2077746,2.7392719,-0.23187661,0.39916027,0.8258943,-1.8088855
0.32,1.1073021,2.7712936,-0.18611729,0.40854934,0.8069172,-1.8173174
0.322,1.0009696,2.8068192,-0.14337325,0.418783,0.7906586,-1.8249631
0.324,0.88872993,2.844912,-0.10326922,0.42992967,0.77726364,-1.8317188
0.326,0.7709578,2.884472,-0.06547868,0.4420521,0.76665217,-1.8375189
0.328,0.64777756,2.924376,-0.029519498,0.4551516,0.758504,-1.8423568
0.33,0.5198715,2.96333,0.0050638914,0.4691487,0.7523062,-1.8463255
0.332,0.3879447,3.000224,0.03880036,0.483886,0.7473852,-1.8496118
0.334,0.2531048,3.033681,0.07202977,0.49911344,0.74294305,-1.8525162
0.336,0.116752505,3.062396,0.10496646,0.5144946,0.7381557,-1.8554159
0.338,-0.020002127,3.0854344,0.13794476,0.5296203,0.7322016,-1.858762
0.34,-0.15562081,3.1020875,0.17139578,0.54406303,0.72441965,-1.8630567
0.342,-0.28863204,3.1119113,0.20564461,0.55742407,0.7143269,-1.8687577
0.344,-0.4173082,3.1144137,0.24098772,0.56936693,0.70171285,-1.876216
0.346,-0.54006386,3.1091557,0.27743083,0.57962453,0.6865754,-1.8855922
0.348,-0.6551453,3.0960658,0.31475335,0.5880102,0.66905487,-1.8969467
0.35,-0.760672,3.0751727,0.35260528,0.59445286,0.64946586,-1.9102533
0.352,-0.8549205,3.046503,0.39046204,0.59898645,0.62825555,-1.9253609
0.354,-0.9366406,3.0104728,0.42759347,0.60175693,0.6059341,-1.9420512
0.356,-1.0046046,2.967723,0.4631939,0.6029912,0.5830465,-1.9600471
0.358,-1.0579097,2.9187539,0.49668175,0.6029981,0.5601695,-1.9790472
0.36,-1.0958271,2.864396,0.5274258,0.6021571,0.53784645,-1.9987311
0.362,-1.1183653,2.8058271,0.5547652,0.6008922,0.5165962,-2.0187466
0.364,-1.1254119,2.744207,0.5782871,0.5996477,0.4968793,-2.03871
0.366,-1.1172187,2.680584,0.59771746,0.59885544,0.47905123,-2.058252
0.368,-1.0942287,2.616148,0.6125392,0.59892046,0.4633602,-2.0770223
0.37,-1.0573068,2.5520105,0.62213165,0.600192,0.4499285,-2.0947032
0.372,-1.0073754,2.4892807,0.6263472,0.60294896,0.43881083,-2.111024
0.374,-0.9454977,2.4288077,0.6253932,0.60739887,0.4299987,-2.1257603
0.376,-0.8730128,2.3714929,0.61954844,0.6136656,0.42344245,-2.138712
0.378,-0.79110575,2.317711,0.60898066,0.6218356,0.4191547,-2.1497092
0.38,-0.7009836,2.267953,0.5940094,0.63198787,0.41723514,-2.1585922
0.382,-0.6039477,2.2225254,0.57505393,0.6442251,0.41791323,-2.1651893
0.384,-0.5012662,2.1813722,0.55265754,0.65865195,0.42150074,-2.1693091
0.386,-0.39411652,2.1442792,0.5274084,0.6753774,0.4283701,-2.1707506
0.388,-0.28370744,2.110776,0.5000415,0.69448155,0.43892086,-2.1693294
0.39,-0.17114294,2.0804353,0.47116116,0.71598876,0.45342577,-2.1649008
0.392,-0.057305634,2.052587,0.4413906,0.7398344,0.47197354,-2.1574116
0.394,0.056889534,2.0265203,0.4113076,0.7658551,0.49443746,-2.1468978
0.396,0.17060423,2.0015924,0.381244,0.79376477,0.52047855,-2.1334958
0.398,0.28328216,1.977109,0.35166752,0.823165,0.54941505,-2.1175015
0.4,0.39452145,1.9522893,0.32277685,0.8535953,0.5804274,-2.0993388
0.402,0.50407255,1.9266657,0.29486993,0.88453555,0.61258423,-2.0794044
0.404,0.6114756,1.8997518,0.26802853,0.9153956,0.644835,-2.058089
0.406,0.7165265,1.870981,0.24198413,0.94563746,0.67613107,-2.035805
0.408,0.81928897,1.839855,0.21676207,0.97474474,0.70549065,-2.0129437
0.41,0.9197866,1.80607,0.1923858,1.0022929,0.73204035,-1.9898728
0.412,1.0179195,1.7692827,0.16870052,1.0279242,0.75504863,-1.9669412
0.414,1.113675,1.7294264,0.14565551,1.0514027,0.77403355,-1.9444814
0.416,1.2071316,1.6865915,0.12302357,1.0725877,0.7887721,-1.9227847
0.418,1.2983432,1.6408694,0.100681484,1.0914433,0.799279,-1.9021033
0.42,1.3874583,1.5926689,0.078124344,1.1080426,0.8058089,-1.8826556
0.422,1.4746385,1.5422255,0.054738462,1.1225262,0.8088011,-1.8646435
0.424,1.5597181,1.490807,0.029415488,1.1351051,0.80886006,-1.8482231
0.426,1.642791,1.4389635,0.00193578,1.1460507,0.8066828,-1.8335133
0.428,1.7240105,1.3871582,-0.028068006,1.1556551,0.80301154,-1.8205832
0.43,1.8034009,1.3360697,-0.061054587,1.1642587,0.79860044,-1.8094532
0.432,1.8808455,1.2864683,-0.09719521,1.1722165,0.79414606,-1.8000882
0.434,1.9563587,1.2388709,-0.13691097,1.179866,0.79024076,-1.7924113
0.436,2.0300095,1.1940092,-0.18061167,1.1875253,0.7873473,-1.7863127
0.438,2.1020281,1.1525986,-0.2288813,1.1955013,0.7857721,-1.7816364
0.44,2.17228,1.1153657,-0.2818206,1.204059,0.78564435,-1.7781895
0.442,2.2408085,1.0827777,-0.33940136,1.2134182,0.78691185,-1.7757573
0.444,2.3077178,1.0552868,-0.40162456,1.2237481,0.7893821,-1.7741191
0.446,2.3728924,1.0332527,-0.46831036,1.2351362,0.7927398,-1.773052
0.448,2.4365215,1.0166857,-0.5393692,1.2476147,0.7965632,-1.7723467
0.45,2.4982657,1.0057037,-0.61450213,1.2611746,0.800388,-1.7717795
0.452,2.5578861,1.000274,-0.69321513,1.2757447,0.80373204,-1.7711109
0.454,2.6149056,1.0003798,-0.77472275,1.291227,0.80617774,-1.7700844
0.456,2.6691363,1.0060449,-0.8581468,1.3075038,0.80741847,-1.768449
0.458,2.7200947,1.0170549,-0.9425981,1.3244715,0.80728745,-1.7659258
0.46,2.767112,1.0331295,-1.0271225,1.3420198,0.8057746,-1.7622623
0.462,2.809856,1.0539541,-1.1108615,1.3600646,0.80307394,-1.757242
0.464,2.8478677,1.0790142,-1.1929499,1.3785466,0.79951906,-1.7507005
0.466,2.8808393,1.1075951,-1.2724198,1.3974144,0.79554665,-1.7425226
0.468,2.9085011,1.1391406,-1.3482939,1.4166102,0.79159474,-1.7326926
0.47,2.9302735,1.1729481,-1.4196284,1.436083,0.78806,-1.7213204
0.472,2.9459832,1.2083871,-1.4855832,1.4557554,0.78526175,-1.7086267
0.474,2.9552288,1.2448387,-1.5453248,1.475514,0.78336924,-1.6948984
0.476,2.9577658,1.2818497,-1.5981998,1.4952413,0.78241146,-1.6804833
0.478,2.9535131,1.3186835,-1.6436572,1.5148064,0.782271,-1.6657923
0.48,2.9425151,1.3551223,-1.681292,1.5340824,0.78270125,-1.6512544
0.482,2.9249954,1.3907559,-1.7110944,1.552952,0.7833601,-1.637288
0.484,2.901096,1.4252142,-1.7330227,1.5713189,0.7838613,-1.6242721
0.486,2.871353,1.4582584,-1.7470127,1.5891191,0.7838069,-1.6125206
0.488,2.8364656,1.4897246,-1.7531061,1.606338,0.7828531,-1.6022893
0.49,2.7971337,1.5193503,-1.7516224,1.6229743,0.7806958,-1.5937858
0.492,2.7542691,1.546874,-1.7430516,1.6390562,0.77709293,-1.5871592
0.494,2.7088544,1.5721927,-1.7283095,1.6546365,0.771857,-1.5824788
0.496,2.66202,1.5952593,-1.7081059,1.6697849,0.764825,-1.5797337
0.498,2.6149268,1.6158599,-1.6834064,1.6845806,0.75585026,-1.5788258
0.5,2.5688186,1.6340214,-1.6552283,1.6991163,0.74478364,-1.5795752
0.502,2.5248246,1.6498511,-1.6246628,1.7134849,0.73146814,-1.5817606
0.504,2.4840753,1.663381,-1.5929506,1.7277743,0.71570283,-1.5851424
0.506,2.447831,1.6747106,-1.5613787,1.7420704,0.69727707,-1.5894941
0.508,2.4170072,1.6838574,-1.5313404,1.7564375,0.6759336,-1.5946195
0.51,2.3925343,1.6911353,-1.5042181,1.7709304,0.6514264,-1.6003672
0.512,2.3751695,1.6964725,-1.48132,1.785562,0.6234949,-1.60664
0.514,2.3657196,1.7000504,-1.463889,1.8003385,0.5919291,-1.613372
0.516,2.364674,1.7023275,-1.4530334,1.8152714,0.55661917,-1.6205294
0.518,2.3723671,1.7036448,-1.4497107,1.8303803,0.5175961,-1.628124
0.52,2.388976,1.7043091,-1.4549217,1.8457245,0.47507012,-1.6361797
0.522,2.4147706,1.7046777,-1.4697716,1.8614067,0.42941368,-1.6446936
0.524,2.4495637,1.7050035,-1.4954077,1.8775629,0.38113487,-1.653669
0.526,2.49323,1.7056085,-1.5327139,1.8943979,0.33087528,-1.6630844
0.528,2.5453262,1.706891,-1.5825936,1.9121518,0.27938825,-1.6729007
0.53,2.605498,1.7091826,-1.6455231,1.9310951,0.22747281,-1.683067
0.532,2.6734345,1.7128816,-1.72176,1.9515209,0.17592466,-1.693524
0.534,2.748419,1.7184575,-1.811878,1.9737339,0.12554146,-1.7042004
0.536,2.829877,1.7263799,-1.9163562,1.9980421,0.0770554,-1.7150196
0.538,2.9174423,1.7370484,-2.0356855,2.0247192,0.031105492,-1.7258949
0.54,3.0105,1.7507505,-2.1701841,2.0540047,-0.011778235,-1.7367289
0.542,3.108495,1.7681602,-2.3200357,2.0860734,-0.051224887,-1.7473694
0.544,3.210875,1.7896997,-2.485449,2.121044,-0.08706346,-1.7576604
0.546,3.3171394,1.8159821,-2.6667361,2.1589391,-0.11932641,-1.7674506
0.548,3.427001,1.8473524,-2.8641431,2.1996865,-0.14827497,-1.7766148
0.55,3.5403097,1.8842001,-3.0778487,2.2431388,-0.17438516,-1.7850404
0.552,3.6569023,1.9271914,-3.3080127,2.2890792,-0.19836324,-1.7926353
0.554,3.7764363,1.9769335,-3.5545344,2.3372371,-0.22111449,-1.7993662
0.556,3.8989959,2.0341723,-3.8174095,2.3873045,-0.24367818,-1.8052121
0.558,4.024858,2.0993547,-4.096826,2.4389708,-0.26715064,-1.8101999
0.56,4.1542287,2.1728208,-4.3927493,2.4919589,-0.2926436,-1.8143966
0.562,4.2879243,2.254957,-4.7047024,2.5460405,-0.32122564,-1.8178949
0.564,4.426576,2.3463225,-5.0321198,2.6010375,-0.35389295,-1.8207941
0.566,4.570834,2.447173,-5.374444,2.6568613,-0.39154497,-1.8232527
0.568,4.7217035,2.557657,-5.730868,2.7134662,-0.43499774,-1.8254476
0.57,4.8801503,2.6779733,-6.1007605,2.7708454,-0.48502666,-1.8275677
0.572,5.0473123,2.808206,-6.4828033,2.8290334,-0.54236716,-1.8297987
0.574,5.2259655,2.947978,-6.8733897,2.8880634,-0.6077929,-1.8323085
0.576,5.413188,3.0993392,-7.271344,2.9479687,-0.68209344,-1.8352699
0.578,5.609003,3.2638116,-7.678573,3.0087612,-0.766091,-1.8387905
0.58,5.8166814,3.4399054,-8.09314,3.0704265,-0.86061853,-1.8429286
0.582,6.037695,3.6254776,-8.510939,3.1329315,-0.96646935,-1.8477111
0.584,6.2757673,3.8185487,-8.928149,3.1962492,-1.0843387,-1.8531046
0.586,6.532169,4.018859,-9.338504,3.2603762,-1.2147259,-1.8590621
0.588,6.7996964,4.230213,-9.739547,3.325313,-1.3579274,-1.8655053
0.59,7.0845804,4.4502077,-10.127567,3.3911083,-1.5139214,-1.872302
0.592,7.3879266,4.6771255,-10.503067,3.457851,-1.6823525,-1.8792973
0.594,7.707682,4.912099,-10.866868,3.525688,-1.8625066,-1.8863397
0.596,8.043316,5.1542683,-11.210434,3.594797,-2.0533085,-1.8933365
0.598,8.396614,5.4003177,-11.523907,3.6653795,-2.2532377,-1.9001641
0.6,8.768611,5.6488338,-11.804798,3.7376492,-2.4604435,-1.9066794
0.602,9.155654,5.900747,-12.047065,3.8117976,-2.6728513,-1.9127101
0.604,9.559136,6.152274,-12.235889,3.8879762,-2.8880866,-1.918111
0.606,9.97869,6.4016104,-12.374137,3.9662771,-3.1034594,-1.9228071
0.608,10.409875,6.650995,-12.471651,4.0468016,-3.3162827,-1.9267193
0.61,10.847887,6.901038,-12.528053,4.1296816,-3.523929,-1.9297279
0.612,11.291864,7.1497664,-12.540814,4.2148976,-3.7238026,-1.9317358
0.614,11.740676,7.3954926,-12.504422,4.3023047,-3.9133978,-1.9326626
0.616,12.190106,7.6375103,-12.412327,4.391604,-4.0906687,-1.9324837
0.618,12.638559,7.874498,-12.260897,4.4823627,-4.254206,-1.9313762
0.62,13.084099,8.105137,-12.050441,4.574282,-4.403096,-1.9294248
0.622,13.524076,8.327927,-11.7844925,4.6671753,-4.5369353,-1.9265454
0.624,13.955705,8.540756,-11.4684305,4.7606707,-4.656576,-1.9228427
0.626,14.376432,8.741669,-11.107327,4.8543715,-4.7637305,-1.918421
0.628,14.783626,8.929479,-10.706271,4.947933,-4.860232,-1.913038
0.63,15.173939,9.104393,-10.270395,5.0410433,-4.9482365,-1.9062517
0.632,15.543482,9.266964,-9.804011,5.133403,-5.0306935,-1.8977835
0.634,15.889623,9.416861,-9.312362,5.2249875,-5.11015,-1.8875034
0.636,16.209087,9.553799,-8.801628,5.31612,-5.188455,-1.8751614
0.638,16.498487,9.677757,-8.277849,5.4070563,-5.2681403,-1.8606474
0.64,16.754034,9.78933,-7.747459,5.498278,-5.351199,-1.8440703
0.642,16.9719,9.889389,-7.2162685,5.5904713,-5.4381022,-1.8255267
0.644,17.148632,9.979207,-6.6900806,5.6842437,-5.5282326,-1.8052119
0.646,17.280281,10.060766,-6.174918,5.7804265,-5.6194377,-1.783466
0.648,17.36363,10.13642,-5.6760435,5.880123,-5.7079935,-1.760711
0.65,17.39541,10.209224,-5.197776,5.984584,-5.7889695,-1.7374433
0.652,17.372772,10.282549,-4.7434793,6.095024,-5.8566875,-1.7143062
0.654,17.293627,10.3604,-4.315455,6.2125254,-5.905209,-1.6919528
0.656,17.15648,10.446623,-3.9149647,6.3379107,-5.928805,-1.6708663
0.658,16.960535,10.54556,-3.5423357,6.4717135,-5.922417,-1.6512707
0.66,16.705797,10.661598,-3.197413,6.6140966,-5.882003,-1.6330856
0.662,16.39331,10.798553,-2.8791215,6.7648063,-5.8044286,-1.6160027
0.664,16.02505,10.960405,-2.5855856,6.9232435,-5.6874332,-1.5994662
0.666,15.603815,11.150747,-2.3140001,7.0885997,-5.5298867,-1.5826035
0.668,15.132967,11.372984,-2.060945,7.2597685,-5.3317757,-1.564353
0.67,14.617166,11.6298,-1.8226697,7.4354067,-5.094154,-1.5435884
0.672,14.0613785,11.92318,-1.5956161,7.6138473,-4.8195004,-1.5192239
0.674,13.471544,12.254129,-1.3760953,7.7929463,-4.512135,-1.4906064
0.676,12.853973,12.623098,-1.1601524,7.9703226,-4.1783085,-1.457611
0.678,12.214955,13.029848,-0.9439523,8.14362,-3.8257089,-1.4204266
0.68,11.561162,13.473423,-0.72365236,8.310341,-3.4637866,-1.3798277
0.682,10.898969,13.952094,-0.4961872,8.467984,-3.103526,-1.3373376
0.684,10.233904,14.463406,-0.26036882,8.61417,-2.7561426,-1.2948223
0.686,9.575248,15.002436,-0.012784004,8.746859,-2.4318886,-1.2541347
0.688,8.928391,15.565041,0.25179243,8.864321,-2.140306,-1.2171758
0.69,8.295956,16.148632,0.5334816,8.965312,-1.889269,-1.1860042
0.692,7.6817784,16.75026,0.83127403,9.049484,-1.6834656,-1.1624013
0.694,7.0878677,17.365982,1.1449704,9.11695,-1.5258565,-1.147774
0.696,6.51838,17.98985,1.4727235,9.168276,-1.4181465,-1.1433442
0.698,5.9826922,18.61406,1.8180933,9.2045355,-1.3601986,-1.1499164
0.7,5.477542,19.23426,2.181077,9.226824,-1.3507304,-1.1678736
0.702,5.002925,19.848526,2.5648313,9.236243,-1.3875949,-1.1973069
0.704,4.56315,20.451437,2.9732924,9.23398,-1.4677966,-1.238084
0.706,4.159643,21.038315,3.3965092,9.221315,-1.5876949,-1.2899166
0.708,3.7893674,21.609505,3.831398,9.199543,-1.7431762,-1.3525182
0.71,3.4532237,22.161396,4.28104,9.169926,-1.9298239,-1.4256595
0.712,3.1543965,22.689798,4.7438574,9.133593,-2.1430962,-1.5091872
0.714,2.8906555,23.195084,5.2133923,9.091574,-2.378343,-1.6029164
0.716,2.6620872,23.67511,5.699814,9.044741,-2.6309714,-1.7066134
0.718,2.4719515,24.12513,6.214405,8.993831,-2.8966546,-1.8200645
0.72,2.321826,24.543396,6.754387,8.939487,-3.1711802,-1.9430456
0.722,2.2093227,24.931244,7.314656,8.882269,-3.450578,-2.0752618
0.724,2.132769,25.289461,7.888783,8.822619,-3.731161,-2.2163842
0.726,2.0932717,25.617844,8.471349,8.760888,-4.0097036,-2.3660634
0.728,2.0892124,25.916945,9.060902,8.6973,-4.28335,-2.523955
0.73,2.119498,26.187298,9.659311,8.632023,-4.549511,-2.6894865
0.732,2.183717,26.429827,10.269455,8.565071,-4.8063164,-2.8621054
0.734,2.2812147,26.645706,10.893276,8.496415,-5.051985,-3.0412385
0.736,2.4109147,26.835562,11.530054,8.425864,-5.2855024,-3.2262201
0.738,2.572044,26.999428,12.177778,8.353151,-5.506345,-3.4164329
0.74,2.763886,27.136555,12.833629,8.27804,-5.7138805,-3.6111727
0.742,2.9857512,27.246689,13.493656,8.2001915,-5.90791,-3.8097165
0.744,3.2353683,27.33081,14.154951,8.119303,-6.0882854,-4.011343
0.746,3.5110471,27.389997,14.81494,8.035096,-6.2548857,-4.2152815
0.748,3.8111057,27.425058,15.470911,7.947351,-6.407596,-4.4207363
0.75,4.133878,27.436682,16.120676,7.8559127,-6.5463195,-4.626892
0.752,4.4777493,27.425339,16.761768,7.760679,-6.6709633,-4.832922
0.754,4.8410854,27.391384,17.392435,7.6615725,-6.781474,-5.0380154
0.756,5.2225847,27.334736,18.011227,7.558556,-6.877846,-5.2414002
0.758,5.6205544,27.255386,18.61665,7.451622,-6.9601865,-5.4423895
0.76,6.033811,27.15321,19.20682,7.340776,-7.0287437,-5.640376
0.762,6.4614167,27.027718,19.780064,7.226061,-7.0838585,-5.8348494
0.764,6.902299,26.878498,20.335012,7.1075454,-7.125953,-6.0253854
0.766,7.355674,26.705202,20.87053,6.9853296,-7.1555195,-6.211614
0.768,7.821141,26.507544,21.385391,6.859547,-7.1730947,-6.3932123
0.77,8.298693,26.284956,21.878716,6.7303944,-7.179259,-6.5698996
0.772,8.788358,26.037169,22.349659,6.598095,-7.1746254,-6.7414002
0.774,9.290529,25.763592,22.797268,6.462883,-7.1598787,-6.9074273
0.776,9.805477,25.463594,23.220387,6.3249936,-7.1357,-7.0676975
0.778,10.333776,25.13673,23.61798,6.1846623,-7.1028376,-7.221891
0.78,10.875822,24.782488,23.988815,6.0420985,-7.061989,-7.369658
0.782,11.432089,24.400417,24.331646,5.8974743,-7.013999,-7.5106354
0.784,12.002691,23.990295,24.64517,5.750882,-6.9597807,-7.6445837
0.786,12.5880575,23.551868,24.928295,5.6024117,-6.899926,-7.7711344
0.788,13.188508,23.084904,25.179691,5.45211,-6.8352976,-7.8899226
0.79,13.804175,22.589249,25.398209,5.3000965,-6.7663193,-8.000595
0.792,14.435072,22.065004,25.582712,5.1465254,-6.6933346,-8.102693
0.794,15.08062,21.512508,25.732178,4.991558,-6.616929,-8.195797
0.796,15.740742,20.932066,25.845932,4.835494,-6.537297,-8.279416
0.798,16.414337,20.324078,25.923288,4.678691,-6.454589,-8.353041
0.8,17.100025,19.689728,25.964115,4.521551,-6.3688626,-8.416199
0.802,17.796598,19.02972,25.968292,4.3645554,-6.2800612,-8.468463
0.804,18.502344,18.345074,25.936056,4.208215,-6.188057,-8.509458
0.806,19.21531,17.636862,25.868294,4.0530405,-6.0926814,-8.538887
0.808,19.93325,16.90609,25.76501,3.8995466,-5.9937387,-8.556534
0.81,20.65231,16.156698,25.628397,3.7482095,-5.891013,-8.562268
0.812,21.371204,15.38908,25.46044,3.599455,-5.784298,-8.55602
0.814,22.086033,14.60537,25.261284,3.4536557,-5.6733575,-8.5378
0.816,22.792797,13.809374,25.03601,3.3111045,-5.557963,-8.50765
0.818,23.489357,13.002367,24.78458,3.1720526,-5.4378676,-8.465627
0.82,24.170523,12.1878605,24.509846,3.0367231,-5.312848,-8.411784
0.822,24.832586,11.368712,24.215374,2.9052894,-5.1826353,-8.346197
0.824,25.471657,10.548229,23.903423,2.777934,-5.046946,-8.268914
0.826,26.08369,9.730076,23.576866,2.6548107,-4.905488,-8.179926
0.828,26.664791,8.91778,23.238375,2.5361142,-4.7579966,-8.079266
0.83,27.211359,8.114952,22.890415,2.4220498,-4.604278,-7.966968
0.832,27.720007,7.324817,22.53543,2.3128202,-4.444218,-7.843108
0.834,28.187536,6.5508018,22.175575,2.2086713,-4.2778273,-7.707814
0.836,28.611336,5.7959547,21.812695,2.1098702,-4.1052723,-7.561328
0.838,28.989082,5.063355,21.448462,2.0167,-3.9268777,-7.4040146
0.84,29.319208,4.3555617,21.084362,1.9294412,-3.7431245,-7.23641
0.842,29.600636,3.6748743,20.721622,1.8483355,-3.5546138,-7.0591984
0.844,29.8328,3.0234241,20.361263,1.7735937,-3.3620706,-6.8732524
0.846,30.015795,2.4027739,20.00385,1.7053642,-3.166277,-6.6795444
0.848,30.149998,1.8142395,19.649652,1.6437123,-2.9680843,-6.4791546
0.85,30.236656,1.2586117,19.298738,1.5886395,-2.768332,-6.2732344
0.852,30.277254,0.736331,18.951029,1.5400403,-2.5678363,-6.062942
0.854,30.273762,0.24741173,18.606295,1.4977562,-2.3673506,-5.849415
0.856,30.228098,-0.20834637,18.264336,1.4615343,-2.1675606,-5.633747
0.858,30.142788,-0.6316004,17.924547,1.4310845,-1.9690609,-5.4169736
0.86,30.020212,-1.023325,17.586283,1.4060508,-1.772382,-5.2000556
0.862,29.86266,-1.3846674,17.24873,1.3860308,-1.5779865,-4.983894
0.864,29.672321,-1.7169561,16.91117,1.3705784,-1.3862984,-4.7693076
0.866,29.451439,-2.0216608,16.572906,1.3592029,-1.1977334,-4.5570517
0.868,29.201948,-2.3002453,16.233429,1.3513947,-1.012713,-4.347781
0.87,28.925533,-2.5543861,15.892279,1.346626,-0.83168334,-4.142064
0.872,28.623636,-2.7854958,15.549145,1.3443387,-0.6551248,-3.9404252
0.874,28.297285,-2.9952612,15.2036915,1.3439684,-0.48355302,-3.7433286
0.876,27.947279,-3.185151,14.855645,1.3449547,-0.31754357,-3.5511646
0.878,27.57418,-3.3567085,14.505302,1.3467332,-0.15772498,-3.3642952
0.88,27.17812,-3.5109596,14.153141,1.3487501,-0.0047637075,-3.183073
0.882,26.759657,-3.6493578,13.799812,1.3504636,0.14061645,-3.0078294
0.884,26.318398,-3.772625,13.445611,1.3513587,0.2776518,-2.8389008
0.886,25.854424,-3.8815594,13.091988,1.3509495,0.40559164,-2.6766136
0.888,25.368473,-3.9771423,12.739489,1.3487909,0.5236989,-2.5213
0.89,24.86055,-4.059886,12.3889885,1.3444861,0.6312811,-2.3732662
0.892,24.330929,-4.1305857,12.04154,1.3377092,0.72775084,-2.2327864
0.894,23.78038,-4.1899214,11.698284,1.3282319,0.8126531,-2.100122
0.896,23.209423,-4.2384863,11.3603115,1.3158875,0.88568044,-1.9754918
0.898,22.618904,-4.2767076,11.029059,1.3005992,0.9467091,-1.8590877
0.9,22.009926,-4.304961,10.705681,1.2823474,0.9958055,-1.7511125
0.902,21.383835,-4.323614,10.391287,1.2611899,1.0332147,-1.6517501
0.904,20.742355,-4.3330135,10.086781,1.2372257,1.0593334,-1.5611428
0.906,20.08746,-4.3333683,9.792845,1.2106211,1.0746582,-1.4794083
0.908,19.421297,-4.3250046,9.510302,1.1815569,1.0797693,-1.4066371
0.91,18.746119,-4.3080997,9.239719,1.1502559,1.0753143,-1.3428593
0.912,18.064281,-4.2827067,8.981579,1.116961,1.0620253,-1.2880125
0.914,17.378231,-4.249082,8.736459,1.0819173,1.0405421,-1.2419991
0.916,16.690609,-4.2073283,8.5044565,1.045375,1.0115536,-1.204701
0.918,16.00411,-4.15764,8.285599,1.0075655,0.9757941,-1.1759323
0.92,15.321323,-4.100245,8.079657,0.9687085,0.9339677,-1.1554879
0.922,14.64505,-4.0352526,7.8863664,0.9290228,0.8868309,-1.1431574
0.924,13.977754,-3.9630466,7.705352,0.8887414,0.83518493,-1.1387206
0.926,13.322004,-3.883658,7.536318,0.8481065,0.77982426,-1.141944
0.928,12.680269,-3.7974024,7.3785114,0.80736816,0.72158945,-1.1526015
0.93,12.054928,-3.7046366,7.231019,0.766783,0.66129744,-1.1704967
0.932,11.448259,-3.6058955,7.0927396,0.72658837,0.5996727,-1.1954286
0.934,10.862316,-3.50149,6.9627104,0.68700945,0.5373473,-1.2271912
0.936,10.299073,-3.3921003,6.839899,0.6482126,0.4748478,-1.2655869
0.938,9.760431,-3.2782984,6.7233276,0.61030126,0.4125253,-1.3103974
0.94,9.248053,-3.160892,6.6121526,0.5733277,0.3505818,-1.3613907
0.942,8.7633095,-3.040444,6.5055203,0.5372998,0.2890974,-1.4183062
0.944,8.30781,-2.9179876,6.402578,0.5021876,0.22805257,-1.4808403
0.946,7.88257,-2.7942646,6.30264,0.46792296,0.16736999,-1.5486448
0.948,7.4886065,-2.670347,6.2050104,0.43441606,0.10692723,-1.621301
0.95,7.1265087,-2.5471075,6.1088877,0.40158877,0.04657373,-1.6983771
0.952,6.7968826,-2.4255362,6.013603,0.36934498,-0.0138527155,-1.7794012
0.954,6.4999084,-2.3067608,5.9185944,0.33759382,-0.07452986,-1.8638583
0.956,6.235712,-2.1916769,5.8237953,0.30623385,-0.13565779,-1.9512274
0.958,6.00424,-2.081355,5.7290745,0.2751431,-0.19748035,-2.0409856
0.96,5.8050756,-1.9768527,5.6345196,0.2441743,-0.2602381,-2.1326134
0.962,5.6375737,-1.8790829,5.540346,0.21317661,-0.32421982,-2.225577
0.964,5.50086,-1.7889459,5.4465814,0.18197572,-0.3896941,-2.3193476
0.966,5.39417,-1.707438,5.353491,0.15041745,-0.45691848,-2.4134226
0.968,5.316185,-1.6353526,5.261549,0.118371844,-0.525991,-2.5072603
0.97,5.2655954,-1.5735297,5.1712284,0.0857119,-0.59697956,-2.6003127
0.972,5.240758,-1.5227163,5.0831766,0.052337646,-0.66990644,-2.6920934
0.974,5.2397385,-1.483567,4.9980903,0.01815784,-0.74463445,-2.78211
0.976,5.2602353,-1.4566023,4.917019,-0.01690638,-0.8209964,-2.869908
0.978,5.299962,-1.4422379,4.8408775,-0.052956223,-0.8987836,-2.9550629
0.98,5.3567014,-1.4408286,4.7707353,-0.09009504,-0.9777168,-3.0371764
0.982,5.4279532,-1.4525728,4.707655,-0.12841582,-1.0575032,-3.1158614
0.984,5.5113487,-1.4774842,4.6525993,-0.16800499,-1.137808,-3.190736
0.986,5.6042166,-1.5155764,4.6063933,-0.20890033,-1.21821,-3.2614245
0.988,5.7039895,-1.5668449,4.5695868,-0.2511108,-1.2981937,-3.32753
0.99,5.808057,-1.6310523,4.5427604,-0.2945658,-1.377177,-3.388618
0.992,5.9135942,-1.7076659,4.5266237,-0.33911884,-1.4544623,-3.4442368
0.994,6.0189033,-1.7964027,4.5226083,-0.3845563,-1.529275,-3.4939165
0.996,6.1217012,-1.8967402,4.5312867,-0.43057823,-1.6007926,-3.5371923
0.998,6.2197084,-2.007811,4.554159,-0.47679484,-1.6681478,-3.5736036
1,6.31172,-2.1289296,4.5921917,-0.5227469,-1.730479,-3.602728
1.002,6.3966455,-2.2590413,4.64592,-0.567914,-1.7869165,-3.624199
1.004,6.473514,-2.3972187,4.715588,-0.6117431,-1.8366508,-3.6377182
1.006,6.5416994,-2.5423589,4.801265,-0.65366125,-1.8789631,-3.6430511
1.008,6.600932,-2.6934714,4.9027495,-0.6930965,-1.9132117,-3.640047
1.01,6.6510615,-2.8494995,5.020106,-0.7295219,-1.9388463,-3.6286216
1.012,6.6922865,-3.009194,5.1532335,-0.7624439,-1.9554143,-3.6087656
1.014,6.72487,-3.1712677,5.301943,-0.7914436,-1.9625418,-3.5805202
1.016,6.749345,-3.3346877,5.465669,-0.8161738,-1.9599117,-3.543982
1.018,6.7662287,-3.4980743,5.6432123,-0.83636796,-1.947252,-3.4992728
1.02,6.7760763,-3.6603138,5.8332877,-0.85184,-1.9243233,-3.4465425
1.022,6.779503,-3.8201668,6.0344734,-0.86244965,-1.8908525,-3.3859732
1.024,6.7771664,-3.97647,6.2450433,-0.8681211,-1.8465679,-3.317771
1.026,6.769579,-4.128162,6.4635687,-0.8688306,-1.7911712,-3.242145
1.028,6.7568817,-4.274007,6.6883364,-0.8646211,-1.7244043,-3.159336
1.03,6.738888,-4.412811,6.917665,-0.8556379,-1.6460853,-3.0696115
1.032,6.715329,-4.5435734,7.1497474,-0.8420893,-1.5561755,-2.9732344
1.034,6.6858263,-4.6649504,7.382653,-0.82427067,-1.4548489,-2.870476
1.036,6.649518,-4.77591,7.614435,-0.80253816,-1.342479,-2.7616096
1.038,6.605195,-4.8753605,7.843717,-0.7772906,-1.2196313,-2.6468976
1.04,6.5514073,-4.962128,8.069047,-0.74896693,-1.0870354,-2.5266092
1.042,6.4865446,-5.034986,8.289028,-0.71800315,-0.9455201,-2.4010289
1.044,6.4085994,-5.092929,8.502451,-0.6848113,-0.7959065,-2.2704754
1.046,6.315272,-5.1348076,8.70851,-0.64978296,-0.6389698,-2.135291
1.048,6.204323,-5.15963,8.90641,-0.61327255,-0.4754001,-1.995837
1.05,6.073523,-5.1663017,9.095671,-0.5756272,-0.30581576,-1.8525155
1.052,5.920536,-5.1539187,9.275945,-0.5371665,-0.13078463,-1.7057811
1.054,5.743197,-5.121519,9.447222,-0.49821484,0.04915631,-1.5561199
1.056,5.539445,-5.0683517,9.609718,-0.4591129,0.23345003,-1.4040647
1.058,5.3073254,-4.993474,9.763854,-0.42022914,0.4214916,-1.2501767
1.06,5.045002,-4.8962393,9.9103985,-0.3819464,0.61258936,-1.0950825
1.062,4.7509346,-4.775922,10.050164,-0.34466368,0.8059692,-0.9394477
1.064,4.423995,-4.6317406,10.184123,-0.30877364,1.0007762,-0.78399223
1.066,4.063064,-4.463109,10.313166,-0.27466032,1.196113,-0.62947154
1.068,3.6675193,-4.269452,10.438503,-0.24267256,1.3910575,-0.47668448
1.07,3.236971,-4.050459,10.561601,-0.21314514,1.5846764,-0.3264526
1.072,2.7714155,-3.8058417,10.684083,-0.18637568,1.7760481,-0.17961958
1.074,2.2713532,-3.5353036,10.807582,-0.1626522,1.9643015,-0.037003458
1.076,1.7373923,-3.2387335,10.933498,-0.14224279,2.148566,0.10058725
1.078,1.1704168,-2.9158425,11.063244,-0.12538117,2.3280005,0.23237294
1.08,0.57177174,-2.566767,11.197983,-0.112302065,2.5017843,0.35760367
1.082,-0.056996822,-2.1915646,11.33896,-0.103227496,2.6691568,0.47558784
1.084,-0.7138916,-1.7905641,11.487396,-0.0983485,2.8293843,0.5856883
1.086,-1.3965348,-1.3641968,11.644017,-0.09786129,2.981791,0.68727607
1.088,-2.1022487,-0.9130235,11.809612,-0.10195136,3.1257806,0.77974284
1.09,-2.828528,-0.4375913,11.984837,-0.11078918,3.2608294,0.86250794
1.092,-3.572349,0.06127739,12.169913,-0.12452221,3.3864846,0.9349932
1.094,-4.3304067,0.58229494,12.365037,-0.14324355,3.5024176,0.9966253
1.096,-5.099004,1.1241362,12.570281,-0.1669867,3.6084106,1.0468506
1.098,-5.874795,1.685374,12.785247,-0.19573927,3.7043912,1.0851226
1.1,-6.653838,2.2641408,13.009266,-0.22940385,3.790397,1.1109045
1.102,-7.4322205,2.8585157,13.241142,-0.26783192,3.8665667,1.1236615
1.104,-8.206083,3.4662952,13.479345,-0.31082082,3.9331264,1.122899
1.106,-8.971158,4.0851297,13.721816,-0.35814774,3.990321,1.1081502
1.108,-9.7236595,4.7122383,13.966256,-0.40956497,4.0383673,1.0789824
1.11,-10.459623,5.3448305,14.21027,-0.4648162,4.0774326,1.0350003
1.112,-11.1754055,5.97986,14.451308,-0.52365506,4.107648,0.9758434
1.114,-11.867105,6.614393,14.686804,-0.5858474,4.129075,0.90122133
1.116,-12.531296,7.245267,14.913971,-0.6511729,4.141739,0.8109284
1.118,-13.164615,7.8693557,15.129965,-0.71940434,4.1456156,0.7048873
1.12,-13.764039,8.4835,15.331952,-0.7903328,4.140652,0.5831134
1.122,-14.326887,9.084253,15.517148,-0.86377823,4.1267476,0.4457444
1.124,-14.850857,9.6686535,15.682957,-0.939589,4.10371,0.29304874
1.126,-15.334106,10.233768,15.827055,-1.0176508,4.0712595,0.12545514
1.128,-15.77508,10.776676,15.947529,-1.0978823,4.028998,-0.05645311
1.13,-16.172653,11.295018,16.042618,-1.1802375,3.9764104,-0.25192797
1.132,-16.526335,11.786411,16.110687,-1.2647048,3.9129138,-0.46007407
1.134,-16.835989,12.248999,16.150814,-1.3512957,3.8379116,-0.6798892
1.136,-17.101923,12.68095,16.162441,-1.4400091,3.7508106,-0.91027343
1.138,-17.324415,13.080723,16.145811,-1.5308385,3.651157,-1.1500562
1.14,-17.504044,13.44719,16.10165,-1.6237481,3.5386338,-1.3980083
1.142,-17.64164,13.7795725,16.031212,-1.7186524,3.4131777,-1.6528606
1.144,-17.738178,14.077146,15.93634,-1.815416,3.2749994,-1.9133536
1.146,-17.794455,14.339598,15.819262,-1.9138213,3.1246169,-2.1782212
1.148,-17.8115,14.566921,15.6825485,-2.0135965,2.9628313,-2.446205
1.15,-17.790298,14.759136,15.529216,-2.1144245,2.790666,-2.716084
1.152,-17.731628,14.916791,15.36244,-2.2159271,2.6093416,-2.986653
1.154,-17.636238,15.040518,15.185606,-2.3177297,2.4202003,-3.2567275
1.156,-17.504988,15.131248,15.001911,-2.419462,2.2246265,-3.5251849
1.158,-17.33838,15.189909,14.814764,-2.5207787,2.0240202,-3.790989
1.16,-17.137056,15.21756,14.627472,-2.6213636,1.8197677,-4.053182
1.162,-16.901442,15.215439,14.44337,-2.720946,1.6132222,-4.3109565
1.164,-16.63185,15.184691,14.265315,-2.819271,1.4057485,-4.563613
1.166,-16.328747,15.126705,14.096145,-2.916098,1.1987674,-4.810584
1.168,-15.992517,15.042874,13.938095,-3.011198,0.9937773,-5.0514374
1.17,-15.6233015,14.934893,13.792695,-3.1043231,0.7923603,-5.285828
1.172,-15.221609,14.804123,13.66144,-3.1952343,0.5961921,-5.513504
1.174,-14.788111,14.652161,13.54487,-3.2836788,0.406991,-5.7342587
1.176,-14.323238,14.480957,13.443166,-3.3693824,0.22647452,-5.947918
1.178,-13.827759,14.292199,13.355904,-3.452096,0.056333303,-6.1543427
1.18,-13.3024845,14.087814,13.282327,-3.5315936,-0.10186124,-6.3534694
1.182,-12.748128,13.86975,13.221138,-3.607684,-0.24671268,-6.5452824
1.184,-12.165931,13.639897,13.171056,-3.6802065,-0.37699962,-6.729846
1.186,-11.556861,13.400145,13.130398,-3.7490265,-0.49173307,-6.9073057
1.188,-10.921949,13.152376,13.097347,-3.8140004,-0.5901065,-7.077873
1.19,-10.26218,12.898694,13.070259,-3.875001,-0.6714618,-7.241882
1.192,-9.578373,12.640828,13.047124,-3.9318428,-0.73530126,-7.3997126
1.194,-8.871217,12.380683,13.025877,-3.9842997,-0.78126264,-7.551852
1.196,-8.141506,12.12021,13.004884,-4.032143,-0.8091574,-7.698847
1.198,-7.3898635,11.861059,12.982647,-4.075076,-0.8189316,-7.841277
1.2,-6.616597,11.605002,12.958019,-4.1127996,-0.81078315,-7.9797945
1.202,-5.8219194,11.35368,12.930344,-4.1450067,-0.78514624,-8.115093
1.204,-5.00646,11.108982,12.899376,-4.171388,-0.7426758,-8.24789
1.206,-4.1704354,10.872679,12.865047,-4.1916656,-0.6843238,-8.378953
1.208,-3.3139424,10.646456,12.827755,-4.2055697,-0.6112857,-8.509064
1.21,-2.437261,10.432007,12.788305,-4.2128735,-0.5249677,-8.638998
1.212,-1.5407221,10.231181,12.747827,-4.213393,-0.42699575,-8.769511
1.214,-0.6246351,10.045575,12.707713,-4.206991,-0.31917,-8.901325
1.216,0.31038398,9.877108,12.669594,-4.193546,-0.20340586,-9.035091
1.218,1.263808,9.72795,12.635391,-4.1729755,-0.08175564,-9.171394
1.22,2.2349272,9.600114,12.607517,-4.1452336,0.043660164,-9.310738
1.222,3.2233558,9.49578,12.588093,-4.110273,0.17066383,-9.45353
1.224,4.2279325,9.417029,12.579412,-4.0680895,0.2970605,-9.600095
1.226,5.2480392,9.366146,12.583635,-4.0186806,0.42063284,-9.750647
1.228,6.2824183,9.345493,12.602341,-3.9620817,0.53917646,-9.905323
1.23,7.330204,9.357382,12.6365,-3.8983707,0.65049267,-10.064177
1.232,8.390522,9.404683,12.687608,-3.8276772,0.75239944,-10.227196
1.234,9.462924,9.488987,12.757597,-3.7502036,0.84270954,-10.394293
1.236,10.546516,9.611984,12.847608,-3.6662307,0.91925097,-10.565343
1.238,11.640607,9.774793,12.9582615,-3.576143,0.97985315,-10.740166
1.24,12.744406,9.978993,13.089292,-3.4804416,1.0224009,-10.918522
1.242,13.858107,10.226213,13.24184,-3.3797512,1.0447655,-11.100122
1.244,14.983344,10.514513,13.415159,-3.2748015,1.0449533,-11.28461
1.246,16.117065,10.84642,13.608971,-3.1664584,1.0211473,-11.471557
1.248,17.259682,11.221939,13.827217,-3.0556612,0.9717612,-11.660426
1.25,18.41536,11.638696,14.066828,-2.943362,0.89546394,-11.850604
1.252,19.58755,12.094055,14.324955,-2.8305492,0.7912493,-12.041377
1.254,20.772024,12.589122,14.602142,-2.7181845,0.658494,-12.231915
1.256,21.970625,13.120696,14.902988,-2.60717,0.49694633,-12.421313
1.258,23.187435,13.685011,15.225798,-2.4983058,0.30667448,-12.608591
1.26,24.42471,14.278997,15.567899,-2.3922682,0.08804655,-12.792688
1.262,25.68148,14.90146,15.929535,-2.2896602,-0.15847301,-12.972561
1.264,26.959583,15.548102,16.312912,-2.19097,-0.43224382,-13.147202
1.266,28.261341,16.21473,16.71823,-2.0966325,-0.7324872,-13.315605
1.268,29.587217,16.89839,17.14553,-2.007038,-1.0584183,-13.476728
1.27,30.93799,17.59605,17.595594,-1.9224689,-1.4092283,-13.629545
1.272,32.314594,18.303946,18.06958,-1.8432226,-1.7841477,-13.773147
1.274,33.71695,19.01916,18.569445,-1.7695231,-2.1822119,-13.906558
1.276,35.14554,19.738474,19.095385,-1.7017035,-2.6026547,-14.028955
1.278,36.600136,20.458973,19.647491,-1.6400216,-3.0446544,-14.13966
1.28,38.079773,21.178255,20.226107,-1.5846744,-3.5068212,-14.237775
1.282,39.583218,21.893978,20.831024,-1.5358858,-3.9878306,-14.322329
1.284,41.10887,22.603575,21.462315,-1.4938724,-4.4862375,-14.392618
1.286,42.654762,23.304562,22.119673,-1.4586642,-5.000297,-14.448029
1.288,44.21843,23.994835,22.802116,-1.4301858,-5.5275774,-14.487742
1.29,45.79769,24.6724,23.507711,-1.4082327,-6.0655036,-14.511026
1.292,47.389355,25.335339,24.23434,-1.3923993,-6.6113386,-14.517366
1.294,48.990604,25.981733,24.979282,-1.3821092,-7.161956,-14.506349
1.296,50.598057,26.608822,25.739735,-1.3766499,-7.7138453,-14.477552
1.298,52.20806,27.213968,26.512344,-1.375216,-8.263406,-14.430663
1.3,53.81644,27.794582,27.29342,-1.3768766,-8.806959,-14.365493
1.302,55.418953,28.348267,28.079285,-1.3806448,-9.340813,-14.281956
1.304,57.011345,28.872108,28.86637,-1.385525,-9.861397,-14.180031
1.306,58.58932,29.363375,29.650963,-1.3904762,-10.365395,-14.059723
1.308,60.148556,29.819256,30.429234,-1.3944211,-10.84993,-13.920999
1.31,61.6847,30.237337,31.197937,-1.3962424,-11.31266,-13.763845
1.312,63.19383,30.615294,31.953941,-1.3947825,-11.75176,-13.588304
1.314,64.67252,30.951046,32.694366,-1.3888142,-12.165918,-13.394404
1.316,66.11744,31.242786,33.416634,-1.3769872,-12.554246,-13.182165
1.318,67.525665,31.489305,34.11886,-1.3578541,-12.916366,-12.95163
1.32,68.89424,31.689732,34.799366,-1.3298597,-13.2523985,-12.702816
1.322,70.220764,31.84384,35.45674,-1.2914246,-13.562778,-12.435824
1.324,71.50314,31.952564,36.08997,-1.2410312,-13.848178,-12.150847
1.326,72.74015,32.017605,36.698635,-1.1771739,-14.1095,-11.848032
1.328,73.93046,32.04162,37.282604,-1.0983925,-14.3479395,-11.527618
1.33,75.073425,32.02842,37.841984,-1.0032244,-14.5645895,-11.189786
1.332,76.16856,31.982939,38.37727,-0.8903176,-14.760738,-10.834719
1.334,77.21621,31.911777,38.888832,-0.75841576,-14.938076,-10.462876
1.336,78.21728,31.822931,39.377434,-0.6062343,-15.097879,-10.074727
1.338,79.17322,31.726128,39.84475,-0.43252575,-15.24136,-9.670551
1.34,80.08614,31.632885,40.292908,-0.2362057,-15.369724,-9.250726
1.342,80.95893,31.555887,40.72371,-0.01628697,-15.484293,-8.815918
1.344,81.79502,31.510372,41.138844,0.22810066,-15.585875,-8.366663
1.346,82.5986,31.512674,41.54158,0.4976251,-15.675021,-7.9034224
1.348,83.37394,31.580675,41.936203,0.79273987,-15.752293,-7.4267483
1.35,84.12592,31.732334,42.327972,1.113718,-15.818204,-6.937236
1.352,84.858215,31.987263,42.720955,1.4606042,-15.873107,-6.435389
1.354,85.57491,32.367943,43.120735,1.83326,-15.917287,-5.921553
1.356,86.28401,32.892696,43.533222,2.2314243,-15.951074,-5.3959804
1.358,86.98945,33.582504,43.961914,2.6547093,-15.974898,-4.858836
1.36,87.69388,34.460526,44.416233,3.1026304,-15.989277,-4.3102984
1.362,88.402405,35.550056,44.902184,3.5746152,-15.99477,-3.7505155
1.364,89.12741,36.867867,45.429676,4.069983,-15.992053,-3.1795504
1.366,89.86527,38.441032,45.99722,4.5879135,-15.981906,-2.5973768
1.368,90.61754,40.295197,46.609833,5.12743,-15.965252,-2.003916
1.37,91.3695,42.472645,47.268494,5.6873794,-15.943018,-1.3989656
1.372,92.1588,44.923294,47.97896,6.266462,-15.916013,-0.782151
1.374,92.99942,47.676235,48.762024,6.863278,-15.884731,-0.15292895
1.376,93.889656,50.773594,49.631607,7.476337,-15.849435,0.48952514
1.378,94.836,54.23274,50.571457,8.104062,-15.81006,1.1464875
1.38,95.85183,58.052216,51.547092,8.744822,-15.766145,1.8196387
1.382,96.94838,62.237926,52.551426,9.396938,-15.716717,2.5109968
1.384,98.1199,66.79169,53.58553,10.058773,-15.660189,3.2230668
1.386,99.36884,71.6986,54.66906,10.728669,-15.594505,3.958849
1.388,100.68758,76.96384,55.787987,11.405071,-15.516746,4.7217464
1.39,102.1033,82.58069,56.92332,12.086629,-15.422902,5.515736
1.392,103.607086,88.55112,58.05409,12.772149,-15.30826,6.34522
1.394,105.11073,94.86589,59.209,13.460276,-15.167652,7.214875
1.396,106.6018,101.46968,60.448994,14.150105,-14.994646,8.129526
1.398,108.07979,108.305466,61.825672,14.841486,-14.781451,9.093814
1.4,109.665855,115.281204,63.382786,15.533468,-14.521446,10.111022
1.402,111.51051,122.38669,65.010704,16.224241,-14.206381,11.186831
1.404,113.57175,129.66817,66.594795,16.913778,-13.824404,12.329452
1.406,115.779945,137.06593,68.13097,17.603586,-13.361374,13.545672
1.408,118.14618,144.51595,69.60724,18.295485,-12.800089,14.842773
1.41,120.67892,151.93553,71.028206,18.989277,-12.121803,16.227318
1.412,123.378876,159.2384,72.48737,19.681173,-11.309115,17.702528
1.414,126.2726,166.33443,74.02113,20.368101,-10.340229,19.26931
1.416,129.37662,173.16945,75.65671,21.0472,-9.187937,20.928087
1.418,132.73218,179.74509,77.39989,21.712662,-7.8242316,22.67873
1.42,136.35599,185.97653,79.21863,22.355343,-6.2217093,24.51954
1.422,140.26465,191.77977,81.07558,22.963058,-4.3532124,26.439629
1.424,144.47647,197.07991,82.93383,23.519081,-2.1935332,28.412785
1.426,148.99571,201.7605,84.77859,24.002163,0.2757287,30.411606
1.428,153.83322,205.7367,86.615265,24.391186,3.058384,32.397358
1.43,158.94754,208.98126,88.43544,24.66028,6.1484985,34.317924
1.432,164.32838,211.46964,90.163025,24.77695,9.524276,36.125435
1.434,169.98563,213.15935,91.71268,24.718243,13.146596,37.771637
1.436,175.94046,214.0011,93.032646,24.470102,16.969585,39.19915
1.438,182.15958,213.99738,94.0504,24.025852,20.935936,40.35959
1.44,188.60893,213.1908,94.68405,23.383379,24.961624,41.19488
1.442,195.24611,211.63995,94.87331,22.542439,28.949677,41.65607
1.444,202.038,209.39082,94.5433,21.527277,32.802784,41.742737
1.446,208.94449,206.4911,93.61025,20.38298,36.423595,41.475956
1.448,215.88853,203.01094,91.98572,19.167252,39.71512,40.878944
1.45,222.78116,199.02324,89.59021,17.938337,42.58305,39.96833
1.452,229.52017,194.59903,86.35727,16.743963,44.944332,38.74818
1.454,235.9959,189.80919,82.23898,15.624415,46.732075,37.218998
1.456,242.09879,184.72403,77.21324,14.6157,47.90169,35.389866
1.458,247.71349,179.41516,71.28232,13.7398615,48.439217,33.272488
1.46,252.71939,173.94864,64.470505,13.006438,48.37232,30.874723
1.462,257.0036,168.37717,56.82183,12.421696,47.77291,28.19715
1.464,260.46942,162.74956,48.406227,11.989133,46.74412,25.239826
1.466,263.03662,157.11293,39.32022,11.701264,45.404488,22.00753
1.468,264.64053,151.50092,29.693878,11.53657,43.876038,18.509953
1.47,265.2324,145.93597,19.68882,11.462549,42.269196,14.765329
1.472,264.77554,140.44022,9.493988,11.430992,40.66633,10.809704
1.474,263.25745,135.0343,-0.69999695,11.3759365,39.10905,6.7069817
1.476,260.69736,129.72765,-10.697754,11.215951,37.589474,2.560337
1.478,257.13495,124.526794,-20.300095,10.86083,36.05266,-1.4900684
1.48,252.65086,119.4347,-29.304832,10.219395,34.40728,-5.2910814
1.482,247.30243,114.54359,-37.532852,9.209223,32.542824,-8.67709
1.484,241.19597,109.86182,-44.83539,7.7750826,30.341843,-11.488485
1.486,234.46619,105.389984,-51.069958,5.898302,27.70683,-13.60394
1.488,227.24521,101.15786,-56.098488,3.5911198,24.578815,-14.945293
1.49,219.6627,97.21062,-59.8164,0.9056444,20.944016,-15.482789
1.492,211.85138,93.578476,-62.192974,-2.0684948,16.850443,-15.254055
1.494,203.9538,90.2845,-63.23997,-5.2143483,12.415214,-14.340411
1.496,196.09094,87.35342,-63.01181,-8.399845,7.7955027,-12.876666
1.498,188.38077,84.783,-61.56129,-11.506632,3.1699576,-11.05368
1.5,180.89853,82.58322,-58.97743,-14.427325,-1.2695737,-9.056182
1.502,173.74359,80.75233,-55.383316,-17.064606,-5.332994,-7.0368495
1.504,167.05145,79.29373,-50.968254,-19.332747,-8.849604,-5.113515
1.506,160.84502,78.23686,-45.94513,-21.16219,-11.686026,-3.3714173
1.508,155.12431,77.5857,-40.50329,-22.511913,-13.754088,-1.8724513
1.51,149.78864,77.35008,-34.81482,-23.373323,-15.017642,-0.6599424
1.512,144.75812,77.44635,-28.926224,-23.759336,-15.491856,0.25373483
1.514,140.1428,77.759476,-22.93226,-23.702168,-15.238576,0.8871397
1.516,136.02083,78.29181,-17.044956,-23.25479,-14.35547,1.2794878
1.518,132.35541,79.035255,-11.443629,-22.48248,-12.9558735,1.4797286
1.52,129.11163,79.98019,-6.293183,-21.452568,-11.158319,1.5405039
1.522,126.254814,81.10513,-1.7885268,-20.235552,-9.087431,1.5144523
1.524,123.72139,82.384636,1.9870627,-18.902777,-6.86335,1.4496716
1.526,121.46572,83.757706,4.9887147,-17.51767,-4.5902195,1.3858159
1.528,119.42536,85.13266,7.212987,-16.134918,-2.3544216,1.3512893
1.53,117.56766,86.5175,8.699536,-14.800587,-0.22281933,1.3612831
1.532,115.85958,87.91072,9.491562,-13.551439,1.7570081,1.4198577
1.534,114.26682,89.29825,9.629257,-12.414701,3.555995,1.5233665
1.536,112.76793,90.6984,9.136184,-11.410179,5.1610994,1.6606661
1.538,111.33299,92.08884,8.031388,-10.551692,6.5708895,1.8143997
1.54,109.97206,93.40542,6.3628883,-9.847493,7.79112,1.9639225
1.542,108.65093,94.606964,4.2400684,-9.300901,8.830823,2.0888686
1.544,107.31813,95.68532,1.7579956,-8.910153,9.699658,2.172925
1.546,105.92215,96.643776,-1.0318623,-8.667893,10.405853,2.2054584
1.548,104.46642,97.44531,-4.06073,-8.561365,10.956312,2.1827128
1.55,102.942696,98.04191,-7.258522,-8.576046,11.357174,2.1095524
1.552,101.34224,98.40274,-10.57682,-8.697641,11.612565,1.9989282
1.554,99.64289,98.53102,-13.950386,-8.911894,11.724963,1.867681
1.556,97.83003,98.43935,-17.306995,-9.205391,11.696208,1.7320774
1.558,95.919556,98.12784,-20.574638,-9.566136,11.528318,1.6059264
1.56,93.92564,97.60475,-23.691616,-9.983062,11.225147,1.499348
1.562,91.86385,96.88603,-26.605804,-10.445191,10.793659,1.4169359
1.564,89.74734,95.98793,-29.275627,-10.94135,10.243397,1.3578068
1.566,87.58396,94.9268,-31.67078,-11.461026,9.586168,1.3198404
1.568,85.385956,93.71536,-33.76661,-11.994543,8.836311,1.3028219
1.57,83.1698,92.36992,-35.53951,-12.532557,8.010352,1.3070931
1.572,80.947205,90.91324,-36.96702,-13.065628,7.1265326,1.3322594
1.574,78.72207,89.36504,-38.03455,-13.584572,6.204115,1.3779047
1.576,76.49863,87.741165,-38.737408,-14.08077,5.262673,1.4442382
1.578,74.28371,86.06525,-39.08583,-14.5464325,4.321209,1.531683
1.58,72.08855,84.362335,-39.1006,-14.974925,3.3970742,1.6397433
1.582,69.93153,82.65092,-38.80888,-15.360981,2.5054162,1.766799
1.584,67.825516,80.9496,-38.23247,-15.700785,1.6592019,1.9108348
1.586,65.77951,79.27804,-37.38507,-15.991823,0.86902523,2.069871
1.588,63.795647,77.65729,-36.290222,-16.232769,0.14294767,2.2417574
1.59,61.87269,76.09712,-34.980198,-16.42315,-0.5133941,2.423966
1.592,60.00892,74.59868,-33.484856,-16.563206,-1.0966353,2.613791
1.594,58.203384,73.16344,-31.833166,-16.653793,-1.6054153,2.8086982
1.596,56.456333,71.80235,-30.056217,-16.696278,-2.0400543,3.0063052
1.598,54.7704,70.527725,-28.183191,-16.692387,-2.4021401,3.2041698
1.6,53.148575,69.34835,-26.240042,-16.643997,-2.6941698,3.3999333
1.602,51.593094,68.27244,-24.250467,-16.553276,-2.9195094,3.591683
1.604,50.105614,67.309074,-22.238028,-16.422485,-3.0819092,3.7778258
1.606,48.686443,66.466606,-20.227358,-16.25365,-3.185108,3.956931
1.608,47.332863,65.746376,-18.241095,-16.04877,-3.232772,4.127917
1.61,46.03938,65.141106,-16.297485,-15.809869,-3.2282386,4.289957
1.612,44.80001,64.6408,-14.411912,-15.538771,-3.1742358,4.4423733
1.614,43.60984,64.23601,-12.597873,-15.23718,-3.073066,4.584466
1.616,42.464443,63.918358,-10.867479,-14.906868,-2.9268737,4.7153645
1.618,41.360336,63.680283,-9.2318325,-14.549761,-2.7378259,4.8340454
1.62,40.29516,63.514923,-7.7000275,-14.16803,-2.5082765,4.9394455
1.622,39.26724,63.416355,-6.279602,-13.76413,-2.2409139,5.030559
1.624,38.273563,63.380188,-4.976796,-13.34086,-1.9389431,5.106503
1.626,37.312737,63.399483,-3.796928,-12.901294,-1.6061262,5.166687
1.628,36.384502,63.463802,-2.7417383,-12.448778,-1.2468293,5.2109346
1.63,35.48314,63.566097,-1.8131447,-11.986852,-0.86587656,5.239555
1.632,34.605217,63.69774,-1.0140634,-11.519158,-0.46838474,5.2533665
1.634,33.75013,63.846992,-0.34425282,-11.049322,-0.059517622,5.253626
1.636,32.913967,64.004295,0.20048857,-10.580844,0.355695,5.2419357
1.638,32.09318,64.161835,0.6252567,-10.116966,0.7724943,5.2201805
1.64,31.286255,64.31193,0.93381107,-9.660589,1.1866105,5.1903343
1.642,30.491798,64.4479,1.1292944,-9.2142315,1.5943418,5.1542854
1.644,29.708107,64.56343,1.2163227,-8.7799835,1.9925936,5.113757
1.646,28.93359,64.65238,1.2010586,-8.359556,2.378868,5.0702
1.648,28.16626,64.70912,1.0907407,-7.954338,2.7512279,5.024732
1.65,27.404743,64.728714,0.89248085,-7.565465,3.1082098,4.978144
1.652,26.648201,64.706604,0.6133871,-7.1938677,3.4487324,4.930961
1.654,25.89545,64.6386,0.2606511,-6.840388,3.7720442,4.883599
1.656,25.146355,64.52158,-0.15763378,-6.5057116,4.077697,4.836463
1.658,24.401272,64.35326,-0.63332176,-6.190358,4.365537,4.7901025
1.66,23.660505,64.13216,-1.1587915,-5.8946524,4.635723,4.745271
1.662,22.925083,63.857403,-1.7270947,-5.6186414,4.888793,4.7028904
1.664,22.195465,63.529423,-2.3318653,-5.3620553,5.125741,4.6641006
1.666,21.47272,63.149693,-2.967414,-5.124257,5.348095,4.6301384
1.668,20.758087,62.72064,-3.6289902,-4.9042892,5.557872,4.6022167
1.67,20.05294,62.245518,-4.312806,-4.700922,5.7575455,4.581409
1.672,19.35858,61.728294,-5.0159626,-4.512668,5.9499936,4.5685453
1.674,18.677036,61.173634,-5.7359924,-4.3378386,6.1384063,4.564088
1.676,18.010284,60.586792,-6.471613,-4.1746755,6.32607,4.5680723
1.678,17.36019,59.97326,-7.222438,-4.0213623,6.516221,4.5801067
1.68,16.728895,59.33861,-7.9888926,-3.8761687,6.711792,4.599366
1.682,16.118206,58.68866,-8.772134,-3.737556,6.9152336,4.624606
1.684,15.529804,58.02897,-9.573999,-3.6042502,7.1283216,4.654217
1.686,14.965111,57.364773,-10.396788,-3.4753006,7.3519096,4.6863337
1.688,14.425369,56.700943,-11.243157,-3.350154,7.585843,4.718879
1.69,13.911547,56.041813,-12.11547,-3.2287116,7.8288918,4.749595
1.692,13.426411,55.38871,-13.016711,-3.111331,8.078723,4.776165
1.694,12.955229,54.756016,-13.951893,-2.998752,8.331908,4.7963176
1.696,12.515833,54.135468,-14.917247,-2.892077,8.584055,4.8078947
1.698,12.100563,53.529907,-15.91074,-2.7926574,8.829998,4.8089437
1.7,11.707447,52.94039,-16.937174,-2.7019498,9.064015,4.7977614
1.702,11.33567,52.36801,-17.995127,-2.6213748,9.280173,4.772973
1.704,10.98325,51.81191,-19.082014,-2.5522742,9.472588,4.733556
1.706,10.648434,51.270023,-20.19471,-2.4957,9.635717,4.678824
1.708,10.328485,50.740402,-21.329155,-2.4523973,9.764616,4.608363
1.71,10.021046,50.21994,-22.48005,-2.4227698,9.855115,4.5220532
1.712,9.723449,49.705086,-23.64107,-2.4068599,9.903936,4.4199867
1.714,9.433179,49.19236,-24.805214,-2.4043558,9.908754,4.302398
1.716,9.147796,48.678024,-25.964993,-2.4146318,9.8681345,4.16966
1.718,8.865301,48.158115,-27.112625,-2.4367332,9.7815695,4.02217
1.72,8.583475,47.628765,-28.240355,-2.469461,9.649227,3.8604362
1.722,8.300405,47.085983,-29.34062,-2.5112915,9.47196,3.685314
1.724,8.014492,46.52536,-30.40619,-2.5605586,9.251147,3.4968553
1.726,7.7244043,45.9427,-31.43017,-2.6161695,8.987988,3.29496
1.728,7.4290905,45.333954,-32.405834,-2.6764097,8.685476,3.0804393
1.73,7.128169,44.695038,-33.327194,-2.7395723,8.346472,2.8540502
1.732,6.820753,44.022762,-34.189064,-2.8040693,7.9738092,2.6164103
1.734,6.5069866,43.314205,-34.98703,-2.8681746,7.57103,2.3682425
1.736,6.186979,42.56713,-35.717594,-2.930215,7.142066,2.1105742
1.738,5.861164,41.779976,-36.378128,-2.9885297,6.6912584,1.8446016
1.74,5.530874,40.951504,-36.966652,-3.0415423,6.2233458,1.5716321
1.742,5.196876,40.0816,-37.48216,-3.0877259,5.7432585,1.29321
1.744,4.859903,39.17114,-37.92421,-3.1256394,5.256012,1.01103
1.746,4.521109,38.221214,-38.293243,-3.1540127,4.766492,0.7268188
1.748,4.181794,37.23368,-38.590206,-3.1718245,4.279213,0.4422636
1.75,3.8431807,36.211166,-38.816162,-3.1783347,3.7980843,0.15899253
1.752,3.5065165,35.15699,-38.972565,-3.1731746,3.326209,-0.12150967
1.754,3.1735215,34.074814,-39.06104,-3.1563694,2.8657184,-0.39792347
1.756,2.845436,32.969154,-39.08359,-3.128374,2.4177315,-0.66916716
1.758,2.5238624,31.844734,-39.042374,-3.0900066,1.98248,-0.934356
1.76,2.2101889,30.706497,-38.939465,-3.0424235,1.5594122,-1.1928179
1.762,1.9056144,29.55984,-38.77667,-2.9870214,1.1474533,-1.4440019
1.764,1.6125185,28.410482,-38.555542,-2.9252617,0.7452575,-1.6874483
1.766,1.3324664,27.264153,-38.27846,-2.8585286,0.3514558,-1.9227443
1.768,1.0665102,26.126755,-37.947243,-2.7879996,-0.03510022,-2.1494727
1.77,0.81676483,25.003792,-37.56346,-2.7145348,-0.415182,-2.3672378
1.772,0.5846827,23.90097,-37.12889,-2.6386325,-0.7891622,-2.5756476
1.774,0.37230825,22.823364,-36.64538,-2.5604215,-1.1568913,-2.774353
1.776,0.18130732,21.775908,-36.11432,-2.4797862,-1.5178375,-2.9631314
1.778,0.0130729675,20.763031,-35.53743,-2.3962195,-1.871081,-3.1410613
1.78,-0.13092136,19.788994,-34.916756,-2.3086066,-2.2150664,-3.307587
1.782,-0.24948692,18.85767,-34.254192,-2.2165077,-2.5492685,-3.4630492
1.784,-0.3421607,17.97277,-33.552227,-2.1193204,-2.8720574,-3.6074488
1.786,-0.40826368,17.137173,-32.81323,-2.016427,-3.1815414,-3.7406685
1.788,-0.44726276,16.353529,-32.039864,-1.907436,-3.4763103,-3.8629096
1.79,-0.45929527,15.623656,-31.23499,-1.7920284,-3.7550228,-3.974818
1.792,-0.44432783,14.94871,-30.401619,-1.6701288,-4.0164943,-4.0773077
1.794,-0.40275335,14.329298,-29.543114,-1.5418783,-4.2597513,-4.1715755
1.796,-0.335155,13.765633,-28.662737,-1.4076337,-4.4840784,-4.259127
1.798,-0.24227381,13.256884,-27.763523,-1.2679173,-4.6890483,-4.341646
1.8,-0.12587595,12.802291,-26.848452,-1.1233672,-4.874529,-4.420845
1.802,0.010791302,12.401953,-25.919838,-0.9746841,-5.0406737,-4.498345
1.804,0.17890406,12.043665,-24.978312,-0.8225634,-5.18789,-4.575616
1.806,0.3571906,11.736679,-24.031796,-0.66762507,-5.316742,-4.6538544
1.808,0.55322456,11.475128,-23.083364,-0.5103556,-5.427904,-4.7339916
1.81,0.7654414,11.254553,-22.129196,-0.3511045,-5.522085,-4.81663
1.812,0.99089,11.06979,-21.17165,-0.19006836,-5.600021,-4.9021225
1.814,1.2274861,10.917568,-20.213104,-0.027296007,-5.662368,-4.990579
1.816,1.4729252,10.794374,-19.254662,0.13733488,-5.7096844,-5.0819354
1.818,1.7253284,10.696217,-18.297237,0.30407792,-5.742373,-5.1760335
1.82,1.9824986,10.619703,-17.341892,0.47334075,-5.760678,-5.27262
1.822,2.242537,10.561408,-16.389933,0.6456597,-5.7647076,-5.371423
1.824,2.5031862,10.517621,-15.442612,0.8216667,-5.754401,-5.472118
1.826,2.7624402,10.48492,-14.501307,1.0021298,-5.7295284,-5.5743923
1.828,3.0181909,10.460203,-13.567291,1.1878884,-5.6897197,-5.677929
1.83,3.2687078,10.440353,-12.642058,1.3798233,-5.634482,-5.7823896
1.832,3.5121827,10.4228735,-11.727264,1.578787,-5.563202,-5.8874063
1.834,3.7468114,10.405825,-10.824677,1.7855895,-5.47519,-5.992558
1.836,3.971054,10.387458,-9.936361,2.0009358,-5.3697453,-6.0973554
1.838,4.1837006,10.366222,-9.064772,2.2253902,-5.246215,-6.201255
1.84,4.3834586,10.341225,-8.212456,2.4593534,-5.104083,-6.303594
1.842,4.5697646,10.311754,-7.382173,2.7029972,-4.9430714,-6.403609
1.844,4.7418504,10.277433,-6.576862,2.9563408,-4.7631583,-6.5004406
1.846,4.8995786,10.238062,-5.799789,3.2192564,-4.5646687,-6.593197
1.848,5.0429363,10.1938,-5.054174,3.4914455,-4.3482757,-6.6809487
1.85,5.171919,10.145153,-4.343236,3.7724743,-4.1150303,-6.7627735
1.852,5.2870874,10.092876,-3.6699214,4.061804,-3.866354,-6.837802
1.854,5.3892365,10.038436,-3.0369,4.3587866,-3.6039898,-6.9052515
1.856,5.4794292,9.9831295,-2.446513,4.6627154,-3.3299494,-6.9644604
1.858,5.559146,9.928612,-1.9007685,4.9728093,-3.0464568,-7.0148416
1.86,5.629878,9.876671,-1.4011997,5.288214,-2.7558882,-7.055876
1.862,5.6933546,9.829193,-0.9489397,5.6080337,-2.4607196,-7.0871
1.864,5.751508,9.788063,-0.5444952,5.931366,-2.1634579,-7.1081204
1.866,5.806352,9.755105,-0.18777323,6.2572823,-1.8665911,-7.1185904
1.868,5.8598766,9.732192,0.1218127,6.5848417,-1.5726066,-7.118223
1.87,5.9142323,9.721117,0.38576996,6.9130564,-1.2839954,-7.106846
1.872,5.971185,9.723406,0.6058483,7.24088,-1.0032258,-7.0844107
1.874,6.0326805,9.7403965,0.7846012,7.567195,-0.73274446,-7.051072
1.876,6.100137,9.773423,0.92536175,7.890782,-0.47497904,-7.0071545
1.878,6.175302,9.823635,1.0317541,8.210367,-0.23231006,-6.953134
1.88,6.2590523,9.89246,1.107474,8.524578,-0.0070152283,-6.889635
1.882,6.3528624,9.980588,1.1565387,8.831955,0.19876528,-6.817355
1.884,6.4573817,10.088829,1.1831493,9.131024,0.38306642,-6.7370806
1.886,6.573434,10.21796,1.1912675,9.420295,0.54414,-6.649596
1.888,6.7015653,10.368521,1.1849462,9.698293,0.6804999,-6.555659
1.89,6.8421173,10.540757,1.1681894,9.963614,0.79097056,-6.4560046
1.892,6.9954047,10.73484,1.14469,10.214947,0.8747078,-6.351348
1.894,7.1613007,10.950889,1.1179769,10.451102,0.93121266,-6.2424026
1.896,7.3397703,11.189011,1.0909448,10.671061,0.96029997,-6.1299343
1.898,7.5305696,11.449006,1.0665166,10.873956,0.96210074,-6.0147867
1.9,7.733559,11.730919,1.0470147,11.059095,0.9370544,-5.897873
1.902,7.9481688,12.034598,1.0345659,11.226005,0.88588524,-5.7802095
1.904,8.173908,12.359762,1.0310022,11.374389,0.80958474,-5.6628656
1.906,8.410397,12.705902,1.0373254,11.504194,0.7094413,-5.546963
1.908,8.657177,13.072576,1.0542026,11.615539,0.5870099,-5.4335985
1.91,8.913893,13.458951,1.0818427,11.708704,0.4440633,-5.323821
1.912,9.18027,13.864223,1.1199462,11.784069,0.2825246,-5.21852
1.914,9.456015,14.287468,1.1681154,11.842178,0.10445738,-5.118352
1.916,9.741028,14.727557,1.2255926,11.883684,-0.08797145,-5.023719
1.918,10.03528,15.183359,1.291441,11.9093075,-0.2925471,-4.934787
1.92,10.338745,15.653566,1.3646188,11.919816,-0.5071281,-4.8514986
1.922,10.651461,16.13678,1.4438486,11.91601,-0.7296995,-4.773645
1.924,10.973507,16.631218,1.5281272,11.898638,-0.95848036,-4.7009573
1.926,11.305223,17.134975,1.6159759,11.868378,-1.1920363,-4.6331716
1.928,11.646948,17.645817,1.7061787,11.825806,-1.429286,-4.570092
1.93,11.999299,18.161161,1.7975898,11.771297,-1.6696432,-4.511722
1.932,12.362619,18.678381,1.889224,11.705015,-1.91304,-4.4583178
1.934,12.737499,19.194693,1.9803748,11.626884,-2.1599162,-4.4103427
1.936,13.124277,19.707008,2.0707455,11.536553,-2.4111733,-4.3684993
1.938,13.5233,20.212091,2.1601014,11.433458,-2.6680808,-4.333633
1.94,13.934778,20.706648,2.2486448,11.316826,-2.9322333,-4.306672
1.942,14.359011,21.186998,2.3365784,11.185732,-3.205409,-4.2885737
1.944,14.796017,21.64941,2.4244413,11.039185,-3.4894633,-4.280282
1.946,15.245566,22.090006,2.5129085,10.876198,-3.7861738,-4.2826266
1.948,15.707272,22.505213,2.602992,10.695866,-4.0971346,-4.296327
1.95,16.180859,22.89118,2.6957278,10.4974785,-4.42366,-4.321945
1.952,16.665703,23.244247,2.7919545,10.280542,-4.7667537,-4.359878
1.954,17.160826,23.560917,2.8928847,10.044844,-5.127034,-4.4104095
1.956,17.664955,23.8382,3.000062,9.790414,-5.5047145,-4.473734
1.958,18.176891,24.073,3.1144652,9.517546,-5.8996096,-4.5499487
1.96,18.695503,24.262434,3.2373018,9.226728,-6.31114,-4.639021
1.962,19.219036,24.403973,3.3697767,8.91868,-6.738376,-4.7407875
1.964,19.745829,24.495243,3.5128036,8.594288,-7.1800156,-4.8549356
1.966,20.274357,24.534664,3.6671276,8.254545,-7.6344447,-4.9810405
1.968,20.80249,24.52107,3.8333201,7.900454,-8.09979,-5.118558
1.97,21.328232,24.45424,4.011589,7.533057,-8.573992,-5.266779
1.972,21.849972,24.33356,4.2019715,7.153356,-9.054811,-5.4247966
1.974,22.365704,24.158875,4.40427,6.762366,-9.539877,-5.5915804
1.976,22.873203,23.930248,4.6179314,6.361024,-10.0267515,-5.7659907
1.978,23.370321,23.648264,4.842059,5.9502745,-10.5128975,-5.9467745
1.98,23.854986,23.314013,5.075563,5.531082,-10.995622,-6.132638
1.982,24.325315,22.928913,5.317379,5.1043806,-11.472252,-6.322253
1.984,24.778912,22.494904,5.566017,4.6711307,-11.940189,-6.5142474
1.986,25.214195,22.01383,5.8197603,4.2323613,-12.396767,-6.7072315
1.988,25.628986,21.487865,6.0769854,3.7892063,-12.839308,-6.8998785
1.99,26.021555,20.919353,6.3359365,3.342885,-13.2651615,-7.0909038
1.992,26.389751,20.311102,6.5948405,2.894703,-13.671684,-7.2790637
1.994,26.732035,19.66591,6.8517056,2.4460368,-14.05626,-7.4631968
1.996,27.0465,18.986475,7.104295,1.9983144,-14.416299,-7.642157
1.998,27.331413,18.275883,7.3506045,1.5530314,-14.749388,-7.8148775
2,27.58479,17.537823,7.5883265,1.1117382,-15.053325,-7.980381
2.002,27.804897,16.775923,7.8150806,0.67593,-15.326111,-8.137905
2.004,27.990381,15.993814,8.028536,0.24711037,-15.565952,-8.286734
2.006,28.139772,15.195227,8.226324,-0.17325974,-15.77135,-8.4262
2.008,28.251472,14.384048,8.4060335,-0.58375263,-15.941095,-8.555703
2.01,28.324139,13.56402,8.565565,-0.98298407,-16.074312,-8.674697
2.012,28.356398,12.739255,8.702864,-1.3696117,-16.170406,-8.782715
2.014,28.347006,11.91397,8.816053,-1.7424135,-16.229101,-8.879375
2.016,28.294897,11.0923195,8.903628,-2.100306,-16.250383,-8.964342
2.018,28.198927,10.2786255,8.964317,-2.4423862,-16.234604,-9.037282
2.02,28.058275,9.477322,8.997004,-2.7679152,-16.182436,-9.097725
2.022,27.87236,8.692576,9.001009,-3.0763497,-16.094978,-9.145178
2.024,27.640757,7.928794,8.976011,-3.36732,-15.973764,-9.179007
2.026,27.36348,7.190199,8.921853,-3.6406386,-15.820731,-9.198463
2.028,27.0406,6.4808455,8.838741,-3.8962307,-15.638196,-9.202635
2.03,26.673136,5.8045025,8.727245,-4.1340666,-15.428763,-9.190481
2.032,26.262106,5.164777,8.588166,-4.3541665,-15.195245,-9.160923
2.034,25.809063,4.5648375,8.422637,-4.5565763,-14.94057,-9.11292
2.036,25.315924,4.0075116,8.232372,-4.741293,-14.667429,-9.045542
2.038,24.785044,3.4953308,8.01902,-4.908262,-14.378174,-8.958046
2.04,24.219185,3.0303946,7.784712,-5.0574374,-14.074884,-8.849959
2.042,23.6217,2.6141624,7.531701,-5.188769,-13.759237,-8.721079
2.044,22.996113,2.2473493,7.2623005,-5.3021784,-13.432409,-8.571591
2.046,22.34646,1.9301791,6.978812,-5.3976455,-13.095144,-8.402065
2.048,21.67701,1.6623564,6.6836414,-5.475199,-12.747866,-8.213428
2.05,20.992142,1.4430313,6.3791475,-5.5349507,-12.390732,-8.006935
2.052,20.296394,1.2708688,6.067894,-5.577154,-12.0237055,-7.784087
2.054,19.594334,1.1438928,5.7520022,-5.602168,-11.6466465,-7.5465446
2.056,18.890713,1.0597806,5.433809,-5.610433,-11.259492,-7.2960453
2.058,18.190128,1.0155177,5.115238,-5.602494,-10.862268,-7.034515
2.06,17.496809,1.0078938,4.798117,-5.5789695,-10.455082,-6.763962
2.062,16.814991,1.0335112,4.484435,-5.540576,-10.038137,-6.4863663
2.064,16.148817,1.0886023,4.1754313,-5.488085,-9.611808,-6.203658
2.066,15.502031,1.1691921,3.8721626,-5.4222846,-9.176571,-5.9176745
2.068,14.877847,1.2716364,3.5757875,-5.3439875,-8.73309,-5.6301613
2.07,14.279091,1.39235,3.287083,-5.253986,-8.282173,-5.3427486
2.072,13.7085285,1.5277767,3.0065339,-5.153082,-7.824732,-5.056955
2.074,13.1683655,1.6744179,2.734458,-5.042104,-7.361834,-4.7741947
2.076,12.660351,1.8290281,2.4712071,-4.9219074,-6.8945904,-4.495673
2.078,12.186046,1.9885101,2.216854,-4.7934003,-6.424203,-4.222393
2.08,11.746561,2.1496964,1.9713275,-4.657505,-5.9518614,-3.9551425
2.082,11.342526,2.3105755,1.7346439,-4.515186,-5.4787636,-3.6945105
2.084,10.974201,2.469377,1.5063736,-4.3674135,-5.006057,-3.440865
2.086,10.642076,2.624399,1.2863023,-4.2151446,-4.5347996,-3.1943638
2.088,10.345978,2.7741745,1.0741496,-4.0592666,-4.0659513,-2.9549909
2.09,10.085387,2.917266,0.8693306,-3.9005682,-3.6003914,-2.7226505
2.092,9.859589,3.0525572,0.6711761,-3.7397742,-3.1388774,-2.4972026
2.094,9.667877,3.1789293,0.47906274,-3.5775056,-2.682082,-2.2784958
2.096,9.508731,3.2959301,0.29233378,-3.4142962,-2.2306132,-2.06641
2.098,9.381091,3.4031193,0.11021584,-3.2506082,-1.7850693,-1.8608503
2.1,9.283364,3.5002844,-0.068009675,-3.086802,-1.346026,-1.6617852
2.102,9.2139225,3.5871975,-0.24315399,-2.9232023,-0.9140431,-1.4692518
2.104,9.170841,3.6639805,-0.4159096,-2.760142,-0.48970306,-1.2833322
2.106,9.1523485,3.7306275,-0.58677816,-2.597917,-0.07360005,-1.1041342
2.108,9.156571,3.7874284,-0.7565766,-2.4368603,0.33365437,-0.93176633
2.11,9.181867,3.8343558,-0.92579657,-2.277347,0.73140943,-0.76633877
2.112,9.226109,3.8715994,-1.0949237,-2.119798,1.1189975,-0.60792094
2.114,9.287328,3.8995457,-1.2643065,-1.9646752,1.4957352,-0.4565538
2.116,9.363372,3.9186518,-1.4343925,-1.8124579,1.8609172,-0.31222057
2.118,9.452501,3.9293687,-1.6054589,-1.6636645,2.2138271,-0.1748887
2.12,9.55279,3.932295,-1.7776309,-1.5188469,2.5537522,-0.04450655
2.122,9.6624775,3.9277184,-1.9509649,-1.3785456,2.8799844,0.079019755
2.124,9.779852,3.9159398,-2.125432,-1.2432957,3.191831,0.19578397
2.126,9.9031105,3.8976018,-2.3008196,-1.1135635,3.488628,0.30589515
2.128,10.030683,3.8732035,-2.4769187,-0.9897625,3.7697704,0.4094684
2.13,10.161277,3.8431835,-2.6532397,-0.8722319,4.0346956,0.5066097
2.132,10.29342,3.8082314,-2.8293664,-0.76123077,4.2829285,0.59741455
2.134,10.425676,3.768805,-3.004825,-0.65692043,4.5140843,0.68200755
2.136,10.5569105,3.725417,-3.1790552,-0.5593781,4.7279024,0.7605171
2.138,10.686241,3.6785212,-3.3513377,-0.46859705,4.9242516,0.8330824
2.14,10.812305,3.628656,-3.5212064,-0.3844808,5.103129,0.8998647
2.142,10.934472,3.5762727,-3.6879563,-0.30685186,5.264684,0.96103936
2.144,11.0519495,3.521813,-3.8511393,-0.2354688,5.409243,1.0168196
2.146,11.164159,3.465632,-4.010205,-0.17001778,5.537273,1.067419
2.148,11.270594,3.407983,-4.164732,-0.11015794,5.649366,1.1130717
2.15,11.370905,3.3490112,-4.314374,-0.055529267,5.746218,1.1540107
2.152,11.464711,3.2889225,-4.4587173,-0.005753249,5.8286204,1.1904525
2.154,11.551659,3.2280746,-4.597573,0.03953427,5.8974338,1.2226298
2.156,11.631545,3.1665661,-4.730653,0.080677986,5.9535484,1.2507534
2.158,11.704227,3.1045928,-4.8579006,0.11799914,5.9978538,1.2750357
2.16,11.76977,3.0421581,-4.979307,0.15176547,6.031241,1.295665
2.162,11.828139,2.9793897,-5.0949526,0.18222198,6.054551,1.3128221
2.164,11.8794565,2.9164743,-5.2048616,0.20956698,6.068601,1.3267033
2.166,11.923868,2.853379,-5.309392,0.23396772,6.0741224,1.3374972
2.168,11.961429,2.7901149,-5.408621,0.25555348,6.071763,1.3453993
2.17,11.992157,2.7268195,-5.502879,0.27442187,6.0620914,1.3506157
2.172,12.016578,2.663598,-5.5925674,0.2906641,6.0455794,1.3533759
2.174,12.034744,2.600681,-5.67786,0.30434236,6.022615,1.3539038
2.176,12.047192,2.5381162,-5.7593555,0.31550854,5.9935017,1.3524344
2.178,12.054141,2.4759035,-5.8372464,0.32420614,5.9584904,1.3492188
2.18,12.055804,2.41425,-5.912031,0.3304669,5.9177732,1.3444979
2.182,12.0525255,2.3531861,-5.984117,0.3343088,5.8714895,1.3385069
2.184,12.044755,2.292975,-6.053776,0.33575946,5.819763,1.331465
2.186,12.032779,2.2336876,-6.1215405,0.33484802,5.762704,1.3235843
2.188,12.017257,2.1754532,-6.1875424,0.3316024,5.7004147,1.3150413
2.19,11.99841,2.1184106,-6.25209,0.32605523,5.632993,1.3059947
2.192,11.976513,2.0627706,-6.315531,0.31825048,5.560558,1.2965755
2.194,11.952053,2.0087569,-6.3780603,0.30824536,5.483218,1.2868831
2.196,11.925301,1.9564998,-6.4399557,0.29608786,5.4011073,1.27701
2.198,11.896719,1.9061925,-6.5013647,0.28182924,5.3143744,1.2670194
2.2,11.866705,1.8579497,-6.562521,0.26554775,5.2231684,1.257014
2.202,11.835328,1.8119483,-6.623585,0.24732953,5.1276407,1.2470732
2.204,11.803017,1.7683599,-6.684564,0.22726488,5.0279884,1.2372786
2.206,11.770178,1.7273095,-6.745621,0.2054568,4.92442,1.2277018
2.208,11.7368765,1.6888764,-6.806925,0.1820013,4.8171415,1.2184181
2.21,11.703453,1.6532004,-6.868324,0.15702009,4.7063713,1.2094963
2.212,11.6701145,1.6203859,-6.929879,0.13064742,4.592348,1.2009712
2.214,11.637234,1.5903969,-6.991642,0.103013575,4.4752655,1.1928664
2.216,11.604856,1.563421,-7.053557,0.07426959,4.355318,1.185178
2.218,11.573217,1.5394406,-7.115445,0.044584334,4.232669,1.1778852
2.22,11.542363,1.5183556,-7.1771455,0.014130354,4.107454,1.1709343
2.222,11.512599,1.5001945,-7.238616,-0.016928613,3.9797664,1.1642439
2.224,11.483931,1.4851222,-7.299686,-0.048437536,3.8496861,1.1577336
2.226,11.456503,1.4730301,-7.3600163,-0.08024162,3.7172747,1.1513011
2.228,11.430441,1.4638786,-7.419463,-0.112208724,3.5825999,1.1448891
2.23,11.4058075,1.4576273,-7.4777484,-0.14422745,3.4457512,1.138442
2.232,11.382831,1.4543276,-7.5346293,-0.17619884,3.3068514,1.1319443
2.234,11.361262,1.4540579,-7.589763,-0.20804662,3.1660614,1.1254301
2.236,11.341295,1.4566753,-7.6428905,-0.23969007,3.0235972,1.1189823
2.238,11.322908,1.462235,-7.69369,-0.27105534,2.8797266,1.1127138
2.24,11.305929,1.4707582,-7.741917,-0.30207473,2.7347498,1.106756
2.242,11.290331,1.4822259,-7.787308,-0.33265883,2.5890164,1.1012661
2.244,11.276129,1.4966178,-7.8295484,-0.36271805,2.4428911,1.0963932
2.246,11.263201,1.514008,-7.8684688,-0.392144,2.2967389,1.0922627
2.248,11.251266,1.5343146,-7.9039226,-0.4208386,2.1509326,1.0889724
2.25,11.240326,1.5575318,-7.9356747,-0.44867688,2.0058126,1.0865675
2.252,11.230127,1.5835602,-7.963687,-0.47554174,1.8616825,1.0850625
2.254,11.22047,1.6126051,-7.987831,-0.5013349,1.7188345,1.0844104
2.256,11.211078,1.6445544,-8.008079,-0.5259501,1.5775285,1.0845429
2.258,11.201629,1.6792927,-8.024286,-0.54928344,1.4379629,1.0853806
2.26,11.191985,1.7167885,-8.036498,-0.5712565,1.3003014,1.0868276
2.262,11.181781,1.7569389,-8.044766,-0.591782,1.1646957,1.0887778
2.264,11.170898,1.7996616,-8.049063,-0.6107989,1.0312545,1.0911349
2.266,11.158973,1.8449588,-8.049419,-0.6282529,0.90008104,1.0938238
2.268,11.145727,1.8926353,-8.045908,-0.64408875,0.7712798,1.0968093
2.27,11.130932,1.9426787,-8.038558,-0.65825725,0.64493537,1.1000644
2.272,11.114359,1.9948945,-8.02748,-0.6707221,0.5211365,1.1036073
2.274,11.095795,2.0491207,-8.012696,-0.6814272,0.3999853,1.1074724
2.276,11.075078,2.105295,-7.9942865,-0.6903019,0.2815843,1.1117287
2.278,11.051947,2.1633995,-7.9724627,-0.697287,0.16602862,1.1164331
2.28,11.026746,2.2231274,-7.947291,-0.70230365,0.053403765,1.1216512
2.282,10.998966,2.2842624,-7.918767,-0.7052897,-0.056216836,1.1274474
2.284,10.968746,2.3466427,-7.8872085,-0.706191,-0.16276553,1.1338717
2.286,10.935952,2.4101076,-7.8525553,-0.7049625,-0.266214,1.1409192
2.288,10.900711,2.4746068,-7.815169,-0.7015667,-0.36655328,1.1485617
2.29,10.863188,2.5398548,-7.775127,-0.695998,-0.46380478,1.1567509
2.292,10.823362,2.6056583,-7.732625,-0.68826973,-0.5580025,1.1654128
2.294,10.781376,2.6717832,-7.6879153,-0.6784042,-0.6491989,1.1744756
2.296,10.737452,2.738006,-7.641145,-0.6664436,-0.73746073,1.1838356
2.298,10.691486,2.8039594,-7.5926695,-0.65242183,-0.8228438,1.1933899
2.3,10.643877,2.8693879,-7.542686,-0.63637966,-0.905397,1.2030504
2.302,10.59484,2.9339817,-7.4914274,-0.6183506,-0.985169,1.2127216
2.304,10.544401,2.9974325,-7.439112,-0.5983574,-1.0621814,1.2223352
2.306,10.492915,3.059475,-7.3860693,-0.57642215,-1.1364255,1.2318285
2.308,10.440415,3.1197135,-7.3325458,-0.55254424,-1.2078848,1.2411537
2.31,10.386994,3.1780758,-7.27872,-0.52672553,-1.2765262,1.2502794
2.312,10.333023,3.2342515,-7.2247376,-0.4989608,-1.3423035,1.2591833
2.314,10.278502,3.2879753,-7.1710596,-0.46923408,-1.405165,1.2678719
2.316,10.223564,3.3390894,-7.1177983,-0.43754038,-1.4650522,1.2763492
2.318,10.16843,3.3874853,-7.065131,-0.40387708,-1.5219096,1.2846494
2.32,10.113004,3.4329927,-7.0132823,-0.36824185,-1.5757123,1.292807
2.322,10.057527,3.4756622,-6.9623914,-0.33064917,-1.6264355,1.3008765
2.324,10.001911,3.5155137,-6.9125843,-0.2911255,-1.6740817,1.3089223
2.326,9.946391,3.5525978,-6.8640676,-0.24969053,-1.7186737,1.3170079
2.328,9.891034,3.5869884,-6.816973,-0.20637816,-1.7602671,1.3252223
2.33,9.835959,3.6189039,-6.7714443,-0.16123912,-1.7989383,1.3336233
2.332,9.781278,3.6483629,-6.7274375,-0.11431861,-1.8347763,1.3422867
2.334,9.727004,3.6755595,-6.6851816,-0.06568307,-1.8679036,1.3512731
2.336,9.673268,3.7007923,-6.6446776,-0.015387356,-1.8984615,1.3606122
2.338,9.620172,3.7242405,-6.6059194,0.036483765,-1.9265983,1.3703475
2.34,9.567746,3.7462037,-6.568902,0.089838445,-1.9524755,1.3805283
2.342,9.516073,3.7668295,-6.533572,0.14456773,-1.9762634,1.3911611
2.344,9.465337,3.7863646,-6.4998775,0.20056581,-1.9981385,1.402241
2.346,9.415512,3.805133,-6.46771,0.257708,-2.0182772,1.4137554
2.348,9.366728,3.8233643,-6.4370165,0.31586987,-2.036847,1.4256946
2.35,9.319083,3.8412366,-6.407631,0.37492388,-2.0540094,1.4380473
2.352,9.272603,3.8590732,-6.379355,0.43475544,-2.0699146,1.4508024
2.354,9.227444,3.8769429,-6.352175,0.49526715,-2.0846946,1.4639382
2.356,9.183561,3.8950226,-6.3257637,0.55638963,-2.0984786,1.4774369
2.358,9.140879,3.9135828,-6.3000135,0.61806536,-2.1113615,1.4912648
2.36,9.099582,3.9326396,-6.274785,0.6802615,-2.1234255,1.5054029
2.362,9.059473,3.9523294,-6.2499027,0.7429652,-2.1347315,1.5198302
2.364,9.020721,3.972589,-6.225239,0.8061695,-2.1453035,1.5345285
2.366,8.983239,3.9934783,-6.2007027,0.8698917,-2.1551535,1.5494635
2.368,8.947016,4.0150967,-6.1763315,0.9341433,-2.1642756,1.5646135
2.37,8.911888,4.0373735,-6.151926,0.99893093,-2.172652,1.5799661
2.372,8.87787,4.0601835,-6.1276207,1.0642577,-2.1802576,1.5955056
2.374,8.844839,4.0835123,-6.103384,1.1300985,-2.187046,1.6112217
2.376,8.8127365,4.1072617,-6.0793695,1.1964158,-2.1929922,1.6270832
2.378,8.78156,4.131338,-6.055557,1.2631528,-2.198073,1.6430827
2.38,8.751201,4.1556444,-6.0320444,1.330236,-2.202287,1.6591891
2.382,8.7216,4.180157,-6.008976,1.397586,-2.2056422,1.6753736
2.384,8.692748,4.2048197,-5.986512,1.4651229,-2.208176,1.6916118
2.386,8.664538,4.2296467,-5.964812,1.5327518,-2.2099504,1.7078874
2.388,8.637102,4.254533,-5.943934,1.6003902,-2.211053,1.7241846
2.39,8.610115,4.2795014,-5.9240947,1.6679528,-2.2115886,1.7404984
2.392,8.583802,4.304653,-5.905531,1.735379,-2.211691,1.7568339
2.394,8.558167,4.3299932,-5.8882346,1.8025973,-2.2115297,1.7732152
2.396,8.533322,4.355665,-5.872304,1.8695602,-2.2112749,1.789676
2.398,8.509209,4.3817396,-5.857753,1.9362214,-2.2111206,1.8062505
2.4,8.485969,4.408396,-5.844648,2.0025437,-2.2112708,1.822983
2.402,8.463641,4.4359508,-5.832967,2.0685022,-2.2119102,1.8399028
2.404,8.442176,4.4645615,-5.822612,2.1340766,-2.213231,1.857057
2.406,8.421681,4.4944677,-5.8135405,2.1992548,-2.2153926,1.874479
2.408,8.40235,4.526058,-5.8056536,2.2640326,-2.2185495,1.8922144
2.41,8.384156,4.559569,-5.798702,2.328411,-2.2228045,1.910294
2.412,8.367134,4.595253,-5.792554,2.3924022,-2.2282581,1.9287814
2.414,8.351347,4.633387,-5.786894,2.4560227,-2.2349708,1.9476908
2.416,8.336786,4.6743374,-5.7815156,2.519284,-2.242979,1.9670618
2.418,8.323547,4.718429,-5.7760935,2.5822055,-2.2523038,1.9869332
2.42,8.311508,4.765869,-5.770311,2.644789,-2.2629607,2.0073295
2.422,8.300713,4.816949,-5.763976,2.707039,-2.2749457,2.0282664
2.424,8.29092,4.8720865,-5.7565956,2.768958,-2.2882745,2.0497444
2.426,8.282139,4.9314985,-5.7478437,2.8305347,-2.3029714,2.0717602
2.428,8.274244,4.995407,-5.7374234,2.8917642,-2.3190699,2.094297
2.43,8.267263,5.0640798,-5.72494,2.9526281,-2.336631,2.1173344
2.432,8.260862,5.137685,-5.7100406,3.0130985,-2.3557034,2.1408405
2.434,8.254923,5.2163754,-5.692362,3.0731492,-2.3763604,2.164799
2.436,8.249292,5.300407,-5.671538,3.1327438,-2.398676,2.1891937
2.438,8.243626,5.389875,-5.647294,3.1918426,-2.4227283,2.214025
2.44,8.237739,5.4850197,-5.619281,3.2504206,-2.448591,2.2392998
2.442,8.231336,5.586002,-5.5872564,3.308445,-2.4762979,2.265039
2.444,8.224216,5.692865,-5.5508432,3.3659003,-2.5058832,2.2912798
2.446,8.216172,5.805706,-5.509863,3.4227629,-2.5373592,2.318054
2.448,8.206952,5.924583,-5.464034,3.4790123,-2.5707095,2.3454068
2.45,8.196339,6.049453,-5.413216,3.5346503,-2.6058974,2.3733737
2.452,8.183924,6.180463,-5.357135,3.5896745,-2.642878,2.401991
2.454,8.169577,6.317458,-5.2956533,3.6440969,-2.6815825,2.431278
2.456,8.1529255,6.460429,-5.228654,3.697917,-2.7219422,2.4612298
2.458,8.1337805,6.6094036,-5.15591,3.7511554,-2.7638443,2.491828
2.46,8.111925,6.76429,-5.077323,3.8038385,-2.8071938,2.5230417
2.462,8.087049,6.9248695,-4.9927726,3.8559825,-2.8518646,2.55481
2.464,8.058713,7.0914245,-4.9020853,3.9076211,-2.897756,2.5870733
2.466,8.026792,7.2636795,-4.805192,3.9587889,-2.9447513,2.6197486
2.468,7.991192,7.441662,-4.7020187,4.0095167,-2.9927325,2.6527824
2.47,7.9514275,7.625332,-4.5923443,4.0598435,-3.0415757,2.6860988
2.472,7.9072504,7.814627,-4.476088,4.109821,-3.0911283,2.7196448
2.474,7.858405,8.009421,-4.353116,4.1595154,-3.1412287,2.753408
2.476,7.804618,8.209865,-4.2233157,4.2089963,-3.1916976,2.7873764
2.478,7.7456703,8.4159,-4.0864186,4.2583256,-3.2423186,2.8215866
2.48,7.6813745,8.627535,-3.9424846,4.3075953,-3.2928557,2.8560936
2.482,7.6114492,8.844965,-3.7910948,4.356874,-3.3430507,2.8909578
2.484,7.5355406,9.068278,-3.6320941,4.4062524,-3.3925998,2.9262614
2.486,7.4535975,9.297576,-3.465283,4.4558105,-3.4412289,2.9620962
2.488,7.3651814,9.533115,-3.2906084,4.505601,-3.4886355,2.9985318
2.49,7.2700863,9.774969,-3.107831,4.55567,-3.5345454,3.0356221
2.492,7.1682506,10.023053,-2.9166188,4.6060495,-3.578682,3.0734072
2.494,7.0593357,10.277401,-2.7169335,4.6567445,-3.6207857,3.111911
2.496,6.943309,10.538026,-2.5084884,4.707777,-3.6606011,3.1511502
2.498,6.8200216,10.804913,-2.2911215,4.7591405,-3.6978583,3.1911626
2.5,6.689364,11.078017,-2.0646338,4.810856,-3.7322483,3.231987
2.502,6.551195,11.357224,-1.8288126,4.8629513,-3.7634292,3.2736926
2.504,6.405543,11.642371,-1.5835195,4.9154496,-3.7910306,3.3164032
2.506,6.252247,11.933321,-1.328659,4.968404,-3.814633,3.360244
2.508,6.0915337,12.229675,-1.0641313,5.021839,-3.8338082,3.4053555
2.51,5.9234705,12.530977,-0.7898812,5.0758076,-3.8481085,3.4519038
2.512,5.7482953,12.836674,-0.50603867,5.130354,-3.8570833,3.5000143
2.514,5.566295,13.146038,-0.21269321,5.185524,-3.8602445,3.5497746
2.516,5.3776264,13.458237,0.09005594,5.2413874,-3.8570716,3.6012201
2.518,5.1828938,13.77216,0.40195656,5.298037,-3.8469796,3.654299
2.52,4.9824505,14.0866375,0.72268057,5.3555694,-3.829346,3.70889
2.522,4.7768636,14.400295,1.051857,5.4141364,-3.803476,3.7647948
2.524,4.5667787,14.711697,1.3888168,5.473895,-3.7686234,3.8217256
2.526,4.3527303,15.019087,1.7331152,5.5350046,-3.7239823,3.879292
2.528,4.1354795,15.32073,2.0839453,5.5976486,-3.668716,3.9370131
2.53,3.9159875,15.614769,2.440506,5.6619735,-3.6019993,3.994327
2.532,3.6948993,15.899192,2.8018742,5.728108,-3.523085,4.0506053
2.534,3.473195,16.171759,3.166976,5.7961,-3.4313123,4.1052074
2.536,3.2515402,16.430485,3.5347438,5.8659334,-3.3261902,4.15751
2.538,3.0307705,16.67343,3.9039803,5.9374795,-3.2073746,4.2069707
2.54,2.8117113,16.898537,4.273301,6.01054,-3.0746708,4.253181
2.542,2.5950184,17.104021,4.641419,6.084817,-2.9280632,4.295944
2.544,2.3814547,17.288143,5.006869,6.1599383,-2.767686,4.335284
2.546,2.171545,17.449354,5.368123,6.235475,-2.5938163,4.371442
2.548,1.9658802,17.586458,5.723821,6.3109446,-2.4068816,4.4048777
2.55,1.7648613,17.698303,6.072459,6.38582,-2.207422,4.4362063
2.552,1.56864,17.784185,6.41255,6.4595838,-1.9960911,4.466142
2.554,1.3774831,17.843676,6.7425556,6.5316515,-1.7736843,4.495412
2.556,1.1910932,17.876719,7.060992,6.6014447,-1.541132,4.5246935
2.558,1.0093751,17.883638,7.36648,6.6683245,-1.299489,4.554549
2.56,0.8318206,17.865005,7.6576385,6.731638,-1.0499138,4.585413
2.562,0.6579827,17.821575,7.9330263,6.7906866,-0.79367894,4.6175747
2.564,0.48708594,17.754639,8.191562,6.8447104,-0.53218776,4.65116
2.566,0.31830072,17.66545,8.43212,6.892913,-0.2669075,4.6861706
2.568,0.15056968,17.555662,8.653482,6.934471,0.00059358403,4.7224903
2.57,-0.017405033,17.427092,8.854787,6.9685435,0.2686898,4.759911
2.572,-0.1867013,17.281666,9.035143,6.9942822,0.5357213,4.7981534
2.574,-0.3585155,17.12124,9.193805,7.010905,0.800034,4.83687
2.576,-0.53412414,16.948095,9.330141,7.017677,1.060016,4.875651
2.578,-0.714787,16.764206,9.4436035,7.0139694,1.314102,4.9140644
2.58,-0.901603,16.571714,9.533765,6.999271,1.5607992,4.95163
2.582,-1.0954638,16.37265,9.600255,6.9731874,1.7987381,4.9878826
2.584,-1.2972841,16.168932,9.642815,6.935468,2.0266476,5.022332
2.586,-1.5076437,15.962181,9.661287,6.886023,2.2434094,5.054508
2.588,-1.7268786,15.754068,9.655556,6.8249106,2.448027,5.083926
2.59,-1.9551563,15.546019,9.625856,6.7522974,2.6396182,5.110116
2.592,-2.192209,15.339043,9.572148,6.668446,2.817353,5.132632
2.594,-2.4373455,15.134078,9.494843,6.5736775,2.980497,5.151044
2.596,-2.6899614,14.931976,9.394433,6.4683733,3.1283505,5.1649256
2.598,-2.9487743,14.733175,9.271725,6.3528996,3.2602592,5.1738906
2.6,-3.2124944,14.538258,9.127435,6.227633,3.3755949,5.1775966
2.602,-3.4796271,14.347556,8.9625635,6.0929284,3.473778,5.175712
2.604,-3.7481658,14.161095,8.778451,5.949132,3.5542512,5.167964
2.606,-4.016382,13.978878,8.576443,5.7965846,3.616546,5.1541176
2.608,-4.2820873,13.80068,8.358118,5.6356454,3.6603115,5.134017
2.61,-4.543264,13.626177,8.125097,5.466692,3.6853232,5.107587
2.612,-4.797771,13.454957,7.879294,5.290164,3.6915483,5.074823
2.614,-5.04358,13.286663,7.6226444,5.106561,3.6791396,5.0358415
2.616,-5.2788324,13.120714,7.3574142,4.916453,3.6485,4.990852
2.618,-5.501958,12.95683,7.085829,4.720513,3.6003106,4.9401655
2.62,-5.711545,12.794565,6.8102226,4.519474,3.535497,4.8841763
2.622,-5.9062777,12.633474,6.5331564,4.3141685,3.4552763,4.8233724
2.624,-6.0852795,12.473342,6.256939,4.105466,3.3610954,4.758259
2.626,-6.2479734,12.313733,5.98389,3.8942642,3.2546012,4.689361
2.628,-6.394402,12.154469,5.7161455,3.6814718,3.137608,4.617178
2.63,-6.5244336,11.995274,5.4557257,3.4679918,3.0120397,4.5421395
2.632,-6.6385593,11.83586,5.2044187,3.254685,2.879891,4.4645996
2.634,-6.737408,11.675959,4.9639883,3.0423832,2.7431595,4.384814
2.636,-6.8218765,11.515438,4.7357893,2.8318734,2.6037908,4.3029194
2.638,-6.893196,11.354069,4.520893,2.6238823,2.4636624,4.218965
2.64,-6.952902,11.191747,4.320142,2.4190674,2.3245187,4.132925
2.642,-7.0025544,11.028402,4.13409,2.2180479,2.1879497,4.044742
2.644,-7.043603,10.8638935,3.9630146,2.021397,2.0554056,3.9543464
2.646,-7.077916,10.698206,3.8068442,1.8296461,1.9281315,3.8616638
2.648,-7.107337,10.531304,3.665325,1.6432658,1.8071884,3.7666788
2.65,-7.1334686,10.363181,3.538095,1.4626828,1.6934357,3.669447
2.652,-7.1580353,10.193858,3.424376,1.2882595,1.5875331,3.5700917
2.654,-7.1827645,10.023663,3.3235536,1.1202929,1.4899263,3.4688158
2.656,-7.2091074,9.852697,3.2346876,0.9590298,1.4008579,3.3659253
2.658,-7.2384367,9.681235,3.1567564,0.804649,1.3203516,3.2617893
2.66,-7.272023,9.509669,3.0887702,0.65726817,1.2482209,3.1568494
2.662,-7.310795,9.338384,3.029791,0.51695347,1.1841037,3.0515776
2.664,-7.35575,9.1678505,2.9788465,0.3837291,1.1274685,2.9464743
2.666,-7.4074407,8.998514,2.9351683,0.25756752,1.0776563,2.8420439
2.668,-7.4664373,8.830912,2.897923,0.13840187,1.033917,2.7387733
2.67,-7.5327845,8.665521,2.866392,0.026143312,0.99545777,2.6371086
2.672,-7.6068625,8.5030365,2.840098,-0.07932842,0.9614671,2.5374503
2.674,-7.6885595,8.343956,2.8184562,-0.17814398,0.9311779,2.4401474
2.676,-7.7776465,8.188734,2.801258,-0.27047384,0.9038742,2.345471
2.678,-7.8739014,8.037805,2.788207,-0.35648906,0.8789122,2.2536116
2.68,-7.976754,7.8915453,2.7791605,-0.43636632,0.8557431,2.1646883
2.682,-8.085896,7.75028,2.7739801,-0.51030666,0.8339169,2.0787199
2.684,-8.200578,7.6141148,2.7726448,-0.5785297,0.81304675,1.9956503
2.686,-8.320272,7.4831414,2.775172,-0.64124286,0.79285836,1.9153502
2.688,-8.4443,7.3575187,2.7816272,-0.69866055,0.77314544,1.8376464
2.69,-8.571813,7.2370596,2.791871,-0.7510042,0.75379026,1.7623117
2.692,-8.702295,7.121638,2.8060834,-0.79846084,0.73473394,1.6891042
2.694,-8.834908,7.01101,2.824224,-0.84122485,0.7159961,1.6177708
2.696,-8.969049,6.904986,2.8461454,-0.87947625,0.69765306,1.5480738
2.698,-9.103943,6.803127,2.8717437,-0.91337276,0.67984074,1.4797962
2.7,-9.238962,6.705183,2.9007492,-0.94305277,0.66276544,1.4127575
2.702,-9.373401,6.6107416,2.9328368,-0.96864474,0.6466481,1.3468151
2.704,-9.506798,6.519389,2.9676611,-0.99026114,0.63177496,1.2818722
2.706,-9.6385,6.4307537,3.004646,-1.0079968,0.61842966,1.2178751
2.708,-9.768019,6.3445444,3.0431378,-1.0219331,0.60692286,1.1548221
2.71,-9.894775,6.2602963,3.0825098,-1.0321492,0.59756655,1.092739
2.712,-10.01838,6.177688,3.1219785,-1.038729,0.59067506,1.0316737
2.714,-10.138462,6.096529,3.1608348,-1.0417542,0.58651704,0.97169274
2.716,-10.254427,6.016322,3.198195,-1.0413033,0.585322,0.9128734
2.718,-10.366061,5.9369583,3.233314,-1.0374744,0.58728635,0.8552886
2.72,-10.473078,5.8583183,3.2655883,-1.0303607,0.59254324,0.798999
2.722,-10.575108,5.780199,3.2940845,-1.0200889,0.60116273,0.7440419
2.724,-10.671873,5.702364,3.318112,-1.0067929,0.6131625,0.6904459
2.726,-10.763189,5.624776,3.33677,-0.99062306,0.6284927,0.6382256
2.728,-10.8488,5.547382,3.3493867,-0.97173834,0.6470524,0.5873689
2.73,-10.928484,5.4701333,3.3554053,-0.95029783,0.6686802,0.5378519
2.732,-11.00215,5.392983,3.3540854,-0.9264766,0.69319,0.4896448
2.734,-11.069629,5.31584,3.3450346,-0.9004706,0.7203492,0.4427192
2.736,-11.130772,5.238902,3.327855,-0.8724662,0.7498852,0.39705876
2.738,-11.185333,5.162015,3.3023148,-0.84265625,0.7815087,0.35262644
2.74,-11.23333,5.0853324,3.2681694,-0.81124496,0.8149078,0.3093986
2.742,-11.274752,5.008912,3.2253776,-0.7784289,0.8497671,0.26733643
2.744,-11.309541,4.932813,3.1739984,-0.7444042,0.88576066,0.22641477
2.746,-11.337661,4.857031,3.1140218,-0.7093848,0.92255676,0.18660083
2.748,-11.35921,4.781668,3.0457273,-0.67356944,0.959825,0.14785814
2.75,-11.374057,4.7066727,2.9695253,-0.63715917,0.99723685,0.11014825
2.752,-11.382225,4.6322145,2.8857546,-0.6003515,1.034466,0.07342523
2.754,-11.384019,4.558468,2.794847,-0.56334096,1.0711893,0.03765005
2.756,-11.379292,4.485327,2.6973763,-0.52631086,1.1071074,0.00277102
2.758,-11.368071,4.4128094,2.5940104,-0.48943213,1.1419139,-0.031266004
2.76,-11.350882,4.3411765,2.4853244,-0.4528612,1.1753418,-0.06451386
2.762,-11.327454,4.270385,2.3719993,-0.41674405,1.2071371,-0.09704104
2.764,-11.298111,4.200403,2.2547126,-0.381221,1.2370665,-0.12892821
2.766,-11.262943,4.1313887,2.1343527,-0.34641007,1.2649083,-0.16025215
2.768,-11.222118,4.0633516,2.011526,-0.31243977,1.2904731,-0.19111347
2.77,-11.175978,3.9964225,1.887085,-0.27943134,1.3135791,-0.22159997
2.772,-11.124643,3.9307058,1.7616706,-0.2474998,1.3340424,-0.2518104
2.774,-11.068314,3.8661673,1.6361651,-0.21676427,1.351691,-0.281841
2.776,-11.0072155,3.802946,1.5112362,-0.18732432,1.3663781,-0.3117779
2.778,-10.941631,3.7411163,1.3875356,-0.1592749,1.3779768,-0.34169018
2.78,-10.871808,3.6808805,1.2658367,-0.13268903,1.3863751,-0.3716341
2.782,-10.797962,3.6222348,1.1466975,-0.10763365,1.3914784,-0.40164435
2.784,-10.720404,3.565349,1.0307393,-0.0841492,1.3932427,-0.43173409
2.786,-10.639239,3.5104644,0.91844606,-0.062257096,1.3916402,-0.46191454
2.788,-10.5546875,3.4577024,0.81036043,-0.04196483,1.3866764,-0.49217564
2.79,-10.467244,3.4072847,0.70691967,-0.023265764,1.3783891,-0.52249503
2.792,-10.37677,3.3593583,0.6085663,-0.0061415583,1.3668365,-0.5528418
2.794,-10.283854,3.3141546,0.5156431,0.009435542,1.3520969,-0.58319724
2.796,-10.18856,3.271932,0.42853355,0.023486637,1.3342781,-0.61353356
2.798,-10.091117,3.2326913,0.34745598,0.03605304,1.3134872,-0.6438215
2.8,-9.991825,3.1967635,0.27268124,0.04717277,1.2898538,-0.6740439
2.802,-9.890631,3.1643186,0.204319,0.05688174,1.2635233,-0.70419407
2.804,-9.787823,3.135553,0.14258862,0.06523104,1.2346566,-0.7342645
2.806,-9.683609,3.1106825,0.087721825,0.07226105,1.2034333,-0.76424617
2.808,-9.578136,3.0898733,0.03970337,0.07803722,1.1700512,-0.79414546
2.81,-9.471506,3.0732555,-0.0014996529,0.08263146,1.1347222,-0.82396156
2.812,-9.363869,3.0610175,-0.03577614,0.086119324,1.0976772,-0.85371083
2.814,-9.255223,3.0532403,-0.06327057,0.08857775,1.0591532,-0.8834101
2.816,-9.145742,3.0499344,-0.08394241,0.09008847,1.0194043,-0.91307795
2.818,-9.03556,3.0512736,-0.097958565,0.090758294,0.9786816,-0.9427203
2.82,-8.924654,3.0572836,-0.10554361,0.09068093,0.93724424,-0.97236073
2.822,-8.813029,3.068007,-0.10681629,0.089962676,0.89535,-1.0020124
2.824,-8.700655,3.083299,-0.10205126,0.088697895,0.8532467,-1.031693
2.826,-8.587616,3.1032836,-0.09148979,0.08698583,0.811186,-1.0614265
2.828,-8.473876,3.1278758,-0.075500965,0.08491659,0.7693845,-1.091229
2.83,-8.359306,3.1568456,-0.054427624,0.082565695,0.72804886,-1.1211429
2.832,-8.244019,3.1900673,-0.028565884,0.07999402,0.68734294,-1.1512034
2.834,-8.127982,3.2274868,0.0017485619,0.077231616,0.6474195,-1.1814588
2.836,-8.010927,3.268834,0.036096573,0.07429916,0.6083911,-1.2119601
2.838,-7.8928537,3.3137703,0.074124575,0.07119918,0.5703261,-1.2427845
2.84,-7.773755,3.362079,0.11528993,0.067911595,0.53326243,-1.2740061
2.842,-7.6535535,3.4134336,0.15931726,0.06441295,0.49720186,-1.3057098
2.844,-7.5321226,3.4675784,0.20573974,0.06065789,0.4621296,-1.3379744
2.846,-7.40935,3.5240238,0.25420356,0.056602,0.4280097,-1.3708726
2.848,-7.2852306,3.5825944,0.30427408,0.05219546,0.3947969,-1.4044693
2.85,-7.1597395,3.6427202,0.3556745,0.047390163,0.36243352,-1.4388292
2.852,-7.032667,3.7041447,0.40799594,0.04213941,0.33087036,-1.4739982
2.854,-6.9040384,3.766459,0.46092296,0.036399245,0.30006093,-1.5100006
2.856,-6.7737947,3.8292818,0.5141952,0.030128777,0.26995456,-1.5468404
2.858,-6.641876,3.8921762,0.5675142,0.023280144,0.2404953,-1.5845239
2.86,-6.5082335,3.954822,0.62054586,0.015832603,0.21162689,-1.6230414
2.862,-6.3729253,4.016861,0.67306757,0.007749796,0.18330911,-1.6623714
2.864,-6.235896,4.077893,0.7249496,-0.0010065436,0.1554921,-1.7024798
2.866,-6.0970697,4.137597,0.77590275,-0.010463476,0.12811038,-1.7433302
2.868,-5.9564548,4.1957436,0.8258035,-0.020647943,0.10111225,-1.7848681
2.87,-5.8139668,4.2519274,0.87440825,-0.03159517,0.07442823,-1.827045
2.872,-5.669848,4.3060417,0.9217005,-0.04335296,0.048006415,-1.869807
2.874,-5.5239744,4.357787,0.96743464,-0.05596125,0.021776855,-1.9130919
2.876,-5.376521,4.4070683,1.0115228,-0.069472015,-0.004327446,-1.9568317
2.878,-5.2274685,4.453682,1.0539868,-0.0839349,-0.030369878,-2.000961
2.88,-5.0767517,4.497539,1.094671,-0.09940398,-0.056429505,-2.0454085
2.882,-4.9245214,4.538547,1.1336348,-0.11593521,-0.08256924,-2.0901146
2.884,-4.770817,4.5767145,1.1705959,-0.13358271,-0.10886586,-2.1350038
2.886,-4.6157227,4.612072,1.2056456,-0.15239358,-0.13540366,-2.1800232
2.888,-4.4593115,4.6445704,1.2387614,-0.17239797,-0.16225761,-2.2251203
2.89,-4.301769,4.674282,1.2698424,-0.19363981,-0.18951952,-2.2702532
2.892,-4.1429896,4.7013607,1.2990612,-0.21615559,-0.21727127,-2.315368
2.894,-3.9831247,4.725866,1.3262329,-0.23997164,-0.24560079,-2.360429
2.896,-3.8224778,4.7479486,1.3514994,-0.26513654,-0.27460125,-2.405405
2.898,-3.6608691,4.767745,1.3748585,-0.29167867,-0.30435368,-2.4502664
2.9,-3.498394,4.785391,1.396277,-0.3196302,-0.33492693,-2.4949672
2.902,-3.3354394,4.8012104,1.4158719,-0.34902316,-0.3663815,-2.5394728
2.904,-3.1717186,4.815338,1.4336075,-0.3798865,-0.39874983,-2.5837302
2.906,-3.0074751,4.8279257,1.4493989,-0.41224825,-0.43204665,-2.627686
2.908,-2.842767,4.8392763,1.4634199,-0.44612217,-0.4662702,-2.6712885
2.91,-2.6775913,4.8495083,1.4756775,-0.48153126,-0.50138557,-2.7144864
2.912,-2.5121717,4.858784,1.4860837,-0.51848435,-0.53735757,-2.7572355
2.914,-2.3465502,4.8673882,1.4947193,-0.55699575,-0.5741444,-2.7994912
2.916,-2.1805463,4.8752418,1.5014384,-0.5970831,-0.6117073,-2.841225
2.918,-2.0143952,4.882632,1.5063554,-0.6387565,-0.6500019,-2.8824291
2.92,-1.8481185,4.8895273,1.5094712,-0.68203926,-0.6889727,-2.9231012
2.922,-1.6818416,4.8959975,1.5107005,-0.7269498,-0.72860813,-2.9632607
2.924,-1.5155181,4.9021225,1.510081,-0.77349937,-0.7688968,-3.0029488
2.926,-1.3492239,4.9078074,1.5076215,-0.821713,-0.80983543,-3.0421994
2.928,-1.1829534,4.912859,1.5033131,-0.8716068,-0.8514239,-3.0810697
2.93,-1.0168768,4.9173055,1.4972541,-0.9231956,-0.89367855,-3.1196222
2.932,-0.8510884,4.921004,1.4894321,-0.9764942,-0.936613,-3.1579194
2.934,-0.685771,4.9237366,1.4797969,-1.031499,-0.9802296,-3.1960177
2.936,-0.5209758,4.925281,1.468554,-1.0881894,-1.0245368,-3.2339582
2.938,-0.35688996,4.9255013,1.4556794,-1.1465507,-1.0695183,-3.2717729
2.94,-0.1936791,4.924151,1.4413399,-1.2065485,-1.1151438,-3.3094695
2.942,-0.031429052,4.9210296,1.4256611,-1.2681389,-1.1613765,-3.3470263
2.944,0.1296463,4.915916,1.4086541,-1.3312619,-1.2081386,-3.384406
2.946,0.28918135,4.908638,1.3904831,-1.3958642,-1.2553555,-3.4215558
2.948,0.4470575,4.898993,1.3713748,-1.4618702,-1.3029202,-3.4583828
2.95,0.60305554,4.886868,1.3514667,-1.5291942,-1.3507035,-3.494801
2.952,0.75689316,4.8720746,1.3308489,-1.5977706,-1.3985848,-3.530702
2.954,0.90823287,4.854476,1.3097073,-1.667511,-1.4464229,-3.5659769
2.956,1.0569384,4.8341203,1.28819,-1.7383468,-1.4940717,-3.6005225
2.958,1.2027084,4.81084,1.2664678,-1.8102059,-1.541381,-3.6342354
2.96,1.3454428,4.784802,1.2446281,-1.8830218,-1.5882012,-3.6669967
2.962,1.4847411,4.755963,1.222884,-1.9567311,-1.6343856,-3.698707
2.964,1.620486,4.7244897,1.2012426,-2.0312662,-1.6798003,-3.7292547
2.966,1.7523594,4.6906757,1.179897,-2.106566,-1.7242817,-3.7584956
2.968,1.8802743,4.6546497,1.1589216,-2.1825678,-1.7676812,-3.7862785
2.97,2.004092,4.6167526,1.1384041,-2.2591965,-1.80985,-3.8124218
2.972,2.1238291,4.5771246,1.1183436,-2.3363674,-1.8506423,-3.836718
2.974,2.239381,4.53643,1.0987085,-2.4139915,-1.8899212,-3.8589272
2.976,2.3505914,4.4949884,1.0795839,-2.4919686,-1.9275464,-3.8788033
2.978,2.4575372,4.453225,1.0607984,-2.5701923,-1.9633855,-3.8960748
2.98,2.5602868,4.4116344,1.0424438,-2.6485343,-1.9973341,-3.910513
2.982,2.6589336,4.370638,1.0244596,-2.7268548,-2.0292938,-3.9218862
2.984,2.7536762,4.3308473,1.0067065,-2.8050113,-2.059167,-3.9300172
2.986,2.8446546,4.292656,0.98907673,-2.8828466,-2.086867,-3.9347677
2.988,2.9320583,4.2566447,0.9714037,-2.9602134,-2.1123183,-3.9360662
2.99,3.0160322,4.2232366,0.9536643,-3.0369575,-2.1354573,-3.9338996
2.992,3.0968773,4.1928816,0.93561494,-3.1129134,-2.1562104,-3.9283102
2.994,3.1748824,4.1659327,0.9173167,-3.187933,-2.174516,-3.919396
2.996,3.2502713,4.1426787,0.8984045,-3.261873,-2.1903243,-3.907313
2.998,3.3233578,4.123583,0.87881124,-3.3345845,-2.2035923,-3.8922427
3,3.3944843,4.10867,0.85850227,-3.4059343,-2.2142541,-3.8743992
3.002,3.4638171,4.098219,0.83713436,-3.4758084,-2.2222598,-3.8540254
3.004,3.5316386,4.0923204,0.8147708,-3.544095,-2.2275543,-3.831344
3.006,3.5984693,4.090949,0.79121053,-3.6107023,-2.2300746,-3.806587
3.008,3.6643252,4.094178,0.76654005,-3.675551,-2.2297616,-3.7799704
3.01,3.7295737,4.1019588,0.7405063,-3.7385733,-2.2265637,-3.7516794
3.012,3.7944655,4.1140966,0.7131041,-3.7997117,-2.2204418,-3.72188
3.014,3.8589957,4.130554,0.6842611,-3.858931,-2.2113483,-3.6907082
3.016,3.9234471,4.1511626,0.6540551,-3.916185,-2.1992545,-3.658259
3.018,3.9879582,4.1756334,0.62241244,-3.9714475,-2.1841607,-3.6246042
3.02,4.0527,4.2037787,0.5893047,-4.024691,-2.1660926,-3.589812
3.022,4.1176205,4.235416,0.5548861,-4.0758786,-2.1450913,-3.5539281
3.024,4.182973,4.270198,0.5189905,-4.124978,-2.121212,-3.516986
3.026,4.2485275,4.3079653,0.48181152,-4.1719594,-2.0945182,-3.47899
3.028,4.3144007,4.34848,0.4433403,-4.216782,-2.065108,-3.4399586
3.03,4.380553,4.391526,0.4035902,-4.259393,-2.033076,-3.399894
3.032,4.4470286,4.436869,0.36272597,-4.299741,-1.9985456,-3.358799
3.034,4.5136023,4.4843283,0.3207941,-4.337777,-1.9616207,-3.3166742
3.036,4.5802574,4.5336175,0.27780557,-4.373461,-1.9224107,-3.2735076
3.038,4.6468077,4.5845957,0.23391294,-4.4067464,-1.881027,-3.2293077
3.04,4.7115507,4.635764,0.19074225,-4.4376097,-1.8375626,-3.184086
3.042,4.7756305,4.6878524,0.14724684,-4.4660387,-1.7920821,-3.1378548
3.044,4.8388495,4.740714,0.103709936,-4.492044,-1.7446312,-3.090642
3.046,4.9010086,4.7940454,0.06019926,-4.5156245,-1.6952493,-3.042463
3.048,4.9619412,4.8475456,0.016990185,-4.5368013,-1.6439421,-2.9933367
3.05,5.021454,4.9010324,-0.025809526,-4.555592,-1.590697,-2.943305
3.052,5.0792656,4.954266,-0.06801939,-4.572,-1.5354835,-2.8923934
3.054,5.135261,5.006954,-0.10940623,-4.586017,-1.4782773,-2.8406405
3.056,5.189357,5.0588846,-0.14979506,-4.5976133,-1.4190378,-2.7880971
3.058,5.2413425,5.109867,-0.18917513,-4.6067605,-1.3577182,-2.734834
3.06,5.2911243,5.159669,-0.22736788,-4.613408,-1.2942725,-2.6809216
3.062,5.3386393,5.2081842,-0.26424956,-4.6175,-1.2286657,-2.6264546
3.064,5.3838696,5.255247,-0.2997861,-4.618984,-1.160872,-2.5715637
3.066,5.426717,5.300643,-0.33389997,-4.6178145,-1.0908747,-2.516374
3.068,5.4672184,5.3443537,-0.36654496,-4.6146894,-1.0216832,-2.4629245
3.07,5.505316,5.3862734,-0.3977177,-4.609391,-0.9520318,-2.4104257
3.072,5.5411506,5.426361,-0.4274602,-4.602142,-0.8825945,-2.359344
3.074,5.5747423,5.4646072,-0.45574498,-4.593226,-0.81414515,-2.3101497
3.076,5.6062417,5.500886,-0.4826522,-4.5829835,-0.7474985,-2.2632985
3.078,5.6357384,5.535318,-0.5082257,-4.571775,-0.6834518,-2.2191858
3.08,5.6632223,5.5678806,-0.53248906,-4.5599666,-0.6227031,-2.178135
3.082,5.688757,5.598731,-0.55542994,-4.5479035,-0.56578684,-2.1403434
3.084,5.71255,5.6276817,-0.5771928,-4.5358906,-0.5130708,-2.1058908
3.086,5.7347264,5.654989,-0.5978174,-4.524176,-0.46472037,-2.0747492
3.088,5.755284,5.680645,-0.6173022,-4.512945,-0.4207378,-2.0467901
3.09,5.774522,5.7047634,-0.6358032,-4.502316,-0.38097888,-2.0218296
