Time_s_,Acc_x_m_s_2_,Acc_y_m_s_2_,Acc_z_m_s_2_,Gyro_x_1_s_,Gyro_y_1_s_,Gyro_z_1_s_
0,-0.6417007,0.51247287,1.1998273,0.513083,0.717077,1.2341496
0.002,-0.737748,0.35781375,1.1710348,0.50125253,0.6980069,1.1811386
0.004,-0.8210993,0.1937164,1.1546942,0.48745954,0.6721764,1.124212
0.006,-0.89031297,0.021298915,1.150698,0.47171262,0.6388322,1.064221
0.008,-0.94475204,-0.15796492,1.1579851,0.45421204,0.597605,1.0025688
0.01,-0.9833548,-0.34325913,1.1773907,0.43542472,0.5486526,0.94117147
0.012,-1.0055199,-0.5335287,1.2102981,0.41610646,0.49270707,0.8823215
0.014,-1.0112789,-0.72731125,1.2582035,0.39726275,0.43104845,0.8284843
0.016,-1.00077,-0.92299044,1.3227164,0.3799914,0.36542696,0.7819365
0.018,-0.9743878,-1.1188377,1.4054126,0.36533663,0.29796925,0.7443919
0.02,-0.93263394,-1.3130164,1.5077348,0.3541724,0.23103067,0.7167953
0.022,-0.8760103,-1.5039632,1.6300678,0.34706846,0.16697568,0.69912124
0.024,-0.8050874,-1.6900253,1.7719004,0.34441513,0.1084072,0.6904832
0.026,-0.7226655,-1.8689386,1.93156,0.34631205,0.057801545,0.6892133
0.028,-0.6297326,-2.0392447,2.1079047,0.35236818,0.016526878,0.69178706
0.03,-0.52678895,-2.19986,2.2996554,0.36289722,-0.012339205,0.6979996
0.032,-0.4168942,-2.348514,2.5036411,0.3777219,-0.026778102,0.7054559
0.034,-0.30197513,-2.4844952,2.716725,0.3967415,-0.025131643,0.7125826
0.036,-0.18305862,-2.607928,2.9355395,0.42016846,-0.006078452,0.71870315
0.038,-0.061808944,-2.7189376,3.1569018,0.44840205,0.031042427,0.7236538
0.04,0.060038686,-2.8173916,3.3771605,0.48184907,0.08594802,0.72767335
0.042,0.18149436,-2.9038346,3.5927312,0.5208577,0.1574029,0.7313381
0.044,0.3015933,-2.978972,3.800037,0.5656301,0.24331394,0.73539317
0.046,0.41962123,-3.0438306,3.995542,0.6161141,0.34077176,0.7405782
0.048,0.5352248,-3.0996952,4.1763506,0.6719832,0.4462453,0.7474949
0.05,0.6484612,-3.148056,4.3400655,0.73262095,0.5559517,0.7564535
0.052,0.75966483,-3.1906393,4.484989,0.79711115,0.6660402,0.7673996
0.054,0.86958325,-3.2294664,4.6093454,0.86423177,0.77279955,0.7799489
0.056,0.97327965,-3.265294,4.7116456,0.932498,0.87281245,0.79343307
0.058,1.0797105,-3.3032894,4.7923927,1.0002166,0.96304995,0.8069967
0.06,1.1904274,-3.3455486,4.853224,1.0656278,1.0412456,0.8197725
0.062,1.3064338,-3.39352,4.895239,1.1270058,1.1060036,0.8307851
0.064,1.4283919,-3.4474194,4.9184394,1.1828598,1.1568992,0.83903015
0.066,1.5566821,-3.5065646,4.92146,1.2321569,1.1946349,0.8438187
0.068,1.6915076,-3.5702538,4.902764,1.2743994,1.2211022,0.8448681
0.07,1.8337543,-3.638701,4.860571,1.3097566,1.2392244,0.8422934
0.072,1.9845481,-3.7129223,4.7934756,1.339032,1.2525918,0.83649373
0.074,2.145657,-3.7945619,4.7013235,1.3635056,1.2650304,0.82803977
0.076,2.317396,-3.884527,4.58589,1.3847423,1.2801758,0.81767166
0.078,2.4999547,-3.9834342,4.449893,1.4042652,1.3008044,0.80616575
0.08,2.6935534,-4.091659,4.295635,1.4235196,1.3288678,0.7943816
0.082,2.8982134,-4.208792,4.124735,1.4436486,1.3653003,0.78316176
0.084,3.113099,-4.3332005,3.9373865,1.4652387,1.4095114,0.7734111
0.086,3.336937,-4.4624367,3.7324498,1.4884065,1.4597895,0.76602244
0.088,3.5696857,-4.5948653,3.5093708,1.5127136,1.5135566,0.76151586
0.09,3.8115468,-4.729913,3.2681155,1.5371534,1.5674711,0.7601634
0.092,4.060478,-4.8659434,3.0111465,1.5603998,1.6178364,0.76229215
0.094,4.313754,-4.9987354,2.742316,1.5810245,1.6611009,0.7681546
0.096,4.5683007,-5.1256537,2.4653008,1.5976008,1.6940652,0.7777694
0.098,4.821704,-5.248543,2.1841776,1.6088761,1.7141229,0.7909957
0.1,5.073471,-5.3691773,1.9066374,1.6139743,1.719532,0.80755043
0.102,5.3213034,-5.482315,1.6385398,1.6125315,1.7096102,0.8270414
0.104,5.5627394,-5.580729,1.3808079,1.6047602,1.6846391,0.8490651
0.106,5.7926283,-5.6616464,1.1328769,1.5913556,1.6457255,0.87324923
0.108,6.0068803,-5.726963,0.89288425,1.5734887,1.5947027,0.8991911
0.11,6.205662,-5.7800975,0.6667683,1.5526621,1.5338297,0.92653835
0.112,6.3860307,-5.8202686,0.46318293,1.5305837,1.4656041,0.9549943
0.114,6.545652,-5.846147,0.28644347,1.508956,1.392447,0.9843187
0.116,6.6836014,-5.857769,0.13895226,1.4892658,1.3165765,1.0145175
0.118,6.7995577,-5.8552837,0.021867752,1.4726316,1.2398969,1.0456442
0.12,6.893101,-5.8386436,-0.065761805,1.4598595,1.1640251,1.07738
0.122,6.964384,-5.8081107,-0.12613249,1.4512473,1.0902481,1.1093591
0.124,7.01411,-5.7641773,-0.1617024,1.4463462,1.0193859,1.1413126
0.126,7.0430684,-5.707419,-0.17520118,1.4446341,0.95198846,1.1723561
0.128,7.052209,-5.638631,-0.16964984,1.4461527,0.8888606,1.2009907
0.13,7.042453,-5.558701,-0.14838743,1.451069,0.8309876,1.2264526
0.132,7.0149217,-5.468418,-0.114601135,1.4593949,0.7797549,1.2490932
0.134,6.970757,-5.3687983,-0.07138109,1.471268,0.7365431,1.2690271
0.136,6.9127655,-5.261595,-0.021719694,1.4872581,0.7020907,1.2855521
0.138,6.842054,-5.1482086,0.031264067,1.5082407,0.67659,1.2981782
0.14,6.7592864,-5.029894,0.08477855,1.5349174,0.6599711,1.3075466
0.142,6.6674595,-4.908955,0.13787723,1.5674044,0.6519481,1.3151735
0.144,6.568116,-4.786263,0.18924713,1.6050724,0.65182376,1.3227341
0.146,6.462235,-4.662659,0.23778081,1.6464331,0.6582257,1.3316779
0.148,6.3517275,-4.539605,0.2825334,1.6891026,0.6689154,1.343058
0.15,6.238559,-4.4194202,0.3236506,1.7299402,0.6809468,1.357374
0.152,6.1242437,-4.3039474,0.36197066,1.7652776,0.6907805,1.3744972
0.154,6.0103517,-4.1953106,0.3986976,1.7913066,0.6944698,1.3936541
0.156,5.8984785,-4.0954437,0.43542862,1.8046252,0.68805146,1.4134648
0.158,5.790037,-4.0060425,0.47333527,1.8027633,0.6681267,1.4321517
0.16,5.6864734,-3.9286427,0.5137527,1.7845874,0.63242286,1.4479456
0.162,5.588875,-3.8643641,0.5577555,1.7503488,0.5800988,1.4594716
0.164,5.4976034,-3.8138685,0.60623765,1.7016991,0.5120522,1.4659139
0.166,5.4133563,-3.7782369,0.6594634,1.6414204,0.43091416,1.4670894
0.168,5.3374376,-3.7583165,0.7175298,1.5730678,0.34078676,1.4634368
0.17,5.270396,-3.753992,0.7807102,1.5005866,0.24687088,1.4558991
0.172,5.212328,-3.76449,0.8489723,1.4277697,0.15478963,1.44572
0.174,5.16313,-3.7887523,0.9215946,1.3577906,0.06976664,1.4342206
0.176,5.1217866,-3.8254905,0.9983468,1.293217,-0.0038600564,1.4222977
0.178,5.088492,-3.8734663,1.0790899,1.2359295,-0.06288463,1.4104135
0.18,5.0626144,-3.9300475,1.1619521,1.1865726,-0.10565895,1.3991547
0.182,5.0429926,-3.9923491,1.243285,1.1446303,-0.13228977,1.3888519
0.184,5.028396,-4.058247,1.3194256,1.1093513,-0.14410198,1.378717
0.186,5.0186415,-4.1270523,1.386758,1.0799993,-0.14337397,1.3675504
0.188,5.0135975,-4.1977158,1.4431442,1.0555214,-0.13259429,1.3552887
0.19,5.0123577,-4.2679234,1.4882396,1.0344374,-0.11395854,1.342779
0.192,5.01356,-4.334638,1.5223129,1.0151709,-0.08962494,1.3303779
0.194,5.0165405,-4.395736,1.5458939,0.99644554,-0.061902463,1.3175428
0.196,5.020935,-4.4498777,1.560087,0.97731507,-0.033109605,1.3036633
0.198,5.0253468,-4.4952946,1.566087,0.95702684,-0.00516212,1.2886739
0.2,5.027844,-4.529549,1.5655906,0.9350416,0.020657778,1.2728198
0.202,5.028089,-4.552005,1.5597816,0.91100615,0.043557227,1.2563502
0.204,5.025124,-4.5638585,1.5502176,0.8847126,0.062974036,1.2394419
0.206,5.019062,-4.565938,1.5398874,0.856148,0.07848781,1.222144
0.208,5.0096903,-4.5562515,1.5316284,0.8254076,0.08979827,1.2045361
0.21,4.9954443,-4.534151,1.5241697,0.792645,0.09675187,1.1868316
0.212,4.9771333,-4.504781,1.5180068,0.7580342,0.09929055,1.1691546
0.214,4.958197,-4.4732475,1.5189462,0.7217452,0.09739894,1.151471
0.216,4.9400415,-4.437912,1.5319047,0.68396896,0.09122372,1.133801
0.218,4.921949,-4.3934646,1.5553967,0.6449119,0.08118218,1.1163847
0.22,4.9026847,-4.3375616,1.5846217,0.6048976,0.06815308,1.099683
0.222,4.8826256,-4.272356,1.6160573,0.56440926,0.053530574,1.0840957
0.224,4.8617153,-4.200839,1.6497939,0.5240366,0.039079666,1.0697832
0.226,4.8381486,-4.125019,1.6879115,0.48438326,0.026753604,1.0567942
0.228,4.8111014,-4.046655,1.7320733,0.44603723,0.018515289,1.0451298
0.23,4.7804136,-3.9671955,1.7825202,0.40952295,0.016152322,1.03475
0.232,4.7457776,-3.8872166,1.8384746,0.3752817,0.021056116,1.0254958
0.234,4.7065973,-3.8068995,1.8976902,0.3437098,0.03414184,1.0170568
0.236,4.662888,-3.7264495,1.9573542,0.31514385,0.055728108,1.0090353
0.238,4.614444,-3.6456077,2.0146027,0.28992578,0.08575055,1.0012635
0.24,4.5612116,-3.5641882,2.067249,0.26849723,0.123889774,0.99381745
0.242,4.5029664,-3.4819763,2.1135914,0.2514914,0.16970354,0.98702145
0.244,4.439725,-3.3987703,2.1523314,0.23974621,0.22273225,0.98134214
0.246,4.3712716,-3.3141193,2.1823637,0.23420954,0.2824106,0.97722423
0.248,4.297902,-3.227913,2.2025545,0.23576492,0.348079,0.9750858
0.25,4.219712,-3.1398478,2.2115316,0.2451234,0.41888982,0.97530293
0.252,4.137113,-3.050037,2.2085586,0.2627563,0.49372253,0.9781656
0.254,4.051013,-2.9591198,2.1937356,0.28875253,0.571138,0.9839517
0.256,3.962306,-2.8677063,2.1673965,0.32279485,0.64941007,0.99297327
0.258,3.871828,-2.7761102,2.1299226,0.36411214,0.72661775,1.0055065
0.26,3.780934,-2.6848116,2.0822346,0.41141078,0.8007109,1.0216479
0.262,3.6906059,-2.594582,2.0254679,0.46292567,0.86958146,1.0410626
0.264,3.60199,-2.506175,1.9608574,0.51646507,0.9311907,1.062886
0.266,3.5163195,-2.4207458,1.8899837,0.5695928,0.9838096,1.0858754
0.268,3.4350579,-2.339933,1.8160431,0.6198555,1.0261424,1.10836
0.27,3.3589032,-2.2649183,1.7420624,0.66501176,1.0573447,1.1281769
0.272,3.2887127,-2.196571,1.6702735,0.7032317,1.0770245,1.1429776
0.274,3.2262108,-2.1361475,1.6025331,0.73320913,1.0851852,1.150686
0.276,3.1730013,-2.0847802,1.5403448,0.75435656,1.0822493,1.1500051
0.278,3.1301608,-2.043768,1.485011,0.766849,1.0691218,1.140667
0.28,3.098611,-2.0144117,1.4379749,0.77163464,1.047211,1.1232901
0.282,3.0795896,-1.9976635,1.4004678,0.77022696,1.0182892,1.0991527
0.284,3.0743296,-1.9942392,1.3736258,0.7644565,0.9842618,1.0700608
0.286,3.0842676,-2.0044017,1.3580537,0.7562145,0.947083,1.038176
0.288,3.1094012,-2.02753,1.3529813,0.7471601,0.90860283,1.0056561
0.29,3.1503232,-2.0636003,1.3583972,0.73861176,0.8704559,0.97426486
0.292,3.208095,-2.1122353,1.374969,0.73143536,0.83389056,0.94502616
0.294,3.2830987,-2.1719487,1.4025595,0.7259706,0.7998078,0.91841733
0.296,3.3750212,-2.240793,1.4405364,0.72212523,0.7688029,0.8944559
0.298,3.4833393,-2.3175578,1.4873255,0.71951526,0.7412354,0.87293977
0.3,3.6077156,-2.4017668,1.5404708,0.7176163,0.71737707,0.8536955
0.302,3.7478185,-2.4932358,1.5984561,0.7159194,0.69726574,0.83658004
0.304,3.9021826,-2.59063,1.6609945,0.7139039,0.68063235,0.8214309
0.306,4.0684376,-2.6920252,1.7284675,0.71100366,0.6668395,0.80809623
0.308,4.244023,-2.795518,1.8012328,0.7065604,0.6548887,0.7964872
0.31,4.4263644,-2.8996105,1.879689,0.6998349,0.64353836,0.7865531
0.312,4.612668,-3.002907,1.9634326,0.69004583,0.6313822,0.7782128
0.314,4.800326,-3.1039703,2.0520449,0.67646295,0.6169668,0.7713284
0.316,4.984775,-3.1999936,2.1446435,0.6584685,0.598963,0.7656978
0.318,5.1612797,-3.2880836,2.2412536,0.63562334,0.5763457,0.76106465
0.32,5.3264065,-3.367055,2.34357,0.6076915,0.54852545,0.7570866
0.322,5.4740887,-3.4361253,2.4505363,0.5746476,0.5154535,0.7533303
0.324,5.600545,-3.494156,2.5622816,0.53668684,0.47763354,0.74931407
0.326,5.703565,-3.5419865,2.6799192,0.4942022,0.43608668,0.74449533
0.328,5.781843,-3.5795574,2.802749,0.4478118,0.39226055,0.7383213
0.33,5.8327427,-3.604694,2.9297695,0.39830288,0.34791896,0.7303225
0.332,5.85541,-3.6159167,3.0600162,0.34665242,0.30497086,0.7200609
0.334,5.848778,-3.6117113,3.1919012,0.2939706,0.26523215,0.7071726
0.336,5.8134155,-3.591596,3.323255,0.24145457,0.230313,0.691419
0.338,5.749613,-3.5559573,3.451703,0.19029452,0.20147744,0.6726439
0.34,5.6586976,-3.506072,3.5754657,0.14160787,0.17952938,0.6507609
0.342,5.54273,-3.4439387,3.6935868,0.09643471,0.16487148,0.62583786
0.344,5.4043994,-3.3716707,3.805401,0.05569254,0.15753126,0.59813297
0.346,5.2468123,-3.2912457,3.9099987,0.020167619,0.15731996,0.5680898
0.348,5.073863,-3.2047286,4.006546,-0.009569397,0.16395697,0.53626806
0.35,4.889756,-3.113916,4.0939035,-0.033274487,0.17688444,0.50328815
0.352,4.6986985,-3.0201654,4.1707773,-0.050729353,0.19560532,0.4700527
0.354,4.5048876,-2.9248855,4.2365975,-0.06203671,0.21958701,0.43726292
0.356,4.313124,-2.829794,4.291354,-0.06753778,0.24834993,0.40552756
0.358,4.128024,-2.7362967,4.3339696,-0.06779834,0.28143796,0.37572876
0.36,3.9542203,-2.6461928,4.364423,-0.06355251,0.3183578,0.34846562
0.362,3.7951462,-2.5603464,4.3830466,-0.05552316,0.3584843,0.32407856
0.364,3.654171,-2.4799235,4.389923,-0.04443604,0.4010686,0.30280018
0.366,3.53414,-2.4058447,4.3874016,-0.030989904,0.44545844,0.28475952
0.368,3.435476,-2.339092,4.377703,-0.015825508,0.4912003,0.26995748
0.37,3.3598332,-2.2809694,4.3620687,0.0005429894,0.53803855,0.25830713
0.372,3.3080852,-2.2316294,4.3408346,0.017750697,0.585962,0.24971962
0.374,3.2800272,-2.190493,4.3155713,0.035585143,0.6352946,0.24408141
0.376,3.2747898,-2.157462,4.2882934,0.05392491,0.686642,0.241274
0.378,3.2910047,-2.1324673,4.2586546,0.07265402,0.7407034,0.24114329
0.38,3.3272526,-2.115219,4.227169,0.091638744,0.7982134,0.24348031
0.382,3.381732,-2.1055317,4.194763,0.110694975,0.85980225,0.2480041
0.384,3.4517422,-2.102521,4.1622896,0.12951799,0.92573875,0.25428998
0.386,3.5344112,-2.1053922,4.1303363,0.14769141,0.99589765,0.26186284
0.388,3.6274297,-2.1135032,4.099361,0.16473868,1.0697216,0.27028233
0.39,3.7282634,-2.125919,4.068498,0.1801435,1.1462139,0.27917257
0.392,3.8339982,-2.141982,4.038191,0.19345024,1.2241756,0.28814706
0.394,3.9414582,-2.1610608,4.009675,0.20430027,1.3023179,0.29685804
0.396,4.0471797,-2.1825118,3.9834373,0.21236669,1.3791931,0.30502197
0.398,4.1484303,-2.205896,3.9600058,0.21736595,1.453469,0.31232804
0.4,4.2428436,-2.2305555,3.940613,0.21921536,1.5240954,0.31865132
0.402,4.327528,-2.2555594,3.9261115,0.21802948,1.5902303,0.32408297
0.404,4.3997884,-2.2800727,3.916571,0.21405071,1.6511219,0.32861227
0.406,4.457587,-2.3031478,3.9118185,0.20737322,1.7059631,0.33191454
0.408,4.4990215,-2.3236322,3.911791,0.19815,1.7539759,0.3339185
0.41,4.5221367,-2.3406725,3.9176743,0.18641774,1.7943234,0.33457077
0.412,4.5248456,-2.3533473,3.9297278,0.17216592,1.826195,0.3335274
0.414,4.5067124,-2.3617914,3.9489734,0.15531102,1.8488482,0.33070058
0.416,4.4669,-2.36581,3.9766254,0.13567743,1.8616765,0.32609487
0.418,4.404578,-2.3654804,4.01346,0.113090254,1.8641269,0.31976652
0.42,4.3193016,-2.3607495,4.0591874,0.08748305,1.855742,0.31190157
0.422,4.2120104,-2.3518176,4.1148496,0.058937915,1.8361709,0.3028084
0.424,4.083451,-2.3388608,4.1816015,0.027724672,1.8053228,0.29291922
0.426,3.9339385,-2.3221502,4.258495,-0.005607214,1.7633548,0.28277487
0.428,3.764868,-2.3024783,4.3434167,-0.04022697,1.7105435,0.27309304
0.43,3.5776777,-2.2805805,4.434907,-0.07508484,1.6473298,0.26470244
0.432,3.3760326,-2.2576036,4.533085,-0.10904996,1.5745105,0.2584377
0.434,3.1640527,-2.2366805,4.634236,-0.14105532,1.4933133,0.255068
0.436,2.943673,-2.216949,4.7327323,-0.17013727,1.4055183,0.25528833
0.438,2.717715,-2.200643,4.8303046,-0.19542433,1.313623,0.25965273
0.44,2.491855,-2.1919491,4.926696,-0.21618654,1.2207642,0.26847014
0.442,2.2642324,-2.1895657,5.017047,-0.2318925,1.1305561,0.28172275
0.444,2.040235,-2.195719,5.109767,-0.24221416,1.046782,0.2991512
0.446,1.8264434,-2.2137032,5.214666,-0.24706532,0.97293067,0.3203087
0.448,1.6219378,-2.2421513,5.325897,-0.24656957,0.91180915,0.34454453
0.45,1.424984,-2.2786083,5.4311867,-0.2409451,0.86531055,0.3711248
0.452,1.2368946,-2.3215113,5.5242815,-0.23053136,0.834002,0.39938986
0.454,1.0586877,-2.3692446,5.6077256,-0.21589144,0.81701845,0.42847896
0.456,0.8958208,-2.4224057,5.6863623,-0.19773231,0.81244993,0.45745048
0.458,0.75697315,-2.4853122,5.768088,-0.17687061,0.8177196,0.4857034
0.46,0.6419985,-2.5574362,5.8561816,-0.15420528,0.8296638,0.51284856
0.462,0.54586315,-2.6348715,5.945366,-0.13059491,0.8451441,0.5384541
0.464,0.4681248,-2.7161908,6.0294485,-0.106903955,0.86147636,0.56214035
0.466,0.40970862,-2.801212,6.109653,-0.08402015,0.8764854,0.58357733
0.468,0.3677901,-2.887549,6.1924334,-0.063051164,0.8883941,0.60239744
0.47,0.33747387,-2.9709828,6.28374,-0.04504513,0.8964143,0.61839795
0.472,0.3172227,-3.0490913,6.386696,-0.03089222,0.9008598,0.6312175
0.474,0.30569208,-3.1194003,6.5008297,-0.021723278,0.9020322,0.6405194
0.476,0.30033892,-3.1795917,6.6246166,-0.018669423,0.9007082,0.6462768
0.478,0.30010808,-3.2275252,6.754686,-0.022485344,0.89844304,0.6482342
0.48,0.300959,-3.2604647,6.889055,-0.033912305,0.89627457,0.645846
0.482,0.299137,-3.276397,7.027482,-0.053763393,0.8943894,0.6388368
0.484,0.29137278,-3.274069,7.1692767,-0.08267121,0.8929716,0.6273835
0.486,0.27548397,-3.2520118,7.312057,-0.12084003,0.89291304,0.61178774
0.488,0.24975789,-3.2090983,7.4538493,-0.16794033,0.8956886,0.5923827
0.49,0.21282685,-3.1450636,7.589798,-0.22285081,0.90308756,0.5693938
0.492,0.16442752,-3.060698,7.714118,-0.2833336,0.9168715,0.5428405
0.494,0.104764104,-2.9574018,7.8212013,-0.34623513,0.9380368,0.5131199
0.496,0.034564137,-2.8372064,7.9059043,-0.407795,0.96707857,0.4813261
0.498,-0.044921517,-2.7027822,7.96384,-0.4639645,1.0044577,0.44867676
0.5,-0.13093257,-2.5581555,7.9926777,-0.5108562,1.0504553,0.41603607
0.502,-0.22064894,-2.407143,7.9894257,-0.5452936,1.1049705,0.38374764
0.504,-0.31055135,-2.2537072,7.951745,-0.56523645,1.1673079,0.35178107
0.506,-0.39708036,-2.1018796,7.878343,-0.5701945,1.2360752,0.3197872
0.508,-0.4774019,-1.9553835,7.769415,-0.561255,1.3092706,0.28715003
0.51,-0.5492499,-1.8176281,7.6264205,-0.54090995,1.3841605,0.25317952
0.512,-0.61006594,-1.6916428,7.4522424,-0.5126027,1.4576459,0.21725953
0.514,-0.6577549,-1.5799623,7.251815,-0.4801566,1.5265507,0.17893738
0.516,-0.6907307,-1.4847236,7.030666,-0.44716793,1.5877708,0.13817364
0.518,-0.70802283,-1.4075353,6.7946253,-0.4166213,1.6385102,0.09537053
0.52,-0.70902383,-1.3492792,6.549642,-0.39068043,1.6766219,0.051274538
0.522,-0.69393474,-1.3096399,6.3024855,-0.3705191,1.7007954,0.006828606
0.524,-0.6649128,-1.2866874,6.059166,-0.3567524,1.7101133,-0.037177205
0.526,-0.6233237,-1.2785726,5.8253927,-0.34963298,1.7041843,-0.08001208
0.528,-0.57073253,-1.2829095,5.607044,-0.348931,1.6838448,-0.12131894
0.53,-0.5089318,-1.2972388,5.4100456,-0.35442752,1.6503161,-0.16124749
0.532,-0.44129223,-1.3187215,5.237915,-0.36609536,1.6049199,-0.19992328
0.534,-0.37017655,-1.3447752,5.092743,-0.38356882,1.5501599,-0.23758209
0.536,-0.29726726,-1.372776,4.977271,-0.40607834,1.4891932,-0.274917
0.538,-0.22576588,-1.399723,4.8926463,-0.4326856,1.4246397,-0.31274477
0.54,-0.15811974,-1.4228632,4.8372602,-0.46235502,1.3583419,-0.35153505
0.542,-0.096173525,-1.4404012,4.8097982,-0.4940052,1.2920136,-0.3915007
0.544,-0.043359995,-1.4497651,4.8103323,-0.52673066,1.2275705,-0.43273526
0.546,0.0002927184,-1.4510834,4.8370886,-0.5599673,1.1671078,-0.47524416
0.548,0.034038305,-1.4429657,4.882227,-0.59327585,1.1129117,-0.5194802
0.55,0.056266904,-1.4242681,4.9406767,-0.6263191,1.0666122,-0.566214
0.552,0.07129729,-1.3981286,5.0118456,-0.65894127,1.0287328,-0.61586267
0.554,0.07672477,-1.364418,5.0842524,-0.6911187,0.9990772,-0.66832316
0.556,0.07106632,-1.3228184,5.1501923,-0.72284853,0.97711414,-0.72322935
0.558,0.059172332,-1.2769603,5.218026,-0.7540957,0.96222365,-0.7803066
0.56,0.04428035,-1.2298348,5.296926,-0.7845895,0.9538092,-0.839275
0.562,0.026555836,-1.1831881,5.3860064,-0.8138208,0.95135283,-0.8996941
0.564,0.006911099,-1.138334,5.477006,-0.84110916,0.9545299,-0.9610505
0.566,-0.018467724,-1.093942,5.5635595,-0.8657678,0.9630519,-1.0227726
0.568,-0.053200424,-1.0463452,5.639982,-0.8871833,0.9766858,-1.0841448
0.57,-0.09132111,-0.9977269,5.707752,-0.9048773,0.99532413,-1.1443813
0.572,-0.12456113,-0.95220447,5.775997,-0.91846037,1.0190231,-1.2026889
0.574,-0.15190649,-0.91008186,5.850125,-0.9275807,1.0479268,-1.2582586
0.576,-0.17312604,-0.8705101,5.927931,-0.93197143,1.0822302,-1.3103571
0.578,-0.18538392,-0.83450603,6.0045824,-0.93145454,1.1219821,-1.358419
0.58,-0.18454778,-0.8043635,6.0769415,-0.92594016,1.166975,-1.4020236
0.582,-0.17015684,-0.779969,6.145224,-0.9154819,1.2166678,-1.4409018
0.584,-0.14274192,-0.76032734,6.2122946,-0.9002671,1.2701726,-1.474945
0.586,-0.100952744,-0.74516773,6.27901,-0.8806515,1.32633,-1.5041785
0.588,-0.043034673,-0.73457813,6.347088,-0.85715693,1.3837011,-1.528702
0.59,0.033542275,-0.72904134,6.4159994,-0.83035755,1.4407732,-1.5487186
0.592,0.13051116,-0.7290051,6.483222,-0.8008348,1.49607,-1.5644712
0.594,0.24850476,-0.73376155,6.5449896,-0.7692252,1.5482373,-1.5762049
0.596,0.38672888,-0.7422874,6.5989475,-0.7361491,1.5961336,-1.5841608
0.598,0.5441909,-0.7539654,6.643408,-0.70224905,1.6388949,-1.5885291
0.6,0.72010136,-0.7685344,6.6785936,-0.6681818,1.6759527,-1.5895125
0.602,0.9129013,-0.7850759,6.70555,-0.6345732,1.7071422,-1.5873219
0.604,1.120602,-0.80262613,6.72428,-0.6020384,1.732634,-1.5821595
0.606,1.3408567,-0.8196292,6.733489,-0.57116675,1.7528999,-1.5741292
0.608,1.5712272,-0.834687,6.7312183,-0.5424851,1.7686895,-1.5632659
0.61,1.8084408,-0.8462405,6.7159653,-0.51640064,1.7808777,-1.5495596
0.612,2.049429,-0.85330606,6.6871557,-0.49323317,1.790379,-1.5328798
0.614,2.2908099,-0.8546343,6.644897,-0.47316396,1.7981069,-1.5131726
0.616,2.5293798,-0.8490956,6.590437,-0.45624474,1.8049316,-1.4904331
0.618,2.7617784,-0.83580804,6.5248775,-0.4423621,1.8117665,-1.4646671
0.62,2.984893,-0.81388974,6.449171,-0.43120793,1.8195622,-1.4359355
0.622,3.195312,-0.7823868,6.364792,-0.42235762,1.8292165,-1.4043766
0.624,3.3897784,-0.74034023,6.2732506,-0.41523683,1.841573,-1.3702564
0.626,3.5653243,-0.68681455,6.1755834,-0.40914693,1.8574276,-1.3339612
0.628,3.7195492,-0.62151504,6.0727787,-0.40332726,1.877514,-1.2959418
0.63,3.8502667,-0.54455733,5.96607,-0.39701596,1.9024209,-1.2566732
0.632,3.9559646,-0.45658135,5.857044,-0.38952354,1.9325247,-1.2166733
0.634,4.0356574,-0.35848093,5.7474794,-0.3802834,1.9679494,-1.1764684
0.636,4.0882773,-0.2510649,5.6394873,-0.36893263,2.0084956,-1.1365855
0.638,4.1132307,-0.13518405,5.535001,-0.35530826,2.0536373,-1.0975549
0.64,4.1101832,-0.011945844,5.435489,-0.33947286,2.1025624,-1.0598996
0.642,4.079766,0.11738503,5.3427324,-0.3216704,2.1542373,-1.0241063
0.644,4.0224285,0.2513522,5.2583604,-0.3022929,2.2074602,-0.99058527
0.646,3.939222,0.38830423,5.183791,-0.28183565,2.260957,-0.95976406
0.648,3.8315773,0.52645874,5.1204886,-0.26082388,2.3134887,-0.9319921
0.65,3.7004988,0.6639774,5.0700464,-0.23982227,2.3638887,-0.907489
0.652,3.5478008,0.79916763,5.033455,-0.21932584,2.411107,-0.886361
0.654,3.3756669,0.93052685,5.0114546,-0.19974542,2.454297,-0.8686087
0.656,3.1861198,1.0565965,5.0054164,-0.18142664,2.4927466,-0.85415006
0.658,2.9814172,1.1759309,5.016514,-0.16462344,2.5258827,-0.8428284
0.66,2.7641222,1.2872218,5.0456595,-0.14949691,2.5532217,-0.834447
0.662,2.5363467,1.3893278,5.0935516,-0.13616759,2.5743475,-0.8287381
0.664,2.3005805,1.4813826,5.1606474,-0.12469852,2.5889716,-0.82538867
0.666,2.0586185,1.5628859,5.247389,-0.11508,2.5969675,-0.8241595
0.668,1.8136362,1.6329089,5.3542128,-0.107256114,2.5984533,-0.824786
0.67,1.5684409,1.6908592,5.481085,-0.101160586,2.5937793,-0.82710326
0.672,1.3254224,1.7366663,5.6276045,-0.09666234,2.5835466,-0.83110857
0.674,1.0868942,1.7703925,5.793082,-0.093612194,2.5686064,-0.83691114
0.676,0.8558496,1.791868,5.976376,-0.09181732,2.5500412,-0.8447027
0.678,0.6345255,1.8011687,6.1761627,-0.09106696,2.5291348,-0.8547015
0.68,0.42518783,1.7987652,6.391044,-0.09110618,2.5072362,-0.8671135
0.682,0.2300269,1.7848582,6.6191435,-0.091659784,2.4856648,-0.88211143
0.684,0.05153495,1.760078,6.8587337,-0.09239423,2.46565,-0.8997742
0.686,-0.10895592,1.7252514,7.1068563,-0.09298694,2.4483101,-0.9200049
0.688,-0.24952239,1.6808355,7.3607345,-0.09312934,2.4345098,-0.94255495
0.69,-0.3686775,1.6277244,7.617792,-0.09252584,2.4248824,-0.9669921
0.692,-0.4653417,1.5665457,7.8752823,-0.09096432,2.4197648,-0.99272996
0.694,-0.5384718,1.4979048,8.130644,-0.088303566,2.4191673,-1.0190986
0.696,-0.5873705,1.4228878,8.38129,-0.084492266,2.4228363,-1.0454187
0.698,-0.61208713,1.3426483,8.624594,-0.079594076,2.4302793,-1.0710504
0.7,-0.61328864,1.2585661,8.857566,-0.07371682,2.440817,-1.095375
0.702,-0.5909951,1.1715381,9.077592,-0.067002535,2.4535942,-1.117858
0.704,-0.5454649,1.0817413,9.282669,-0.059604824,2.4677196,-1.1380713
0.706,-0.47742474,0.98991895,9.471086,-0.051721275,2.4823809,-1.1556648
0.708,-0.38828146,0.8974328,9.641199,-0.0435313,2.4968848,-1.1703178
0.71,-0.27988625,0.80547094,9.791511,-0.03518933,2.5107064,-1.1817307
0.712,-0.15460455,0.7153077,9.92043,-0.02679807,2.5235617,-1.1896935
0.714,-0.0141221285,0.6277776,10.027447,-0.018419504,2.5354123,-1.1940947
0.716,0.13953435,0.5434804,10.112587,-0.010070026,2.54641,-1.194899
0.718,0.30406082,0.46308136,10.176084,-0.0017415285,2.556851,-1.1921452
0.72,0.47727823,0.38713694,10.218258,0.0066434145,2.5671155,-1.1859055
0.722,0.65699255,0.3162551,10.239821,0.015166819,2.5776083,-1.176324
0.724,0.84062827,0.25082016,10.241665,0.023963988,2.588778,-1.1636076
0.726,1.0256739,0.19137669,10.224922,0.03316486,2.6011057,-1.1480353
0.728,1.2095491,0.13864708,10.190986,0.042898297,2.615065,-1.1299479
0.73,1.3898667,0.09312391,10.141202,0.05326736,2.6311078,-1.1097529
0.732,1.5657424,0.05477333,10.076623,0.064335346,2.649601,-1.0879107
0.734,1.7336923,0.024704456,9.999518,0.076114476,2.6708226,-1.0648903
0.736,1.8909569,0.0032672882,9.912389,0.08857983,2.6949637,-1.0411732
0.738,2.037002,-0.009003401,9.817039,0.10166222,2.7221255,-1.0172288
0.74,2.1709647,-0.011722803,9.714609,0.11529207,2.7522917,-0.9934805
0.742,2.291511,-0.0048549175,9.606591,0.12938339,2.7853475,-0.97029054
0.744,2.397251,0.011268139,9.494293,0.14385372,2.8210673,-0.94801384
0.746,2.4895625,0.03522706,9.378071,0.15862805,2.8591337,-0.9269843
0.748,2.5667646,0.06802535,9.257044,0.17365623,2.8991764,-0.9074795
0.75,2.6281655,0.10996771,9.134268,0.18890369,2.9407227,-0.8897559
0.752,2.6731386,0.16038322,9.014532,0.2043246,2.9831827,-0.87408364
0.754,2.7000751,0.21898794,8.901303,0.21983528,3.025889,-0.8607419
0.756,2.7098117,0.28489733,8.794507,0.23532736,3.0681796,-0.8500235
0.758,2.7044249,0.35642052,8.690865,0.25067168,3.1093726,-0.84221125
0.76,2.6851048,0.43218184,8.587584,0.2657209,3.1487508,-0.8375509
0.762,2.6533284,0.51101995,8.484739,0.28027737,3.185553,-0.8362547
0.764,2.610434,0.59245515,8.384666,0.29409403,3.2190838,-0.83850783
0.766,2.5578947,0.67648005,8.289446,0.30689812,3.2488604,-0.8444395
0.768,2.4966702,0.7626636,8.199169,0.3184806,3.2744503,-0.8540007
0.77,2.4269152,0.8504369,8.112845,0.3286789,3.2955124,-0.86706567
0.772,2.3475885,0.93956184,8.0282135,0.33735383,3.311889,-0.88350403
0.774,2.2638183,1.0275013,7.9452224,0.3443656,3.3236256,-0.90307295
0.776,2.1795018,1.1118357,7.8706207,0.34964585,3.3307977,-0.9253153
0.778,2.089764,1.1949751,7.8035836,0.3533044,3.3335185,-0.949642
0.78,1.9942468,1.2771103,7.738261,0.3556056,3.3320155,-0.9755765
0.782,1.8988318,1.3552248,7.6715603,0.3568231,3.3267212,-1.0027266
0.784,1.8038869,1.4286175,7.6050625,0.3572809,3.3182688,-1.0306168
0.786,1.7097504,1.4966477,7.542288,0.35743487,3.3072608,-1.0587605
0.788,1.6188996,1.558515,7.4859195,0.35776603,3.2941303,-1.0868882
0.79,1.5326605,1.614376,7.43651,0.35863352,3.279106,-1.114893
0.792,1.4516658,1.6645718,7.39279,0.36023438,3.2622933,-1.1426404
0.794,1.3768759,1.7082745,7.353978,0.3626243,3.243786,-1.1700847
0.796,1.3092551,1.7446188,7.3212485,0.36578912,3.2238684,-1.197465
0.798,1.2496791,1.773487,7.2970076,0.36971307,3.2030272,-1.2252122
0.8,1.1991041,1.7949687,7.283704,0.37445182,3.1817913,-1.2537385
0.802,1.1583054,1.8090103,7.2824035,0.38021034,3.16059,-1.283258
0.804,1.1283984,1.815345,7.2932396,0.3872099,3.139576,-1.3136868
0.806,1.1098909,1.8136597,7.316207,0.3955565,3.1189032,-1.344714
0.808,1.1032963,1.8040109,7.351911,0.40529537,3.0987623,-1.3760349
0.81,1.1089876,1.7864716,7.4016194,0.416435,3.0786233,-1.4071617
0.812,1.1269319,1.761023,7.4662266,0.42881238,3.0574932,-1.4372313
0.814,1.1572728,1.7278726,7.5461936,0.44192195,3.034477,-1.46544
0.816,1.1993134,1.6874293,7.6410184,0.4549278,3.0090373,-1.4913733
0.818,1.2525964,1.6399387,7.7500753,0.4668615,2.981023,-1.5148501
0.82,1.3165009,1.5858259,7.872647,0.47688615,2.9507623,-1.5360258
0.822,1.390429,1.5254898,8.007841,0.4843936,2.9191413,-1.5555656
0.824,1.4732594,1.459549,8.154166,0.48908174,2.887352,-1.574274
0.826,1.5641938,1.3886216,8.30983,0.49096996,2.856646,-1.5928476
0.828,1.6625627,1.3132901,8.472965,0.49038523,2.8282092,-1.6118726
0.83,1.767821,1.2342792,8.641533,0.48786515,2.8031058,-1.6318195
0.832,1.8794101,1.1523061,8.813325,0.48398238,2.7820423,-1.6528902
0.834,1.9970465,1.0680208,8.985643,0.47928077,2.7651877,-1.6748407
0.836,2.1204438,0.9821172,9.155404,0.47425693,2.7521706,-1.6972101
0.838,2.2496672,0.8951323,9.319959,0.46919274,2.7422993,-1.7195292
0.84,2.3844986,0.8078251,9.476929,0.46409857,2.7349112,-1.741376
0.842,2.5239067,0.7211914,9.62429,0.45887506,2.7295036,-1.7622914
0.844,2.669604,0.6351328,9.759125,0.4534496,2.7256825,-1.7819443
0.846,2.821884,0.5505569,9.879348,0.4477781,2.723087,-1.8003201
0.848,2.979621,0.46822667,9.9837,0.4418456,2.721312,-1.817485
0.85,3.1425166,0.3890729,10.071218,0.4356376,2.7198548,-1.8334029
0.852,3.3109655,0.31383133,10.140673,0.42911762,2.7182374,-1.8480437
0.854,3.4854605,0.24319649,10.190892,0.4222399,2.7161622,-1.8615186
0.856,3.6640947,0.17848444,10.221526,0.41492677,2.7134705,-1.8740253
0.858,3.8481073,0.11860132,10.233243,0.40717477,2.7101557,-1.8857034
0.86,4.0373554,0.06321883,10.223578,0.39906973,2.70606,-1.8964907
0.862,4.2314057,0.013108492,10.189874,0.39058608,2.7009745,-1.9060565
0.864,4.4303308,-0.031451702,10.132107,0.38158476,2.6953053,-1.914124
0.866,4.6314535,-0.06978202,10.053907,0.3719449,2.689559,-1.9205973
0.868,4.8314877,-0.100898266,9.960326,0.36172366,2.6839764,-1.9251759
0.87,5.028486,-0.124438286,9.854034,0.3510515,2.678693,-1.9273055
0.872,5.2204366,-0.14058304,9.734545,0.34000653,2.6738522,-1.9265695
0.874,5.405216,-0.15018582,9.600035,0.32854348,2.6695917,-1.9226165
0.876,5.5810304,-0.15407705,9.450125,0.3165967,2.6660824,-1.9151218
0.878,5.746519,-0.15238285,9.287168,0.3041833,2.6635034,-1.9039674
0.88,5.900782,-0.14493191,9.114248,0.29140282,2.6619034,-1.889272
0.882,6.0436096,-0.1320802,8.934954,0.27836007,2.6611385,-1.8712581
0.884,6.16941,-0.112410665,8.750268,0.2651155,2.6608963,-1.8501811
0.886,6.275811,-0.085572004,8.5561695,0.251715,2.6607492,-1.8263412
0.888,6.367751,-0.05528295,8.357739,0.23822188,2.6602435,-1.8001494
0.89,6.444504,-0.022340775,8.16287,0.22473294,2.6589124,-1.7720888
0.892,6.500617,0.014986157,7.9742804,0.21136361,2.6562753,-1.7427112
0.894,6.5375996,0.055598497,7.789939,0.19823408,2.6518483,-1.7125506
0.896,6.5569696,0.09836483,7.607604,0.18549562,2.645149,-1.6821713
0.898,6.5584445,0.14223975,7.427439,0.1732741,2.6357515,-1.6521645
0.9,6.543807,0.18531936,7.2519507,0.16171175,2.6233292,-1.6230996
0.902,6.51542,0.22619307,7.0844703,0.15094078,2.607688,-1.5955327
0.904,6.4752374,0.26481956,6.926704,0.14106512,2.5887265,-1.5700212
0.906,6.4254723,0.3008633,6.778284,0.13217098,2.566431,-1.5470617
0.908,6.368369,0.3331659,6.637834,0.124289274,2.5408516,-1.5270559
0.91,6.306071,0.3605357,6.505287,0.11738533,2.5120955,-1.5103331
0.912,6.241069,0.3821469,6.381661,0.1113981,2.480363,-1.4971602
0.914,6.175704,0.39792493,6.2679586,0.10625696,2.4459393,-1.4876657
0.916,6.1122694,0.4078638,6.1644387,0.10183424,2.4090695,-1.4818939
0.918,6.0526586,0.4118122,6.070577,0.0979982,2.3699803,-1.479833
0.92,5.9984083,0.40966415,5.9852476,0.09462416,2.328944,-1.4814211
0.922,5.951054,0.40174803,5.9077296,0.09155476,2.2862425,-1.4865422
0.924,5.911016,0.38852698,5.8378134,0.088653386,2.2421768,-1.4950565
0.926,5.87887,0.37071985,5.775735,0.08581805,2.197128,-1.5067556
0.928,5.854272,0.3493548,5.7216997,0.08296478,2.1515465,-1.5214095
0.93,5.8363,0.32587156,5.675405,0.080063164,2.1060305,-1.5386976
0.932,5.823727,0.30147308,5.6367292,0.07716036,2.0612924,-1.5581917
0.934,5.8146915,0.2776276,5.605531,0.07436198,2.0181255,-1.5793707
0.936,5.806916,0.2557543,5.5821104,0.0718438,1.9773868,-1.6016518
0.938,5.7979565,0.2372207,5.566532,0.06985271,1.9399538,-1.624357
0.94,5.785174,0.22343168,5.559031,0.06868845,1.9066123,-1.6467313
0.942,5.765905,0.21555041,5.5593953,0.06870705,1.8779968,-1.6679751
0.944,5.7376094,0.21469687,5.5677843,0.07024789,1.8545094,-1.6873271
0.946,5.697704,0.22175854,5.584432,0.073626816,1.836252,-1.7041144
0.948,5.6437807,0.23732884,5.6093717,0.079123914,1.8230715,-1.7177857
0.95,5.5738287,0.26163253,5.642624,0.08700591,1.8145745,-1.7279222
0.952,5.486365,0.29466802,5.684337,0.09752494,1.8101459,-1.7342607
0.954,5.3800993,0.33621636,5.734549,0.11087829,1.808997,-1.7366648
0.956,5.254311,0.38568074,5.79309,0.1272167,1.8102401,-1.7351491
0.958,5.10865,0.4423359,5.8600173,0.14662796,1.8129418,-1.7298611
0.96,4.943679,0.5049414,5.935105,0.16913688,1.8162084,-1.7211237
0.962,4.760445,0.572454,6.0176167,0.194677,1.8192576,-1.7094177
0.964,4.5604873,0.6434715,6.1068854,0.22308153,1.8213944,-1.6953453
0.966,4.346105,0.7165402,6.202166,0.25406957,1.8220131,-1.6795672
0.968,4.11991,0.79007936,6.302517,0.287246,1.8206007,-1.6628215
0.97,3.8852084,0.86267036,6.406689,0.32220343,1.8168606,-1.6458395
0.972,3.645588,0.93265384,6.5136204,0.35852134,1.8106474,-1.6292973
0.974,3.4048984,0.9984862,6.621862,0.39581838,1.8019192,-1.6137838
0.976,3.1674864,1.0586454,6.7296867,0.43377563,1.7907481,-1.599805
0.978,2.9376378,1.1116891,6.835505,0.4721458,1.7772856,-1.5877386
0.98,2.7197707,1.1565006,6.937586,0.5107522,1.7617378,-1.577842
0.982,2.518046,1.1919503,7.034183,0.54948574,1.7443259,-1.5702796
0.984,2.336694,1.2174546,7.123483,0.58825684,1.7252012,-1.565187
0.986,2.1797776,1.2324312,7.203784,0.62695754,1.7044517,-1.5626901
0.988,2.0507927,1.2364492,7.2730756,0.66543734,1.6820885,-1.5629112
0.99,1.952873,1.229481,7.3292694,0.70345604,1.6580145,-1.5659558
0.992,1.8889558,1.2116644,7.3704677,0.7407188,1.6320274,-1.5719287
0.994,1.861284,1.1832695,7.395397,0.7768794,1.6039473,-1.5808772
0.996,1.8715658,1.144948,7.4030943,0.81159306,1.5736179,-1.5927968
0.998,1.9212334,1.0972707,7.3923507,0.84457976,1.5410118,-1.6075583
1,2.0106878,1.04107,7.3624015,0.8756496,1.5062586,-1.6248944
1.002,2.140086,0.97731066,7.312745,0.9047148,1.4696155,-1.6444213
1.004,2.308915,0.90674865,7.2432747,0.93177557,1.4314992,-1.6656667
1.006,2.516096,0.8304144,7.1540737,0.9569408,1.3924363,-1.6880608
1.008,2.7600803,0.74942195,7.0456705,0.9804265,1.3530234,-1.7109942
1.01,3.0383205,0.66513824,6.9187794,1.002515,1.3138778,-1.7337897
1.012,3.3482313,0.57867706,6.774489,1.0235503,1.2755872,-1.7557416
1.014,3.6867583,0.49089015,6.614133,1.0438795,1.2386422,-1.7761425
1.016,4.0503826,0.40300357,6.4392943,1.0638485,1.2034043,-1.7943006
1.018,4.4353056,0.3163846,6.2518272,1.0837924,1.1701517,-1.8095815
1.02,4.8373084,0.23218632,6.0532284,1.1039996,1.1390564,-1.8214495
1.022,5.2518797,0.15158957,5.8452954,1.1247127,1.1102085,-1.8294661
1.024,5.6742506,0.07524943,5.630338,1.1461215,1.0836482,-1.8332804
1.026,6.0997086,0.0042515397,5.4106927,1.1683408,1.0594051,-1.832655
1.028,6.523641,-0.060494423,5.188658,1.1914223,1.0375018,-1.8274927
1.03,6.941277,-0.11779086,4.9667187,1.2153695,1.0180146,-1.8178163
1.032,7.348277,-0.16682962,4.7469735,1.2401389,1.001047,-1.8037475
1.034,7.74061,-0.20669708,4.5312014,1.2656405,0.9867081,-1.7854972
1.036,8.114294,-0.23689638,4.3210425,1.2917681,0.97512925,-1.763337
1.038,8.465696,-0.25700915,4.118038,1.318413,0.96641684,-1.7376034
1.04,8.791758,-0.26675782,3.9237797,1.3454616,0.96063876,-1.7087067
1.042,9.089667,-0.26565915,3.7396748,1.3728341,0.9578301,-1.6770906
1.044,9.357235,-0.25338596,3.5674286,1.4005177,0.95796305,-1.6432385
1.046,9.592777,-0.2299121,3.4080377,1.4285439,0.9609589,-1.6076696
1.048,9.795106,-0.19500697,3.2626634,1.4570374,0.96664107,-1.5709147
1.05,9.963526,-0.14896846,3.1320221,1.4861727,0.9747534,-1.5334936
1.052,10.09843,-0.09205115,3.0165806,1.5161572,0.9849593,-1.4959228
1.054,10.200091,-0.024636507,2.9168189,1.5472385,0.9968281,-1.4586667
1.056,10.269625,0.052919745,2.832837,1.5796773,1.0098257,-1.422137
1.058,10.308536,0.14028406,2.7645955,1.6137055,1.0233012,-1.3866705
1.06,10.318898,0.23683965,2.7118618,1.6495242,1.0365396,-1.3525822
1.062,10.30328,0.34191072,2.6739202,1.6872525,1.0487621,-1.3201239
1.064,10.264307,0.45466137,2.6501925,1.7269192,1.0590897,-1.2895038
1.066,10.205093,0.5741879,2.6401072,1.7684529,1.0666463,-1.2608656
1.068,10.12881,0.6997625,2.642539,1.8117051,1.0705768,-1.2343049
1.07,10.038609,0.83066154,2.6561303,1.8564563,1.0700984,-1.2098475
1.072,9.937746,0.9660607,2.6793473,1.9024264,1.0645301,-1.1874624
1.074,9.829603,1.105315,2.7100391,1.9493263,1.0533427,-1.1670685
1.076,9.717444,1.24762,2.7459931,1.9968822,1.0361838,-1.1485273
1.078,9.604151,1.3925107,2.78471,2.04484,1.0128484,-1.1316586
1.08,9.492348,1.5398195,2.8235197,2.093008,0.9832575,-1.116255
1.082,9.384527,1.6894267,2.8592787,2.1412332,0.94743294,-1.102082
1.084,9.282748,1.8413587,2.8889933,2.1894398,0.90549827,-1.0888758
1.086,9.189162,1.9956864,2.9093828,2.2376103,0.85764515,-1.0764143
1.088,9.105421,2.1527705,2.9171877,2.2857862,0.80408937,-1.0645037
1.09,9.033014,2.3127751,2.9091988,2.3340678,0.7450667,-1.0530092
1.092,8.973285,2.4763424,2.8821263,2.3826182,0.6808205,-1.0418313
1.094,8.927517,2.644001,2.832633,2.4316618,0.6115649,-1.0309224
1.096,8.896952,2.816068,2.757863,2.481459,0.53746855,-1.0202985
1.098,8.882679,2.9933667,2.6554317,2.5323136,0.45867264,-1.0100348
1.1,8.886066,3.1761453,2.5230455,2.5845685,0.3752463,-1.0002677
1.102,8.908083,3.3650246,2.3586507,2.638567,0.2872175,-0.9912052
1.104,8.949942,3.560605,2.1606705,2.6946912,0.19457608,-0.9830989
1.106,9.012898,3.7631464,1.928107,2.7533276,0.09726572,-0.9762402
1.108,9.0985365,3.9728937,1.6604877,2.8148587,-0.004773736,-0.9709513
1.11,9.20869,4.1898317,1.3579402,2.8796608,-0.1115731,-0.9675473
1.112,9.345165,4.4136705,1.0208745,2.9481058,-0.22314191,-0.966308
1.114,9.510085,4.6442566,0.6503792,3.0205154,-0.33949214,-0.9674335
1.116,9.705338,4.881319,0.24832654,3.0971994,-0.46065295,-0.9710558
1.118,9.932792,5.1243496,-0.18196225,3.1784115,-0.5866016,-0.97721416
1.12,10.192974,5.3737745,-0.6374705,3.2643578,-0.71735746,-0.98584783
1.122,10.487509,5.6296973,-1.1153376,3.3551664,-0.852983,-0.9967913
1.124,10.817631,5.891514,-1.6114178,3.4508703,-0.99364424,-1.0098217
1.126,11.18408,6.15815,-2.1211846,3.5513942,-1.1396306,-1.0246291
1.128,11.588046,6.428518,-2.639377,3.6565347,-1.2913806,-1.0408466
1.13,12.029764,6.702204,-3.160211,3.7659621,-1.449415,-1.0580747
1.132,12.510088,6.978548,-3.676781,3.879264,-1.6142956,-1.0758884
1.134,13.026833,7.25837,-4.1815834,3.99594,-1.7866126,-1.0938597
1.136,13.575408,7.5432796,-4.6700783,4.115456,-1.9668711,-1.111596
1.138,14.15733,7.831427,-5.135572,4.2372384,-2.1555197,-1.1287518
1.14,14.772436,8.120922,-5.5709295,4.3606696,-2.3528988,-1.145015
1.142,15.41217,8.414538,-5.9708614,4.4851294,-2.5592616,-1.1600895
1.144,16.075125,8.711547,-6.327391,4.609956,-2.7747824,-1.1737069
1.146,16.757225,9.010544,-6.6351814,4.734484,-2.9995422,-1.1856778
1.148,17.459223,9.307614,-6.8848653,4.8580627,-3.2335057,-1.1958547
1.15,18.177982,9.602831,-7.072183,4.980075,-3.4764075,-1.2041745
1.152,18.903002,9.9009695,-7.197537,5.099995,-3.72783,-1.210686
1.154,19.627903,10.202922,-7.25983,5.2173557,-3.987146,-1.2155331
1.156,20.350983,10.506187,-7.2581544,5.3317513,-4.253443,-1.2189298
1.158,21.067314,10.809485,-7.1888924,5.4428577,-4.525539,-1.2211261
1.16,21.769321,11.113016,-7.047562,5.5504503,-4.8020034,-1.2224159
1.162,22.45193,11.416148,-6.831524,5.654409,-5.0811253,-1.2231853
1.164,23.111845,11.717124,-6.5405254,5.754682,-5.3608627,-1.2239046
1.166,23.744823,12.014029,-6.176597,5.8513412,-5.6389837,-1.2251258
1.168,24.346954,12.305251,-5.7443757,5.9446816,-5.913045,-1.2272065
1.17,24.915066,12.58934,-5.2501097,6.035133,-6.1803775,-1.2303194
1.172,25.44642,12.865069,-4.7012854,6.123068,-6.4386716,-1.2346702
1.174,25.938002,13.133145,-4.1065097,6.2089777,-6.685891,-1.2402911
1.176,26.384863,13.394808,-3.4752855,6.293512,-6.9200764,-1.2467957
1.178,26.783657,13.65286,-2.8173122,6.3773985,-7.1392,-1.2534363
1.18,27.136036,13.900997,-2.1392384,6.461667,-7.3413477,-1.2594008
1.182,27.436617,14.140652,-1.4528756,6.5473976,-7.5258374,-1.2640672
1.184,27.680517,14.374187,-0.7649026,6.635888,-7.692257,-1.2668221
1.186,27.867243,14.601479,-0.08354187,6.728458,-7.840105,-1.2668567
1.188,27.994265,14.824285,0.58177805,6.826298,-7.9691243,-1.2634208
1.19,28.057697,15.04526,1.2225084,6.930739,-8.07872,-1.2560289
1.192,28.05487,15.26662,1.8312209,7.0432296,-8.1676855,-1.2444348
1.194,27.982868,15.491141,2.4022272,7.1651034,-8.234282,-1.2286899
1.196,27.838287,15.722274,2.9320214,7.2973986,-8.276121,-1.2092321
1.198,27.618614,15.96365,3.4183486,7.4407063,-8.29041,-1.1868799
1.2,27.321594,16.219368,3.860773,7.595034,-8.27409,-1.1627259
1.202,26.94547,16.493433,4.260267,7.759817,-8.224055,-1.1380079
1.204,26.489044,16.789871,4.619508,7.933869,-8.137674,-1.1140065
1.206,25.952,17.11302,4.9421306,8.115599,-8.012731,-1.0918813
1.208,25.335447,17.466543,5.233365,8.303061,-7.8474803,-1.0726471
1.21,24.641207,17.854198,5.4996567,8.49433,-7.64019,-1.0564942
1.212,23.87264,18.278868,5.7480135,8.6876335,-7.3903093,-1.0429244
1.214,23.034386,18.742819,5.985424,8.881272,-7.0985312,-1.0312474
1.216,22.132006,19.24768,6.2187853,9.073798,-6.7663965,-1.020318
1.218,21.172384,19.794468,6.454996,9.263778,-6.3973684,-1.0088048
1.22,20.163261,20.383532,6.7006617,9.449727,-5.996753,-0.99563384
1.222,19.113071,21.014402,6.9618773,9.629988,-5.571734,-0.98032117
1.224,18.03133,21.68528,7.2437143,9.802787,-5.131317,-0.9629266
1.226,16.927969,22.393574,7.5501804,9.9664545,-4.685509,-0.94392395
1.228,15.813254,23.135864,7.8832912,10.119229,-4.244959,-0.92438006
1.23,14.698454,23.907082,8.244924,10.259503,-3.8204157,-0.9059298
1.232,13.593157,24.702457,8.63615,10.386016,-3.4219422,-0.8904178
1.234,12.506695,25.517168,9.056019,10.497807,-3.0579903,-0.8795159
1.236,11.447861,26.346205,9.502817,10.594524,-2.7343392,-0.8745978
1.238,10.423965,27.183912,9.973797,10.676197,-2.4552417,-0.8770032
1.24,9.442439,28.023973,10.465706,10.743242,-2.2234564,-0.8881204
1.242,8.508692,28.860256,10.974495,10.796361,-2.039969,-0.9090638
1.244,7.629668,29.685768,11.495813,10.83605,-1.9048437,-0.9406493
1.246,6.811934,30.493618,12.028101,10.862647,-1.8174286,-0.98351
1.248,6.0548973,31.280834,12.567107,10.876528,-1.7764434,-1.0381398
1.25,5.359622,32.04418,13.108912,10.878094,-1.7801865,-1.1048563
1.252,4.7328506,32.776924,13.651777,10.867845,-1.826566,-1.1838427
1.254,4.1724486,33.47691,14.192056,10.84635,-1.913124,-1.275213
1.256,3.6787722,34.142838,14.729013,10.814262,-2.0370917,-1.3790274
1.258,3.2477226,34.77534,15.258967,10.772381,-2.195274,-1.4952407
1.26,2.8799362,35.370968,15.783786,10.721511,-2.3843412,-1.6237462
1.262,2.5811925,35.92385,16.308218,10.66254,-2.600989,-1.7643701
1.264,2.351047,36.433975,16.833366,10.596249,-2.8424137,-1.9173385
1.266,2.1848135,36.904736,17.35972,10.523272,-3.1053157,-2.0828347
1.268,2.0818052,37.33734,17.884727,10.444269,-3.3865232,-2.2606542
1.27,2.0437298,37.731926,18.406017,10.3597,-3.6835766,-2.4506855
1.272,2.0687199,38.08991,18.923925,10.269999,-3.993908,-2.652775
1.274,2.1544971,38.413456,19.44027,10.175489,-4.3151937,-2.8665829
1.276,2.3000631,38.704178,19.95814,10.076319,-4.64538,-3.0916905
1.278,2.5044537,38.96321,20.480785,9.9725,-4.9825573,-3.3276105
1.28,2.7659035,39.191307,21.010595,9.86385,-5.3249784,-3.573787
1.282,3.0828142,39.38882,21.549011,9.750027,-5.671047,-3.8296206
1.284,3.454255,39.554382,22.096073,9.630566,-6.0192566,-4.094454
1.286,3.8804283,39.686764,22.651033,9.504899,-6.3680816,-4.367589
1.288,4.359556,39.783897,23.21191,9.372381,-6.7159944,-4.64831
1.29,4.8854713,39.851707,23.773653,9.232292,-7.0613985,-4.935873
1.292,5.4591284,39.88703,24.335827,9.083884,-7.4025774,-5.2295113
1.294,6.079216,39.886665,24.892714,8.926423,-7.7377067,-5.5284014
1.296,6.7401943,39.84996,25.440891,8.759202,-8.064808,-5.831667
1.298,7.4392204,39.7743,25.978563,8.581627,-8.381736,-6.1383247
1.3,8.174059,39.656704,26.503193,8.393221,-8.686241,-6.447344
1.302,8.94109,39.49524,27.011992,8.19363,-8.975958,-6.757572
1.304,9.737012,39.28752,27.50152,7.982723,-9.248454,-7.0677648
1.306,10.558849,39.031006,27.967842,7.7605605,-9.501329,-7.3765383
1.308,11.403397,38.72331,28.407583,7.527458,-9.732269,-7.682386
1.31,12.267409,38.362278,28.817554,7.2839355,-9.939148,-7.9836845
1.312,13.14771,37.94587,29.1953,7.0307364,-10.120056,-8.278734
1.314,14.041181,37.47239,29.538748,6.768791,-10.27335,-8.565749
1.316,14.944604,36.940666,29.846268,6.499208,-10.397713,-8.842907
1.318,15.854538,36.350132,30.11618,6.2232475,-10.492098,-9.108357
1.32,16.767784,35.700634,30.34723,5.9422493,-10.555731,-9.360286
1.322,17.680717,34.992638,30.538483,5.6576605,-10.58805,-9.596913
1.324,18.58965,34.227444,30.689587,5.3710036,-10.588661,-9.816539
1.326,19.490894,33.406925,30.800901,5.0838184,-10.557285,-10.017497
1.328,20.381117,32.533512,30.872261,4.7976923,-10.493727,-10.198193
1.33,21.255585,31.60972,30.902733,4.514207,-10.397857,-10.3570385
1.332,22.109514,30.639187,30.89448,4.2349634,-10.269659,-10.492561
1.334,22.939247,29.626183,30.847445,3.9615202,-10.109245,-10.603304
1.336,23.740238,28.575415,30.762495,3.6953912,-9.916917,-10.687868
1.338,24.508001,27.491772,30.64096,3.438016,-9.69321,-10.744926
1.34,25.238548,26.380474,30.484102,3.1907258,-9.439027,-10.77331
1.342,25.927914,25.246805,30.293299,2.9547267,-9.155622,-10.772041
1.344,26.57252,24.096718,30.069809,2.7311234,-8.84462,-10.740397
1.346,27.169497,22.935905,29.814686,2.520907,-8.508027,-10.67794
1.348,27.71628,21.770313,29.52922,2.3249345,-8.148144,-10.584623
1.35,28.211002,20.605515,29.214584,2.143948,-7.7675047,-10.460786
1.352,28.652393,19.447195,28.871887,1.9785507,-7.368802,-10.307202
1.354,29.039875,18.300621,28.502228,1.8292034,-6.954769,-10.125059
1.356,29.373634,17.170795,28.10696,1.6962249,-6.5280204,-9.915933
1.358,29.654488,16.062206,27.687428,1.5797157,-6.091002,-9.681709
1.36,29.884228,14.978786,27.24456,1.4795811,-5.646194,-9.424628
1.362,30.06496,13.924439,26.779606,1.3956294,-5.1956544,-9.147059
1.364,30.199299,12.902477,26.293623,1.3274453,-4.7411156,-8.851491
1.366,30.290083,11.915718,25.788225,1.2743896,-4.284244,-8.540465
1.368,30.340302,10.966436,25.264872,1.2356896,-3.8265214,-8.216503
1.37,30.353025,10.056526,24.725166,1.210422,-3.3693297,-7.882039
1.372,30.331251,9.187417,24.17085,1.1975228,-2.9140844,-7.5394087
1.374,30.277655,8.360376,23.60366,1.1958675,-2.4622333,-7.1907907
1.376,30.194695,7.5760765,23.025713,1.2042308,-2.0153162,-6.838221
1.378,30.084312,6.835026,22.439322,1.2213457,-1.5749345,-6.483615
1.38,29.947617,6.1373196,21.846796,1.2459309,-1.1428044,-6.1287856
1.382,29.78523,5.482643,21.250372,1.2766724,-0.7207241,-5.775429
1.384,29.597271,4.870694,20.652185,1.3122644,-0.31057376,-5.4251447
1.386,29.383028,4.3010807,20.05434,1.3514178,0.08570951,-5.0794015
1.388,29.141338,3.7734013,19.458971,1.392838,0.4661729,-4.739578
1.39,28.870945,3.2869406,18.868183,1.4352598,0.82886624,-4.406932
1.392,28.569923,2.8409653,18.28392,1.4774405,1.1719177,-4.0825977
1.394,28.236221,2.4348307,17.708153,1.5182009,1.4935795,-3.767555
1.396,27.867743,2.067739,17.142504,1.5564423,1.7923088,-3.4626994
1.398,27.462238,1.7388263,16.588673,1.5911355,2.0668156,-3.1688218
1.4,27.01812,1.4469604,16.048277,1.621383,2.3161404,-2.8866277
1.402,26.533804,1.1909084,15.523115,1.6464434,2.5397022,-2.6167188
1.404,26.008291,0.96944475,15.014887,1.6657834,2.7373717,-2.3596194
1.406,25.441156,0.7813773,14.524952,1.679081,2.909458,-2.1157544
1.408,24.832207,0.6252508,14.054543,1.6862485,3.0566945,-1.8854587
1.41,24.182163,0.49949932,13.604892,1.6873717,3.180148,-1.6689776
1.412,23.492292,0.4022107,13.176754,1.682749,3.2812037,-1.4664512
1.414,22.76456,0.33162403,12.7709055,1.672799,3.3616898,-1.2778265
1.416,22.001219,0.28600192,12.388054,1.6580021,3.4233167,-1.1030542
1.418,21.205315,0.26346397,12.028623,1.6389449,3.467877,-0.94198054
1.42,20.38017,0.2621162,11.692853,1.6162808,3.497341,-0.7943614
1.422,19.529755,0.28026843,11.380753,1.5906358,3.5135868,-0.6599081
1.424,18.658644,0.31605244,11.092427,1.5626171,3.5184264,-0.5383094
1.426,17.771545,0.36760163,10.8277445,1.5328118,3.513651,-0.42920625
1.428,16.8733,0.43310976,10.586306,1.5017697,3.5009432,-0.33225095
1.43,15.968757,0.51074934,10.367336,1.4700103,3.4818904,-0.24706882
1.432,15.062807,0.5989566,10.169892,1.4379758,3.4579053,-0.17327398
1.434,14.160244,0.69602084,9.992691,1.4060429,3.4302514,-0.110477746
1.436,13.265609,0.800261,9.834148,1.3744938,3.3999605,-0.058327198
1.438,12.382414,0.9102318,9.693232,1.3434972,3.3678267,-0.01649502
1.44,11.515424,1.0247424,9.569284,1.3131241,3.334384,0.015309483
1.442,10.668269,1.142447,9.458607,1.2833539,3.2999287,0.037348032
1.444,9.843045,1.2620999,9.36023,1.254077,3.2645388,0.049851537
1.446,9.042621,1.3824648,9.272161,1.2251468,3.2281086,0.053053617
1.448,8.269121,1.5029885,9.192202,1.1963894,3.1904337,0.047200263
1.45,7.5238824,1.6229606,9.118506,1.1676283,3.1512585,0.03258735
1.452,6.808235,1.7416514,9.049447,1.1387154,3.1103237,0.0095178485
1.454,6.1226387,1.8582487,8.983685,1.1095124,3.067422,-0.021678448
1.456,5.46745,1.972203,8.920042,1.0799317,3.0223923,-0.060638726
1.458,4.8425093,2.0830126,8.857694,1.0498798,2.9750888,-0.10697153
1.46,4.247303,2.1904826,8.796143,1.0192757,2.9253776,-0.1602427
1.462,3.681091,2.294412,8.73522,0.9880421,2.873149,-0.2199665
1.464,3.1428192,2.394741,8.6750965,0.9561364,2.8182573,-0.28561628
1.466,2.631385,2.4915662,8.615869,0.9234977,2.7605295,-0.35661897
1.468,2.145067,2.585193,8.5581,0.89007664,2.6998215,-0.4323533
1.47,1.6822728,2.6758761,8.502683,0.855833,2.6360388,-0.51210475
1.472,1.2412403,2.7636383,8.450499,0.82076055,2.569176,-0.5951015
1.474,0.82004577,2.848849,8.402861,0.78488624,2.4993577,-0.6805203
1.476,0.41664907,2.9319055,8.360885,0.74824685,2.4268374,-0.76750636
1.478,0.029505566,3.013339,8.325829,0.71091443,2.3520148,-0.85519606
1.48,-0.34317985,3.0936918,8.29913,0.67298627,2.2754385,-0.9427375
1.482,-0.7024998,3.1733685,8.281964,0.6345727,2.1977942,-1.0293083
1.484,-1.0497373,3.2528274,8.275633,0.5957871,2.1198373,-1.1141288
1.486,-1.3859365,3.332569,8.281303,0.5567503,2.0424113,-1.1964816
1.488,-1.711727,3.4129488,8.299822,0.51757497,1.966373,-1.2757314
1.49,-2.0275855,3.494553,8.331952,0.4783588,1.892596,-1.3513217
1.492,-2.3337932,3.5778751,8.378017,0.4391798,1.8219364,-1.4228151
1.494,-2.6306386,3.6633222,8.438422,0.40010673,1.7552099,-1.489877
1.496,-2.9181385,3.7513356,8.513277,0.36119372,1.6931655,-1.5522751
1.498,-3.1963487,3.8421125,8.60263,0.32246992,1.6365016,-1.6098754
1.5,-3.465401,3.9361753,8.70673,0.2839447,1.5858967,-1.6626155
1.502,-3.7256458,4.034064,8.82565,0.24560973,1.5419338,-1.710474
1.504,-3.9772794,4.136331,8.959406,0.20745978,1.5051699,-1.7534686
1.506,-4.2206836,4.243505,9.107891,0.1694879,1.4761144,-1.7916065
1.508,-4.4565215,4.356216,9.27081,0.13169013,1.4552151,-1.8248819
1.51,-4.685628,4.4751935,9.447665,0.0940488,1.4428577,-1.8532802
1.512,-4.9091816,4.600929,9.63748,0.056549635,1.4393666,-1.8768094
1.514,-5.128557,4.734188,9.839428,0.019175477,1.445012,-1.8955086
1.516,-5.345534,4.875639,10.05279,-0.018084656,1.4599692,-1.9094645
1.518,-5.5617456,5.025937,10.276838,-0.055254422,1.4843671,-1.918836
1.52,-5.7793202,5.1859674,10.510502,-0.09233791,1.5182555,-1.9238633
1.522,-6.0003366,5.356788,10.752756,-0.12933572,1.5616034,-1.9248996
1.524,-6.227039,5.5393424,11.0023985,-0.16623087,1.614306,-1.9224099
1.526,-6.4616942,5.73452,11.25801,-0.20297399,1.6761616,-1.9169561
1.528,-6.706561,5.943202,11.518194,-0.23948106,1.7468832,-1.9091843
1.53,-6.963493,6.166268,11.781185,-0.27563095,1.8261154,-1.8998077
1.532,-7.2343693,6.4043155,12.04501,-0.31128114,1.91343,-1.8895835
1.534,-7.520753,6.657848,12.307406,-0.34628963,2.0082366,-1.879296
1.536,-7.82382,6.9273443,12.566196,-0.38052723,2.1098213,-1.8697482
1.538,-8.14403,7.212854,12.81928,-0.4139036,2.2173295,-1.8617634
1.54,-8.48141,7.5142717,13.064705,-0.44637418,2.329732,-1.856163
1.542,-8.835528,7.8310957,13.300502,-0.4779384,2.4458537,-1.8537674
1.544,-9.205327,8.162739,13.52458,-0.5086497,2.564355,-1.8554201
1.546,-9.589185,8.50821,13.73472,-0.5386017,2.6837628,-1.8619831
1.548,-9.984756,8.866115,13.928815,-0.56793267,2.8025367,-1.874327
1.55,-10.389568,9.234806,14.104493,-0.59679544,2.919111,-1.8933686
1.552,-10.800395,9.612047,14.25991,-0.62535745,3.0319262,-1.9200491
1.554,-11.214062,9.995554,14.393252,-0.6537744,3.1394408,-1.9553225
1.556,-11.6269,10.382623,14.502904,-0.68221205,3.2401726,-2.0001535
1.558,-12.035284,10.77004,14.587501,-0.7108811,3.3326542,-2.0554776
1.56,-12.435495,11.154812,14.645936,-0.74001503,3.4154568,-2.122189
1.562,-12.824213,11.5336895,14.677041,-0.7699036,3.4871716,-2.2010856
1.564,-13.197607,11.903215,14.679921,-0.80089635,3.5463796,-2.2928286
1.566,-13.552452,12.259788,14.654083,-0.8333914,3.5916657,-2.3979094
1.568,-13.885839,12.59981,14.599327,-0.86785036,3.6216416,-2.5166564
1.57,-14.195307,12.919834,14.515725,-0.9047737,3.6349869,-2.649212
1.572,-14.478818,13.216665,14.404013,-0.9446606,3.6305182,-2.7955036
1.574,-14.734788,13.487183,14.264992,-0.9880004,3.6072392,-2.9552975
1.576,-14.962158,13.728409,14.100203,-1.0352213,3.5643795,-3.128179
1.578,-15.159977,13.937788,13.911214,-1.0866929,3.5014567,-3.3135927
1.58,-15.328039,14.113184,13.699887,-1.1426872,3.4183402,-3.5108488
1.582,-15.4662895,14.252888,13.468479,-1.2033389,3.315247,-3.7191577
1.584,-15.575,14.355452,13.219304,-1.2686467,3.192778,-3.9376235
1.586,-15.654758,14.419923,12.955102,-1.3384788,3.0518897,-4.165274
1.588,-15.706562,14.446151,12.678899,-1.4125569,2.8939552,-4.4010696
1.59,-15.731152,14.434139,12.393786,-1.4904794,2.7206933,-4.6439157
1.592,-15.729717,14.384703,12.103224,-1.571733,2.5341601,-4.892688
1.594,-15.70313,14.2989025,11.810811,-1.6557361,2.3367016,-5.1462317
1.596,-15.651203,14.178455,11.519805,-1.7418581,2.1308734,-5.4033976
1.598,-15.574104,14.0253105,11.233179,-1.8294758,1.9194156,-5.6630545
1.6,-15.4725275,13.841751,10.954167,-1.9179155,1.7051718,-5.9240847
1.602,-15.346071,13.630583,10.685759,-2.0065246,1.4910371,-6.18544
1.604,-15.194062,13.394791,10.430569,-2.0946696,1.2798827,-6.4461546
1.606,-15.015351,13.1374855,10.191306,-2.1817343,1.0745044,-6.7053127
1.608,-14.808646,12.862217,9.969942,-2.2671096,0.8776411,-6.962106
1.61,-14.572056,12.572437,9.767998,-2.3501682,0.6919359,-7.2158103
1.612,-14.303523,12.271679,9.586636,-2.430235,0.5199151,-7.4658046
1.614,-14.001038,11.963563,9.42651,-2.506628,0.36394206,-7.711589
1.616,-13.662594,11.651706,9.287873,-2.5786088,0.22617179,-7.952789
1.618,-13.286009,11.339501,9.170561,-2.6454122,0.10853697,-8.189168
1.62,-12.869295,11.030289,9.073973,-2.706286,0.012645677,-8.420614
1.622,-12.410568,10.727455,8.997381,-2.7604828,-0.06022796,-8.6471405
1.624,-11.908133,10.43384,8.939537,-2.8073437,-0.10925609,-8.868908
1.626,-11.360683,10.152316,8.898835,-2.846253,-0.13413528,-9.086201
1.628,-10.767129,9.885426,8.873562,-2.8767343,-0.1350097,-9.299472
1.63,-10.126772,9.635395,8.861946,-2.8984218,-0.11253485,-9.509229
1.632,-9.439346,9.40416,8.862276,-2.9110382,-0.067843646,-9.716053
1.634,-8.704739,9.193799,8.872805,-2.9144223,-0.0025770366,-9.920602
1.636,-7.923368,9.006074,8.891942,-2.908498,0.081226826,-10.123532
1.638,-7.0961246,8.842606,8.918545,-2.8932421,0.1812021,-10.325506
1.64,-6.224583,8.705055,8.951515,-2.8686733,0.29465365,-10.527151
1.642,-5.3106184,8.595094,8.990227,-2.8348503,0.41864762,-10.729005
1.644,-4.3564596,8.5143385,9.034106,-2.7918644,0.5500524,-10.931545
1.646,-3.364676,8.464301,9.083257,-2.7398486,0.685544,-11.135128
1.648,-2.3384023,8.446819,9.138042,-2.6789782,0.8216571,-11.340015
1.65,-1.2807264,8.463554,9.199403,-2.6094868,0.954838,-11.54634
1.652,-0.19492817,8.516382,9.268553,-2.531682,1.0814849,-11.754121
1.654,0.9155345,8.607103,9.346986,-2.4459968,1.1980451,-11.963294
1.656,2.0473924,8.737624,9.436862,-2.3529396,1.301081,-12.173672
1.658,3.1973271,8.909652,9.540321,-2.2531052,1.3873847,-12.384989
1.66,4.3625174,9.124958,9.6595955,-2.1471603,1.4540129,-12.596893
1.662,5.539983,9.385347,9.797112,-2.0358646,1.4983426,-12.808931
1.664,6.7274494,9.692047,9.954438,-1.9200344,1.5181153,-13.020624
1.666,7.924768,10.044446,10.133618,-1.8005103,1.5114322,-13.231434
1.668,9.127958,10.443568,10.33603,-1.6781423,1.4767128,-13.440767
1.67,10.3332,10.892301,10.5692005,-1.5537963,1.41271,-13.648037
1.672,11.546352,11.386281,10.834683,-1.4283042,1.318386,-13.852615
1.674,12.765203,11.927985,11.131348,-1.3024586,1.1929548,-14.053883
1.676,13.9913645,12.514894,11.462791,-1.1769965,1.0358098,-14.251238
1.678,15.227119,13.14536,11.831541,-1.05262,0.84659463,-14.444081
1.68,16.475866,13.815536,12.238815,-0.92998743,0.6251741,-14.631802
1.682,17.739464,14.522219,12.683765,-0.80968523,0.37156618,-14.813754
1.684,19.020102,15.262846,13.168333,-0.69229627,0.0859766,-14.989359
1.686,20.322529,16.03251,13.692593,-0.5783844,-0.23122609,-15.158043
1.688,21.649998,16.827414,14.25705,-0.46849537,-0.57947874,-15.319223
1.69,23.0065,17.64228,14.86211,-0.3631711,-0.95807874,-15.472357
1.692,24.39666,18.471827,15.50668,-0.26295996,-1.3662443,-15.616933
1.694,25.821003,19.31315,16.19218,-0.16838217,-1.802968,-15.752438
1.696,27.283154,20.160242,16.918066,-0.07994366,-2.267068,-15.878362
1.698,28.786732,21.007284,17.682024,0.0018639565,-2.7572849,-15.99424
1.7,30.332926,21.85041,18.482594,0.07660866,-3.2724524,-16.09978
1.702,31.922443,22.685091,19.318096,0.14406633,-3.8105323,-16.194479
1.704,33.555866,23.505999,20.186657,0.2038784,-4.3697352,-16.277946
1.706,35.231697,24.308014,21.085873,0.2559166,-4.948116,-16.349657
1.708,36.948154,25.086554,22.013565,0.30007982,-5.543404,-16.408985
1.71,38.702877,25.837393,22.966814,0.33631468,-6.1532288,-16.455318
1.712,40.492424,26.555784,23.942188,0.36462355,-6.774965,-16.487974
1.714,42.313065,27.237175,24.935505,0.38517046,-7.4060187,-16.50628
1.716,44.159313,27.877632,25.942303,0.39827728,-8.0434265,-16.509527
1.718,46.026344,28.472212,26.958393,0.4043088,-8.684221,-16.49698
1.72,47.908546,29.016968,27.979218,0.40390205,-9.325279,-16.467686
1.722,49.800014,29.508043,28.999979,0.39773083,-9.963194,-16.420734
1.724,51.695602,29.941185,30.015892,0.3865342,-10.594593,-16.355438
1.726,53.590416,30.312218,31.022673,0.37128735,-11.215873,-16.271069
1.728,55.47949,30.617565,32.01602,0.35306668,-11.823526,-16.16675
1.73,57.358295,30.853643,32.991493,0.3330841,-12.414283,-16.041685
1.732,59.222664,31.017742,33.944473,0.31271887,-12.985078,-15.895101
1.734,61.068073,31.107632,34.870537,0.29345965,-13.5331545,-15.726128
1.736,62.89051,31.121384,35.765152,0.27695608,-14.056056,-15.533775
1.738,64.68763,31.057964,36.62481,0.26498532,-14.5516815,-15.316988
1.74,66.45589,30.91816,37.44474,0.25944483,-15.018303,-15.07469
1.742,68.192894,30.703371,38.221657,0.26230443,-15.454412,-14.805866
1.744,69.89586,30.415825,38.953278,0.27556193,-15.858761,-14.509636
1.746,71.56282,30.059923,39.638016,0.30115116,-16.230246,-14.185337
1.748,73.1913,29.641983,40.274746,0.3409624,-16.56786,-13.832491
1.75,74.77917,29.170458,40.863503,0.39677316,-16.870731,-13.450861
1.752,76.3242,28.655224,41.40553,0.47032017,-17.13794,-13.040422
1.754,77.82418,28.108849,41.90297,0.56323636,-17.368563,-12.601258
1.756,79.27818,27.545296,42.357723,0.67705023,-17.5624,-12.133834
1.758,80.68542,26.980701,42.772797,0.8134674,-17.718895,-11.638629
1.76,82.04456,26.433704,43.152706,0.97407097,-17.8378,-11.116286
1.762,83.354515,25.925102,43.503147,1.1604377,-17.91948,-10.567592
1.764,84.61388,25.477018,43.83192,1.3741162,-17.964626,-9.993329
1.766,85.82184,25.112312,44.14687,1.616487,-17.974417,-9.39439
1.768,86.97771,24.85486,44.45667,1.8886359,-17.950474,-8.771763
1.77,88.08215,24.72923,44.770752,2.1913369,-17.895176,-8.12661
1.772,89.13623,24.760805,45.09782,2.525063,-17.811172,-7.460146
1.774,90.139885,24.975027,45.447315,2.8897877,-17.701588,-6.7736874
1.776,91.09554,25.397537,45.830063,3.285145,-17.570093,-6.068398
1.778,92.01066,26.05138,46.25534,3.7104118,-17.420403,-5.3452435
1.78,92.89505,26.95652,46.730453,4.1643434,-17.256542,-4.605357
1.782,93.74001,28.146973,47.264923,4.645463,-17.08245,-3.8499618
1.784,94.541145,29.660639,47.85089,5.152011,-16.901943,-3.0801287
1.786,95.31277,31.497744,48.482178,5.682093,-16.718699,-2.296815
1.788,96.08883,33.636932,49.188156,6.2337537,-16.536022,-1.500884
1.79,96.86115,36.130295,49.98151,6.8050733,-16.35658,-0.69301414
1.792,97.6434,39.00878,50.861843,7.3941426,-16.182407,0.12644768
1.794,98.457535,42.284378,51.80891,7.99914,-16.014818,0.9576206
1.796,99.32156,45.943165,52.81194,8.618329,-15.854398,1.8012838
1.798,100.237755,49.994022,53.86312,9.250071,-15.700813,2.6588998
1.8,101.230965,54.423893,54.975407,9.892838,-15.552824,3.5326738
1.802,102.28033,59.24266,56.14094,10.545243,-15.408153,4.4255466
1.804,103.425186,64.459915,57.313583,11.205984,-15.26327,5.3410225
1.806,104.6804,70.07379,58.47746,11.8737335,-15.1135845,6.283242
1.808,105.99889,76.080795,59.642998,12.547335,-14.953205,7.2568035
1.81,107.296844,82.46102,60.85647,13.225603,-14.775397,8.266388
1.812,108.59189,89.14888,62.1846,13.90771,-14.571676,9.316409
1.814,109.930115,96.06434,63.698967,14.593607,-14.331913,10.410268
1.816,111.48038,103.17199,65.333015,15.281852,-14.046431,11.55183
1.818,113.30176,110.4874,66.97111,15.970354,-13.703438,12.747068
1.82,115.351326,117.98169,68.53187,16.659946,-13.286989,14.001524
1.822,117.57248,125.60408,70.03616,17.35167,-12.778397,15.320017
1.824,119.97521,133.30078,71.4549,18.044626,-12.158347,16.708546
1.826,122.52343,141.00339,72.85083,18.73471,-11.408609,18.172306
1.828,125.2657,148.60776,74.306046,19.417736,-10.509306,19.713211
1.83,128.21748,156.0414,75.862335,20.089478,-9.436875,21.332602
1.832,131.3866,163.28816,77.53108,20.742146,-8.164438,23.031425
1.834,134.78943,170.29787,79.27325,21.363903,-6.6695204,24.809946
1.836,138.42868,176.97125,81.03572,21.94088,-4.9354625,26.66293
1.838,142.31017,183.21574,82.81749,22.455818,-2.9466186,28.57165
1.84,146.42725,188.89595,84.591156,22.88837,-0.6872406,30.51
1.842,150.79042,193.94537,86.35939,23.219812,1.8511448,32.454384
1.844,155.35959,198.3441,88.09649,23.431442,4.670295,34.368923
1.846,160.14746,202.00803,89.80047,23.49548,7.7441893,36.20533
1.848,165.15977,204.91118,91.42913,23.389622,11.042464,37.917755
1.85,170.37964,207.05548,92.88985,23.102581,14.526773,39.452896
1.852,175.8199,208.3967,94.08829,22.630089,18.151268,40.760498
1.854,181.47394,208.87762,94.95848,21.970015,21.846949,41.784927
1.856,187.30411,208.50749,95.405754,21.119318,25.527002,42.46881
1.858,193.28137,207.3604,95.35943,20.09327,29.105265,42.802235
1.86,199.37762,205.48692,94.84866,18.925306,32.49117,42.80437
1.862,205.56833,202.9517,93.77414,17.658112,35.59365,42.500183
1.864,211.79343,199.82996,92.02846,16.33931,38.32442,41.909115
1.866,217.96971,196.20781,89.53399,15.013947,40.596695,41.039055
1.868,224.0151,192.1584,86.235245,13.71914,42.326168,39.892387
1.87,229.8467,187.75185,82.09607,12.486059,43.449337,38.4738
1.872,235.36716,183.06598,77.104126,11.337861,43.939304,36.78483
1.874,240.46484,178.18697,71.270615,10.2874565,43.80897,34.82361
1.876,245.03712,173.18121,64.64361,9.344638,43.11951,32.58559
1.878,248.96944,168.10605,57.276863,8.51821,41.97709,30.06192
1.88,252.17448,163.00098,49.220795,7.8177195,40.524006,27.242977
1.882,254.5784,157.88617,40.551018,7.2453737,38.913437,24.126787
1.884,256.11517,152.77951,31.390305,6.788,37.286037,20.725079
1.886,256.73907,147.69394,21.89824,6.4156027,35.75267,17.068863
1.888,256.42276,142.64122,12.256348,6.083048,34.38313,13.21542
1.89,255.15417,137.6337,2.6552734,5.7290707,33.19629,9.250675
1.892,252.95277,132.66774,-6.705757,5.28024,32.150223,5.2851844
1.894,249.86423,127.72992,-15.618515,4.654319,31.143738,1.4440429
1.896,245.93408,122.85019,-23.894241,3.7642388,30.037884,-2.1437335
1.898,241.21675,118.06639,-31.385479,2.531405,28.674818,-5.34056
1.9,235.82695,113.35296,-37.936016,0.903584,26.914074,-8.016552
1.902,229.86833,108.72565,-43.39852,-1.1482558,24.630219,-10.072711
1.904,223.44931,104.2245,-47.643612,-3.6204894,21.742292,-11.439008
1.906,216.68948,99.91083,-50.593426,-6.4686394,18.228844,-12.088678
1.908,209.72226,95.81659,-52.215275,-9.609507,14.149342,-12.031075
1.91,202.65292,91.990555,-52.532608,-12.93122,9.62704,-11.317687
1.912,195.61636,88.448746,-51.581734,-16.316835,4.8219004,-10.066963
1.914,188.67719,85.204544,-49.410988,-19.644127,-0.06867075,-8.416018
1.916,181.91345,82.28508,-46.13901,-22.786861,-4.8267894,-6.4945836
1.918,175.43507,79.715164,-41.930904,-25.624905,-9.232687,-4.425072
1.92,169.34357,77.52478,-36.990467,-28.050901,-13.081358,-2.32628
1.922,163.6118,75.76707,-31.527008,-29.978573,-16.199158,-0.31788254
1.924,158.19073,74.47762,-25.734453,-31.353226,-18.468555,1.4855018
1.926,152.95093,73.62508,-19.680784,-32.15467,-19.84077,2.9945164
1.928,147.90422,73.13142,-13.433628,-32.395638,-20.32841,4.154996
1.93,143.13658,72.968254,-7.128357,-32.11969,-20.001833,4.9486685
1.932,138.69702,73.11905,-0.9868469,-31.395176,-18.97765,5.3917217
1.934,134.54404,73.557045,4.8527756,-30.309286,-17.406628,5.5288134
1.936,130.67093,74.258156,10.20396,-28.956913,-15.455004,5.4215136
1.938,126.988144,75.21498,14.92812,-27.42999,-13.291029,5.1379204
1.94,123.456726,76.37461,18.979557,-25.81417,-11.075567,4.7476716
1.942,120.05031,77.642815,22.369675,-24.189358,-8.950992,4.3158255
1.944,116.739456,78.978745,25.163158,-22.624523,-7.033863,3.9023132
1.946,113.51381,80.38775,27.426834,-21.172535,-5.40489,3.5609674
1.948,110.36296,81.85812,29.177685,-19.866802,-4.1024065,3.3307824
1.95,107.28955,83.40741,30.465984,-18.721508,-3.1285338,3.2344084
1.952,104.28145,84.98091,31.318134,-17.735043,-2.457596,3.2801447
1.954,101.371994,86.505486,31.791977,-16.895454,-2.0442052,3.462624
1.956,98.53754,87.989555,31.922443,-16.184793,-1.8323483,3.7661161
1.958,95.76854,89.3953,31.778534,-15.580966,-1.7613977,4.16971
1.96,93.0782,90.68519,31.454159,-15.057334,-1.7719835,4.6496596
1.962,90.44925,91.88443,31.010319,-14.58411,-1.8142134,5.1821523
1.964,87.88635,93.0264,30.46121,-14.13146,-1.8467655,5.7467585
1.966,85.41287,94.08407,29.837334,-13.674094,-1.8355757,6.327178
1.968,83.03048,94.99851,29.136965,-13.193534,-1.7585509,6.911088
1.97,80.731834,95.76543,28.283392,-12.677994,-1.6064346,7.489697
1.972,78.50185,96.384,27.3425,-12.122609,-1.3798177,8.057837
1.974,76.35172,96.85675,26.368431,-11.529778,-1.0862126,8.61262
1.976,74.29651,97.186714,25.377127,-10.907453,-0.7378303,9.150459
1.978,72.33388,97.39388,24.368927,-10.266162,-0.34869236,9.664184
1.98,70.45392,97.49656,23.340307,-9.617584,0.06755197,10.143034
1.982,68.65401,97.50048,22.28645,-8.9741335,0.4982353,10.574665
1.984,66.93695,97.40202,21.204437,-8.3482065,0.93182975,10.947584
1.986,65.29212,97.21346,20.087006,-7.751173,1.3578651,11.253064
1.988,63.719753,96.945595,18.950426,-7.192392,1.7668209,11.486055
1.99,62.198074,96.61412,17.830894,-6.67879,2.1501935,11.645432
1.992,60.708775,96.236305,16.751463,-6.214984,2.5010626,11.734022
1.994,59.24398,95.81769,15.706518,-5.8033733,2.8146164,11.757971
1.996,57.792664,95.35917,14.678562,-5.4441123,3.0880618,11.725218
1.998,56.348915,94.85635,13.656637,-5.135091,3.3204153,11.64385
2,54.912785,94.30371,12.636938,-4.8724213,3.512568,11.521252
2.002,53.484818,93.703606,11.622631,-4.651272,3.6671932,11.363956
2.004,52.062847,93.0609,10.622288,-4.466365,3.7885299,11.177614
2.006,50.645348,92.37733,9.643164,-4.312273,3.8819067,10.96711
2.008,49.232784,91.65234,8.69112,-4.1840725,3.9529262,10.736887
2.01,47.826057,90.8825,7.7700367,-4.0774426,4.0070534,10.490692
2.012,46.426277,90.06401,6.880947,-3.9887717,4.0489645,10.231522
2.014,45.03326,89.19641,6.0233765,-3.9152684,4.082088,9.961777
2.016,43.6474,88.28258,5.1999855,-3.854942,4.1085014,9.683601
2.018,42.271324,87.326584,4.4162855,-3.8064723,4.128826,9.399142
2.02,40.908012,86.33592,3.678156,-3.7690997,4.1422386,9.110754
2.022,39.56151,85.32185,2.9908724,-3.7424822,4.1468267,8.821035
2.024,38.23547,84.29519,2.3592901,-3.7265136,4.1398683,8.532745
2.026,36.93323,83.26152,1.7873831,-3.721248,4.118226,8.248677
2.028,35.65702,82.22095,1.2774897,-3.726717,4.078786,7.9714723
2.03,34.40504,81.17309,0.831377,-3.7428274,4.0188637,7.7035046
2.032,33.176563,80.11694,0.45005226,-3.7693353,3.9364057,7.4468317
2.034,31.972229,79.05151,0.1339693,-3.805758,3.8302255,7.203143
2.036,30.791454,77.98003,-0.11617279,-3.8514175,3.7001224,6.9736686
2.038,29.634447,76.90927,-0.30016708,-3.9054322,3.5469062,6.759243
2.04,28.500917,75.84774,-0.41720104,-3.9667227,3.372355,6.5603514
2.042,27.390007,74.80343,-0.46617746,-4.034053,3.1790853,6.3773
2.044,26.300394,73.78306,-0.44680595,-4.1059566,2.9705222,6.2102613
2.046,25.230598,72.79176,-0.35965157,-4.180774,2.7507567,6.059335
2.048,24.177902,71.83394,-0.2063129,-4.256675,2.5244517,5.924633
2.05,23.139809,70.912704,0.010188818,-4.331701,2.2966557,5.8062096
2.052,22.11368,70.029945,0.28566265,-4.4038305,2.072667,5.704047
2.054,21.097155,69.18655,0.61540616,-4.470983,1.8579268,5.618032
2.056,20.088482,68.38265,0.993582,-4.5310917,1.6577753,5.547964
2.058,19.086628,67.617165,1.4133953,-4.5821433,1.4773257,5.493499
2.06,18.09223,66.88807,1.8677146,-4.622216,1.3213754,5.454117
2.062,17.105022,66.19385,2.3475266,-4.6495194,1.1942936,5.4290743
2.064,16.125807,65.5323,2.8445344,-4.6624556,1.1000049,5.417447
2.066,15.156513,64.90106,3.3489769,-4.659607,1.0419314,5.418129
2.068,14.199617,64.2969,3.8505323,-4.639767,1.0230005,5.4298487
2.07,13.257822,63.715843,4.338565,-4.601959,1.0456165,5.4511795
2.072,12.334028,63.153908,4.802395,-4.545505,1.1116465,5.4805927
2.074,11.431322,62.60675,5.231175,-4.4700875,1.2223933,5.5164347
2.076,10.553524,62.06999,5.614356,-4.375773,1.3785198,5.556952
2.078,9.70397,61.53928,5.94158,-4.263094,1.5800022,5.6003547
2.08,8.886068,61.01082,6.20299,-4.133012,1.8260198,5.6448936
2.082,8.103097,60.480625,6.389381,-3.9869077,2.1149468,5.6889157
2.084,7.358221,59.945496,6.4922667,-3.8265495,2.4443269,5.7308598
2.086,6.6543217,59.402557,6.5038037,-3.6540236,2.8109593,5.7693357
2.088,5.9937134,58.849564,6.4174876,-3.4716883,3.2109172,5.803191
2.09,5.3774376,58.285057,6.227516,-3.2821279,3.6396823,5.8315086
2.092,4.8061934,57.708366,5.9290104,-3.0880425,4.0922604,5.8536654
2.094,4.2801704,57.11947,5.5189185,-2.8920813,4.563303,5.869381
2.096,3.7985039,56.518616,4.9953213,-2.6968217,5.047263,5.8785753
2.098,3.3601265,55.906593,4.3580227,-2.504752,5.538598,5.8813095
2.1,2.9631462,55.284653,3.6082988,-2.318155,6.0318594,5.877783
2.102,2.605091,54.654297,2.7482295,-2.1390908,6.521822,5.86825
2.104,2.2832413,54.017246,1.7809286,-1.9694021,7.0035524,5.852952
2.106,1.9947004,53.374786,0.71039486,-1.8106499,7.472393,5.8320274
2.108,1.7362747,52.72821,-0.4583354,-1.6641271,7.923999,5.8054304
2.11,1.5043507,52.078762,-1.719059,-1.5308986,8.354304,5.7728834
2.112,1.2951689,51.427376,-3.0642118,-1.4118357,8.759415,5.733863
2.114,1.1048384,50.77456,-4.4853826,-1.3076625,9.135538,5.687578
2.116,0.9297304,50.120613,-5.9730062,-1.2189488,9.478925,5.6330457
2.118,0.7664566,49.46526,-7.516879,-1.1461711,9.785846,5.56911
2.12,0.61193657,48.808067,-9.106152,-1.0897055,10.052554,5.494547
2.122,0.4632349,48.14819,-10.729604,-1.0497975,10.275389,5.408191
2.124,0.31813622,47.484425,-12.375601,-1.0265408,10.450826,5.3090267
2.126,0.17468071,46.815025,-14.032513,-1.0198083,10.575616,5.1963353
2.128,0.030889511,46.1383,-15.688599,-1.0291853,10.64701,5.069737
2.13,-0.11474228,45.45211,-17.332518,-1.0539494,10.662856,4.9291983
2.132,-0.2637167,44.754604,-18.952944,-1.0930619,10.621827,4.775009
2.134,-0.41718006,44.04387,-20.539028,-1.1451874,10.523497,4.6077104
2.136,-0.5762243,43.318165,-22.08049,-1.2086997,10.368465,4.4280324
2.138,-0.7417698,42.57569,-23.567635,-1.281764,10.158382,4.2368407
2.14,-0.91464806,41.815212,-24.99193,-1.3623805,9.895885,4.03505
2.142,-1.0958529,41.03597,-26.345951,-1.4484472,9.58455,3.8235753
2.144,-1.285572,40.237503,-27.622906,-1.537801,9.228749,3.6033678
2.146,-1.4838724,39.419334,-28.817312,-1.6282732,8.833512,3.3753574
2.148,-1.6912413,38.58179,-29.924442,-1.7178032,8.404377,3.1404805
2.15,-1.907382,37.72509,-30.940706,-1.8043647,7.947155,2.8998153
2.152,-2.1324005,36.850315,-31.863678,-1.8859856,7.4677305,2.654523
2.154,-2.3663883,35.959,-32.691868,-1.9608331,6.9718695,2.4058259
2.156,-2.6088839,35.05236,-33.424435,-2.0272243,6.465069,2.1550074
2.158,-2.859249,34.132538,-34.06126,-2.0836668,5.9523563,1.9034028
2.16,-3.1171856,33.201828,-34.602932,-2.1289198,5.438162,1.652343
2.162,-3.3817205,32.262512,-35.050613,-2.1620617,4.9261856,1.4031112
2.164,-3.6516628,31.317171,-35.40591,-2.1825113,4.419376,1.1569246
2.166,-3.9259672,30.368599,-35.670605,-2.1900558,3.9199247,0.9148602
2.168,-4.2030754,29.419456,-35.846565,-2.1848671,3.429313,0.67783254
2.17,-4.4821196,28.472843,-35.935993,-2.1674867,2.9483993,0.4465462
2.172,-4.7608795,27.531067,-35.9405,-2.1388009,2.477531,0.22147314
2.174,-5.037609,26.59657,-35.86347,-2.0999637,2.0166707,0.0028459132
2.176,-5.311222,25.671926,-35.707245,-2.0523055,1.565513,-0.20931025
2.178,-5.5800695,24.759575,-35.474266,-1.9972432,1.1236238,-0.41515255
2.18,-5.8425145,23.862438,-35.16713,-1.9361727,0.6905253,-0.6149956
2.182,-6.0965214,22.982563,-34.788456,-1.8703661,0.2657634,-0.80926293
2.184,-6.3399954,22.121964,-34.34113,-1.8008933,-0.15099758,-0.9984023
2.186,-6.5711703,21.282616,-33.82842,-1.7285583,-0.5599709,-1.1828532
2.188,-6.78872,20.466433,-33.254093,-1.6538714,-0.9611366,-1.3629208
2.19,-6.991002,19.67452,-32.62197,-1.5770246,-1.3541703,-1.5388016
2.192,-7.176731,18.907787,-31.936033,-1.497915,-1.7384497,-1.7105949
2.194,-7.3447404,18.167072,-31.199957,-1.4162017,-2.1130269,-1.8782339
2.196,-7.4942746,17.453377,-30.417862,-1.3313633,-2.4766438,-2.041555
2.198,-7.6245575,16.768217,-29.593807,-1.2427421,-2.827765,-2.200298
2.2,-7.734413,16.112637,-28.732082,-1.1496222,-3.1646502,-2.3541458
2.202,-7.8231363,15.487606,-27.83704,-1.0512426,-3.4854007,-2.502767
2.204,-7.890282,14.894016,-26.913437,-0.94686615,-3.788077,-2.6458285
2.206,-7.9354897,14.3328285,-25.966036,-0.83583724,-4.0708694,-2.783047
2.208,-7.958442,13.804529,-24.999645,-0.71761656,-4.332158,-2.9142406
2.21,-7.9592776,13.309546,-24.018808,-0.5918319,-4.5706577,-3.039358
2.212,-7.9379287,12.847963,-23.027744,-0.45834804,-4.7855244,-3.1585274
2.214,-7.8949475,12.419728,-22.03032,-0.317286,-4.9763823,-3.2720287
2.216,-7.8308744,12.024649,-21.029812,-0.16902804,-5.1433334,-3.3803453
2.218,-7.746154,11.662292,-20.028954,-0.014163256,-5.2869754,-3.484201
2.22,-7.6415534,11.331938,-19.030521,0.14651251,-5.4083576,-3.5844612
2.222,-7.5176234,11.032612,-18.037083,0.31204748,-5.508924,-3.682088
2.224,-7.3751097,10.762884,-17.050882,0.4814012,-5.590364,-3.7780087
2.226,-7.215354,10.521269,-16.074034,0.653533,-5.654524,-3.8730717
2.228,-7.0391865,10.305973,-15.108333,0.82748413,-5.703235,-3.9680073
2.23,-6.8481555,10.114755,-14.155364,1.0024309,-5.7381697,-4.0633936
2.232,-6.643562,9.945448,-13.216317,1.1777735,-5.7607517,-4.159608
2.234,-6.426972,9.7957,-12.292168,1.353184,-5.772014,-4.2568245
2.236,-6.1998396,9.663271,-11.383824,1.5286381,-5.772546,-4.35501
2.238,-5.9635525,9.545596,-10.49213,1.704431,-5.7624617,-4.453937
2.24,-5.7195663,9.440485,-9.617754,1.8811746,-5.741383,-4.5532503
2.242,-5.4693766,9.345751,-8.761608,2.0597472,-5.708618,-4.6525335
2.244,-5.214391,9.259478,-7.924652,2.2411823,-5.6632285,-4.751271
2.246,-4.956104,9.179999,-7.1081524,2.426617,-5.604188,-4.8489017
2.248,-4.695893,9.105918,-6.313365,2.6171496,-5.530494,-4.9448924
2.25,-4.4349194,9.03601,-5.5417414,2.8137336,-5.441367,-5.038766
2.252,-4.174351,8.969621,-4.7947044,3.0170834,-5.336343,-5.130101
2.254,-3.9153037,8.906293,-4.0736504,3.227621,-5.2153754,-5.2184687
2.256,-3.658875,8.846069,-3.380117,3.4454496,-5.0788836,-5.30344
2.258,-3.4053898,8.789225,-2.7154472,3.670387,-4.9277244,-5.3845825
2.26,-3.1557455,8.736449,-2.0809467,3.9019868,-4.7631855,-5.461367
2.262,-2.9101114,8.688503,-1.477496,4.1395726,-4.586913,-5.533147
2.264,-2.6687665,8.646644,-0.90585816,4.3823147,-4.4008436,-5.59915
2.266,-2.4319344,8.612643,-0.36662185,4.6293178,-4.2070823,-5.658496
2.268,-2.199297,8.5878105,0.13978148,4.879616,-4.0078735,-5.7103076
2.27,-1.9706078,8.573704,0.6134138,5.1321697,-3.8055427,-5.7537584
2.272,-1.7454388,8.571924,1.0548778,5.385886,-3.6023831,-5.7881384
2.274,-1.5233355,8.583932,1.4649777,5.6396627,-3.4006162,-5.8130274
2.276,-1.3035777,8.61121,1.8450222,5.892407,-3.2023325,-5.8283663
2.278,-1.0858715,8.655259,2.196475,6.1430674,-3.0094924,-5.834509
2.28,-0.8693781,8.717277,2.5212634,6.3906236,-2.823884,-5.832153
2.282,-0.65318966,8.798685,2.8214808,6.634148,-2.647142,-5.822216
2.284,-0.43673778,8.900394,3.0996375,6.8728504,-2.4807036,-5.80581
2.286,-0.21921325,9.02313,3.3580995,7.106072,-2.3258386,-5.7841277
2.288,0.0002632141,9.167322,3.599463,7.333274,-2.1836443,-5.758327
2.29,0.22224236,9.332977,3.8262594,7.5540237,-2.0550718,-5.7294736
2.292,0.44743848,9.520127,4.0409613,7.767934,-1.9409474,-5.6984835
2.294,0.67632484,9.728633,4.2463093,7.9746513,-1.8419964,-5.666066
2.296,0.9095175,9.957947,4.445049,8.173809,-1.7588618,-5.6327477
2.298,1.1478755,10.207465,4.6400003,8.3650055,-1.6921271,-5.598882
2.3,1.3916893,10.477003,4.833708,8.547775,-1.642294,-5.564724
2.302,1.6412294,10.766209,5.0282264,8.721565,-1.6098061,-5.5303926
2.304,1.8968353,11.07459,5.2255907,8.885812,-1.5949959,-5.495921
2.306,2.1587002,11.401343,5.4276905,9.039884,-1.5980694,-5.461317
2.308,2.4271307,11.745311,5.636316,9.183171,-1.619097,-5.4265995
2.31,2.7022038,12.105651,5.8530216,9.315073,-1.657989,-5.3917794
2.312,2.984023,12.481677,6.0790167,9.435034,-1.7144665,-5.356869
2.314,3.2732012,12.872331,6.3152547,9.542627,-1.7880228,-5.3219333
2.316,3.5697546,13.276978,6.5623403,9.637553,-1.8779447,-5.2871017
2.318,3.8740578,13.694725,6.8203816,9.719629,-1.9833252,-5.2525773
2.32,4.18641,14.124541,7.089048,9.788832,-2.1030617,-5.2186
2.322,4.5070505,14.565387,7.367564,9.845306,-2.2359092,-5.185469
2.324,4.836772,15.015826,7.654591,9.889328,-2.380506,-5.1535773
2.326,5.1759844,15.474275,7.9485464,9.921288,-2.535471,-5.123427
2.328,5.5253587,15.938722,8.247469,9.941621,-2.6994433,-5.0956483
2.33,5.8856244,16.406853,8.549306,9.95073,-2.8711677,-5.071025
2.332,6.2572994,16.876223,8.851739,9.948921,-3.0495834,-5.0504723
2.334,6.640984,17.34419,9.152385,9.9363785,-3.2338395,-5.0349965
2.336,7.0375977,17.807781,9.448779,9.913093,-3.42336,-5.0257154
2.338,7.4473267,18.263983,9.738534,9.878858,-3.6178617,-5.023699
2.34,7.8707643,18.709772,10.019251,9.833273,-3.817299,-5.0299473
2.342,8.308386,19.141827,10.28861,9.775786,-4.021879,-5.04531
2.344,8.76047,19.55684,10.5444975,9.705739,-4.232006,-5.070416
2.346,9.227188,19.951492,10.78513,9.62244,-4.448245,-5.105649
2.348,9.708617,20.322573,11.008957,9.525208,-4.671257,-5.151135
2.35,10.204783,20.667013,11.21487,9.413441,-4.90179,-5.2067575
2.352,10.7156925,20.98164,11.402186,9.286631,-5.140623,-5.272225
2.354,11.240699,21.263647,11.570551,9.144405,-5.3885393,-5.3471274
2.356,11.779176,21.51039,11.720121,8.986571,-5.646289,-5.430999
2.358,12.330328,21.719404,11.851236,8.813027,-5.914552,-5.5233674
2.36,12.893023,21.888668,11.964572,8.62384,-6.1938868,-5.623776
2.362,13.466162,22.016304,12.0609865,8.419199,-6.48465,-5.7317705
2.364,14.048361,22.100883,12.141791,8.199408,-6.786967,-5.8469515
2.366,14.638225,22.141516,12.208295,7.964909,-7.100717,-5.9689302
2.368,15.233913,22.13764,12.261757,7.7161856,-7.425534,-6.097337
2.37,15.833981,22.088894,12.303737,7.453784,-7.7607884,-6.231839
2.372,16.436586,21.99514,12.3356085,7.178274,-8.105632,-6.372135
2.374,17.039968,21.856499,12.359032,6.8902016,-8.459043,-6.5179286
2.376,17.641964,21.673473,12.375329,6.590088,-8.819851,-6.668927
2.378,18.240576,21.446903,12.385814,6.2783775,-9.186808,-6.824795
2.38,18.833933,21.177734,12.3917055,5.9554477,-9.558605,-6.9851017
2.382,19.419968,20.867313,12.394005,5.6216016,-9.933948,-7.1492953
2.384,19.996704,20.517546,12.393763,5.2771206,-10.311492,-7.3166733
2.386,20.562054,20.130169,12.391506,4.9222994,-10.689837,-7.4864507
2.388,21.114273,19.707083,12.387869,4.557453,-11.067508,-7.6576767
2.39,21.651318,19.2507,12.383275,4.182932,-11.442972,-7.829277
2.392,22.171356,18.763302,12.378044,3.7991767,-11.814577,-8.000071
2.394,22.672686,18.247559,12.372215,3.4067464,-12.180563,-8.168821
2.396,23.153587,17.70634,12.365898,3.0063496,-12.539028,-8.33424
2.398,23.612011,17.14265,12.358902,2.59884,-12.887955,-8.495034
2.4,24.04644,16.559824,12.350725,2.1852088,-13.225228,-8.650003
2.402,24.455173,15.961352,12.340799,1.7665548,-13.548621,-8.798016
2.404,24.836906,15.350662,12.328247,1.3441153,-13.855876,-8.937948
2.406,25.190382,14.730952,12.312117,0.91927433,-14.144725,-9.068783
2.408,25.514664,14.105054,12.291304,0.49351478,-14.412958,-9.189552
2.41,25.808575,13.476051,12.264696,0.06838727,-14.658505,-9.29941
2.412,26.071215,12.847098,12.231059,-0.3544793,-14.879485,-9.397659
2.414,26.301714,12.221427,12.188869,-0.7734294,-15.074273,-9.483754
2.416,26.499716,11.601829,12.136702,-1.1868246,-15.24158,-9.557344
2.418,26.66486,10.991007,12.072952,-1.5931091,-15.380467,-9.618191
2.42,26.796974,10.391683,11.996195,-1.9907868,-15.490347,-9.66619
2.422,26.896101,9.806224,11.90501,-2.3784764,-15.571034,-9.701347
2.424,26.962158,9.237115,11.798235,-2.754918,-15.622695,-9.723703
2.426,26.995708,8.686146,11.674712,-3.118978,-15.645835,-9.73331
2.428,26.997305,8.154961,11.533491,-3.4696717,-15.6412115,-9.730203
2.43,26.967752,7.644995,11.373703,-3.806089,-15.609817,-9.714339
2.432,26.907919,7.1574717,11.1948185,-4.127445,-15.552825,-9.685608
2.434,26.818676,6.6935086,10.996574,-4.433041,-15.471535,-9.643877
2.436,26.701166,6.2540255,10.778757,-4.7222776,-15.3673,-9.588967
2.438,26.556543,5.839744,10.541491,-4.994688,-15.241571,-9.52064
2.44,26.386238,5.4512873,10.285168,-5.2499433,-15.095812,-9.43862
2.442,26.19184,5.088991,10.010592,-5.487816,-14.931503,-9.3427305
2.444,25.974804,4.753138,9.718641,-5.7081876,-14.750128,-9.232911
2.446,25.736692,4.4437566,9.410507,-5.9110975,-14.553166,-9.10923
2.448,25.479177,4.160897,9.087679,-6.09669,-14.3421545,-8.971913
2.45,25.203985,3.9043906,8.751774,-6.2652197,-14.118587,-8.821319
2.452,24.91275,3.6739733,8.404577,-6.4170146,-13.883962,-8.657904
2.454,24.607237,3.4693584,8.048142,-6.552445,-13.639718,-8.482174
2.456,24.289177,3.2900746,7.684542,-6.6719003,-13.387199,-8.294718
2.458,23.960186,3.1356075,7.315979,-6.775796,-13.1275625,-8.09615
2.46,23.62192,3.0053315,6.944668,-6.86454,-12.86174,-7.887047
2.462,23.275726,2.8987105,6.572756,-6.938523,-12.590389,-7.667982
2.464,22.923475,2.814966,6.2023582,-6.998067,-12.313846,-7.439591
2.466,22.566702,2.7532725,5.8355794,-7.0434766,-12.0321455,-7.202572
2.468,22.206982,2.7128322,5.4742537,-7.0750504,-11.745026,-6.957696
2.47,21.84573,2.6926703,5.1201763,-7.0930743,-11.45201,-6.705895
2.472,21.484428,2.6916666,4.7749157,-7.097801,-11.152417,-6.448246
2.474,21.124308,2.7087245,4.439552,-7.0895333,-10.84543,-6.1859546
2.476,20.766829,2.7424874,4.115084,-7.0685654,-10.530163,-5.9202986
2.478,20.41324,2.7914476,3.8025064,-7.0352035,-10.205746,-5.652588
2.48,20.064571,2.8544202,3.502214,-6.989753,-9.871325,-5.3840895
2.482,19.722075,2.9303083,3.2146177,-6.932518,-9.52624,-5.1159754
2.484,19.386824,3.0176435,2.93956,-6.863822,-9.169978,-4.8493214
2.486,19.060146,3.115058,2.677041,-6.7839985,-8.802251,-4.5850453
2.488,18.742853,3.2212143,2.4268446,-6.6934133,-8.423065,-4.323897
2.49,18.435972,3.334599,2.188487,-6.5924606,-8.032691,-4.066508
2.492,18.140236,3.4538994,1.9613729,-6.4816356,-7.6317058,-3.813454
2.494,17.856592,3.5774646,1.7448773,-6.361494,-7.2209625,-3.5652108
2.496,17.585812,3.7040644,1.538415,-6.2326965,-6.801515,-3.3221602
2.498,17.328556,3.8326864,1.341299,-6.096004,-6.3745813,-3.084593
2.5,17.08557,3.9619823,1.1528659,-5.9522047,-5.9414563,-2.8527331
2.502,16.85742,4.0908456,0.972476,-5.802119,-5.503501,-2.6267877
2.504,16.644424,4.2184105,0.7995596,-5.646594,-5.0620546,-2.406928
2.506,16.44694,4.3436995,0.633482,-5.486418,-4.6183963,-2.1932955
2.508,16.265501,4.465994,0.47363472,-5.3223248,-4.1737356,-1.9860085
2.51,16.100353,4.584408,0.31968927,-5.154992,-3.7292204,-1.785156
2.512,15.951492,4.698306,0.17108345,-4.985019,-3.2859128,-1.5908339
2.514,15.818761,4.807151,0.027370453,-4.8129435,-2.8447626,-1.4031291
2.516,15.702203,4.91058,-0.111861706,-4.639269,-2.4066954,-1.2220721
2.518,15.601446,5.008609,-0.24697018,-4.464493,-1.9726119,-1.0476615
2.52,15.516106,5.100972,-0.37837076,-4.289089,-1.5433605,-0.8798692
2.522,15.445855,5.187191,-0.506459,-4.113497,-1.1197677,-0.71866596
2.524,15.3902235,5.26679,-0.6315923,-3.9381893,-0.7026346,-0.564001
2.526,15.348364,5.33968,-0.7539308,-3.7636666,-0.2927817,-0.41580206
2.528,15.319637,5.4057236,-0.8738792,-3.590436,0.10897064,-0.2739967
2.53,15.303169,5.46463,-0.99171114,-3.4190283,0.5018124,-0.13851488
2.532,15.298084,5.516266,-1.1077144,-3.2499752,0.8849625,-0.009277344
2.534,15.303558,5.560643,-1.2221291,-3.0837998,1.2576572,0.11378634
2.536,15.318618,5.597809,-1.3351235,-2.9210043,1.6192074,0.2307545
2.538,15.342133,5.6278763,-1.44684,-2.762055,1.9689602,0.3417157
2.54,15.373035,5.6510005,-1.5571232,-2.60736,2.3063364,0.44676816
2.542,15.410162,5.667161,-1.6660018,-2.45729,2.630824,0.5460317
2.544,15.452682,5.6765213,-1.7733788,-2.3121586,2.9419706,0.6396446
2.546,15.499479,5.6792183,-1.8790877,-2.172216,3.2393875,0.72779214
2.548,15.549533,5.675439,-1.9829342,-2.0376801,3.522759,0.8106787
2.55,15.601801,5.6655016,-2.0848057,-1.9087073,3.7918196,0.88853407
2.552,15.655186,5.6497564,-2.1846635,-1.7854024,4.046353,0.9615998
2.554,15.708923,5.6283894,-2.2822871,-1.6678509,4.286203,1.0301431
2.556,15.7620735,5.6018324,-2.3775198,-1.5560956,4.511283,1.0944518
2.558,15.813871,5.570331,-2.4702287,-1.4501214,4.721545,1.1547973
2.56,15.86352,5.5343046,-2.5601,-1.3499069,4.917019,1.2114569
2.562,15.910416,5.494176,-2.6470664,-1.2553873,5.097782,1.2646837
2.564,15.95385,5.4502964,-2.7309804,-1.1664697,5.2639785,1.3147148
2.566,15.993334,5.4030523,-2.8115602,-1.0830418,5.4157906,1.3617471
2.568,16.028416,5.3529263,-2.888752,-1.004972,5.553482,1.4059815
2.57,16.058697,5.300235,-2.9623663,-0.932127,5.6773806,1.4475814
2.572,16.08382,5.245352,-3.0323339,-0.86433375,5.7878604,1.4866905
2.574,16.10357,5.188596,-3.0984528,-0.801447,5.885347,1.5234299
2.576,16.11782,5.1302853,-3.1607847,-0.74331445,5.970311,1.5579168
2.578,16.126358,5.070709,-3.2191482,-0.68975854,6.043276,1.5902469
2.58,16.129099,5.010133,-3.2735043,-0.64059955,6.104802,1.6205164
2.582,16.12596,4.948715,-3.3238916,-0.59565526,6.155464,1.6488204
2.584,16.117159,4.8866925,-3.3703194,-0.5547319,6.1958594,1.6752489
2.586,16.10274,4.82415,-3.412692,-0.51763564,6.226583,1.6999066
2.588,16.082767,4.761297,-3.451241,-0.48417598,6.2482147,1.7228758
2.59,16.057478,4.698241,-3.4860134,-0.4541598,6.261345,1.7442791
2.592,16.027063,4.6350603,-3.5171518,-0.42739815,6.266536,1.7642303
2.594,15.991912,4.571944,-3.5448787,-0.40371865,6.264327,1.7828506
2.596,15.952264,4.508915,-3.5694394,-0.38294852,6.2552185,1.8002701
2.598,15.90851,4.445985,-3.591198,-0.364951,6.2396817,1.8166372
2.6,15.860892,4.383268,-3.6104758,-0.3495897,6.218137,1.8320796
2.602,15.809822,4.3206944,-3.627571,-0.33674222,6.1909685,1.8467454
2.604,15.755652,4.258378,-3.6429117,-0.3262987,6.1585116,1.8607719
2.606,15.698843,4.196247,-3.6569057,-0.31815678,6.121052,1.8742932
2.608,15.63968,4.1343336,-3.66988,-0.31222063,6.0788293,1.8874106
2.61,15.578563,4.072651,-3.6823168,-0.30839872,6.032033,1.900207
2.612,15.5158825,4.0111938,-3.6945186,-0.30660313,5.980812,1.912766
2.614,15.451999,3.9499404,-3.7069726,-0.3067475,5.925258,1.9251374
2.616,15.387289,3.888901,-3.7201009,-0.30874902,5.8654337,1.9373649
2.618,15.32203,3.8281214,-3.7342422,-0.31254864,5.801377,1.949444
2.62,15.256626,3.7675092,-3.749965,-0.3180797,5.7330885,1.9613729
2.622,15.191445,3.7070673,-3.7676096,-0.32528502,5.660565,1.9731199
2.624,15.126705,3.6466396,-3.787584,-0.33412468,5.58382,1.9846579
2.626,15.062484,3.5864015,-3.8101385,-0.34456086,5.502884,1.9959502
2.628,14.999255,3.5262618,-3.8359017,-0.35654312,5.4178095,2.0069795
2.63,14.937397,3.4662077,-3.8652825,-0.37001193,5.328682,2.017727
2.632,14.876867,3.4063125,-3.898632,-0.3849225,5.235614,2.0281734
2.634,14.817779,3.3466115,-3.936246,-0.4011942,5.1387587,2.0383077
2.636,14.760375,3.287157,-3.9785151,-0.41874173,5.0382986,2.0481272
2.638,14.704791,3.2279224,-4.0256124,-0.43746892,4.9344373,2.0576348
2.64,14.6512165,3.1690893,-4.077676,-0.45726198,4.827379,2.0668182
2.642,14.599797,3.1108685,-4.134742,-0.4780026,4.717332,2.0756812
2.644,14.550548,3.0533357,-4.197035,-0.49956238,4.6044884,2.084199
2.646,14.503382,2.9966817,-4.2642994,-0.52181816,4.4890337,2.092363
2.648,14.458425,2.9412603,-4.336491,-0.54464674,4.3711414,2.1001658
2.65,14.4157915,2.8873045,-4.4136167,-0.56791484,4.2509766,2.1076012
2.652,14.375436,2.8351867,-4.4953012,-0.5914781,4.128697,2.1146853
2.654,14.33728,2.7852473,-4.5811067,-0.61518604,4.0044446,2.1214774
2.656,14.301395,2.737914,-4.6705904,-0.63887167,3.8783941,2.128069
2.658,14.267518,2.693646,-4.7631893,-0.6623752,3.7507267,2.1345549
2.66,14.23571,2.6527503,-4.858308,-0.6855235,3.6216555,2.1410813
2.662,14.205717,2.6158652,-4.9551597,-0.7081241,3.4914317,2.1478329
2.664,14.177312,2.5833821,-5.052946,-0.72999835,3.3603327,2.1549678
2.666,14.150451,2.555564,-5.1507897,-0.7509639,3.228651,2.162636
2.668,14.125062,2.5329468,-5.2477503,-0.7708469,3.0966904,2.1710017
2.67,14.100921,2.515933,-5.3428354,-0.7894774,2.964769,2.1802084
2.672,14.077728,2.504832,-5.4350286,-0.8066911,2.8332038,2.1903827
2.674,14.055538,2.4999416,-5.5232,-0.8223616,2.702318,2.2015872
2.676,14.033869,2.5015082,-5.6063976,-0.8363606,2.572372,2.2138643
2.678,14.012716,2.509668,-5.6834946,-0.8485739,2.4436219,2.227208
2.68,13.991903,2.5244849,-5.7535543,-0.8589132,2.3162816,2.2415793
2.682,13.971429,2.546058,-5.81558,-0.86730903,2.1905196,2.2569153
2.684,13.95105,2.5743766,-5.868741,-0.87369615,2.0664754,2.2731476
2.686,13.930623,2.609431,-5.9121304,-0.8780245,1.9442394,2.290207
2.688,13.910054,2.6510713,-5.945096,-0.8802759,1.8238752,2.3080277
2.69,13.889323,2.6991658,-5.967052,-0.8804222,1.7054327,2.3265634
2.692,13.868397,2.7534404,-5.977399,-0.8784396,1.5889611,2.3457594
2.694,13.847203,2.8135753,-5.975712,-0.87431383,1.4744835,2.3655536
2.696,13.825705,2.8792691,-5.9617853,-0.8680227,1.3620381,2.3859327
2.698,13.803794,2.950181,-5.935276,-0.8595368,1.2516496,2.4068916
2.7,13.781545,3.0258262,-5.896204,-0.8488327,1.1433778,2.4284306
2.702,13.75893,3.1058376,-5.8446016,-0.8358766,1.0372717,2.450527
2.704,13.7357855,3.1897206,-5.7805614,-0.82062227,0.9333778,2.4731815
2.706,13.712101,3.277055,-5.7043586,-0.8030134,0.83174634,2.496388
2.708,13.68789,3.3673756,-5.616289,-0.7829899,0.73244745,2.5201266
2.71,13.663167,3.460224,-5.5169115,-0.76047343,0.63551676,2.544385
2.712,13.637944,3.5551414,-5.4067087,-0.73536676,0.5409981,2.56917
2.714,13.612149,3.6515658,-5.2864094,-0.70756423,0.4489553,2.5944877
2.716,13.585767,3.7491703,-5.1566978,-0.67696303,0.35942984,2.620315
2.718,13.558773,3.8473935,-5.018417,-0.6434588,0.27247953,2.646649
2.72,13.531204,3.9457645,-4.872427,-0.6069567,0.18817365,2.6734548
2.722,13.503026,4.043783,-4.719785,-0.56736064,0.10656893,2.7006512
2.724,13.474328,4.1410174,-4.561303,-0.52458537,0.027711391,2.7281284
2.726,13.445038,4.236909,-4.398113,-0.47856772,-0.04837227,2.7557466
2.728,13.415257,4.331045,-4.2312984,-0.4292465,-0.12166202,2.7833576
2.73,13.384791,4.423149,-4.0619087,-0.37658855,-0.19213247,2.8107567
2.732,13.353745,4.512761,-3.8910089,-0.32058585,-0.25978792,2.837758
2.734,13.322127,4.59966,-3.7197847,-0.2612437,-0.3246348,2.864173
2.736,13.290015,4.683502,-3.5493288,-0.1985949,-0.3866787,2.8898208
2.738,13.257299,4.764118,-3.3804908,-0.13270502,-0.44591963,2.9145584
2.74,13.223976,4.8413773,-3.2143526,-0.06365776,-0.5023587,2.9382982
2.742,13.190243,4.91517,-3.051785,0.008444846,-0.55598044,2.9610028
2.744,13.156145,4.985475,-2.8936229,0.08345015,-0.6067755,2.982684
2.746,13.121591,5.052387,-2.7407732,0.16119477,-0.6547388,3.003408
2.748,13.086533,5.116067,-2.5938797,0.2414921,-0.6998439,3.0232916
2.75,13.051002,5.176654,-2.4536185,0.32413235,-0.7420902,3.042438
2.752,13.015085,5.234277,-2.320482,0.4088835,-0.7814758,3.060975
2.754,12.978894,5.289234,-2.194685,0.4955133,-0.81803656,3.0790234
2.756,12.942474,5.3418274,-2.0767102,0.5837677,-0.85181856,3.096706
2.758,12.905788,5.392228,-1.966527,0.6733607,-0.8829169,3.114081
2.76,12.868862,5.4408264,-1.8640771,0.7640055,-0.91146016,3.131169
2.762,12.831886,5.487929,-1.7692876,0.8554303,-0.9376108,3.1479616
2.764,12.794832,5.5337696,-1.682189,0.9473468,-0.9615574,3.1643848
2.766,12.757836,5.5787,-1.6024516,1.0394748,-0.98350286,3.1803322
2.768,12.721147,5.6230116,-1.5296748,1.1315356,-1.003674,3.1956723
2.77,12.684712,5.6669054,-1.4634223,1.223247,-1.0222899,3.2102666
2.772,12.648799,5.710397,-1.4032397,1.3143433,-1.0395668,3.2239966
2.774,12.613632,5.75381,-1.348556,1.4045786,-1.0556983,3.2367702
2.776,12.579152,5.7972603,-1.2988193,1.4937032,-1.0708749,3.248521
2.778,12.545383,5.840679,-1.2533808,1.581468,-1.0852845,3.2592316
2.78,12.512526,5.883997,-1.211689,1.6676531,-1.0990961,3.268931
2.782,12.480794,5.9272943,-1.1729708,1.7520562,-1.1124879,3.2776575
2.784,12.450059,5.970481,-1.1366332,1.834496,-1.1256226,3.2854824
2.786,12.420693,6.0135694,-1.1019988,1.9148176,-1.1386607,3.2924612
2.788,12.392659,6.056452,-1.0684197,1.9929003,-1.1517593,3.2986536
2.79,12.365953,6.0991573,-1.0352874,2.0686545,-1.1650412,3.3040903
2.792,12.340613,6.141567,-1.0019946,2.1420422,-1.1786003,3.3087997
2.794,12.316726,6.183643,-0.96808386,2.213067,-1.1924818,3.3127813
2.796,12.29434,6.225404,-0.9330883,2.281753,-1.2066945,3.3160365
2.798,12.273421,6.2667885,-0.8965697,2.3481908,-1.2211869,3.3185802
2.8,12.253988,6.3077335,-0.8581524,2.4124677,-1.2358532,3.3204393
2.802,12.236056,6.3484735,-0.8176656,2.4747255,-1.2505418,3.321653
2.804,12.219558,6.38885,-0.7749281,2.5351124,-1.2650759,3.322286
2.806,12.204443,6.429084,-0.7298212,2.5937915,-1.2791909,3.3224475
2.808,12.190898,6.4691854,-0.682498,2.650892,-1.2927172,3.3222191
2.81,12.178667,6.5092793,-0.63286686,2.7065635,-1.3053812,3.3217113
2.812,12.16783,6.5494394,-0.5812311,2.7609289,-1.3169394,3.321035
2.814,12.158401,6.5897293,-0.52773714,2.8140895,-1.327181,3.320284
2.816,12.15052,6.6303153,-0.47286272,2.866123,-1.3359271,3.319519
2.818,12.144016,6.671231,-0.41684866,2.9170837,-1.3430464,3.3187861
2.82,12.138878,6.712634,-0.3601055,2.9670146,-1.3484784,3.3180995
2.822,12.135069,6.7545543,-0.3031726,3.0159316,-1.3522189,3.317452
2.824,12.132671,6.797179,-0.24644232,3.063846,-1.3543296,3.3168404
2.826,12.1317005,6.8404975,-0.19044304,3.1107507,-1.3549415,3.3162234
2.828,12.132168,6.8845963,-0.13572454,3.156622,-1.3542597,3.3155794
2.83,12.134153,6.929612,-0.08276796,3.2014294,-1.3525138,3.3149037
2.832,12.13763,6.975603,-0.031883717,3.2451563,-1.3499786,3.3141947
2.834,12.142627,7.022608,0.016383648,3.2877655,-1.3469738,3.3134613
2.836,12.149218,7.0707264,0.061690807,3.3292265,-1.3438137,3.312736
2.838,12.157319,7.1199164,0.10363102,3.3695066,-1.3408445,3.3120499
2.84,12.16711,7.170286,0.14199114,3.4085755,-1.338403,3.3114285
2.842,12.178448,7.2219415,0.17647076,3.446409,-1.3368272,3.3108847
2.844,12.191433,7.274741,0.20705128,3.4829702,-1.336462,3.3104217
2.846,12.205987,7.328808,0.23350191,3.5182145,-1.3376515,3.309989
2.848,12.221964,7.384057,0.25584316,3.552112,-1.3407023,3.309546
2.85,12.239398,7.4405823,0.2741289,3.584636,-1.3459151,3.3090248
2.852,12.258119,7.4982758,0.288404,3.6157327,-1.3535749,3.3083262
2.854,12.278006,7.5572705,0.29886627,3.6453605,-1.3639323,3.3073719
2.856,12.298818,7.617502,0.30575657,3.6734831,-1.3772095,3.306083
2.858,12.320492,7.678913,0.3093357,3.700059,-1.3935955,3.304387
2.86,12.342796,7.74148,0.31004286,3.7250464,-1.4132973,3.3022058
2.862,12.365376,7.805209,0.30826235,3.7484114,-1.4364195,3.2995296
2.864,12.387956,7.8701596,0.30443716,3.7701042,-1.4631373,3.2963102
2.866,12.410374,7.93633,0.29915094,3.7900832,-1.4935827,3.292544
2.868,12.432193,8.003869,0.29288054,3.8083067,-1.5278912,3.2882192
2.87,12.452986,8.0728035,0.28630495,3.824728,-1.5661832,3.2833533
2.872,12.472469,8.143268,0.27999687,3.8393166,-1.608578,3.2779655
2.874,12.49012,8.215408,0.27474737,3.8520455,-1.6551728,3.2720737
2.876,12.505513,8.289396,0.27123642,3.862909,-1.7060571,3.2657073
2.878,12.518282,8.365377,0.2702155,3.8719053,-1.7612981,3.2589226
2.88,12.528018,8.443791,0.27231073,3.8790503,-1.8209269,3.2517905
2.882,12.534264,8.524891,0.2783823,3.8843858,-1.884934,3.2444072
2.884,12.536559,8.608872,0.28906012,3.8879666,-1.9532728,3.236887
2.886,12.534528,8.696235,0.3050704,3.889864,-2.0258636,3.2293725
2.888,12.527892,8.787411,0.32706022,3.8901682,-2.102586,3.2220187
2.89,12.516175,8.882795,0.3557315,3.8889875,-2.1832826,3.214997
2.892,12.499075,8.982649,0.3916068,3.8864412,-2.2677486,3.2084708
2.894,12.476384,9.087499,0.43529463,3.882661,-2.355765,3.2025824
2.896,12.447668,9.197633,0.48725843,3.8777797,-2.4470656,3.1974492
2.898,12.412649,9.313382,0.54792786,3.8719637,-2.5413685,3.1931598
2.9,12.371238,9.435009,0.6176591,3.8653598,-2.6383624,3.1897748
2.902,12.323234,9.562799,0.6967199,3.8581204,-2.7377453,3.187308
2.904,12.268533,9.696924,0.7853823,3.8504012,-2.839177,3.1857374
2.906,12.206987,9.837419,0.8837619,3.842348,-2.9423275,3.1850238
2.908,12.138571,9.984536,0.9918945,3.8340971,-3.0468454,3.1850994
2.91,12.063245,10.138157,1.1098554,3.8257787,-3.1523798,3.1858854
2.912,11.98092,10.298217,1.2375901,3.8175104,-3.2585678,3.1873105
2.914,11.891817,10.464581,1.3750105,3.8094206,-3.365023,3.1893086
2.916,11.795985,10.636955,1.5220339,3.8016276,-3.4713433,3.1918063
2.918,11.693407,10.815056,1.6784611,3.7942405,-3.5771208,3.1947536
2.92,11.584395,10.998574,1.8438468,3.7873719,-3.6819003,3.198119
2.922,11.468964,11.187076,2.0180354,3.7811494,-3.7851987,3.2018936
2.924,11.347411,11.3802,2.2005374,3.7757065,-3.8865242,3.2060907
2.926,11.219847,11.577302,2.3910186,3.771183,-3.9853497,3.2107487
2.928,11.086718,11.777956,2.5889254,3.7677302,-4.0811377,3.2159286
2.93,10.94838,11.981471,2.7938323,3.765504,-4.1733475,3.2217114
2.932,10.805194,12.187369,3.005077,3.7646627,-4.2614255,3.2281756
2.934,10.657326,12.395023,3.222197,3.7653785,-4.34484,3.235409
2.936,10.505151,12.603767,3.4446228,3.767812,-4.4230576,3.2434878
2.938,10.349248,12.812944,3.6716733,3.772099,-4.495598,3.2524638
2.94,10.189972,13.021893,3.9028392,3.7783751,-4.5620017,3.262373
2.942,10.027837,13.230035,4.137335,3.786733,-4.621842,3.2732172
2.944,9.863235,13.436679,4.3746166,3.7972448,-4.6747475,3.2849677
2.946,9.696824,13.641169,4.6141014,3.8099527,-4.7204113,3.2975795
2.948,9.5289545,13.842867,4.8552117,3.82487,-4.758572,3.3109934
2.95,9.36024,14.04109,5.097246,3.8419776,-4.7890205,3.3251207
2.952,9.19116,14.235216,5.339613,3.8612366,-4.8116074,3.3398654
2.954,9.022258,14.424766,5.581723,3.882596,-4.826241,3.3551207
2.956,8.854015,14.609129,5.822971,3.9059932,-4.8328605,3.3707793
2.958,8.686885,14.7878065,6.0628486,3.9313629,-4.831451,3.3867545
2.96,8.521451,14.960077,6.300871,3.9586298,-4.8220134,3.4029453
2.962,8.3581505,15.125657,6.5364385,3.9877167,-4.804596,3.4192584
2.964,8.197235,15.283895,6.769132,4.0185018,-4.7792764,3.4356017
2.966,8.039191,15.434374,6.9985514,4.050866,-4.746173,3.451902
2.968,7.8841405,15.576914,7.2242517,4.084676,-4.705422,3.468099
2.97,7.732254,15.711071,7.445823,4.1197896,-4.6571455,3.4841657
2.972,7.583801,15.836673,7.6630034,4.156073,-4.6014843,3.500093
2.974,7.438742,15.953365,7.8753505,4.19341,-4.5385776,3.515889
2.976,7.2969837,16.060942,8.082557,4.231689,-4.468546,3.5315936
2.978,7.1586185,16.159222,8.284366,4.2708097,-4.3914948,3.5472798
2.98,7.0234127,16.248108,8.480456,4.3106813,-4.3074903,3.5630417
2.982,6.891071,16.327444,8.670552,4.3512177,-4.216579,3.5789921
2.984,6.7614374,16.397266,8.854464,4.3923078,-4.1187887,3.59524
2.986,6.63413,16.457417,9.031851,4.4338245,-4.0141554,3.6119215
2.988,6.5086308,16.507946,9.202435,4.4755936,-3.902724,3.6291614
2.99,6.3846965,16.548649,9.366079,4.517407,-3.784604,3.6470625
2.992,6.261868,16.579557,9.5225,4.559025,-3.6599183,3.6657019
2.994,6.139697,16.60056,9.671438,4.600155,-3.5288706,3.6850953
2.996,6.0179005,16.611517,9.812798,4.640481,-3.3917503,3.7052011
2.998,5.8959656,16.612335,9.946371,4.67966,-3.248935,3.7258868
3,5.773532,16.602911,10.071985,4.7172985,-3.100882,3.7469234
3.002,5.650318,16.583143,10.189524,4.752976,-2.948157,3.7680125
3.004,5.5260944,16.552795,10.298738,4.7862177,-2.7914572,3.7887857
3.006,5.4006014,16.511818,10.399683,4.816492,-2.6315951,3.8088012
3.008,5.273717,16.460123,10.492252,4.8432345,-2.4695082,3.8276215
3.01,5.14521,16.397606,10.5765295,4.8657985,-2.3062782,3.8447905
3.012,5.015038,16.32417,10.652631,4.883517,-2.1431355,3.8598711
3.014,4.883177,16.23979,10.720669,4.895694,-1.9814143,3.8724713
3.016,4.7496023,16.144613,10.780946,4.9016404,-1.8225462,3.8822293
3.018,4.6144505,16.03857,10.833804,4.9007072,-1.6680119,3.8888545
3.02,4.477668,15.92194,10.879599,4.892283,-1.5193034,3.8920913
3.022,4.339486,15.794785,10.91889,4.875859,-1.3779106,3.8917398
3.024,4.1997786,15.6575365,10.9524145,4.851033,-1.2452533,3.8876274
3.026,4.0588446,15.510465,10.98064,4.817522,-1.1226135,3.879638
3.028,3.916743,15.353924,11.004447,4.775187,-1.011101,3.8676972
3.03,3.773653,15.188418,11.024661,4.7240496,-0.91161597,3.85176
3.032,3.6298525,15.01442,11.041847,4.66428,-0.8248186,3.8318186
3.034,3.4853265,14.832365,11.056782,4.596195,-0.7511418,3.807907
3.036,3.3403149,14.642966,11.070162,4.5202312,-0.69069636,3.7800953
3.038,3.1948571,14.446763,11.0826645,4.4369583,-0.6433302,3.7484965
3.04,3.0490522,14.24448,11.094866,4.347027,-0.6086118,3.7132435
3.042,2.902969,14.036722,11.107285,4.25116,-0.58583045,3.6745062
3.044,2.7568111,13.824049,11.120014,4.150127,-0.5740217,3.632499
3.046,2.6107593,13.607225,11.133282,4.044706,-0.57204735,3.5874624
3.048,2.4647744,13.386978,11.147251,3.9356728,-0.5785959,3.5396793
3.05,2.318854,13.16393,11.161737,3.8237653,-0.5922657,3.489452
3.052,2.1732216,12.938478,11.176659,3.7096705,-0.6116153,3.4371107
3.054,2.0280058,12.71125,11.1916685,3.5940087,-0.6352228,3.3830109
3.056,1.8830919,12.482728,11.206452,3.4773273,-0.6617354,3.3274882
3.058,1.738802,12.2533655,11.220601,3.3600821,-0.68989336,3.2708812
3.06,1.594924,12.023537,11.233786,3.2426512,-0.7185887,3.2135043
3.062,1.4517827,11.793573,11.245478,3.1253326,-0.74685574,3.1556268
3.064,1.3091841,11.563818,11.255228,3.0083904,-0.773878,3.0974936
3.066,1.167239,11.334446,11.262697,2.8920128,-0.79898465,3.0393157
3.068,1.0261104,11.105696,11.267448,2.7763717,-0.82166386,2.981263
3.07,0.8857045,10.877874,11.269101,2.6616113,-0.8415201,2.9234667
3.072,0.7460911,10.650948,11.267417,2.5478656,-0.8582611,2.866008
3.074,0.60739565,10.425161,11.262169,2.4352822,-0.87168205,2.808931
3.076,0.46950912,10.200518,11.253322,2.3239894,-0.8816393,2.7522695
3.078,0.33243465,9.976971,11.240835,2.2141428,-0.8880522,2.696044
3.08,0.19632483,9.754618,11.224801,2.1059246,-0.8909054,2.6402555
3.082,0.06100607,9.533386,11.205326,1.9995065,-0.890222,2.5849142
3.084,-0.07350874,9.313405,11.182817,1.8950818,-0.8860774,2.5300274
3.086,-0.20715332,9.0945835,11.157478,1.7928154,-0.8785999,2.4755926
3.088,-0.34006357,8.876908,11.129725,1.6928799,-0.86796,2.4216065
3.09,-0.47214174,8.660391,11.099887,1.59543,-0.854411,2.3680584
3.092,-0.6035266,8.444988,11.068435,1.5005863,-0.83823526,2.3149228
3.094,-0.73428535,8.23073,11.035759,1.4084413,-0.81974465,2.2621572
3.096,-0.8644037,8.017648,11.002324,1.3190572,-0.7992975,2.209724
3.098,-0.9939103,7.8058267,10.968534,1.2324811,-0.77724737,2.157578
3.1,-1.1229043,7.595337,10.934835,1.1487317,-0.7539011,2.105703
3.102,-1.2513566,7.3862953,10.901442,1.0678115,-0.7295413,2.05409
3.104,-1.3793097,7.178895,10.868935,0.98973,-0.7043903,2.0027792
3.106,-1.5068054,6.973157,10.837374,0.9144878,-0.67859554,1.9518502
3.108,-1.6337466,6.7692623,10.807095,0.8420936,-0.65222776,1.9013941
3.11,-1.7599998,6.5673113,10.77821,0.77256393,-0.6252984,1.8515395
3.112,-1.8857284,6.3675885,10.750984,0.70591795,-0.5977489,1.8024259
3.114,-2.0108514,6.1701965,10.7254715,0.64216924,-0.56948483,1.7541952
3.116,-2.135261,5.9752135,10.70178,0.5813287,-0.5403851,1.7069703
3.118,-2.2589297,5.782913,10.679758,0.5234066,-0.51031387,1.6608536
3.12,-2.3816772,5.5933933,10.659405,0.46842045,-0.4791411,1.6159154
3.122,-2.5034583,5.4067492,10.640528,0.41636696,-0.44673425,1.5721989
3.124,-2.6241603,5.223111,10.623032,0.36724293,-0.4129888,1.5297136
3.126,-2.7435892,5.042475,10.60667,0.321048,-0.3778382,1.4884326
3.128,-2.8617518,4.865034,10.59114,0.27776656,-0.34121412,1.4483135
3.13,-2.9784148,4.6907806,10.576129,0.23738633,-0.30308864,1.4092786
3.132,-3.093539,4.5198073,10.561269,0.19987944,-0.26344916,1.3712523
3.134,-3.2068007,4.3520503,10.546139,0.16521391,-0.22229025,1.3341475
3.136,-3.318292,4.1876383,10.530534,0.1333471,-0.17963326,1.2978749
3.138,-3.4278164,4.0266643,10.514,0.10423139,-0.13552147,1.2623754
3.14,-3.5353072,3.8689415,10.496195,0.077827364,-0.090001106,1.227586
3.142,-3.640737,3.7145855,10.47686,0.054074436,-0.043151945,1.1934623
3.144,-3.7438393,3.5636308,10.455715,0.032909155,0.004928708,1.1599704
3.146,-3.8447614,3.4161065,10.432482,0.014265239,0.05412945,1.1270919
3.148,-3.9431865,3.2719457,10.406748,-0.0019328296,0.10429761,1.0948272
3.15,-4.0391245,3.1311707,10.378244,-0.015781403,0.15527558,1.0631713
3.152,-4.1324816,2.9937456,10.34687,-0.02738294,0.20686099,1.0321223
3.154,-4.223078,2.8598542,10.31254,-0.036851585,0.25883752,1.0016767
3.156,-4.3109884,2.7294679,10.275018,-0.044320226,0.3109716,0.9718455
3.158,-4.3960834,2.6025882,10.234215,-0.04993382,0.36300802,0.9426111
3.16,-4.478215,2.4792647,10.190096,-0.053844392,0.41467762,0.91395766
3.162,-4.5575438,2.3597357,10.142639,-0.056206554,0.4657018,0.88586915
3.164,-4.633876,2.243986,10.09182,-0.057182252,0.5158076,0.8583058
3.166,-4.707118,2.132026,10.037628,-0.056930155,0.56470203,0.8312384
3.168,-4.7772827,2.0239081,9.980177,-0.05560431,0.61212176,0.80460745
3.17,-4.84427,1.9196875,9.919505,-0.053352624,0.6578011,0.77835524
3.172,-4.908043,1.8193551,9.855788,-0.05031982,0.70149785,0.752414
3.174,-4.9684525,1.7229193,9.789254,-0.04663992,0.7429992,0.7267129
3.176,-5.0254583,1.6303155,9.720039,-0.04242745,0.7821221,0.70117635
3.178,-5.0790343,1.5415334,9.648376,-0.03778109,0.8187134,0.6757325
3.18,-5.1290846,1.4564596,9.574508,-0.032810092,0.8526658,0.65032655
3.182,-5.1755085,1.3750095,9.498681,-0.027586699,0.883899,0.62489146
3.184,-5.2182736,1.2971306,9.421113,-0.022177726,0.91238177,0.59937334
3.186,-5.2573433,1.2227434,9.342025,-0.016637027,0.9381417,0.57372814
3.188,-5.292589,1.1516689,9.261696,-0.01100719,0.96123433,0.5479253
3.19,-5.323869,1.083706,9.180299,-0.005316466,0.9817456,0.5219397
3.192,-5.3511744,1.0188208,9.098146,0.00040191412,0.9997903,0.49572998
3.194,-5.3744698,0.95677054,9.015394,0.0061126947,1.0154922,0.46928337
3.196,-5.3937016,0.8976444,8.932304,0.011781871,1.0289781,0.4425746
3.198,-5.408725,0.8411561,8.848984,0.017363936,1.0403738,0.41558376
3.2,-5.4196696,0.7872155,8.765691,0.022815377,1.0497869,0.3882821
3.202,-5.4263816,0.73580253,8.682615,0.028087974,1.0573056,0.3606321
3.204,-5.4287868,0.686658,8.5999,0.03312649,1.0629977,0.33261147
3.206,-5.426892,0.6398307,8.517729,0.03787771,1.066926,0.30419815
3.208,-5.4207115,0.5952555,8.436232,0.042294785,1.0691268,0.27535155
3.21,-5.410327,0.55289364,8.355558,0.04634039,1.0696414,0.2460443
3.212,-5.39562,0.5126244,8.275931,0.04998058,1.0685103,0.21626863
3.214,-5.376681,0.4744779,8.197367,0.05319214,1.0657711,0.18600991
3.216,-5.353627,0.4385122,8.120184,0.055947065,1.0614704,0.1552611
3.218,-5.32654,0.40472078,8.044417,0.058228493,1.0556558,0.12403795
3.22,-5.295412,0.37309897,7.970312,0.060025193,1.0483962,0.09234759
3.222,-5.2604175,0.34371853,7.8979096,0.061321653,1.0397499,0.06021616
3.224,-5.221611,0.31670618,7.8274627,0.062092118,1.0297868,0.027686417
3.226,-5.1790457,0.29208243,7.7590547,0.062315688,1.0185626,-0.005219519
3.228,-5.1328654,0.2698971,7.6930084,0.061970428,1.0061407,-0.038464397
3.23,-5.0832396,0.25029814,7.6293316,0.061041735,0.99257624,-0.07201265
3.232,-5.0302014,0.23337173,7.5683656,0.05950559,0.97792214,-0.10584466
3.234,-4.9740233,0.21920252,7.5101576,0.05736167,0.96224344,-0.13994142
3.236,-4.9147444,0.20787835,7.4549427,0.054591052,0.94559056,-0.17429061
3.238,-4.8525443,0.19952846,7.402874,0.0511927,0.9280277,-0.20889083
3.24,-4.7874694,0.19416916,7.354157,0.047168,0.9095999,-0.24375537
3.242,-4.7197027,0.19190657,7.3089647,0.042514794,0.89037794,-0.27889785
3.244,-4.649424,0.19281733,7.2673693,0.037244022,0.87044114,-0.3143339
3.246,-4.5765877,0.19690168,7.2294865,0.031370595,0.8498818,-0.35007828
3.248,-4.5013547,0.20415092,7.1955028,0.024900055,0.8287866,-0.38616997
3.25,-4.4238706,0.21473205,7.165513,0.017846595,0.8072661,-0.42261446
3.252,-4.3441577,0.22851026,7.139531,0.010219935,0.785424,-0.45943144
3.254,-4.2623124,0.24555826,7.117574,0.0020295307,0.76337236,-0.49662668
3.256,-4.1782184,0.2657646,7.099759,-0.0067119896,0.741235,-0.5341995
3.258,-4.0921674,0.28922212,7.0860395,-0.01599291,0.7191294,-0.5721529
3.26,-4.0040407,0.3158661,7.076499,-0.02581112,0.69715685,-0.61048007
3.262,-3.9138026,0.34569108,7.071001,-0.03615825,0.6754251,-0.64914894
3.264,-3.8215933,0.37854266,7.0695643,-0.047020122,0.65401936,-0.6881286
3.266,-3.7273235,0.4144721,7.072086,-0.05838631,0.6330031,-0.72737813
3.268,-3.6311553,0.4534496,7.0783954,-0.070235066,0.6124495,-0.7668488
3.27,-3.5329385,0.49549294,7.0884094,-0.082548864,0.5924,-0.8064766
3.272,-3.4326515,0.54048455,7.1018963,-0.09530668,0.57289255,-0.8462072
3.274,-3.3303149,0.58836055,7.1187344,-0.10848691,0.5539402,-0.88598084
3.276,-3.225975,0.6393113,7.138733,-0.12206131,0.5355615,-0.9257362
3.278,-3.1194851,0.6932006,7.161639,-0.13600802,0.5177562,-0.96544373
3.28,-3.0108314,0.74996495,7.187266,-0.15030055,0.5005319,-1.0050712
3.282,-2.900124,0.80970335,7.2153306,-0.16491231,0.48387098,-1.0446124
3.284,-2.7872982,0.872421,7.2456207,-0.17983028,0.46775275,-1.0840728
3.286,-2.67236,0.938095,7.277956,-0.19502772,0.45216477,-1.1234636
3.288,-2.5552793,1.0068316,7.312072,-0.21048257,0.43707684,-1.1628083
3.29,-2.4361448,1.0785043,7.3478155,-0.22617586,0.42247012,-1.2021241
3.292,-2.3149204,1.1532221,7.384818,-0.24209295,0.40832835,-1.2414268
3.294,-2.1916437,1.2308536,7.42293,-0.25821528,0.39464816,-1.2807157
3.296,-2.0663645,1.3113981,7.4619617,-0.2745297,0.38141167,-1.3199857
3.298,-1.9391828,1.3948467,7.5015903,-0.2910251,0.36861205,-1.3592188
3.3,-1.8102376,1.4811678,7.541666,-0.3076946,0.3562335,-1.398388
3.302,-1.6795838,1.5702698,7.5819144,-0.32452548,0.34427387,-1.4374492
3.304,-1.5472016,1.6620252,7.622081,-0.34151244,0.33271113,-1.4763792
3.306,-1.413302,1.7562672,7.6619954,-0.35866222,0.3215258,-1.5151272
3.308,-1.2780335,1.8529376,7.7014904,-0.37597656,0.31068835,-1.5536745
3.31,-1.1414247,1.9518859,7.7403097,-0.39345822,0.3001544,-1.5920011
3.312,-1.0035477,2.0528605,7.778182,-0.4111178,0.2898861,-1.6301092
3.314,-0.8646364,2.1557374,7.8150415,-0.42897183,0.2798246,-1.6680123
3.316,-0.7248466,2.2602131,7.850642,-0.44705093,0.26990712,-1.7057436
3.318,-0.5842118,2.365982,7.8847923,-0.4653963,0.26006716,-1.7433611
3.32,-0.44278884,2.4728677,7.917229,-0.48406026,0.25024152,-1.7809284
3.322,-0.30095553,2.5806875,7.9478183,-0.5031127,0.24032623,-1.8185279
3.324,-0.15864062,2.6890802,7.9763546,-0.5226159,0.23023105,-1.8562388
3.326,-0.015973091,2.7977135,8.002646,-0.542659,0.21985042,-1.8941472
3.328,0.12696242,2.9063323,8.026616,-0.5633413,0.20907551,-1.9323344
3.33,0.27004337,3.0146677,8.048015,-0.58475864,0.19778979,-1.9708695
3.332,0.41318607,3.1223319,8.066698,-0.6070016,0.18589455,-2.0098007
3.334,0.55629003,3.2290533,8.082499,-0.6301652,0.17328942,-2.049164
3.336,0.699231,3.3346279,8.09533,-0.6543293,0.15988928,-2.0889728
3.338,0.8420057,3.4387498,8.104934,-0.6795702,0.14562494,-2.1292152
3.34,0.9843564,3.5411108,8.111226,-0.70595044,0.13043702,-2.1698577
3.342,1.1263499,3.6416106,8.114077,-0.73352396,0.11428952,-2.2108464
3.344,1.2679957,3.739939,8.113393,-0.76232934,0.09715289,-2.2521126
3.346,1.4090372,3.8359768,8.109061,-0.79240113,0.079004645,-2.293567
3.348,1.5495787,3.929438,8.100893,-0.8237771,0.059819162,-2.3351204
3.35,1.6893848,4.020304,8.088842,-0.85648686,0.039569974,-2.3766654
3.352,1.8285191,4.1083837,8.072739,-0.8905684,0.018227816,-2.4180987
3.354,1.9669558,4.1935883,8.052538,-0.9260498,-0.004239619,-2.4593203
3.356,2.1046128,4.27576,8.028165,-0.96297306,-0.027884066,-2.500247
3.358,2.2414958,4.3549128,7.9994626,-1.0013747,-0.05274856,-2.5407898
3.36,2.3774898,4.4308753,7.9664445,-1.0413016,-0.07888895,-2.580893
3.362,2.512659,4.5034895,7.929144,-1.0827997,-0.10636258,-2.6205087
3.364,2.6469593,4.572726,7.8874764,-1.1259289,-0.13521206,-2.6596105
3.366,2.780407,4.638436,7.8414145,-1.1707323,-0.1654892,-2.6981862
3.368,2.9129982,4.7004514,7.7911406,-1.217245,-0.19721872,-2.7362652
3.37,3.0446477,4.7586775,7.7365427,-1.2655139,-0.23042363,-2.7738864
3.372,3.1754274,4.8128405,7.677787,-1.3155587,-0.26510876,-2.8110921
3.374,3.3052547,4.8630514,7.614934,-1.367388,-0.30126184,-2.8479354
3.376,3.4342294,4.908949,7.5481477,-1.4210103,-0.3388393,-2.8844407
3.378,3.562502,4.950466,7.4775763,-1.4764239,-0.37778074,-2.9206457
3.38,3.6898603,4.9875536,7.4033623,-1.533603,-0.41800827,-2.9565408
3.382,3.816471,5.020121,7.3256865,-1.5925229,-0.45942557,-2.9920812
3.384,3.9422407,5.0481625,7.2447634,-1.6531441,-0.501928,-3.027199
3.386,4.067342,5.0715384,7.160742,-1.7154393,-0.54539883,-3.0617774
3.388,4.1917243,5.090417,7.0738974,-1.7793713,-0.58973104,-3.0956593
3.39,4.315485,5.10475,6.9844484,-1.8449134,-0.63482463,-3.1286714
3.392,4.4386516,5.1146855,6.892705,-1.912034,-0.6805949,-3.1606076
3.394,4.5613647,5.1203446,6.79882,-1.9807057,-0.7269829,-3.1912594
3.396,4.683678,5.121975,6.7030945,-2.0508988,-0.77396286,-3.2204208
3.398,4.8055553,5.119761,6.60584,-2.1225786,-0.8215149,-3.2479107
3.4,4.9272404,5.114082,6.507362,-2.195713,-0.86967516,-3.2735667
3.402,5.0486574,5.1052656,6.408083,-2.2702522,-0.9184887,-3.2972631
3.404,5.170064,5.0935173,6.308177,-2.3461404,-0.9680222,-3.3189075
3.406,5.291642,5.079267,6.2080345,-2.4233124,-1.0183487,-3.3384497
3.408,5.413434,5.0629396,6.1080523,-2.5016985,-1.0695405,-3.3558712
3.41,5.5354238,5.0449305,6.008524,-2.5812135,-1.1216398,-3.3711786
3.412,5.657859,5.025551,5.9098125,-2.6617718,-1.1746798,-3.3844066
3.414,5.7807517,5.005204,5.8122315,-2.7432775,-1.2286447,-3.3955884
3.416,5.904135,4.9842453,5.7161236,-2.8256407,-1.2834768,-3.404749
3.418,6.028099,4.963134,5.621835,-2.9087563,-1.3390834,-3.411925
3.42,6.152672,4.942132,5.5295877,-2.992521,-1.395309,-3.4171436
3.422,6.277837,4.92156,5.4398093,-3.076827,-1.4519733,-3.4204023
3.424,6.4035892,4.901746,5.3525887,-3.1615572,-1.5088673,-3.4217
3.426,6.5298395,4.8830123,5.2682033,-3.2465963,-1.565755,-3.421028
3.428,6.6566844,4.865597,5.186821,-3.3318067,-1.6223934,-3.4183617
3.43,6.7837844,4.849742,5.108697,-3.417059,-1.6785228,-3.4136918
3.432,6.911203,4.83554,5.0338955,-3.5022087,-1.7338744,-3.4069717
3.434,7.0387354,4.823387,4.9624953,-3.5871189,-1.7881761,-3.39817
3.436,7.166129,4.8134284,4.8945513,-3.6716478,-1.8411564,-3.3872595
3.438,7.29321,4.805743,4.8300924,-3.7556548,-1.8925759,-3.374202
3.44,7.41971,4.800578,4.7691545,-3.8389912,-1.9421732,-3.3589811
3.442,7.545682,4.797949,4.711665,-3.921519,-1.9897022,-3.3415966
3.444,7.670678,4.797879,4.6575212,-4.003087,-2.0349295,-3.322063
3.446,7.794608,4.8005714,4.606646,-4.0835447,-2.0776432,-3.3004208
3.448,7.917186,4.805993,4.558994,-4.1627407,-2.1176233,-3.2767358
3.45,8.038287,4.8140926,4.514389,-4.2405257,-2.15466,-3.2510934
3.452,8.157671,4.8248262,4.4725866,-4.3167396,-2.1885617,-3.2236164
3.454,8.275076,4.8383923,4.4334955,-4.391222,-2.2191174,-3.1944351
3.456,8.390482,4.854612,4.3968687,-4.463821,-2.2461412,-3.1636796
3.458,8.503628,4.8734946,4.362619,-4.534393,-2.2694345,-3.1314855
3.46,8.6144495,4.895003,4.330454,-4.60281,-2.28882,-3.097957
3.462,8.72304,4.9189835,4.300191,-4.668936,-2.304108,-3.06319
3.464,8.829079,4.9453983,4.2715254,-4.7326517,-2.3151293,-3.0272393
3.466,8.932555,4.974152,4.2442923,-4.793849,-2.321722,-2.9901333
3.468,9.033425,5.005182,4.218176,-4.852416,-2.3237307,-2.9518886
3.47,9.131684,5.038554,4.1929026,-4.908261,-2.3210173,-2.9125013
3.472,9.227335,5.0741796,4.168146,-4.9612846,-2.3134387,-2.8719375
3.474,9.320316,5.112032,4.143716,-5.01139,-2.3008997,-2.830151
3.476,9.410627,5.15217,4.1193132,-5.058479,-2.2832966,-2.7871015
3.478,9.498392,5.1947026,4.094598,-5.102462,-2.2605515,-2.7427485
3.48,9.583761,5.239411,4.069358,-5.14324,-2.2326217,-2.6970596
3.482,9.666573,5.286516,4.043298,-5.180738,-2.1994853,-2.6500213
3.484,9.747135,5.3358006,4.0161457,-5.214876,-2.1611543,-2.6016202
3.486,9.825281,5.3874807,3.987664,-5.2456007,-2.117688,-2.5518842
3.488,9.901136,5.4415,3.9575312,-5.2728624,-2.0691414,-2.5008395
3.49,9.974826,5.497868,3.9255154,-5.296637,-2.0156,-2.4485312
3.492,10.046258,5.5565395,3.8914557,-5.316908,-1.9571357,-2.3950067
3.494,10.115497,5.6175356,3.8551273,-5.33368,-1.8938522,-2.34032
3.496,10.182722,5.680695,3.81635,-5.34696,-1.8258485,-2.2845516
3.498,10.247838,5.746023,3.7747428,-5.356761,-1.7532072,-2.2277718
3.5,10.310886,5.813485,3.7303064,-5.363105,-1.6760309,-2.170074
3.502,10.371889,5.882882,3.6828947,-5.3660088,-1.5944251,-2.1115556
3.504,10.430771,5.9541264,3.6323225,-5.3654995,-1.5085009,-2.0523162
3.506,10.487602,6.026992,3.578449,-5.3615823,-1.4183913,-1.9924828
3.508,10.542398,6.101313,3.5211983,-5.3542933,-1.3242377,-1.9322066
3.51,10.595168,6.1768756,3.460501,-5.3436737,-1.2261813,-1.871618
3.512,10.645288,6.2518606,3.3992515,-5.329768,-1.1244081,-1.8108346
3.514,10.693165,6.3274,3.3354142,-5.312628,-1.0190964,-1.7499686
3.516,10.738775,6.403171,3.2690914,-5.292335,-0.9104581,-1.6891273
3.518,10.782108,6.478829,3.2005582,-5.268965,-0.7986939,-1.6284082
3.52,10.823231,6.554105,3.1300976,-5.2425866,-0.68401563,-1.5678886
3.522,10.862095,6.6286592,3.058002,-5.21329,-0.56664723,-1.5076247
3.524,10.898614,6.702285,2.984657,-5.1811433,-0.44681665,-1.447676
3.526,10.932875,6.774687,2.910391,-5.146213,-0.3247353,-1.388098
