Time_s_,Acc_x_m_s_2_,Acc_y_m_s_2_,Acc_z_m_s_2_,Gyro_x_1_s_,Gyro_y_1_s_,Gyro_z_1_s_
0,-1.9716573,0.93824166,3.1665988,0.3790605,-0.32999128,1.0861111
0.002,-1.9516624,0.8712034,3.154164,0.38273796,-0.30868533,1.0852604
0.004,-1.9279351,0.79516304,3.136913,0.38818133,-0.2821245,1.082641
0.006,-1.899822,0.70987046,3.1142616,0.39565858,-0.24967405,1.077966
0.008,-1.8670379,0.6155304,3.085372,0.40537634,-0.21091881,1.0710347
0.01,-1.8284414,0.51206017,3.0503724,0.41745105,-0.16575895,1.0618349
0.012,-1.7843282,0.400077,3.0104253,0.43186745,-0.11450395,1.0505668
0.014,-1.7348278,0.27988756,2.9666743,0.44844437,-0.057965532,1.0376763
0.016,-1.6796696,0.15216357,2.9198973,0.46684098,0.0025715977,1.023835
0.018,-1.6187601,0.018125296,2.8706264,0.48651278,0.0653923,1.0098703
0.02,-1.5523276,-0.121037304,2.8192017,0.50674736,0.128556,0.9966465
0.022,-1.4823511,-0.26329464,2.764267,0.5267009,0.19010487,0.98493344
0.024,-1.4077451,-0.4083851,2.70559,0.5455058,0.24830675,0.9753555
0.026,-1.327984,-0.5560712,2.6426425,0.56239474,0.3018477,0.9683596
0.028,-1.2441294,-0.70483875,2.5748188,0.5770626,0.35099214,0.96415377
0.03,-1.1570992,-0.85289353,2.5017302,0.5888659,0.39421904,0.96253556
0.032,-1.0672394,-0.99826276,2.4227774,0.59768176,0.43186536,0.963284
0.034,-0.9748849,-1.138902,2.337153,0.6035538,0.46450147,0.96615344
0.036,-0.88103455,-1.2729934,2.2439153,0.60673946,0.4929167,0.9709321
0.038,-0.7867619,-1.3989584,2.1422794,0.6076934,0.51804286,0.97744656
0.04,-0.69292516,-1.5158167,2.031222,0.607069,0.54084915,0.98554444
0.042,-0.600002,-1.6228617,1.9097248,0.6056876,0.5623158,0.9950424
0.044,-0.5085076,-1.7197881,1.7765425,0.6044519,0.58339,1.0056466
0.046,-0.41905737,-1.8062384,1.6306084,0.6042354,0.6048875,1.0169904
0.048,-0.33187646,-1.8821061,1.4711044,0.6057557,0.6273979,1.0286155
0.05,-0.24705297,-1.9476576,1.2981046,0.609419,0.65107065,1.0399485
0.052,-0.16467881,-2.003376,1.1121361,0.61524403,0.67547333,1.0503904
0.054,-0.08469182,-2.0498557,0.9140179,0.62282455,0.6996034,1.0594842
0.056,-0.0060192347,-2.0878139,0.7054547,0.6313256,0.72193044,1.0669811
0.058,0.07109654,-2.119152,0.48629513,0.6395658,0.7405387,1.0727555
0.06,0.14685643,-2.1447706,0.25826338,0.6461787,0.7533839,1.076856
0.062,0.22118664,-2.1651702,0.024053944,0.64978504,0.7585752,1.0795505
0.064,0.29406595,-2.180511,-0.21317708,0.64913785,0.75460476,1.0811973
0.066,0.36567706,-2.1910386,-0.44989803,0.6432558,0.7405131,1.08217
0.068,0.43628967,-2.196893,-0.68228126,0.63155496,0.7159865,1.0828215
0.07,0.505944,-2.197973,-0.9065558,0.61389244,0.6813601,1.0835426
0.072,0.5743777,-2.1943655,-1.1198233,0.5906143,0.63753176,1.0847868
0.074,0.64100707,-2.1861672,-1.3204439,0.5624541,0.5857539,1.0870637
0.076,0.7057618,-2.1741076,-1.5073103,0.53039134,0.52748597,1.0908705
0.078,0.76863414,-2.159266,-1.6789552,0.49550605,0.4642096,1.0965829
0.08,0.829742,-2.1420796,-1.8335036,0.45886722,0.39735904,1.1044055
0.082,0.88920397,-2.1228008,-1.9690357,0.4214357,0.32828885,1.1143564
0.084,0.947128,-2.1013165,-2.0839508,0.38407785,0.25826746,1.1262572
0.086,1.0039619,-2.07779,-2.1773655,0.3475824,0.18848526,1.1396705
0.088,1.0601307,-2.0527782,-2.2495363,0.3126335,0.12009892,1.1538379
0.09,1.1156707,-2.0267277,-2.301014,0.27979982,0.05416356,1.1678106
0.092,1.1706533,-2.0004303,-2.331969,0.24958223,-0.008317679,1.1806155
0.094,1.2258489,-1.9738135,-2.3425145,0.22243151,-0.06638198,1.1913897
0.096,1.2816868,-1.9468254,-2.3344817,0.19880445,-0.1191479,1.1994951
0.098,1.3382857,-1.9201927,-2.3106766,0.17918463,-0.16577575,1.204598
0.1,1.3960006,-1.8958435,-2.274275,0.1640284,-0.20543638,1.2066299
0.102,1.4556909,-1.8757355,-2.2281857,0.15369776,-0.237293,1.2057891
0.104,1.5184891,-1.8611239,-2.1746345,0.14843664,-0.26056045,1.2025074
0.106,1.5848532,-1.8523736,-2.1161196,0.14829193,-0.27464688,1.1973813
0.108,1.6545694,-1.8492405,-2.05408,0.15306431,-0.27924278,1.191007
0.11,1.7275404,-1.8514831,-1.9895233,0.16230208,-0.27442193,1.1839364
0.112,1.8038293,-1.8588179,-1.9229282,0.17526633,-0.26077607,1.1767068
0.114,1.8831893,-1.8709567,-1.8546189,0.19091423,-0.23955348,1.1696949
0.116,1.9648992,-1.8874819,-1.7849774,0.20789698,-0.21270534,1.1630864
0.118,2.0474253,-1.9078203,-1.7135093,0.22460414,-0.18289734,1.157014
0.12,2.1285448,-1.9312037,-1.6413877,0.23927338,-0.15343373,1.1516066
0.122,2.2087526,-1.957701,-1.5699661,0.25013047,-0.12801349,1.1470354
0.124,2.2867277,-1.9865559,-1.4992923,0.25557286,-0.11034773,1.1435015
0.126,2.3609624,-2.017144,-1.4289385,0.25430092,-0.103791565,1.1410725
0.128,2.4304442,-2.0489461,-1.3579726,0.24538417,-0.111023754,1.13954
0.13,2.493959,-2.0806088,-1.2859783,0.22839648,-0.13371721,1.1385385
0.132,2.5511003,-2.1110787,-1.2113461,0.20343487,-0.17228185,1.137714
0.134,2.599042,-2.1380038,-1.1341332,0.17118251,-0.22578183,1.136765
0.136,2.6358628,-2.1597304,-1.0545985,0.13289557,-0.29195142,1.1353433
0.138,2.6609051,-2.1761873,-0.9729028,0.09025924,-0.3674482,1.1329377
0.14,2.673103,-2.1874874,-0.8892926,0.045163214,-0.4482332,1.1288959
0.142,2.6708734,-2.1938255,-0.80308527,-0.000500232,-0.5300976,1.1226296
0.144,2.6530254,-2.1952317,-0.7145984,-0.04501912,-0.60919905,1.113755
0.146,2.6191204,-2.1911685,-0.6243965,-0.08703342,-0.68255174,1.1021557
0.148,2.5689795,-2.1808593,-0.5331765,-0.12561283,-0.74824077,1.0879325
0.15,2.5023346,-2.1633146,-0.44164854,-0.16030863,-0.8054316,1.0714767
0.152,2.418734,-2.1374648,-0.35093072,-0.19109115,-0.8544509,1.0534734
0.154,2.3186674,-2.1026561,-0.2621325,-0.2181369,-0.89641637,1.0348169
0.156,2.2027264,-2.0587804,-0.17649265,-0.24167237,-0.9328318,1.0164659
0.158,2.071432,-2.0056863,-0.09551654,-0.26191664,-0.96507,0.99940014
0.16,1.9259102,-1.9435192,-0.021618461,-0.27893615,-0.99405724,0.98449785
0.162,1.7677028,-1.8726532,0.04416878,-0.2925562,-1.0200893,0.97236866
0.164,1.5984966,-1.7936933,0.101070724,-0.3022955,-1.0426569,0.96336687
0.166,1.4201264,-1.7071548,0.1476851,-0.30736488,-1.0604279,0.957749
0.168,1.2349273,-1.6136816,0.1828384,-0.30666697,-1.0713714,0.955703
0.17,1.0451256,-1.5140529,0.20519635,-0.29892707,-1.0730063,0.95736647
0.172,0.8531815,-1.4093288,0.21306188,-0.28282675,-1.062644,0.96282816
0.174,0.6612117,-1.3008701,0.2053614,-0.2572093,-1.0376861,0.97211325
0.176,0.47191778,-1.1902809,0.18085186,-0.22135007,-0.9960941,0.9850556
0.178,0.28800562,-1.0791733,0.13824138,-0.17509335,-0.9367551,1.0012369
0.18,0.111649096,-0.9694425,0.07692716,-0.1189037,-0.8595629,1.0200286
0.182,-0.054244816,-0.86308336,-0.0034870896,-0.053797662,-0.7654536,1.0406203
0.184,-0.20676616,-0.76229155,-0.10289699,0.018665195,-0.6563866,1.0618191
0.186,-0.3436336,-0.66895556,-0.22096604,0.09651208,-0.5352598,1.0820986
0.188,-0.46288317,-0.58509886,-0.35729113,0.17753094,-0.40564656,1.0998684
0.19,-0.5627222,-0.5127599,-0.5116531,0.25949422,-0.27158046,1.1138272
0.192,-0.6413355,-0.45338178,-0.68341863,0.34042183,-0.13720244,1.123234
0.194,-0.6968055,-0.4080051,-0.8713505,0.41876242,-0.0063854307,1.1278969
0.196,-0.72775465,-0.37692255,-1.0734701,0.4934832,0.11745593,1.1280825
0.198,-0.7323235,-0.35990852,-1.2868305,0.56400406,0.23139024,1.1244425
0.2,-0.7087282,-0.35672253,-1.508126,0.63008964,0.33305073,1.1179221
0.202,-0.6564795,-0.36652514,-1.7343498,0.6916617,0.42049617,1.109692
0.204,-0.5757588,-0.38910502,-1.9620891,0.7486291,0.49209303,1.1009473
0.206,-0.46681935,-0.42374998,-2.1862686,0.8007801,0.5465946,1.0928178
0.208,-0.32977095,-0.46854877,-2.401388,0.84765995,0.5829758,1.0863303
0.21,-0.16553323,-0.52042556,-2.6026032,0.88856566,0.6004155,1.0823225
0.212,0.023268744,-0.57631814,-2.7869902,0.92270744,0.59834665,1.0813566
0.214,0.23395139,-0.63407004,-2.9504628,0.949221,0.5765606,1.0837046
0.216,0.463529,-0.6923142,-3.0898757,0.96722186,0.5353531,1.0893925
0.218,0.7108939,-0.7500982,-3.2024815,0.9758763,0.47546303,1.0981497
0.22,0.97246695,-0.8051465,-3.286444,0.97451544,0.3980586,1.1093705
0.222,1.240513,-0.85361385,-3.3389473,0.9626734,0.30471048,1.1221607
0.224,1.509198,-0.8943205,-3.3522723,0.94015026,0.19732907,1.1353644
0.226,1.7758026,-0.9252132,-3.323286,0.906988,0.078039944,1.147647
0.228,2.0378318,-0.9424309,-3.256245,0.86348754,-0.050901443,1.1576523
0.23,2.2894902,-0.9436461,-3.149477,0.81026757,-0.18703592,1.164186
0.232,2.524958,-0.9284509,-3.0028005,0.74826556,-0.32775837,1.1663291
0.234,2.741356,-0.89793444,-2.819581,0.67873895,-0.47035432,1.1635689
0.236,2.9355047,-0.85247684,-2.601514,0.6033113,-0.6119789,1.1558208
0.238,3.1038313,-0.79148555,-2.349614,0.5239794,-0.7496931,1.1434369
0.24,3.244465,-0.71559536,-2.0661929,0.44303754,-0.8804912,1.1270514
0.242,3.3570151,-0.62667906,-1.7560618,0.36295518,-1.001534,1.1075398
0.244,3.4413853,-0.52737415,-1.4244046,0.2862637,-1.1102304,1.085973
0.246,3.4976778,-0.41935074,-1.0768186,0.21539134,-1.2041903,1.0634123
0.248,3.5256376,-0.3036542,-0.71880555,0.1523714,-1.2816846,1.0408772
0.25,3.525199,-0.18093908,-0.3551157,0.09876418,-1.3415415,1.0192264
0.252,3.498042,-0.052176714,0.008657485,0.055702925,-1.3828747,0.9990033
0.254,3.4469686,0.08153343,0.36731648,0.023638189,-1.4052837,0.98053974
0.256,3.3750296,0.21827924,0.71520185,0.002519548,-1.4090245,0.9643606
0.258,3.2844026,0.35577834,1.0464642,-0.008077204,-1.3951818,0.95120156
0.26,3.1776395,0.49172175,1.3547889,-0.009256005,-1.3654845,0.94138455
0.262,3.0574307,0.623687,1.635829,-0.0027009845,-1.3216076,0.93486106
0.264,2.9258907,0.75031996,1.8872969,0.009594321,-1.2654107,0.93159235
0.266,2.7854571,0.87107044,2.10827,0.025635123,-1.1990988,0.9317954
0.268,2.6377175,0.98600924,2.2975652,0.043764293,-1.1248722,0.9358105
0.27,2.48519,1.09448,2.4541883,0.06265974,-1.0449307,0.94368094
0.272,2.3297307,1.195601,2.5761197,0.08129895,-0.9615225,0.9551858
0.274,2.1732485,1.2886949,2.6617064,0.09896919,-0.8768779,0.9700869
0.276,2.0174534,1.3730989,2.710924,0.11524281,-0.7931546,0.9882338
0.278,1.8635564,1.4484465,2.7243316,0.12989181,-0.7123848,1.0094849
0.28,1.71224,1.5148535,2.7035632,0.1428071,-0.63636804,1.0336437
0.282,1.5645192,1.572684,2.6507595,0.15390876,-0.56671715,1.0605831
0.284,1.4215863,1.6223866,2.5680466,0.16308622,-0.5049106,1.0902541
0.286,1.2846849,1.664042,2.4578238,0.17011292,-0.452165,1.1225253
0.288,1.1546423,1.6975656,2.323053,0.17458352,-0.40937734,1.1570836
0.29,1.0328137,1.7225354,2.1659071,0.1759362,-0.3771348,1.1934725
0.292,0.9207261,1.7381537,1.9876416,0.17376748,-0.35580263,1.2312311
0.294,0.817348,1.7452877,1.789894,0.16796026,-0.3455855,1.2700204
0.296,0.7247945,1.7424039,1.5794215,0.15871997,-0.34647822,1.3095171
0.298,0.6449817,1.7281656,1.3622874,0.14659841,-0.35835052,1.3491856
0.3,0.5775974,1.7029848,1.1399549,0.13239908,-0.381165,1.3883876
0.302,0.52154917,1.6675763,0.91246647,0.11709958,-0.41471142,1.426528
0.304,0.47831953,1.6213495,0.67733955,0.101596236,-0.45866483,1.4630499
0.306,0.45154738,1.5618314,0.44423848,0.08653462,-0.5125853,1.4975096
0.308,0.44181144,1.4863214,0.22917315,0.07242781,-0.57557946,1.5294626
0.31,0.44794825,1.3954471,0.03225769,0.059501886,-0.64599633,1.5581989
0.312,0.4694097,1.2903008,-0.1535546,0.04778421,-0.72135955,1.5830319
0.314,0.50605434,1.172615,-0.33112526,0.037481546,-0.79870236,1.603861
0.316,0.55633235,1.0451875,-0.4991426,0.028917968,-0.87514174,1.6208681
0.318,0.6182971,0.91000944,-0.65409803,0.022387326,-0.9475776,1.6341424
0.32,0.6901592,0.76838624,-0.7909203,0.018069386,-1.012933,1.643608
0.322,0.77141213,0.6215937,-0.90537345,0.01603055,-1.0687898,1.649407
0.324,0.8609393,0.4713117,-0.9972718,0.016352713,-1.1138151,1.6520438
0.326,0.95773983,0.31888708,-1.0664843,0.019013345,-1.1478765,1.6521649
0.328,1.0582824,0.1657384,-1.1129327,0.023782134,-1.1717112,1.6503509
0.33,1.1606268,0.012845635,-1.1350857,0.03003937,-1.1871166,1.64692
0.332,1.2656058,-0.13938665,-1.1324868,0.036706686,-1.1971253,1.6421125
0.334,1.3711588,-0.2874326,-1.1089503,0.04251516,-1.2051239,1.6361829
0.336,1.472429,-0.42878538,-1.0632198,0.04582262,-1.2146368,1.6291614
0.338,1.5661594,-0.5621158,-0.98933196,0.044504464,-1.228817,1.6208814
0.34,1.6523436,-0.68418974,-0.8883778,0.03662324,-1.249663,1.6110277
0.342,1.7290252,-0.79051477,-0.7620077,0.020783484,-1.2785406,1.5993497
0.344,1.794075,-0.87749505,-0.61157143,-0.0038322806,-1.3161955,1.5859752
0.346,1.8463666,-0.94373846,-0.4417863,-0.03755766,-1.3621299,1.5710573
0.348,1.8855114,-0.98928136,-0.25903615,-0.08021814,-1.4146056,1.5544415
0.35,1.9107511,-1.013876,-0.068080306,-0.130979,-1.4708673,1.536057
0.352,1.9213643,-1.0167992,0.12743297,-0.18816984,-1.5273151,1.5162039
0.354,1.9177682,-0.99785244,0.32347876,-0.24934179,-1.5799981,1.4951968
0.356,1.9017911,-0.9586301,0.5160198,-0.31150132,-1.6251718,1.472968
0.358,1.8768244,-0.9020956,0.70005286,-0.37149167,-1.6599183,1.4490848
0.36,1.8465698,-0.83211935,0.8695383,-0.426309,-1.6825485,1.4228753
0.362,1.8135543,-0.7527158,1.019493,-0.47331095,-1.6927,1.3935137
0.364,1.7803557,-0.66790175,1.1466385,-0.5104629,-1.6912935,1.3600497
0.366,1.749963,-0.58132803,1.2490442,-0.53649676,-1.6802064,1.3214403
0.368,1.7269814,-0.49625894,1.3257219,-0.5509731,-1.6618247,1.2765893
0.37,1.715049,-0.41571635,1.3772362,-0.55433714,-1.6385272,1.224549
0.372,1.7175515,-0.3426854,1.4034696,-0.5477835,-1.6122465,1.1647395
0.374,1.7369893,-0.2800539,1.4036932,-0.5331258,-1.5842235,1.097227
0.376,1.7749319,-0.23040259,1.378325,-0.5125822,-1.5550011,1.0228925
0.378,1.8333619,-0.19613022,1.330521,-0.4884988,-1.5244437,0.943596
0.38,1.9128046,-0.17795849,1.2646935,-0.46307898,-1.4920752,0.8619733
0.382,2.0141442,-0.17646527,1.1856002,-0.43829858,-1.4576614,0.7812078
0.384,2.1367378,-0.19146574,1.0984871,-0.41567087,-1.4210193,0.7049453
0.386,2.278768,-0.22162616,1.0085129,-0.39615417,-1.3818871,0.636724
0.388,2.437443,-0.2647066,0.9193889,-0.38032615,-1.3404689,0.5794617
0.39,2.6099443,-0.3177786,0.8339073,-0.36815447,-1.2970321,0.5352127
0.392,2.792568,-0.3779322,0.7540801,-0.35906583,-1.2519727,0.5049884
0.394,2.9803452,-0.44122255,0.6821413,-0.35257047,-1.206002,0.48872378
0.396,3.1672533,-0.5030278,0.6195049,-0.34835476,-1.1592917,0.48514712
0.398,3.3475902,-0.5597403,0.5669426,-0.34616485,-1.1116648,0.4918418
0.4,3.515676,-0.60772955,0.5252754,-0.34581333,-1.0632461,0.5060035
0.402,3.665265,-0.64366937,0.49575365,-0.34710774,-1.0143914,0.52490866
0.404,3.7925823,-0.6660527,0.47739512,-0.34994859,-0.96560764,0.5457833
0.406,3.891046,-0.6715621,0.46442747,-0.35446513,-0.91765314,0.5659203
0.408,3.9553766,-0.65854037,0.45296323,-0.3608557,-0.87130934,0.58304965
0.41,3.9837446,-0.62792444,0.44410992,-0.36919144,-0.8272545,0.5955288
0.412,3.9740999,-0.5809994,0.43987358,-0.37930024,-0.7859149,0.602262
0.414,3.9223976,-0.51826334,0.44254488,-0.39079112,-0.74751365,0.6024757
0.416,3.8254018,-0.43915987,0.4426775,-0.40316132,-0.7122054,0.5956424
0.418,3.6836586,-0.34413826,0.42966968,-0.4158222,-0.6800865,0.58153623
0.42,3.5002098,-0.23732197,0.41077662,-0.42818174,-0.6511806,0.56021076
0.422,3.2778292,-0.123122334,0.39645642,-0.43967867,-0.62543225,0.53200483
0.424,3.0189846,-0.0054733753,0.38927126,-0.44970232,-0.60275304,0.49752906
0.426,2.72791,0.1118691,0.3873275,-0.4576251,-0.5828846,0.45752403
0.428,2.4091463,0.2269401,0.38685328,-0.46290267,-0.5654688,0.41286042
0.43,2.0681658,0.33707702,0.38602224,-0.46505976,-0.55010605,0.36466384
0.432,1.7097509,0.44090477,0.38433823,-0.46367377,-0.53642344,0.31432843
0.434,1.3385487,0.53716576,0.38460743,-0.45839942,-0.5241833,0.26346052
0.436,0.96080583,0.62430954,0.39036468,-0.4490139,-0.5133945,0.21377122
0.438,0.5834049,0.7013852,0.40316048,-0.43551353,-0.5043219,0.16693667
0.44,0.21281372,0.76758903,0.42454302,-0.41816324,-0.49745405,0.12443818
0.442,-0.14587528,0.822056,0.45469207,-0.3974979,-0.4934273,0.08742497
0.444,-0.48788422,0.8631467,0.4938329,-0.37430835,-0.4928745,0.056621537
0.446,-0.8080163,0.8888369,0.54200083,-0.34958202,-0.49628502,0.03228523
0.448,-1.1031977,0.89830697,0.5997753,-0.32442927,-0.50399905,0.014257252
0.45,-1.3698931,0.89087266,0.6679281,-0.29998502,-0.51609814,0.0020146966
0.452,-1.605196,0.86666924,0.7466805,-0.27734223,-0.53235734,-0.005162917
0.454,-1.8079283,0.8270083,0.8361563,-0.2574554,-0.5523592,-0.008009471
0.456,-1.9771755,0.7733807,0.9367905,-0.2410838,-0.5755341,-0.0071772784
0.458,-2.1131604,0.7076431,1.0492308,-0.22877635,-0.60127217,-0.0032684058
0.46,-2.2167997,0.63190156,1.173005,-0.22081225,-0.62881935,0.0032904
0.462,-2.2900426,0.5485048,1.3066913,-0.21726865,-0.65733755,0.012290955
0.464,-2.3353553,0.45971906,1.4481372,-0.21809652,-0.68617296,0.023527205
0.466,-2.355877,0.36789858,1.5946196,-0.22315203,-0.7147502,0.036782414
0.468,-2.355459,0.27535367,1.744031,-0.23217669,-0.7423658,0.05188848
0.47,-2.338135,0.18457806,1.8951209,-0.24491057,-0.76837444,0.068621635
0.472,-2.3081877,0.09808457,2.04668,-0.2610626,-0.79217744,0.08669461
0.474,-2.2696095,0.0176934,2.1970878,-0.28022784,-0.8131485,0.10579975
0.476,-2.2257142,-0.05485785,2.3450592,-0.30191025,-0.83067894,0.12556319
0.478,-2.1805344,-0.11792612,2.48856,-0.32557985,-0.84427893,0.1455391
0.48,-2.1365466,-0.17029476,2.625454,-0.35068083,-0.8536961,0.16530845
0.482,-2.0964131,-0.21083724,2.754117,-0.37661463,-0.85877854,0.18443346
0.484,-2.0617652,-0.23925221,2.873084,-0.4028162,-0.8595375,0.20237102
0.486,-2.0333045,-0.255705,2.9803903,-0.42880303,-0.85615337,0.21858168
0.488,-2.012263,-0.26038396,3.074331,-0.45414853,-0.8488748,0.23258723
0.49,-1.999844,-0.25344777,3.1536188,-0.478459,-0.83798754,0.24394473
0.492,-1.9967461,-0.23491502,3.2176433,-0.5013836,-0.8237901,0.25223646
0.494,-2.0025146,-0.20570707,3.2662044,-0.52261806,-0.80653626,0.2571256
0.496,-2.0161343,-0.16752851,3.2985344,-0.54189026,-0.78642267,0.25839454
0.498,-2.0361898,-0.12237835,3.315179,-0.55896485,-0.76358235,0.25592744
0.5,-2.061437,-0.072589755,3.3166113,-0.5736519,-0.7380626,0.24969704
0.502,-2.0910273,-0.019593,3.3035636,-0.58583176,-0.7098073,0.23976085
0.504,-2.1232498,0.03468609,3.2767031,-0.595471,-0.67879915,0.2263518
0.506,-2.1566167,0.088871,3.236677,-0.60261154,-0.64503485,0.20981762
0.508,-2.1900456,0.14251602,3.1841497,-0.6074162,-0.60850185,0.19054623
0.51,-2.2228565,0.19502926,3.120288,-0.61017656,-0.5692831,0.16900095
0.512,-2.2545044,0.24598992,3.0462701,-0.61133957,-0.52754456,0.14576581
0.514,-2.2848315,0.2953527,2.9635582,-0.6114687,-0.48360854,0.121416315
0.516,-2.313861,0.3429842,2.8735816,-0.6111581,-0.43789783,0.096508056
0.518,-2.3423426,0.38925517,2.777851,-0.6110001,-0.39075777,0.071705855
0.52,-2.3719845,0.43449855,2.6771545,-0.61155856,-0.3425693,0.047667786
0.522,-2.4035583,0.47899234,2.5718086,-0.6133221,-0.29370573,0.024983153
0.524,-2.4385452,0.52393746,2.4626043,-0.6165418,-0.244218,0.0042102635
0.526,-2.4797025,0.5708369,2.3509033,-0.6212879,-0.19397855,-0.014197946
0.528,-2.5289898,0.62111187,2.2377393,-0.6274757,-0.14279954,-0.029953212
0.53,-2.588653,0.67601645,2.123755,-0.63483715,-0.09037897,-0.042884484
0.532,-2.660942,0.73693013,2.0095344,-0.6430054,-0.0363176,-0.05297047
0.534,-2.747972,0.8046963,1.8957107,-0.6515011,0.019785792,-0.06033557
0.536,-2.8515534,0.87972295,1.7827201,-0.659765,0.07820824,-0.06524384
0.538,-2.9732099,0.9620805,1.6717286,-0.6672356,0.13910504,-0.068104036
0.54,-3.1146426,1.0532237,1.5626252,-0.67342234,0.20245668,-0.069433935
0.542,-3.2765183,1.1526126,1.457139,-0.67793405,0.26803946,-0.06978662
0.544,-3.4587185,1.2596242,1.3559381,-0.68049043,0.3354478,-0.06970309
0.546,-3.661636,1.3742473,1.2597338,-0.6808888,0.40412873,-0.06974324
0.548,-3.884736,1.4958544,1.1706452,-0.67902225,0.47343558,-0.07048871
0.55,-4.1266522,1.6230803,1.0891857,-0.6748668,0.54266274,-0.07249494
0.552,-4.384935,1.7544216,1.0167363,-0.66846,0.61106145,-0.07617228
0.554,-4.657272,1.8884579,0.9546305,-0.6598816,0.6778844,-0.08182818
0.556,-4.9416037,2.0240085,0.904162,-0.6492699,0.74243194,-0.08969654
0.558,-5.233979,2.1592262,0.866343,-0.6367936,0.8041616,-0.10001555
0.56,-5.531261,2.2930155,0.8419657,-0.62267005,0.8626245,-0.11301464
0.562,-5.8297577,2.4237716,0.83255744,-0.6071204,0.9175168,-0.12891783
0.564,-6.124778,2.5493913,0.8396224,-0.5903699,0.9687421,-0.14797388
0.566,-6.412177,2.6680808,0.8636821,-0.57264006,1.0163468,-0.17044038
0.568,-6.6872478,2.7778034,0.90469736,-0.55413675,1.0604607,-0.19653901
0.57,-6.945298,2.8769283,0.96262115,-0.5350353,1.101281,-0.22643277
0.572,-7.181819,2.963887,1.0374743,-0.5154344,1.1390865,-0.26014575
0.574,-7.3926954,3.0377188,1.1289314,-0.49533293,1.1741825,-0.29751536
0.576,-7.574398,3.0974634,1.23646,-0.47469392,1.2068579,-0.33821204
0.578,-7.7237854,3.1425583,1.358799,-0.4534485,1.2373084,-0.38170877
0.58,-7.8381014,3.172506,1.4943621,-0.43150032,1.2656893,-0.42730546
0.582,-7.9149637,3.1871803,1.6415374,-0.40876994,1.2920616,-0.47418648
0.584,-7.9527283,3.1867292,1.7989519,-0.38526595,1.3163686,-0.5214698
0.586,-7.950759,3.171728,1.964502,-0.36105528,1.3384732,-0.5682609
0.588,-7.908224,3.1425128,2.136608,-0.33632958,1.3580956,-0.6137009
0.59,-7.825556,3.099765,2.3133855,-0.31137186,1.3749437,-0.65704066
0.592,-7.7014093,3.0432923,2.4910657,-0.2865231,1.3887622,-0.69760406
0.594,-7.5412865,2.9767919,2.6686482,-0.26215738,1.3993303,-0.73482096
0.596,-7.347433,2.900576,2.8487835,-0.23864001,1.4065487,-0.76823604
0.598,-7.121557,2.8166113,3.0260122,-0.21628779,1.4105525,-0.7974867
0.6,-6.866578,2.728519,3.1999264,-0.19535714,1.4116795,-0.82226396
0.602,-6.5873885,2.6373906,3.3713982,-0.17601287,1.4104704,-0.842324
0.604,-6.287424,2.5441186,3.535429,-0.15832734,1.4076986,-0.85753727
0.606,-5.969656,2.4511797,3.689095,-0.14228731,1.404324,-0.86793035
0.608,-5.6373396,2.3593576,3.8337018,-0.12780654,1.4014069,-0.87355936
0.61,-5.2946405,2.2704408,3.9692523,-0.114746034,1.400053,-0.87449336
0.612,-4.94512,2.1862125,4.095433,-0.102974415,1.4013114,-0.870849
0.614,-4.591665,2.1072452,4.2124743,-0.09239572,1.4061426,-0.8628085
0.616,-4.237441,2.0339255,4.32052,-0.08294916,1.4154241,-0.85062873
0.618,-3.885447,1.9668847,4.4184146,-0.07460767,1.4298439,-0.8346575
0.62,-3.5374346,1.9065158,4.505311,-0.06740576,1.449921,-0.8153061
0.622,-3.1953895,1.8533288,4.5818453,-0.06142062,1.475915,-0.7930225
0.624,-2.8604455,1.8070912,4.6492186,-0.056730628,1.5078685,-0.7684784
0.626,-2.5336251,1.76757,4.708028,-0.053687632,1.5455883,-0.7425483
0.628,-2.215825,1.734828,4.7585793,-0.05239278,1.5887625,-0.7157915
0.63,-1.9075449,1.7091382,4.8012323,-0.05265987,1.6368333,-0.6886343
0.632,-1.6096153,1.6904012,4.8363004,-0.054528177,1.689184,-0.6618463
0.634,-1.3224425,1.6781033,4.864217,-0.05808884,1.7451525,-0.63618374
0.636,-1.0460203,1.6715939,4.8848605,-0.063263655,1.8038884,-0.61206675
0.638,-0.77928907,1.6696675,4.897857,-0.070037246,1.8644743,-0.5897924
0.64,-0.5212232,1.671693,4.8996253,-0.07840413,1.9262812,-0.5696118
0.642,-0.2724967,1.6786072,4.884783,-0.08826083,1.9888434,-0.55166936
0.644,-0.03352943,1.6906137,4.860049,-0.09946126,2.0516627,-0.5359341
0.646,0.19417083,1.7070813,4.8362966,-0.11171198,2.1144915,-0.522331
0.648,0.40975428,1.7276638,4.814328,-0.12457365,2.1772943,-0.5107227
0.65,0.61123115,1.7533013,4.788739,-0.1375122,2.240007,-0.5008986
0.652,0.7982182,1.7841325,4.755032,-0.14992464,2.3025453,-0.4926499
0.654,0.9691811,1.8203247,4.707577,-0.1612122,2.364972,-0.48587772
0.656,1.1279942,1.8605424,4.6432266,-0.17081201,2.4274285,-0.48055336
0.658,1.2774692,1.902526,4.57138,-0.17824101,2.4900537,-0.47668362
0.66,1.4125707,1.949033,4.4927945,-0.18308187,2.5529888,-0.4742965
0.662,1.5302248,2.0023296,4.4015965,-0.1850146,2.6163945,-0.47345746
0.664,1.6325171,2.0606825,4.2978797,-0.18381035,2.6804304,-0.47420567
0.666,1.7173861,2.123393,4.1844187,-0.17928708,2.7452478,-0.4765098
0.668,1.7803841,2.1907363,4.0648007,-0.17140341,2.8108494,-0.48026472
0.67,1.8204949,2.261836,3.9445508,-0.1601876,2.8771067,-0.48527172
0.672,1.8373153,2.3366106,3.8274775,-0.145756,2.9437008,-0.4914617
0.674,1.8289306,2.415857,3.7147143,-0.12866676,3.0097024,-0.49893054
0.676,1.7932518,2.499966,3.6065443,-0.1097846,3.0743618,-0.5078111
0.678,1.7291446,2.5889058,3.5037365,-0.090036154,3.1372404,-0.51815873
0.68,1.6362474,2.682643,3.40812,-0.07023454,3.197596,-0.5300498
0.682,1.5147983,2.7815423,3.3214526,-0.051501393,3.2543128,-0.54389197
0.684,1.3656733,2.8855839,3.2447524,-0.034866333,3.306414,-0.5600174
0.686,1.1903899,2.9946032,3.1784358,-0.020989537,3.352877,-0.5784146
0.688,0.9913806,3.1080594,3.122772,-0.010558367,3.3931618,-0.5991938
0.69,0.77129877,3.2251987,3.0779,-0.003984213,3.4278517,-0.6228644
0.692,0.53323567,3.344922,3.044022,-0.000967741,3.4573376,-0.64986116
0.694,0.28067017,3.4660869,3.0206876,-0.00058722496,3.4816365,-0.6800303
0.696,0.018080354,3.5870943,3.0070467,-0.0013734102,3.5012653,-0.71298707
0.698,-0.25000358,3.7065997,3.0017848,-0.0015779734,3.5167198,-0.7484898
0.7,-0.5187532,3.8234706,3.0034986,0.00054717064,3.5279453,-0.78614825
0.702,-0.7845726,3.9370646,3.0119894,0.00664711,3.5345898,-0.8254703
0.704,-1.0386043,4.0439177,3.024543,0.0179497,3.535956,-0.866199
0.706,-1.277249,4.1442704,3.036623,0.03492093,3.530814,-0.90828514
0.708,-1.4974124,4.2368417,3.0520449,0.05709231,3.5174904,-0.9517762
0.71,-1.6952356,4.3192387,3.069817,0.08304083,3.4943466,-0.9968817
0.712,-1.8661327,4.392024,3.088941,0.11061883,3.4602036,-1.0440121
0.714,-2.0084233,4.455764,3.1138933,0.13732731,3.4146998,-1.0936276
0.716,-2.1210139,4.5095224,3.1462379,0.16080952,3.3584528,-1.1460147
0.718,-2.2033541,4.5543313,3.1837018,0.1792891,3.2931683,-1.2011559
0.72,-2.2548838,4.5906453,3.2266746,0.19184136,3.2215266,-1.2586224
0.722,-2.2758603,4.6187735,3.2762158,0.19862795,3.1470413,-1.3175735
0.724,-2.2678528,4.6406274,3.332468,0.20069623,3.073555,-1.3767974
0.726,-2.2318592,4.657326,3.3963308,0.19979262,3.0048475,-1.4347429
0.728,-2.1697924,4.6698093,3.4692564,0.19822085,2.9444027,-1.4898204
0.73,-2.0844197,4.6791463,3.5514753,0.19809747,2.894358,-1.5407536
0.732,-1.978187,4.6861978,3.6419206,0.20087016,2.8555875,-1.5866804
0.734,-1.8538082,4.6919127,3.7393754,0.20730793,2.828405,-1.6272243
0.736,-1.7138199,4.69694,3.8431425,0.21751714,2.8124862,-1.6625152
0.738,-1.5603081,4.7015657,3.9526627,0.23100209,2.8067155,-1.6930535
0.74,-1.3954113,4.7060776,4.0673585,0.24707377,2.8095767,-1.7196082
0.742,-1.2207004,4.7104673,4.186269,0.2650106,2.819137,-1.743136
0.744,-1.0372431,4.714076,4.3082566,0.28390312,2.8332305,-1.76451
0.746,-0.846241,4.715966,4.4326735,0.30288947,2.8505893,-1.7845908
0.748,-0.6495242,4.715557,4.5588813,0.32133472,2.8702562,-1.8043586
0.75,-0.4480362,4.7117596,4.6888704,0.3388698,2.8909307,-1.8244547
0.752,-0.24060535,4.702234,4.8248587,0.35545695,2.9114523,-1.8450217
0.754,-0.026962519,4.686179,4.9582286,0.371148,2.9307408,-1.8660963
0.756,0.19386125,4.6635294,5.08134,0.38584578,2.9475827,-1.8876481
0.758,0.4221511,4.63352,5.1987734,0.39936805,2.960883,-1.9094077
0.76,0.65908766,4.5942307,5.318825,0.41153288,2.9698296,-1.9310086
0.762,0.9039738,4.54536,5.4454765,0.4221983,2.9739528,-1.9521582
0.764,1.157098,4.486497,5.5816207,0.43130147,2.9731126,-1.9726102
0.766,1.4146028,4.418897,5.726304,0.43881822,2.9675632,-1.9920533
0.768,1.6751664,4.344127,5.8686714,0.44484997,2.957965,-2.0101237
0.77,1.9446331,4.259413,6.0093036,0.4496569,2.9453664,-2.026512
0.772,2.2244139,4.164018,6.153593,0.4536054,2.9310575,-2.0409691
0.774,2.5106916,4.0614195,6.299217,0.45709997,2.91645,-2.05334
0.776,2.804421,3.9532757,6.441992,0.46054208,2.9029016,-2.063531
0.778,3.1074433,3.8402576,6.5779243,0.46431577,2.8915825,-2.0714855
0.78,3.4173684,3.724225,6.7026987,0.46871483,2.8834085,-2.0771527
0.782,3.731678,3.6061215,6.8147764,0.47392398,2.8789847,-2.080476
0.784,4.0493665,3.4863791,6.9148803,0.47999763,2.878655,-2.0813677
0.786,4.369232,3.3660016,7.003217,0.4868884,2.882509,-2.079737
0.788,4.6888094,3.246467,7.0784287,0.49445426,2.8904653,-2.0754666
0.79,5.0051017,3.1291494,7.13805,0.502487,2.902295,-2.0683782
0.792,5.3151717,3.015179,7.179159,0.5107782,2.917709,-2.0582707
0.794,5.616164,2.9058497,7.1998754,0.5191026,2.9364195,-2.0448883
0.796,5.905238,2.8023489,7.1983223,0.52729225,2.9581532,-2.0279539
0.798,6.179708,2.7057729,7.172407,0.5352387,2.982656,-2.007214
0.8,6.4372516,2.6170406,7.120243,0.5428914,3.0097098,-1.9824927
0.802,6.676044,2.5368254,7.0401354,0.55026364,3.039094,-1.9537344
0.804,6.8942347,2.4656649,6.9311037,0.5574168,3.0705347,-1.9210682
0.806,7.090517,2.4036107,6.7930217,0.56443787,3.1036887,-1.8848243
0.808,7.263827,2.350418,6.6263714,0.57140243,3.1380665,-1.8455632
0.81,7.4136314,2.305328,6.4320097,0.5783384,3.173028,-1.8040972
0.812,7.539572,2.2677383,6.210738,0.5852032,3.2077994,-1.7614497
0.814,7.64244,2.2365894,5.9640417,0.59184766,3.2414749,-1.7188126
0.816,7.722315,2.210919,5.694294,0.59801936,3.2730427,-1.6774659
0.818,7.7799096,2.1900718,5.402483,0.60338676,3.301422,-1.6386793
0.82,7.816182,2.1733296,5.089984,0.6075986,3.325522,-1.6036367
0.822,7.832608,2.1595874,4.7591076,0.61026865,3.344311,-1.5734088
0.824,7.8310533,2.1478834,4.4122043,0.61100525,3.356824,-1.5488433
0.826,7.8129354,2.1375732,4.052473,0.609491,3.3622217,-1.530569
0.828,7.779579,2.1283972,3.6834154,0.60550433,3.3598204,-1.5189632
0.83,7.7325077,2.1202807,3.3087804,0.59889066,3.3491008,-1.5141549
0.832,7.6728754,2.1136355,2.932232,0.5895625,3.3297176,-1.5160587
0.834,7.602103,2.1086867,2.5574942,0.5775409,3.3015587,-1.5243866
0.836,7.521193,2.1061468,2.188088,0.5629767,3.2647405,-1.5386524
0.838,7.431389,2.1066918,1.8275698,0.5461495,3.2195783,-1.5582042
0.84,7.3332343,2.1111116,1.4790397,0.5274118,3.166598,-1.5822632
0.842,7.22721,2.1200523,1.145224,0.5071781,3.1064987,-1.6100094
0.844,7.113303,2.1343725,0.8292419,0.48585713,3.0400887,-1.64066
0.846,6.991329,2.1548312,0.5342206,0.46392387,2.9684682,-1.6734262
0.848,6.8604736,2.1821146,0.2629757,0.4418217,2.8928523,-1.7076019
0.85,6.719713,2.2167451,0.018196702,0.41984588,2.8142786,-1.7426435
0.852,6.5678234,2.2595592,-0.19758761,0.39817357,2.7337744,-1.7781682
0.854,6.403703,2.3114989,-0.38235474,0.37687057,2.6523252,-1.8139191
0.856,6.2264423,2.3730698,-0.53453887,0.35588402,2.570797,-1.8497739
0.858,6.0348854,2.444481,-0.65295815,0.3351053,2.4899757,-1.8856657
0.86,5.8279333,2.5256314,-0.7364708,0.31446272,2.4106326,-1.9215388
0.862,5.6040897,2.6158829,-0.78411305,0.2939563,2.3335567,-1.9573021
0.864,5.362364,2.714336,-0.79473555,0.27373907,2.2595944,-1.992805
0.866,5.1019554,2.8199806,-0.76738954,0.2541297,2.1896586,-2.0278225
0.868,4.8223743,2.931805,-0.70161676,0.23566526,2.1246815,-2.0620327
0.87,4.5232763,3.0487714,-0.59745014,0.21907955,2.0655537,-2.094983
0.872,4.2050295,3.1695938,-0.45513153,0.20525914,2.0130348,-2.1261744
0.874,3.868567,3.2930202,-0.2753409,0.19513333,1.9676312,-2.1550896
0.876,3.5151632,3.4175806,-0.05918944,0.18959737,1.9295456,-2.1812665
0.878,3.1464527,3.5423174,0.19159436,0.18943417,1.8986988,-2.2043588
0.88,2.765529,3.6637883,0.4764241,0.19524065,1.8747133,-2.2242172
0.882,2.3755147,3.7810712,0.7921535,0.2073704,1.8569324,-2.240961
0.884,1.9796879,3.8927658,1.1365016,0.22584328,1.8445239,-2.254995
0.886,1.5820229,3.996972,1.5070517,0.25034618,1.8365393,-2.2669828
0.888,1.1871642,4.092059,1.900445,0.28026465,1.8319607,-2.277735
0.89,0.7997769,4.1765046,2.3132682,0.31471407,1.8297851,-2.2881074
0.892,0.4247203,4.2489147,2.7417693,0.35262227,1.8290555,-2.2989058
0.894,0.066952944,4.3079963,3.1819446,0.39278916,1.8288867,-2.3108177
0.896,-0.26859903,4.3529034,3.6296272,0.43399155,1.8284965,-2.3243496
0.898,-0.57692957,4.3831625,4.0804315,0.47506833,1.8272219,-2.3398159
0.9,-0.85323954,4.398262,4.5292583,0.514866,1.8243213,-2.3574162
0.902,-1.0931275,4.3980613,4.9717574,0.55240387,1.8191767,-2.3772154
0.904,-1.2929091,4.382795,5.403226,0.5869024,1.8114349,-2.399154
0.906,-1.4488003,4.3530374,5.819412,0.6177369,1.8007374,-2.423163
0.908,-1.5579753,4.30972,6.2165,0.64444,1.7867402,-2.4492238
0.91,-1.617943,4.2537026,6.5904503,0.6668564,1.769588,-2.4771745
0.912,-1.6271911,4.1862855,6.9374237,0.68498385,1.7495195,-2.506687
0.914,-1.5844672,4.1085806,7.253981,0.6989551,1.7267425,-2.5375504
0.916,-1.4893913,4.022015,7.5371466,0.70915544,1.701777,-2.5694637
0.918,-1.3419855,3.9277918,7.78445,0.71615016,1.6752747,-2.6019843
0.92,-1.142895,3.8272572,7.993878,0.7205991,1.6479062,-2.6346104
0.922,-0.89303684,3.7214127,8.164032,0.723224,1.6203449,-2.6668124
0.924,-0.5946171,3.6114216,8.293667,0.7247218,1.5932219,-2.6980858
0.926,-0.24930787,3.4981394,8.381572,0.72570544,1.5670843,-2.7279737
0.928,0.14027715,3.3820648,8.428434,0.72668314,1.5424113,-2.756097
0.93,0.57108057,3.2638588,8.4347725,0.7279871,1.5196104,-2.7821665
0.932,1.0392278,3.144506,8.401177,0.7297699,1.4990377,-2.8059428
0.934,1.5407915,3.024562,8.329061,0.7320384,1.4810874,-2.8271837
0.936,2.07157,2.9046674,8.219637,0.7346791,1.4661908,-2.8456092
0.938,2.6272519,2.785034,8.074811,0.73753786,1.4548273,-2.8609064
0.94,3.2027793,2.6657777,7.896113,0.74042046,1.4475096,-2.8726928
0.942,3.7927904,2.5470877,7.685893,0.7431224,1.4447503,-2.880526
0.944,4.3915205,2.4294026,7.4469233,0.745463,1.4469675,-2.8839116
0.946,4.9933424,2.3131952,7.182034,0.74730504,1.4544733,-2.8823183
0.948,5.5925026,2.1990848,6.894081,0.74857,1.4674368,-2.875219
0.95,6.1836014,2.0876746,6.58615,0.7491857,1.4858693,-2.862167
0.952,6.761141,1.979655,6.2614894,0.749122,1.5096151,-2.8428066
0.954,7.31994,1.875525,5.9225845,0.7483909,1.5383806,-2.8169503
0.956,7.8548093,1.7759681,5.571732,0.747046,1.5717942,-2.7846155
0.958,8.361331,1.6813307,5.210992,0.7451915,1.6093922,-2.7460444
0.96,8.834972,1.5918744,4.8425007,0.74297595,1.65065,-2.7017004
0.962,9.271688,1.5080528,4.4686384,0.7405523,1.6950266,-2.6522264
0.964,9.667403,1.4302878,4.0921483,0.737985,1.7417145,-2.5985494
0.966,10.018684,1.3591278,3.7157407,0.7354165,1.7900815,-2.5417075
0.968,10.32303,1.2951584,3.3424003,0.732981,1.8396086,-2.4825628
0.97,10.578564,1.2386656,2.9743266,0.730724,1.8895555,-2.421985
0.972,10.784324,1.1900556,2.6131716,0.72868574,1.9391838,-2.3607857
0.974,10.939565,1.1494908,2.2603865,0.72693264,1.9878097,-2.299629
0.976,11.044385,1.1169643,1.917614,0.7255441,2.0347652,-2.239034
0.978,11.099265,1.0922918,1.5866116,0.7246609,2.0794067,-2.1793704
0.98,11.105413,1.0752041,1.2691228,0.7244678,2.1211524,-2.1208498
0.982,11.064489,1.0651858,0.9666821,0.7252091,2.1595092,-2.0636005
0.984,10.978655,1.0616338,0.6806823,0.72718143,2.1940784,-2.0076928
0.986,10.850502,1.0638936,0.4125535,0.73070973,2.224584,-1.9531963
0.988,10.683262,1.0709853,0.16376328,0.73609835,2.2508264,-1.9001838
0.99,10.479521,1.0839587,-0.0657348,0.7436277,2.2727284,-1.8487232
0.992,10.242773,1.1011906,-0.27401733,0.75349605,2.2902763,-1.7988977
0.994,9.977062,1.1218699,-0.46085232,0.7658111,2.3035235,-1.7507973
0.996,9.686073,1.145698,-0.6260821,0.7805359,2.312547,-1.7045635
0.998,9.373113,1.1722738,-0.7691176,0.7975148,2.3174214,-1.6603531
1,9.0422945,1.2009356,-0.8898668,0.81646574,2.3181696,-1.6183379
1.002,8.697294,1.231386,-0.9880752,0.8369993,2.3147116,-1.5786849
1.004,8.341833,1.2631497,-1.0638087,0.8586457,2.3068485,-1.5415518
1.006,7.97957,1.2957442,-1.11729,0.8808807,2.294321,-1.5070858
1.008,7.6137586,1.3286412,-1.1489096,0.90320826,2.2768161,-1.4753821
1.01,7.2475543,1.3617449,-1.158778,0.9251814,2.2540097,-1.4464731
1.012,6.884108,1.3950031,-1.1477785,0.94644475,2.2256608,-1.4203311
1.014,6.526277,1.4285474,-1.1167523,0.96675956,2.1916592,-1.3968632
1.016,6.1765532,1.462405,-1.0669122,0.9860289,2.1520722,-1.3759155
1.018,5.837503,1.4965879,-0.9995083,1.0042679,2.10717,-1.357298
1.02,5.511244,1.5314566,-0.9156218,1.0216017,2.057423,-1.3408394
1.022,5.2000012,1.5670267,-0.81647146,1.038219,2.0034728,-1.3263967
1.024,4.9055276,1.6034825,-0.7033371,1.0543053,1.9460961,-1.3139384
1.026,4.6296377,1.6407529,-0.5778794,1.070027,1.8861386,-1.3035145
1.028,4.374176,1.6787977,-0.44192052,1.0855038,1.8244537,-1.2952421
1.03,4.1407866,1.7172788,-0.2974978,1.1007824,1.7618408,-1.2892714
1.032,3.9308584,1.7559752,-0.14668435,1.1158463,1.6989788,-1.2857682
1.034,3.7461214,1.7941699,0.00848335,1.13064,1.6364338,-1.2848958
1.036,3.588022,1.8312336,0.16587448,1.1450601,1.57461,-1.2867424
1.038,3.457895,1.8661695,0.3235939,1.1590096,1.5137982,-1.2913399
1.04,3.3564913,1.898107,0.47988188,1.1723925,1.4541917,-1.2986734
1.042,3.2844045,1.9264115,0.63292974,1.1851422,1.3959137,-1.3086663
1.044,3.2417727,1.9504406,0.7809813,1.1972194,1.3390266,-1.3212059
1.046,3.2292137,1.9687942,0.9228733,1.2086282,1.2835608,-1.3361306
1.048,3.246898,1.9806651,1.0573709,1.2193911,1.2295,-1.3532499
1.05,3.2936502,1.9860554,1.1836886,1.2295549,1.1768044,-1.3723059
1.052,3.3686662,1.9847375,1.3008666,1.2391546,1.1254508,-1.3929952
1.054,3.4712088,1.9762206,1.4076427,1.2482212,1.0754149,-1.414955
1.056,3.6002705,1.9599082,1.5032876,1.256776,1.0266889,-1.4377369
1.058,3.7542768,1.9355314,1.5873158,1.2648444,0.97932065,-1.4608297
1.06,3.9309487,1.9034393,1.6597311,1.2724528,0.93339247,-1.4836522
1.062,4.1280303,1.8639631,1.7208831,1.2796216,0.88905483,-1.505592
1.064,4.342722,1.8177404,1.7711504,1.286415,0.8465154,-1.5260136
1.066,4.572251,1.7652323,1.8109004,1.2929194,0.8060745,-1.5442795
1.068,4.813442,1.7073407,1.8409663,1.2992651,0.7680892,-1.5597906
1.07,5.063006,1.644953,1.8619168,1.3055981,0.7329639,-1.5720356
1.072,5.3173757,1.5790999,1.8742819,1.3121083,0.70116186,-1.5806131
1.074,5.5731716,1.5108244,1.8783138,1.3189712,0.67315024,-1.5852392
1.076,5.8269567,1.4412303,1.8744245,1.3263423,0.64936805,-1.585758
1.078,6.074944,1.3715487,1.8628688,1.3343539,0.6302234,-1.5820788
1.08,6.3135924,1.3028891,1.8442062,1.3431073,0.6160437,-1.5742247
1.082,6.5393414,1.2365593,1.8192546,1.3526646,0.60702085,-1.5623115
1.084,6.748923,1.1736739,1.7888428,1.3630693,0.60324085,-1.546563
1.086,6.939099,1.1152925,1.7536461,1.3743099,0.60469246,-1.5272137
1.088,7.1072574,1.0627475,1.7144339,1.3863561,0.61120385,-1.5045073
1.09,7.2508955,1.0170262,1.6717781,1.3992095,0.62248397,-1.4787116
1.092,7.3680825,0.97872484,1.6264417,1.4129008,0.63817024,-1.4501264
1.094,7.4573607,0.9485085,1.5789058,1.4274871,0.65781724,-1.419091
1.096,7.5178914,0.9267897,1.529411,1.4430276,0.68088037,-1.3859879
1.098,7.54926,0.9134543,1.4782419,1.4595944,0.7066895,-1.3512359
1.1,7.5516376,0.90831316,1.4256024,1.4772509,0.73447365,-1.3152993
1.102,7.5255275,0.9109771,1.372099,1.4960138,0.76334816,-1.2787002
1.104,7.4719353,0.9210831,1.3184156,1.5158778,0.792345,-1.2420254
1.106,7.392053,0.93812853,1.2652963,1.5367837,0.8204,-1.2058946
1.108,7.2881355,0.9612976,1.2131997,1.5586301,0.84642917,-1.1709244
1.11,7.162182,0.9898399,1.1626369,1.5812913,0.86935306,-1.1377119
1.112,7.017075,1.0226822,1.1137041,1.6046299,0.8881281,-1.1067581
1.114,6.855652,1.0587827,1.066556,1.6285021,0.9018041,-1.078491
1.116,6.681088,1.0970907,1.0214632,1.6527623,0.9095576,-1.0532324
1.118,6.4968386,1.1364417,0.97864723,1.6772777,0.9106771,-1.0312023
1.12,6.306201,1.1757934,0.93806785,1.7019258,0.90456706,-1.012573
1.122,6.112663,1.2139354,0.8995781,1.7265737,0.8908332,-0.99744135
1.124,5.9197416,1.2498348,0.8628965,1.7510855,0.8692321,-0.9858335
1.126,5.7308955,1.2825979,0.82776606,1.7753092,0.83963954,-0.97775596
1.128,5.5491276,1.311475,0.79379284,1.7991134,0.8021066,-0.9731926
1.13,5.3773017,1.3359317,0.76044536,1.8223867,0.7568832,-0.97208554
1.132,5.217874,1.3557684,0.72706944,1.8450316,0.70438725,-0.9743728
1.134,5.073169,1.3707819,0.6931191,1.866967,0.6452285,-0.9799405
1.136,4.944795,1.3809621,0.6579498,1.888153,0.58022165,-0.98862225
1.138,4.8339562,1.3863591,0.62080026,1.9085801,0.5102878,-1.0001949
1.14,4.741885,1.3872327,0.5812823,1.9282771,0.43644264,-1.0144371
1.142,4.6693087,1.3838506,0.5388295,1.9472966,0.35979718,-1.0310915
1.144,4.6166053,1.3767041,0.4928932,1.9657023,0.28148386,-1.0498446
1.146,4.583897,1.3661242,0.4431609,1.9835765,0.20260681,-1.0703189
1.148,4.570987,1.352638,0.38933378,2.0010672,0.12422067,-1.0921168
1.15,4.577539,1.3362956,0.3312373,2.0183532,0.0473271,-1.1148351
1.152,4.6034575,1.3169477,0.26912937,2.0356603,-0.027134985,-1.1380475
1.154,4.6478662,1.2947834,0.20344016,2.0532296,-0.09835409,-1.1613326
1.156,4.709511,1.2702721,0.134787,2.0713472,-0.1656518,-1.1842518
1.158,4.7872076,1.243372,0.063658856,2.0902848,-0.22849591,-1.2064016
1.16,4.8806424,1.2134695,-0.008976646,2.1102993,-0.28652465,-1.2274209
1.162,4.9885006,1.180307,-0.08211814,2.1316183,-0.33955336,-1.2470251
1.164,5.109061,1.1439469,-0.15421826,2.154394,-0.3875637,-1.2650456
1.166,5.2406588,1.1046563,-0.22388993,2.1787026,-0.43069103,-1.2814146
1.168,5.382092,1.0622629,-0.29002583,2.2045517,-0.4692103,-1.2961466
1.17,5.5322046,1.0162287,-0.3518759,2.2318728,-0.503523,-1.3093277
1.172,5.689972,0.966321,-0.4086312,2.260526,-0.53408504,-1.3211069
1.174,5.8541546,0.91244,-0.4591935,2.2903285,-0.56141376,-1.3316338
1.176,6.023522,0.85476387,-0.5026006,2.3210766,-0.5860719,-1.3410872
1.178,6.196768,0.7933849,-0.53825575,2.3525338,-0.60857064,-1.3496599
1.18,6.3726664,0.72859955,-0.56546515,2.384465,-0.62936807,-1.357493
1.182,6.5500455,0.6604682,-0.5841183,2.416627,-0.6488503,-1.3646915
1.184,6.7276,0.5895652,-0.59430176,2.448815,-0.6673376,-1.371326
1.186,6.90409,0.5166438,-0.59647006,2.4808245,-0.68508756,-1.3774058
1.188,7.0784307,0.4425159,-0.59149295,2.5124881,-0.70226276,-1.382868
1.19,7.2493052,0.36841887,-0.5802521,2.543659,-0.7189628,-1.3875847
1.192,7.415563,0.29532358,-0.5641565,2.574223,-0.7352167,-1.3913802
1.194,7.5762186,0.22452414,-0.5448526,2.6040907,-0.75102454,-1.3940564
1.196,7.730144,0.15726632,-0.524504,2.6332126,-0.76635325,-1.3954157
1.198,7.8761973,0.094573736,-0.50528723,2.661571,-0.7811544,-1.395283
1.2,8.013568,0.03777218,-0.48925725,2.6892073,-0.79537714,-1.3935089
1.202,8.141238,-0.011485279,-0.47832018,2.716195,-0.80897504,-1.3899779
1.204,8.258318,-0.051914215,-0.474036,2.7426922,-0.8219236,-1.384626
1.206,8.363846,-0.082296014,-0.47788793,2.7688994,-0.83425975,-1.3774248
1.208,8.45724,-0.10155767,-0.49147627,2.7950752,-0.84608114,-1.368396
1.21,8.538036,-0.10885167,-0.51613265,2.8214924,-0.8575817,-1.3576035
1.212,8.605799,-0.10342997,-0.5530915,2.8484454,-0.8690941,-1.3451463
1.214,8.660708,-0.08512926,-0.60321385,2.876229,-0.8810566,-1.3311503
1.216,8.70306,-0.05385959,-0.6666815,2.9050982,-0.89404833,-1.3157746
1.218,8.732749,-0.009594917,-0.7429164,2.9352913,-0.9087255,-1.2991889
1.22,8.750361,0.047362685,-0.8310281,2.967025,-0.9257568,-1.2816199
1.222,8.756599,0.11639297,-0.929884,3.0004954,-0.9457519,-1.2633578
1.224,8.752359,0.19650704,-1.0376313,3.0358715,-0.969236,-1.2447412
1.226,8.738232,0.28702676,-1.1522529,3.0732832,-0.99661463,-1.2261237
1.228,8.7160425,0.38667798,-1.2709398,3.1128383,-1.0281305,-1.2078466
1.23,8.687695,0.49308842,-1.3912066,3.1546206,-1.0638652,-1.1901828
1.232,8.6531925,0.6060764,-1.5105197,3.1986945,-1.1037534,-1.1733644
1.234,8.614454,0.7242708,-1.6255257,3.245084,-1.147531,-1.1575613
1.236,8.573709,0.8457315,-1.733666,3.2937503,-1.1948478,-1.1428853
1.238,8.532464,0.9689508,-1.8322169,3.3445668,-1.2453266,-1.1293738
1.24,8.492682,1.0921992,-1.9186078,3.3973312,-1.298615,-1.1169916
1.242,8.455614,1.2139556,-1.9906107,3.4517202,-1.3544444,-1.1056749
1.244,8.4230175,1.3327502,-2.0463502,3.50732,-1.4126792,-1.0953226
1.246,8.396708,1.4470783,-2.0846636,3.5636168,-1.4732994,-1.0858048
1.248,8.377777,1.5559357,-2.1047015,3.62005,-1.5363772,-1.07701
1.25,8.367307,1.658252,-2.1062245,3.6759896,-1.6020634,-1.0688484
1.252,8.366025,1.7534003,-2.0888364,3.730821,-1.6705091,-1.0612468
1.254,8.373885,1.8411968,-2.053376,3.7839854,-1.7418146,-1.054146
1.256,8.390984,1.9217389,-2.0022976,3.8350234,-1.8160264,-1.0475469
1.258,8.417461,1.9950569,-1.9384582,3.8835714,-1.892992,-1.0414639
1.26,8.453728,2.061164,-1.8636425,3.929438,-1.9723759,-1.0358075
1.262,8.499281,2.1204321,-1.7795728,3.97253,-2.053896,-1.0305586
1.264,8.553799,2.1733918,-1.6885847,4.012916,-2.1371088,-1.0257521
1.266,8.616969,2.2207737,-1.5944058,4.050725,-2.2215505,-1.0213509
1.268,8.688774,2.2636585,-1.500763,4.086142,-2.3068786,-1.0172482
1.27,8.766486,2.304178,-1.408528,4.119428,-2.3928597,-1.0132756
1.272,8.849313,2.3429189,-1.3172655,4.1508856,-2.479481,-1.0092525
1.274,8.942653,2.379565,-1.2331797,4.1808276,-2.5670102,-1.0049479
1.276,9.037731,2.4212837,-1.1601709,4.2095757,-2.6559787,-1.0000985
1.278,9.128463,2.4704037,-1.08867,4.2374573,-2.7471824,-0.9944984
1.28,9.22029,2.522902,-1.0162021,4.264788,-2.8416264,-0.9880471
1.282,9.319761,2.5770836,-0.95325494,4.2917957,-2.9405432,-0.98079515
1.284,9.420561,2.6394,-0.90444326,4.318615,-3.0453174,-0.97295785
1.286,9.5205345,2.7131941,-0.8684777,4.3452997,-3.157414,-0.9648349
1.288,9.6220255,2.799291,-0.84605587,4.3718038,-3.2783067,-0.95683396
1.29,9.726327,2.8973756,-0.8350314,4.3980103,-3.4093132,-0.94940937
1.292,9.830292,3.0089035,-0.8304112,4.423726,-3.5514107,-0.9430584
1.294,9.933529,3.1339102,-0.8269076,4.448743,-3.705169,-0.93826294
1.296,10.0376625,3.271681,-0.8216586,4.4728837,-3.8706264,-0.935375
1.298,10.140432,3.4222457,-0.81320655,4.496055,-4.0472364,-0.934662
1.3,10.240863,3.5849104,-0.80101395,4.518173,-4.234028,-0.93636286
1.302,10.339705,3.7581315,-0.7845731,4.5392556,-4.429445,-0.94052196
1.304,10.437538,3.9406257,-0.76296276,4.559573,-4.6312003,-0.946885
1.306,10.534544,4.1318803,-0.7357962,4.5792603,-4.837376,-0.95530236
1.308,10.631377,4.33128,-0.7036888,4.5984983,-5.045888,-0.9656317
1.31,10.728488,4.537353,-0.66854334,4.617895,-5.253258,-0.9771662
1.312,10.826387,4.748313,-0.6341319,4.6381583,-5.4562335,-0.9888873
1.314,10.92488,4.962262,-0.60490495,4.6601276,-5.6525726,-1.0001612
1.316,11.023959,5.177233,-0.58472204,4.684933,-5.8398404,-1.0103786
1.318,11.12171,5.3929763,-0.5768311,4.7136965,-6.015978,-1.0187254
1.32,11.215413,5.609006,-0.58461696,4.747617,-6.179531,-1.0243189
1.322,11.304103,5.823971,-0.6112896,4.788273,-6.329087,-1.0262794
1.324,11.385872,6.036491,-0.6588965,4.8376126,-6.4631205,-1.0237024
1.326,11.457697,6.246132,-0.72962666,4.8978233,-6.5800424,-1.0157294
1.328,11.517024,6.4524345,-0.82319844,4.9710245,-6.678322,-1.0018461
1.33,11.561886,6.654538,-0.9381768,5.0590124,-6.7561593,-0.98189807
1.332,11.589462,6.852643,-1.0725182,5.1629133,-6.811461,-0.95605826
1.334,11.596925,7.0472636,-1.2230792,5.282913,-6.8418803,-0.9249544
1.336,11.582431,7.238617,-1.3850464,5.418189,-6.8447294,-0.8897624
1.338,11.543283,7.4279423,-1.5527442,5.5669003,-6.8171577,-0.8521898
1.34,11.47747,7.6172976,-1.719153,5.7263465,-6.756293,-0.8141928
1.342,11.385573,7.8069444,-1.8766088,5.8933945,-6.659409,-0.77759814
1.344,11.266622,7.9989433,-2.0179303,6.064849,-6.5241804,-0.7437906
1.346,11.11983,8.195779,-2.1354003,6.237876,-6.34906,-0.71341634
1.348,10.946159,8.399603,-2.222185,6.410225,-6.1336255,-0.6862774
1.35,10.74637,8.612742,-2.2721233,6.580338,-5.8787394,-0.66137934
1.352,10.522153,8.837426,-2.279901,6.7472887,-5.586775,-0.6369784
1.354,10.27504,9.075867,-2.241895,6.9106274,-5.261603,-0.61082315
1.356,10.006544,9.33041,-2.1555114,7.0700126,-4.9089546,-0.58076763
1.358,9.719134,9.602882,-2.019955,7.2247944,-4.5363545,-0.54524255
1.36,9.414714,9.894753,-1.8361962,7.3741865,-4.1519217,-0.50311995
1.362,9.095566,10.207017,-1.606909,7.5168414,-3.7650924,-0.45417166
1.364,8.763867,10.539976,-1.3350501,7.6507196,-3.3868096,-0.39954638
1.366,8.42149,10.893562,-1.0240991,7.773715,-3.0272186,-0.34118962
1.368,8.069588,11.267275,-0.6788633,7.8838196,-2.6951082,-0.28115606
1.37,7.70951,11.660429,-0.3061731,7.9793253,-2.398828,-0.22187734
1.372,7.3425913,12.071369,0.08654261,8.059188,-2.1453655,-0.16617632
1.374,6.9707327,12.497507,0.49275756,8.12303,-1.9397258,-0.11681318
1.376,6.594985,12.936017,0.9071071,8.170862,-1.7852982,-0.0761621
1.378,6.2166815,13.3833685,1.3246269,8.203163,-1.6836855,-0.04610896
1.38,5.839595,13.83515,1.7387376,8.220924,-1.6344903,-0.027913809
1.382,5.465218,14.288358,2.1436448,8.22565,-1.6354524,-0.022142887
1.384,5.0907393,14.740062,2.5404937,8.21912,-1.6830547,-0.028823376
1.386,4.727091,15.181054,2.9278898,8.203324,-1.7727786,-0.047581196
1.388,4.379648,15.6085415,3.2945516,8.180256,-1.8994429,-0.07765961
1.39,4.043357,16.02491,3.64075,8.151783,-2.0575547,-0.11789107
1.392,3.715686,16.428001,3.9783082,8.119564,-2.241486,-0.16683006
1.394,3.407616,16.808863,4.3103914,8.085,-2.4456224,-0.22302747
1.396,3.1236117,17.163855,4.6348467,8.049192,-2.664547,-0.28513002
1.398,2.8639834,17.492458,4.9524326,8.012988,-2.8930793,-0.35192227
1.4,2.6310725,17.79494,5.2620068,7.976945,-3.1263564,-0.42236948
1.402,2.4306989,18.070074,5.5617266,7.9414496,-3.35985,-0.49560118
1.404,2.2647252,18.317997,5.851454,7.9067116,-3.5895643,-0.57092214
1.406,2.1330225,18.539505,6.1344514,7.872822,-3.8120022,-0.64783835
1.408,2.0387895,18.734703,6.4148326,7.8397694,-4.024231,-0.72601914
1.41,1.9824586,18.90455,6.6959925,7.8075056,-4.223748,-0.80516076
1.412,1.9623907,19.050734,6.9801893,7.7759857,-4.4085884,-0.88499284
1.414,1.9768283,19.174406,7.2683387,7.745123,-4.5774384,-0.96538043
1.416,2.0241098,19.276257,7.5612125,7.7148614,-4.7294254,-1.0462499
1.418,2.101813,19.357367,7.8594694,7.6851254,-4.864093,-1.1275017
1.42,2.2071238,19.419668,8.164008,7.655819,-4.981412,-1.2091067
1.422,2.3372834,19.465176,8.475941,7.6267977,-5.08171,-1.2910831
1.424,2.489407,19.496014,8.7957325,7.5978765,-5.1655607,-1.3734574
1.426,2.6600535,19.514023,9.122461,7.5688515,-5.233776,-1.4562294
1.428,2.847202,19.519548,9.454489,7.5394683,-5.287298,-1.5394044
1.43,3.0484781,19.513596,9.79046,7.509473,-5.327146,-1.622932
1.432,3.2594779,19.49788,10.128911,7.478614,-5.354347,-1.7067244
1.434,3.4764843,19.474081,10.467753,7.4466496,-5.3699074,-1.7906606
1.436,3.696869,19.442753,10.805647,7.413348,-5.374752,-1.8745801
1.438,3.917738,19.404377,11.140092,7.3785353,-5.3697395,-1.9582419
1.44,4.1353507,19.360025,11.469165,7.3420396,-5.3556533,-2.0413554
1.442,4.3474216,19.309736,11.7919655,7.3037634,-5.3331995,-2.1235864
1.444,4.5520754,19.253378,12.10709,7.2636538,-5.3030386,-2.2046187
1.446,4.74714,19.190924,12.413051,7.221718,-5.265803,-2.2841423
1.448,4.9311404,19.122019,12.708353,7.1779957,-5.2221155,-2.361902
1.45,5.1029434,19.046436,12.991938,7.1325865,-5.1725955,-2.4376845
1.452,5.2613654,18.96369,13.26276,7.085624,-5.117817,-2.5113122
1.454,5.405584,18.87336,13.519813,7.0372825,-5.058362,-2.5826328
1.456,5.535599,18.77541,13.762289,6.9877553,-4.994793,-2.6515088
1.458,5.6513743,18.669598,13.989645,6.9372587,-4.9276776,-2.7177832
1.46,5.753549,18.555742,14.201316,6.886016,-4.8576164,-2.7813072
1.462,5.842916,18.433624,14.396862,6.8342505,-4.785208,-2.8419278
1.464,5.920386,18.303392,14.576176,6.7821655,-4.7110806,-2.8995118
1.466,5.9874873,18.16492,14.739273,6.7299414,-4.635848,-2.9538977
1.468,6.0455465,18.018238,14.886486,6.677725,-4.5601196,-3.0049515
1.47,6.096085,17.863539,15.018288,6.6256204,-4.484506,-3.052567
1.472,6.1408734,17.701122,15.134916,6.5737195,-4.409593,-3.0966923
1.474,6.1818714,17.531412,15.236515,6.5220647,-4.335961,-3.1372628
1.476,6.2207665,17.354786,15.323528,6.4706564,-4.2641478,-3.1742804
1.478,6.259227,17.171997,15.396559,6.41947,-4.1946363,-3.2078032
1.48,6.298509,16.983744,15.456504,6.3684273,-4.1278896,-3.2379591
1.482,6.3401213,16.79068,15.504575,6.3174143,-4.0643115,-3.2649474
1.484,6.3850384,16.59374,15.54188,6.2662935,-4.0042534,-3.289038
1.486,6.4346304,16.393707,15.569301,6.2148986,-3.9480317,-3.3105402
1.488,6.489765,16.19131,15.5876465,6.163053,-3.895867,-3.3297963
1.49,6.5512795,15.987166,15.597712,6.110573,-3.8478906,-3.347178
1.492,6.619755,15.7819805,15.600122,6.0572596,-3.8041093,-3.3630555
1.494,6.6956463,15.576612,15.595795,6.0029607,-3.7644157,-3.377759
1.496,6.77914,15.371642,15.585849,5.9475384,-3.7286003,-3.3916006
1.498,6.870124,15.167739,15.571528,5.8908596,-3.6963391,-3.4048514
1.5,6.9685383,14.965217,15.55392,5.8328066,-3.667255,-3.417747
1.502,7.074081,14.76475,15.53397,5.77327,-3.6409862,-3.430471
1.504,7.1863217,14.566617,15.512482,5.712123,-3.6172256,-3.4431927
1.506,7.3047557,14.37129,15.490145,5.6492558,-3.5957494,-3.456058
1.508,7.4287605,14.179125,15.467825,5.5845785,-3.5764463,-3.4691868
1.51,7.5577245,13.990183,15.446234,5.51802,-3.55932,-3.4826665
1.512,7.690985,13.804695,15.425929,5.449522,-3.544482,-3.4965694
1.514,7.827765,13.622718,15.407547,5.3790636,-3.532106,-3.5109353
1.516,7.967274,13.44416,15.391211,5.306637,-3.5224056,-3.5257719
1.518,8.108572,13.269032,15.377232,5.2322426,-3.5155864,-3.541058
1.52,8.251038,13.097136,15.365914,5.1558733,-3.511815,-3.5567846
1.522,8.393673,12.928275,15.357691,5.077532,-3.5111701,-3.5729504
1.524,8.535976,12.762236,15.352711,4.9972134,-3.5136132,-3.5895662
1.526,8.677315,12.598748,15.35095,4.914915,-3.5189562,-3.60668
1.528,8.817213,12.437417,15.352193,4.830642,-3.5268984,-3.6243882
1.53,8.955354,12.277814,15.35588,4.7444143,-3.5369914,-3.6427875
1.532,9.091179,12.119541,15.361582,4.656269,-3.5487309,-3.661996
1.534,9.22435,11.961889,15.368637,4.5662975,-3.5615196,-3.6821232
1.536,9.354833,11.804375,15.376578,4.4746037,-3.5747705,-3.7032552
1.538,9.482191,11.6464405,15.384703,4.381319,-3.5878973,-3.725452
1.54,9.606299,11.4875555,15.392225,4.2866106,-3.60033,-3.7487454
1.542,9.727218,11.327201,15.39838,4.1906295,-3.6115706,-3.7731266
1.544,9.84504,11.164894,15.402376,4.0935497,-3.6211646,-3.798526
1.546,9.960081,11.000088,15.403336,3.9955513,-3.6287026,-3.824853
1.548,10.072603,10.832254,15.400222,3.8968015,-3.6338172,-3.8519938
1.55,10.183067,10.660994,15.3920965,3.7974613,-3.636229,-3.8798044
1.552,10.29198,10.485976,15.378124,3.6977112,-3.6357303,-3.9081001
1.554,10.399866,10.306679,15.357628,3.5977352,-3.6321888,-3.9367034
1.556,10.50736,10.1228,15.329836,3.497716,-3.625558,-3.9654303
1.558,10.615049,9.93409,15.2939415,3.3978128,-3.6159036,-3.994121
1.56,10.72382,9.74017,15.249256,3.2981725,-3.6034,-4.0226254
1.562,10.834345,9.540844,15.195092,3.1989043,-3.5883007,-4.0508385
1.564,10.947586,9.33587,15.131077,3.1001039,-3.570947,-4.0786757
1.566,11.064071,9.124925,15.05704,3.0018594,-3.551727,-4.106065
1.568,11.18444,8.907923,14.972859,2.9042335,-3.5310264,-4.132952
1.57,11.309255,8.684828,14.878381,2.8072977,-3.509221,-4.1592793
1.572,11.438866,8.455556,14.773613,2.7111182,-3.4866407,-4.184968
1.574,11.573764,8.220085,14.658663,2.615738,-3.463557,-4.2099366
1.576,11.714035,7.9784565,14.533674,2.5211868,-3.440189,-4.234079
1.578,11.859772,7.730695,14.398911,2.4274793,-3.4167182,-4.257271
1.58,12.010907,7.4770403,14.254927,2.3346179,-3.393302,-4.279359
1.582,12.166877,7.21777,14.102401,2.2426004,-3.3700652,-4.3001933
1.584,12.327403,6.9530797,13.942057,2.1514244,-3.3471365,-4.3196263
1.586,12.491938,6.6833534,13.774557,2.0610695,-3.3246198,-4.3375006
1.588,12.660149,6.4087687,13.600393,1.9715297,-3.3026388,-4.353645
1.59,12.83141,6.129702,13.419922,1.8828268,-3.281302,-4.367898
1.592,13.005219,5.8463693,13.233556,1.7950084,-3.2607455,-4.380097
1.594,13.181001,5.5590773,13.041784,1.7081418,-3.2411022,-4.3900723
1.596,13.357991,5.268085,12.845307,1.6223329,-3.222479,-4.3976846
1.598,13.535524,4.973726,12.64467,1.5376928,-3.2049787,-4.4028115
1.6,13.712807,4.6763844,12.440448,1.4543333,-3.1886816,-4.4053454
1.602,13.88922,4.3762937,12.233282,1.372354,-3.1736407,-4.4052043
1.604,14.064062,4.073688,12.023676,1.2918446,-3.159855,-4.4023566
1.606,14.23668,3.76903,11.811964,1.2128811,-3.1472924,-4.396782
1.608,14.406398,3.462582,11.598549,1.1355292,-3.135888,-4.3884497
1.61,14.572529,3.1548033,11.383732,1.0598327,-3.1255217,-4.377293
1.612,14.73465,2.8460236,11.167973,0.9858742,-3.116022,-4.3632154
1.614,14.892028,2.5368056,10.951744,0.9137243,-3.1071825,-4.3460746
1.616,15.04406,2.2275124,10.735752,0.8434974,-3.098738,-4.3256783
1.618,15.19025,1.9186659,10.520644,0.7752969,-3.0903568,-4.301804
1.62,15.329902,1.6110749,10.307136,0.70925295,-3.081651,-4.274214
1.622,15.462339,1.3053269,10.095939,0.64552045,-3.0721836,-4.242673
1.624,15.5871725,1.002409,9.887714,0.5842463,-3.0614438,-4.206977
1.626,15.703878,0.7030444,9.683322,0.52560556,-3.048891,-4.166975
1.628,15.812123,0.40793705,9.4833145,0.46979213,-3.0339537,-4.1225567
1.63,15.911435,0.11787701,9.288316,0.4169718,-3.0160608,-4.07369
1.632,16.001648,-0.1663599,9.098855,0.36731577,-2.994646,-4.0204215
1.634,16.082346,-0.4440608,8.915393,0.3209685,-2.9692206,-3.9628754
1.636,16.153437,-0.7145343,8.738562,0.2780546,-2.9393728,-3.901233
1.638,16.214643,-0.9771633,8.56884,0.23866844,-2.9047778,-3.8357177
1.64,16.266079,-1.2312703,8.406498,0.20287335,-2.8652046,-3.7666142
1.642,16.30805,-1.4764333,8.251589,0.17066574,-2.8205276,-3.6942468
1.644,16.340788,-1.7123137,8.104195,0.14198315,-2.7706957,-3.618943
1.646,16.36448,-1.9387212,7.964182,0.116720796,-2.715722,-3.5410454
1.648,16.379358,-2.1554766,7.831572,0.0947454,-2.6556687,-3.4608932
1.65,16.385712,-2.3626857,7.7061014,0.075876474,-2.5906339,-3.3787982
1.652,16.383688,-2.56048,7.587525,0.059918404,-2.5207314,-3.295061
1.654,16.373453,-2.7489934,7.475396,0.046664238,-2.4460936,-3.2099717
1.656,16.355001,-2.9283557,7.3691454,0.035892367,-2.3668594,-3.1237888
1.658,16.328234,-3.0987825,7.2684774,0.027371407,-2.2832358,-3.036755
1.66,16.293175,-3.2605667,7.1729255,0.02084291,-2.1954951,-2.9491026
1.662,16.249592,-3.4141107,7.0819664,0.016049862,-2.1039853,-2.8610466
1.664,16.197214,-3.5594873,6.9951873,0.012753785,-2.0091364,-2.7728012
1.666,16.135763,-3.697021,6.912222,0.010708988,-1.9114366,-2.6845548
1.668,16.064837,-3.8269553,6.8327875,0.009696901,-1.8114004,-2.5964813
1.67,15.983674,-3.949494,6.756592,0.009520531,-1.7095649,-2.5087607
1.672,15.891867,-4.064613,6.683576,0.010029376,-1.606463,-2.421557
1.674,15.788696,-4.1724224,6.6134644,0.011094809,-1.5026059,-2.3350215
1.676,15.673656,-4.2729945,6.546195,0.012583017,-1.3984973,-2.2492883
1.678,15.546156,-4.366409,6.481503,0.014376879,-1.2946739,-2.164502
1.68,15.405517,-4.4527497,6.419357,0.016341805,-1.1916668,-2.0808218
1.682,15.251326,-4.532137,6.359646,0.01831916,-1.0900679,-1.9984134
1.684,15.082771,-4.6045933,6.3024797,0.020129561,-0.9905115,-1.9174536
1.686,14.899304,-4.670166,6.2480364,0.021572888,-0.89369583,-1.8381319
1.688,14.700703,-4.7288847,6.196354,0.022413552,-0.80033195,-1.7606333
1.69,14.486768,-4.78096,6.14728,0.022437185,-0.7111371,-1.6851174
1.692,14.257601,-4.8264756,6.1007385,0.02141735,-0.6267978,-1.6117321
1.694,14.013019,-4.865413,6.0564513,0.019173816,-0.5479168,-1.5405774
1.696,13.753152,-4.8979435,6.0142956,0.015548989,-0.47497052,-1.4717107
1.698,13.47817,-4.9243317,5.9742827,0.010438785,-0.4083084,-1.4051415
1.7,13.188288,-4.9449763,5.9365106,0.0037755966,-0.3481145,-1.3408389
1.702,12.883848,-4.960072,5.900978,-0.0044682696,-0.29439372,-1.2787417
1.704,12.565361,-4.969949,5.8674717,-0.014278933,-0.24702716,-1.2187887
1.706,12.233377,-4.9748774,5.835745,-0.025616981,-0.20575711,-1.1609126
1.708,11.888854,-4.9752464,5.8056617,-0.03841888,-0.17022124,-1.1050601
1.71,11.532683,-4.971591,5.777022,-0.052596282,-0.13999182,-1.0511922
1.712,11.165742,-4.964138,5.7495275,-0.068051785,-0.1145602,-0.9992976
1.714,10.789188,-4.9533362,5.7230296,-0.08467442,-0.09339662,-0.949406
1.716,10.404207,-4.9397616,5.697333,-0.10234833,-0.07594015,-0.9015722
1.718,10.012097,-4.923724,5.6722345,-0.120962724,-0.061657377,-0.8558655
1.72,9.614163,-4.905718,5.647781,-0.1404115,-0.05004198,-0.81236786
1.722,9.211751,-4.8860507,5.6239395,-0.1605872,-0.040640183,-0.77117383
1.724,8.806307,-4.864936,5.600805,-0.18137778,-0.033053644,-0.732371
1.726,8.399229,-4.842678,5.578344,-0.20268832,-0.026918843,-0.696066
1.728,7.9920187,-4.819404,5.5565724,-0.22443932,-0.021951728,-0.6623865
1.73,7.586246,-4.795553,5.5355196,-0.2465646,-0.017900713,-0.6314543
1.732,7.183352,-4.7712293,5.515237,-0.2690178,-0.01458279,-0.60339737
1.734,6.784622,-4.746746,5.4957438,-0.2917633,-0.011903003,-0.578319
1.736,6.3912716,-4.7220845,5.4772763,-0.31476903,-0.009823054,-0.5562991
1.738,6.0044928,-4.697301,5.4600368,-0.33800316,-0.008377552,-0.5373998
1.74,5.6253734,-4.6724586,5.44424,-0.36143842,-0.0076480955,-0.5216308
1.742,5.254803,-4.6476755,5.430137,-0.38502163,-0.007766083,-0.508979
1.744,4.8934097,-4.623034,5.4178658,-0.4087317,-0.008873507,-0.49940944
1.746,4.5419083,-4.5986958,5.407477,-0.4325242,-0.011106595,-0.49283096
1.748,4.2008767,-4.5746446,5.398911,-0.45636302,-0.014569506,-0.48912516
1.75,3.870479,-4.5510283,5.392269,-0.48019356,-0.019307107,-0.4881486
1.752,3.5507753,-4.527915,5.3876214,-0.5039732,-0.025272429,-0.4897324
1.754,3.241794,-4.5053205,5.3852735,-0.5276658,-0.03235568,-0.49367297
1.756,2.9430442,-4.483322,5.3854322,-0.5512291,-0.040364057,-0.49976486
1.758,2.6542335,-4.461913,5.3884315,-0.5746326,-0.04900694,-0.5077749
1.76,2.3746834,-4.441101,5.3948045,-0.5978451,-0.057954967,-0.51745194
1.762,2.1036308,-4.4209104,5.404835,-0.620847,-0.06686318,-0.528524
1.764,1.8401381,-4.4013176,5.4190145,-0.64361537,-0.07540351,-0.54073703
1.766,1.583098,-4.382217,5.438002,-0.6661266,-0.08327687,-0.5538152
1.768,1.3315278,-4.3635263,5.462232,-0.6883621,-0.09023279,-0.5674746
1.77,1.0841022,-4.3450937,5.4923563,-0.7102994,-0.096060574,-0.58144563
1.772,0.83934414,-4.326556,5.5287538,-0.7318912,-0.100578845,-0.59545946
1.774,0.5958867,-4.307522,5.5719204,-0.7530849,-0.103633374,-0.60925215
1.776,0.352108,-4.2877154,5.622511,-0.77381915,-0.10507822,-0.6225698
1.778,0.10623956,-4.266418,5.6811185,-0.79402506,-0.10475448,-0.63517845
1.78,-0.14315104,-4.243049,5.7484646,-0.81362206,-0.10248965,-0.64684933
1.782,-0.3978312,-4.21688,5.8250766,-0.8325162,-0.09804663,-0.6573512
1.784,-0.65940046,-4.18699,5.9114366,-0.85060036,-0.09116405,-0.66647387
1.786,-0.9296222,-4.1523657,6.007821,-0.867795,-0.081505805,-0.6739798
1.788,-1.2098256,-4.1119723,6.114498,-0.88404346,-0.068712234,-0.67962885
1.79,-1.5015798,-4.064482,6.231468,-0.89931047,-0.05240938,-0.683163
1.792,-1.8059827,-4.008495,6.3586617,-0.9135746,-0.03222263,-0.68429023
1.794,-2.1239533,-3.942744,6.495739,-0.9268296,-0.0077760518,-0.6827054
1.796,-2.456233,-3.8657103,6.642131,-0.9390717,0.021289378,-0.6780827
1.798,-2.8034434,-3.7758179,6.797481,-0.9502705,0.05534172,-0.67010623
1.8,-3.1659691,-3.6715074,6.9613996,-0.9603791,0.09476712,-0.65847933
1.802,-3.5438592,-3.5515752,7.1334686,-0.9693247,0.1400055,-0.64293486
1.804,-3.9368844,-3.4146044,7.313302,-0.97700095,0.19152,-0.62324744
1.806,-4.344588,-3.25927,7.5001054,-0.9832647,0.24981537,-0.5992415
1.808,-4.7662067,-3.084154,7.692947,-0.9879526,0.31543964,-0.5708229
1.81,-5.200407,-2.8880696,7.8909507,-0.9909086,0.38893133,-0.537953
1.812,-5.646161,-2.6699371,8.093274,-0.9919882,0.47077274,-0.50070655
1.814,-6.101957,-2.4289708,8.299016,-0.99110144,0.56138974,-0.4592575
1.816,-6.566221,-2.164373,8.507279,-0.98823094,0.6611014,-0.41388398
1.818,-7.0376825,-1.8754544,8.717138,-0.9834415,0.77009904,-0.364952
1.82,-7.514612,-1.5617733,8.927527,-0.97688395,0.8884214,-0.3129386
1.822,-7.995437,-1.2232258,9.137497,-0.96879256,1.0159663,-0.25841188
1.824,-8.478988,-0.85961723,9.345999,-0.9594783,1.15249,-0.20198408
1.826,-8.964173,-0.4708085,9.551915,-0.94930345,1.2976642,-0.1443339
1.828,-9.450063,-0.0569911,9.7542,-0.93865234,1.4510789,-0.086197436
1.83,-9.935994,0.38178682,9.951477,-0.9279388,1.6122293,-0.028322192
1.832,-10.421522,0.8451922,10.142516,-0.917629,1.7805045,0.02850559
1.834,-10.906387,1.3326578,10.326061,-0.9081981,1.9551661,0.083476566
1.836,-11.390684,1.843863,10.50088,-0.90015006,2.1353292,0.13576607
1.838,-11.874571,2.3780894,10.6657,-0.89399153,2.3199263,0.18452263
1.84,-12.358473,2.9348526,10.819299,-0.8902018,2.5077229,0.22885421
1.842,-12.842787,3.5133524,10.960514,-0.8892373,2.6973166,0.26788247
1.844,-13.327643,4.1127224,11.088122,-0.8914969,2.8871903,0.30069312
1.846,-13.813261,4.7320194,11.200946,-0.89731157,3.075725,0.32638907
1.848,-14.299598,5.3701468,11.298109,-0.9069166,3.2612796,0.34404862
1.85,-14.786439,6.0258436,11.378937,-0.92046106,3.4422717,0.35276955
1.852,-15.273234,6.697757,11.442804,-0.9379798,3.6171901,0.35167775
1.854,-15.759376,7.384334,11.489301,-0.95942116,3.7846289,0.3399243
1.856,-16.243519,8.083814,11.51805,-0.984622,3.9433045,0.3166949
1.858,-16.724682,8.794296,11.528769,-1.013371,4.0920467,0.28123942
1.86,-17.200756,9.51347,11.521269,-1.0453997,4.229764,0.23286808
1.862,-17.669586,10.238984,11.495364,-1.0804149,4.3554,0.17097905
1.864,-18.128866,10.968634,11.450929,-1.1181384,4.467907,0.095071614
1.866,-18.575651,11.699813,11.388096,-1.1583173,4.566251,0.0047689974
1.868,-19.007189,12.42973,11.30691,-1.2007433,4.6493635,-0.10017261
1.87,-19.420694,13.155647,11.207778,-1.2452476,4.71618,-0.2198543
1.872,-19.813412,13.874555,11.091401,-1.2917256,4.76563,-0.35423088
1.874,-20.182684,14.583637,10.95858,-1.3401046,4.796691,-0.5031085
1.876,-20.526178,15.28019,10.810232,-1.3903731,4.8083925,-0.6661638
1.878,-20.841713,15.961363,10.647467,-1.4425657,4.799823,-0.84294844
1.88,-21.127234,16.624374,10.471413,-1.4967657,4.7701583,-1.0328914
1.882,-21.380993,17.266464,10.283631,-1.5530908,4.718684,-1.2353325
1.884,-21.601748,17.885109,10.085615,-1.6117004,4.644865,-1.4495447
1.886,-21.788288,18.477959,9.879204,-1.6727358,4.548295,-1.6747234
1.888,-21.939758,19.042618,9.666543,-1.7363521,4.428754,-1.910006
1.89,-22.055851,19.576996,9.449843,-1.8026725,4.2862225,-2.154452
1.892,-22.136414,20.079185,9.231667,-1.8718379,4.1209564,-2.4070494
1.894,-22.181583,20.547356,9.0146475,-1.9439517,3.933487,-2.6667242
1.896,-22.19164,20.980003,8.801419,-2.019057,3.7246614,-2.9323683
1.898,-22.167412,21.375772,8.594627,-2.0971606,3.4956532,-3.2028496
1.9,-22.109585,21.733248,8.396901,-2.1782107,3.2479749,-3.4770358
1.902,-22.019379,22.051477,8.210781,-2.262119,2.983416,-3.7537506
1.904,-21.89795,22.32961,8.038624,-2.348728,2.7040064,-4.0318656
1.906,-21.746414,22.567081,7.8826294,-2.4378462,2.4119997,-4.31029
1.908,-21.566181,22.76347,7.74428,-2.5292509,2.1098106,-4.588009
1.91,-21.358467,22.918545,7.6248426,-2.622686,1.7999425,-4.8640413
1.912,-21.124756,23.032482,7.5253024,-2.7178607,1.4849757,-5.137459
1.914,-20.866465,23.105515,7.446084,-2.8144886,1.1675234,-5.4073677
1.916,-20.584822,23.138353,7.387549,-2.912263,0.85022175,-5.672941
1.918,-20.281029,23.131771,7.349369,-3.0108514,0.53571486,-5.9334
1.92,-19.956934,23.086845,7.3309526,-3.1099048,0.22664142,-6.1880355
1.922,-19.612854,23.004925,7.331289,-3.2090511,-0.07438612,-6.4362116
1.924,-19.24977,22.887234,7.349053,-3.3078818,-0.3647654,-6.677354
1.926,-18.868828,22.735506,7.383004,-3.405941,-0.6419134,-6.9109488
1.928,-18.470428,22.551632,7.431084,-3.5027227,-0.9033208,-7.1365576
1.93,-18.054844,22.33786,7.49143,-3.5976276,-1.1465499,-7.3538237
1.932,-17.622189,22.096554,7.562055,-3.6899803,-1.3692515,-7.562497
1.934,-17.172375,21.830282,7.6404514,-3.7790365,-1.5692432,-7.7623897
1.936,-16.704588,21.541567,7.724308,-3.8639884,-1.7445416,-7.9534116
1.938,-16.218128,21.233078,7.811463,-3.943985,-1.8933995,-8.135565
1.94,-15.712025,20.907606,7.8999414,-4.0181828,-2.0143733,-8.308969
1.942,-15.18505,20.567924,7.9879527,-4.0857697,-2.1063738,-8.473852
1.944,-14.635735,20.21694,8.073961,-4.14601,-2.1687405,-8.630543
1.946,-14.062279,19.85734,8.15646,-4.198218,-2.2013032,-8.77947
1.948,-13.462987,19.4919,8.234372,-4.2418313,-2.2043746,-8.921139
1.95,-12.836077,19.123081,8.306803,-4.276412,-2.1787581,-9.05611
1.952,-12.179779,18.753485,8.373129,-4.301626,-2.1257627,-9.184959
1.954,-11.492547,18.385517,8.432873,-4.317282,-2.0471122,-9.30834
1.956,-10.773155,18.021454,8.485794,-4.3233,-1.9449081,-9.426958
1.958,-10.020446,17.663448,8.53215,-4.3197193,-1.8215356,-9.541511
1.96,-9.233585,17.313576,8.5722065,-4.306666,-1.6796505,-9.652716
1.962,-8.412262,16.973692,8.606716,-4.2843757,-1.5220599,-9.761329
1.964,-7.5563326,16.645676,8.6367035,-4.2531643,-1.3516588,-9.868156
1.966,-6.6665277,16.33129,8.663474,-4.213392,-1.1713729,-9.974022
1.968,-5.7434015,16.032331,8.688584,-4.1654363,-0.9840641,-10.079763
1.97,-4.7885385,15.750828,8.713814,-4.1096883,-0.79248047,-10.186193
1.972,-3.8037705,15.488703,8.741091,-4.046487,-0.5992284,-10.294113
1.974,-2.7909758,15.247839,8.772067,-3.9761415,-0.40674686,-10.404249
1.976,-1.7527232,15.030392,8.808715,-3.8988922,-0.21732044,-10.51726
1.978,-0.6915773,14.83857,8.853081,-3.8149083,-0.03314638,-10.633734
1.98,0.39008904,14.674613,8.9071665,-3.724327,0.14359903,-10.754184
1.982,1.4898375,14.541121,8.973094,-3.6272326,0.310719,-10.879033
1.984,2.6053653,14.440558,9.052945,-3.5237057,0.4659071,-11.008624
1.986,3.7346578,14.375621,9.148536,-3.413879,0.60672665,-11.14322
1.988,4.875825,14.34847,9.261419,-3.2979245,0.73062706,-11.28305
1.99,6.026986,14.361536,9.392716,-3.1761441,0.8349633,-11.428282
1.992,7.1866465,14.417316,9.544399,-3.048962,0.9170575,-11.579023
1.994,8.354864,14.516624,9.716488,-2.9169424,0.97431374,-11.735341
1.996,9.5307045,14.661063,9.908227,-2.7807965,1.0042801,-11.897216
1.998,10.712272,14.852451,10.122685,-2.641374,1.0047731,-12.064568
2,11.899937,15.092003,10.36222,-2.499698,0.97389174,-12.237192
2.002,13.098162,15.378204,10.625233,-2.3569,0.91008234,-12.414747
2.004,14.306149,15.711704,10.910133,-2.2142048,0.8121433,-12.596769
2.006,15.524328,16.09329,11.221103,-2.0729291,0.67924976,-12.782669
2.008,16.757591,16.518667,11.556555,-1.9344014,0.51095295,-12.971632
2.01,18.006758,16.987938,11.916153,-1.7999465,0.30714417,-13.16272
2.012,19.274471,17.497643,12.301077,-1.6708467,0.068078995,-13.3548155
2.014,20.563475,18.043703,12.711382,-1.5482712,-0.20566702,-13.546653
2.016,21.874294,18.623993,13.149853,-1.4332767,-0.51321363,-13.736826
2.018,23.210278,19.233936,13.6166725,-1.3267748,-0.85341835,-13.923902
2.02,24.574106,19.869656,14.111954,-1.2295365,-1.2249236,-14.106399
2.022,25.966757,20.527672,14.636159,-1.1421869,-1.626277,-14.282892
2.024,27.390406,21.203241,15.188923,-1.0651593,-2.0557446,-14.451931
2.026,28.846725,21.890438,15.771095,-0.99877834,-2.5115793,-14.612126
2.028,30.33349,22.587284,16.385983,-0.94324446,-2.9921327,-14.762384
2.03,31.852112,23.28879,17.034685,-0.89857626,-3.495465,-14.901699
2.032,33.403378,23.9902,17.71669,-0.864593,-4.0193152,-15.028963
2.034,34.985847,24.688698,18.432259,-0.8410897,-4.561568,-15.143169
2.036,36.59816,25.381405,19.180586,-0.8277507,-5.1202087,-15.24357
2.038,38.23859,26.064613,19.961699,-0.8240819,-5.6925297,-15.329135
2.04,39.904064,26.735413,20.77486,-0.82964325,-6.2760444,-15.399017
2.042,41.591423,27.391047,21.61843,-0.843812,-6.8680825,-15.452444
2.044,43.297203,28.028694,22.490866,-0.8658829,-7.4656787,-15.488632
2.046,45.01848,28.645987,23.389906,-0.8950572,-8.065815,-15.506979
2.048,46.750713,29.240871,24.312454,-0.9303813,-8.66528,-15.506849
2.05,48.490128,29.810629,25.254843,-0.9708605,-9.260912,-15.487688
2.052,50.2316,30.352518,26.213058,-1.0154085,-9.849426,-15.449085
2.054,51.9702,30.864035,27.182056,-1.0628862,-10.427479,-15.390726
2.056,53.700882,31.342491,28.157614,-1.1121149,-10.991616,-15.312262
2.058,55.418186,31.785275,29.13469,-1.1618891,-11.538477,-15.213555
2.06,57.117355,32.189682,30.108213,-1.2108641,-12.0646,-15.0944395
2.062,58.793533,32.553402,31.073698,-1.2575841,-12.566841,-14.954675
2.064,60.44208,32.87442,32.026585,-1.300581,-13.042429,-14.793975
2.066,62.05895,33.15052,32.962173,-1.3383598,-13.489071,-14.612115
2.068,63.640957,33.37974,33.876198,-1.3695154,-13.905052,-14.408847
2.07,65.18404,33.56052,34.765305,-1.3926702,-14.289318,-14.183952
2.072,66.68583,33.69143,35.626144,-1.4065099,-14.641495,-13.937273
2.074,68.14392,33.771317,36.455856,-1.4097614,-14.961767,-13.668728
2.076,69.5565,33.799927,37.251648,-1.4011488,-15.250914,-13.378222
2.078,70.92218,33.77782,38.010666,-1.3795052,-15.5102005,-13.065852
2.08,72.23951,33.70625,38.73105,-1.3436499,-15.740972,-12.731814
2.082,73.50786,33.58757,39.41162,-1.292409,-15.944648,-12.376221
2.084,74.72668,33.425526,40.052258,-1.2246284,-16.122883,-11.999325
2.086,75.89585,33.225502,40.653336,-1.1391397,-16.277414,-11.601597
2.088,77.015785,32.994675,41.215813,-1.0346062,-16.409538,-11.183329
2.09,78.087135,32.741646,41.74109,-0.90965676,-16.52043,-10.744641
2.092,79.11102,32.476765,42.230793,-0.762949,-16.611668,-10.285952
2.094,80.08926,32.212936,42.687218,-0.5930152,-16.684269,-9.80751
2.096,81.023895,31.964333,43.113842,-0.39865828,-16.739346,-9.309609
2.098,81.918144,31.747662,43.51482,-0.17882788,-16.778118,-8.792741
2.1,82.77545,31.581337,43.895863,0.067323565,-16.801533,-8.257406
2.102,83.59937,31.484928,44.262814,0.34031242,-16.810616,-7.7043304
2.104,84.39278,31.480728,44.624046,0.64047223,-16.806301,-7.134284
2.106,85.159775,31.591064,44.987297,0.96785897,-16.789661,-6.5479484
2.108,85.90675,31.837833,45.35856,1.3223112,-16.76194,-5.946053
2.11,86.63629,32.245327,45.746254,1.7034798,-16.724504,-5.3293514
2.112,87.352455,32.838245,46.162205,2.1108947,-16.678751,-4.698404
2.114,88.065956,33.6378,46.612144,2.5438728,-16.62628,-4.053818
2.116,88.782684,34.666817,47.0964,3.0016444,-16.568598,-3.3963027
2.118,89.505775,35.951714,47.626152,3.4834244,-16.50714,-2.7264934
2.12,90.241325,37.51407,48.21129,3.9883184,-16.443329,-2.0449166
2.122,90.98645,39.38962,48.853645,4.515335,-16.378616,-1.3520693
2.124,91.75058,41.602966,49.553104,5.063259,-16.314445,-0.64828086
2.126,92.56055,44.14921,50.32032,5.6306934,-16.252003,0.06635523
2.128,93.40959,47.068398,51.170097,6.2160807,-16.192244,0.7920395
2.13,94.30708,50.354485,52.098618,6.8176494,-16.135794,1.5292352
2.132,95.253525,54.018173,53.090153,7.43354,-16.082949,2.2787814
2.134,96.26344,58.066906,54.13735,8.061868,-16.033527,3.0419717
2.136,97.33464,62.50265,55.242985,8.700741,-15.986684,3.8204582
2.138,98.47836,67.32338,56.397217,9.348262,-15.940844,4.6163445
2.14,99.721436,72.512794,57.605694,10.002584,-15.893602,5.4319887
2.142,101.05996,78.09302,58.82014,10.662089,-15.841158,6.2699695
2.144,102.49681,84.06317,60.0174,11.325417,-15.778781,7.133174
2.146,103.94534,90.420105,61.215088,11.99142,-15.700628,8.024686
2.148,105.39016,97.08844,62.50832,12.659001,-15.59971,8.947649
2.15,106.83202,104.01125,63.947033,13.32742,-15.467717,9.905371
2.152,108.31333,111.11266,65.58586,13.996497,-15.2951765,10.900942
2.154,109.98747,118.378174,67.31971,14.665968,-15.071805,11.937649
2.156,111.87941,125.787674,69.06558,15.335133,-14.785792,13.020748
2.158,113.91479,133.33913,70.739395,16.003534,-14.424939,14.155855
2.16,116.09079,140.97562,72.37485,16.672523,-13.974279,15.350079
2.162,118.424225,148.63959,73.96976,17.343235,-13.415937,16.60937
2.164,120.91765,156.21387,75.59832,18.013624,-12.734017,17.938978
2.166,123.57977,163.59067,77.29937,18.681215,-11.909264,19.344784
2.168,126.44272,170.72926,79.09575,19.343582,-10.917513,20.832644
2.17,129.54648,177.60945,80.999435,19.995884,-9.7345915,22.408178
2.172,132.91644,184.1545,82.978294,20.631733,-8.33844,24.069912
2.174,136.57436,190.27275,84.992584,21.242643,-6.7100105,25.806805
2.176,140.53331,195.84567,87.008064,21.819956,-4.8240256,27.597717
2.178,144.8143,200.7884,89.009026,22.349747,-2.6592405,29.420427
2.18,149.4462,205.04831,90.96425,22.814013,-0.20123053,31.252548
2.182,154.41522,208.58072,92.83447,23.196945,2.5636404,33.05942
2.184,159.72858,211.33359,94.59039,23.477587,5.625551,34.794945
2.186,165.37492,213.29868,96.17962,23.637865,8.957696,36.411827
2.188,171.36603,214.46996,97.49844,23.665567,12.524604,37.85709
2.19,177.69951,214.8402,98.445724,23.550907,16.283749,39.07141
2.192,184.34348,214.40349,98.95274,23.285616,20.182217,39.98993
2.194,191.26262,213.20184,98.94829,22.859219,24.127151,40.542862
2.196,198.40451,211.30048,98.364685,22.285229,28.032734,40.711746
2.198,205.71095,208.76471,97.1225,21.591185,31.809723,40.510696
2.2,213.10864,205.6578,95.15352,20.814383,35.36403,39.96515
2.202,220.51923,202.03883,92.39556,19.998901,38.601162,39.097813
2.204,227.83705,197.97685,88.79151,19.187986,41.43145,37.926514
2.206,234.94662,193.55804,84.30102,18.418854,43.773804,36.469845
2.208,241.73528,188.85924,78.90942,17.72004,45.568,34.74537
2.21,248.08313,183.94885,72.62128,17.11039,46.78612,32.760643
2.212,253.86198,178.89519,65.46051,16.596575,47.4343,30.511776
2.214,258.9485,173.75757,57.47501,16.17154,47.55007,27.984402
2.216,263.22995,168.58113,48.747364,15.822884,47.203682,25.162125
2.218,266.6111,163.40709,39.378983,15.535539,46.49162,22.032152
2.22,269.00702,158.26205,29.493568,15.285241,45.513428,18.595373
2.222,270.351,153.15509,19.234665,15.034869,44.35915,14.877647
2.224,270.59958,148.0915,8.772263,14.739706,43.1019,10.935685
2.226,269.73517,143.08444,-1.7082062,14.351345,41.787327,6.859887
2.228,267.76575,138.15486,-12.022949,13.815936,40.42444,2.7649555
2.23,264.72775,133.31563,-21.98059,13.075938,38.976494,-1.2169657
2.232,260.6869,128.56615,-31.378922,12.080011,37.37994,-4.9504833
2.234,255.71924,123.92974,-40.03167,10.785776,35.554333,-8.303777
2.236,249.9112,119.4571,-47.7866,9.16147,33.409897,-11.150981
2.238,243.39664,115.151855,-54.506744,7.197155,30.878101,-13.390854
2.24,236.30176,111.06163,-60.060417,4.9017677,27.911469,-14.964073
2.242,228.76762,107.213745,-64.342896,2.3081083,24.488585,-15.8498125
2.244,220.92421,103.6352,-67.29947,-0.5244217,20.625593,-16.064821
2.246,212.9149,100.35106,-68.92416,-3.5181975,16.385946,-15.660078
2.248,204.86324,97.376656,-69.2327,-6.581293,11.894712,-14.715257
2.25,196.87132,94.73543,-68.282684,-9.630801,7.2839,-13.366697
2.252,189.06175,92.415344,-66.116714,-12.579694,2.7082176,-11.755029
2.254,181.53925,90.42825,-62.8451,-15.340197,-1.6639936,-9.998255
2.256,174.45369,88.78647,-58.63831,-17.830326,-5.666132,-8.189351
2.258,167.84517,87.550934,-53.73194,-19.977404,-9.1477165,-6.409312
2.26,161.72531,86.72915,-48.299072,-21.723553,-11.985254,-4.736598
2.262,156.06448,86.32289,-42.51111,-23.031466,-14.095421,-3.2377033
2.264,150.75597,86.26387,-36.410046,-23.887655,-15.440287,-1.9544754
2.266,145.84016,86.49756,-30.110233,-24.300735,-16.02259,-0.90387917
2.268,141.41545,86.9626,-23.752655,-24.298855,-15.882804,-0.080480576
2.27,137.46729,87.65435,-17.581017,-23.92983,-15.096715,0.5400071
2.272,133.95311,88.557526,-11.7654915,-23.25415,-13.764866,0.9962182
2.274,130.83939,89.69479,-6.506222,-22.336464,-12.000837,1.3323722
2.276,128.08047,91.05313,-1.9177113,-21.23981,-9.925936,1.5913746
2.278,125.611244,92.55283,1.9346371,-20.026672,-7.6619473,1.8110521
2.28,123.36948,94.11726,5.0187073,-18.758518,-5.323071,2.0232427
2.282,121.31496,95.736565,7.35524,-17.488094,-3.0075727,2.2516549
2.284,119.412346,97.408325,8.969734,-16.25861,-0.792408,2.5052714
2.286,117.633865,99.14212,9.882229,-15.104344,1.2663321,2.7772112
2.288,115.94287,100.905075,10.103132,-14.050826,3.1328993,3.048472
2.29,114.299904,102.642105,9.669596,-13.115234,4.7900705,3.2937167
2.292,112.701996,104.307625,8.632284,-12.306418,6.235609,3.487183
2.294,111.11848,105.876564,7.037776,-11.628071,7.4762635,3.607043
2.296,109.5317,107.29773,4.9585495,-11.080855,8.523955,3.6389287
2.298,107.90083,108.54079,2.5038862,-10.661127,9.392761,3.577635
2.3,106.20204,109.59273,-0.2399633,-10.359385,10.095779,3.4272602
2.302,104.43399,110.44897,-3.2252383,-10.164538,10.6443815,3.2006261
2.304,102.58812,111.07338,-6.396529,-10.066821,11.04808,2.9182582
2.306,100.66284,111.43324,-9.696196,-10.056983,11.3142805,2.604527
2.308,98.6525,111.5188,-13.0519,-10.126386,11.448601,2.2816534
2.31,96.557526,111.33655,-16.399757,-10.267388,11.454912,1.9672945
2.312,94.37617,110.90279,-19.675667,-10.4734955,11.336235,1.6757848
2.314,92.124725,110.22662,-22.815453,-10.739296,11.095951,1.4179566
2.316,89.81804,109.308105,-25.764307,-11.059267,10.737535,1.1979957
2.318,87.46167,108.16184,-28.480648,-11.427224,10.265037,1.0154843
2.32,85.067566,106.81044,-30.926378,-11.836271,9.684527,0.8700806
2.322,82.655594,105.27335,-33.066544,-12.278395,9.004691,0.7621404
2.324,80.24131,103.575966,-34.873558,-12.74419,8.236631,0.69190097
2.326,77.836266,101.750145,-36.334877,-13.222857,7.3938246,0.6597345
2.328,75.44629,99.82402,-37.438847,-13.702539,6.4922466,0.66638947
2.33,73.08422,97.83052,-38.180317,-14.170822,5.55024,0.7127807
2.332,70.759254,95.808365,-38.560116,-14.615482,4.5875573,0.7989702
2.334,68.479225,93.78804,-38.591187,-15.025118,3.6243284,0.92330813
2.336,66.25169,91.78333,-38.29418,-15.389742,2.680293,1.0827494
2.338,64.081505,89.801796,-37.689636,-15.701105,1.7741299,1.2733188
2.34,61.9713,87.859924,-36.80622,-15.95295,0.92269564,1.490345
2.342,59.922337,85.97873,-35.680447,-16.140985,0.14053535,1.7288041
2.344,57.935753,84.16849,-34.34153,-16.262661,-0.5602393,1.9834023
2.346,56.01197,82.43582,-32.815628,-16.31689,-1.1699984,2.2487187
2.348,54.15184,80.79375,-31.134054,-16.30392,-1.6815815,2.519514
2.35,52.357254,79.25438,-29.331879,-16.225153,-2.0901985,2.7909856
2.352,50.630707,77.825775,-27.442774,-16.083,-2.3933635,3.058907
2.354,48.972134,76.516174,-25.49681,-15.880696,-2.5906653,3.319705
2.356,47.3825,75.334045,-23.521559,-15.622257,-2.6836598,3.570407
2.358,45.862923,74.28664,-21.546465,-15.312359,-2.6757045,3.808576
2.36,44.411694,73.37511,-19.602304,-14.9564,-2.5719142,4.0323186
2.362,43.026173,72.59081,-17.716934,-14.5604725,-2.379054,4.240131
2.364,41.699154,71.92274,-15.914489,-14.13123,-2.1054149,4.430885
2.366,40.427826,71.3567,-14.214217,-13.675791,-1.7606165,4.60383
2.368,39.209232,70.88088,-12.630319,-13.201612,-1.3554146,4.7585196
2.37,38.041668,70.4862,-11.172512,-12.7162895,-0.9013193,4.8948307
2.372,36.925125,70.16419,-9.847766,-12.227261,-0.41020182,5.012939
2.374,35.860554,69.90729,-8.660547,-11.74166,0.10606271,5.113287
2.376,34.849403,69.70727,-7.613394,-11.26614,0.6358897,5.1966124
2.378,33.892857,69.554886,-6.706542,-10.806627,1.1684004,5.2639112
2.38,32.99208,69.44043,-5.9384956,-10.368166,1.6938636,5.316457
2.382,32.147324,69.35344,-5.3055573,-9.95475,2.203993,5.3558044
2.384,31.357811,69.28382,-4.8024936,-9.569253,2.692162,5.3837013
2.386,30.622322,69.22217,-4.4228964,-9.21343,3.1534574,5.4020104
2.388,29.939804,69.15974,-4.1594286,-8.88798,3.584658,5.4125967
2.39,29.307102,69.08845,-4.004385,-8.592627,3.9841073,5.4171596
2.392,28.721094,69.00186,-3.9499636,-8.3263235,4.351486,5.4171143
2.394,28.17948,68.89364,-3.987042,-8.087426,4.687545,5.413487
2.396,27.678614,68.758675,-4.1062517,-7.8739204,4.993832,5.4067388
2.398,27.214487,68.59223,-4.2988563,-7.6836333,5.2723656,5.3967037
2.4,26.782879,68.39025,-4.557403,-7.5144444,5.5254326,5.382641
2.402,26.378735,68.14936,-4.875407,-7.364394,5.755396,5.36327
2.404,25.996561,67.86717,-5.2464466,-7.2318087,5.9645004,5.3369493
2.406,25.630836,67.541885,-5.663958,-7.115295,6.15481,5.301962
2.408,25.275625,67.17227,-6.1222243,-7.0136633,6.328131,5.256768
2.41,24.924809,66.758156,-6.616489,-6.925867,6.486023,5.20029
2.412,24.573324,66.29952,-7.142094,-6.8508883,6.6298313,5.13216
2.414,24.216076,65.79744,-7.69488,-6.7875547,6.7608323,5.0528297
2.416,23.848217,65.253815,-8.271181,-6.734418,6.880313,4.963641
2.418,23.465454,64.671036,-8.867963,-6.68968,6.989611,4.8666525
2.42,23.064285,64.05197,-9.482341,-6.6512485,7.0903254,4.7644215
2.422,22.64161,63.399742,-10.11201,-6.6166625,7.1842594,4.659805
2.424,22.195786,62.71794,-10.755213,-6.5832605,7.2734485,4.555567
2.426,21.72601,62.010075,-11.410537,-6.5484014,7.3601255,4.4540043
2.428,21.232246,61.279686,-12.07687,-6.509533,7.4466352,4.3567753
2.43,20.714926,60.530487,-12.75347,-6.4643803,7.5352955,4.264799
2.432,20.1755,59.765953,-13.440051,-6.4111075,7.6281624,4.178196
2.434,19.615345,58.98954,-14.136419,-6.348402,7.726857,4.0963545
2.436,19.036716,58.20444,-14.842556,-6.2755394,7.8324575,4.0180845
2.438,18.442564,57.413467,-15.55858,-6.192385,7.9453106,3.9418867
2.44,17.835958,56.61937,-16.284382,-6.0993567,8.064995,3.866139
2.442,17.2198,55.824768,-17.019962,-5.9972906,8.190235,3.7893224
2.444,16.597689,55.031734,-17.765045,-5.8873777,8.3188925,3.7101839
2.446,15.973415,54.241825,-18.519045,-5.7710066,8.448137,3.6278267
2.448,15.350498,53.456074,-19.281143,-5.6496563,8.574527,3.5417383
2.45,14.731947,52.675,-20.050407,-5.524808,8.694187,3.4517653
2.452,14.120949,51.89846,-20.825798,-5.3978586,8.803146,3.358043
2.454,13.520433,51.1258,-21.605684,-5.2700667,8.897495,3.2608967
2.456,12.933134,50.356018,-22.387953,-5.1425424,8.9735985,3.1607444
2.458,12.361425,49.587543,-23.170492,-5.0161967,9.028395,3.0579636
2.46,11.807247,48.818913,-23.950623,-4.891776,9.059458,2.9528096
2.462,11.272055,48.048584,-24.725712,-4.769907,9.065073,2.845355
2.464,10.757391,47.274696,-25.493076,-4.6510806,9.044241,2.7355042
2.466,10.264467,46.495567,-26.25012,-4.5356665,8.99668,2.622987
2.468,9.793875,45.709785,-26.994534,-4.4239445,8.922686,2.5073485
2.47,9.34642,44.915863,-27.72382,-4.3161097,8.8230095,2.3880365
2.472,8.922064,44.112347,-28.43607,-4.2122846,8.698763,2.2644715
2.474,8.520189,43.29811,-29.129444,-4.1125073,8.55121,2.1361117
2.476,8.140829,42.471535,-29.80182,-4.0168095,8.381772,2.0025027
2.478,7.7829437,41.630985,-30.451424,-3.9251823,8.191874,1.863394
2.48,7.445406,40.775295,-31.076607,-3.8375182,7.982861,1.7188361
2.482,7.1270466,39.903446,-31.675713,-3.753699,7.755954,1.5691237
2.484,6.8260336,39.014862,-32.247074,-3.6735497,7.512246,1.414768
2.486,6.5403385,38.109592,-32.78907,-3.5968652,7.2527566,1.2565088
2.488,6.268132,37.187954,-33.300064,-3.5233746,6.978405,1.0952818
2.49,6.0072556,36.250763,-33.77816,-3.4527292,6.690033,0.9321108
2.492,5.755619,35.29953,-34.221115,-3.3845587,6.3884544,0.76800776
2.494,5.510994,34.336136,-34.626503,-3.3184862,6.0744953,0.60390663
2.496,5.271594,33.362663,-34.9918,-3.2541466,5.749037,0.4406097
2.498,5.0349417,32.3816,-35.314445,-3.1911767,5.413018,0.27873778
2.5,4.8001614,31.3958,-35.5917,-3.1292467,5.0674076,0.11875391
2.502,4.5665817,30.407484,-35.821087,-3.0680547,4.713276,-0.039034367
2.504,4.3324585,29.419832,-36.00077,-3.0072954,4.351772,-0.19444585
2.506,4.0973673,28.435596,-36.128853,-2.9466698,3.9840796,-0.34741986
2.508,3.8610659,27.457548,-36.20379,-2.8858454,3.6114924,-0.49793875
2.51,3.6235838,26.488441,-36.22453,-2.8244596,3.2354295,-0.6459726
2.512,3.3853254,25.530699,-36.190582,-2.7621222,2.8573456,-0.7914897
2.514,3.146759,24.586586,-36.102287,-2.6984015,2.4787688,-0.9344517
2.516,2.9085398,23.658318,-35.960213,-2.6328118,2.1013033,-1.0747867
2.518,2.6716452,22.747972,-35.76551,-2.564845,1.7266185,-1.2123958
2.52,2.43744,21.857439,-35.519604,-2.4939542,1.3563938,-1.3471524
2.522,2.2068167,20.988546,-35.224586,-2.419575,0.9923421,-1.4788768
2.524,1.9814386,20.142975,-34.88297,-2.3411157,0.63616586,-1.6073594
2.526,1.7626209,19.3223,-34.49774,-2.2579594,0.28953636,-1.7323613
2.528,1.5520039,18.527637,-34.07203,-2.1694868,-0.04599285,-1.8536371
2.53,1.3512716,17.760437,-33.609436,-2.075087,-0.369012,-1.9709537
2.532,1.1620398,17.021908,-33.11361,-1.974205,-0.67831975,-2.0841136
2.534,0.98544645,16.313452,-32.58821,-1.8663741,-0.9729849,-2.1929598
2.536,0.822979,15.636284,-32.03695,-1.7512591,-1.2523558,-2.2974308
2.538,0.6758299,14.991521,-31.46333,-1.6286769,-1.5161184,-2.3975506
2.54,0.54537106,14.380074,-30.870792,-1.4986075,-1.7642936,-2.4934497
2.542,0.43237877,13.803069,-30.262405,-1.3611958,-1.9971958,-2.5853755
2.544,0.3381343,13.261145,-29.641327,-1.2167315,-2.2153687,-2.6736538
2.546,0.2635579,12.754741,-29.010292,-1.0655934,-2.4195383,-2.7586963
2.548,0.20946646,12.284422,-28.371523,-0.90823877,-2.6105545,-2.8409877
2.55,0.17605019,11.850251,-27.726894,-0.7451743,-2.789284,-2.921036
2.552,0.16392612,11.452044,-27.077616,-0.5769546,-2.9565842,-2.9993496
2.554,0.17290688,11.089699,-26.424706,-0.40414846,-3.113241,-3.0764487
2.556,0.20286894,10.762822,-25.768715,-0.22730625,-3.2599607,-3.1527934
2.558,0.25344563,10.470768,-25.109861,-0.04697126,-3.3973522,-3.2287905
2.56,0.32444096,10.212921,-24.448292,0.13630646,-3.5259054,-3.304776
2.562,0.41540003,9.988124,-23.783966,0.32197106,-3.6460457,-3.3810694
2.564,0.5255461,9.795146,-23.116478,0.5094677,-3.7581322,-3.4579387
2.566,0.6540985,9.632553,-22.4454,0.6982461,-3.8624449,-3.5355756
2.568,0.80011463,9.498667,-21.769947,0.8877656,-3.9592113,-3.6141076
2.57,0.9624176,9.391546,-21.089201,1.0775063,-4.0486417,-3.6936228
2.572,1.1394525,9.309284,-20.401985,1.2670233,-4.130905,-3.774176
2.574,1.3298702,9.249883,-19.707174,1.4559305,-4.2061152,-3.8557758
2.576,1.5322428,9.211011,-19.003649,1.6439354,-4.274331,-3.938398
2.578,1.7450747,9.190397,-18.29047,1.8308489,-4.33552,-4.0219736
2.58,1.9666657,9.185581,-17.566803,2.016623,-4.3895187,-4.106381
2.582,2.1951618,9.194425,-16.831999,2.2013612,-4.4360323,-4.191456
2.584,2.4291162,9.214625,-16.08575,2.385332,-4.4745965,-4.276992
2.586,2.6665978,9.243984,-15.328136,2.568985,-4.5046167,-4.362739
2.588,2.9059348,9.280846,-14.5595,2.7529054,-4.525314,-4.448393
2.59,3.1456265,9.323221,-13.780413,2.9378285,-4.5357637,-4.5336084
2.592,3.3841004,9.369277,-12.991808,3.1246276,-4.5349455,-4.618021
2.594,3.6200333,9.417442,-12.194861,3.3142776,-4.5217805,-4.7012243
2.596,3.8521466,9.466278,-11.391431,3.5078058,-4.495202,-4.782813
2.598,4.0792503,9.514785,-10.583492,3.7062597,-4.4542465,-4.8624115
2.6,4.300191,9.56184,-9.773542,3.9106264,-4.3980966,-4.939668
2.602,4.51407,9.606591,-8.964388,4.1217666,-4.3261633,-5.0142746
2.604,4.7202005,9.648504,-8.15905,4.340357,-4.2381544,-5.086029
2.606,4.91788,9.6871,-7.360938,4.5668287,-4.1341352,-5.154814
2.608,5.1067133,9.722076,-6.5735674,4.801319,-4.0145507,-5.2205706
2.61,5.286294,9.753475,-5.8006887,5.0436425,-3.880243,-5.283283
2.612,5.45623,9.781668,-5.0460367,5.293331,-3.732379,-5.3429375
2.614,5.6166477,9.806989,-4.3132515,5.5496774,-3.572385,-5.3995066
2.616,5.7673197,9.829974,-3.605738,5.8117533,-3.4019098,-5.4528894
2.618,5.908514,9.851153,-2.926598,6.0784955,-3.2226934,-5.5028973
2.62,6.0401926,9.871299,-2.278719,6.348746,-3.0365183,-5.549248
2.622,6.162532,9.891429,-1.6647365,6.621321,-2.8451293,-5.5915523
2.624,6.2760563,9.912511,-1.0866206,6.8950453,-2.6502595,-5.629322
2.626,6.3812737,9.93565,-0.5462383,7.1687183,-2.453586,-5.6619987
2.628,6.478558,9.962102,-0.04452914,7.4411926,-2.2567763,-5.6889796
2.63,6.5684657,9.993195,0.41784614,7.7113457,-2.0615501,-5.7097054
2.632,6.651643,10.030402,0.8407494,7.9780493,-1.8697317,-5.7236958
2.634,6.72886,10.075082,1.2245806,8.24015,-1.6832824,-5.7305527
2.636,6.8010855,10.128641,1.5701535,8.496521,-1.5042657,-5.729997
2.638,6.8690634,10.192879,1.8789885,8.746039,-1.334867,-5.721888
2.64,6.933703,10.269135,2.1526284,8.9876175,-1.177315,-5.706233
2.642,6.9959335,10.358889,2.3931744,9.220229,-1.0338262,-5.6831937
2.644,7.056988,10.463551,2.6031837,9.442936,-0.9065256,-5.653056
2.646,7.1178646,10.584445,2.7852347,9.654891,-0.79732335,-5.616192
2.648,7.17972,10.72301,2.9421678,9.855335,-0.7078285,-5.5730567
2.65,7.24362,10.88059,3.0768387,10.043615,-0.6393186,-5.5241494
2.652,7.3108177,11.058163,3.1923475,10.219192,-0.59265184,-5.470026
2.654,7.382511,11.256367,3.291947,10.381631,-0.56826603,-5.411329
2.656,7.4598246,11.475724,3.3786218,10.530638,-0.5661806,-5.3487873
2.658,7.5437684,11.716466,3.455072,10.665996,-0.58603454,-5.283227
2.66,7.6354647,11.978992,3.5238974,10.787613,-0.62711656,-5.215599
2.662,7.735726,12.263437,3.5874178,10.895481,-0.68842924,-5.1469803
2.664,7.8455906,12.569254,3.6478946,10.989642,-0.7688138,-5.078574
2.666,7.9659944,12.895582,3.7070384,11.070173,-0.8670144,-5.011646
2.668,8.097718,13.241494,3.7665567,11.137144,-0.9817481,-4.9474573
2.67,8.241179,13.605545,3.8278503,11.190643,-1.1116751,-4.887247
2.672,8.396991,13.986418,3.89212,11.230732,-1.2554476,-4.832149
2.674,8.565465,14.382368,3.959947,11.257469,-1.4117031,-4.7831073
2.676,8.747012,14.791396,4.031675,11.270912,-1.5790389,-4.7408175
2.678,8.94183,15.21138,4.107419,11.271135,-1.7560081,-4.7057443
2.68,9.150161,15.640067,4.187013,11.258256,-1.9411284,-4.678092
2.682,9.372467,16.07491,4.2701654,11.232351,-2.132935,-4.6578417
2.684,9.608412,16.513515,4.356627,11.193495,-2.3300185,-4.644735
2.686,9.857804,16.953463,4.4460263,11.14179,-2.5310483,-4.638272
2.688,10.120473,17.39232,4.5380006,11.077379,-2.7348895,-4.6377754
2.69,10.396376,17.827745,4.631845,11.00041,-2.9406042,-4.6424794
2.692,10.685434,18.257069,4.727069,10.911042,-3.147469,-4.651615
2.694,10.9873085,18.677843,4.823223,10.809435,-3.3549955,-4.664466
2.696,11.301563,19.087818,4.9198046,10.695686,-3.562929,-4.6804075
2.698,11.627906,19.484783,5.016553,10.569901,-3.771272,-4.6989613
2.7,11.965908,19.866688,5.1132593,10.432144,-3.9802082,-4.719844
2.702,12.315179,20.231522,5.2098236,10.282543,-4.1901,-4.743
2.704,12.675182,20.577469,5.3060565,10.121208,-4.401443,-4.768558
2.706,13.045372,20.902718,5.402236,9.948269,-4.614876,-4.7968407
2.708,13.425375,21.20546,5.4983864,9.76386,-4.8311486,-4.8283205
2.71,13.814589,21.484104,5.5948553,9.568092,-5.051083,-4.8636045
2.712,14.212489,21.737278,5.6920905,9.361048,-5.2755985,-4.9033794
2.714,14.618573,21.963402,5.7905474,9.142719,-5.5056615,-4.9483523
2.716,15.03224,22.161171,5.8910875,8.913028,-5.742307,-4.9992256
2.718,15.453066,22.329412,5.994339,8.671839,-5.9864864,-5.056661
2.72,15.8805065,22.466923,6.101147,8.418933,-6.239112,-5.1212163
2.722,16.314095,22.57251,6.212245,8.1540985,-6.5009437,-5.193326
2.724,16.7533,22.645332,6.3286166,7.877139,-6.7725196,-5.273233
2.726,17.197638,22.684788,6.4507365,7.587989,-7.0541434,-5.3609676
2.728,17.646715,22.69037,6.578898,7.2867703,-7.345784,-5.4563956
2.73,18.100182,22.661493,6.7134595,6.973831,-7.647062,-5.559202
2.732,18.557528,22.597935,6.8546515,6.6497574,-7.957254,-5.668903
2.734,19.018185,22.49952,7.002198,6.3153844,-8.275316,-5.784878
2.736,19.481503,22.366524,7.155821,5.971768,-8.599951,-5.906403
2.738,19.947104,22.199474,7.3147244,5.6201034,-8.929632,-6.0327344
2.74,20.414822,21.998669,7.4780235,5.261615,-9.2627,-6.163174
2.742,20.884308,21.764357,7.6448135,4.897532,-9.5974245,-6.29704
2.744,21.354939,21.496906,7.813793,4.5290213,-9.932062,-6.4336653
2.746,21.826332,21.197134,7.983415,4.1571755,-10.264906,-6.572395
2.748,22.298143,20.865362,8.151985,3.783017,-10.594301,-6.712615
2.75,22.770067,20.502121,8.318035,3.4074712,-10.918635,-6.8537865
2.752,23.240723,20.10854,8.479736,3.0313249,-11.2363825,-6.9953675
2.754,23.709244,19.685093,8.635327,2.6552362,-11.546099,-7.1368365
2.756,24.174494,19.232605,8.782946,2.2797484,-11.846411,-7.277692
2.758,24.634851,18.752113,8.920803,1.9053154,-12.136023,-7.417422
2.76,25.088968,18.244766,9.047216,1.532342,-12.413631,-7.555454
2.762,25.535316,17.711908,9.160799,1.1611867,-12.677957,-7.6911473
2.764,25.972492,17.155355,9.260453,0.7922201,-12.927725,-7.8237867
2.766,26.398798,16.576794,9.345656,0.425869,-13.161633,-7.9526367
2.768,26.81255,15.977532,9.416229,0.06269884,-13.378307,-8.076864
2.77,27.21191,15.359068,9.472007,-0.29664612,-13.576306,-8.195677
2.772,27.594616,14.723404,9.513071,-0.6513581,-13.7541065,-8.308243
2.774,27.958172,14.072768,9.539906,-1.0004692,-13.910099,-8.413668
2.776,28.300411,13.409349,9.553307,-1.3428311,-14.042672,-8.511082
2.778,28.618647,12.73523,9.554235,-1.677186,-14.150172,-8.599684
2.78,28.910316,12.052858,9.543496,-2.0021977,-14.230942,-8.678734
2.782,29.172325,11.364843,9.522099,-2.3165174,-14.283392,-8.747577
2.784,29.401695,10.673899,9.490896,-2.6188471,-14.306032,-8.805656
2.786,29.595354,9.982902,9.4508095,-2.9079754,-14.29743,-8.852489
2.788,29.750248,9.294701,9.4026375,-3.1828358,-14.25626,-8.8876095
2.79,29.863499,8.612413,9.347321,-3.4425273,-14.181279,-8.910589
2.792,29.932144,7.9393167,9.285511,-3.6863165,-14.071367,-8.920954
2.794,29.953634,7.2786417,9.217842,-3.9136033,-13.925477,-8.918078
2.796,29.92575,6.63383,9.144835,-4.1239433,-13.742752,-8.901197
2.798,29.846632,6.0083113,9.066644,-4.3169513,-13.522624,-8.869244
2.8,29.714794,5.4056196,8.983551,-4.4922028,-13.264813,-8.82087
2.802,29.529444,4.8293395,8.895357,-4.649125,-12.9694395,-8.754511
2.804,29.290453,4.28301,8.8018,-4.7869864,-12.637127,-8.668541
2.806,28.998638,3.7699027,8.702344,-4.904858,-12.268934,-8.5613365
2.808,28.655111,3.2929316,8.596262,-5.0015974,-11.866381,-8.431385
2.81,28.262161,2.8547578,8.482603,-5.0759315,-11.431408,-8.277481
2.812,27.822508,2.4577003,8.360367,-5.126507,-10.966192,-8.098849
2.814,27.339909,2.1034708,8.2284565,-5.1519876,-10.473059,-7.8953614
2.816,26.818739,1.7934804,8.085735,-5.151183,-9.954286,-7.6674995
2.818,26.26379,1.5284152,7.9310102,-5.123148,-9.411976,-7.4163632
2.82,25.680628,1.3083048,7.7631197,-5.0673614,-8.847994,-7.1435843
2.822,25.07498,1.1324382,7.580817,-4.983788,-8.263927,-6.851268
2.824,24.45289,0.9996953,7.382909,-4.872885,-7.6611886,-6.5418167
2.826,23.820627,0.90819263,7.168313,-4.7357187,-7.041129,-6.2179728
2.828,23.184256,0.85548854,6.9362407,-4.5738597,-6.40512,-5.882642
2.83,22.549904,0.8386407,6.686039,-4.3893704,-5.754752,-5.538829
2.832,21.923464,0.8542795,6.4172034,-4.184683,-5.09199,-5.189519
2.834,21.310585,0.89857054,6.1293235,-3.9624968,-4.4192715,-4.837654
2.836,20.716219,0.9674877,5.8225837,-3.725609,-3.7395325,-4.4860644
2.838,20.1449,1.057019,5.4974866,-3.4768543,-3.0562222,-4.1373916
2.84,19.600838,1.1630516,5.154705,-3.2189898,-2.3732266,-3.7940483
2.842,19.087574,1.2811899,4.7952576,-2.9546118,-1.6947143,-3.4581356
2.844,18.607885,1.4075248,4.4203787,-2.6861064,-1.0249912,-3.1313412
2.846,18.164074,1.5379758,4.031634,-2.415636,-0.3683306,-2.8149166
2.848,17.757746,1.6686796,3.6307688,-2.1451473,0.27118075,-2.5096798
2.85,17.389524,1.7968155,3.219634,-1.8763214,0.8898657,-2.2160146
2.852,17.060009,1.9197409,2.8001065,-1.6106185,1.4846046,-1.9339371
2.854,16.768974,2.0352235,2.3742652,-1.3493669,2.0527587,-1.6631477
2.856,16.515944,2.1412902,1.9444029,-1.0937476,2.5923262,-1.4030985
2.858,16.299662,2.236536,1.5126721,-0.84477276,3.1019335,-1.1530606
2.86,16.118801,2.319972,1.0810193,-0.6032942,3.580771,-0.91226417
2.862,15.972297,2.390466,0.65142566,-0.37005553,4.028532,-0.6800138
2.864,15.857892,2.447847,0.22588205,-0.1456967,4.445365,-0.45570958
2.866,15.773494,2.4919257,-0.19353974,0.069222,4.8317437,-0.23887867
2.868,15.716541,2.5225286,-0.6050744,0.27418917,5.188386,-0.029213011
2.87,15.68429,2.5397856,-1.0070959,0.46874297,5.516153,0.17341334
2.872,15.673401,2.5441601,-1.3983176,0.6524296,5.815937,0.36896133
2.874,15.680668,2.5360909,-1.7775717,0.8248288,6.0886183,0.5572387
2.876,15.702822,2.5163596,-2.1439657,0.9855342,6.3349667,0.737947
2.878,15.736549,2.4859998,-2.4964418,1.1341755,6.555701,0.9107797
2.88,15.778906,2.4459116,-2.8337278,1.2704456,6.751464,1.0754658
2.882,15.826871,2.3967493,-3.1546943,1.3941255,6.9228396,1.2318072
2.884,15.877667,2.3394568,-3.4584627,1.5051024,7.0703588,1.379735
2.886,15.928285,2.2751522,-3.7441092,1.6034236,7.19459,1.5193253
2.888,15.976299,2.2048945,-4.0108004,1.6892965,7.2961545,1.6508002
2.89,16.019453,2.1294706,-4.2575345,1.7630844,7.375788,1.7745495
2.892,16.05592,2.049591,-4.4836717,1.8253102,7.4343066,1.8910744
2.894,16.083994,1.9659262,-4.6883054,1.876631,7.472679,2.0009737
2.896,16.102203,1.879106,-4.870917,1.9178064,7.491995,2.104867
2.898,16.109447,1.7898936,-5.0312047,1.9496902,7.4934974,2.2033782
2.9,16.104736,1.6985745,-5.169082,1.9731789,7.4785576,2.297081
2.902,16.087473,1.6055524,-5.284544,1.9891993,7.448634,2.3864596
2.904,16.057285,1.5112424,-5.377838,1.9986588,7.4052505,2.4718943
2.906,16.014069,1.4157827,-5.44944,2.0024502,7.349979,2.5536375
2.908,15.9579525,1.3193874,-5.4999747,2.0014179,7.284387,2.6318276
2.91,15.889256,1.2221179,-5.530347,1.9963375,7.209999,2.706479
2.912,15.8084545,1.1239762,-5.541386,1.9879069,7.128285,2.7775364
2.914,15.716234,1.024931,-5.5343294,1.9767461,7.040604,2.8448467
2.916,15.612994,0.9250245,-5.5103445,1.9633784,6.9482126,2.9082458
2.918,15.499851,0.82406235,-5.470848,1.9482453,6.85222,2.967564
2.92,15.377386,0.72225046,-5.417299,1.9317032,6.7535563,3.0226326
2.922,15.246562,0.6195035,-5.351167,1.9140321,6.652956,3.07334
2.924,15.108306,0.51576424,-5.2740526,1.895423,6.5509543,3.1196344
2.926,14.963474,0.41091013,-5.187575,1.8760229,6.4478593,3.1615202
2.928,14.813086,0.30494595,-5.093194,1.8559211,6.3437657,3.199092
2.93,14.657856,0.19792032,-4.992407,1.8351688,6.2385716,3.2325225
2.932,14.49857,0.08993578,-4.8865676,1.8137844,6.1319695,3.2620585
2.934,14.335976,-0.019061089,-4.776836,1.7917504,6.023506,3.2879777
2.936,14.170914,-0.12888336,-4.6643567,1.7690552,5.912633,3.3105915
2.938,14.003868,-0.23950577,-4.55019,1.7456923,5.7987547,3.3302088
2.94,13.835564,-0.35073185,-4.4352217,1.7216427,5.6812477,3.3471298
2.942,13.666409,-0.46230745,-4.3199906,1.6969173,5.5595083,3.3616052
2.944,13.497118,-0.57409334,-4.2052803,1.671543,5.433022,3.3738227
2.946,13.32805,-0.6858382,-4.091433,1.6455923,5.3014035,3.3839247
2.948,13.159576,-0.7973337,-3.9788656,1.6191671,5.1643653,3.3919864
2.95,12.992172,-0.9083462,-3.8677883,1.5923827,5.021766,3.39803
2.952,12.826176,-1.0185254,-3.758346,1.565382,4.873598,3.4020448
2.954,12.662049,-1.1276786,-3.6504207,1.5383373,4.7199907,3.4040089
2.956,12.500082,-1.235481,-3.5440822,1.5114247,4.561213,3.4039001
2.958,12.340469,-1.3416471,-3.4391868,1.484821,4.397639,3.4016736
2.96,12.183604,-1.4460781,-3.335623,1.4587069,4.2297487,3.3973053
2.962,12.029482,-1.5484378,-3.2331767,1.4332453,4.0580854,3.3907878
2.964,11.878646,-1.6484833,-3.131672,1.4086013,3.8832557,3.382144
2.966,11.731105,-1.7460518,-3.0309815,1.3849212,3.705901,3.3713927
2.968,11.587222,-1.8409,-2.9309757,1.3623238,3.5266786,3.3585887
2.97,11.4470415,-1.9328263,-2.8314517,1.340923,3.3462353,3.3437803
2.972,11.310801,-2.021592,-2.7322485,1.3208184,3.1652083,3.3270326
2.974,11.178772,-2.1069841,-2.6333807,1.302084,2.9842114,3.3084369
2.976,11.051023,-2.188868,-2.534839,1.2847767,2.8038397,3.288064
2.978,10.927815,-2.2669616,-2.4366188,1.2689565,2.6246526,3.2660065
2.98,10.809224,-2.3412063,-2.338822,1.2546613,2.4471874,3.242364
2.982,10.695399,-2.411334,-2.2415135,1.2419045,2.2719343,3.217231
2.984,10.586332,-2.4770796,-2.1447787,1.2306986,2.099371,3.190718
2.986,10.482153,-2.538348,-2.0486994,1.2210708,1.9299395,3.1629431
2.988,10.383004,-2.5948496,-1.9534416,1.2130282,1.7640563,3.1340346
2.99,10.2887335,-2.646392,-1.8592674,1.206563,1.6021104,3.104134
2.992,10.19952,-2.6927857,-1.7662923,1.201679,1.4444606,3.073403
2.994,10.115256,-2.733919,-1.6746836,1.1983602,1.291436,3.0419786
2.996,10.035937,-2.7695684,-1.5846455,1.196592,1.1433185,3.0100071
2.998,9.961514,-2.7995954,-1.4963315,1.1963384,1.0003518,2.9776313
3,9.891895,-2.823721,-1.4099531,1.1975678,0.86273146,2.9449701
3.002,9.827004,-2.8418572,-1.325624,1.2002299,0.7306143,2.9121373
3.004,9.766766,-2.8538828,-1.2435457,1.2042739,0.6040961,2.8792214
3.006,9.710906,-2.8595617,-1.1638863,1.2096266,0.48322982,2.846299
3.008,9.659337,-2.8588903,-1.0867594,1.2161978,0.36800283,2.8134263
3.01,9.611901,-2.851629,-1.0122385,1.2238911,0.25835776,2.7806463
3.012,9.568338,-2.8376765,-0.94045115,1.232603,0.1542027,2.7479715
3.014,9.528757,-2.8169405,-0.8715374,1.242219,0.055403672,2.7154052
3.016,9.492779,-2.789287,-0.805556,1.2526249,-0.038215905,2.6829317
3.018,9.460201,-2.7545826,-0.7424261,1.2636971,-0.12686098,2.650518
3.02,9.430965,-2.7127585,-0.68231016,1.2753077,-0.21077465,2.6181092
3.022,9.405025,-2.6636581,-0.6251429,1.2873471,-0.29019627,2.5856369
3.024,9.382165,-2.6072454,-0.57091,1.2997055,-0.36538652,2.5530422
3.026,9.362511,-2.5434453,-0.51948875,1.3122587,-0.43661857,2.520248
3.028,9.345835,-2.4719996,-0.47102118,1.3249166,-0.504174,2.48719
3.03,9.332262,-2.393064,-0.4252596,1.337585,-0.5683199,2.453828
3.032,9.321791,-2.306627,-0.3823126,1.3501841,-0.6293283,2.4201436
3.034,9.314471,-2.2126265,-0.34199512,1.3626461,-0.6874614,2.38613
3.036,9.310285,-2.1110704,-0.3042556,1.3749377,-0.7429662,2.351829
3.038,9.30917,-2.0019903,-0.26906836,1.3870244,-0.79608417,2.317294
3.04,9.31141,-1.8855374,-0.23633301,1.3988862,-0.847036,2.282584
3.042,9.317202,-1.7619023,-0.205966,1.4105353,-0.89604735,2.247769
3.044,9.32653,-1.6311789,-0.17786324,1.4220059,-0.94331956,2.212916
3.046,9.339424,-1.4935255,-0.15201044,1.4333189,-0.9890466,2.1780534
3.048,9.356257,-1.3492513,-0.12834895,1.4445063,-1.0334227,2.1432185
3.05,9.377065,-1.1986582,-0.10677588,1.4555836,-1.0766335,2.1084194
3.052,9.402083,-1.0421,-0.08730626,1.4665587,-1.1188687,2.0736237
3.054,9.431252,-0.8797407,-0.06982076,1.477407,-1.1603075,2.0387876
3.056,9.465086,-0.7121141,-0.054264784,1.4880937,-1.2011536,2.003844
3.058,9.503621,-0.5397153,-0.04053378,1.4985533,-1.2416017,1.9687016
3.06,9.546961,-0.3629465,-0.028592467,1.5087299,-1.281871,1.9332535
3.062,9.595412,-0.18238688,-0.018367767,1.5185452,-1.3221681,1.8973707
3.064,9.649018,0.0014386177,-0.009885788,1.5279249,-1.3627214,1.8609267
3.066,9.708139,0.18795061,-0.0030286312,1.5367913,-1.4037664,1.8237861
3.068,9.773043,0.37665033,0.002239585,1.5450639,-1.4455353,1.7858123
3.07,9.843761,0.5668688,0.0059690475,1.5526822,-1.4882566,1.7468435
3.072,9.9207325,0.7580137,0.008249998,1.5595875,-1.5321536,1.7067335
3.074,10.004057,0.94948435,0.009050131,1.565721,-1.5774455,1.6653298
3.076,10.09391,1.1407084,0.008497477,1.5710344,-1.6243569,1.6224705
3.078,10.190447,1.3311281,0.0065898895,1.575475,-1.6730725,1.57801
3.08,10.293826,1.520191,0.003395319,1.5790149,-1.7237753,1.5318062
3.082,10.404263,1.7072809,-0.0010375977,1.5816088,-1.7766452,1.4837259
3.084,10.52175,1.8918352,-0.0066871643,1.5832404,-1.8318546,1.4336823
3.086,10.646359,2.0734594,-0.013443947,1.5838815,-1.8895644,1.3815987
3.088,10.778143,2.2515886,-0.021416426,1.5835035,-1.9499353,1.3274474
3.09,10.917062,2.4258661,-0.030348301,1.5820744,-2.0131283,1.2712204
3.092,11.062972,2.5958426,-0.04041195,1.5795696,-2.0792956,1.2129688
3.094,11.21573,2.7612166,-0.05141735,1.5759413,-2.1485958,1.1527879
3.096,11.375135,2.9216485,-0.063405514,1.5711092,-2.2211885,1.0907904
3.098,11.540925,3.0769076,-0.0761652,1.5649906,-2.2972448,1.0271266
3.1,11.712694,3.2267613,-0.08962059,1.5574875,-2.3769352,0.9619752
3.102,11.890054,3.3709722,-0.10371971,1.5484741,-2.4604323,0.8955188
3.104,12.072559,3.5096037,-0.118266106,1.537826,-2.547912,0.82795286
3.106,12.259571,3.6423764,-0.1331389,1.5254173,-2.6395636,0.75948364
3.108,12.450636,3.769369,-0.1482091,1.5111198,-2.735568,0.6903136
3.11,12.645044,3.8905675,-0.16327667,1.494823,-2.8360882,0.620666
3.112,12.841967,4.0059595,-0.17812777,1.476433,-2.9412777,0.5507709
3.114,13.040865,4.1157026,-0.19267416,1.4558684,-3.0512624,0.4808418
3.116,13.240856,4.2198486,-0.2066164,1.4330691,-3.1661339,0.41110784
3.118,13.441101,4.318561,-0.2197442,1.4079916,-3.285942,0.3417735
3.12,13.64068,4.41199,-0.23179579,1.3806152,-3.410713,0.27302045
3.122,13.838818,4.500242,-0.24250507,1.3509486,-3.5404372,0.20498815
3.124,14.034325,4.5834475,-0.25154638,1.3189931,-3.675053,0.13779843
3.126,14.226481,4.6617894,-0.25862217,1.2847621,-3.8144817,0.071522415
3.128,14.4141445,4.7353263,-0.26349163,1.2482915,-3.9586053,0.00619632
3.13,14.59646,4.8041635,-0.26572275,1.2096199,-4.107273,-0.05816126
3.132,14.772276,4.868408,-0.26500034,1.168795,-4.2603264,-0.12154126
3.134,14.940662,4.9281373,-0.26087475,1.1258755,-4.4175587,-0.18391734
3.136,15.100609,4.983356,-0.25307798,1.0809487,-4.578746,-0.245247
3.138,15.251171,5.0341225,-0.24114275,1.034113,-4.7436266,-0.3054552
3.14,15.391317,5.080514,-0.2249012,0.98548055,-4.911884,-0.36441195
3.142,15.520172,5.122876,-0.20408297,0.9351984,-5.0831556,-0.42196393
3.144,15.636772,5.1612763,-0.17839003,0.8834311,-5.2570095,-0.47790635
3.146,15.740471,5.1958504,-0.14755297,0.8303553,-5.4329643,-0.53203654
3.148,15.830442,5.2268004,-0.111328125,0.77617264,-5.610475,-0.58414054
3.15,15.90589,5.254297,-0.06951761,0.7210988,-5.788954,-0.6340213
3.152,15.966129,5.2784276,-0.021915913,0.6653354,-5.967787,-0.6815287
3.154,16.010769,5.299246,0.031545162,0.6090957,-6.1463604,-0.72656095
3.156,16.039362,5.3168225,0.09111357,0.55258906,-6.3240757,-0.76906776
3.158,16.051456,5.331376,0.15705872,0.49600542,-6.500341,-0.80904686
3.16,16.046795,5.3430347,0.2292695,0.43953335,-6.6745987,-0.84653234
3.162,16.02534,5.3520107,0.3078618,0.3833679,-6.846348,-0.8815923
3.164,15.987093,5.358356,0.39284468,0.32769537,-7.0150933,-0.91431284
3.166,15.932108,5.3623796,0.48411608,0.27271247,-7.1803837,-0.94478536
3.168,15.860636,5.3645077,0.5815687,0.21864069,-7.3417883,-0.97307014
3.17,15.773008,5.364833,0.6850672,0.16574466,-7.4988937,-0.9992082
3.172,15.669646,5.3638964,0.79434824,0.114305496,-7.6512985,-1.0231874
3.174,15.551103,5.3620625,0.9092541,0.064643025,-7.798587,-1.0449584
3.176,15.417997,5.3596325,1.029499,0.017083049,-7.940378,-1.0644097
3.178,15.270944,5.356965,1.1546049,-0.028006434,-8.07635,-1.0814068
3.18,15.110732,5.3545566,1.284337,-0.070255876,-8.20621,-1.0957482
3.182,14.938097,5.3528376,1.4181452,-0.1092968,-8.329708,-1.1072001
3.184,14.753754,5.3522196,1.5556827,-0.14474964,-8.446657,-1.1154923
3.186,14.558612,5.353052,1.696403,-0.17622566,-8.556926,-1.1203341
3.188,14.353348,5.3557463,1.8398123,-0.2033701,-8.660416,-1.1214607
3.19,14.138585,5.3606253,1.985507,-0.22584558,-8.75706,-1.1186273
3.192,13.914953,5.3680954,2.1330037,-0.24333704,-8.846819,-1.1116593
3.194,13.683067,5.378449,2.2818666,-0.25555956,-8.929681,-1.1004653
3.196,13.44342,5.3918114,2.4317188,-0.26225984,-9.0056095,-1.0850203
3.198,13.196575,5.40823,2.5823214,-0.26324344,-9.074604,-1.0654151
3.2,12.9425745,5.4277887,2.7331617,-0.25834346,-9.136624,-1.0417876
3.202,12.681764,5.4504423,2.8840575,-0.24742329,-9.191599,-1.0143204
3.204,12.414238,5.4759398,3.0346029,-0.23036957,-9.239436,-0.9832134
3.206,12.139973,5.504163,3.1846867,-0.20708191,-9.279981,-0.9486532
3.208,11.858832,5.5347786,3.3340902,-0.17745471,-9.313016,-0.91080165
3.21,11.570775,5.567445,3.4826849,-0.14140213,-9.3382635,-0.8697951
3.212,11.275477,5.601959,3.6305182,-0.09882796,-9.355388,-0.82574654
3.214,10.972789,5.637682,3.7775278,-0.049667,-9.363958,-0.77876997
3.216,10.662587,5.674376,3.923923,0.006147325,-9.363479,-0.7289562
3.218,10.344564,5.7114935,4.069839,0.068647206,-9.353382,-0.6764121
3.22,10.018602,5.7486258,4.215466,0.13782442,-9.333058,-0.62124443
3.222,9.684852,5.7853518,4.36106,0.21361661,-9.301838,-0.56359005
3.224,9.343113,5.8211746,4.50705,0.29591137,-9.259022,-0.5036049
3.226,8.993741,5.855659,4.6536174,0.38458663,-9.203891,-0.441422
3.228,8.637046,5.8884068,4.801074,0.47948778,-9.1357155,-0.37714338
3.23,8.273588,5.9188933,4.949751,0.58046675,-9.0537405,-0.3108163
3.232,7.9039855,5.946762,5.0999,0.6873651,-8.957236,-0.24243593
3.234,7.529227,5.971635,5.2516446,0.8000416,-8.845506,-0.17194557
3.236,7.150232,5.993267,5.405212,0.9183538,-8.71789,-0.09923792
3.238,6.7684517,6.011308,5.560754,1.0421745,-8.573783,-0.024151802
3.24,6.3850303,6.0255556,5.7183094,1.1713692,-8.41263,0.053551674
3.242,6.00174,6.0357056,5.8778214,1.3058224,-8.233965,0.13413239
3.244,5.6202345,6.041633,6.0392346,1.4453795,-8.037417,0.2179153
3.246,5.242448,6.0431957,6.202616,1.5898656,-7.822751,0.30522108
3.248,4.8703065,6.040287,6.367754,1.739044,-7.5898695,0.39637065
3.25,4.5059376,6.032842,6.534521,1.892616,-7.338831,0.49166274
3.252,4.1512713,6.0206246,6.70287,2.050231,-7.0698576,0.5913632
3.254,3.808546,6.0036974,6.8725038,2.2114794,-6.7833567,0.6956482
3.256,3.4795976,5.982154,7.0431395,2.3759234,-6.4798822,0.80463743
3.258,3.1665847,5.955933,7.21458,2.543107,-6.1601343,0.9183538
3.26,2.8715663,5.9252954,7.3864703,2.712565,-5.824915,1.0367434
3.262,2.5962956,5.8904424,7.558509,2.8838625,-5.47507,1.1596649
3.264,2.342498,5.8515196,7.730238,3.0565877,-5.1114926,1.2869191
3.266,2.1117775,5.8086815,7.901216,3.230363,-4.735092,1.4182308
3.268,1.9055907,5.7622576,8.07104,3.4048226,-4.3467317,1.5533055
3.27,1.7254179,5.712432,8.239366,3.5796046,-3.9472475,1.6917919
3.272,1.5723068,5.6592245,8.405617,3.7543314,-3.5374656,1.8333477
3.274,1.4471039,5.6028757,8.569525,3.928606,-3.1181414,1.977634
3.276,1.350373,5.543679,8.730511,4.1019797,-2.690039,2.124331
3.278,1.2824297,5.482022,8.888189,4.2739425,-2.2539282,2.2731576
3.28,1.2433776,5.4185286,9.042122,4.443919,-1.8106061,2.4238746
3.282,1.2331731,5.3531504,9.191824,4.611308,-1.3608979,2.5762913
3.284,1.251338,5.286401,9.336523,4.775516,-0.9056578,2.7302687
3.286,1.2970887,5.218816,9.475646,4.9359746,-0.44574392,2.8857465
3.288,1.3693072,5.1509886,9.608478,5.0921807,0.017970085,3.0427425
3.29,1.4666721,5.083701,9.734085,5.2437444,0.4846201,3.2013433
3.292,1.5876203,5.017637,9.851556,5.3904014,0.9533509,3.3616865
3.294,1.7304639,4.953532,9.959805,5.532006,1.4233451,3.523942
3.296,1.8929949,4.8923645,10.057863,5.668507,1.8937773,3.6882677
3.298,2.0729423,4.8354993,10.144192,5.7999496,2.3638763,3.8547716
3.3,2.2676249,4.7842655,10.217534,5.92641,2.8328557,4.0234838
3.302,2.474214,4.740013,10.276698,6.047967,3.299903,4.1942835
3.304,2.6896007,4.7039585,10.320381,6.164653,3.7641346,4.366904
3.306,2.9113078,4.677082,10.347122,6.276452,4.224581,4.5408773
3.308,3.136207,4.6602364,10.355344,6.3832445,4.6801724,4.7155075
3.31,3.361282,4.6543617,10.34335,6.4847903,5.129748,4.889863
3.312,3.5836654,4.6600037,10.30951,6.5807724,5.572089,5.0628343
3.314,3.8004487,4.6778326,10.251909,6.670748,6.005864,5.233158
3.316,4.008847,4.7083755,10.168867,6.7541327,6.429655,5.39942
3.318,4.2059355,4.7521553,10.058746,6.8302217,6.842054,5.5600805
3.32,4.38901,4.8095946,9.920132,6.8981495,7.241637,5.7135134
3.322,4.555924,4.880572,9.751324,6.956925,7.626975,5.8580465
3.324,4.7044554,4.964812,9.551068,7.0053735,7.9966455,5.9919853
3.326,4.832458,5.0619526,9.318264,7.042193,8.34928,6.1136727
3.328,4.9381685,5.171294,9.052024,7.066001,8.683506,6.221525
3.33,5.0205007,5.2918115,8.751919,7.0752907,8.997875,6.3139653
3.332,5.0780997,5.422476,8.417984,7.0685854,9.290919,6.389479
3.334,5.1097198,5.5622087,8.050465,7.0446153,9.561078,6.4467144
3.336,5.114787,5.7093115,7.65043,7.002329,9.806622,6.484537
3.338,5.0929995,5.8617043,7.21918,6.9410124,10.025566,6.5020533
3.34,5.0441484,6.017552,6.7585716,6.860352,10.215714,6.498605
3.342,4.9683433,6.1748085,6.2711945,6.760485,10.374666,6.4737773
3.344,4.866003,6.331262,5.7600927,6.641961,10.499876,6.42745
3.346,4.7377715,6.4846005,5.228673,6.5057077,10.588741,6.3598166
3.348,4.584527,6.6326413,4.680874,6.3529015,10.638744,6.2713466
3.35,4.40753,6.773156,4.120878,6.1848903,10.647605,6.1628504
3.352,4.2081633,6.9040947,3.553142,6.003066,10.613401,6.035559
3.354,3.9880784,7.023723,2.9823496,5.808683,10.534701,5.891181
3.356,3.749005,7.1303897,2.4131417,5.6028776,10.410723,5.7319837
3.358,3.4929523,7.222864,1.8503156,5.3866324,10.241361,5.5607615
3.36,3.2219255,7.3002214,1.2983801,5.1607924,10.027305,5.3807983
3.362,2.9382627,7.3618774,0.7615864,4.926221,9.770005,5.195791
3.364,2.6442013,7.4075084,0.24382627,4.683848,9.471678,5.00953
3.366,2.3422298,7.43719,-0.2512957,4.4347687,9.1352415,4.8256907
3.368,2.034697,7.4514847,-0.7207802,4.180318,8.764303,4.647653
3.37,1.7237931,7.451126,-1.1618496,3.9221196,8.36304,4.4782915
3.372,1.4118922,7.4370956,-1.5723923,3.662073,7.936051,4.3197727
3.374,1.1010193,7.4108,-1.950667,3.4022677,7.4882355,4.173422
3.376,0.79313374,7.373663,-2.2957032,3.1448646,7.0246735,4.03971
3.378,0.49015307,7.327031,-2.6070833,2.8919954,6.550425,3.9183478
3.38,0.19334006,7.272521,-2.8846996,2.6456256,6.070413,3.808403
3.382,-0.096028805,7.211683,-3.1289744,2.4074106,5.5892606,3.7084599
3.384,-0.37672377,7.1458855,-3.340865,2.1787171,5.1112475,3.6169026
3.386,-0.6479708,7.07633,-3.5214949,1.960489,4.64014,3.53198
3.388,-0.9091468,7.0039287,-3.6724734,1.7532139,4.1791778,3.4518905
3.39,-1.1600467,6.929543,-3.7955198,1.5570526,3.7310765,3.374909
3.392,-1.4008908,6.8542576,-3.8923845,1.3718895,3.2980828,3.2995071
3.394,-1.6318198,6.7785654,-3.9648457,1.1974052,2.8819458,3.2243872
3.396,-1.8533201,6.702785,-4.0148296,1.0331266,2.4839532,3.1485176
3.398,-2.066042,6.6270294,-4.0441046,0.8785083,2.1049907,3.0711017
3.4,-2.2708125,6.5512342,-4.0543737,0.73297334,1.7456197,2.991581
3.402,-2.4687467,6.4752274,-4.047235,0.59596837,1.4060575,2.909646
3.404,-2.6609435,6.399025,-4.0241294,0.4669503,1.0862348,2.8252058
3.406,-2.8485081,6.3223195,-3.986658,0.3454156,0.78581893,2.738305
3.408,-3.0325284,6.244644,-3.9356189,0.2309246,0.50424784,2.6491075
3.41,-3.2140155,6.165716,-3.8721719,0.12303901,0.24072006,2.55787
3.412,-3.3940115,6.085469,-3.7974403,0.021325588,-0.0057365596,2.4649305
3.414,-3.5733652,6.0039797,-3.712127,-0.074641824,-0.23623459,2.3707252
3.416,-3.7535222,5.9217024,-3.616754,-0.16530663,-0.45195922,2.2757215
3.418,-3.9351654,5.8391776,-3.511606,-0.25109947,-0.6541122,2.180481
3.42,-4.1187277,5.756693,-3.3967893,-0.3324268,-0.84382373,2.0855742
3.422,-4.30497,5.6747336,-3.2723827,-0.40967143,-1.022136,1.9914849
3.424,-4.494176,5.5935616,-3.1383255,-0.4832164,-1.1899508,1.8986506
3.426,-4.686465,5.5135603,-2.9946527,-0.5534198,-1.3480142,1.8074677
3.428,-4.881732,5.434811,-2.841453,-0.6206064,-1.496891,1.7182945
3.43,-5.079714,5.357408,-2.6787097,-0.6850462,-1.6369714,1.63136
3.432,-5.280409,5.281829,-2.5063057,-0.74696815,-1.7685162,1.5467852
3.434,-5.483469,5.2083836,-2.3243186,-0.8065445,-1.8916488,1.4645815
3.436,-5.688213,5.1370754,-2.1328392,-0.86387044,-2.0063946,1.384659
3.438,-5.894045,5.068129,-1.9319928,-0.91897005,-2.1126945,1.3068316
3.44,-6.100529,5.001576,-1.7220047,-0.9718349,-2.2104392,1.2308638
3.442,-6.306794,4.9372754,-1.5032558,-1.0223788,-2.2995074,1.1564909
3.444,-6.5116353,4.8748617,-1.2762194,-1.0704783,-2.379758,1.0834515
3.446,-6.7143664,4.814314,-1.0415027,-1.1159623,-2.4510741,1.0115129
3.448,-6.914182,4.755645,-0.79975677,-1.158636,-2.5133667,0.9404895
3.45,-7.110029,4.698544,-0.5518048,-1.198287,-2.566575,0.87026757
3.452,-7.3008966,4.6424737,-0.29864478,-1.2347083,-2.6106882,0.8008054
3.454,-7.4859715,4.5872836,-0.041240692,-1.2676907,-2.6457708,0.7321383
3.456,-7.6642227,4.5326433,0.21927118,-1.2970386,-2.671919,0.6643952
3.458,-7.8348265,4.4782352,0.481663,-1.3225802,-2.6892629,0.59774244
3.46,-7.9969425,4.4239364,0.7447467,-1.3441565,-2.6979752,0.532392
3.462,-8.14967,4.3694577,1.0074794,-1.361597,-2.698236,0.46857423
3.464,-8.292353,4.314533,1.2684503,-1.3747613,-2.690247,0.40651572
3.466,-8.424278,4.2591867,1.5264864,-1.3835177,-2.6742132,0.3464088
3.468,-8.545025,4.2032623,1.7804041,-1.3877814,-2.650344,0.28838295
3.47,-8.653849,4.1467543,2.0290172,-1.3874817,-2.6188576,0.23251411
3.472,-8.750429,4.089763,2.2711682,-1.3826109,-2.5799856,0.17878625
3.474,-8.834392,4.0324273,2.505879,-1.3732283,-2.5339713,0.1271191
3.476,-8.905647,3.9748924,2.7320735,-1.3594435,-2.4810722,0.07737842
3.478,-8.964054,3.9173338,2.9488232,-1.3414427,-2.4215736,0.02937746
3.48,-9.009455,3.8598933,3.1551542,-1.3194774,-2.355795,-0.017123878
3.482,-9.041882,3.8027768,3.3501856,-1.2938484,-2.2840886,-0.062398136
3.484,-9.061472,3.7460477,3.5331457,-1.264889,-2.206847,-0.10670631
3.486,-9.068413,3.6899266,3.7033617,-1.2329582,-2.1244767,-0.15031365
3.488,-9.062994,3.6345553,3.8603344,-1.1984185,-2.0374174,-0.19347245
3.49,-9.045522,3.5800543,4.0034556,-1.1616364,-1.9461308,-0.23639107
3.492,-9.016234,3.5266,4.1323557,-1.122948,-1.8510984,-0.2792499
3.494,-8.975747,3.4742222,4.246633,-1.0826693,-1.7528248,-0.32220176
3.496,-8.924355,3.422991,4.346117,-1.0410985,-1.6518154,-0.36535814
