Time_s_,Acc_x_m_s_2_,Acc_y_m_s_2_,Acc_z_m_s_2_,Gyro_x_1_s_,Gyro_y_1_s_,Gyro_z_1_s_
0,0.17180225,-0.17928211,-0.016448472,0.1477342,0.7020776,0.6543429
0.002,0.16144826,-0.18269883,0.027040094,0.14348373,0.7000375,0.6560573
0.004,0.151784,-0.1875647,0.07292998,0.13879025,0.6984154,0.65785986
0.006,0.14379598,-0.1936642,0.11805043,0.13360384,0.6973677,0.65968823
0.008,0.13730048,-0.20097505,0.16341554,0.12789878,0.69704795,0.6614862
0.01,0.13235517,-0.20969886,0.20957378,0.121661425,0.697616,0.66318864
0.012,0.12950894,-0.21992996,0.256173,0.1148777,0.6992079,0.6647024
0.014,0.12858474,-0.23136432,0.30260733,0.1075317,0.7019207,0.6658998
0.016,0.12989669,-0.24388158,0.3486631,0.09961167,0.7057833,0.66663617
0.018,0.13309205,-0.2573978,0.39472577,0.091094285,0.7107469,0.66677344
0.02,0.1383218,-0.27213868,0.44101724,0.08196494,0.7166937,0.66618776
0.022,0.14567205,-0.28820953,0.48752487,0.072202176,0.7234401,0.66477597
0.024,0.15525928,-0.30590424,0.5341867,0.06178084,0.7307403,0.6625029
0.026,0.16699874,-0.32527465,0.58116204,0.05066943,0.73834693,0.6593739
0.028,0.18077269,-0.34619778,0.62847567,0.03860742,0.74595535,0.65547407
0.03,0.19638312,-0.36835596,0.67566985,0.025873244,0.75336486,0.65091854
0.032,0.21353477,-0.39122093,0.7223617,0.012391716,0.76050556,0.64587873
0.034,0.2306447,-0.41357124,0.767512,-0.0019035935,0.76742613,0.6405399
0.036,0.24691182,-0.43524545,0.80973077,-0.017080933,0.7741144,0.63519603
0.038,0.26431453,-0.45747614,0.852225,-0.03316194,0.780645,0.63014853
0.04,0.28089398,-0.47878,0.89826006,-0.05017954,0.78721076,0.625626
0.042,0.29420617,-0.49814212,0.9466194,-0.06827131,0.7940223,0.62183297
0.044,0.3037691,-0.51496655,0.9945129,-0.08762488,0.80127215,0.61888206
0.046,0.30824408,-0.52776444,1.0411013,-0.10841277,0.80908304,0.6168017
0.048,0.3061583,-0.53533804,1.0858757,-0.13077086,0.8175413,0.6154981
0.05,0.2961741,-0.53671414,1.1280544,-0.15476626,0.82662106,0.614729
0.052,0.27748007,-0.53134394,1.1678495,-0.18040156,0.8361279,0.6141185
0.054,0.24911466,-0.51916593,1.2059231,-0.20762968,0.84565127,0.61317724
0.056,0.20988186,-0.500709,1.2444121,-0.23634464,0.8545863,0.6113447
0.058,0.15978312,-0.47645745,1.2808172,-0.26639852,0.8621473,0.60798776
0.06,0.09872099,-0.44697845,1.3145734,-0.29765344,0.8673988,0.6024004
0.062,0.026766678,-0.4127962,1.3457613,-0.33000812,0.86932963,0.5938221
0.064,-0.05546837,-0.3743374,1.3746707,-0.36340284,0.8669362,0.5814865
0.066,-0.14689967,-0.3320857,1.4012206,-0.39773232,0.85944057,0.56485903
0.068,-0.24650359,-0.28654987,1.4249922,-0.43283674,0.8464611,0.5438512
0.07,-0.35292155,-0.23833807,1.4455837,-0.46846867,0.8280621,0.5185025
0.072,-0.46454865,-0.18804017,1.462447,-0.50423825,0.80482125,0.4889651
0.074,-0.57950634,-0.1361568,1.4751508,-0.53961354,0.7777249,0.45599273
0.076,-0.6959863,-0.08346727,1.4832435,-0.573888,0.74807066,0.4208698
0.078,-0.81176496,-0.030961365,1.485773,-0.60619456,0.7175039,0.38504803
0.08,-0.9246995,0.02054941,1.4820011,-0.6355628,0.68785465,0.35009614
0.082,-1.0328727,0.07029106,1.4711996,-0.66098976,0.6610202,0.31757593
0.084,-1.1343406,0.117621616,1.4524974,-0.68146896,0.63880384,0.28881666
0.086,-1.2273787,0.1618893,1.4249663,-0.69613326,0.6226418,0.2648342
0.088,-1.310475,0.20265988,1.3874904,-0.7043098,0.61367565,0.24620858
0.09,-1.3824816,0.23933175,1.3391534,-0.7055197,0.6126947,0.23300835
0.092,-1.4424247,0.27135938,1.2791036,-0.69954437,0.61984265,0.22487924
0.094,-1.4896145,0.2984442,1.2068775,-0.68641967,0.6346653,0.22106531
0.096,-1.5236812,0.32020348,1.1223245,-0.66644025,0.6562613,0.22040178
0.098,-1.5444992,0.33641163,1.0256364,-0.64022744,0.6833697,0.22149056
0.1,-1.5523486,0.34665227,0.917491,-0.60870844,0.7144963,0.22289898
0.102,-1.5472869,0.35072622,0.7987783,-0.5730408,0.7480328,0.22333953
0.104,-1.5301048,0.34851536,0.67063427,-0.5345228,0.78242445,0.22181307
0.106,-1.5019453,0.34001544,0.53569657,-0.49447018,0.81629026,0.21771176
0.108,-1.4630171,0.32479453,0.39557153,-0.45411557,0.8484995,0.21090598
0.11,-1.4143329,0.30327505,0.24846914,-0.4145398,0.8781571,0.20171347
0.112,-1.3570056,0.2757371,0.09611049,-0.37662733,0.9045531,0.19084634
0.114,-1.2927154,0.24224737,-0.054406717,-0.34103593,0.92716646,0.17930938
0.116,-1.2235444,0.20307517,-0.19860968,-0.3081989,0.9456266,0.16820782
0.118,-1.1503955,0.15872729,-0.3355447,-0.278372,0.95964515,0.15856668
0.12,-1.0742813,0.11015636,-0.4635641,-0.251736,0.9689479,0.1510534
0.122,-0.99695575,0.05826682,-0.58030653,-0.22837481,0.97330475,0.14588307
0.124,-0.91925687,0.003786683,-0.68391645,-0.20833433,0.9726269,0.14312531
0.126,-0.84278864,-0.052131295,-0.7729444,-0.191645,0.9669906,0.14260842
0.128,-0.768602,-0.10834956,-0.8462945,-0.17832792,0.9567095,0.14358523
0.13,-0.69811416,-0.16359714,-0.90310717,-0.16839096,0.9423092,0.1451357
0.132,-0.6325718,-0.21689653,-0.9422944,-0.16180888,0.9243463,0.14653763
0.134,-0.57301295,-0.26730543,-0.9633535,-0.15848568,0.9034252,0.14724605
0.136,-0.52069485,-0.3137746,-0.9656414,-0.15820634,0.8801758,0.14686894
0.138,-0.47682315,-0.3557646,-0.94869167,-0.16064051,0.85522044,0.14523955
0.14,-0.44213706,-0.39291483,-0.9130145,-0.16530272,0.8291783,0.14241858
0.142,-0.41689608,-0.42499644,-0.8595303,-0.17159143,0.8026668,0.1385616
0.144,-0.4004432,-0.45228142,-0.788499,-0.17884558,0.7763568,0.13388386
0.146,-0.3928426,-0.4740705,-0.7015333,-0.18636292,0.7509959,0.1286062
0.148,-0.39589584,-0.48911512,-0.6041551,-0.1934059,0.727316,0.122995555
0.15,-0.40730727,-0.49903086,-0.5003443,-0.19921798,0.70602,0.11733763
0.152,-0.42485556,-0.50460976,-0.38981193,-0.20308343,0.687848,0.111850664
0.154,-0.4485436,-0.50586575,-0.27164376,-0.20440051,0.67354953,0.106667966
0.156,-0.4772042,-0.5033241,-0.14794269,-0.20268634,0.66378385,0.10187015
0.158,-0.50955313,-0.49698606,-0.021325693,-0.19757487,0.659119,0.0975416
0.16,-0.54446614,-0.48684373,0.106001094,-0.18882452,0.6600049,0.09381342
0.162,-0.58131313,-0.4726932,0.23103808,-0.17627181,0.6666521,0.09083578
0.164,-0.6190858,-0.45410037,0.3508154,-0.1598014,0.678965,0.08883126
0.166,-0.6568779,-0.43069327,0.46341923,-0.13943005,0.69652456,0.0880297
0.168,-0.6941525,-0.40221488,0.5680319,-0.11533737,0.7185817,0.088580936
0.17,-0.73079234,-0.36881045,0.6643076,-0.08789283,0.744061,0.09055735
0.172,-0.76655495,-0.33107942,0.751831,-0.05769977,0.7715219,0.093937546
0.174,-0.80156755,-0.2897563,0.83025134,-0.025584191,0.7993286,0.098538816
0.176,-0.83604634,-0.24558586,0.89997137,0.0073851347,0.8257786,0.10399221
0.178,-0.87032956,-0.19915189,0.961899,0.03997597,0.849193,0.10979368
0.18,-0.90462285,-0.15122871,1.0170165,0.07088396,0.8681144,0.11534679
0.182,-0.9393119,-0.102310985,1.0663556,0.09886837,0.88147104,0.12001765
0.184,-0.97485226,-0.052951157,1.1109465,0.12288135,0.88865757,0.123199314
0.186,-1.0114827,-0.0037157387,1.1518624,0.1421741,0.88962495,0.12433946
0.188,-1.0496957,0.045123965,1.1900108,0.15636969,0.884838,0.12295705
0.19,-1.0896275,0.09312148,1.2262646,0.16543576,0.8752075,0.11872578
0.192,-1.1314225,0.13963374,1.2616414,0.16969779,0.8618895,0.11149511
0.194,-1.1748551,0.18430293,1.2968882,0.16974747,0.8461311,0.10130525
0.196,-1.2196403,0.22673874,1.3328073,0.16637257,0.8290929,0.08845496
0.198,-1.2652998,0.26659623,1.369937,0.16042852,0.8117248,0.07344261
0.2,-1.3110265,0.3036138,1.4085282,0.15273568,0.7946416,0.056941524
0.202,-1.3559756,0.3375235,1.4485041,0.144007,0.778193,0.039671317
0.204,-1.3992522,0.3679679,1.4894973,0.13479188,0.76245475,0.022343948
0.206,-1.4396558,0.39477944,1.5310168,0.1255001,0.74726784,0.0056366026
0.208,-1.4761002,0.41771486,1.5724392,0.11644398,0.73234236,-0.009919852
0.21,-1.5074351,0.43686244,1.6129237,0.107837066,0.71742773,-0.02398111
0.212,-1.5327492,0.4523634,1.65173,0.0998297,0.70231557,-0.036389574
0.214,-1.5510439,0.46430147,1.688255,0.0925235,0.6868917,-0.047182158
0.216,-1.5612007,0.47282705,1.7221063,0.0859513,0.6712029,-0.05652146
0.218,-1.5627038,0.47845748,1.7527632,0.08009617,0.6554444,-0.06467326
0.22,-1.5550967,0.48161557,1.7793373,0.07497664,0.63991827,-0.07187462
0.222,-1.5379751,0.48253137,1.8010699,0.070647046,0.62499416,-0.07827985
0.224,-1.5112369,0.48149624,1.8169633,0.06713343,0.6110941,-0.08398029
0.226,-1.474699,0.47872198,1.8273585,0.06446928,0.59873146,-0.08903265
0.228,-1.4290475,0.47430122,1.8328149,0.062640056,0.58835626,-0.09339228
0.23,-1.3746444,0.46813536,1.8330104,0.06163244,0.5803463,-0.09697655
0.232,-1.3116281,0.46023238,1.8279538,0.061433464,0.5750513,-0.09968659
0.234,-1.2408454,0.45078194,1.8181249,0.06200926,0.57269496,-0.10142696
0.236,-1.1629767,0.43990982,1.8033823,0.06331748,0.5733677,-0.10207841
0.238,-1.0784124,0.42782223,1.782887,0.0653124,0.577075,-0.10154116
0.24,-0.98787683,0.41492063,1.7564778,0.06794709,0.58370733,-0.099676415
0.242,-0.8922349,0.40153953,1.7232555,0.07120107,0.59307575,-0.09635989
0.244,-0.79275167,0.38826364,1.6827382,0.07506567,0.6049168,-0.09150107
0.246,-0.69086856,0.37551528,1.6336851,0.07952693,0.6189344,-0.08507997
0.248,-0.585496,0.3625246,1.5766386,0.084546,0.634801,-0.077167735
0.25,-0.47675896,0.3490695,1.514579,0.090058506,0.65214646,-0.067928776
0.252,-0.36651278,0.33587837,1.4491756,0.09598364,0.67052627,-0.057560205
0.254,-0.25660634,0.32402587,1.3776658,0.102237046,0.68948674,-0.046264514
0.256,-0.14689264,0.31338388,1.299878,0.10870963,0.70852727,-0.03422758
0.258,-0.038860798,0.30454594,1.217246,0.11528131,0.72715175,-0.02162397
0.26,0.066227466,0.29817066,1.1294433,0.12183024,0.74487484,-0.008569822
0.262,0.16813034,0.29475644,1.0355006,0.12822954,0.76125133,0.0049058646
0.264,0.2663651,0.29446426,0.93591964,0.13438298,0.7759319,0.018839493
0.266,0.3599244,0.2969795,0.8323369,0.1402135,0.788695,0.033264384
0.268,0.44806942,0.30176866,0.7260798,0.14565352,0.7994375,0.048216403
0.27,0.5306088,0.3085722,0.6178248,0.15068293,0.80817425,0.063683
0.272,0.60713804,0.3175993,0.5085083,0.15530396,0.8150101,0.079567134
0.274,0.6771436,0.32898355,0.39906108,0.15950522,0.8200598,0.09567769
0.276,0.7401081,0.34284565,0.290468,0.16326883,0.8233991,0.11173862
0.278,0.79555964,0.35923553,0.18361014,0.16659594,0.8251779,0.12756014
0.28,0.8431721,0.3782061,0.07931715,0.16949284,0.825533,0.14304882
0.282,0.88275135,0.39979774,-0.021305919,0.17198268,0.824508,0.158014
0.284,0.9137136,0.42425725,-0.11702725,0.17413831,0.8220739,0.17222992
0.286,0.9359548,0.45167398,-0.20664838,0.17604384,0.8180299,0.18563652
0.288,0.94932806,0.48187166,-0.28931752,0.17776275,0.8120829,0.19833511
0.29,0.9537131,0.51474607,-0.3642763,0.17924997,0.8038957,0.21045753
0.292,0.94934285,0.5499587,-0.4308549,0.18045071,0.7931156,0.22219297
0.294,0.936576,0.586936,-0.48809808,0.181378,0.77939296,0.23367731
0.296,0.91568744,0.62550116,-0.5346916,0.18205564,0.7624569,0.2449274
0.298,0.8877416,0.66474295,-0.56895715,0.18253148,0.74217004,0.255804
0.3,0.85362816,0.70389915,-0.59036195,0.18285394,0.7184479,0.26610944
0.302,0.8141917,0.7425053,-0.5995811,0.183141,0.69121706,0.27558434
0.304,0.7701466,0.77959126,-0.5974935,0.1835131,0.66039556,0.28383282
0.306,0.7226816,0.8142195,-0.58467567,0.18405333,0.62588876,0.29036853
0.308,0.67289335,0.84515804,-0.56030184,0.18472928,0.5875644,0.29470724
0.31,0.62192154,0.8711759,-0.5234952,0.18540989,0.5453137,0.29640788
0.312,0.5710939,0.89129186,-0.4737948,0.18585505,0.49912196,0.2951917
0.314,0.5215459,0.9046692,-0.41131717,0.18576217,0.4491618,0.29086304
0.316,0.4744433,0.91053426,-0.3368441,0.1848008,0.395834,0.28333807
0.318,0.43093827,0.90820134,-0.25122476,0.18264991,0.33979136,0.27269077
0.32,0.39196077,0.89698577,-0.1551159,0.17905703,0.28194937,0.25914708
0.322,0.35835177,0.8763131,-0.049209207,0.17384958,0.22343104,0.24309431
0.324,0.33043772,0.84623253,0.06574184,0.1669333,0.16546044,0.22505999
0.326,0.3086516,0.8069186,0.18875386,0.1583117,0.10923649,0.20565687
0.328,0.29309744,0.75867045,0.31884205,0.14809243,0.05595465,0.18551964
0.33,0.28344724,0.70240366,0.4551221,0.13646305,0.006676823,0.16527903
0.332,0.27939385,0.6390609,0.5958861,0.123602554,-0.03790088,0.14541164
0.334,0.2800387,0.5700911,0.7394439,0.10968615,-0.077325255,0.12635379
0.336,0.2846884,0.49711415,0.8837876,0.09490973,-0.11133954,0.10864158
0.338,0.2926664,0.42199343,1.0274304,0.07942967,-0.13983783,0.09272036
0.34,0.30276534,0.34664524,1.168997,0.06343814,-0.16273658,0.07873729
0.342,0.31407374,0.27284962,1.3066677,0.047136474,-0.1800805,0.06667041
0.344,0.3257871,0.20205027,1.4385167,0.030779622,-0.19205126,0.056466002
0.346,0.3372505,0.1358217,1.5629736,0.014524452,-0.19902614,0.047967616
0.348,0.3472584,0.07557571,1.679186,-0.0015996397,-0.20155787,0.04095668
0.35,0.35507086,0.02266246,1.7858857,-0.017609678,-0.2003876,0.03518722
0.352,0.35998374,-0.021597028,1.8823726,-0.03352035,-0.19642235,0.030330919
0.354,0.36183608,-0.056632698,1.9680086,-0.049333658,-0.19055268,0.02593571
0.356,0.36054194,-0.08216363,2.042512,-0.06501828,-0.18355344,0.021519486
0.358,0.35398233,-0.09691787,2.104149,-0.08041468,-0.17601193,0.016651079
0.36,0.34185332,-0.10094011,2.150757,-0.09521063,-0.16824579,0.010903187
0.362,0.3250152,-0.09519589,2.18223,-0.108925864,-0.16021508,0.0038707778
0.364,0.30426723,-0.080920935,2.2011282,-0.12098459,-0.1515052,-0.004775472
0.366,0.27878395,-0.058192372,2.2079988,-0.13072516,-0.14136094,-0.015308335
0.368,0.2494576,-0.028024673,2.2021055,-0.13747826,-0.12874278,-0.027871266
0.37,0.21691561,0.008417666,2.1843278,-0.14058359,-0.1124109,-0.042516537
0.372,0.1810486,0.050136387,2.156023,-0.13945204,-0.09108554,-0.05924377
0.374,0.14241695,0.09613508,2.116808,-0.13358979,-0.06356734,-0.07798965
0.376,0.10189068,0.14564848,2.0659297,-0.122611225,-0.02883774,-0.09863877
0.378,0.06001383,0.19808245,2.0034444,-0.10624907,0.013838708,-0.12098652
0.38,0.016958773,0.2526686,1.9301413,-0.0843547,0.06485292,-0.14475344
0.382,-0.02652502,0.3079945,1.8468412,-0.05690837,0.12413588,-0.16959758
0.384,-0.06952566,0.36290202,1.7545805,-0.024055097,0.19120081,-0.19516617
0.386,-0.11164367,0.41665885,1.6542965,0.013922617,0.2652356,-0.22106157
0.388,-0.15210429,0.46843436,1.5468112,0.056553967,0.34505633,-0.24690714
0.39,-0.19020775,0.5175376,1.433376,0.103113785,0.42907143,-0.2723691
0.392,-0.22591332,0.56362176,1.3154763,0.15264666,0.51529706,-0.2971435
0.394,-0.25918573,0.60632145,1.1948986,0.20398208,0.6014211,-0.32097167
0.396,-0.29112056,0.64572537,1.074583,0.25579548,0.68492097,-0.3436756
0.398,-0.32067773,0.68064225,0.95792377,0.30665055,0.7632059,-0.36516473
0.4,-0.3476178,0.7101774,0.8471398,0.35508522,0.83382416,-0.3854038
0.402,-0.37140727,0.73385906,0.7451285,0.39969507,0.8944944,-0.40437979
0.404,-0.39135724,0.7513256,0.6544937,0.4392018,0.9431726,-0.4221392
0.406,-0.40721217,0.76266503,0.5764325,0.4724753,0.97819066,-0.43875334
0.408,-0.41939983,0.76850784,0.5114203,0.49860322,0.9983178,-0.45426378
0.41,-0.42796013,0.76927227,0.46076348,0.51691186,1.0028486,-0.4686335
0.412,-0.4325479,0.7651086,0.4265411,0.52700377,0.99172187,-0.48173064
0.414,-0.43335155,0.75633943,0.41052914,0.5288225,0.9655623,-0.49332565
0.416,-0.43052566,0.7431607,0.41335684,0.52266943,0.92571175,-0.50319135
0.418,-0.42429835,0.7258029,0.43445948,0.5092131,0.8742422,-0.5111464
0.42,-0.41516134,0.704722,0.47278017,0.48942512,0.8138248,-0.5170511
0.422,-0.4034854,0.68019605,0.527091,0.4645523,0.7475836,-0.52086604
0.424,-0.3895377,0.65261495,0.5961789,0.436048,0.67886496,-0.52269846
0.426,-0.37373397,0.62249637,0.6783395,0.40545246,0.61104184,-0.52279824
0.428,-0.35641524,0.5905449,0.7712871,0.37426525,0.54735553,-0.5215442
0.43,-0.33763343,0.5578125,0.8721467,0.34389842,0.4905192,-0.519322
0.432,-0.31749,0.5256595,0.9774441,0.3155753,0.4424805,-0.5164236
0.434,-0.29579616,0.4952076,1.0834279,0.2902978,0.4045167,-0.5130603
0.436,-0.27239957,0.46780133,1.1863323,0.26880777,0.37717047,-0.50933206
0.438,-0.24708024,0.4450053,1.2827566,0.2516055,0.3602187,-0.5051943
0.44,-0.2196872,0.4282038,1.3694816,0.23896399,0.35287225,-0.5004152
0.442,-0.1904068,0.4192135,1.4438478,0.23104602,0.35406038,-0.49456882
0.444,-0.15957949,0.41953552,1.503577,0.2279734,0.3626423,-0.4870696
0.446,-0.12771922,0.43037426,1.5467169,0.22989477,0.3775239,-0.4772175
0.448,-0.09540421,0.45255592,1.5719455,0.2369597,0.3977279,-0.46427223
0.45,-0.063557446,0.48674554,1.5788058,0.24929118,0.4223978,-0.44754624
0.452,-0.03320694,0.53306895,1.5677302,0.26684096,0.45065767,-0.42657462
0.454,-0.005429685,0.5915537,1.5393708,0.28929874,0.4814506,-0.40124768
0.456,0.018676639,0.6615788,1.4949031,0.31595916,0.513507,-0.3719818
0.458,0.037783086,0.7423761,1.435807,0.34568417,0.5452966,-0.3397337
0.46,0.05055797,0.8324991,1.3643733,0.37688854,0.5750259,-0.30604798
0.462,0.05585134,0.93008935,1.2837667,0.40763226,0.60077715,-0.27298594
0.464,0.051744998,1.0336982,1.1970885,0.43580648,0.62070394,-0.24297103
0.466,0.037394583,1.1412485,1.106991,0.45937362,0.63321126,-0.21851736
0.468,0.011840463,1.2507659,1.0168893,0.4766119,0.63720924,-0.20188022
0.47,-0.025387764,1.359886,0.9311737,0.48635036,0.63225657,-0.19474447
0.472,-0.07376754,1.4661705,0.85343033,0.4881431,0.61864877,-0.19799349
0.474,-0.13278306,1.5677242,0.7861563,0.4823482,0.5974291,-0.21161337
0.476,-0.20207995,1.6633725,0.7306878,0.470078,0.57025445,-0.23462592
0.478,-0.28106004,1.7522756,0.68754023,0.4530779,0.5392397,-0.2651934
0.48,-0.3683582,1.8336343,0.6571684,0.4335058,0.5066993,-0.30084324
0.482,-0.46282685,1.9068587,0.639796,0.4136386,0.47484168,-0.3387792
0.484,-0.56243706,1.971597,0.635533,0.395608,0.445751,-0.3762657
0.486,-0.6647628,2.0276918,0.64468634,0.38118356,0.42121127,-0.4108755
0.488,-0.7676305,2.0753965,0.6674546,0.37161797,0.4024132,-0.44064498
0.49,-0.8688204,2.115326,0.70325834,0.3675868,0.39005208,-0.46426764
0.492,-0.96610713,2.1484494,0.7509253,0.3691435,0.38440007,-0.48116618
0.494,-1.057641,2.175687,0.80901456,0.3757968,0.38525778,-0.491584
0.496,-1.1410673,2.1977515,0.87586117,0.38655454,0.39194682,-0.49642062
0.498,-1.2149425,2.215736,0.95013714,0.40011525,0.40343493,-0.49701965
0.5,-1.2777189,2.2303796,1.0300575,0.4149834,0.41846463,-0.49502474
0.502,-1.3283576,2.2421262,1.1144435,0.42960262,0.43565232,-0.4922316
0.504,-1.3657631,2.2513185,1.2021534,0.4425239,0.45357153,-0.49035043
0.506,-1.3886642,2.257804,1.2916994,0.45253336,0.47076482,-0.49082524
0.508,-1.398039,2.2626162,1.3818583,0.45871633,0.48588592,-0.4947571
0.51,-1.3940029,2.2659297,1.4729578,0.4604918,0.49782327,-0.50282145
0.512,-1.3774598,2.2671242,1.5644107,0.457628,0.505744,-0.515279
0.514,-1.3490291,2.2652864,1.6557012,0.4502907,0.509184,-0.5319854
0.516,-1.307424,2.257948,1.7475641,0.43902433,0.50807,-0.55246764
0.518,-1.2507716,2.2429416,1.8389304,0.4246964,0.502736,-0.5760128
0.52,-1.1779447,2.2182221,1.9277718,0.40836722,0.49390447,-0.6017494
0.522,-1.0925012,2.1841362,2.0127134,0.39120698,0.48259524,-0.6287933
0.524,-0.9979211,2.1402967,2.0962582,0.37438393,0.47005022,-0.6562852
0.526,-0.8945898,2.0864139,2.1815193,0.35895735,0.45758986,-0.68345135
0.528,-0.78070724,2.024569,2.2639184,0.3458101,0.4465602,-0.70960945
0.53,-0.6566628,1.9570165,2.3428469,0.3356286,0.43822145,-0.73418874
0.532,-0.52307796,1.8840086,2.415456,0.32885718,0.43367606,-0.75670385
0.534,-0.3801273,1.8043121,2.477243,0.32574886,0.43384477,-0.7767388
0.536,-0.22874177,1.7172517,2.5271819,0.3264104,0.43947518,-0.79390025
0.538,-0.07003951,1.6231399,2.5674329,0.3308282,0.45109448,-0.8077737
0.54,0.09468579,1.5229667,2.6008382,0.33893257,0.46899003,-0.8179733
0.542,0.2642734,1.4175782,2.6288443,0.35061252,0.49319,-0.8241783
0.544,0.43696368,1.3081985,2.651126,0.36570936,0.52344656,-0.82616115
0.546,0.61047477,1.1962336,2.666772,0.38389328,0.5591357,-0.82377106
0.548,0.7829354,1.0831989,2.6746955,0.4045504,0.5992362,-0.81688833
0.55,0.9521641,0.97091043,2.674904,0.426741,0.6424155,-0.80555063
0.552,1.115661,0.86160135,2.668565,0.4493221,0.6873716,-0.79016924
0.554,1.2715713,0.7576039,2.657099,0.4710834,0.7330301,-0.77139467
0.556,1.4178083,0.66128397,2.6418204,0.4907338,0.77825916,-0.74977666
0.558,1.5527781,0.5746461,2.6232853,0.50710154,0.82174575,-0.72566056
0.56,1.6751964,0.49929488,2.6012144,0.51907194,0.86235934,-0.6995338
0.562,1.7837703,0.43705642,2.5748777,0.5255303,0.8995911,-0.6722913
0.564,1.877616,0.38921094,2.5442708,0.5255564,0.93319315,-0.64489615
0.566,1.9564645,0.35662866,2.5093393,0.5188074,0.9631076,-0.6180314
0.568,2.0206542,0.339754,2.4697814,0.50573665,0.98961616,-0.5921365
0.57,2.0711498,0.33851814,2.4245882,0.487553,1.0132868,-0.5676456
0.572,2.1094134,0.35237253,2.3723164,0.466168,1.0348382,-0.54498875
0.574,2.1375928,0.37993133,2.3119936,0.44407305,1.0549635,-0.52450377
0.576,2.1577864,0.4196229,2.2434964,0.42400974,1.0742366,-0.50637996
0.578,2.172455,0.46940112,2.1664598,0.40863198,1.0930316,-0.49062407
0.58,2.1838582,0.5271704,2.0792944,0.40019578,1.1114717,-0.477034
0.582,2.1944745,0.5904194,1.9812894,0.4003397,1.1294678,-0.46523616
0.584,2.2070436,0.6561309,1.8730552,0.4099004,1.1468616,-0.4547659
0.586,2.2244282,0.72064304,1.7550604,0.42887172,1.1635329,-0.4451528
0.588,2.249745,0.78047895,1.627986,0.45648167,1.1795083,-0.43592277
0.59,2.2852867,0.83249176,1.4927616,0.49140483,1.1949717,-0.42658272
0.592,2.3333187,0.8739021,1.350081,0.5319653,1.2102227,-0.4166548
0.594,2.3954866,0.9021051,1.1992817,0.57637703,1.2256008,-0.40567863
0.596,2.4709709,0.91612244,1.0392895,0.6228999,1.2413769,-0.39323
0.598,2.5595708,0.9146085,0.87350583,0.669936,1.2576413,-0.37899986
0.6,2.6605487,0.8964642,0.7084144,0.7161757,1.2743084,-0.3628754
0.602,2.7726684,0.8613095,0.54840505,0.7605638,1.2909945,-0.3449432
0.604,2.8939133,0.8095975,0.39478856,0.80223477,1.3070036,-0.32538626
0.606,3.0218859,0.742141,0.24862057,0.8403727,1.3212497,-0.30438703
0.608,3.155573,0.6590594,0.11146164,0.87423104,1.3324422,-0.2822653
0.61,3.2944603,0.5609393,-0.017477691,0.90327704,1.339633,-0.25966644
0.612,3.432924,0.4515643,-0.14004177,0.92708874,1.3422297,-0.23736572
0.614,3.5690293,0.3320818,-0.24291676,0.94553804,1.3396903,-0.21579713
0.616,3.699617,0.20376587,-0.31291187,0.95882845,1.3312564,-0.19497627
0.618,3.821196,0.069613695,-0.3493898,0.96728086,1.3165045,-0.17492855
0.62,3.929054,-0.0657773,-0.35766214,0.9710953,1.2953606,-0.15582788
0.622,4.020795,-0.19905233,-0.34439796,0.97037315,1.2679017,-0.13773495
0.624,4.100127,-0.33162844,-0.30688173,0.96528625,1.2344044,-0.120390415
0.626,4.165306,-0.46174276,-0.24068683,0.9561342,1.1954087,-0.103449225
0.628,4.212408,-0.5850688,-0.1471315,0.9432632,1.1516852,-0.086606026
0.63,4.2389946,-0.6978606,-0.027359903,0.927042,1.1043334,-0.0696421
0.632,4.248827,-0.80038655,0.11869961,0.9078292,1.054718,-0.052531034
0.634,4.242777,-0.89089835,0.28668293,0.8859353,1.0042447,-0.035448372
0.636,4.2170463,-0.9670054,0.47369093,0.8615663,0.95406425,-0.018657506
0.638,4.1678076,-1.0287639,0.68581736,0.8347884,0.9049387,-0.0022891462
0.64,4.094902,-1.0760531,0.9234793,0.8054915,0.85729194,0.013634324
0.642,3.9985003,-1.1063855,1.1852121,0.77354884,0.81124437,0.028942645
0.644,3.8779035,-1.1163235,1.4674828,0.7386327,0.76662046,0.043464273
0.646,3.7334652,-1.1037453,1.7627912,0.7003204,0.7236017,0.057136238
0.648,3.5660942,-1.068202,2.0622723,0.6585011,0.68282646,0.06987542
0.65,3.3769643,-1.0103133,2.358949,0.6136139,0.6447741,0.08157599
0.652,3.1673412,-0.9305495,2.648498,0.5666237,0.6097627,0.0921811
0.654,2.9396515,-0.82971966,2.9279394,0.51865155,0.57849425,0.10193524
0.656,2.6968493,-0.7092272,3.1944976,0.47076547,0.552303,0.11115888
0.658,2.441979,-0.570732,3.4442306,0.42424053,0.53291106,0.11975093
0.66,2.1785128,-0.41621673,3.6709402,0.3806892,0.5219079,0.12750667
0.662,1.9102092,-0.24833882,3.867776,0.3420069,0.52080923,0.13451473
0.664,1.6406276,-0.06999922,4.028411,0.31027746,0.53103477,0.1409817
0.666,1.3733697,0.11597884,4.1477866,0.28748924,0.5534022,0.14699984
0.668,1.1119757,0.3067832,4.222981,0.27538073,0.5877849,0.15263465
0.67,0.85988986,0.4994794,4.2525377,0.27527022,0.6330153,0.1579066
0.672,0.6204251,0.690601,4.235912,0.287901,0.6867695,0.1627016
0.674,0.39659154,0.87661815,4.173377,0.31324202,0.7455996,0.16676076
0.676,0.19056809,1.054289,4.066458,0.3503523,0.8052547,0.16967271
0.678,0.0042665005,1.2206106,3.917965,0.39737743,0.8613061,0.17084503
0.68,-0.16117597,1.3731225,3.7319677,0.45165405,0.9097711,0.16955975
0.682,-0.30521274,1.5098476,3.5131762,0.51008105,0.9476447,0.1649184
0.684,-0.42747664,1.6291409,3.266812,0.56948155,0.973045,0.15596667
0.686,-0.52835524,1.7298064,2.9988737,0.6269243,0.98538405,0.14193675
0.688,-0.6085702,1.8108171,2.7159524,0.679998,0.98539513,0.12232062
0.69,-0.66894644,1.8716477,2.4254718,0.7270049,0.97473246,0.09685388
0.692,-0.7108526,1.912176,2.134895,0.7670761,0.95538366,0.065532714
0.694,-0.7355188,1.9327897,1.851513,0.8001173,0.92915016,0.0287593
0.696,-0.7441533,1.9343231,1.5818818,0.82649267,0.8973675,-0.012575507
0.698,-0.7381702,1.9178728,1.3316988,0.84702253,0.8608277,-0.057425678
0.7,-0.71841884,1.8847724,1.1056745,0.862653,0.81949246,-0.104727685
0.702,-0.6859081,1.8363707,0.9078046,0.8740933,0.7730166,-0.15336129
0.704,-0.64131695,1.7740389,0.74240327,0.8818295,0.72158253,-0.20230687
0.706,-0.58374083,1.6982074,0.612444,0.88636225,0.6657768,-0.2507649
0.708,-0.5131132,1.6100266,0.51595294,0.88847333,0.6061762,-0.29832947
0.71,-0.4294861,1.5107872,0.44952303,0.88913786,0.5434012,-0.34468406
0.712,-0.33266407,1.4012967,0.41216105,0.8891179,0.47841993,-0.38932896
0.714,-0.22210482,1.282433,0.40454558,0.8888916,0.41263902,-0.43201873
0.716,-0.09763995,1.1552808,0.42596167,0.8887783,0.34739673,-0.4729158
0.718,0.03968388,1.0215604,0.47356653,0.8889628,0.28371376,-0.51213324
0.72,0.18867436,0.8827926,0.54548955,0.8896086,0.22254124,-0.5495672
0.722,0.35284004,0.7379856,0.6382948,0.89078027,0.16470592,-0.58502644
0.724,0.5309394,0.5893282,0.73603535,0.89237785,0.11082408,-0.6182652
0.726,0.7225568,0.43869826,0.8282881,0.894159,0.06138061,-0.6489518
0.728,0.9270103,0.28616792,0.9182122,0.8958495,0.016767249,-0.67671806
0.73,1.1441678,0.13126129,1.0114139,0.89725286,-0.022783317,-0.70120496
0.732,1.3711218,-0.024803162,1.1108367,0.89826554,-0.0573207,-0.7220653
0.734,1.60033,-0.17633808,1.2080027,0.8988533,-0.08719385,-0.7389854
0.736,1.8304511,-0.3219334,1.2953675,0.89898115,-0.1130038,-0.75173044
0.738,2.0622637,-0.46304756,1.37303,0.89858335,-0.13550238,-0.7602212
0.74,2.2945206,-0.59923804,1.4392076,0.8975578,-0.1555529,-0.76455
0.742,2.5237908,-0.72810316,1.4898531,0.89576554,-0.17408694,-0.76500064
0.744,2.7485976,-0.8487434,1.5231616,0.8930435,-0.19200511,-0.7620145
0.746,2.9671004,-0.9596937,1.5374603,0.8891983,-0.21011373,-0.7562317
0.748,3.1765506,-1.0595307,1.5306067,0.88398826,-0.22912496,-0.7484451
0.75,3.3739567,-1.1467613,1.5024983,0.8771853,-0.24964522,-0.7395435
0.752,3.5566573,-1.2204131,1.4567902,0.86857384,-0.2720871,-0.7304641
0.754,3.7228885,-1.280179,1.3974228,0.85802555,-0.29671264,-0.72218627
0.756,3.8710701,-1.3259652,1.3267583,0.8455032,-0.32359827,-0.71563804
0.758,3.999478,-1.3578975,1.2454813,0.83105993,-0.35268825,-0.7116115
0.76,4.106699,-1.3758905,1.153774,0.81486607,-0.38379663,-0.71083146
0.762,4.1918154,-1.3801866,1.0518901,0.7972053,-0.41668442,-0.71385115
0.764,4.2541566,-1.3714235,0.94080746,0.7784109,-0.4511075,-0.72097087
0.766,4.293496,-1.3500606,0.82151675,0.7588866,-0.48689812,-0.73235583
0.768,4.3098927,-1.316849,0.69570446,0.73906386,-0.52389866,-0.7479977
0.77,4.303941,-1.2729843,0.5660738,0.71936786,-0.56204534,-0.76766133
0.772,4.276681,-1.219667,0.43491277,0.70031804,-0.60123754,-0.79102725
0.774,4.2295065,-1.158183,0.30417067,0.68244904,-0.6413045,-0.81757015
0.776,4.164034,-1.0898863,0.17554253,0.6662799,-0.682079,-0.8466777
0.778,4.082045,-1.0161765,0.0499741,0.65236366,-0.7232762,-0.87769043
0.78,3.9858794,-0.9386384,-0.07174915,0.6412967,-0.76448727,-0.90987015
0.782,3.8780618,-0.85873586,-0.1889043,0.6337044,-0.80519164,-0.9424216
0.784,3.7613244,-0.77796674,-0.30075896,0.63021743,-0.84477496,-0.974559
0.786,3.6384625,-0.6980216,-0.4067929,0.63141817,-0.88261044,-1.0055398
0.788,3.5124574,-0.6206153,-0.5066362,0.6378151,-0.91809016,-1.0346603
0.79,3.3861575,-0.5471495,-0.59969896,0.64978516,-0.9506724,-1.0612948
0.792,3.2624032,-0.47908348,-0.6853776,0.6674957,-0.97998375,-1.0849648
0.794,3.1439948,-0.41761786,-0.7633047,0.69089663,-1.0058428,-1.1053703
0.796,3.0335777,-0.36364114,-0.8335283,0.7196889,-1.0282654,-1.1223412
0.798,2.9336257,-0.31779373,-0.8964305,0.7533343,-1.0474771,-1.135873
0.8,2.846098,-0.2806216,-0.9524547,0.7910917,-1.06394,-1.1460975
0.802,2.7729673,-0.25229976,-1.0019444,0.8320826,-1.0782638,-1.153259
0.804,2.7153232,-0.2329154,-1.0454788,0.8753525,-1.091187,-1.1576655
0.806,2.6742847,-0.22226664,-1.0831673,0.9199066,-1.1035182,-1.1596341
0.808,2.650569,-0.2199693,-1.1154939,0.96480036,-1.116069,-1.1594614
0.81,2.6443768,-0.2255845,-1.1428671,1.0091797,-1.1296238,-1.1574225
0.812,2.6558504,-0.23838186,-1.1655037,1.0523345,-1.144881,-1.1537831
0.814,2.6845062,-0.25741994,-1.1840206,1.0936965,-1.1624279,-1.1486877
0.816,2.730081,-0.28188455,-1.1989403,1.1328475,-1.1826912,-1.1422328
0.818,2.7918053,-0.3108226,-1.2104306,1.1695771,-1.2059356,-1.1345173
0.82,2.8688498,-0.3433561,-1.2188089,1.2038089,-1.232247,-1.1255357
0.822,2.959878,-0.37847236,-1.2241446,1.2356353,-1.2615858,-1.1152797
0.824,3.063722,-0.4154195,-1.2263186,1.2652807,-1.293745,-1.1037672
0.826,3.1792471,-0.45342904,-1.2255011,1.2930216,-1.3284383,-1.0909616
0.828,3.3049848,-0.49152896,-1.2221211,1.3192344,-1.3652786,-1.0768902
0.83,3.4398432,-0.5293634,-1.2165729,1.3443879,-1.4036918,-1.0615479
0.832,3.5825663,-0.5663245,-1.2091734,1.3689327,-1.4430927,-1.0449092
0.834,3.7320251,-0.60209733,-1.2002878,1.3932986,-1.4828446,-1.0270051
0.836,3.8872635,-0.6364249,-1.1904263,1.4178865,-1.5222757,-1.007896
0.838,4.0479455,-0.6690668,-1.1798459,1.4430296,-1.5607556,-0.98764396
0.84,4.2136235,-0.7001583,-1.1692427,1.469006,-1.5976739,-0.96631587
0.842,4.3843594,-0.7294869,-1.1598223,1.4960313,-1.6324699,-0.9440135
0.844,4.5599213,-0.7573982,-1.151899,1.5242438,-1.6646245,-0.9208437
0.846,4.740259,-0.7838113,-1.1467692,1.5537384,-1.693688,-0.89685214
0.848,4.9253793,-0.8087154,-1.1451291,1.5845221,-1.7193253,-0.8720676
0.85,5.115703,-0.83255196,-1.1476369,1.6165713,-1.7413391,-0.84648263
0.852,5.3114314,-0.8554254,-1.1553706,1.6498013,-1.7596686,-0.8200308
0.854,5.512589,-0.8770425,-1.1692932,1.6841065,-1.7743874,-0.792605
0.856,5.7200418,-0.89811563,-1.1899592,1.7193484,-1.7857561,-0.76407754
0.858,5.9339967,-0.91849786,-1.2181422,1.7553961,-1.7941372,-0.73432803
0.86,6.155793,-0.93400526,-1.2518702,1.7921212,-1.80003,-0.7032285
0.862,6.3833485,-0.95160913,-1.29632,1.8293892,-1.8040056,-0.67063355
0.864,6.6176343,-0.9677435,-1.3495502,1.8670816,-1.806671,-0.63644123
0.866,6.858086,-0.9821451,-1.4112684,1.9050978,-1.8086435,-0.60055816
0.868,7.1036816,-0.9939878,-1.4806157,1.9433173,-1.8105503,-0.56291914
0.87,7.3537755,-1.0026255,-1.5576748,1.9816236,-1.8130218,-0.5234917
0.872,7.607173,-1.0070525,-1.6431161,2.0198865,-1.8166556,-0.48224598
0.874,7.862751,-1.0066105,-1.7364478,2.05796,-1.822036,-0.43917125
0.876,8.119843,-1.0014596,-1.8364286,2.0956888,-1.8297334,-0.39429805
0.878,8.377157,-0.99139726,-1.9407738,2.1329033,-1.8402919,-0.3476882
0.88,8.631862,-0.9754164,-2.0463572,2.1694338,-1.8542495,-0.2994408
0.882,8.883251,-0.9533981,-2.1496685,2.2050898,-1.8721418,-0.24970746
0.884,9.12801,-0.9246304,-2.2473838,2.2396564,-1.894525,-0.19868597
0.886,9.3643,-0.88922143,-2.3375607,2.2729235,-1.9219339,-0.1466115
0.888,9.591125,-0.8479016,-2.418456,2.3046558,-1.9549004,-0.09374809
0.89,9.807268,-0.8012867,-2.4872582,2.3346207,-1.9939091,-0.04038161
0.892,10.0106325,-0.749311,-2.5415878,2.3625913,-2.0393414,0.013218127
0.894,10.198457,-0.6908474,-2.5815375,2.3883896,-2.0914974,0.06675337
0.896,10.370227,-0.6259031,-2.606434,2.411879,-2.1505451,0.11993117
0.898,10.525962,-0.55591416,-2.6143951,2.4329972,-2.2165008,0.17246747
0.9,10.665499,-0.4826808,-2.6035686,2.4517772,-2.2891698,0.22406852
0.902,10.788632,-0.4069879,-2.571346,2.4683983,-2.3682218,0.27445155
0.904,10.895617,-0.33014202,-2.5149133,2.4831367,-2.4532256,0.32334176
0.906,10.987395,-0.25377655,-2.4333904,2.4963315,-2.5435395,0.37050617
0.908,11.065498,-0.1795218,-2.32761,2.508372,-2.6383657,0.41582307
0.91,11.131859,-0.10893369,-2.198981,2.5197103,-2.7367282,0.4592578
0.912,11.188744,-0.04329729,-2.0491815,2.5309134,-2.8373704,0.5008916
0.914,11.23917,0.016329765,-1.8802557,2.5426645,-2.938858,0.5409179
0.916,11.286302,0.06944704,-1.695275,2.5557225,-3.039509,0.5796967
0.918,11.333874,0.11559343,-1.4980928,2.570864,-3.137413,0.6178511
0.92,11.385962,0.15466595,-1.2934275,2.5888186,-3.2305675,0.6561767
0.922,11.446506,0.18697119,-1.0863618,2.6102521,-3.3169513,0.6956458
0.924,11.519451,0.21316385,-0.88211894,2.635777,-3.3946104,0.7374144
0.926,11.60867,0.23438644,-0.6861997,2.6659136,-3.4618034,0.7826759
0.928,11.717347,0.2520342,-0.50454044,2.7010489,-3.5170236,0.83258957
0.93,11.848144,0.26813126,-0.34314302,2.741445,-3.5591385,0.8882556
0.932,12.003126,0.28496265,-0.20755324,2.787337,-3.587656,0.95059574
0.934,12.183599,0.30483294,-0.102770045,2.838947,-3.6028109,1.0202258
0.936,12.389956,0.33066034,-0.033408612,2.896449,-3.6056428,1.0974019
0.938,12.621969,0.36526203,-0.0028202534,2.959915,-3.5981426,1.1820335
0.94,12.877904,0.4120798,-0.013436735,3.0292377,-3.5831947,1.2736712
0.942,13.155543,0.47404575,-0.06623161,3.104067,-3.5642853,1.3715307
0.944,13.451829,0.55416775,-0.16132194,3.1837652,-3.5451658,1.4744835
0.946,13.762861,0.65524817,-0.29731226,3.2674108,-3.5293946,1.5810553
0.948,14.083907,0.7797694,-0.47182786,3.353812,-3.5198824,1.6895081
0.95,14.409699,0.93021154,-0.68099153,3.4416308,-3.5185494,1.7979254
0.952,14.734441,1.108386,-0.91976756,3.5294838,-3.526097,1.9043281
0.954,15.052366,1.3158941,-1.1820573,3.6160457,-3.542006,2.006782
0.956,15.3574915,1.5537734,-1.4610808,3.7001705,-3.5646315,2.1035914
0.958,15.643971,1.8227358,-1.7499189,3.7810116,-3.5915618,2.193405
0.96,15.906507,2.1229377,-2.041325,3.858136,-3.6201527,2.2752712
0.962,16.140228,2.4539962,-2.3280892,3.9314349,-3.64786,2.3486972
0.964,16.340803,2.8151994,-2.6033242,4.0010405,-3.67263,2.4136822
0.966,16.504303,3.2054167,-2.8607025,4.067171,-3.69319,2.470662
0.968,16.62801,3.6230273,-3.0945256,4.130104,-3.708968,2.5203247
0.97,16.708975,4.0629983,-3.3019423,4.1901035,-3.7201447,2.5634532
0.972,16.74796,4.530225,-3.4746912,4.247377,-3.727488,2.6007392
0.974,16.743332,5.0179615,-3.6124973,4.302054,-3.7320383,2.6327574
0.976,16.695787,5.5235147,-3.7137113,4.3541536,-3.7350082,2.6598878
0.978,16.606829,6.043986,-3.7779107,4.4035845,-3.7376778,2.6822724
0.98,16.478025,6.576191,-3.8046498,4.450237,-3.741313,2.69993
0.982,16.312025,7.1169896,-3.7936494,4.494054,-3.7472103,2.712799
0.984,16.111284,7.6636224,-3.7468255,4.5350266,-3.7566237,2.720786
0.986,15.878466,8.213905,-3.6671999,4.5731845,-3.770646,2.7238789
0.988,15.617456,8.764908,-3.5584502,4.608624,-3.790286,2.7222264
0.99,15.3333,9.31322,-3.4249165,4.6415215,-3.8164577,2.7161174
0.992,15.029193,9.856321,-3.2706766,4.6721444,-3.849868,2.7059212
0.994,14.710665,10.391272,-3.0993004,4.700822,-3.8910341,2.692093
0.996,14.381678,10.915921,-2.9129992,4.7279205,-3.9403439,2.675134
0.998,14.045496,11.428608,-2.7139144,4.753801,-3.9979863,2.6555474
1,13.706105,11.927306,-2.5052214,4.7788115,-4.0639763,2.6338363
1.002,13.368088,12.40952,-2.2896113,4.8033032,-4.1380925,2.6104386
1.004,13.036217,12.87231,-2.0678525,4.8276224,-4.2198844,2.585715
1.006,12.713353,13.314459,-1.8422604,4.8521185,-4.308673,2.559935
1.008,12.401894,13.736314,-1.616406,4.877119,-4.403597,2.533288
1.01,12.105152,14.13791,-1.3935766,4.902928,-4.503653,2.505866
1.012,11.826338,14.518538,-1.176826,4.929811,-4.60775,2.477747
1.014,11.567999,14.878325,-0.96889925,4.957939,-4.7147636,2.448995
1.016,11.332285,15.217577,-0.7703757,4.9874325,-4.823619,2.4196346
1.018,11.120707,15.536921,-0.58046484,5.0183277,-4.9332743,2.3896797
1.02,10.934487,15.837072,-0.39874172,5.0506306,-5.0427866,2.359129
1.022,10.77433,16.118708,-0.22531796,5.084272,-5.151286,2.3279707
1.024,10.640615,16.382677,-0.060256958,5.119159,-5.2580028,2.2962089
1.026,10.532716,16.629858,0.09686184,5.1551657,-5.362213,2.2638302
1.028,10.450008,16.861683,0.24686813,5.192135,-5.4632545,2.2308097
1.03,10.391015,17.079533,0.39077473,5.2298584,-5.560505,2.1970568
1.032,10.354401,17.284857,0.5294008,5.2681103,-5.65337,2.1624696
1.034,10.338478,17.479195,0.663414,5.3066397,-5.7413287,2.1269326
1.036,10.340654,17.664297,0.7936287,5.3451595,-5.823904,2.090303
1.038,10.359179,17.841702,0.9212675,5.383389,-5.900714,2.0524476
1.04,10.391298,18.01296,1.0473518,5.421068,-5.9714575,2.0132408
1.042,10.434651,18.179491,1.1732607,5.4579268,-6.035916,1.9725626
1.044,10.486363,18.342896,1.3000479,5.4937487,-6.0939584,1.9303147
1.046,10.5436535,18.504314,1.4289799,5.528335,-6.145518,1.8864272
1.048,10.603714,18.664839,1.5609636,5.561558,-6.1905904,1.840854
1.05,10.664032,18.825401,1.6967478,5.593342,-6.2292604,1.7935766
1.052,10.72208,18.986858,1.8365335,5.6236696,-6.261715,1.7446401
1.054,10.775376,19.150002,1.9807281,5.6525874,-6.2881966,1.6941117
1.056,10.821878,19.31539,2.12961,5.6801615,-6.3090744,1.6420985
1.058,10.859571,19.483545,2.2835808,5.7064857,-6.3247967,1.5887318
1.06,10.886902,19.654726,2.4427624,5.7316666,-6.3359094,1.5341823
1.062,10.902567,19.829285,2.6070662,5.7558413,-6.343052,1.4786559
1.064,10.905546,20.00712,2.7758865,5.779118,-6.346951,1.4223564
1.066,10.895397,20.188324,2.948739,5.8015656,-6.3484087,1.3654906
1.068,10.871349,20.372688,3.1251602,5.823244,-6.348264,1.3082664
1.07,10.833167,20.560163,3.3049793,5.8441896,-6.3473325,1.2508826
1.072,10.781094,20.750456,3.4876833,5.864427,-6.346445,1.1935053
1.074,10.715504,20.943268,3.6728544,5.8839374,-6.346339,1.1362654
1.076,10.637262,21.138155,3.8598843,5.9027367,-6.347691,1.0792844
1.078,10.54717,21.334764,4.0482035,5.920803,-6.3510714,1.022653
1.08,10.4465885,21.532322,4.2372527,5.938129,-6.3569765,0.96643853
1.082,10.336854,21.730265,4.426648,5.9547253,-6.3658075,0.91068673
1.084,10.21943,21.927864,4.615541,5.9706345,-6.3778744,0.8554388
1.086,10.09604,22.124527,4.80319,5.9858985,-6.3934045,0.80070937
1.088,9.968416,22.31937,4.9889092,6.0005794,-6.412528,0.7464949
1.09,9.8384495,22.511637,5.172084,6.0147758,-6.435273,0.69278514
1.092,9.707868,22.700388,5.3520603,6.0286036,-6.4615746,0.63954425
1.094,9.578883,22.884758,5.5282483,6.042185,-6.4912963,0.5867506
1.096,9.453496,23.063768,5.7000017,6.055663,-6.5242276,0.53437674
1.098,9.333685,23.236687,5.8664722,6.0691648,-6.560117,0.48239303
1.1,9.221282,23.402681,6.0269337,6.0827804,-6.598676,0.4307406
1.102,9.117871,23.560959,6.1810594,6.096555,-6.6396074,0.37936103
1.104,9.025151,23.710812,6.3284674,6.110481,-6.6826177,0.32817328
1.106,8.944547,23.851507,6.468755,6.1244907,-6.7274265,0.27706325
1.108,8.87744,23.982471,6.601578,6.1384554,-6.773778,0.2259109
1.11,8.824668,24.103313,6.726474,6.1522017,-6.8214335,0.17456865
1.112,8.787364,24.213667,6.843324,6.1655254,-6.870206,0.122897506
1.114,8.765929,24.313404,6.9520335,6.17816,-6.9199195,0.07076895
1.116,8.760668,24.402401,7.052751,6.1898212,-6.9704337,0.018035054
1.118,8.771768,24.480598,7.14579,6.2002163,-7.021635,-0.035421252
1.12,8.798812,24.548134,7.2319055,6.2090707,-7.0734015,-0.08971393
1.122,8.84136,24.60534,7.3119073,6.21609,-7.125605,-0.14496481
1.124,8.898513,24.65253,7.3869143,6.2210264,-7.1780915,-0.20129657
1.126,8.969163,24.690437,7.457921,6.2236414,-7.230647,-0.25880635
1.128,9.052228,24.71949,7.5259066,6.2237453,-7.2830353,-0.3176
1.13,9.1462555,24.74036,7.5920744,6.2211533,-7.334952,-0.37778437
1.132,9.249674,24.753513,7.6577086,6.215746,-7.3860326,-0.43947446
1.134,9.360664,24.75963,7.7241373,6.2074094,-7.4358563,-0.50276
1.136,9.477515,24.759336,7.7925596,6.196065,-7.483985,-0.5677077
1.138,9.598104,24.75318,7.8643556,6.18166,-7.5299826,-0.63435155
1.14,9.720511,24.742039,7.9408298,6.164156,-7.5734506,-0.7026827
1.142,9.842866,24.726324,8.023037,6.143517,-7.6140637,-0.7726568
1.144,9.963099,24.706657,8.112066,6.119748,-7.651601,-0.8441707
1.146,10.079762,24.683134,8.2087755,6.0928307,-7.685956,-0.9171102
1.148,10.190973,24.656174,8.31376,6.0627623,-7.7170963,-0.99135053
1.15,10.295339,24.625761,8.427701,6.029557,-7.745121,-1.0667484
1.152,10.391436,24.591896,8.550685,5.99323,-7.770208,-1.1431832
1.154,10.478219,24.554356,8.682667,5.953796,-7.7926083,-1.2205243
1.156,10.554857,24.512907,8.823524,5.91125,-7.8126607,-1.2986723
1.158,10.620642,24.467117,8.972925,5.8655753,-7.830741,-1.3775591
1.16,10.6749935,24.416578,9.130495,5.8167663,-7.847265,-1.4571191
1.162,10.717987,24.36052,9.295752,5.7647986,-7.8626547,-1.5373144
1.164,10.749621,24.298368,9.467795,5.70967,-7.8772864,-1.6181023
1.166,10.770262,24.229345,9.645442,5.6513834,-7.891457,-1.6994655
1.168,10.780434,24.152706,9.827457,5.589995,-7.9053903,-1.7813646
1.17,10.780956,24.067526,10.012684,5.5255895,-7.919171,-1.8637393
1.172,10.772533,23.973137,10.199949,5.45829,-7.93277,-1.9465318
1.174,10.756334,23.868822,10.388039,5.3882394,-7.946049,-2.0296726
1.176,10.733226,23.75392,10.575569,5.315641,-7.9587884,-2.1130288
1.178,10.704587,23.627785,10.76129,5.240694,-7.9706993,-2.1964483
1.18,10.671656,23.48979,10.9438305,5.1636333,-7.981421,-2.2797585
1.182,10.635585,23.339712,11.122079,5.084675,-7.9905877,-2.3627348
1.184,10.597448,23.177126,11.294963,5.0040493,-7.9978185,-2.4451282
1.186,10.55839,23.001831,11.461511,4.9219394,-8.002783,-2.5266602
1.188,10.519577,22.813713,11.620892,4.838521,-8.005195,-2.6070395
1.19,10.481942,22.613024,11.772284,4.753943,-8.0048,-2.685995
1.192,10.446463,22.399828,11.915031,4.668297,-8.001387,-2.7632508
1.194,10.413979,22.174473,12.048855,4.581671,-7.9947844,-2.8385878
1.196,10.384929,21.937294,12.173606,4.4941216,-7.984838,-2.9118261
1.198,10.359933,21.688911,12.289127,4.405678,-7.9714313,-2.982821
1.2,10.33924,21.430042,12.395385,4.3163548,-7.954452,-3.0514865
1.202,10.323135,21.161303,12.492624,4.2261596,-7.9338207,-3.1177769
1.204,10.311543,20.88359,12.581078,4.1351066,-7.9094524,-3.181695
1.206,10.304346,20.597652,12.661043,4.0431976,-7.8813033,-3.2432675
1.208,10.30142,20.30433,12.7329235,3.9504638,-7.849345,-3.3025632
1.21,10.302578,20.00446,12.79717,3.8569603,-7.813526,-3.3596654
1.212,10.307465,19.69888,12.854155,3.7627606,-7.7737994,-3.4146242
1.214,10.315572,19.388348,12.904521,3.6679592,-7.730092,-3.4675245
1.216,10.326445,19.073801,12.94894,3.57269,-7.682308,-3.5184498
1.218,10.33944,18.75597,12.987738,3.4770901,-7.6303673,-3.5674806
1.22,10.35417,18.435673,13.0214405,3.3813283,-7.5741577,-3.614665
1.222,10.369824,18.113634,13.050261,3.2855713,-7.5135736,-3.6600635
1.224,10.386143,17.790451,13.074539,3.1899889,-7.4485435,-3.7037032
1.226,10.402374,17.466866,13.094582,3.0947583,-7.379054,-3.7455926
1.228,10.418166,17.143358,13.110517,3.000034,-7.3051395,-3.7857351
1.23,10.4333,16.82048,13.122343,2.9059699,-7.226939,-3.824132
1.232,10.447376,16.49863,13.12982,2.8126683,-7.14465,-3.8607903
1.234,10.460375,16.178146,13.132922,2.7202244,-7.0585947,-3.895711
1.236,10.472026,15.859364,13.131534,2.6286798,-6.969137,-3.9289007
1.238,10.482099,15.542657,13.125542,2.538077,-6.8767214,-3.9603672
1.24,10.490705,15.228249,13.114615,2.448439,-6.781793,-3.9901357
1.242,10.497881,14.916445,13.09853,2.3597653,-6.684797,-4.018242
1.244,10.503666,14.607427,13.076922,2.2720482,-6.58617,-4.044734
1.246,10.508373,14.301294,13.049533,2.1852872,-6.4863315,-4.0696564
1.248,10.51217,13.998126,13.015984,2.0994732,-6.3856277,-4.093044
1.25,10.515511,13.697767,12.975954,2.0146043,-6.284393,-4.1149426
1.252,10.5185175,13.400427,12.929354,1.9307003,-6.1829033,-4.1354012
1.254,10.521654,13.105976,12.875966,1.8477855,-6.0813823,-4.154447
1.256,10.525212,12.814504,12.815607,1.7659051,-5.9799824,-4.172117
1.258,10.529423,12.525789,12.748165,1.685097,-5.878803,-4.1884365
1.26,10.534922,12.239761,12.673677,1.6054358,-5.777881,-4.203426
1.262,10.541954,11.956305,12.592052,1.526993,-5.6771946,-4.2170773
1.264,10.550903,11.675334,12.503559,1.4498496,-5.576714,-4.229377
1.266,10.562086,11.396834,12.408459,1.374083,-5.476399,-4.2403045
1.268,10.576008,11.120652,12.306902,1.2997646,-5.3762236,-4.249811
1.27,10.593033,10.846704,12.199008,1.2269492,-5.276203,-4.2578535
1.272,10.6133585,10.575007,12.085267,1.1556809,-5.176382,-4.264374
1.274,10.637306,10.305361,11.966074,1.0859907,-5.0768623,-4.2693315
1.276,10.6652355,10.037804,11.841915,1.0178981,-4.977759,-4.2726927
1.278,10.697283,9.772276,11.713324,0.95141244,-4.879223,-4.2744484
1.28,10.733579,9.508697,11.580685,0.8865254,-4.7813845,-4.274623
1.282,10.774412,9.246975,11.444538,0.82322836,-4.684355,-4.2732553
1.284,10.819679,8.987088,11.30537,0.7615037,-4.588211,-4.27042
1.286,10.869576,8.729,11.163798,0.7013738,-4.4929824,-4.266202
1.288,10.923954,8.472782,11.020359,0.64283204,-4.398652,-4.2607102
1.29,10.982692,8.218309,10.875601,0.58591056,-4.3051567,-4.2540445
1.292,11.045615,7.965539,10.729965,0.5306339,-4.2123914,-4.2462997
1.294,11.112588,7.714686,10.583842,0.47703314,-4.1202564,-4.237543
1.296,11.183157,7.4658017,10.437439,0.4251547,-4.028637,-4.22783
1.298,11.257009,7.2190485,10.290991,0.3750434,-3.9374456,-4.21719
1.3,11.333562,6.974701,10.14467,0.32670546,-3.8466208,-4.205635
1.302,11.412338,6.732997,9.998594,0.2801423,-3.7561646,-4.1931524
1.304,11.492701,6.494169,9.852892,0.23534179,-3.6660924,-4.1796823
1.306,11.574225,6.2585077,9.707684,0.1922555,-3.5764751,-4.1651387
1.308,11.656285,6.0262856,9.563054,0.15083241,-3.4874306,-4.1494145
1.31,11.738277,5.7979,9.419046,0.111011505,-3.3991032,-4.1323853
1.312,11.819628,5.573742,9.27549,0.07272482,-3.311668,-4.113922
1.314,11.899742,5.3541646,9.132366,0.0359056,-3.2252855,-4.0938993
1.316,11.978077,5.139706,8.989643,0.0004954338,-3.1401358,-4.0722446
1.318,12.054028,4.9307013,8.847303,-0.03354001,-3.0563526,-4.048915
1.32,12.12724,4.727583,8.705389,-0.06623554,-2.9740293,-4.023908
1.322,12.197176,4.5307207,8.563931,-0.09758806,-2.893231,-3.9972587
1.324,12.263628,4.340432,8.422939,-0.12759042,-2.8139505,-3.9690251
1.326,12.326338,4.156927,8.282471,-0.15623307,-2.7361455,-3.939321
1.328,12.385269,3.9805217,8.142821,-0.18349147,-2.6597264,-3.9082556
1.33,12.440393,3.8111887,8.004249,-0.20932436,-2.5845656,-3.8759277
1.332,12.491775,3.6490245,7.8671207,-0.23369288,-2.5105119,-3.8424375
1.334,12.539402,3.4940572,7.7316484,-0.25655127,-2.437398,-3.8078694
1.336,12.583578,3.3461428,7.598071,-0.2778517,-2.3650498,-3.7722883
1.338,12.624432,3.205122,7.466716,-0.29757357,-2.2932959,-3.7357554
1.34,12.662112,3.0709076,7.337661,-0.31570375,-2.2219982,-3.6983223
1.342,12.697025,2.9432797,7.2111783,-0.33225262,-2.151056,-3.660061
1.344,12.729624,2.8218918,7.087405,-0.34726512,-2.0804179,-3.6210496
1.346,12.760221,2.7063174,6.966568,-0.3608247,-2.0100918,-3.5813894
1.348,12.789188,2.5962248,6.848922,-0.3730266,-1.9401238,-3.5411932
1.35,12.817097,2.4910784,6.7346725,-0.38400257,-1.8706319,-3.500572
1.352,12.844331,2.3905315,6.623692,-0.39389288,-1.801762,-3.459643
1.354,12.871191,2.294178,6.5160437,-0.40283298,-1.7336725,-3.4185302
1.356,12.898083,2.2016115,6.411479,-0.41096973,-1.6665506,-3.3773422
1.358,12.925329,2.1124058,6.3097897,-0.41845894,-1.6006083,-3.3362036
1.36,12.953224,2.0260086,6.2106824,-0.42542642,-1.5360476,-3.2952127
1.362,12.982044,1.9418926,6.113923,-0.43199974,-1.4730575,-3.2544513
1.364,13.011921,1.8597565,6.019187,-0.43828225,-1.4118218,-3.213998
1.366,13.043014,1.7791634,5.9263268,-0.44436496,-1.3525127,-3.173912
1.368,13.075329,1.6999216,5.8350916,-0.45032197,-1.2952801,-3.1342294
1.37,13.108812,1.6215339,5.745181,-0.45620072,-1.2402382,-3.0949652
1.372,13.143587,1.5437737,5.6564684,-0.46203357,-1.1874559,-3.05613
1.374,13.179516,1.4662185,5.568814,-0.46783173,-1.1369528,-3.0177414
1.376,13.216505,1.388627,5.481951,-0.4735906,-1.0886936,-2.9798174
1.378,13.25412,1.3107667,5.39589,-0.47929007,-1.0425997,-2.9423769
1.38,13.292149,1.2323341,5.310719,-0.48490375,-0.9985454,-2.905431
1.382,13.329989,1.1533313,5.226358,-0.49041802,-0.9563872,-2.8689842
1.384,13.367132,1.0738077,5.142868,-0.4958154,-0.9159541,-2.833044
1.386,13.403044,0.9936309,5.060403,-0.5010859,-0.8770896,-2.7976074
1.388,13.437334,0.91278744,4.978883,-0.50623405,-0.83966625,-2.7626667
1.39,13.469296,0.8314681,4.8985243,-0.5112787,-0.8035717,-2.728214
1.392,13.498222,0.74977016,4.8195114,-0.5162443,-0.7687347,-2.6942036
1.394,13.523529,0.6677809,4.7421165,-0.5211766,-0.7350875,-2.6605744
1.396,13.544544,0.5858054,4.6665998,-0.5260929,-0.70259285,-2.6272643
1.398,13.560585,0.5039382,4.5931687,-0.5310225,-0.6712326,-2.5942066
1.4,13.57089,0.42257023,4.522079,-0.5359973,-0.641014,-2.5613365
1.402,13.574759,0.3418355,4.453549,-0.5410596,-0.61197156,-2.528595
1.404,13.571511,0.26197004,4.387663,-0.54625785,-0.5841472,-2.4959357
1.406,13.560776,0.18318987,4.3246756,-0.5516504,-0.5576439,-2.4633045
1.408,13.541716,0.10568476,4.2645807,-0.55731416,-0.53259194,-2.4306574
1.41,13.51419,0.029572964,4.2075653,-0.56332225,-0.5091355,-2.397966
1.412,13.477746,-0.04489994,4.153524,-0.56973493,-0.48739284,-2.3651757
1.414,13.431908,-0.11759472,4.1025624,-0.57659554,-0.4674735,-2.332251
1.416,13.376491,-0.18838167,4.054706,-0.5839359,-0.4494142,-2.299162
1.418,13.3112545,-0.25715256,4.009912,-0.59174263,-0.43317455,-2.2658544
1.42,13.23624,-0.32379484,3.9681792,-0.599978,-0.41861582,-2.232297
1.422,13.1515,-0.38832808,3.9295497,-0.6085694,-0.40553212,-2.1984475
1.424,13.057173,-0.45062256,3.8940234,-0.6174321,-0.3936509,-2.1642685
1.426,12.953496,-0.5108094,3.8617496,-0.6264682,-0.3826738,-2.12971
1.428,12.840824,-0.56894016,3.83263,-0.6355704,-0.37228143,-2.0947113
1.43,12.71949,-0.6249666,3.8067412,-0.64464045,-0.362175,-2.0592127
1.432,12.590094,-0.6789212,3.783941,-0.6535845,-0.3520918,-2.0231762
1.434,12.453102,-0.7307911,3.7641459,-0.66233504,-0.34183335,-1.9865443
1.436,12.309325,-0.78077745,3.747281,-0.6708149,-0.33124453,-1.9492759
1.438,12.159291,-0.8288779,3.7333364,-0.6789615,-0.32019913,-1.911332
1.44,12.003776,-0.87508345,3.7222178,-0.68671286,-0.30856657,-1.8727013
1.442,11.843523,-0.91955423,3.713799,-0.6939973,-0.29621214,-1.8333768
1.444,11.679461,-0.96226835,3.7081766,-0.70074165,-0.28297317,-1.7934048
1.446,11.51215,-1.0033073,3.7053854,-0.70685685,-0.26865387,-1.7528676
1.448,11.342597,-1.0427761,3.7052898,-0.71227765,-0.25305712,-1.7118814
1.45,11.1716,-1.0807586,3.7078304,-0.71696407,-0.23596698,-1.6705561
1.452,10.999783,-1.1173532,3.712831,-0.7208749,-0.21719885,-1.6290227
1.454,10.827701,-1.1523871,3.7201693,-0.7239989,-0.19661045,-1.5874112
1.456,10.656021,-1.1859,3.7296789,-0.72636026,-0.17412084,-1.5458658
1.458,10.48534,-1.2178657,3.7411802,-0.72800505,-0.14972442,-1.5045179
1.46,10.315638,-1.2481806,3.7545002,-0.72899437,-0.123467445,-1.4634798
1.462,10.147563,-1.2769847,3.769736,-0.72941804,-0.09546083,-1.4228572
1.464,9.981227,-1.3042555,3.7865825,-0.72938013,-0.06585312,-1.382743
1.466,9.816667,-1.3299451,3.8050492,-0.72900575,-0.034826636,-1.3432411
1.468,9.653839,-1.3539412,3.8251302,-0.728441,-0.0025651455,-1.3044475
1.47,9.492372,-1.3759506,3.8468442,-0.72781456,0.03074944,-1.2664349
1.472,9.331919,-1.3958175,3.8701248,-0.72726274,0.064961135,-1.2292964
1.474,9.171961,-1.4134421,3.8950286,-0.7268989,0.09995365,-1.1931201
1.476,9.011789,-1.428571,3.9214094,-0.7268679,0.13564625,-1.1579895
1.478,8.850607,-1.441025,3.9492931,-0.7272713,0.17201632,-1.123966
1.48,8.68749,-1.4504781,3.978773,-0.72820294,0.20906833,-1.0910995
1.482,8.521132,-1.4567168,4.010018,-0.7297444,0.2468318,-1.0594163
1.484,8.350511,-1.4594042,4.043241,-0.73194635,0.28537512,-1.0289383
1.486,8.174349,-1.4583507,4.078801,-0.7348374,0.32478166,-0.99965316
1.488,7.9915257,-1.4530506,4.1170197,-0.73842186,0.3651536,-0.9715651
1.49,7.800494,-1.4432476,4.1580977,-0.74271613,0.40659595,-0.94465977
1.492,7.6000695,-1.4285817,4.2021356,-0.74772525,0.44917858,-0.9189105
1.494,7.38886,-1.4087937,4.2495036,-0.7534553,0.49296975,-0.8942733
1.496,7.1653876,-1.3833504,4.300412,-0.75993574,0.5380282,-0.87071407
1.498,6.9283295,-1.3518813,4.355142,-0.76720905,0.58439463,-0.84820104
1.5,6.67653,-1.3139663,4.413852,-0.7753477,0.6320933,-0.8267474
1.502,6.408876,-1.2690439,4.476703,-0.7844229,0.68112886,-0.8063853
1.504,6.1241536,-1.216574,4.5437202,-0.7945229,0.73148865,-0.78718716
1.506,5.8217416,-1.1563478,4.6150885,-0.8057292,0.7831625,-0.7692557
1.508,5.500804,-1.0878763,4.6906376,-0.81812644,0.8361169,-0.7527416
1.51,5.160841,-1.0108359,4.7701125,-0.8317639,0.8903185,-0.73779905
1.512,4.8013954,-0.92477393,4.853293,-0.8466865,0.94573337,-0.7246002
1.514,4.422282,-0.82946086,4.939804,-0.86291504,1.0023191,-0.71331596
1.516,4.0234222,-0.7246814,5.0292616,-0.8804375,1.0600235,-0.7040729
1.518,3.6051662,-0.61018276,5.1213965,-0.89924294,1.1187732,-0.696952
1.52,3.1676335,-0.48585773,5.2157073,-0.9192937,1.1784554,-0.6919939
1.522,2.7115657,-0.35172415,5.3115892,-0.9405596,1.2389529,-0.68918633
1.524,2.2379332,-0.20784616,5.408301,-0.96302694,1.3000922,-0.68849796
1.526,1.7475305,-0.05431795,5.505162,-0.9866946,1.3616762,-0.68987113
1.528,1.2416425,0.10860741,5.601433,-1.0115658,1.4234766,-0.69322634
1.53,0.72151613,0.28059864,5.6965322,-1.0376143,1.4852676,-0.69850403
1.532,0.18889332,0.46119928,5.7895575,-1.0648253,1.5468303,-0.705668
1.534,-0.35454655,0.649775,5.8797407,-1.0931443,1.6080011,-0.71472466
1.536,-0.90693843,0.8457562,5.9660025,-1.1224902,1.668673,-0.72571844
1.538,-1.4663388,1.0484395,6.0476546,-1.1527548,1.7287662,-0.7387176
1.54,-2.0305023,1.256989,6.1237326,-1.1837813,1.788281,-0.7538444
1.542,-2.597484,1.4705935,6.1936603,-1.2153639,1.847245,-0.771257
1.544,-3.165072,1.6882957,6.256888,-1.2472632,1.9057105,-0.79112315
1.546,-3.731069,1.9093337,6.312947,-1.2792168,1.9637389,-0.81362945
1.548,-4.2931285,2.1325371,6.361236,-1.3109462,2.0213661,-0.83894867
1.55,-4.849292,2.357047,6.400996,-1.3421829,2.078596,-0.8672546
1.552,-5.397616,2.5824401,6.431823,-1.3726753,2.1353884,-0.898685
1.554,-5.936142,2.8075566,6.453089,-1.4022093,2.1916466,-0.9333375
1.556,-6.4620733,3.030569,6.4643946,-1.4305955,2.2472599,-0.9713118
1.558,-6.9756727,3.2512279,6.4647417,-1.4576846,2.3020387,-1.0127076
1.56,-7.475253,3.4685225,6.454528,-1.4833878,2.3557646,-1.0576154
1.562,-7.9591546,3.6817205,6.4330854,-1.5076474,2.4081826,-1.1061465
1.564,-8.426684,3.8903341,6.4000835,-1.5304555,2.459017,-1.1584184
1.566,-8.877352,4.0940876,6.355255,-1.5518228,2.507981,-1.214546
1.568,-9.310753,4.2923594,6.29815,-1.5717953,2.5548034,-1.2746642
1.57,-9.726646,4.484783,6.2283783,-1.5904324,2.599219,-1.3389109
1.572,-10.125654,4.671261,6.1455464,-1.6078162,2.6409926,-1.4074261
1.574,-10.508055,4.8515987,6.0493464,-1.6240747,2.6798959,-1.4803443
1.576,-10.8745775,5.0257654,5.939147,-1.6393743,2.7156606,-1.5578015
1.578,-11.226333,5.193924,5.8146167,-1.6539373,2.7480311,-1.6398983
1.58,-11.564009,5.356128,5.6752715,-1.6680129,2.776693,-1.7267166
1.582,-11.888679,5.512475,5.520923,-1.6818821,2.801271,-1.8184024
1.584,-12.201499,5.6631374,5.3512278,-1.6958401,2.8214045,-1.9150834
1.586,-12.503393,5.8083296,5.165969,-1.7101223,2.8367968,-2.016718
1.588,-12.795282,5.9482365,4.964885,-1.7248895,2.8470273,-2.123341
1.59,-13.077984,6.082947,4.748108,-1.740189,2.8517137,-2.2350988
1.592,-13.352077,6.2125607,4.515562,-1.7559878,2.850593,-2.35208
1.594,-13.617851,6.337238,4.2676716,-1.7722231,2.8433626,-2.4743443
1.596,-13.875466,6.456675,4.004962,-1.7887484,2.8297608,-2.6019447
1.598,-14.124947,6.5703936,3.7281775,-1.8053186,2.8095527,-2.7349076
1.6,-14.365592,6.677991,3.4384668,-1.8216443,2.7825024,-2.8731718
1.602,-14.59691,6.77917,3.1371903,-1.837378,2.748343,-3.0166032
1.604,-14.817843,6.873459,2.825742,-1.8521433,2.7067761,-3.164968
1.606,-15.027282,6.9602027,2.5058134,-1.8655548,2.6574438,-3.317976
1.608,-15.223844,7.038877,2.1793697,-1.877243,2.5999222,-3.4753244
1.61,-15.40588,7.108786,1.848408,-1.8869191,2.533703,-3.6366873
1.612,-15.571869,7.169018,1.5150115,-1.8944159,2.4582427,-3.8017535
1.614,-15.719993,7.218973,1.181457,-1.8997008,2.3729517,-3.9702585
1.616,-15.848851,7.2581215,0.8497777,-1.9029002,2.2772422,-4.141971
1.618,-15.956727,7.2858524,0.52217436,-1.9043502,2.1704938,-4.316735
1.62,-16.042036,7.301588,0.20064235,-1.9045435,2.0521321,-4.4944077
1.622,-16.103575,7.304818,-0.11264324,-1.9040822,1.9216607,-4.674822
1.624,-16.140139,7.2951574,-0.41551828,-1.9036342,1.7786714,-4.8578186
1.626,-16.150562,7.2723722,-0.70621395,-1.9038897,1.6228826,-5.043236
1.628,-16.134275,7.2361774,-0.9834206,-1.905487,1.4541684,-5.2308292
1.63,-16.090942,7.186582,-1.245646,-1.9089658,1.2725776,-5.4202995
1.632,-16.019506,7.123943,-1.4914088,-1.9147426,1.0783011,-5.611368
1.634,-15.920017,7.048358,-1.7198148,-1.9231371,0.8716903,-5.8037515
1.636,-15.7925625,6.9599905,-1.9299991,-1.93434,0.6532538,-5.997095
1.638,-15.637163,6.8594313,-2.121008,-1.9484705,0.42358708,-6.191078
1.64,-15.454213,6.747425,-2.2921238,-1.9656062,0.1833725,-6.385483
1.642,-15.244226,6.625019,-2.4424627,-1.9858047,-0.066479206,-6.579892
1.644,-15.007503,6.4930153,-2.5711982,-2.0090978,-0.32502198,-6.773778
1.646,-14.744626,6.352253,-2.6776743,-2.0354888,-0.59125257,-6.966669
1.648,-14.456171,6.2039776,-2.761569,-2.0649245,-0.8639655,-7.158061
1.65,-14.143063,6.0494943,-2.8224275,-2.0973556,-1.1418555,-7.3474236
1.652,-13.805565,5.8900533,-2.8599463,-2.132706,-1.4235168,-7.5342326
1.654,-13.444826,5.7271676,-2.874127,-2.170852,-1.7074227,-7.7180643
1.656,-13.061654,5.5624237,-2.865298,-2.2116039,-1.9919143,-7.8985796
1.658,-12.656832,5.3975315,-2.8334692,-2.25475,-2.2752545,-8.075546
1.66,-12.231142,5.2337646,-2.7785292,-2.3000257,-2.5556693,-8.248841
1.662,-11.785259,5.0722,-2.70089,-2.3471208,-2.831448,-8.418422
1.664,-11.320294,4.9146004,-2.601048,-2.395716,-3.1008408,-8.584398
1.666,-10.837859,4.7634335,-2.4797976,-2.4454756,-3.3621817,-8.746927
1.668,-10.336932,4.619137,-2.3375247,-2.496035,-3.6139035,-8.906191
1.67,-9.818932,4.4829216,-2.1761608,-2.5470347,-3.8545039,-9.062427
1.672,-9.285394,4.3560257,-1.996486,-2.5980818,-4.082554,-9.215849
1.674,-8.737131,4.2392635,-1.7996922,-2.6487343,-4.2967286,-9.366661
1.676,-8.174749,4.133471,-1.5871258,-2.6985373,-4.495813,-9.514921
1.678,-7.5993714,4.0398197,-1.3603191,-2.7469878,-4.678665,-9.660582
1.68,-7.011899,3.9591124,-1.1207657,-2.793523,-4.8442826,-9.803513
1.682,-6.412952,3.8916235,-0.8702254,-2.8375645,-4.9918265,-9.943534
1.684,-5.8037214,3.8380594,-0.60990405,-2.8785212,-5.120582,-10.080333
1.686,-5.1853247,3.7989473,-0.34077334,-2.9157956,-5.2300224,-10.213472
1.688,-4.558426,3.7744873,-0.064146996,-2.9487684,-5.319765,-10.34243
1.69,-3.924539,3.7650685,0.21919942,-2.9768555,-5.3896146,-10.466647
1.692,-3.2844453,3.771566,0.50758076,-2.9994936,-5.439529,-10.585522
1.694,-2.6384602,3.7927308,0.7999525,-3.0161242,-5.469602,-10.69846
1.696,-1.9890355,3.82989,1.095685,-3.0262334,-5.4800806,-10.80499
1.698,-1.3364906,3.88281,1.3939958,-3.029334,-5.471382,-10.90477
1.7,-0.6813628,3.9511538,1.6940053,-3.0249717,-5.4441056,-10.997629
1.702,-0.024707794,4.034893,1.9953696,-3.012734,-5.3990364,-11.083599
1.704,0.632643,4.13382,2.2975025,-2.9922762,-5.337203,-11.162948
1.706,1.2904633,4.247806,2.6000385,-2.9633107,-5.259837,-11.236165
1.708,1.9485315,4.376373,2.902484,-2.9256177,-5.1684556,-11.303904
1.71,2.6065946,4.51948,3.2043514,-2.8790712,-5.0648246,-11.366931
1.712,3.2646751,4.676601,3.5048985,-2.823632,-4.9509525,-11.426043
1.714,3.9229116,4.846423,3.803815,-2.7593765,-4.829068,-11.482012
1.716,4.5816374,5.0283766,4.1008234,-2.6864893,-4.701528,-11.535505
1.718,5.2410803,5.221734,4.39576,-2.6052463,-4.57094,-11.587001
1.72,5.901701,5.425646,4.688445,-2.5160065,-4.4399943,-11.636841
1.722,6.564684,5.6393557,4.978772,-2.419295,-4.3114967,-11.685221
1.724,7.230941,5.8618975,5.2669415,-2.3156962,-4.1884174,-11.732078
1.726,7.9016585,6.0923424,5.5529456,-2.205872,-4.0736895,-11.777258
1.728,8.578038,6.3297324,5.836793,-2.0906053,-3.9701986,-11.820598
1.73,9.261647,6.573036,6.118821,-1.9707508,-3.8807871,-11.8619
1.732,9.95413,6.8217554,6.3995233,-1.8472295,-3.808124,-11.900939
1.734,10.657117,7.0754128,6.679391,-1.7210164,-3.7546606,-11.9375
1.736,11.372442,7.333065,6.9592667,-1.5931149,-3.72262,-11.971405
1.738,12.102218,7.5947237,7.240592,-1.4645681,-3.71398,-12.002529
1.74,12.848516,7.860246,7.5248375,-1.3363881,-3.7303495,-12.030806
1.742,13.612804,8.129361,7.813054,-1.2096128,-3.773028,-12.056347
1.744,14.397627,8.4022255,8.107069,-1.0852008,-3.8429768,-12.079157
1.746,15.20512,8.679092,8.409098,-0.96402264,-3.9407735,-12.099232
1.748,16.036854,8.960368,8.721333,-0.8468933,-4.0666127,-12.116652
1.75,16.895048,9.245833,9.045839,-0.73449516,-4.2202754,-12.13146
1.752,17.780962,9.536567,9.385529,-0.62736607,-4.401135,-12.143735
1.754,18.695446,9.834268,9.74321,-0.52590656,-4.608132,-12.153591
1.756,19.641249,10.139202,10.121465,-0.43038988,-4.839885,-12.161192
1.758,20.619133,10.45223,10.522686,-0.34095526,-5.09468,-12.166718
1.76,21.629889,10.774138,10.949235,-0.2576232,-5.3705416,-12.17033
1.762,22.673426,11.105893,11.403206,-0.18028164,-5.665318,-12.172202
1.764,23.74971,11.448424,11.887454,-0.10871935,-5.9767365,-12.172498
1.766,24.858444,11.802308,12.403691,-0.042637825,-6.3024454,-12.171316
1.768,25.998596,12.16809,12.952966,0.018315315,-6.6401415,-12.168629
1.77,27.169054,12.546133,13.536243,0.074539185,-6.987646,-12.164345
1.772,28.368484,12.936165,14.153896,0.1264658,-7.3428535,-12.1582365
1.774,29.594883,13.337666,14.805668,0.17452812,-7.703879,-12.149975
1.776,30.845825,13.750008,15.490852,0.21922159,-8.068947,-12.1391
1.778,32.11847,14.172453,16.208412,0.2609973,-8.436414,-12.125128
1.78,33.41007,14.6035595,16.956924,0.30031538,-8.804848,-12.107412
1.782,34.717537,15.042082,17.734085,0.33766794,-9.172882,-12.085189
1.784,36.038147,15.486197,18.536945,0.3735938,-9.539217,-12.057731
1.786,37.36906,15.933723,19.362286,0.40863657,-9.902464,-12.024237
1.788,38.707546,16.382286,20.206635,0.4433534,-10.26124,-11.983814
1.79,40.05089,16.829155,21.066202,0.4783485,-10.614096,-11.935528
1.792,41.396965,17.2716,21.936928,0.51422787,-10.959551,-11.878353
1.794,42.744278,17.706491,22.814098,0.5516038,-11.296208,-11.81118
1.796,44.09168,18.130539,23.692814,0.59112024,-11.622662,-11.732819
1.798,45.438377,18.540585,24.568558,0.6334193,-11.937662,-11.642221
1.8,46.784336,18.933367,25.436537,0.67913413,-12.24016,-11.538391
1.802,48.1294,19.305548,26.292816,0.7288425,-12.529276,-11.420249
1.804,49.47359,19.655848,27.133001,0.783051,-12.804398,-11.286891
1.806,50.818913,19.980726,27.95299,0.8422109,-13.065102,-11.1376095
1.808,52.16554,20.278547,28.749205,0.9067602,-13.311185,-10.9719
1.81,53.514103,20.548475,29.518036,0.9771434,-13.542501,-10.789422
1.812,54.86613,20.78938,30.256386,1.0538352,-13.759001,-10.590047
1.814,56.222263,21.001038,30.961386,1.1373469,-13.960632,-10.373813
1.816,57.582874,21.18442,31.630589,1.2282519,-14.147331,-10.140748
1.818,58.948242,21.341309,32.262375,1.3271369,-14.319007,-9.890845
1.82,60.318443,21.473888,32.855705,1.4346459,-14.475597,-9.624019
1.822,61.692936,21.585684,33.41069,1.5514133,-14.6169815,-9.340038
1.824,63.0708,21.682137,33.927742,1.6780772,-14.743117,-9.038485
1.826,64.45069,21.768671,34.407722,1.8152567,-14.854068,-8.718905
1.828,65.83089,21.852238,34.851723,1.963534,-14.949915,-8.380842
1.83,67.20873,21.940987,35.26213,2.1234422,-15.030891,-8.023906
1.832,68.58068,22.043884,35.642216,2.2955163,-15.097364,-7.647896
1.834,69.942345,22.171122,35.99621,2.4802778,-15.149809,-7.2528725
1.836,71.28913,22.333597,36.32909,2.6782937,-15.1888,-6.839155
1.838,72.61608,22.542904,36.64653,2.8901434,-15.214966,-6.4072304
1.84,73.91753,22.811613,36.954544,3.116457,-15.229088,-5.957788
1.842,75.18741,23.15261,37.259003,3.3578997,-15.231943,-5.4915886
1.844,76.42121,23.578358,37.565834,3.6151156,-15.224381,-5.009324
1.846,77.61206,24.103514,37.881268,3.8886476,-15.207311,-4.51158
1.848,78.755,24.741316,38.21134,4.1789103,-15.181655,-3.9986937
1.85,79.84554,25.505653,38.56194,4.486116,-15.148434,-3.4707563
1.852,80.8801,26.409004,38.941612,4.8103023,-15.108598,-2.9276154
1.854,81.84538,27.471195,39.351974,5.1512756,-15.0630665,-2.3689187
1.856,82.72416,28.71645,39.79497,5.508753,-15.01272,-1.7941816
1.858,83.53253,30.12683,40.286125,5.882295,-14.958336,-1.2027633
1.86,84.28801,31.705372,40.838688,6.2713604,-14.900526,-0.59393024
1.862,84.97591,33.47899,41.44426,6.6753287,-14.839676,0.03310269
1.864,85.5846,35.467705,42.088768,7.0935483,-14.775953,0.67918193
1.866,86.150986,37.659096,42.77046,7.525372,-14.709251,1.3453281
1.868,86.66237,40.082024,43.48903,7.9702215,-14.639117,2.0328078
1.87,87.12131,42.76382,44.25128,8.427568,-14.564584,2.7431514
1.872,87.56076,45.695164,45.069927,8.896984,-14.484089,3.4781966
1.874,88.00005,48.864338,45.943962,9.378063,-14.395409,4.240193
1.876,88.43748,52.293613,46.863243,9.870529,-14.295551,5.031807
1.878,88.886986,55.985355,47.794487,10.374181,-14.180628,5.8559794
1.88,89.371506,59.95091,48.718594,10.888927,-14.045826,6.7159653
1.882,89.94369,64.16437,49.663406,11.41482,-13.885401,7.61529
1.884,90.57063,68.62553,50.65637,11.951989,-13.6928835,8.557447
1.886,91.162834,73.36563,51.700676,12.500406,-13.461211,9.544754
1.888,91.82358,78.32512,52.85379,13.059588,-13.181482,10.580307
1.89,92.64673,83.47908,54.12083,13.629913,-12.84366,11.668842
1.892,93.689026,88.83629,55.46783,14.212572,-12.436871,12.813858
1.894,95.01189,94.38208,56.791557,14.808897,-11.948162,14.01676
1.896,96.63965,100.14062,58.075497,15.418579,-11.36438,15.279965
1.898,98.57292,106.09134,59.330032,16.040491,-10.670034,16.604847
1.9,100.8253,112.17798,60.56996,16.672482,-9.846836,17.990395
1.902,103.39542,118.34765,61.826843,17.310911,-8.877338,19.436975
1.904,106.27927,124.57417,63.138363,17.953135,-7.7420554,20.94412
1.906,109.49857,130.8278,64.50955,18.596548,-6.418655,22.506266
1.908,113.07063,137.06479,65.90706,19.235935,-4.887392,24.115202
1.91,116.99969,143.22543,67.29335,19.861341,-3.1322036,25.7601
1.912,121.27216,149.24382,68.64516,20.457005,-1.1424146,27.425375
1.914,125.85244,155.05972,69.92926,21.005013,1.0865536,29.08823
1.916,130.71092,160.58994,71.12508,21.488945,3.5631442,30.714016
1.918,135.82896,165.74446,72.19974,21.889233,6.2848225,32.268448
1.92,141.17216,170.45203,73.108925,22.18583,9.23498,33.719646
1.922,146.7013,174.65196,73.80176,22.360415,12.393868,35.027996
1.924,152.37302,178.29182,74.22469,22.396696,15.727638,36.15349
1.926,158.1475,181.32268,74.317314,22.286968,19.197346,37.065895
1.928,163.98238,183.69986,74.00824,22.026419,22.748959,37.7332
1.93,169.82799,185.38527,73.22384,21.613848,26.313324,38.12727
1.932,175.62625,186.34874,71.897705,21.059212,29.818844,38.241882
1.934,181.3104,186.57309,69.973785,20.384373,33.188477,38.0896
1.936,186.8029,186.05833,67.39892,19.618706,36.34269,37.692387
1.938,192.0319,184.81323,64.12755,18.795464,39.197033,37.07091
1.94,196.92108,182.86516,60.120956,17.948732,41.6646,36.23936
1.942,201.39693,180.24971,55.36281,17.108608,43.66266,35.20272
1.944,205.3858,177.01215,49.86257,16.297514,45.123783,33.953312
1.946,208.81812,173.20078,43.651833,15.527806,46.004547,32.473755
1.948,211.6187,168.87598,36.783615,14.800962,46.29051,30.741673
1.95,213.7127,164.10823,29.32629,14.110202,46.000763,28.732403
1.952,215.03645,158.96912,21.362946,13.440788,45.18452,26.427694
1.954,215.5381,153.53018,12.993988,12.772549,43.917007,23.822437
1.956,215.17886,147.86296,4.336174,12.08287,42.293785,20.926298
1.958,213.93132,142.03975,-4.4893875,11.346922,40.415386,17.769478
1.96,211.78995,136.12366,-13.357117,10.541809,38.375385,14.4061365
1.962,208.76907,130.17545,-22.136383,9.649855,36.254612,10.908712
1.964,204.9026,124.24629,-30.680603,8.659195,34.11255,7.363758
1.966,200.24316,118.3794,-38.849197,7.5631666,31.98444,3.867715
1.968,194.83038,112.64673,-46.517982,6.3577237,29.881975,0.52137566
1.97,188.72922,107.08453,-53.56423,5.04167,27.789562,-2.5766315
1.972,182.05302,101.70421,-59.859924,3.622612,25.685976,-5.3470488
1.974,174.91656,96.528366,-65.297165,2.1135569,23.547916,-7.7299705
1.976,167.40079,91.60457,-69.80359,0.5313082,21.34392,-9.677207
1.978,159.64888,86.9325,-73.3289,-1.1034689,19.049938,-11.162945
1.98,151.78629,82.51964,-75.84855,-2.7715483,16.643024,-12.188973
1.982,143.91278,78.406364,-77.35744,-4.450646,14.112461,-12.770346
1.984,136.14294,74.62156,-77.85336,-6.1204653,11.456539,-12.940316
1.986,128.60133,71.15493,-77.34658,-7.769683,8.674221,-12.757126
1.988,121.381546,68.0144,-75.85348,-9.392149,5.7760653,-12.287568
1.99,114.55599,65.19558,-73.43185,-10.981557,2.7860365,-11.593549
1.992,108.16249,62.7216,-70.19438,-12.529912,-0.253325,-10.725744
1.994,102.30251,60.578266,-66.25034,-14.025642,-3.282436,-9.726018
1.996,97.07847,58.724957,-61.688583,-15.4514885,-6.2298365,-8.631756
1.998,92.38694,57.20316,-56.64724,-16.785208,-9.0186205,-7.474177
2,88.16553,56.001205,-51.20659,-17.999577,-11.570885,-6.279363
2.002,84.39948,55.07585,-45.425068,-19.064238,-13.812265,-5.071062
2.004,81.066376,54.412468,-39.329807,-19.95014,-15.677943,-3.8709483
2.006,78.16912,53.964176,-33.057358,-20.632727,-17.118744,-2.6985044
2.008,75.71015,53.732563,-26.757214,-21.094769,-18.106405,-1.5709891
2.01,73.6584,53.738194,-20.561962,-21.32888,-18.636257,-0.5031843
2.012,71.98126,53.9794,-14.595373,-21.338512,-18.726711,0.49274397
2.014,70.63472,54.42168,-8.959448,-21.138151,-18.41615,1.4068532
2.016,69.5461,55.037155,-3.7059422,-20.75185,-17.75867,2.2321734
2.018,68.652855,55.811077,1.1511955,-20.210354,-16.818268,2.9664063
2.02,67.908394,56.73876,5.5948486,-19.54796,-15.662866,3.6129255
2.022,67.2814,57.813377,9.592684,-18.799543,-14.358279,4.180127
2.024,66.75409,59.017624,13.126747,-17.997469,-12.962135,4.6806483
2.026,66.29538,60.3516,16.172132,-17.169296,-11.522018,5.129369
2.028,65.86424,61.812103,18.724451,-16.336887,-10.075146,5.540435
2.03,65.43781,63.373634,20.793037,-15.516605,-8.647814,5.924287
2.032,64.99719,65.00621,22.394295,-14.720326,-7.256657,6.286214
2.034,64.52685,66.68144,23.54768,-13.956291,-5.9105296,6.6265583
2.036,64.00845,68.378006,24.279932,-13.229504,-4.6120744,6.9410973
2.038,63.429153,70.07977,24.626265,-12.542336,-3.3595676,7.222004
2.04,62.784077,71.77348,24.621014,-11.895261,-2.1489325,7.460145
2.042,62.075485,73.446625,24.291864,-11.287954,-0.9756489,7.6474338
2.044,61.30965,75.08411,23.662346,-10.7189455,0.16409492,7.7780137
2.046,60.497173,76.66614,22.761795,-10.185926,1.2725434,7.84918
2.048,59.638115,78.17681,21.621376,-9.687132,2.3490233,7.8619223
2.05,58.735268,79.59562,20.274258,-9.221695,3.3897216,7.820976
2.052,57.78847,80.907074,18.743784,-8.789701,4.388716,7.733674
2.054,56.799847,82.09766,17.04734,-8.392455,5.3382225,7.6086826
2.056,55.770653,83.15929,15.20395,-8.032434,6.2293463,7.454986
2.058,54.711647,84.07924,13.2347975,-7.7130094,7.0530825,7.2810464
2.06,53.63502,84.84329,11.168098,-7.4380026,7.8010645,7.093897
2.062,52.547676,85.443054,9.035843,-7.2114477,8.465771,6.8984303
2.064,51.452515,85.87553,6.868648,-7.0371847,9.040757,6.697565
2.066,50.35406,86.1385,4.694278,-6.918453,9.520819,6.4929404
2.068,49.257244,86.23226,2.5458202,-6.8576126,9.902088,6.2858424
2.07,48.162003,86.16481,0.45558548,-6.8559537,10.182109,6.077686
2.072,47.06748,85.94486,-1.550765,-6.9134583,10.360065,5.870194
2.074,45.9797,85.58112,-3.4585485,-7.02857,10.4368515,5.6654553
2.076,44.90251,85.08566,-5.251793,-7.198221,10.415077,5.4660063
2.078,43.839394,84.47272,-6.915929,-7.41785,10.2990675,5.2746935
2.08,42.79236,83.756454,-8.438389,-7.681627,10.094831,5.0943656
2.082,41.761753,82.94963,-9.806417,-7.9827533,9.8098135,4.927692
2.084,40.74746,82.06479,-11.006752,-8.313736,9.452577,4.7772403
2.086,39.74814,81.11532,-12.027275,-8.666705,9.032502,4.645394
2.088,38.761887,80.11613,-12.85825,-9.03368,8.559565,4.534239
2.09,37.785664,79.081406,-13.493242,-9.406773,8.044001,4.4452944
2.092,36.817696,78.02422,-13.930992,-9.778454,7.4960356,4.379363
2.094,35.857906,76.9581,-14.17482,-10.141712,6.92577,4.3364234
2.096,34.906357,75.898346,-14.230608,-10.4902,6.3429775,4.31568
2.098,33.964172,74.86049,-14.106644,-10.81835,5.7569914,4.3157287
2.1,33.033634,73.85826,-13.813204,-11.121353,5.1767883,4.3346176
2.102,32.116547,72.9038,-13.362234,-11.395147,4.611037,4.3699527
2.104,31.214973,72.00729,-12.76651,-11.636398,4.0680056,4.419039
2.106,30.331259,71.176414,-12.041112,-11.8424015,3.5555866,4.4790344
2.108,29.467312,70.41488,-11.203868,-12.011036,3.0812283,4.547025
2.11,28.624853,69.722275,-10.274943,-12.140741,2.6517494,4.620125
2.112,27.805681,69.095184,-9.275351,-12.230465,2.2731304,4.695607
2.114,27.011848,68.529076,-8.225732,-12.279705,1.9502425,4.770966
2.116,26.246319,68.018875,-7.1465034,-12.288429,1.6866486,4.84397
2.118,25.511953,67.559296,-6.0567846,-12.257144,1.4843557,4.9127316
2.12,24.811417,67.14504,-4.975136,-12.186917,1.3437116,4.975762
2.122,24.147888,66.76986,-3.9188843,-12.079346,1.263406,5.031909
2.124,23.524185,66.42665,-2.903881,-11.936553,1.2405958,5.080365
2.126,22.942402,66.10743,-1.9440765,-11.761139,1.2710915,5.1206026
2.128,22.40427,65.80408,-1.051611,-11.556166,1.3495992,5.1523514
2.13,21.910622,65.50873,-0.23687553,-11.325083,1.4700464,5.175573
2.132,21.461697,65.213684,0.49233484,-11.071619,1.6258836,5.1904283
2.134,21.056944,64.91225,1.1301847,-10.799648,1.8103089,5.1973295
2.136,20.695133,64.59824,1.6728897,-10.513153,2.0166597,5.196867
2.138,20.374313,64.266975,2.1187959,-10.21609,2.2387283,5.1897745
2.14,20.091827,63.914757,2.4687824,-9.912262,2.470901,5.176963
2.142,19.844704,63.53907,2.7248802,-9.605217,2.7083266,5.159449
2.144,19.629343,63.138405,2.8905745,-9.298216,2.9470572,5.138261
2.146,19.441813,62.712315,2.970827,-8.994155,3.1840599,5.1143184
2.148,19.277712,62.26163,2.9717946,-8.695553,3.417179,5.0884027
2.15,19.13249,61.787605,2.9007761,-8.404533,3.6450055,5.0611014
2.152,19.001623,61.29262,2.7656014,-8.122911,3.8666646,5.032773
2.154,18.880407,60.7793,2.5738156,-7.8521996,4.081646,5.0035577
2.156,18.76451,60.250843,2.3330126,-7.593679,4.2896357,4.973421
2.158,18.650043,59.710632,2.0505412,-7.3483505,4.4903717,4.942153
2.16,18.533651,59.16234,1.7334851,-7.1170588,4.68357,4.909454
2.162,18.411911,58.609825,1.3889754,-6.900408,4.86887,4.874978
2.164,18.282589,58.05644,1.0230002,-6.6988406,5.045859,4.838381
2.166,18.143501,57.505684,0.6407497,-6.512583,5.214138,4.799386
2.168,17.993294,56.960625,0.24684429,-6.3416595,5.373393,4.7578063
2.17,17.831333,56.42387,-0.15486097,-6.1858797,5.523457,4.713541
2.172,17.657198,55.897648,-0.5615034,-6.0448556,5.664398,4.6665697
2.174,17.470762,55.383583,-0.9713149,-5.917947,5.796585,4.6169834
2.176,17.272182,54.882965,-1.3834629,-5.8043365,5.9207573,4.5649385
2.178,17.061958,54.39602,-1.7982774,-5.7030077,6.0380063,4.5106273
2.18,16.84087,53.922695,-2.2167883,-5.6128106,6.1497498,4.454277
2.182,16.609844,53.462517,-2.6405935,-5.5324864,6.2577176,4.39608
2.184,16.370152,53.014515,-3.0718145,-5.4607215,6.363823,4.336124
2.186,16.122635,52.5773,-3.5131645,-5.3962765,6.470064,4.274411
2.188,15.868241,52.149296,-3.967864,-5.338011,6.5784097,4.2108355
2.19,15.6076975,51.728786,-4.4394817,-5.2848735,6.6906567,4.1452594
2.192,15.34166,51.31402,-4.931736,-5.235955,6.8083243,4.0775604
2.194,15.07046,50.903065,-5.448024,-5.190523,6.9325686,4.0076075
2.196,14.794443,50.4942,-5.9920883,-5.1480045,7.064167,3.9353614
2.198,14.513499,50.085613,-6.567401,-5.1079416,7.203469,3.8609428
2.2,14.227423,49.67559,-7.1772604,-5.06999,7.350375,3.7846572
2.202,13.935648,49.262493,-7.8243437,-5.0338907,7.504326,3.7069738
2.204,13.637888,48.844517,-8.510399,-4.999446,7.6643095,3.6285193
2.206,13.333459,48.420135,-9.236588,-4.9664936,7.828884,3.550045
2.208,13.021262,47.988228,-10.003188,-4.9349174,7.9961796,3.4723196
2.21,12.70081,47.547737,-10.809423,-4.9046245,8.163953,3.396046
2.212,12.371893,47.097374,-11.653074,-4.875557,8.329673,3.321759
2.214,12.033879,46.63627,-12.531847,-4.8477335,8.490541,3.2497275
2.216,11.686326,46.163597,-13.442118,-4.821268,8.643558,3.179917
2.218,11.329242,45.678574,-14.379198,-4.7964,8.785634,3.111968
2.22,10.963123,45.18052,-15.337355,-4.7734776,8.91363,3.045178
2.222,10.58836,44.668663,-16.310148,-4.7529936,9.024426,2.9785693
2.224,10.20603,44.14219,-17.290749,-4.735526,9.115001,2.9110057
2.226,9.816782,43.60048,-18.271296,-4.7216873,9.182477,2.8412728
2.228,9.422296,43.043182,-19.244022,-4.7120833,9.224213,2.7681863
2.23,9.023862,42.46991,-20.20095,-4.707253,9.237883,2.690739
2.232,8.62342,41.879887,-21.133904,-4.707565,9.221532,2.608181
2.234,8.222528,41.27314,-22.034885,-4.713169,9.173664,2.520083
2.236,7.823123,40.649773,-22.896406,-4.7239194,9.093364,2.426384
2.238,7.426983,40.00984,-23.711424,-4.739291,8.9804,2.327361
2.24,7.0357513,39.353653,-24.473867,-4.758448,8.835256,2.223549
2.242,6.6513567,38.681606,-25.178444,-4.780306,8.659142,2.1156664
2.244,6.2751217,37.99439,-25.82085,-4.8035145,8.454044,2.0045712
2.246,5.908244,37.29301,-26.397686,-4.8265624,8.222593,1.8911531
2.248,5.551938,36.578575,-26.90696,-4.8478746,7.9679985,1.7762477
2.25,5.206912,35.85241,-27.34762,-4.8658924,7.693865,1.6605735
2.252,4.8735056,35.115982,-27.719854,-4.8791676,7.404051,1.5447171
2.254,4.5520005,34.371067,-28.024864,-4.8864202,7.1024594,1.4291079
2.256,4.242566,33.619232,-28.265018,-4.8866086,6.7928925,1.3140547
2.258,3.9450006,32.862118,-28.443443,-4.8789797,6.47875,1.1996629
2.26,3.658957,32.101498,-28.56405,-4.863002,6.163045,1.0859098
2.262,3.3838086,31.338875,-28.63129,-4.838423,5.8482537,0.97274256
2.264,3.1192732,30.575579,-28.649647,-4.80525,5.536277,0.8600495
2.266,2.864656,29.81302,-28.623875,-4.7637053,5.2284613,0.7476895
2.268,2.6191645,29.052547,-28.559036,-4.7142015,4.925684,0.6355419
2.27,2.3820372,28.295176,-28.460098,-4.65725,4.628412,0.5235324
2.272,2.1527138,27.541801,-28.332138,-4.593434,4.3368063,0.41161346
2.274,1.9303792,26.793432,-28.179829,-4.523382,4.0508523,0.29984367
2.276,1.7145097,26.050804,-28.007454,-4.4476953,3.770461,0.18840814
2.278,1.5046747,25.314537,-27.81867,-4.3669157,3.4955502,0.077571034
2.28,1.3004808,24.585583,-27.616566,-4.28151,3.226101,-0.032286644
2.282,1.1016996,23.864557,-27.403666,-4.1918464,2.962191,-0.14071
2.284,0.9084718,23.152115,-27.181946,-4.098192,2.704019,-0.2471888
2.286,0.72100544,22.4491,-26.953045,-4.0007415,2.4519227,-0.35123605
2.288,0.53957105,21.756317,-26.718319,-3.8996348,2.2063882,-0.4524144
2.29,0.3645432,21.07448,-26.479046,-3.7950187,1.9679797,-0.5503399
2.292,0.19643545,20.40432,-26.23618,-3.6870496,1.7372724,-0.64475274
2.294,0.035766125,19.746658,-25.990553,-3.5758798,1.5149369,-0.73551935
2.296,-0.116583824,19.102028,-25.742538,-3.461671,1.301651,-0.82265085
2.298,-0.25991523,18.471153,-25.49241,-3.3446486,1.0979993,-0.90631026
2.3,-0.39333642,17.854645,-25.240143,-3.2250657,0.9045185,-0.98679185
2.302,-0.5161382,17.252789,-24.985691,-3.1031785,0.72164583,-1.0644814
2.304,-0.6273347,16.666134,-24.72955,-2.9792566,0.5496703,-1.1398706
2.306,-0.7263435,16.095057,-24.471703,-2.8535802,0.38871282,-1.2135154
2.308,-0.81224716,15.539919,-24.212135,-2.7264445,0.23869026,-1.2860031
2.31,-0.88429713,15.001102,-23.950804,-2.598155,0.09929216,-1.3579289
2.312,-0.9416567,14.4789295,-23.687551,-2.4689987,-0.029958308,-1.4298439
2.314,-0.9839066,13.973694,-23.422287,-2.33933,-0.14984614,-1.5022551
2.316,-1.0106272,13.485676,-23.154755,-2.2094877,-0.26134622,-1.5756621
2.318,-1.0210947,13.014872,-22.884418,-2.0797894,-0.36559045,-1.6504868
2.32,-1.0158187,12.56148,-22.6109,-1.9505246,-0.46382034,-1.7270343
2.322,-0.99439,12.125427,-22.333874,-1.8219577,-0.557314,-1.8055267
2.324,-0.9568943,11.706615,-22.052692,-1.6942939,-0.64729357,-1.8860992
2.326,-0.9035723,11.304922,-21.766666,-1.5676988,-0.7348827,-1.9687839
2.328,-0.83484936,10.920275,-21.475183,-1.4422513,-0.8210263,-2.053559
2.33,-0.7512363,10.55242,-21.177711,-1.3179591,-0.9064758,-2.140339
2.332,-0.65328324,10.201119,-20.873535,-1.1947541,-0.9917171,-2.2289696
2.334,-0.54176927,9.866116,-20.561968,-1.0724928,-1.0769857,-2.31926
2.336,-0.41718388,9.54714,-20.242414,-0.95096964,-1.1622425,-2.4109876
2.338,-0.28056872,9.243569,-19.914421,-0.82992494,-1.2472144,-2.5039337
2.34,-0.1326065,8.954982,-19.577518,-0.70906836,-1.3314102,-2.5978737
2.342,0.025613785,8.681169,-19.231676,-0.58808523,-1.4141669,-2.6926055
2.344,0.19326901,8.421295,-18.876854,-0.46663666,-1.4947144,-2.787962
2.346,0.3692932,8.174904,-18.513218,-0.34439135,-1.5722135,-2.883779
2.348,0.5526929,7.9414105,-18.14085,-0.22103289,-1.6458105,-2.9799201
2.35,0.74272275,7.7201347,-17.760017,-0.09627125,-1.7146915,-3.0762465
2.352,0.93812585,7.5105047,-17.371344,0.030150682,-1.7781162,-3.1726012
2.354,1.1381986,7.311781,-16.975336,0.15844163,-1.8354399,-3.2688358
2.356,1.3419609,7.1234026,-16.572857,0.28876942,-1.886127,-3.3647957
2.358,1.5483725,6.9448013,-16.164799,0.421272,-1.9297464,-3.4602942
2.36,1.756732,6.775308,-15.752329,0.5560687,-1.9659637,-3.5551314
2.362,1.9661858,6.6144505,-15.336521,0.6932863,-1.9945136,-3.649104
2.364,2.175951,6.4616184,-14.918484,0.8330397,-2.0152073,-3.7419896
2.366,2.3853722,6.316371,-14.499367,0.97543126,-2.0279267,-3.8335435
2.368,2.5938456,6.1782703,-14.080262,1.1205835,-2.032577,-3.9235492
2.37,2.8006976,6.0468454,-13.662196,1.2685931,-2.029141,-4.011813
2.372,3.0053556,5.921707,-13.246098,1.419571,-2.017642,-4.098126
2.374,3.2075212,5.8025537,-12.832953,1.5735917,-1.998183,-4.1823153
2.376,3.4067953,5.688998,-12.423545,1.7307063,-1.9709067,-4.264226
2.378,3.602784,5.5807114,-12.018583,1.8909138,-1.9360429,-4.343724
2.38,3.795108,5.4774833,-11.61879,2.0541837,-1.893875,-4.420695
2.382,3.9836035,5.379154,-11.224813,2.2204273,-1.8447602,-4.4950433
2.384,4.167901,5.2855086,-10.8370495,2.3895142,-1.7890941,-4.566679
2.386,4.347927,5.1964264,-10.455837,2.5612671,-1.7273488,-4.6355224
2.388,4.5234814,5.112009,-10.081587,2.7354753,-1.6600469,-4.701518
2.39,4.6942453,5.032026,-9.714364,2.91192,-1.5877459,-4.764625
2.392,4.8600855,4.9566455,-9.354183,3.0903637,-1.511014,-4.824793
2.394,5.0210333,4.8859634,-9.001337,3.270602,-1.430434,-4.8819876
2.396,5.1769934,4.8199863,-8.65567,3.452448,-1.3465981,-4.936205
2.398,5.327862,4.7587795,-8.31722,3.6357481,-1.2600639,-4.987423
2.4,5.4735193,4.7026844,-7.9857426,3.820404,-1.1713585,-5.035644
2.402,5.613848,4.6523514,-7.6609244,4.0063677,-1.0809582,-5.0808454
2.404,5.748619,4.608039,-7.342425,4.1936703,-0.98924893,-5.123026
2.406,5.877901,4.569942,-7.030015,4.382397,-0.8965445,-5.162168
2.408,6.0016656,4.5382023,-6.723699,4.5726514,-0.8030801,-5.198225
2.41,6.1196637,4.5132723,-6.423436,4.7645817,-0.70900494,-5.2311645
2.412,6.2320585,4.4957333,-6.129311,4.9583106,-0.6143679,-5.260926
2.414,6.3386707,4.4860077,-5.841434,5.1539435,-0.5191467,-5.287463
2.416,6.4394336,4.4845924,-5.5600634,5.351554,-0.4232266,-5.310705
2.418,6.5342445,4.4918766,-5.2855635,5.5512023,-0.32641712,-5.3306065
2.42,6.6230564,4.5083604,-5.018485,5.7529383,-0.22846375,-5.347112
2.422,6.7058206,4.534466,-4.759461,5.9567456,-0.12911595,-5.360182
2.424,6.782606,4.570712,-4.509141,6.1625733,-0.02811516,-5.36979
2.426,6.8536854,4.617309,-4.26827,6.3702745,0.07469175,-5.3759494
2.428,6.918851,4.6748967,-4.037624,6.5796475,0.1793303,-5.3786407
2.43,6.9785957,4.743726,-3.8180027,6.7904143,0.28565118,-5.3778214
2.432,7.0330553,4.8241096,-3.6099901,7.0022106,0.39331615,-5.3734694
2.434,7.082664,4.916262,-3.4143076,7.2145987,0.5017488,-5.365638
2.436,7.1278753,5.0203958,-3.2315443,7.4270177,0.6101377,-5.354333
2.438,7.1691923,5.1368246,-3.0621626,7.6387935,0.7174232,-5.339489
2.44,7.2073345,5.2657566,-2.9065328,7.8491592,0.8223865,-5.3209844
2.442,7.243012,5.407421,-2.764854,8.057297,0.9237033,-5.298657
2.444,7.2771764,5.5622096,-2.637317,8.2623625,1.019985,-5.272308
2.446,7.3107843,5.7304134,-2.5240307,8.463538,1.1099312,-5.2417035
2.448,7.3447523,5.912573,-2.4248052,8.660099,1.1923615,-5.206595
2.45,7.3803225,6.1090274,-2.3391447,8.851452,1.2663434,-5.1666822
2.452,7.4186783,6.320145,-2.266666,9.037185,1.331208,-5.1216927
2.454,7.4613857,6.5462627,-2.2069325,9.217057,1.3865796,-5.071329
2.456,7.5094957,6.7878566,-2.159186,9.390989,1.4323375,-5.0153265
2.458,7.564562,7.0455375,-2.1228495,9.559016,1.4685612,-4.953408
2.46,7.627896,7.320033,-2.0972247,9.721249,1.4955401,-4.885356
2.462,7.7010636,7.612062,-2.0815275,9.877869,1.5136025,-4.8110027
2.464,7.7853,7.922399,-2.0751436,10.029008,1.5230552,-4.730251
2.466,7.882195,8.251906,-2.0772104,10.174788,1.52414,-4.6431336
2.468,7.993095,8.601339,-2.0869734,10.315237,1.5169535,-4.5497932
2.47,8.11938,8.971446,-2.1034942,10.4503145,1.5014251,-4.450567
2.472,8.262068,9.363044,-2.126036,10.579912,1.4773324,-4.3459544
2.474,8.422439,9.7765255,-2.153683,10.703885,1.4442941,-4.236608
2.476,8.60148,10.21214,-2.1854706,10.822062,1.4018302,-4.1233644
2.478,8.800055,10.670121,-2.2202296,10.934265,1.3494029,-4.007208
2.48,9.018896,11.150677,-2.2569475,11.040304,1.2864444,-3.8892431
2.482,9.2588005,11.653555,-2.2943532,11.139956,1.2123857,-3.770622
2.484,9.520019,12.178475,-2.3310695,11.232952,1.1266713,-3.6525085
2.486,9.802761,12.724907,-2.3656688,11.318996,1.0287857,-3.5359726
2.488,10.107351,13.2920265,-2.396543,11.397738,0.91833806,-3.4220002
2.49,10.433768,13.878963,-2.4218707,11.468832,0.7950615,-3.3115242
2.492,10.781983,14.484382,-2.440304,11.531897,0.65880823,-3.205427
2.494,11.151776,15.106795,-2.4503675,11.586506,0.50953984,-3.1044123
2.496,11.542539,15.744317,-2.4505212,11.632207,0.34730768,-3.0089793
2.498,11.95354,16.395061,-2.4390144,11.6685295,0.17227042,-2.9193876
2.5,12.3841,17.057234,-2.4141617,11.695005,-0.015372403,-2.8356738
2.502,12.833365,17.728659,-2.3742085,11.711222,-0.21535242,-2.7576745
2.504,13.300018,18.407162,-2.3173585,11.716799,-0.42741185,-2.68505
2.506,13.783223,19.090488,-2.2422194,11.711424,-0.65130866,-2.6172972
2.508,14.281855,19.776228,-2.1474886,11.694903,-0.8868315,-2.5538924
2.51,14.794874,20.461369,-2.0321884,11.667149,-1.133836,-2.494379
2.512,15.321262,21.142622,-1.8956623,11.628163,-1.3922755,-2.4385023
2.514,15.8600025,21.817125,-1.7372217,11.578016,-1.6622196,-2.3862832
2.516,16.409702,22.482021,-1.5563354,11.51684,-1.9438251,-2.3380754
2.518,16.968979,23.133999,-1.3525848,11.444787,-2.2374048,-2.294564
2.52,17.53681,23.769442,-1.1259422,11.361985,-2.5433707,-2.2567396
2.522,18.111887,24.384575,-0.87639904,11.268503,-2.8621821,-2.2258377
2.524,18.693232,24.975756,-0.6041975,11.164345,-3.1943545,-2.203146
2.526,19.279644,25.539238,-0.30988884,11.049463,-3.5404544,-2.1898925
2.528,19.8699,26.071774,0.0057697296,10.923751,-3.9009838,-2.1871626
2.53,20.463156,26.570065,0.34208393,10.787116,-4.276377,-2.195799
2.532,21.058432,27.030958,0.6976614,10.639437,-4.666974,-2.2163682
2.534,21.654692,27.451145,1.0712242,10.480614,-5.0729237,-2.2491484
2.536,22.25058,27.82766,1.4611244,10.310585,-5.494163,-2.2941966
2.538,22.845083,28.157394,1.8657064,10.129368,-5.9303446,-2.351315
2.54,23.437012,28.437824,2.2831678,9.937078,-6.380831,-2.4200182
2.542,24.024843,28.666695,2.7111902,9.733984,-6.844725,-2.4995623
2.544,24.607607,28.841694,3.1480732,9.520544,-7.320849,-2.5890326
2.546,25.183554,28.961096,3.5916576,9.297376,-7.8077374,-2.6874328
2.548,25.750847,29.023293,4.039773,9.0652,-8.303652,-2.7937112
2.55,26.3075,29.02713,4.490135,8.8248205,-8.806613,-2.9069526
2.552,26.851341,28.971592,4.9402943,8.57701,-9.314455,-3.0264633
2.554,27.379662,28.855835,5.38774,8.322398,-9.824921,-3.1517842
2.556,27.889849,28.679625,5.829933,8.061392,-10.335711,-3.2827277
2.558,28.379213,28.442822,6.264304,7.794162,-10.84438,-3.4194021
2.56,28.844118,28.146042,6.6881704,7.5205693,-11.348407,-3.5622182
2.562,29.28086,27.790112,7.099304,7.2401247,-11.8452215,-3.7116919
2.564,29.685492,27.37656,7.4953976,6.9520984,-12.332148,-3.8682866
2.566,30.054243,26.907393,7.8739047,6.655635,-12.806339,-4.032195
2.568,30.382992,26.38504,8.2326975,6.3499336,-13.264824,-4.2031827
2.57,30.667469,25.812407,8.56974,6.034401,-13.704527,-4.3805513
2.572,30.903496,25.193258,8.883366,5.7087207,-14.122373,-4.563149
2.574,31.08697,24.531197,9.172043,5.3729706,-14.515301,-4.7493353
2.576,31.21361,23.830349,9.434497,5.0277085,-14.880392,-4.93711
2.578,31.280106,23.09541,9.6696825,4.6738954,-15.214861,-5.1244044
2.58,31.28365,22.332111,9.876176,4.3128943,-15.516134,-5.309237
2.582,31.222479,21.544111,10.054352,3.9463973,-15.782015,-5.48982
2.584,31.093472,20.733961,10.203791,3.5763083,-16.010725,-5.664612
2.586,30.89535,19.908571,10.324351,3.204731,-16.200897,-5.832388
2.588,30.626806,19.075428,10.415332,2.8338962,-16.351631,-5.9922614
2.59,30.288439,18.240192,10.47744,2.4660945,-16.462545,-6.143642
2.592,29.880749,17.407892,10.511391,2.1036444,-16.53366,-6.2861013
2.594,29.405216,16.583736,10.517804,1.7489548,-16.56544,-6.419287
2.596,28.864136,15.7728405,10.4972515,1.404427,-16.558743,-6.542753
2.598,28.259975,14.9803095,10.450457,1.0724759,-16.51485,-6.6559024
2.6,27.595972,14.210778,10.378239,0.7555237,-16.435524,-6.757878
2.602,26.876038,13.468861,10.281804,0.4558959,-16.322893,-6.8477087
2.604,26.104813,12.758793,10.162161,0.17569876,-16.17931,-6.924342
2.606,25.288855,12.088705,10.022753,-0.08323574,-16.007362,-6.9865475
2.608,24.431566,11.454665,9.859833,-0.31943464,-15.809612,-7.0331573
2.61,23.539501,10.862601,9.675983,-0.531857,-15.588995,-7.063161
2.612,22.618494,10.314972,9.471819,-0.72021484,-15.347815,-7.0759535
2.614,21.674757,9.813453,9.247934,-0.8846259,-15.087766,-7.070966
2.616,20.714134,9.359591,9.005157,-1.0255365,-14.810613,-7.047438
2.618,19.742897,8.954196,8.744185,-1.1438909,-14.517828,-7.0053854
2.62,18.766693,8.598032,8.466015,-1.2409773,-14.210664,-6.9454484
2.622,17.791431,8.291086,8.171583,-1.3183062,-13.889968,-6.868411
2.624,16.822845,8.032629,7.862009,-1.377507,-13.556316,-6.7751
2.626,15.866664,7.8216333,7.538562,-1.4203136,-13.210325,-6.6664343
2.628,14.928479,7.656492,7.202655,-1.4484468,-12.852626,-6.5433645
2.63,14.012901,7.5353327,6.855961,-1.463578,-12.483985,-6.406825
2.632,13.124299,7.4558835,6.4999447,-1.4672854,-12.105358,-6.2576313
2.634,12.267052,7.4152756,6.136295,-1.4610083,-11.717959,-6.0965247
2.636,11.445297,7.4102287,5.766829,-1.4460592,-11.323246,-5.924307
2.638,10.662525,7.4368024,5.3936872,-1.4235406,-10.922916,-5.7419486
2.64,9.921738,7.4912386,5.018909,-1.3943818,-10.518846,-5.5505915
2.642,9.225462,7.5694923,4.6448336,-1.3593426,-10.113025,-5.351536
2.644,8.575888,7.667793,4.273756,-1.3189712,-9.707424,-5.1462727
2.646,7.9752874,7.7821527,3.9077907,-1.2736814,-9.303913,-4.936433
2.648,7.4256086,7.9084578,3.5487287,-1.2237968,-8.904094,-4.7236967
2.65,6.928281,8.042794,3.198348,-1.169522,-8.509176,-4.50973
2.652,6.4844027,8.18138,2.8586507,-1.1109998,-8.119924,-4.2959967
2.654,6.094032,8.320997,2.530909,-1.0483695,-7.7366395,-4.083758
2.656,5.7576513,8.458639,2.2163992,-0.98171353,-7.3592224,-3.8739493
2.658,5.4755774,8.591476,1.9163163,-0.91109824,-6.987302,-3.667224
2.66,5.247525,8.716947,1.6317885,-0.8366275,-6.620187,-3.4641309
2.662,5.072891,8.832991,1.3638306,-0.75845516,-6.257078,-3.2650099
2.664,4.9507966,8.938026,1.113328,-0.67681116,-5.896967,-3.0700316
2.666,4.879939,9.030529,0.8811407,-0.59185624,-5.539534,-2.8790836
2.668,4.858576,9.109614,0.667789,-0.50400907,-5.1846995,-2.6922107
2.67,4.8852777,9.174612,0.47370958,-0.41384143,-4.832067,-2.5096805
2.672,4.958,9.225433,0.29913926,-0.32189965,-4.4816074,-2.3311973
2.674,5.074512,9.26203,0.14436436,-0.22878826,-4.1335597,-2.1564183
2.676,5.232309,9.284264,0.009809256,-0.13519835,-3.78852,-1.9853816
2.678,5.42852,9.292687,-0.10435557,-0.041776747,-3.4472322,-1.8182843
2.68,5.660327,9.287982,-0.19803476,0.05093211,-3.1104093,-1.6553423
2.682,5.9249334,9.270712,-0.2713294,0.14248016,-2.7786987,-1.4967995
2.684,6.219123,9.242185,-0.32434797,0.23254181,-2.4525707,-1.3429244
2.686,6.5398254,9.203732,-0.3573048,0.3209182,-2.1322803,-1.1940291
2.688,6.883419,9.1568165,-0.3704872,0.40751916,-1.8177873,-1.0503998
2.69,7.2462163,9.102151,-0.3637948,0.49237794,-1.5087378,-0.9122102
2.692,7.624511,9.042565,-0.33870673,0.5756351,-1.2044938,-0.77948105
2.694,8.016201,8.981219,-0.29561925,0.65752304,-0.9042094,-0.65209967
2.696,8.417829,8.916908,-0.2351017,0.73835576,-0.6068651,-0.5298465
2.698,8.826734,8.848691,-0.15752506,0.8185149,-0.31142026,-0.41243365
2.7,9.239383,8.777836,-0.06462002,0.89846057,-0.016891494,-0.29958907
2.702,9.653039,8.706096,0.041944265,0.97870296,0.2775525,-0.1911527
2.704,10.065153,8.634327,0.16088462,1.0598041,0.5725057,-0.087118626
2.706,10.473461,8.563011,0.29068255,1.1423502,0.8682971,0.0122899115
2.708,10.876015,8.49234,0.42971802,1.2269332,1.1649992,0.10658249
2.71,11.270997,8.422309,0.5761814,1.3140953,1.4623895,0.19504005
2.712,11.656577,8.352768,0.72823,1.404293,1.7600136,0.27674264
2.714,12.031183,8.283342,0.88396573,1.4978997,2.05727,0.3506307
2.716,12.392496,8.210109,1.0395308,1.5951784,2.3534698,0.41559762
2.718,12.741598,8.139434,1.1975641,1.696278,2.6479406,0.4705211
2.72,13.076458,8.066139,1.3535907,1.8011838,2.9400458,0.51430917
2.722,13.396393,7.9892044,1.5058277,1.9097066,3.2291498,0.546018
2.724,13.700882,7.907901,1.6526065,2.0214832,3.5146418,0.564988
2.726,13.98953,7.8210773,1.7921441,2.135972,3.7958853,0.5708468
2.728,14.261931,7.728127,1.9230046,2.2524493,4.0722156,0.5635363
2.73,14.518107,7.62803,2.0434604,2.370047,4.342923,0.5433084
2.732,14.757872,7.5201936,2.1522057,2.4877672,4.6073027,0.5108043
2.734,14.981056,7.4043055,2.247788,2.6045094,4.8645697,0.46703696
2.736,15.187684,7.2799063,2.328893,2.7191496,5.11376,0.41338873
2.738,15.377598,7.147054,2.394529,2.8305926,5.3537855,0.35157084
2.74,15.551232,7.0057263,2.443871,2.937895,5.5834923,0.2835641
2.742,15.708841,6.856249,2.4764056,3.0403688,5.801693,0.21150899
2.744,15.850359,6.699381,2.4915779,3.1375535,6.0071363,0.13747954
2.746,15.975917,6.5362477,2.4891737,3.2292671,6.198582,0.06339502
2.748,16.085701,6.367894,2.4692128,3.3156252,6.3748426,-0.009088516
2.75,16.179848,6.1952314,2.431859,3.397017,6.534822,-0.07864499
2.752,16.258713,6.019681,2.3775415,3.4740558,6.677579,-0.14438462
2.754,16.32272,5.8424616,2.3067517,3.5474963,6.8023515,-0.20586991
2.756,16.371824,5.6649427,2.2203228,3.6181583,6.9086246,-0.2631147
2.758,16.406036,5.4885187,2.11942,3.686827,6.9960737,-0.3165369
2.76,16.425545,5.3143206,2.0051079,3.7541728,7.064624,-0.36683416
2.762,16.430923,5.1433916,1.8782902,3.820694,7.114407,-0.41485333
2.764,16.422798,4.976653,1.7401578,3.8866625,7.145758,-0.46145868
2.766,16.4016,4.814761,1.5919034,3.9521189,7.159189,-0.50739
2.768,16.367943,4.6585875,1.4347239,4.016878,7.1553183,-0.55317354
2.77,16.3222,4.509016,1.2695997,4.0805607,7.1348357,-0.59904146
2.772,16.265255,4.366637,1.0975816,4.142667,7.0984974,-0.64489555
2.774,16.197947,4.2320147,0.9196882,4.2026596,7.0470533,-0.69034433
2.776,16.120975,4.1055346,0.7367554,4.25995,6.9812164,-0.7348573
2.778,16.035385,3.987504,0.5496173,4.3139834,6.9016757,-0.7778387
2.78,15.942073,3.8781555,0.35908413,4.3643036,6.8091197,-0.8186393
2.782,15.841962,3.7777364,0.16587305,4.4105415,6.7041707,-0.8566797
2.784,15.736047,3.6861744,-0.02938199,4.4524074,6.587393,-0.8915081
2.786,15.62524,3.6039011,-0.22601819,4.4896927,6.4592705,-0.9228475
2.788,15.510519,3.5307994,-0.4234388,4.522276,6.3202434,-0.95061636
2.79,15.392886,3.4668996,-0.6209791,4.550049,6.170698,-0.97490144
2.792,15.273007,3.4123223,-0.81801414,4.5729337,6.010975,-0.995929
2.794,15.151799,3.3670282,-1.0140336,4.590845,5.841368,-1.0140595
2.796,15.030145,3.3307579,-1.208427,4.603665,5.662138,-1.0297201
2.798,14.908812,3.3032312,-1.4004545,4.6112757,5.473585,-1.0433578
2.8,14.788348,3.2844143,-1.5895915,4.6135497,5.2760196,-1.0554054
2.802,14.669355,3.273909,-1.7751567,4.610374,5.0697975,-1.0662665
2.804,14.55232,3.2714944,-1.9564111,4.601653,4.8553367,-1.0762904
2.806,14.437609,3.2767842,-2.132787,4.587335,4.633119,-1.0857234
2.808,14.325805,3.2892733,-2.3035743,4.5674424,4.4036894,-1.0946902
2.81,14.217046,3.3085198,-2.4681268,4.5420675,4.1676307,-1.1032135
2.812,14.111712,3.3340473,-2.625667,4.511343,3.9255853,-1.1112252
2.814,14.009888,3.365419,-2.7757049,4.475478,3.6781728,-1.1186178
2.816,13.9116745,3.4021142,-2.9176087,4.43469,3.4259968,-1.1252596
2.818,13.817246,3.4437544,-3.0508866,4.3892355,3.1696532,-1.1310256
2.82,13.726582,3.4899888,-3.175126,4.3393593,2.9096599,-1.1358178
2.822,13.639773,3.540288,-3.2898247,4.285294,2.646489,-1.1395721
2.824,13.556885,3.5944078,-3.3947115,4.227266,2.3805516,-1.1422775
2.826,13.477874,3.6521373,-3.4894745,4.1654816,2.1121883,-1.1439543
2.828,13.402573,3.7133088,-3.5738533,4.1001153,1.841713,-1.1446848
2.83,13.331333,3.7776241,-3.6475377,4.031391,1.5694461,-1.1445329
2.832,13.26402,3.8450167,-3.7103322,3.9595084,1.2956724,-1.1436079
2.834,13.200724,3.914946,-3.7620032,3.884667,1.0206413,-1.1420796
2.836,13.141679,3.9871933,-3.8023973,3.8070776,0.744647,-1.1401317
2.838,13.086935,4.061391,-3.8315008,3.7270052,0.46800876,-1.13795
2.84,13.036605,4.1373806,-3.8491294,3.644733,0.19106686,-1.1357307
2.842,12.990826,4.214809,-3.855378,3.5605536,-0.08581555,-1.1336598
2.844,12.949787,4.293398,-3.8502355,3.4747958,-0.36225295,-1.1319088
2.846,12.913598,4.3727775,-3.8338633,3.3877969,-0.6378584,-1.1306531
2.848,12.882271,4.4527025,-3.80646,3.2999127,-0.9122182,-1.1300292
2.85,12.8561735,4.532713,-3.7683916,3.2115126,-1.1848991,-1.1301517
2.852,12.835258,4.612623,-3.7200065,3.1229517,-1.4555063,-1.1311336
2.854,12.81974,4.6918707,-3.6614506,3.0345724,-1.7236445,-1.133087
2.856,12.809686,4.7700105,-3.5933435,2.9466734,-1.988937,-1.136105
2.858,12.805245,4.846738,-3.5164232,2.859522,-2.251052,-1.1403002
2.86,12.806531,4.9218335,-3.4310708,2.7733355,-2.50969,-1.1457833
2.862,12.813428,4.9948034,-3.3380234,2.6882815,-2.7645931,-1.152666
2.864,12.826088,5.0653214,-3.2378168,2.604459,-3.0155432,-1.1610689
2.866,12.844556,5.133094,-3.131034,2.52195,-3.2623594,-1.1711043
2.868,12.86874,5.1977572,-3.0183141,2.4407933,-3.5048642,-1.1828704
2.87,12.898541,5.2589693,-2.9003677,2.3610034,-3.7429113,-1.1964409
2.872,12.933889,5.316498,-2.7779064,2.2825983,-3.9763618,-1.2118638
2.874,12.974739,5.369982,-2.6514761,2.205591,-4.205042,-1.2291386
2.876,13.0208645,5.4192643,-2.5217645,2.1300266,-4.428768,-1.2482308
2.878,13.071925,5.4641423,-2.3893976,2.0559516,-4.6473346,-1.2690749
2.88,13.127911,5.5044413,-2.2549946,1.9834577,-4.8604794,-1.2915683
2.882,13.188493,5.54028,-2.1192393,1.912658,-5.0679164,-1.3155539
2.884,13.253368,5.571492,-1.9827309,1.8436852,-5.2693458,-1.3408638
2.886,13.322346,5.5981574,-1.8461301,1.776679,-5.464443,-1.3673178
2.888,13.394906,5.620369,-1.7100153,1.7117996,-5.6528544,-1.3947201
2.89,13.470786,5.6383004,-1.5749502,1.6492089,-5.8342333,-1.4228654
2.892,13.549611,5.6520286,-1.4415116,1.5890661,-6.0082397,-1.4515724
2.894,13.630954,5.6618724,-1.3101666,1.53153,-6.174551,-1.4806488
2.896,13.714477,5.668024,-1.1815202,1.4767578,-6.3328676,-1.5099438
2.898,13.799597,5.6708183,-1.055985,1.4248987,-6.4829392,-1.5393252
2.9,13.885882,5.670537,-0.9341259,1.3760916,-6.6245317,-1.5686696
2.902,13.972928,5.6674128,-0.8163192,1.330455,-6.7574825,-1.5979087
2.904,14.060427,5.661794,-0.70283437,1.2880845,-6.881655,-1.6269863
2.906,14.147637,5.6540756,-0.5941231,1.2490759,-6.996978,-1.6558723
2.908,14.234191,5.6444016,-0.49068737,1.2134914,-7.1034226,-1.6845448
2.91,14.31972,5.6330576,-0.39267826,1.1813824,-7.2010126,-1.713002
2.912,14.403677,5.6203747,-0.30030298,1.1527625,-7.289812,-1.7412367
2.914,14.485746,5.6065607,-0.21392417,1.1276295,-7.369937,-1.7692418
2.916,14.56547,5.5918016,-0.13363004,1.10595,-7.4415336,-1.7970088
2.918,14.642347,5.576479,-0.05958128,1.0876759,-7.504799,-1.8245277
2.92,14.716164,5.560729,0.008298397,1.072712,-7.559925,-1.8517613
2.922,14.78638,5.5447464,0.069927454,1.0609647,-7.6071687,-1.8786826
2.924,14.853037,5.5286856,0.1254611,1.05232,-7.646775,-1.9052527
2.926,14.915749,5.5128875,0.17498064,1.0466546,-7.67902,-1.931421
2.928,14.974227,5.4974318,0.2186749,1.0438546,-7.7041984,-1.9571662
2.93,15.028466,5.4824543,0.256858,1.0438029,-7.722615,-1.9824474
2.932,15.0782,5.468246,0.28975034,1.0464059,-7.7345667,-2.0072317
2.934,15.1234455,5.454847,0.31771636,1.0515708,-7.740366,-2.0314753
2.936,15.1640625,5.4424615,0.34099358,1.0592225,-7.7402935,-2.055146
2.938,15.200331,5.4310737,0.36004055,1.069309,-7.7346115,-2.078197
2.94,15.2318535,5.4209323,0.37506813,1.0817807,-7.7235327,-2.1005785
2.942,15.258961,5.411981,0.38655537,1.0965958,-7.7072415,-2.1222546
2.944,15.28169,5.404342,0.3947442,1.1137326,-7.6858783,-2.1432028
2.946,15.300145,5.3980207,0.40008393,1.1331507,-7.659542,-2.1633687
2.948,15.314535,5.392899,0.40292418,1.1548293,-7.6282907,-2.1827407
2.95,15.3251,5.38888,0.4035033,1.1787438,-7.592166,-2.2012873
2.952,15.331998,5.3859696,0.40216237,1.2048508,-7.5512,-2.2189984
2.954,15.33542,5.3839345,0.3992318,1.2331135,-7.505417,-2.2358572
2.956,15.335435,5.3828516,0.39488983,1.2634803,-7.4548397,-2.2518377
2.958,15.332587,5.382414,0.38937974,1.295888,-7.399538,-2.2669206
2.96,15.326776,5.3825846,0.38291252,1.330265,-7.3395967,-2.281073
2.962,15.318495,5.3830976,0.37566495,1.3665392,-7.2751093,-2.2942472
2.964,15.307937,5.3838034,0.36766517,1.4046316,-7.206222,-2.3064022
2.966,15.295393,5.384456,0.35921085,1.4444618,-7.133101,-2.317484
2.968,15.28117,5.384863,0.35042143,1.4859555,-7.055938,-2.3274326
2.97,15.265461,5.384913,0.3412323,1.5290337,-6.9749413,-2.3361917
2.972,15.248758,5.3843594,0.3319807,1.5736394,-6.890337,-2.3437147
2.974,15.231156,5.3830843,0.32256365,1.619724,-6.802352,-2.3499565
2.976,15.213026,5.380884,0.31312346,1.6672294,-6.7112026,-2.3548863
2.978,15.194496,5.377734,0.3036883,1.7161239,-6.6170945,-2.3584938
2.98,15.175969,5.3734784,0.29445577,1.766382,-6.5202227,-2.3607705
2.982,15.157635,5.3679895,0.2854731,1.8179829,-6.4207544,-2.3617163
2.984,15.13965,5.3613863,0.276731,1.8709271,-6.3188286,-2.361336
2.986,15.122309,5.353541,0.26836205,1.9252183,-6.2145834,-2.3596432
2.988,15.105748,5.3445864,0.26043415,1.9808767,-6.1081142,-2.356638
2.99,15.089962,5.3345633,0.2530353,2.0379202,-5.999509,-2.3523154
2.992,15.075141,5.323451,0.24640203,2.0963755,-5.888832,-2.34665
2.994,15.061304,5.3115673,0.24052787,2.1562734,-5.776152,-2.3396125
2.996,15.048495,5.2989855,0.23555684,2.2176232,-5.6615334,-2.331128
2.998,15.036613,5.2858734,0.23162174,2.2804418,-5.5450187,-2.3211083
3,15.02544,5.272525,0.22883391,2.34474,-5.426652,-2.30945
3.002,15.014918,5.259224,0.22732592,2.410518,-5.3065095,-2.296024
3.004,15.004784,5.246143,0.22732115,2.4777732,-5.1846366,-2.280693
3.006,14.994737,5.233595,0.22895813,2.546506,-5.0611095,-2.263318
3.008,14.984585,5.221897,0.23229599,2.6167033,-4.935976,-2.2437763
3.01,14.973932,5.2114553,0.23765612,2.6883702,-4.809307,-2.221936
3.012,14.962302,5.2026134,0.24510145,2.7615025,-4.681165,-2.1976924
3.014,14.94935,5.195713,0.25467825,2.8360972,-4.5516024,-2.1709573
3.016,14.934815,5.190981,0.26664734,2.9121466,-4.4206805,-2.1416616
3.018,14.918076,5.1889,0.28127575,2.9896362,-4.2884603,-2.1097522
3.02,14.898693,5.1897182,0.29854774,3.0685365,-4.1549993,-2.0751839
3.022,14.876313,5.193708,0.3186655,3.1488004,-4.0203853,-2.0379176
3.024,14.850386,5.2012367,0.3417468,3.2303739,-3.884695,-1.9979156
3.026,14.820711,5.212322,0.3678341,3.313176,-3.7480583,-1.9551506
3.028,14.786901,5.227209,0.39706993,3.3971238,-3.610628,-1.9095902
3.03,14.748442,5.2460947,0.4294219,3.482127,-3.4725797,-1.8612039
3.032,14.705454,5.268996,0.4649949,3.5680783,-3.3341312,-1.8099661
3.034,14.657262,5.296026,0.5038109,3.6548743,-3.1955218,-1.7558663
3.036,14.604027,5.3271103,0.5457897,3.7424107,-3.0570133,-1.6988921
3.038,14.54562,5.3622837,0.59101534,3.8305712,-2.9189057,-1.639065
3.04,14.482027,5.4013786,0.63941,3.9192429,-2.7815018,-1.5763962
3.042,14.413246,5.444277,0.69102097,4.008306,-2.6451216,-1.5109252
3.044,14.339394,5.4907866,0.74587345,4.097627,-2.510077,-1.4426867
3.046,14.260641,5.5406866,0.8041129,4.1870575,-2.3767004,-1.3717252
3.048,14.177177,5.593814,0.86564064,4.2764406,-2.245304,-1.2980735
3.05,14.089336,5.649724,0.9306588,4.365611,-2.1161747,-1.2217778
3.052,13.997337,5.70817,0.9991927,4.454366,-1.989612,-1.1428729
3.054,13.901581,5.7688155,1.0713577,4.5425243,-1.865886,-1.0613853
3.056,13.802409,5.8312416,1.1472421,4.6298766,-1.745228,-0.97734857
3.058,13.700269,5.895027,1.2270365,4.716232,-1.6278616,-0.890805
3.06,13.595506,5.9598637,1.3109498,4.8013906,-1.5139645,-0.80178046
3.062,13.488546,6.0252237,1.399137,4.885168,-1.4036933,-0.71031
3.064,13.37981,6.090752,1.491777,4.9673758,-1.2971339,-0.6164346
3.066,13.269723,6.155923,1.5891781,5.0478554,-1.1943486,-0.5202112
3.068,13.158527,6.2203913,1.6914148,5.1264467,-1.0953586,-0.42170453
3.07,13.046207,6.2836876,1.7986784,5.203018,-1.0001327,-0.32099795
3.072,12.934385,6.345222,1.9105725,5.2774363,-0.90860957,-0.2181685
3.074,12.821268,6.405035,2.0285258,5.34958,-0.8207127,-0.11334157
3.076,12.708934,6.4621415,2.1522346,5.419326,-0.73634005,-0.0066506863
3.078,12.597055,6.5164595,2.2814984,5.486559,-0.65538794,0.10175443
3.08,12.485147,6.567746,2.417106,5.5511436,-0.577739,0.21171665
3.082,12.373568,6.6156216,2.5587533,5.612941,-0.5032922,0.32304645
3.084,12.262502,6.6597066,2.7064505,5.6718163,-0.43196684,0.43554163
3.086,12.151836,6.6997356,2.860367,5.7276154,-0.36369264,0.5490129
3.088,12.04162,6.7354593,3.0205994,5.780181,-0.29841942,0.6632569
3.09,11.931656,6.7666755,3.187129,5.829344,-0.23609549,0.7780633
3.092,11.821844,6.7932005,3.360045,5.874956,-0.17666763,0.89323926
3.094,11.711973,6.8147993,3.5392857,5.9168625,-0.120089054,1.008573
3.096,11.601955,6.8314314,3.7248795,5.9549394,-0.06628066,1.1238685
3.098,11.491552,6.84286,3.916734,5.989061,-0.015123427,1.2389383
3.1,11.380837,6.8491197,4.114792,6.0191445,0.03359288,1.3536072
3.102,11.269532,6.850102,4.3187494,6.04509,0.0801146,1.4676678
3.104,11.15774,6.8456883,4.5286446,6.066927,0.12471253,1.5808961
3.106,11.045313,6.8358936,4.7441325,6.0847597,0.16788238,1.6932442
3.108,10.932394,6.820674,4.9648676,6.0986037,0.20999888,1.804518
3.11,10.819182,6.7998095,5.1906524,6.1085753,0.2515881,1.9145429
3.112,10.705864,6.7733006,5.4209313,6.1148653,0.29333147,2.023193
3.114,10.592802,6.7412305,5.6552362,6.117704,0.33586302,2.1303084
3.116,10.480329,6.703364,5.893057,6.117365,0.37987298,2.2357655
3.118,10.369101,6.6596746,6.1336813,6.1142015,0.42608514,2.3394442
3.12,10.25951,6.610013,6.376301,6.108573,0.47522673,2.4412384
3.122,10.152344,6.5543804,6.6202345,6.100833,0.52798593,2.5410542
3.124,10.04818,6.4926786,6.8645344,6.0913076,0.58499837,2.6388102
3.126,9.9476,6.424969,7.1082363,6.080287,0.6468316,2.73441
3.128,9.851408,6.3512683,7.3503795,6.067993,0.7139633,2.8278117
3.13,9.760267,6.271567,7.589916,6.0545645,0.7867236,2.9189577
3.132,9.674811,6.1860313,7.8259273,6.0400457,0.8653201,3.0078368
3.134,9.595348,6.094796,8.057518,6.0244126,0.94980484,3.0944505
3.136,9.522419,5.9981837,8.283583,6.0075693,1.040092,3.1788452
3.138,9.456121,5.8963523,8.503331,5.9893684,1.1359552,3.2610898
3.14,9.396924,5.789559,8.715879,5.969623,1.2370636,3.3412685
3.142,9.344525,5.678371,8.920403,5.948159,1.3429755,3.419507
3.144,9.298989,5.5631576,9.116212,5.9247665,1.4531763,3.495936
3.146,9.259942,5.444502,9.30273,5.8992367,1.567128,3.5706663
3.148,9.226936,5.3228645,9.479316,5.871379,1.6842723,3.6438103
3.15,9.199545,5.199066,9.64554,5.8409743,1.804055,3.7154443
3.152,9.176963,5.0735874,9.800989,5.807838,1.9259483,3.785606
3.154,9.158379,4.9472647,9.945403,5.7717733,2.0494475,3.8543105
3.156,9.142988,4.8207803,10.078438,5.7326403,2.1741307,3.921581
3.158,9.129644,4.6949635,10.20014,5.690234,2.2996383,3.9874067
3.16,9.117294,4.57053,10.310505,5.6444435,2.4255557,4.0516424
3.162,9.10477,4.448248,10.409515,5.5952973,2.5516932,4.11431
3.164,9.091084,4.32889,10.497358,5.542803,2.6777833,4.1753674
3.166,9.074993,4.2131634,10.574002,5.4869976,2.8035502,4.234723
3.168,9.055432,4.1018834,10.639712,5.427983,2.9288683,4.292309
3.17,9.031431,3.9955645,10.694632,5.3658886,3.0536022,4.3480406
3.172,9.002013,3.8948498,10.738913,5.30085,3.1776164,4.4018307
3.174,8.966283,3.800232,10.772783,5.2330265,3.3008077,4.4535694
3.176,8.923436,3.7123644,10.796371,5.162574,3.4230936,4.5031495
3.178,8.872797,3.6317139,10.809981,5.089605,3.5443895,4.550432
3.18,8.81397,3.5588055,10.813852,5.014184,3.6646192,4.5952854
3.182,8.745233,3.4943006,10.808458,4.9363317,3.783697,4.637559
3.184,8.668213,3.4382324,10.792887,4.8560205,3.9015496,4.677139
3.186,8.580475,3.3917325,10.767932,4.7731967,4.0180755,4.7139277
3.188,8.482511,3.3548431,10.734159,4.6877885,4.1331625,4.7478733
3.19,8.374639,3.3279607,10.691174,4.599716,4.24667,4.779015
3.192,8.256244,3.3117144,10.639696,4.508936,4.358408,4.807474
3.194,8.126855,3.3065314,10.580077,4.4154468,4.468148,4.8334365
3.196,7.9865403,3.312782,10.512413,4.31928,4.5756493,4.8571725
3.198,7.8351693,3.3308666,10.437,4.2205586,4.6806293,4.87901
3.2,7.67271,3.361003,10.354157,4.119453,4.782795,4.899316
3.202,7.499007,3.4033778,10.264261,4.016175,4.881855,4.918425
3.204,7.314168,3.4581118,10.167567,3.9109907,4.9775305,4.9366455
3.206,7.118018,3.5252607,10.06432,3.804175,5.0695753,4.9541883
3.208,6.9104433,3.6048284,9.954877,3.6960216,5.157814,4.9711604
3.21,6.6913958,3.6966202,9.83957,3.5868063,5.24211,4.9875307
3.212,6.460799,3.800412,9.718802,3.4767928,5.322387,5.003152
3.214,6.2187204,3.9158657,9.592702,3.3662074,5.398619,5.017761
3.216,5.965292,4.042492,9.461703,3.2552469,5.4708033,5.0310054
3.218,5.7004876,4.1796093,9.326062,3.1440928,5.5389514,5.042449
3.22,5.4245286,4.3266644,9.1858425,3.0328948,5.603074,5.051648
3.222,5.1375656,4.482802,9.04153,2.9217606,5.663149,5.058161
3.224,4.8397703,4.6471577,8.89321,2.8107955,5.7191234,5.0615854
3.226,4.531391,4.818827,8.741243,2.7000916,5.7708926,5.061609
3.228,4.212688,4.996851,8.585795,2.5897355,5.8182926,5.058035
3.23,3.8843045,5.18027,8.427048,2.4798172,5.8611035,5.0507627
3.232,3.5466795,5.3680587,8.26525,2.3704293,5.899064,5.0398154
3.234,3.2001555,5.5592995,8.100733,2.2616632,5.931887,5.0253353
3.236,2.8455868,5.752956,7.9337745,2.1536138,5.959281,5.00753
3.238,2.4835508,5.948111,7.764623,2.046382,5.9809656,4.986678
3.24,2.1147723,6.143923,7.5936465,1.9400432,5.9966974,4.9631042
3.242,1.7399881,6.3395987,7.4210944,1.834682,6.006278,4.9371486
3.244,1.3602111,6.5342746,7.2473373,1.7303762,6.009578,4.9091244
3.246,0.976017,6.7274623,7.0728984,1.6271755,6.0065374,4.879332
3.248,0.58854437,6.918449,6.8981047,1.5251211,5.9971185,4.848028
3.25,0.19838881,7.10676,6.7235017,1.4242527,5.9813547,4.815426
3.252,-0.19317341,7.291802,6.5495996,1.3245708,5.9593253,4.78169
3.254,-0.58545434,7.4732194,6.3768826,1.2260803,5.931135,4.7469153
3.256,-0.977494,7.650649,6.2058372,1.1287704,5.896916,4.711172
3.258,-1.3683531,7.8236675,6.0369706,1.0326358,5.8568287,4.6744933
3.26,-1.7572836,7.991999,5.8708344,0.9376651,5.811051,4.6368866
3.262,-2.1431081,8.155458,5.7078667,0.8438344,5.759756,4.5983114
3.264,-2.5250623,8.313742,5.548637,0.751138,5.7031455,4.558727
3.266,-2.902236,8.466657,5.393602,0.6595669,5.6414466,4.5180645
3.268,-3.2738183,8.614019,5.243095,0.56910145,5.5749183,4.476243
3.27,-3.6388988,8.7558565,5.0975366,0.47972846,5.5038466,4.433199
3.272,-3.9965897,8.891978,4.9572887,0.39142728,5.428545,4.3888693
3.274,-4.346258,9.022382,4.8226624,0.30418646,5.349374,4.343209
3.276,-4.687074,9.147164,4.6941137,0.21800536,5.266725,4.296189
3.278,-5.018349,9.266202,4.5718637,0.13286602,5.181008,4.247803
3.28,-5.339371,9.379674,4.4561405,0.048760355,5.0926723,4.1980796
3.282,-5.6495323,9.487717,4.3471813,-0.034314215,5.0021977,4.147055
3.284,-5.948244,9.590456,4.2451086,-0.11636168,4.9100685,4.0948086
3.286,-6.234965,9.687974,4.1500826,-0.1973781,4.816763,4.04141
3.288,-6.509235,9.78053,4.062236,-0.27735662,4.7227783,3.9869509
3.29,-6.7705207,9.868304,3.9814954,-0.3562913,4.6285896,3.931537
3.292,-7.0183835,9.951453,3.9079466,-0.4341759,4.534676,3.8752728
3.294,-7.2526536,10.03033,3.8414977,-0.5109838,4.4415236,3.818248
3.296,-7.472708,10.104981,3.7819657,-0.58669424,4.349606,3.7605565
3.298,-7.678391,10.175761,3.7292068,-0.66126883,4.259415,3.7022896
3.3,-7.8696337,10.242869,3.6830802,-0.73464596,4.1714525,3.6435292
3.302,-8.046129,10.306558,3.6433048,-0.80675364,4.086216,3.5843363
3.304,-8.2077055,10.367156,3.6096358,-0.8774973,4.0042114,3.5247507
3.306,-8.35436,10.424933,3.5817976,-0.9467457,3.925937,3.4647975
3.308,-8.486132,10.479975,3.5594049,-1.0143838,3.851868,3.4044776
3.31,-8.603029,10.532711,3.542243,-1.0802729,3.7824728,3.3437767
3.312,-8.705033,10.583417,3.5299144,-1.1442683,3.718171,3.2826324
3.314,-8.792344,10.632285,3.522051,-1.2062237,3.6593568,3.220961
3.316,-8.865102,10.679545,3.5181694,-1.2659993,3.6063874,3.1586602
3.318,-8.923646,10.725603,3.5169046,-1.323475,3.5595798,3.095613
3.32,-8.967139,10.770233,3.5163372,-1.3785484,3.5191922,3.0316942
3.322,-8.997468,10.816305,3.516973,-1.4311359,3.4854257,2.9667604
3.324,-9.016285,10.863104,3.5158741,-1.4811789,3.4584422,2.9006593
3.326,-9.023699,10.90994,3.5089717,-1.5286403,3.4383488,2.833263
3.328,-9.018145,10.959273,3.492064,-1.5734979,3.4251952,2.7644515
3.33,-9.000491,11.011864,3.4590306,-1.6157469,3.4189835,2.6941435
3.332,-8.976562,11.062831,3.3985553,-1.6553674,3.4196913,2.6222668
3.334,-8.936623,11.094154,3.3205972,-1.6923465,3.4272292,2.5487766
3.336,-8.869863,11.115175,3.219334,-1.7266711,3.441484,2.4736722
3.338,-8.782413,11.1617365,3.0939717,-1.7583301,3.462339,2.3969834
3.34,-8.684431,11.24044,2.9331307,-1.7873057,3.4896579,2.3187726
3.342,-8.563323,11.324396,2.7373996,-1.8135928,3.5233004,2.2391224
3.344,-8.42465,11.400324,2.5025265,-1.8371952,3.5631416,2.158146
3.346,-8.270468,11.466311,2.2102807,-1.8581398,3.6090302,2.0759768
3.348,-8.093038,11.525201,1.8535858,-1.8764753,3.6608229,1.9927801
3.35,-7.8927083,11.579548,1.4320054,-1.8925081,3.7181652,1.9089096
3.352,-7.668687,11.633707,0.9412974,-1.9065897,3.780684,1.8246601
3.354,-7.42021,11.686246,0.38194016,-1.9189788,3.847763,1.7399532
3.356,-7.1451235,11.736892,-0.2538498,-1.9301728,3.9182541,1.6550139
3.358,-6.840176,11.784173,-0.97154665,-1.9408568,3.9907591,1.5700142
3.36,-6.5028834,11.825533,-1.7734119,-1.9515479,4.063272,1.4840323
3.362,-6.131753,11.858812,-2.6591976,-1.9613483,4.1320953,1.3939134
3.364,-5.7262692,11.882151,-3.6254272,-1.9693679,4.193412,1.2985405
3.366,-5.2864084,11.892708,-4.666426,-1.9788121,4.244126,1.2035562
3.368,-4.812227,11.887122,-5.7748146,-1.9946418,4.279668,1.1119323
3.37,-4.304713,11.861279,-6.9415917,-2.0172958,4.295012,1.0180664
3.372,-3.7655263,11.811934,-8.15608,-2.0466769,4.28584,0.9168664
3.374,-3.1976466,11.735528,-9.405065,-2.0839949,4.249012,0.8079505
3.376,-2.604807,11.628695,-10.673782,-2.1311822,4.1822906,0.6926582
3.378,-1.9912269,11.488561,-11.945343,-2.1904976,4.0855227,0.5725327
3.38,-1.3624661,11.313059,-13.201845,-2.2639205,3.9618201,0.44903234
3.382,-0.7242613,11.100967,-14.42487,-2.3532267,3.8165994,0.32303435
3.384,-0.08391404,10.85255,-15.596219,-2.459481,3.6576962,0.1945545
3.386,0.54988503,10.568165,-16.697765,-2.5815434,3.495812,0.062952235
3.388,1.1683614,10.248291,-17.712395,-2.715223,3.3431926,-0.07292716
3.39,1.7636266,9.89381,-18.6251,-2.8535726,3.2120695,-0.21421622
3.392,2.328218,9.507057,-19.422703,-2.9872274,3.1135576,-0.3612614
3.394,2.855034,9.091959,-20.094353,-3.10519,3.056552,-0.51308525
3.396,3.3381412,8.653353,-20.631233,-3.196157,3.0466948,-0.66684103
3.398,3.7728338,8.196699,-21.027676,-3.2500849,3.0856667,-0.81749475
3.4,4.155615,7.7278185,-21.280735,-3.2595916,3.1710281,-0.9581451
3.402,4.4835916,7.2536488,-21.390747,-3.2208543,3.2965298,-1.0809956
3.404,4.7570496,6.7798223,-21.360958,-3.1337607,3.4531128,-1.1788198
3.406,4.976747,6.3116403,-21.196907,-3.0019276,3.629788,-1.2460276
3.408,5.143971,5.8548245,-20.907003,-2.8317082,3.8152227,-1.2796183
3.41,5.2616324,5.414289,-20.501295,-2.6306639,3.9990826,-1.2802962
3.412,5.3335247,4.9938297,-19.991438,-2.4065685,4.1727595,-1.2517383
3.414,5.3646364,4.5967774,-19.391088,-2.1668491,4.3302593,-1.1994432
3.416,5.360258,4.225698,-18.71494,-1.9183512,4.469233,-1.1296177
3.418,5.325781,3.8836806,-17.978546,-1.6652175,4.5894866,-1.0513854
3.42,5.2670345,3.5705912,-17.197847,-1.4069563,4.692778,-0.97612953
3.422,5.190489,3.2869034,-16.389997,-1.1429002,4.7844477,-0.9069635
3.424,5.1029844,3.0308008,-15.571726,-0.8760302,4.8712807,-0.8389225
3.426,5.0078416,2.800424,-14.75662,-0.6067851,4.960252,-0.7704756
3.428,4.90813,2.5908768,-13.956631,-0.33253986,5.0582767,-0.7036949
3.43,4.8064446,2.4001117,-13.18424,-0.04972273,5.1723013,-0.6388477
3.432,4.7087803,2.2240872,-12.454459,0.24520302,5.3080378,-0.5738806
3.434,4.613889,2.0617187,-11.77498,0.5551629,5.469318,-0.50570166
3.436,4.5280685,1.9106822,-11.161918,0.8824292,5.6590505,-0.43107784
3.438,4.4436564,1.7729063,-10.617423,1.228136,5.8785815,-0.34738684
3.44,4.3594785,1.6445608,-10.14174,1.5914487,6.1270747,-0.25316477
3.442,4.2870574,1.5256855,-9.744794,1.9698061,6.40239,-0.14782703
3.444,4.2061977,1.4301009,-9.436011,2.3598113,6.701423,-0.031482458
3.446,4.117505,1.3412364,-9.219145,2.7574682,7.0199113,0.095341444
3.448,4.029835,1.2316324,-9.095036,3.1583529,7.352484,0.2318697
3.45,3.949535,1.1110215,-9.059143,3.5581207,7.6931024,0.37713647
3.452,3.8613775,1.0171461,-9.110138,3.9524343,8.035082,0.5296247
3.454,3.7715807,0.9575997,-9.242555,4.336975,8.371074,0.6873596
3.456,3.682006,0.9292507,-9.444236,4.7077127,8.693781,0.8478162
3.458,3.5812974,0.921956,-9.708579,5.0611773,8.99615,1.0079658
3.46,3.4720595,0.9357301,-10.039871,5.3938046,9.27119,1.1639032
3.462,3.3514109,0.9663627,-10.429626,5.7011204,9.511555,1.3113272
3.464,3.2181926,1.0139339,-10.872538,5.9780774,9.70931,1.4448605
3.466,3.0704782,1.0785842,-11.354146,6.217929,9.855566,1.5599229
3.468,2.9055939,1.1605465,-11.861895,6.4133606,9.94154,1.6531065
3.47,2.7223315,1.2594626,-12.38591,6.5580063,9.959896,1.7207716
3.472,2.5190787,1.3743569,-12.91413,6.644503,9.902643,1.7612963
3.474,2.297792,1.5008951,-13.438246,6.666012,9.763301,1.7746451
3.476,2.058982,1.6364279,-13.949535,6.6166725,9.538036,1.7630131
3.478,1.802957,1.77671,-14.438438,6.492386,9.225277,1.7308342
3.48,1.5307875,1.9175763,-14.894,6.2914324,8.825053,1.682859
3.482,1.2437458,2.0533729,-15.307436,6.0152383,8.340139,1.6237864
3.484,0.94415474,2.1789596,-15.670044,5.669387,7.7775745,1.558274
3.486,0.6346755,2.2883403,-15.974619,5.262412,7.1453767,1.4896519
3.488,0.317976,2.376577,-16.215126,4.8062735,6.454564,1.420297
3.49,-0.0022668839,2.4391944,-16.38717,4.314749,5.7166195,1.350469
3.492,-0.32285786,2.472135,-16.486904,3.8030386,4.9434357,1.2786001
3.494,-0.6389265,2.472335,-16.512629,3.2873492,4.148874,1.2028407
3.496,-0.94547987,2.4393861,-16.464306,2.7831852,3.3470657,1.1213839
3.498,-1.2379532,2.3745165,-16.343,2.304525,2.5521927,1.0330315
