Time_s_,Acc_x_m_s_2_,Acc_y_m_s_2_,Acc_z_m_s_2_,Gyro_x_1_s_,Gyro_y_1_s_,Gyro_z_1_s_
0,-0.74353784,0.83422303,1.1117232,0.14108351,-0.035539187,0.6134429
0.002,-0.72537726,0.7810069,1.1119345,0.14673766,-0.037191413,0.6173718
0.004,-0.7005466,0.7220277,1.113308,0.15255827,-0.040294126,0.6207907
0.006,-0.6669457,0.6565141,1.1153748,0.1584192,-0.04522743,0.62349135
0.008,-0.62295085,0.5834993,1.1162539,0.16415021,-0.05240509,0.6252287
0.01,-0.568389,0.50255996,1.1148146,0.1695435,-0.06225411,0.62574863
0.012,-0.5047178,0.41355598,1.1135633,0.17437603,-0.07519842,0.6248241
0.014,-0.43209976,0.31627923,1.1155561,0.17843425,-0.09160342,0.62232435
0.016,-0.34990874,0.21194963,1.1213497,0.18150283,-0.11175246,0.6182499
0.018,-0.25860178,0.10216479,1.1319958,0.18339276,-0.13577034,0.61268735
0.02,-0.15765834,-0.012874983,1.1483047,0.18396677,-0.16357042,0.60584193
0.022,-0.046051856,-0.13336557,1.1670414,0.18316174,-0.19483873,0.5980391
0.024,0.076420106,-0.25920814,1.1857082,0.18101868,-0.22902384,0.5896877
0.026,0.2088691,-0.39023823,1.2044758,0.17767192,-0.2653494,0.58124167
0.028,0.35024074,-0.52564216,1.2243359,0.1735261,-0.30321684,0.5732324
0.03,0.499709,-0.6643542,1.2459882,0.16858926,-0.34121117,0.56583023
0.032,0.65664357,-0.8056202,1.269275,0.16326189,-0.37815136,0.5594585
0.034,0.81993,-0.94867635,1.2931228,0.15796602,-0.4129176,0.55449265
0.036,0.98780525,-1.0923944,1.3160124,0.1530481,-0.4445324,0.55125195
0.038,1.1583616,-1.2354629,1.3368887,0.14867216,-0.47215736,0.549954
0.04,1.329109,-1.3763723,1.3556671,0.14478248,-0.49510685,0.5506848
0.042,1.4977052,-1.5134315,1.3727404,0.1411268,-0.5129517,0.553438
0.044,1.6615772,-1.645129,1.388413,0.13724957,-0.5255657,0.5581577
0.046,1.8181455,-1.7699413,1.4027975,0.13260387,-0.5331289,0.5648514
0.048,1.9652085,-1.886334,1.4158753,0.1264867,-0.5361692,0.57343084
0.05,2.100518,-1.9929478,1.4273006,0.11805636,-0.5355056,0.5836418
0.052,2.222241,-2.0885375,1.4366652,0.10641678,-0.53219974,0.5951728
0.054,2.3289402,-2.1721857,1.4431784,0.090732306,-0.5275168,0.60766745
0.056,2.4211543,-2.2452388,1.4461614,0.07039131,-0.52266353,0.6207867
0.058,2.4974566,-2.3052921,1.4449434,0.045211434,-0.51865846,0.6341874
0.06,2.5577524,-2.3520203,1.4388089,0.015527055,-0.51622707,0.6475578
0.062,2.602785,-2.3852005,1.4267979,-0.017755419,-0.5157331,0.6606305
0.064,2.6345015,-2.405432,1.4077508,-0.053198397,-0.5171371,0.6732508
0.066,2.6569574,-2.4147432,1.3779385,-0.088933855,-0.5200375,0.68539596
0.068,2.66769,-2.4122057,1.3361485,-0.12282765,-0.5237634,0.69720906
0.07,2.6709456,-2.4013536,1.2904482,-0.15265803,-0.5274129,0.7089862
0.072,2.6723957,-2.3865213,1.2452863,-0.17641276,-0.5299455,0.7211538
0.074,2.6724992,-2.3674314,1.1942719,-0.1925113,-0.53029084,0.7341545
0.076,2.6722584,-2.3447232,1.1363041,-0.19997174,-0.5274777,0.7483933
0.078,2.676547,-2.32324,1.0804532,-0.19851756,-0.52078354,0.76419395
0.08,2.687519,-2.305764,1.0288734,-0.1885806,-0.509879,0.7817077
0.082,2.7049327,-2.2917976,0.9762332,-0.17122914,-0.4948775,0.80091506
0.084,2.7267632,-2.2793727,0.9217573,-0.14800465,-0.47636074,0.82163346
0.086,2.7534425,-2.2686377,0.86652946,-0.12073912,-0.4553417,0.8435756
0.088,2.794889,-2.2666883,0.81680083,-0.0913195,-0.43311894,0.8664246
0.09,2.8530502,-2.2778826,0.78211266,-0.061479703,-0.4110427,0.8898618
0.092,2.9180832,-2.2959638,0.7638127,-0.03262745,-0.39031303,0.9136643
0.094,2.9846044,-2.3165119,0.7597294,-0.00578095,-0.37183914,0.9378235
0.096,3.0546155,-2.3404694,0.77082235,0.018416658,-0.35610414,0.9624491
0.098,3.1250138,-2.3673427,0.799617,0.039637618,-0.34313416,0.9874616
0.1,3.1892748,-2.39403,0.8491883,0.057616174,-0.33259055,1.0127332
0.102,3.243157,-2.4180064,0.92200357,0.07230892,-0.32340467,1.038448
0.104,3.2831776,-2.43655,1.0190883,0.08390407,-0.3141182,1.0647286
0.106,3.3052197,-2.4472733,1.1403205,0.0925312,-0.3037991,1.0913311
0.108,3.305084,-2.4476173,1.2835039,0.09798231,-0.29198787,1.1178104
0.11,3.279335,-2.434875,1.4452734,0.09981006,-0.2781112,1.1436357
0.112,3.2244697,-2.4064167,1.6224709,0.097363204,-0.2619329,1.1682643
0.114,3.1378403,-2.3598874,1.8118492,0.08983612,-0.24392167,1.1911364
0.116,3.0166817,-2.293168,2.0096676,0.07657909,-0.22453308,1.2115333
0.118,2.8599348,-2.2050896,2.2127404,0.057185672,-0.20350477,1.2287638
0.12,2.6677804,-2.0950716,2.417017,0.03154768,-0.18002895,1.2425303
0.122,2.4417624,-1.9630542,2.6156383,0.0002921708,-0.15325108,1.2524376
0.124,2.1833105,-1.8098593,2.8015788,-0.035238266,-0.122965485,1.2580307
0.126,1.8943237,-1.637805,2.9699323,-0.073164605,-0.08946241,1.2594752
0.128,1.5780089,-1.4500453,3.115939,-0.11134921,-0.053317603,1.257398
0.13,1.2376463,-1.248918,3.235706,-0.14774445,-0.015746377,1.2523137
0.132,0.87672365,-1.0367467,3.3285959,-0.18056875,0.021466307,1.24457
0.134,0.4998405,-0.81663924,3.3927116,-0.20843217,0.056288682,1.2344314
0.136,0.11295572,-0.591927,3.4247208,-0.23054235,0.08673287,1.2219515
0.138,-0.27819324,-0.36656237,3.4222164,-0.2467302,0.11105807,1.2069337
0.14,-0.6684756,-0.14462939,3.3848577,-0.25744876,0.1279319,1.1889554
0.142,-1.0532428,0.07036367,3.3143306,-0.26357836,0.13656975,1.1674813
0.144,-1.4276037,0.2750897,3.2140174,-0.2662102,0.13675252,1.1419389
0.146,-1.7867272,0.4663059,3.088074,-0.26645425,0.12871188,1.1117804
0.148,-2.12613,0.6407958,2.9408734,-0.2652692,0.11305761,1.0766155
0.15,-2.44162,0.7959437,2.7759876,-0.26335806,0.09065912,1.0363629
0.152,-2.7297928,0.9296231,2.5972326,-0.26115215,0.062499404,0.9913174
0.154,-2.9876761,1.0403792,2.4097536,-0.25878468,0.029512957,0.94188935
0.156,-3.2131445,1.1272103,2.2192369,-0.256421,-0.007885918,0.8884878
0.158,-3.4049761,1.1897229,2.0312898,-0.25438908,-0.049443215,0.831815
0.16,-3.5623136,1.2283269,1.8516197,-0.2530343,-0.094500944,0.7727683
0.162,-3.684945,1.2439386,1.6856153,-0.25268477,-0.14246556,0.71212476
0.164,-3.7730484,1.2380071,1.5379846,-0.2538257,-0.19329901,0.6505081
0.166,-3.82738,1.2120409,1.4127321,-0.25700355,-0.24669643,0.58844036
0.168,-3.8490522,1.1675886,1.3126365,-0.26267457,-0.3017342,0.5263852
0.17,-3.8394113,1.1064737,1.2393401,-0.2712468,-0.3575767,0.46484596
0.172,-3.8002162,1.0306016,1.1937187,-0.28286242,-0.41362214,0.4041644
0.174,-3.7340333,0.9423822,1.1759169,-0.29736963,-0.46893984,0.34442112
0.176,-3.6452541,0.84469044,1.1869162,-0.31461567,-0.52201307,0.28595227
0.178,-3.5314875,0.7377709,1.2238089,-0.33428097,-0.5707303,0.22918034
0.18,-3.3978257,0.6258787,1.2766587,-0.3558206,-0.61323404,0.17408869
0.182,-3.2499099,0.5126306,1.3417901,-0.37857604,-0.6483681,0.12058214
0.184,-3.087148,0.39687622,1.4248655,-0.4018393,-0.6752621,0.068873994
0.186,-2.910774,0.27884674,1.5246183,-0.42505383,-0.6934562,0.019215252
0.188,-2.727154,0.16274881,1.6309936,-0.4478626,-0.70301485,-0.02830461
0.19,-2.5386581,0.049836755,1.7420393,-0.4699959,-0.7044579,-0.073745444
0.192,-2.3459804,-0.061577916,1.8626428,-0.49124748,-0.6984715,-0.11733149
0.194,-2.1503313,-0.17287636,1.9913979,-0.511395,-0.68576574,-0.15943559
0.196,-1.956839,-0.28190684,2.124371,-0.53024095,-0.666981,-0.20054848
0.198,-1.7769618,-0.3812068,2.2544096,-0.5476192,-0.64262986,-0.24115723
0.2,-1.6120148,-0.46842867,2.3747053,-0.5633474,-0.61301374,-0.28168544
0.202,-1.4541434,-0.55049205,2.4879282,-0.5771921,-0.57827365,-0.32245845
0.204,-1.3041043,-0.6295137,2.5980895,-0.5888972,-0.53840095,-0.36365852
0.206,-1.1690559,-0.70179594,2.7046773,-0.5982002,-0.49326518,-0.4052587
0.208,-1.0499274,-0.76611274,2.805527,-0.60489345,-0.44265056,-0.44707564
0.21,-0.9452456,-0.8230948,2.8981469,-0.6087853,-0.3863675,-0.4887951
0.212,-0.8564375,-0.8724469,2.981383,-0.6097428,-0.324333,-0.5299931
0.214,-0.7849662,-0.91369534,3.0551984,-0.60776746,-0.25671077,-0.5702181
0.216,-0.7309167,-0.9466804,3.1201942,-0.6030104,-0.18395847,-0.6090541
0.218,-0.6936444,-0.9712844,3.1779132,-0.59577215,-0.106741995,-0.64612764
0.22,-0.672403,-0.98796,3.2291875,-0.5864873,-0.026049972,-0.68114626
0.222,-0.6662324,-0.9970614,3.2731104,-0.57568157,0.05678618,-0.71388113
0.224,-0.6737431,-0.9989865,3.3081136,-0.56395656,0.14031373,-0.74418247
0.226,-0.6934752,-0.99384487,3.3327367,-0.55196834,0.22299366,-0.7719698
0.228,-0.7240751,-0.98120534,3.3452418,-0.5403751,0.30323273,-0.79717594
0.23,-0.7633998,-0.9612539,3.3440382,-0.5297998,0.37957916,-0.8197438
0.232,-0.8093067,-0.9340863,3.3280003,-0.5207797,0.45083517,-0.839678
0.234,-0.8599353,-0.8993775,3.2962317,-0.51368797,0.51615494,-0.8569697
0.236,-0.91358083,-0.8569123,3.2480245,-0.50870323,0.57510936,-0.87157047
0.238,-0.9683138,-0.80630445,3.1825619,-0.50582653,0.62762165,-0.88341546
0.24,-1.022289,-0.74756354,3.0987892,-0.5048647,0.673992,-0.89242226
0.242,-1.0735447,-0.6811924,2.996148,-0.5054624,0.71482027,-0.8985012
0.244,-1.12044,-0.6076911,2.874668,-0.50715184,0.75093144,-0.90154177
0.246,-1.1619614,-0.52797043,2.734518,-0.50940543,0.78325546,-0.90141356
0.248,-1.1961374,-0.443195,2.576725,-0.5116435,0.81271845,-0.89798063
0.25,-1.222403,-0.35400194,2.4024794,-0.51327544,0.84018,-0.8911397
0.252,-1.2391416,-0.26145256,2.2124805,-0.51374346,0.8663646,-0.88086075
0.254,-1.2465627,-0.16624308,2.0076234,-0.5125884,0.89178956,-0.8672025
0.256,-1.2413036,-0.071243525,1.7898664,-0.50947183,0.91677886,-0.85033965
0.258,-1.2231705,0.021826744,1.5632136,-0.50421166,0.9414307,-0.8305552
0.26,-1.1940587,0.11251992,1.331351,-0.49677685,0.96565014,-0.8082462
0.262,-1.1545095,0.20045653,1.0978433,-0.4872458,0.9891831,-0.78390545
0.264,-1.1044924,0.28437042,0.86643577,-0.47583038,1.0116861,-0.7581175
0.266,-1.04422,0.36277774,0.640993,-0.4628298,1.0327309,-0.7315326
0.268,-0.973961,0.43405145,0.4259416,-0.4486249,1.051861,-0.70481235
0.27,-0.89446366,0.49625906,0.22568268,-0.43365473,1.0686073,-0.6786241
0.272,-0.80621254,0.54757106,0.04349517,-0.41836584,1.0824975,-0.6536211
0.274,-0.71010846,0.58709466,-0.11773175,-0.4031705,1.0932137,-0.63037384
0.276,-0.6077192,0.61496896,-0.25506482,-0.38842106,1.1006266,-0.60934097
0.278,-0.50011647,0.6316931,-0.36574316,-0.37436813,1.1047083,-0.59087706
0.28,-0.3883298,0.63776517,-0.44718036,-0.3611846,1.1056339,-0.5752339
0.282,-0.27368936,0.6335589,-0.49766093,-0.34896326,1.1038342,-0.5625761
0.284,-0.15742743,0.6196006,-0.5162188,-0.3377195,1.0998952,-0.5529685
0.286,-0.040639132,0.5969161,-0.50314516,-0.3274663,1.0945917,-0.54629046
0.288,0.07472922,0.56688946,-0.45904267,-0.3182099,1.0888855,-0.54229385
0.29,0.18712549,0.5314166,-0.38502592,-0.30992943,1.0838645,-0.5406315
0.292,0.29519114,0.49229348,-0.28298473,-0.30257142,1.080515,-0.54085743
0.294,0.39697427,0.45158806,-0.1551854,-0.29601547,1.079885,-0.54241556
0.296,0.49016207,0.41159758,-0.0049570575,-0.29011774,1.083106,-0.544662
0.298,0.573808,0.3741735,0.16484481,-0.28477246,1.0910614,-0.5469642
0.3,0.64603645,0.3409873,0.35178554,-0.27986702,1.1043985,-0.5487498
0.302,0.704647,0.3144021,0.5521732,-0.27532744,1.1236006,-0.5495045
0.304,0.7483803,0.29627892,0.7622583,-0.27109694,1.1488316,-0.5487915
0.306,0.7763617,0.28788644,0.9792294,-0.26709586,1.1799624,-0.54632217
0.308,0.78722894,0.2903051,1.2000306,-0.26322794,1.2167017,-0.5419876
0.31,0.77988076,0.3042647,1.421734,-0.25941035,1.2586231,-0.5358876
0.312,0.75336003,0.33020008,1.6423874,-0.25560132,1.3052251,-0.52827895
0.314,0.706764,0.36849505,1.8604194,-0.25175047,1.3559532,-0.51947314
0.316,0.63932216,0.41902393,2.0742555,-0.24778858,1.4102044,-0.50979245
0.318,0.5510272,0.48124853,2.2830434,-0.24363443,1.4673358,-0.49954098
0.32,0.44202802,0.5540658,2.4866943,-0.23922783,1.5266694,-0.48901913
0.322,0.3126139,0.6364551,2.6847692,-0.23453459,1.5874673,-0.4784846
0.324,0.16356951,0.7269139,2.8770077,-0.22956869,1.6488991,-0.4681164
0.326,-0.003965199,0.82422423,3.0634305,-0.22441739,1.7100582,-0.45806316
0.328,-0.18848687,0.9266877,3.244434,-0.2192123,1.7699916,-0.44845185
0.33,-0.3881206,1.0326484,3.4209077,-0.21408951,1.8277735,-0.43939748
0.332,-0.6004447,1.1403112,3.5940602,-0.20919257,1.8825889,-0.4310118
0.334,-0.8229345,1.2478433,3.764698,-0.2046327,1.9338362,-0.4234376
0.336,-1.0526309,1.353479,3.9336839,-0.20046306,1.9811859,-0.41687876
0.338,-1.2862282,1.455476,4.1014934,-0.19671059,2.0245771,-0.41156876
0.34,-1.5207136,1.5523396,4.2682066,-0.19330567,2.0641766,-0.40781885
0.342,-1.7523321,1.6425259,4.433898,-0.19009727,2.100391,-0.4059763
0.344,-1.9777237,1.7249156,4.5986753,-0.18689191,2.1338272,-0.4063899
0.346,-2.1936588,1.7985392,4.7623467,-0.1834315,2.1652503,-0.4094
0.348,-2.3969605,1.8627647,4.9244175,-0.17948663,2.1952574,-0.41537917
0.35,-2.584548,1.9172925,5.0842786,-0.17480451,2.2242908,-0.4246331
0.352,-2.753883,1.9619254,5.240744,-0.16911614,2.2528477,-0.43732595
0.354,-2.902158,1.9966006,5.3926387,-0.16222858,2.2812579,-0.45349878
0.356,-3.0272164,2.021492,5.5382676,-0.15405339,2.309643,-0.47306228
0.358,-3.127817,2.037014,5.675456,-0.1446315,2.3380635,-0.49577862
0.36,-3.201959,2.043138,5.8025165,-0.13415807,2.366554,-0.5211967
0.362,-3.249865,2.0404117,5.9187207,-0.12290394,2.395123,-0.5486932
0.364,-3.2707486,2.0292628,6.0234427,-0.11118084,2.4238296,-0.577503
0.366,-3.2679038,2.012045,6.1153364,-0.099285364,2.452815,-0.6067799
0.368,-3.2416806,1.990005,6.1916,-0.08754331,2.482334,-0.63572013
0.37,-3.1916728,1.9630437,6.251302,-0.076257825,2.5127423,-0.6635436
0.372,-3.1199956,1.931605,6.2937603,-0.065697074,2.544418,-0.6895193
0.374,-3.02993,1.8975235,6.3177924,-0.0560441,2.5777636,-0.7129499
0.376,-2.9245906,1.8627716,6.3224273,-0.047365963,2.6131892,-0.7332703
0.378,-2.8073292,1.8292446,6.3068714,-0.03960383,2.6510417,-0.75002134
0.38,-2.681222,1.7987404,6.2708373,-0.032595992,2.6916158,-0.7628622
0.382,-2.5496275,1.772681,6.2152267,-0.026107907,2.735155,-0.7715659
0.384,-2.4156225,1.7517333,6.1413636,-0.019859433,2.7818115,-0.7760185
0.386,-2.2816894,1.736134,6.0499167,-0.013522744,2.8316362,-0.77623796
0.388,-2.150638,1.726057,5.941857,-0.006730795,2.8845634,-0.77235484
0.39,-2.0248652,1.7221084,5.8187547,0.0008789301,2.9403722,-0.7646192
0.392,-1.906594,1.7249731,5.6827693,0.009657383,2.9986906,-0.7534075
0.394,-1.7976365,1.7350498,5.5364294,0.019892335,3.058972,-0.73920244
0.396,-1.6995559,1.7524993,5.3827133,0.03179121,3.1204824,-0.7225937
0.398,-1.6131768,1.7769951,5.224266,0.045493603,3.182349,-0.7042444
0.4,-1.539185,1.8081694,5.063782,0.06103921,3.2435942,-0.6849054
0.402,-1.4780526,1.8456573,4.903889,0.07843733,3.3032696,-0.6653274
0.404,-1.4297085,1.8889985,4.746933,0.097649455,3.3605113,-0.6462749
0.406,-1.393472,1.9375261,4.595018,0.11861503,3.4146214,-0.6284465
0.408,-1.3689334,1.990625,4.4501414,0.1412406,3.465157,-0.6124584
0.41,-1.3541166,2.0471163,4.314461,0.16543305,3.5120022,-0.59882724
0.412,-1.349844,2.1064816,4.1909027,0.19110501,3.5553513,-0.5879249
0.414,-1.3569652,2.1692376,4.0781617,0.2182219,3.5956788,-0.57996505
0.416,-1.3739264,2.2357469,3.9777126,0.24675906,3.6336646,-0.5750114
0.418,-1.3987315,2.3040283,3.8953238,0.27671254,3.6700857,-0.5730127
0.42,-1.431344,2.3734071,3.832809,0.30810523,3.705734,-0.5738521
0.422,-1.4729792,2.4445736,3.788025,0.3409232,3.7413058,-0.5773582
0.424,-1.5236623,2.5182416,3.7572362,0.37512898,3.777318,-0.5833605
0.426,-1.5831271,2.5952928,3.7340415,0.4106568,3.8140254,-0.59166706
0.428,-1.6464,2.6729295,3.7259402,0.44738364,3.8513718,-0.60212547
0.43,-1.7148947,2.7506144,3.740583,0.4850973,3.8890016,-0.6145843
0.432,-1.7927774,2.8318145,3.7716265,0.52351165,3.9263687,-0.6289453
0.434,-1.8779308,2.9176192,3.810396,0.5623001,3.9627552,-0.6451108
0.436,-1.9689426,3.0075176,3.8558939,0.6011269,3.9974003,-0.66297233
0.438,-2.0681667,3.1011016,3.9116213,0.6396667,4.029582,-0.6824165
0.44,-2.174552,3.1969028,3.9811578,0.67756486,4.0585675,-0.7032909
0.442,-2.286467,3.2945495,4.0655575,0.714486,4.0837955,-0.7254731
0.444,-2.4042082,3.3948617,4.16315,0.75023544,4.105048,-0.74882853
0.446,-2.5277267,3.4974856,4.271439,0.78468585,4.1218786,-0.7732698
0.448,-2.6562238,3.6011744,4.388873,0.81758595,4.1339,-0.7987821
0.45,-2.7878687,3.7045054,4.5159507,0.8486551,4.1411624,-0.82543707
0.452,-2.9204626,3.8059034,4.654434,0.87768555,4.143652,-0.8533468
0.454,-3.0514522,3.9039278,4.805721,0.9046023,4.1412134,-0.88264775
0.456,-3.178246,3.9975457,4.9694815,0.92937505,4.133526,-0.9136008
0.458,-3.2980347,4.085541,5.1442103,0.95172536,4.1202307,-0.9464395
0.46,-3.4080439,4.166768,5.328486,0.9713818,4.101719,-0.98144317
0.462,-3.5053246,4.240192,5.5215764,0.9884349,4.078622,-1.0190035
0.464,-3.5871644,4.3047028,5.722944,1.0032177,4.0511107,-1.059381
0.466,-3.6505685,4.359459,5.9324284,1.0160954,4.0192738,-1.1025875
0.468,-3.6929035,4.4036717,6.14915,1.0274047,3.9836438,-1.1485504
0.47,-3.7118402,4.436961,6.371538,1.0375127,3.945013,-1.1970519
0.472,-3.70516,4.4589205,6.5973973,1.0468987,3.9043832,-1.2476135
0.474,-3.6716197,4.4696074,6.824179,1.0561409,3.8627524,-1.2996762
0.476,-3.6101618,4.4692698,7.049636,1.0657625,3.8208516,-1.3526603
0.478,-3.520565,4.458329,7.271943,1.0760407,3.7791219,-1.4058248
0.48,-3.4031644,4.4377837,7.489197,1.0869417,3.7377567,-1.4582726
0.482,-3.2590277,4.408943,7.69968,1.0981231,3.696828,-1.5090332
0.484,-3.0894978,4.373263,7.9016294,1.1090454,3.656454,-1.5572549
0.486,-2.8964906,4.332286,8.093277,1.1190585,3.6169012,-1.6022412
0.488,-2.6821723,4.2875013,8.273031,1.1275717,3.5786211,-1.6434636
0.49,-2.44943,4.2405806,8.439541,1.1341312,3.5423033,-1.6805677
0.492,-2.2011058,4.1927776,8.591797,1.1385087,3.50894,-1.713376
0.494,-1.9401038,4.145241,8.728964,1.1408405,3.479828,-1.7418387
0.496,-1.6692088,4.0987916,8.850597,1.1415436,3.4562778,-1.766016
0.498,-1.3910906,4.0540814,8.956213,1.1412404,3.4394245,-1.786093
0.5,-1.1084576,4.011365,9.045881,1.1407461,3.4304228,-1.8023258
0.502,-0.8233738,3.9708352,9.119744,1.1410486,3.4298449,-1.8149741
0.504,-0.53761196,3.9321923,9.17851,1.1429806,3.4373941,-1.8243084
0.506,-0.25226164,3.894683,9.2230215,1.1470821,3.452453,-1.830707
0.508,0.032002926,3.8574283,9.254545,1.1535467,3.4740825,-1.834633
0.51,0.31479526,3.8190875,9.274377,1.1623614,3.5010376,-1.836627
0.512,0.5961783,3.7782624,9.283915,1.1734803,3.5317936,-1.8374336
0.514,0.87626314,3.7334266,9.28454,1.1865208,3.5642488,-1.837864
0.516,1.1555648,3.6831293,9.277737,1.2006924,3.5966868,-1.8386929
0.518,1.435142,3.6258218,9.264946,1.2151859,3.6281686,-1.8407669
0.52,1.7150688,3.560634,9.247275,1.2293899,3.6578524,-1.8449206
0.522,1.9982042,3.4857929,9.224826,1.2428296,3.6846576,-1.8516458
0.524,2.2865562,3.3997755,9.2011385,1.255076,3.7076979,-1.8611221
0.526,2.5795395,3.3017197,9.175678,1.2656629,3.7263336,-1.8732752
0.528,2.8768392,3.19315,9.144127,1.274133,3.740252,-1.8876693
0.53,3.179863,3.0742052,9.107022,1.2801827,3.749529,-1.9036276
0.532,3.4902165,2.9443846,9.067841,1.2836956,3.754493,-1.9205068
0.534,3.8071241,2.8040695,9.029309,1.2847166,3.7556558,-1.9376837
0.536,4.1290116,2.6545062,8.994087,1.283362,3.753642,-1.9545128
0.538,4.4502563,2.500416,8.9518795,1.2797927,3.749208,-1.9702817
0.54,4.771903,2.3439727,8.89643,1.2742128,3.7432566,-1.9842916
0.542,5.095615,2.1841044,8.835312,1.2668602,3.7368922,-1.9959012
0.544,5.415966,2.0235796,8.774183,1.2580601,3.7312913,-2.0045214
0.546,5.729345,1.8664665,8.709185,1.2482196,3.727575,-2.0095925
0.548,6.034981,1.716476,8.63324,1.2377702,3.7267175,-2.0105705
0.55,6.3284616,1.5776386,8.541672,1.2271537,3.7294688,-2.0069456
0.552,6.6054277,1.4525228,8.4338,1.2167734,3.736299,-1.9982795
0.554,6.8637667,1.3423395,8.312197,1.2069476,3.747365,-1.9842964
0.556,7.1009264,1.2493348,8.179096,1.1978987,3.7624912,-1.9649656
0.558,7.313661,1.1760249,8.035378,1.1897503,3.7811801,-1.9404712
0.56,7.498517,1.1242948,7.8802547,1.1825403,3.8026495,-1.9111903
0.562,7.6522245,1.095367,7.7126474,1.1762221,3.825866,-1.8777179
0.564,7.772729,1.0893779,7.5327935,1.1707041,3.849658,-1.8407936
0.566,7.858562,1.105833,7.3428764,1.1658523,3.8727703,-1.8012925
0.568,7.9089212,1.1437616,7.14575,1.1615368,3.8940034,-1.7601856
0.57,7.9238787,1.2016888,6.9436035,1.1576717,3.9122596,-1.718507
0.572,7.9040165,1.2780142,6.737341,1.1541927,3.9266038,-1.6773299
0.574,7.850954,1.3701296,6.5282373,1.151085,3.9363189,-1.6376837
0.576,7.766493,1.474926,6.317254,1.1483672,3.9408765,-1.6005398
0.578,7.6526346,1.589838,6.105626,1.1460721,3.9399724,-1.566768
0.58,7.5117764,1.7116427,5.895926,1.144216,3.9334755,-1.5370828
0.582,7.3472376,1.8369651,5.6906137,1.1427573,3.9213629,-1.5120374
0.584,7.1623926,1.9629292,5.4915705,1.1416354,3.903719,-1.492005
0.586,6.961516,2.084767,5.301381,1.14069,3.880654,-1.4771658
0.588,6.748213,2.2004158,5.1196327,1.1396654,3.8522787,-1.4675704
0.59,6.526404,2.307443,4.946808,1.1382475,3.818682,-1.4631506
0.592,6.300193,2.4033675,4.783223,1.1360528,3.779903,-1.4637753
0.594,6.0738153,2.486077,4.6286507,1.1326765,3.735983,-1.4692348
0.596,5.8506193,2.5544367,4.4826927,1.1277182,3.6869392,-1.47929
0.598,5.6336555,2.6078334,4.3447576,1.1207924,3.6328082,-1.4936396
0.6,5.4255977,2.6461563,4.2138867,1.1115842,3.5736203,-1.5119164
0.602,5.228194,2.6703916,4.0891933,1.0998619,3.509397,-1.5337374
0.604,5.042961,2.6815295,3.9700248,1.0855912,3.4404004,-1.5586404
0.606,4.870927,2.6813312,3.8556197,1.0689499,3.3671985,-1.5860139
0.608,4.7124467,2.6717272,3.7451546,1.0502197,3.2902496,-1.615227
0.61,4.5673895,2.6547384,3.6372268,1.0298502,3.2101736,-1.645699
0.612,4.4349937,2.6326394,3.5308805,1.0084004,3.127665,-1.6769545
0.614,4.313512,2.607991,3.4251688,0.98647225,3.0433588,-1.7086654
0.616,4.2007422,2.5832334,3.320014,0.96479887,2.958202,-1.7404274
0.618,4.094117,2.5607986,3.2154315,0.9439832,2.8729067,-1.7718127
0.62,3.9910598,2.5429962,3.1121252,0.924566,2.7880387,-1.8025739
0.622,3.888495,2.5318844,3.010868,0.907017,2.7042146,-1.832433
0.624,3.7835324,2.5289416,2.9124434,0.8917127,2.6220517,-1.8609742
0.626,3.6731944,2.5353262,2.8178725,0.87897605,2.5421557,-1.8876146
0.628,3.5545216,2.5519648,2.7282453,0.8691093,2.4651716,-1.9116321
0.63,3.4247465,2.579066,2.6451058,0.8624109,2.3918047,-1.9321792
0.632,3.281627,2.6163738,2.5708559,0.8591995,2.3227494,-1.9483461
0.634,3.123085,2.6634083,2.507919,0.85979223,2.2587004,-1.9592566
0.636,2.9481502,2.7193289,2.4587688,0.8644948,2.2002616,-1.9642032
0.638,2.7560906,2.7829785,2.4257553,0.87355244,2.1478505,-1.9627311
0.64,2.5472581,2.8527296,2.4109468,0.88715243,2.1016705,-1.9546928
0.642,2.3226888,2.9265172,2.4157403,0.9053495,2.0616317,-1.9402546
0.644,2.084168,3.0021043,2.4416332,0.92801225,2.0273309,-1.9199154
0.646,1.8342257,3.0769517,2.4898078,0.9548598,1.998096,-1.8944159
0.648,1.5759926,3.1484969,2.5613604,0.98542416,1.9729408,-1.864701
0.65,1.313209,3.2141833,2.6570435,1.0190824,1.9506313,-1.8318188
0.652,1.0499554,3.271784,2.7772622,1.0550975,1.9297557,-1.7968973
0.654,0.79094976,3.319202,2.9220917,1.092604,1.90878,-1.7610638
0.656,0.5408031,3.3543031,3.0907593,1.1306612,1.8860962,-1.7254019
0.658,0.30454767,3.375151,3.2822297,1.1682069,1.8598621,-1.6909639
0.66,0.08697003,3.3803315,3.4950404,1.2041757,1.8281996,-1.6588235
0.662,-0.10710657,3.368514,3.7271445,1.2376158,1.7896996,-1.6298707
0.664,-0.2731843,3.3391335,3.9759836,1.2676075,1.7430351,-1.604857
0.666,-0.40725845,3.29184,4.2386184,1.2933291,1.6871514,-1.5844601
0.668,-0.5059344,3.2267623,4.5116487,1.3141241,1.6214578,-1.5691946
0.67,-0.56604946,3.1445153,4.791256,1.3294829,1.5456338,-1.559494
0.672,-0.5854213,3.045844,5.0737324,1.3392675,1.4602213,-1.5555182
0.674,-0.56280524,2.9320145,5.3556576,1.3435817,1.3664066,-1.556993
0.676,-0.49748552,2.8045754,5.6337843,1.3427687,1.2657995,-1.5634449
0.678,-0.3896308,2.665368,5.904693,1.3374491,1.1605384,-1.5742303
0.68,-0.24014956,2.5163558,6.1651354,1.3284566,1.0532291,-1.58849
0.682,-0.050335586,2.359425,6.411837,1.3167826,0.9467058,-1.6051921
0.684,0.17763823,2.1971712,6.641072,1.3035071,0.84388965,-1.6232069
0.686,0.44141582,2.0321624,6.84993,1.2897053,0.7476173,-1.6413829
0.688,0.7381204,1.8660917,7.0361433,1.2763866,0.66044956,-1.6585705
0.69,1.0650434,1.7010894,7.1968765,1.2644075,0.58451176,-1.6736321
0.692,1.4182734,1.5394592,7.330074,1.2544352,0.5213956,-1.6855583
0.694,1.7942948,1.3825569,7.4342394,1.2469553,0.4721079,-1.6935172
0.696,2.1884017,1.2335608,7.5073376,1.2422588,0.4370749,-1.6968482
0.698,2.5969803,1.092854,7.550133,1.2404475,0.41614538,-1.6950536
0.7,3.0157216,0.9615717,7.5624557,1.2414179,0.40862086,-1.6878211
0.702,3.440364,0.84121704,7.5444946,1.2449414,0.41337022,-1.6750036
0.704,3.8665514,0.7331183,7.497404,1.2506702,0.42889276,-1.6565921
0.706,4.2907996,0.6379318,7.4226284,1.2581642,0.4533828,-1.6326861
0.708,4.7095966,0.55616856,7.3218613,1.2669325,0.48483065,-1.6035266
0.71,5.1199465,0.48816347,7.1969175,1.2764544,0.52111465,-1.569488
0.712,5.519034,0.4338448,7.049633,1.2862301,0.56009436,-1.5310876
0.714,5.9040356,0.39319444,6.882022,1.2957708,0.5996669,-1.488938
0.716,6.272451,0.36582112,6.6965218,1.3046542,0.6378008,-1.443787
0.718,6.622073,0.35125065,6.495979,1.3125327,0.6727533,-1.3964517
0.72,6.95136,0.34898543,6.2834053,1.3191375,0.70313483,-1.3477858
0.722,7.2587357,0.3583386,6.061542,1.3243095,0.72792614,-1.298694
0.724,7.5432158,0.37843323,5.833289,1.327952,0.7465101,-1.2501005
0.726,7.803887,0.40857768,5.601129,1.3300635,0.7587111,-1.2028792
0.728,8.040248,0.44782066,5.367631,1.330747,0.7647591,-1.1577961
0.73,8.251996,0.49522638,5.1349077,1.330182,0.7652455,-1.1155111
0.732,8.439182,0.54966736,4.9050736,1.3286101,0.7610252,-1.076526
0.734,8.601872,0.61023545,4.680234,1.3263472,0.75313544,-1.0411966
0.736,8.740293,0.6761352,4.46255,1.3237761,0.74275696,-1.009699
0.738,8.854706,0.7463081,4.253759,1.3213391,0.7311274,-0.98202837
0.74,8.945778,0.8200575,4.055002,1.3195107,0.7194051,-0.9580436
0.742,9.013812,0.8967445,3.8667989,1.3187697,0.7086042,-0.93750274
0.744,9.059451,0.9753169,3.689858,1.3195536,0.69957316,-0.9200622
0.746,9.0828705,1.0553308,3.525165,1.322236,0.6929005,-0.905285
0.748,9.084478,1.1362145,3.374,1.3270849,0.68891734,-0.89267427
0.75,9.064698,1.2175951,3.237309,1.3342748,0.68774086,-0.881704
0.752,9.023405,1.2992749,3.1158853,1.3438885,0.6893244,-0.8718355
0.754,8.961148,1.3809674,3.0102475,1.3559401,0.6934446,-0.8625064
0.756,8.878127,1.4626002,2.9207118,1.3703395,0.6997594,-0.85317785
0.758,8.774497,1.5441656,2.8471377,1.3869119,0.70781684,-0.8433475
0.76,8.650218,1.6258271,2.7891774,1.4054217,0.71711564,-0.83257335
0.762,8.505775,1.7076937,2.7462683,1.4255915,0.72710335,-0.82042974
0.764,8.341418,1.7897965,2.7179098,1.4471095,0.7371998,-0.80650795
0.766,8.157731,1.8724493,2.703922,1.4696624,0.74680644,-0.790484
0.768,7.955323,1.9559464,2.7039967,1.4929357,0.7553209,-0.7721518
0.77,7.735051,2.0405264,2.7173443,1.516611,0.76217556,-0.75139654
0.772,7.4980226,2.126337,2.7429504,1.5404199,0.76682955,-0.728245
0.774,7.2455645,2.213401,2.7794816,1.564166,0.768789,-0.70284504
0.776,6.9794536,2.3016863,2.8255768,1.5876958,0.7676278,-0.67544067
0.778,6.701963,2.3910227,2.8798475,1.6109384,0.76300573,-0.6464189
0.78,6.415209,2.4810905,2.9408064,1.6338631,0.7546062,-0.6162964
0.782,6.121876,2.5718832,3.0066574,1.656446,0.7421413,-0.5856752
0.784,5.8249273,2.6628695,3.0754895,1.6786858,0.72530466,-0.5552431
0.786,5.5276785,2.7535028,3.1451607,1.70055,0.7037595,-0.5257575
0.788,5.23327,2.8434231,3.2143009,1.7219859,0.6771272,-0.49801257
0.79,4.9455056,2.9318871,3.2810457,1.7429092,0.6450176,-0.47280186
0.792,4.668224,3.0182257,3.3437939,1.7632393,0.6070654,-0.4508936
0.794,4.405041,3.1017218,3.4008875,1.7829217,0.5630729,-0.432965
0.796,4.159538,3.1813517,3.4511714,1.8019685,0.5130398,-0.4195631
0.798,3.9354153,3.2562218,3.4935288,1.8204607,0.45717025,-0.41109666
0.8,3.7359345,3.3253107,3.5267534,1.8385432,0.39590538,-0.4077837
0.802,3.5645242,3.3876243,3.5497713,1.8564308,0.32992083,-0.40962914
0.804,3.4238524,3.4426818,3.5619607,1.8743856,0.26003963,-0.41643223
0.806,3.3164983,3.4898577,3.562809,1.8926784,0.18714866,-0.42781293
0.808,3.2441254,3.5287433,3.5521545,1.9115617,0.112185195,-0.44325048
0.81,3.208272,3.5591335,3.5299935,1.9312717,0.03603041,-0.462086
0.812,3.2098813,3.5809157,3.4965153,1.9520147,-0.040499985,-0.4835969
0.814,3.2493877,3.5941968,3.4517837,1.9739537,-0.11671451,-0.50701964
0.816,3.3268542,3.5993652,3.396103,1.997212,-0.19200286,-0.5316068
0.818,3.4417584,3.597042,3.3294587,2.0219123,-0.26584646,-0.5566671
0.82,3.5932431,3.5879893,3.2521598,2.0481317,-0.33783302,-0.5815208
0.822,3.7800717,3.5730336,3.164515,2.0759714,-0.40760848,-0.60551125
0.824,4.0005374,3.553216,3.066727,2.1055498,-0.4748502,-0.6280482
0.826,4.2525973,3.5297034,2.9588408,2.136995,-0.5392742,-0.6485826
0.828,4.534212,3.5039084,2.8406725,2.170436,-0.60061276,-0.66667473
0.83,4.8427744,3.477263,2.7122087,2.2060063,-0.65867877,-0.6819763
0.832,5.1760745,3.4513845,2.5730395,2.243834,-0.71340466,-0.6941684
0.834,5.5318136,3.4279513,2.4225523,2.2840354,-0.76482975,-0.7030125
0.836,5.907352,3.4084885,2.25984,2.3267155,-0.81312674,-0.70837796
0.838,6.300199,3.3945997,2.0842533,2.3719354,-0.85860085,-0.71022487
0.84,6.7082057,3.3876374,1.8952575,2.4197335,-0.9016831,-0.7086109
0.842,7.1293654,3.3890667,1.6920326,2.4701145,-0.9429517,-0.70367503
0.844,7.5617833,3.4000947,1.4739869,2.5230496,-0.98312235,-0.6956305
0.846,8.0039015,3.4214582,1.2403549,2.5784738,-1.023011,-0.68473506
0.848,8.454865,3.453926,0.9908566,2.6363215,-1.0635304,-0.6712805
0.85,8.914166,3.498012,0.7257216,2.6965044,-1.1056445,-0.6555776
0.852,9.379532,3.5548096,0.4435439,2.7589285,-1.1503117,-0.637902
0.854,9.850718,3.6246557,0.14402479,2.8235238,-1.1984221,-0.6184938
0.856,10.327739,3.7065108,-0.173365,2.8902247,-1.2507914,-0.597574
0.858,10.810366,3.8000236,-0.50725925,2.9589748,-1.3081065,-0.57532406
0.86,11.297962,3.905054,-0.85379905,3.0297196,-1.37093,-0.5518923
0.862,11.789546,4.0219727,-1.212631,3.1023767,-1.439678,-0.5273888
0.864,12.284202,4.1504936,-1.581294,3.1768627,-1.5146477,-0.5019244
0.866,12.784622,4.2878556,-1.9566699,3.2530615,-1.596071,-0.47558132
0.868,13.29199,4.4340267,-2.337776,3.3308306,-1.6841136,-0.44842649
0.87,13.799502,4.5916,-2.7218564,3.409994,-1.7789118,-0.4205105
0.872,14.311608,4.757331,-3.1053014,3.4903228,-1.880595,-0.39182904
0.874,14.829698,4.930219,-3.4922545,3.571579,-1.9892956,-0.36233813
0.876,15.351467,5.1108255,-3.8737736,3.6534734,-2.1051922,-0.33198074
0.878,15.869391,5.2987795,-4.230617,3.7356982,-2.228521,-0.3006869
0.88,16.385088,5.48789,-4.553528,3.8179102,-2.3596282,-0.2683729
0.882,16.908188,5.6748013,-4.850512,3.8997328,-2.4990327,-0.23497272
0.884,17.432665,5.86558,-5.1350064,3.9807873,-2.6471946,-0.20044819
0.886,17.950172,6.0643864,-5.4072304,4.060648,-2.8044674,-0.16486338
0.888,18.459656,6.27003,-5.6571264,4.138853,-2.9712698,-0.1282928
0.89,18.96308,6.4793067,-5.873049,4.214985,-3.1479,-0.09087783
0.892,19.457766,6.6913586,-6.0465884,4.288722,-3.334452,-0.05287856
0.894,19.941282,6.9075494,-6.174096,4.3597527,-3.5310552,-0.014614999
0.896,20.41187,7.1287456,-6.25437,4.4279313,-3.7373137,0.023673832
0.898,20.86621,7.357106,-6.287116,4.4931893,-3.9526887,0.061688304
0.9,21.307455,7.584567,-6.2733493,4.555438,-4.176983,0.09899521
0.902,21.733017,7.8097944,-6.2175803,4.6150646,-4.40916,0.13538682
0.904,22.139687,8.034256,-6.1182184,4.672638,-4.647884,0.17076159
0.906,22.52874,8.257927,-5.9763336,4.7284803,-4.8928537,0.20482022
0.908,22.901691,8.481512,-5.796478,4.7830215,-5.1435356,0.2373848
0.91,23.257458,8.706246,-5.583458,4.837195,-5.3980827,0.26904437
0.912,23.595196,8.932539,-5.3422794,4.89243,-5.6548533,0.30085793
0.914,23.915968,9.159446,-5.0776653,4.9502316,-5.9140186,0.33331752
0.916,24.219812,9.386761,-4.794174,5.0120754,-6.1763706,0.36659843
0.918,24.506233,9.615038,-4.496564,5.0792685,-6.4422274,0.40117013
0.92,24.774405,9.845473,-4.189278,5.152888,-6.711579,0.43786824
0.922,25.0234,10.079208,-3.8767095,5.234113,-6.9838724,0.47753334
0.924,25.25211,10.317753,-3.563314,5.3242807,-7.2576904,0.5205697
0.926,25.458597,10.563208,-3.252819,5.4246683,-7.5307727,0.56677735
0.928,25.640444,10.818356,-2.947182,5.536213,-7.7997003,0.6151478
0.93,25.79511,11.0859785,-2.6472068,5.6596894,-8.0589285,0.6646048
0.932,25.919483,11.368962,-2.352978,5.7953405,-8.302512,0.7141069
0.934,26.010035,11.670375,-2.0636728,5.9428005,-8.523694,0.76238865
0.936,26.063244,11.992935,-1.7779057,6.101319,-8.714259,0.8082208
0.938,26.07545,12.33911,-1.4935355,6.2695346,-8.86577,0.85057044
0.94,26.042912,12.711366,-1.2081014,6.445586,-8.97002,0.88873696
0.942,25.962109,13.1116905,-0.9182092,6.6273184,-9.019052,0.9225159
0.944,25.829803,13.541763,-0.62027264,6.812361,-9.00599,0.95243347
0.946,25.643589,14.002876,-0.3104632,6.998336,-8.925781,0.9797456
0.948,25.401453,14.495763,0.014247298,7.183082,-8.775697,1.0061133
0.95,25.10183,15.020574,0.35598946,7.3645854,-8.556381,1.0332884
0.952,24.744345,15.576706,0.71651363,7.5410924,-8.271719,1.0630312
0.954,24.329123,16.162949,1.0964072,7.7110295,-7.928735,1.0968583
0.956,23.857239,16.777672,1.4955089,7.872571,-7.538395,1.1354811
0.958,23.330177,17.418583,1.9129612,8.02404,-7.114005,1.1788716
0.96,22.750248,18.082598,2.3469644,8.164155,-6.669468,1.2263684
0.962,22.122406,18.76568,2.7962956,8.291552,-6.219753,1.2763819
0.964,21.449713,19.464336,3.25779,8.404721,-5.780073,1.326261
0.966,20.736229,20.17545,3.727778,8.502466,-5.3630543,1.3731718
0.968,19.986786,20.89472,4.200884,8.584383,-4.9775352,1.4150534
0.97,19.207039,21.617264,4.6704965,8.650817,-4.630254,1.4500692
0.972,18.40349,22.337893,5.1342154,8.7027235,-4.3262563,1.4763079
0.974,17.581638,23.052479,5.5876746,8.741505,-4.068248,1.4921645
0.976,16.744553,23.758848,6.026889,8.768557,-3.8568232,1.4968343
0.978,15.897886,24.4519,6.450326,8.785289,-3.6909804,1.4904184
0.98,15.053577,25.125364,6.8548474,8.793194,-3.5683625,1.4736478
0.982,14.211612,25.77927,7.237417,8.793926,-3.4859757,1.4476521
0.984,13.376848,26.411077,7.6020164,8.788895,-3.4410384,1.4131938
0.986,12.557123,27.01743,7.940399,8.779476,-3.429638,1.370858
0.988,11.762939,27.59671,8.240543,8.766894,-3.4479012,1.3214362
0.99,10.994713,28.152246,8.505204,8.752039,-3.4927034,1.2656872
0.992,10.247697,28.68334,8.751618,8.735725,-3.5607486,1.2042856
0.994,9.533548,29.181976,8.994559,8.71869,-3.6487274,1.1378146
0.996,8.86246,29.645504,9.231624,8.701506,-3.7537403,1.0666292
0.998,8.235128,30.077454,9.45302,8.684656,-3.8731828,0.9907801
1,7.650494,30.482288,9.652252,8.668499,-4.0047174,0.9101076
1.002,7.1119137,30.861334,9.829451,8.653296,-4.146309,0.8243687
1.004,6.6217446,31.214474,9.990062,8.639171,-4.296256,0.73329175
1.006,6.180739,31.542723,10.141066,8.626138,-4.4532194,0.6365086
1.008,5.790807,31.846397,10.287819,8.614122,-4.6161366,0.5335915
1.01,5.447147,32.134937,10.435696,8.60293,-4.7841353,0.4241147
1.012,5.1513195,32.40855,10.590798,8.592306,-4.9565086,0.3076973
1.014,4.90418,32.665596,10.751581,8.581882,-5.1327486,0.1840198
1.016,4.7018404,32.906754,10.919059,8.571258,-5.3123736,0.052839518
1.018,4.540697,33.13252,11.096689,8.560006,-5.4949174,-0.086033106
1.02,4.4194484,33.343235,11.28681,8.547662,-5.6799135,-0.23270035
1.022,4.335706,33.5405,11.490608,8.533782,-5.8669004,-0.38722563
1.024,4.2853956,33.7268,11.708158,8.517939,-6.0553446,-0.5495987
1.026,4.2654524,33.903427,11.939111,8.499727,-6.2446823,-0.7197416
1.028,4.2731404,34.070972,12.183573,8.478776,-6.434326,-0.89752245
1.03,4.3052926,34.229477,12.441397,8.454747,-6.6236005,-1.0826683
1.032,4.358553,34.37926,12.712896,8.42738,-6.8117747,-1.274828
1.034,4.4297776,34.52022,12.998884,8.396481,-6.9980407,-1.4735646
1.036,4.516292,34.65198,13.299441,8.361909,-7.181515,-1.6783643
1.038,4.6157327,34.773537,13.614088,8.323548,-7.3612614,-1.8886178
1.04,4.7256875,34.884354,13.942052,8.281342,-7.53634,-2.1036832
1.042,4.844216,34.983765,14.282946,8.235273,-7.705845,-2.3228707
1.044,4.969984,35.07101,14.636287,8.185343,-7.8689685,-2.5454895
1.046,5.101635,35.145527,15.001524,8.131594,-8.025016,-2.770865
1.048,5.2381663,35.206745,15.377867,8.074043,-8.173428,-2.9983413
1.05,5.3792224,35.25378,15.764355,8.012732,-8.313776,-3.2272763
1.052,5.524523,35.28559,16.159634,7.9476647,-8.445791,-3.4570353
1.054,5.674074,35.30135,16.562168,7.878859,-8.569362,-3.6870215
1.056,5.8281164,35.299873,16.97012,7.806286,-8.684458,-3.9166515
1.058,5.9871464,35.280174,17.38197,7.7299237,-8.791117,-4.1453776
1.06,6.151718,35.241417,17.796017,7.6497383,-8.889428,-4.3726397
1.062,6.3226004,35.182716,18.210402,7.565704,-8.979485,-4.5979195
1.064,6.5008645,35.103436,18.623434,7.4778056,-9.06134,-4.820701
1.066,6.6873593,35.00273,19.0332,7.386006,-9.134999,-5.0405083
1.068,6.8832674,34.87995,19.437649,7.290329,-9.200398,-5.2569046
1.07,7.089506,34.73482,19.834736,7.1908064,-9.257416,-5.4694824
1.072,7.3073406,34.566856,20.222399,7.087536,-9.305815,-5.6778517
1.074,7.538066,34.37573,20.598646,6.9806724,-9.345318,-5.8816514
1.076,7.7830253,34.161133,20.961414,6.870413,-9.37558,-6.080513
1.078,8.0435,33.922977,21.308723,6.7570076,-9.396238,-6.2741036
1.08,8.320648,33.661354,21.638962,6.6407757,-9.406929,-6.4620905
1.082,8.615482,33.376495,21.95055,6.5220504,-9.4073105,-6.6441383
1.084,8.929263,33.0686,22.241905,6.4011846,-9.39709,-6.819974
1.086,9.263002,32.73797,22.51159,6.2785187,-9.376029,-6.9893208
1.088,9.617494,32.385105,22.75828,6.154383,-9.343983,-7.15194
1.09,9.993628,32.010506,22.980873,6.029066,-9.300965,-7.307669
1.092,10.39164,31.614777,23.178482,5.9028406,-9.247094,-7.456358
1.094,10.811829,31.198639,23.350346,5.7759233,-9.18262,-7.5978694
1.096,11.254434,30.762611,23.495846,5.648487,-9.107902,-7.7320895
1.098,11.719317,30.307434,23.614494,5.5206685,-9.023417,-7.8589306
1.1,12.205877,29.833647,23.706358,5.392559,-8.929773,-7.9783196
1.102,12.713657,29.341976,23.771442,5.264198,-8.827677,-8.090195
1.104,13.241546,28.832773,23.809965,5.1355834,-8.717933,-8.19449
1.106,13.788179,28.306568,23.822441,5.0066614,-8.601393,-8.29116
1.108,14.351574,27.764107,23.809742,4.8773394,-8.478943,-8.380148
1.11,14.930617,27.205572,23.77196,4.747531,-8.3514385,-8.461384
1.112,15.5217495,26.631699,23.709887,4.6171446,-8.219667,-8.534794
1.114,16.122208,26.04294,23.625158,4.486133,-8.084293,-8.600304
1.116,16.729673,25.43998,23.51831,4.354494,-7.9458823,-8.657805
1.118,17.34062,24.823584,23.390532,4.2222857,-7.804876,-8.707215
1.12,17.951645,24.194069,23.24327,4.089629,-7.6615796,-8.748415
1.122,18.559402,23.552181,23.077671,3.9567027,-7.5161705,-8.781297
1.124,19.1602,22.898626,22.894966,3.82377,-7.368737,-8.805757
1.126,19.7505,22.23418,22.696445,3.6911201,-7.2193303,-8.821679
1.128,20.32687,21.559816,22.483404,3.5590744,-7.067955,-8.82897
1.13,20.886003,20.8767,22.25704,3.4279816,-6.9145985,-8.827533
1.132,21.424988,20.185816,22.018593,3.298185,-6.7592525,-8.817287
1.134,21.940876,19.488466,21.76892,3.1700392,-6.6018906,-8.798124
1.136,22.43106,18.785986,21.508907,3.0439134,-6.4424634,-8.769901
1.138,22.893215,18.07978,21.239243,2.92019,-6.2808547,-8.732454
1.14,23.325596,17.371416,20.960976,2.7992346,-6.1169176,-8.685621
1.142,23.726526,16.662558,20.674847,2.6814194,-5.950687,-8.629321
1.144,24.094526,15.955105,20.381592,2.5671802,-5.7819567,-8.563465
1.146,24.428707,15.250733,20.081951,2.456899,-5.6105742,-8.487994
1.148,24.728443,14.5514765,19.776402,2.3509195,-5.436474,-8.402962
1.15,24.993288,13.859156,19.465761,2.2495706,-5.259591,-8.308462
1.152,25.22325,13.175941,19.150755,2.1531327,-5.0799084,-8.204642
1.154,25.418507,12.503893,18.832233,2.0618367,-4.8974524,-8.091701
1.156,25.579653,11.844901,18.51117,1.9758594,-4.7122836,-7.9698715
1.158,25.707397,11.200932,18.188292,1.8953402,-4.524524,-7.839437
1.16,25.802483,10.573806,17.86445,1.8203752,-4.334324,-7.700718
1.162,25.865814,9.965229,17.540522,1.751013,-4.1418476,-7.554063
1.164,25.898474,9.3767185,17.217556,1.687237,-3.9472427,-7.3998528
1.166,25.901472,8.809892,16.89672,1.6289973,-3.7506227,-7.2385216
1.168,25.876286,8.266024,16.578966,1.5762122,-3.552062,-7.0705585
1.17,25.824402,7.7461443,16.26537,1.5287452,-3.351574,-6.8965287
1.172,25.747208,7.251099,15.956659,1.4864566,-3.1491444,-6.717023
1.174,25.646315,6.7812734,15.653453,1.4491553,-2.944797,-6.5327177
1.176,25.523453,6.336945,15.356184,1.4166207,-2.7385855,-6.3443065
1.178,25.380114,5.918172,15.06506,1.3885869,-2.5306518,-6.1525073
1.18,25.218107,5.5247946,14.780342,1.3647702,-2.3212295,-5.958066
1.182,25.03907,5.1563663,14.502388,1.3448615,-2.1107054,-5.7617373
1.184,24.844883,4.8122263,14.231257,1.3285474,-1.8996108,-5.5642753
1.186,24.637112,4.491539,13.966757,1.3155005,-1.688575,-5.3664002
1.188,24.417568,4.1932306,13.708458,1.3053944,-1.4783378,-5.168879
1.19,24.187983,3.9159966,13.455806,1.2978873,-1.269685,-4.9724517
1.192,23.949877,3.6585045,13.208181,1.2926718,-1.0634156,-4.777806
1.194,23.704739,3.4192648,12.965036,1.2894703,-0.8602917,-4.585584
1.196,23.45419,3.1967068,12.725673,1.2880261,-0.6609217,-4.3963323
1.198,23.199608,2.9893618,12.489393,1.2880576,-0.4660856,-4.21059
1.2,22.942167,2.7954922,12.255554,1.289373,-0.27644783,-4.028874
1.202,22.683167,2.613491,12.023434,1.2918394,-0.09254967,-3.8516247
1.204,22.423529,2.4418535,11.792473,1.2953031,0.08505464,-3.6792858
1.206,22.163925,2.2792025,11.562202,1.2996397,0.25585306,-3.5122757
1.208,21.9049,2.124199,11.332526,1.3047326,0.41936713,-3.3509896
1.21,21.64685,1.9758606,11.103449,1.3104566,0.57512635,-3.1958156
1.212,21.3899,1.8331966,10.87501,1.3166568,0.7226961,-3.04711
1.214,21.134087,1.6956263,10.647345,1.3231593,0.8616592,-2.9051952
1.216,20.87916,1.5625973,10.420602,1.3297656,0.9916232,-2.7703698
1.218,20.625093,1.4334431,10.194864,1.3362665,1.1122162,-2.6428986
1.22,20.370377,1.308301,9.971342,1.3424326,1.2230741,-2.5230057
1.222,20.115923,1.1869268,9.750778,1.3480225,1.32388,-2.4109068
1.224,19.860659,1.0695515,9.533057,1.3527988,1.4143505,-2.3067718
1.226,19.603218,0.9565029,9.319273,1.3565373,1.494247,-2.2107737
1.228,19.343239,0.84802246,9.109849,1.3590176,1.5633655,-2.1230545
1.23,19.079983,0.7447767,8.904852,1.3600283,1.621555,-2.0437598
1.232,18.812706,0.64737606,8.704934,1.3593717,1.6687099,-1.9730052
1.234,18.54096,0.5562744,8.510762,1.3568473,1.7047794,-1.9108942
1.236,18.26437,0.47204876,8.322626,1.3522576,1.7297968,-1.857485
1.238,17.982544,0.39509106,8.140909,1.345413,1.7438701,-1.8128028
1.24,17.695238,0.32588768,7.9657793,1.3361285,1.7471406,-1.7768381
1.242,17.40224,0.26476383,7.7973013,1.3242478,1.7398351,-1.7495211
1.244,17.103373,0.21189117,7.63577,1.3096331,1.7222452,-1.730731
1.246,16.798576,0.16744041,7.481415,1.2921643,1.6947309,-1.7203047
1.248,16.487928,0.13136196,7.3344455,1.271776,1.6577587,-1.718006
1.25,16.171667,0.10329914,7.19492,1.2484374,1.6118556,-1.7235348
1.252,15.850306,0.08288002,7.062807,1.2221696,1.5576069,-1.7365086
1.254,15.524372,0.06953812,6.9379826,1.1930097,1.4956503,-1.7564778
1.256,15.194373,0.06261444,6.820326,1.1610092,1.4266524,-1.7829218
1.258,14.860792,0.061473846,6.709606,1.1262348,1.3513132,-1.8152604
1.26,14.524514,0.064968586,6.6054306,1.088792,1.2703452,-1.8528589
1.262,14.186416,0.071918964,6.507435,1.048794,1.1844552,-1.8950189
1.264,13.847406,0.08107042,6.4153357,1.0063695,1.0943506,-1.9410063
1.266,13.508463,0.091171265,6.3289375,0.96165746,1.0007055,-1.9900657
1.268,13.170635,0.10083103,6.248081,0.9148151,0.90416133,-2.0414476
1.27,12.835074,0.1088438,6.1723566,0.8660111,0.8052894,-2.094425
1.272,12.503311,0.11377716,6.101239,0.8154163,0.7046001,-2.1482873
1.274,12.176987,0.1141386,6.034192,0.7632232,0.6025255,-2.202359
1.276,11.857607,0.10851574,5.970749,0.70962226,0.49943334,-2.256012
1.278,11.5465145,0.09548235,5.9106274,0.65481424,0.39562118,-2.3086798
1.28,11.245322,0.07375622,5.853512,0.59899336,0.29135573,-2.359833
1.282,10.955414,0.04206276,5.799057,0.54237336,0.1868788,-2.4089775
1.284,10.678394,-0.0006251335,5.746891,0.48517376,0.08246067,-2.4556289
1.286,10.415619,-0.055300236,5.6969004,0.4276098,-0.021591976,-2.4992938
1.288,10.168489,-0.12294626,5.6490293,0.3699227,-0.12488961,-2.5394917
1.29,9.937965,-0.2043128,5.60322,0.3123645,-0.22694296,-2.5757382
1.292,9.724821,-0.29977417,5.559337,0.2552285,-0.32711938,-2.6075466
1.294,9.529584,-0.40961933,5.5174823,0.19884464,-0.4246361,-2.6344352
1.296,9.352648,-0.53386927,5.4778533,0.14356035,-0.51859903,-2.6559465
1.298,9.194182,-0.6725292,5.4408903,0.08975679,-0.60802686,-2.6716666
1.3,9.053895,-0.8250427,5.406944,0.037836313,-0.6918813,-2.6812496
1.302,8.931222,-0.99101114,5.3765497,-0.011822164,-0.7691256,-2.6844256
1.304,8.825296,-1.1695728,5.350213,-0.058844924,-0.83879364,-2.6809914
1.306,8.734869,-1.3596544,5.3284044,-0.10289699,-0.9000158,-2.6708302
1.308,8.658574,-1.560092,5.3116035,-0.14368057,-0.95205164,-2.6538734
1.31,8.59488,-1.7694502,5.300372,-0.18093151,-0.9943106,-2.6301234
1.312,8.541883,-1.9859824,5.2951827,-0.21443486,-1.0263672,-2.5996418
1.314,8.497506,-2.2079682,5.2963376,-0.24405766,-1.0479479,-2.5625412
1.316,8.459859,-2.4337907,5.3045883,-0.2697062,-1.0589252,-2.5189714
1.318,8.426562,-2.6614523,5.319765,-0.29133093,-1.0593125,-2.469112
1.32,8.395073,-2.8893049,5.3423057,-0.30894703,-1.0492353,-2.4131715
1.322,8.362339,-3.1153302,5.372653,-0.32261032,-1.0289439,-2.3513799
1.324,8.325782,-3.337511,5.4106693,-0.33243924,-0.99877405,-2.2839904
1.326,8.282608,-3.553731,5.4566174,-0.33860183,-0.95915914,-2.2112927
1.328,8.229944,-3.761928,5.510559,-0.34130353,-0.9106095,-2.133599
1.33,8.1648245,-3.9602542,5.5720954,-0.34077096,-0.853673,-2.0512075
1.332,8.084328,-4.1469245,5.6404495,-0.33725446,-0.7889098,-1.9644017
1.334,7.9854684,-4.320175,5.7153187,-0.33101612,-0.71686685,-1.8734412
1.336,7.8652263,-4.4785776,5.796381,-0.3223009,-0.6380458,-1.7785606
1.338,7.720503,-4.620462,5.883299,-0.31136024,-0.55290043,-1.6799768
1.34,7.548328,-4.74431,5.976064,-0.29842448,-0.46178037,-1.5778935
1.342,7.3457994,-4.848738,6.074126,-0.2837219,-0.36495936,-1.4724962
1.344,7.110412,-4.932416,6.1766224,-0.2674646,-0.26263273,-1.3640072
1.346,6.839641,-4.9942946,6.282821,-0.24988204,-0.15494606,-1.2526729
1.348,6.531613,-5.0337048,6.391951,-0.23116691,-0.042019397,-1.1387916
1.35,6.1847134,-5.049983,6.503441,-0.21154812,0.076017335,-1.022773
1.352,5.7976575,-5.042527,6.616931,-0.19124123,0.1990261,-0.9050482
1.354,5.3696113,-5.010845,6.7319365,-0.17046142,0.32677773,-0.78615063
1.356,4.9000597,-4.954767,6.848096,-0.14941682,0.45894662,-0.66670215
1.358,4.3889203,-4.8740926,6.965059,-0.12832151,0.595132,-0.54739547
1.36,3.8363986,-4.768897,7.082574,-0.10741192,0.73480153,-0.42896518
1.362,3.2432673,-4.639354,7.2006955,-0.08696592,0.8773072,-0.3121971
1.364,2.6106994,-4.4858756,7.319192,-0.06729743,1.0219153,-0.19787017
1.366,1.9404604,-4.30876,7.438247,-0.048748106,1.1678344,-0.08674395
1.368,1.2350242,-4.108707,7.5579324,-0.031665742,1.3142242,0.02044952
1.37,0.4966188,-3.8860464,7.678318,-0.016412556,1.4602249,0.12302199
1.372,-0.27193564,-3.641498,7.799523,-0.003361702,1.6049792,0.22033128
1.374,-1.0673645,-3.3756757,7.921664,0.0071346164,1.7476398,0.31175572
1.376,-1.8861573,-3.089416,8.044679,0.014727056,1.8873858,0.39669934
1.378,-2.7245426,-2.7835705,8.168615,0.01911974,2.0234056,0.47455913
1.38,-3.5786686,-2.458922,8.293609,0.02006483,2.1549158,0.54474425
1.382,-4.4446516,-2.1161904,8.420089,0.017357707,2.281146,0.6066914
1.384,-5.3185306,-1.7560889,8.54829,0.010862112,2.4013493,0.6598042
1.386,-6.1959176,-1.3796524,8.678391,0.0004683733,2.5147898,0.70349175
1.388,-7.072756,-0.9876141,8.810234,-0.013900638,2.6207485,0.7371693
1.39,-7.945043,-0.58075273,8.943636,-0.032303452,2.7185416,0.76027334
1.392,-8.808626,-0.16011298,9.078352,-0.054782152,2.8074787,0.7722869
1.394,-9.659914,0.2733462,9.213966,-0.08138776,2.8868613,0.7727352
1.396,-10.495313,0.7186384,9.350201,-0.112146616,2.9560108,0.76120675
1.398,-11.311458,1.174684,9.486736,-0.14707589,3.0142884,0.7373693
1.4,-12.105124,1.6402235,9.623164,-0.18619025,3.06115,0.7009582
1.402,-12.873308,2.1138277,9.758916,-0.22950613,3.0961723,0.6517962
1.404,-13.613349,2.5940795,9.893251,-0.2769878,3.1190703,0.5898066
1.406,-14.322741,3.0793958,10.025494,-0.3285979,3.129683,0.5149497
1.408,-14.999456,3.5680697,10.154681,-0.38425195,3.128015,0.4273023
1.41,-15.641543,4.0582356,10.279974,-0.44383287,3.1142037,0.3270191
1.412,-16.247261,4.5480876,10.400419,-0.5071801,3.0884624,0.21431226
1.414,-16.815166,5.035469,10.515016,-0.57409525,3.0510674,0.08945274
1.416,-17.344416,5.518289,10.622903,-0.6443697,3.002332,-0.047230005
1.418,-17.833927,5.994282,10.7231655,-0.7177825,2.9425564,-0.19538027
1.42,-18.283237,6.4612823,10.814862,-0.7941391,2.8719807,-0.35460806
1.422,-18.691984,6.917004,10.89744,-0.87327707,2.7908602,-0.5244791
1.424,-19.059797,7.3591156,10.970328,-0.95504683,2.6994214,-0.7044834
1.426,-19.386871,7.7856493,11.032791,-1.0393065,2.5979238,-0.8940523
1.428,-19.67313,8.194499,11.084998,-1.1259601,2.4866672,-1.0925364
1.43,-19.91863,8.583833,11.126502,-1.2149334,2.3659947,-1.2992069
1.432,-20.123415,8.95162,11.1572485,-1.3061628,2.236329,-1.5132612
1.434,-20.288176,9.296082,11.177772,-1.399595,2.098115,-1.7338483
1.436,-20.413443,9.615601,11.18822,-1.4952021,1.9518206,-1.9600868
1.438,-20.499996,9.908742,11.189177,-1.5929403,1.7979337,-2.1910396
1.44,-20.548542,10.174553,11.181729,-1.6927485,1.6369445,-2.425773
1.442,-20.560028,10.412032,11.167285,-1.7945278,1.4693588,-2.663355
1.444,-20.535202,10.620502,11.146969,-1.8981761,1.295716,-2.9028707
1.446,-20.474773,10.799508,11.121742,-2.0035405,1.116611,-3.1434622
1.448,-20.380085,10.948695,11.092925,-2.1104228,0.93275213,-3.3842916
1.45,-20.251623,11.0680275,11.0615835,-2.218624,0.74493444,-3.6245778
1.452,-20.090038,11.157166,11.029284,-2.3278942,0.55407107,-3.8635886
1.454,-19.897346,11.216565,10.998134,-2.437933,0.3612157,-4.1006413
1.456,-19.674433,11.247074,10.96961,-2.5484285,0.1675427,-4.335085
1.458,-19.42231,11.249436,10.945347,-2.6590657,-0.02566123,-4.5663233
1.46,-19.14236,11.22447,10.926715,-2.769536,-0.21702456,-4.7938113
1.462,-18.835901,11.173315,10.914418,-2.8795612,-0.40513682,-5.0170493
1.464,-18.503963,11.097054,10.909298,-2.9888752,-0.58858466,-5.235588
1.466,-18.147804,10.997002,10.911856,-3.0972345,-0.76597214,-5.4490166
1.468,-17.768705,10.874554,10.922509,-3.204407,-0.9359257,-5.656959
1.47,-17.367891,10.731273,10.941602,-3.310145,-1.0970922,-5.8590927
1.472,-16.94633,10.568829,10.96916,-3.4141972,-1.2481434,-6.0551233
1.474,-16.504974,10.3889885,11.004937,-3.5162969,-1.387728,-6.244791
1.476,-16.044699,10.193489,11.048242,-3.6161234,-1.5144815,-6.427886
1.478,-15.5663185,9.984303,11.098342,-3.7133174,-1.6270828,-6.6042356
1.48,-15.069947,9.763228,11.154187,-3.8074093,-1.7242496,-6.7737207
1.482,-14.555723,9.532293,11.214705,-3.8978915,-1.8047562,-6.936303
1.484,-14.023666,9.293232,11.279027,-3.9841805,-1.8674841,-7.0919943
1.486,-13.47341,9.048111,11.346074,-4.0656557,-1.9114707,-7.2408876
1.488,-12.904286,8.798962,11.414915,-4.141689,-1.9359951,-7.3832045
1.49,-12.3152895,8.547658,11.48432,-4.211659,-1.9405911,-7.5192575
1.492,-11.70537,8.296207,11.552977,-4.2750044,-1.9251409,-7.6494656
1.494,-11.073141,8.046345,11.619721,-4.331243,-1.8899124,-7.7743654
1.496,-10.417417,7.800074,11.683773,-4.3800054,-1.8355567,-7.8945527
1.498,-9.736803,7.559158,11.744787,-4.4210424,-1.7630796,-8.010688
1.5,-9.0299835,7.32533,11.802761,-4.454226,-1.6738534,-8.123457
1.502,-8.295825,7.100637,11.857798,-4.4795566,-1.5695493,-8.233563
1.504,-7.533332,6.8870006,11.909967,-4.4971557,-1.452038,-8.341698
1.506,-6.7417655,6.68631,11.959236,-4.5072346,-1.3233404,-8.448529
1.508,-5.9207454,6.500618,12.005849,-4.510091,-1.1855278,-8.554686
1.51,-5.070174,6.3317957,12.050204,-4.5060797,-1.0406547,-8.660781
1.512,-4.1904087,6.182019,12.093138,-4.495569,-0.8906832,-8.767387
1.514,-3.2820017,6.0531683,12.135443,-4.478896,-0.7374573,-8.875057
1.516,-2.3456898,5.9473295,12.178073,-4.4563756,-0.582685,-8.984309
1.518,-1.3825048,5.866856,12.22201,-4.428259,-0.4279728,-9.095646
1.52,-0.39367515,5.813795,12.268129,-4.3947334,-0.27487707,-9.209547
1.522,0.6194055,5.790395,12.317243,-4.355926,-0.12496185,-9.326472
1.524,1.6550213,5.798922,12.370426,-4.3119087,0.020200253,-9.446864
1.526,2.712112,5.841458,12.428741,-4.262713,0.15899277,-9.571125
1.528,3.7891295,5.919988,12.492396,-4.2083344,0.28972244,-9.699644
1.53,4.88596,6.0354357,12.561823,-4.148788,0.41063547,-9.832756
1.532,5.999947,6.1900644,12.636848,-4.084115,0.5199971,-9.970769
1.534,7.1311045,6.384396,12.719319,-4.0144444,0.6160345,-10.113906
1.536,8.278172,6.620019,12.807932,-3.9399393,0.69697046,-10.262318
1.538,9.442523,6.897264,12.904377,-3.860878,0.7610493,-10.416101
1.54,10.622566,7.2168884,13.008358,-3.77765,0.8065562,-10.575241
1.542,11.819537,7.5801086,13.123598,-3.690721,0.8318949,-10.739569
1.544,13.036186,7.9852104,13.249071,-3.600648,0.835546,-10.908842
1.546,14.27475,8.432151,13.383062,-3.5080404,0.81613636,-11.082672
1.548,15.5353985,8.919925,13.5266075,-3.4135733,0.7724676,-11.26055
1.55,16.817839,9.448357,13.683153,-3.3179383,0.7035475,-11.441875
1.552,18.12648,10.012842,13.854456,-3.2218099,0.608552,-11.625932
1.554,19.462484,10.612694,14.040659,-3.1258764,0.48687458,-11.811959
1.556,20.826462,11.247572,14.244977,-3.0307746,0.3380761,-11.999134
1.558,22.223246,11.913691,14.468365,-2.9370747,0.16191292,-12.186611
1.56,23.65409,12.608822,14.712467,-2.8452718,-0.041697502,-12.373478
1.562,25.118603,13.331732,14.980072,-2.7558184,-0.27283287,-12.558924
1.564,26.619684,14.07807,15.272915,-2.6690722,-0.5314584,-12.742083
1.566,28.15794,14.8436165,15.594023,-2.5853484,-0.8173442,-12.922021
1.568,29.72897,15.629,15.947626,-2.5048842,-1.1303272,-13.097813
1.57,31.334995,16.429197,16.336111,-2.4278438,-1.4700146,-13.2684555
1.572,32.976643,17.240316,16.76041,-2.3543775,-1.8362236,-13.432998
1.574,34.651,18.06122,17.2225,-2.2845552,-2.2282252,-13.590125
1.576,36.35625,18.88865,17.72309,-2.2184968,-2.6454487,-13.738466
1.578,38.089947,19.718811,18.263382,-2.1563478,-3.0872016,-13.876591
1.58,39.847828,20.548378,18.84405,-2.098291,-3.5527215,-14.003157
1.582,41.625217,21.373703,19.46456,-2.0444875,-4.040867,-14.116533
1.584,43.417877,22.191391,20.124622,-1.9951253,-4.5503707,-14.215031
1.586,45.220898,22.998001,20.822378,-1.9503369,-5.079867,-14.297134
1.588,47.02972,23.789804,21.55504,-1.9101567,-5.627436,-14.361212
1.59,48.838734,24.56321,22.319584,-1.8746734,-6.190865,-14.405723
1.592,50.642754,25.314148,23.11182,-1.843924,-6.767537,-14.429407
1.594,52.4364,26.03858,23.92692,-1.8177857,-7.3543243,-14.431112
1.596,54.21392,26.73261,24.760614,-1.7960167,-7.9476438,-14.4098
1.598,55.970135,27.392368,25.607903,-1.778193,-8.543761,-14.364873
1.6,57.699944,28.01387,26.46421,-1.7635403,-9.138488,-14.295851
1.602,59.39865,28.593744,27.325293,-1.7511024,-9.727688,-14.2021675
1.604,61.06176,29.129175,28.186697,-1.7397223,-10.307442,-14.083496
1.606,62.68577,29.617495,29.044203,-1.7280908,-10.873909,-13.93967
1.608,64.26752,30.05614,29.893938,-1.7148719,-11.423596,-13.770612
1.61,65.80417,30.443045,30.731941,-1.6986465,-11.953336,-13.5764
1.612,67.29327,30.776773,31.555191,-1.6779442,-12.460352,-13.357164
1.614,68.732956,31.056637,32.361332,-1.6512733,-12.942362,-13.113123
1.616,70.1217,31.28255,33.148605,-1.6170888,-13.397383,-12.844454
1.618,71.45861,31.455183,33.915855,-1.5738745,-13.82393,-12.551435
1.62,72.742874,31.576399,34.66232,-1.5200992,-14.221033,-12.234433
1.622,73.97409,31.648361,35.38784,-1.4542575,-14.587941,-11.893809
1.624,75.152176,31.674969,36.092285,-1.3748343,-14.924461,-11.529963
1.626,76.277405,31.661325,36.776253,-1.2802525,-15.23037,-11.1433
1.628,77.35024,31.614021,37.441154,-1.1689265,-15.506108,-10.734682
1.63,78.37216,31.54085,38.08854,-1.0391674,-15.751878,-10.305033
1.632,79.34434,31.45112,38.720318,-0.8892777,-15.968012,-9.855414
1.634,80.268814,31.355986,39.33834,-0.7175319,-16.15481,-9.387149
1.636,81.14764,31.268524,39.944794,-0.52226007,-16.312738,-8.902093
1.638,81.9829,31.203468,40.54366,-0.30182028,-16.442104,-8.402172
1.64,82.77666,31.17717,41.1389,-0.054722786,-16.543152,-7.8892283
1.642,83.533485,31.206135,41.735397,0.22035271,-16.616486,-7.365209
1.644,84.255646,31.309975,42.33638,0.52463216,-16.662758,-6.8317604
1.646,84.9458,31.508766,42.948708,0.85897857,-16.682919,-6.2900505
1.648,85.60651,31.822796,43.575623,1.2238557,-16.678322,-5.7409716
1.65,86.24341,32.272648,44.22286,1.6193471,-16.650702,-5.1851406
1.652,86.85849,32.880295,44.893974,2.0451083,-16.602005,-4.6226234
1.654,87.45398,33.669273,45.59613,2.5003538,-16.534622,-4.053403
1.656,88.03629,34.656654,46.336395,2.9840493,-16.451044,-3.477462
1.658,88.608734,35.8668,47.115883,3.4948833,-16.35383,-2.8945043
1.66,89.17411,37.32968,47.93485,4.0313015,-16.245672,-2.3041093
1.662,89.714615,39.09736,48.79193,4.5915575,-16.12915,-1.705842
1.664,90.250244,41.14008,49.688248,5.1737347,-16.006725,-1.0991046
1.666,90.80625,43.46312,50.648132,5.775725,-15.880605,-0.48324132
1.668,91.38139,46.103966,51.680504,6.395383,-15.752443,0.14257503
1.67,91.972565,49.10448,52.760456,7.030549,-15.623401,0.7795595
1.672,92.60678,52.46437,53.865482,7.679074,-15.494062,1.4293232
1.674,93.28716,56.18818,55.00258,8.338873,-15.364412,2.0939412
1.676,94.005875,60.28247,56.16908,9.008051,-15.233604,2.7758608
1.678,94.79967,64.73022,57.37663,9.684897,-15.0998745,3.4779468
1.68,95.646454,69.55433,58.603687,10.367796,-14.96068,4.2035656
1.682,96.56539,74.7631,59.825577,11.055235,-14.812478,4.956495
1.684,97.57517,80.34494,61.04046,11.745963,-14.650635,5.7408414
1.686,98.657364,86.28731,62.264137,12.438782,-14.469845,6.5614395
1.688,99.69295,92.59575,63.52513,13.133009,-14.26321,7.423571
1.69,100.71585,99.201035,64.892136,13.827939,-14.023415,8.332048
1.692,101.76039,106.05264,66.39763,14.522848,-13.742718,9.289884
1.694,102.96783,113.0806,68.04546,15.215563,-13.412252,10.301874
1.696,104.43681,120.29567,69.72289,15.904147,-13.021704,11.375937
1.698,106.1076,127.68434,71.33992,16.58922,-12.556816,12.519751
1.7,107.9341,135.2129,72.89356,17.271454,-12.001085,13.739246
1.702,109.92721,142.81602,74.37019,17.947615,-11.339867,15.040219
1.704,112.060234,150.43364,75.836815,18.61174,-10.558411,16.427595
1.706,114.38948,157.94745,77.374626,19.26003,-9.63605,17.904148
1.708,116.925705,165.27715,79.02115,19.88757,-8.549333,19.473167
1.71,119.69426,172.41348,80.78507,20.486633,-7.273309,21.137001
1.712,122.719406,179.29395,82.622955,21.047337,-5.784627,22.895357
1.714,126.018906,185.82771,84.49019,21.55705,-4.0640116,24.741734
1.716,129.61191,191.92693,86.365715,21.999434,-2.0940065,26.661112
1.718,133.51297,197.4863,88.21762,22.355083,0.1432581,28.629654
1.72,137.7384,202.43962,90.04117,22.60174,2.6605463,30.62561
1.722,142.28001,206.72784,91.82027,22.718828,5.4543114,32.618443
1.724,147.12048,210.31522,93.53507,22.681002,8.502554,34.562798
1.726,152.26372,213.17488,95.13072,22.460732,11.776227,36.416744
1.728,157.73833,215.26642,96.511444,22.041843,15.234775,38.134712
1.73,163.52151,216.56606,97.5939,21.419302,18.828487,39.672302
1.732,169.59341,217.04742,98.3031,20.5949,22.48928,40.982056
1.734,175.92847,216.73314,98.557465,19.567772,26.126312,41.997528
1.736,182.51627,215.67789,98.34442,18.354769,29.652456,42.695007
1.738,189.3323,213.94405,97.60377,16.994757,32.97677,43.082733
1.74,196.32361,211.58565,96.24165,15.535788,36.00914,43.17218
1.742,203.39912,208.6716,94.179016,14.0315485,38.661404,42.96537
1.744,210.45876,205.27118,91.355576,12.534961,40.84874,42.450592
1.746,217.39685,201.45296,87.72983,11.092474,42.49054,41.61155
1.748,224.10329,197.28908,83.27333,9.742168,43.525154,40.43241
1.75,230.45752,192.86412,77.99525,8.510908,43.926945,38.8974
1.752,236.32828,188.26297,71.935135,7.4140935,43.70973,36.99581
1.754,241.58452,183.55278,65.11092,6.460606,42.93181,34.717766
1.756,246.14584,178.77013,57.536068,5.657408,41.69959,32.053253
1.758,249.91135,173.94292,49.270214,5.00713,40.148487,29.003819
1.76,252.78769,169.08934,40.431885,4.5000196,38.420456,25.586533
1.762,254.70901,164.22574,31.172691,4.115291,36.64977,21.836838
1.764,255.63223,159.37285,21.660858,3.8187869,34.944042,17.82009
1.766,255.53326,154.54738,12.073921,3.5628705,33.371956,13.629269
1.768,254.41266,149.74913,2.6025848,3.2885826,31.955297,9.376998
1.77,252.29599,144.96838,-6.5586395,2.923891,30.656929,5.195283
1.772,249.24527,140.1914,-15.2164,2.3869328,29.385376,1.2305984
1.774,245.3114,135.4838,-23.189491,1.5945506,28.016277,-2.3727255
1.776,240.56888,130.86763,-30.329155,0.47001266,26.41704,-5.470202
1.778,235.1352,126.34398,-36.481842,-1.0379343,24.463322,-7.9288173
1.78,229.14096,121.920166,-41.497627,-2.9479027,22.049091,-9.656802
1.782,222.69682,117.64789,-45.274475,-5.2470365,19.114613,-10.600937
1.784,215.93744,113.57302,-47.77703,-7.8847976,15.664745,-10.757335
1.786,209.00024,109.73364,-48.995087,-10.777492,11.7704115,-10.171486
1.788,201.97803,106.17397,-48.9665,-13.807026,7.5585294,-8.9244585
1.79,195.00476,102.89603,-47.73172,-16.847631,3.1875517,-7.1704307
1.792,188.15749,99.91597,-45.370758,-19.773129,-1.1498609,-5.086888
1.794,181.50928,97.26495,-42.01976,-22.453444,-5.246492,-2.8378649
1.796,175.1483,94.969406,-37.84617,-24.767979,-8.899518,-0.5694828
1.798,169.21184,93.031876,-33.033855,-26.615711,-11.928932,1.5891743
1.8,163.65341,91.50866,-27.793766,-27.925213,-14.195046,3.5230427
1.802,158.43672,90.40508,-22.287987,-28.66215,-15.620732,5.1375804
1.804,153.45126,89.71809,-16.652489,-28.831087,-16.201216,6.3715158
1.806,148.66829,89.35769,-10.935417,-28.47255,-15.994695,7.200303
1.808,144.19786,89.26918,-5.245022,-27.657248,-15.111068,7.6389832
1.81,140.0865,89.41746,0.2300148,-26.478968,-13.700185,7.735177
1.812,136.30257,89.79007,5.345402,-25.044035,-11.928714,7.5554056
1.814,132.8416,90.35741,9.925636,-23.45791,-9.962439,7.1792502
1.816,129.6207,91.128975,13.8483925,-21.81675,-7.953195,6.6893635
1.818,126.61493,92.060814,17.082817,-20.202543,-6.027976,6.1609783
1.82,123.792656,93.05213,19.650002,-18.682396,-4.2832117,5.663584
1.822,121.12566,94.07893,21.620052,-17.306475,-2.7815437,5.2609963
1.824,118.600174,95.14121,23.054493,-16.102753,-1.5462561,4.9995055
1.826,116.19934,96.23123,23.99065,-15.079553,-0.56806135,4.9030957
1.828,113.91214,97.3548,24.478172,-14.230282,0.18458843,4.975961
1.83,111.72626,98.480545,24.541882,-13.537815,0.75664043,5.2049894
1.832,109.64807,99.58444,24.22032,-12.979939,1.1976357,5.563985
1.834,107.680275,100.63641,23.556108,-12.533194,1.5545998,6.0201507
1.836,105.79607,101.618805,22.61854,-12.174185,1.8657789,6.538948
1.838,103.94992,102.540436,21.492569,-11.877749,2.1550531,7.089178
1.84,102.146454,103.40117,20.223976,-11.615396,2.4426193,7.646941
1.842,100.374435,104.21074,18.835728,-11.36487,2.7443914,8.192379
1.844,98.61876,104.94264,17.349485,-11.112732,3.0644927,8.709039
1.846,96.8463,105.56309,15.728565,-10.85141,3.3994086,9.185344
1.848,95.038155,106.05577,13.99989,-10.578926,3.7412276,9.61543
1.85,93.19559,106.426476,12.218223,-10.297773,4.0803385,9.997773
1.852,91.3409,106.673615,10.416935,-10.012793,4.4071345,10.330738
1.854,89.48393,106.80051,8.614235,-9.729881,4.712242,10.609397
1.856,87.62453,106.81141,6.8222613,-9.455677,4.9870896,10.826034
1.858,85.7585,106.7056,5.057197,-9.197639,5.2244587,10.973378
1.86,83.88559,106.47118,3.3217177,-8.963659,5.4177203,11.047426
1.862,82.01143,106.098236,1.6201401,-8.760826,5.5600653,11.04811
1.864,80.1389,105.5929,0.0017662048,-8.594426,5.6448317,10.978504
1.866,78.23471,104.97885,-1.4751625,-8.467598,5.66637,10.844149
1.868,76.30365,104.274185,-2.7901764,-8.381618,5.6208644,10.653271
1.87,74.35673,103.49071,-3.958808,-8.336076,5.507089,10.416714
1.872,72.39578,102.630775,-4.9976234,-8.328592,5.326714,10.1462
1.874,70.421906,101.68935,-5.9107275,-8.354622,5.0842037,9.85215
1.876,68.44006,100.668205,-6.6937017,-8.408017,4.786673,9.542885
1.878,66.46001,99.57753,-7.342944,-8.482073,4.443464,9.225212
1.88,64.488434,98.430534,-7.855893,-8.57003,4.0653586,8.905005
1.882,62.530365,97.234,-8.229249,-8.665451,3.6635504,8.58743
1.884,60.590492,95.98969,-8.461218,-8.7624235,3.2487419,8.277163
1.886,58.673737,94.69997,-8.554906,-8.855826,2.8307009,7.978475
1.888,56.783585,93.3714,-8.516377,-8.941438,2.4180887,7.6950355
1.89,54.922646,92.0161,-8.350787,-9.015931,2.0182393,7.429761
1.892,53.09442,90.64771,-8.0640955,-9.076806,1.6370635,7.184829
1.894,51.30454,89.2772,-7.662793,-9.122235,1.2792583,6.9617405
1.896,49.558556,87.91612,-7.15448,-9.15089,0.9485453,6.761472
1.898,47.86084,86.57946,-6.5489464,-9.161782,0.64790106,6.584407
1.9,46.213688,85.28219,-5.8568306,-9.154073,0.37966123,6.430213
1.902,44.619812,84.032974,-5.0905724,-9.126983,0.1458765,6.297944
1.904,43.07978,82.832436,-4.2640567,-9.07978,-0.05157435,6.185844
1.906,41.592697,81.676384,-3.3923464,-9.011911,-0.21111935,6.0917034
1.908,40.157066,80.55995,-2.4908628,-8.923034,-0.33153492,6.0130544
1.91,38.77207,79.47984,-1.5744181,-8.812866,-0.41212016,5.9472914
1.912,37.43696,78.43596,-0.6546078,-8.68156,-0.45300364,5.8919263
1.914,36.150597,77.43218,0.25912857,-8.529709,-0.45499027,5.8446665
1.916,34.91175,76.47396,1.1577258,-8.358193,-0.41928983,5.8036404
1.918,33.718136,75.56578,2.031952,-8.168061,-0.34737003,5.767502
1.92,32.566936,74.70977,2.872613,-7.9605207,-0.24106014,5.7353387
1.922,31.454592,73.90487,3.6698954,-7.7370205,-0.10251701,5.70658
1.924,30.377602,73.14855,4.414322,-7.499261,0.06593621,5.6809635
1.926,29.332268,72.437096,5.0973597,-7.249134,0.26192975,5.658601
1.928,28.315414,71.76632,5.712554,-6.988652,0.48315346,5.639921
1.93,27.32078,71.1349,6.2541523,-6.7198267,0.7273878,5.625586
1.932,26.347023,70.5374,6.7196035,-6.4445753,0.9925351,5.6163735
1.934,25.389603,69.971596,7.105367,-6.1647177,1.276581,5.6130495
1.936,24.448185,69.43431,7.406138,-5.882011,1.57756,5.616295
1.938,23.522408,68.920845,7.618003,-5.598108,1.8935806,5.626643
1.94,22.611559,68.42662,7.740478,-5.3145847,2.2228417,5.6444077
1.942,21.715637,67.946495,7.775826,-5.0329704,2.5636482,5.669585
1.944,20.834953,67.47552,7.7253942,-4.75474,2.9144084,5.7018547
1.946,19.970219,67.00849,7.588097,-4.4813213,3.2736754,5.7405877
1.948,19.123135,66.54025,7.3638096,-4.214104,3.6401105,5.7849054
1.95,18.294481,66.065895,7.053149,-3.9544363,4.012485,5.8337283
1.952,17.485794,65.58067,6.6575136,-3.703577,4.3896623,5.8858876
1.954,16.698706,65.07979,6.1787004,-3.462678,4.7706337,5.940236
1.956,15.934658,64.559235,5.619046,-3.2327304,5.15445,5.9956627
1.958,15.195559,64.01565,4.9811974,-3.0145288,5.540165,6.0510683
1.96,14.483042,63.446674,4.268575,-2.8087344,5.9267907,6.1053276
1.962,13.79795,62.851143,3.4850116,-2.6158729,6.313203,6.1572933
1.964,13.141101,62.228203,2.6346803,-2.4363675,6.698098,6.2057576
1.966,12.512775,61.578197,1.7227988,-2.2706017,7.079901,6.2494435
1.968,11.9128685,60.90243,0.7544551,-2.1188889,7.4567432,6.287083
1.97,11.341085,60.20279,-0.26470232,-1.9815454,7.826401,6.317434
1.972,10.796663,59.481655,-1.3288779,-1.8588363,8.186348,6.3393793
1.974,10.278423,58.742035,-2.4321432,-1.7509191,8.533833,6.3520803
1.976,9.784973,57.98735,-3.568531,-1.6578329,8.865995,6.3550615
1.978,9.314775,57.221127,-4.7316713,-1.5793941,9.179867,6.3483005
1.98,8.866001,56.447243,-5.915373,-1.5151899,9.472559,6.332117
1.982,8.436495,55.669754,-7.1134043,-1.4646277,9.74139,6.307062
1.984,8.024685,54.89264,-8.3196535,-1.4269754,9.983927,6.2737865
1.986,7.629101,54.11952,-9.528313,-1.4013753,10.1980095,6.232952
1.988,7.248026,53.3535,-10.733593,-1.3868794,10.381929,6.1851087
1.99,6.8802967,52.59719,-11.930303,-1.3825121,10.534359,6.1304884
1.992,6.5244427,51.852715,-13.113899,-1.3872975,10.654397,6.0689573
1.994,6.1793118,51.12107,-14.280064,-1.4003127,10.741499,6.000021
1.996,5.844204,50.40267,-15.425383,-1.4206752,10.7955065,5.922909
1.998,5.5186195,49.697014,-16.546288,-1.4475305,10.816581,5.8366365
2,5.201977,49.00282,-17.64008,-1.4800124,10.805198,5.740155
2.002,4.8941307,48.318108,-18.704563,-1.5172364,10.762087,5.6324463
2.004,4.595171,47.6406,-19.738178,-1.5582771,10.688182,5.5126114
2.006,4.3050213,46.967487,-20.739824,-1.6022061,10.584587,5.3799105
2.008,4.023472,46.2957,-21.708824,-1.6480851,10.452513,5.2338095
2.01,3.7511978,45.62156,-22.645016,-1.6950243,10.29324,5.0739822
2.012,3.4876251,44.941307,-23.548141,-1.7422222,10.108055,4.9003153
2.014,3.2322922,44.251247,-24.418234,-1.788954,9.898254,4.712934
2.016,2.9847393,43.54775,-25.255318,-1.8345983,9.665146,4.5121784
2.018,2.7442417,42.82753,-26.05951,-1.8786391,9.410023,4.2986383
2.02,2.51025,42.087425,-26.83065,-1.9206059,9.134176,4.0731335
2.022,2.2817688,41.32475,-27.568676,-1.9600832,8.838931,3.8367882
2.024,2.0583363,40.537384,-28.273172,-1.9966326,8.525659,3.5909927
2.026,1.838707,39.723858,-28.943531,-2.02979,8.195793,3.3374002
2.028,1.6221542,38.88353,-29.578701,-2.0590806,7.850846,3.0778148
2.03,1.4075089,38.016613,-30.17741,-2.0840137,7.492407,2.814134
2.032,1.1941929,37.123806,-30.738031,-2.1041706,7.1221957,2.548201
2.034,0.98153305,36.20659,-31.258896,-2.1191876,6.7419205,2.2818365
2.036,0.7690306,35.267143,-31.73816,-2.1287787,6.3532524,2.0167215
2.038,0.5564289,34.30769,-32.173775,-2.1327965,5.957825,1.7543218
2.04,0.34344864,33.330887,-32.563675,-2.1312957,5.5571485,1.4957824
2.042,0.1302948,32.339523,-32.905895,-2.1245387,5.1525297,1.2419343
2.044,-0.08278465,31.336767,-33.19825,-2.1129732,4.7450504,0.9933646
2.046,-0.29572487,30.32587,-33.4386,-2.0972,4.335547,0.7504077
2.048,-0.50808716,29.310146,-33.624935,-2.0779064,3.9246507,0.5131885
2.05,-0.71970177,28.2932,-33.7557,-2.0558295,3.5128117,0.28168237
2.052,-0.9298105,27.278461,-33.82937,-2.0317004,3.100349,0.055784106
2.054,-1.1377487,26.269638,-33.844826,-2.0061715,2.6875288,-0.16464019
2.056,-1.3416767,25.2699,-33.801117,-1.9797546,2.2746382,-0.3797009
2.058,-1.540659,24.28218,-33.69864,-1.9527853,1.862095,-0.5894524
2.06,-1.7334814,23.309292,-33.537937,-1.9253948,1.4504938,-0.79385686
2.062,-1.9189291,22.353584,-33.319847,-1.8975216,1.0406215,-0.99277616
2.064,-2.0954213,21.41733,-33.045567,-1.8689036,0.63351214,-1.1859794
2.066,-2.2621217,20.502901,-32.717133,-1.8390789,0.23045152,-1.3731607
2.068,-2.4181466,19.612,-32.336876,-1.807479,-0.1670782,-1.5540109
2.07,-2.5624495,18.746368,-31.90768,-1.7734417,-0.55745304,-1.7282181
2.072,-2.694047,17.90764,-31.432617,-1.7362525,-0.93893915,-1.8955495
2.074,-2.812542,17.097466,-30.914688,-1.6952151,-1.3097777,-2.0558357
2.076,-2.9171104,16.31725,-30.357098,-1.6496787,-1.6682574,-2.2090604
2.078,-3.0070987,15.568102,-29.763054,-1.5990812,-2.0127964,-2.3553421
2.08,-3.0823836,14.851093,-29.135956,-1.5429772,-2.3420103,-2.4949546
2.082,-3.1425705,14.167104,-28.479183,-1.4810237,-2.6547623,-2.628284
2.084,-3.1874943,13.516799,-27.796185,-1.4129632,-2.9501905,-2.7558124
2.086,-3.2168894,12.900604,-27.090633,-1.3386393,-3.2276878,-2.8780627
2.088,-3.2306595,12.31875,-26.365814,-1.2579606,-3.4869087,-2.995604
2.09,-3.228922,11.771317,-25.624708,-1.1708972,-3.7277253,-3.1089878
2.092,-3.2115102,11.25863,-24.87027,-1.0774475,-3.9501896,-3.2187269
2.094,-3.1786532,10.780628,-24.10533,-0.9776406,-4.1545005,-3.3252535
2.096,-3.130755,10.337164,-23.332352,-0.87153304,-4.34093,-3.4289293
2.098,-3.0679579,9.927967,-22.553497,-0.75921065,-4.5097775,-3.5300436
2.1,-2.9904966,9.552488,-21.770641,-0.64077806,-4.66136,-3.6287658
2.102,-2.8989396,9.209948,-20.985641,-0.51636803,-4.7959976,-3.7252321
2.104,-2.793993,8.8995695,-20.200085,-0.38617045,-4.9140606,-3.8195462
2.106,-2.6761823,8.620229,-19.415438,-0.2504173,-5.015902,-3.9117937
2.108,-2.5463948,8.370613,-18.633097,-0.109430075,-5.101886,-4.002077
2.11,-2.4052463,8.149375,-17.853872,0.0363971,-5.172416,-4.0905495
2.112,-2.2536187,7.954993,-17.078556,0.18661541,-5.227929,-4.177384
2.114,-2.0925593,7.7857356,-16.307762,0.3407886,-5.2688417,-4.2628036
2.116,-1.9229598,7.6398664,-15.5422735,0.49852467,-5.295601,-4.3471017
2.118,-1.7457099,7.5154,-14.782619,0.65943396,-5.3086863,-4.430605
2.12,-1.5618482,7.4103475,-14.029415,0.8232064,-5.308529,-4.513628
2.122,-1.3721118,7.3228054,-13.28324,0.98967737,-5.295479,-4.5964594
2.124,-1.1774263,7.250554,-12.544451,1.1588101,-5.269803,-4.6793714
2.126,-0.97883606,7.1915226,-11.813465,1.330702,-5.2317123,-4.7625704
2.128,-0.7771621,7.143619,-11.090612,1.5055773,-5.1813083,-4.8461547
2.13,-0.5734768,7.104885,-10.376418,1.683801,-5.118644,-4.9300656
2.132,-0.36831808,7.073535,-9.671173,1.8658361,-5.0437574,-5.014068
2.134,-0.16267443,7.047883,-8.975494,2.0521934,-4.956707,-5.097742
2.136,0.04269886,7.026504,-8.289902,2.2433872,-4.857626,-5.1805344
2.138,0.24730444,7.008109,-7.6151094,2.4398832,-4.746785,-5.2617784
2.14,0.45058107,6.9917355,-6.9516945,2.642043,-4.6245966,-5.340757
2.142,0.6520419,6.9764786,-6.300541,2.8501263,-4.491644,-5.4167643
2.144,0.851316,6.961618,-5.6624756,3.064238,-4.348653,-5.4891877
2.146,1.0479343,6.946725,-5.0382996,3.2843308,-4.1964593,-5.5575433
2.148,1.2416489,6.931443,-4.4289923,3.5101995,-4.03593,-5.621496
2.15,1.4322124,6.9156294,-3.8357148,3.7415223,-3.8679686,-5.680884
2.152,1.6193106,6.899452,-3.259461,3.9778752,-3.693417,-5.7357006
2.154,1.8026972,6.883009,-2.701393,4.2187495,-3.51304,-5.786047
2.156,1.9822795,6.866601,-2.1626003,4.4635725,-3.3275032,-5.832045
2.158,2.1578438,6.850751,-1.6442021,4.7117534,-3.1373663,-5.8737926
2.16,2.3292985,6.835766,-1.1471419,4.9626966,-2.9431572,-5.9113827
2.162,2.4964838,6.8224907,-0.6725086,5.2158146,-2.7454107,-5.944827
2.164,2.6595397,6.811444,-0.22125709,5.4705014,-2.5446835,-5.9740925
2.166,2.8185778,6.8033376,0.20584762,5.7261295,-2.3416264,-5.999116
2.168,2.9736986,6.798935,0.60803574,5.982029,-2.1370254,-6.0198245
2.17,3.1251688,6.7990737,0.98459494,6.237515,-1.9317418,-6.0360966
2.172,3.2733388,6.8046,1.3354666,6.4919405,-1.7267624,-6.0478206
2.174,3.4184096,6.8162684,1.6603907,6.744624,-1.5232135,-6.0548844
2.176,3.5611548,6.834919,1.9594868,6.9949064,-1.3223231,-6.0571346
2.178,3.701923,6.861746,2.2330225,7.2421665,-1.1253518,-6.054369
2.18,3.8412578,6.8976655,2.4815814,7.4857903,-0.93357956,-6.046357
2.182,3.979722,6.9435186,2.7060716,7.7251873,-0.74828315,-6.032844
2.184,4.118204,7.0004663,2.9072378,7.9597955,-0.57068634,-6.013569
2.186,4.2574377,7.069638,3.086099,8.189041,-0.40192175,-5.9882846
2.188,4.398164,7.152365,3.2438335,8.412407,-0.24303448,-5.956773
2.19,4.5415416,7.2500544,3.3819199,8.629341,-0.09498799,-5.9188395
2.192,4.688204,7.364359,3.5019212,8.839331,0.041400313,-5.874356
2.194,4.839143,7.496748,3.605394,9.041889,0.16543865,-5.8232546
2.196,4.995092,7.648773,3.6943116,9.2365465,0.2766049,-5.765542
2.198,5.1568475,7.821802,3.770206,9.422893,0.37451482,-5.701288
2.2,5.325528,8.01719,3.8346305,9.600567,0.45892715,-5.63066
2.202,5.501761,8.235857,3.8891687,9.769302,0.52972436,-5.5539293
2.204,5.686412,8.479139,3.9353964,9.928868,0.58689475,-5.471448
2.206,5.8802814,8.748206,3.974719,10.079084,0.63050675,-5.3836937
2.208,6.0840554,9.044341,4.0083685,10.219829,0.6606585,-5.291309
2.21,6.2984953,9.368659,4.037286,10.350996,0.67744654,-5.1950884
2.212,6.52455,9.721926,4.0626154,10.472475,0.68093973,-5.0959663
2.214,6.7630587,10.104734,4.0853596,10.584145,0.6711401,-4.9949718
2.216,7.0147557,10.517418,4.1065454,10.685865,0.6480132,-4.893218
2.218,7.280467,10.9600315,4.126989,10.777528,0.6114594,-4.7918224
2.22,7.5610094,11.43219,4.147326,10.858982,0.56131476,-4.691902
2.222,7.856842,11.9334135,4.168343,10.930107,0.49740866,-4.594523
2.224,8.168749,12.462735,4.1906805,10.99079,0.41954082,-4.5007105
2.226,8.49751,13.018729,4.2148814,11.040913,0.32752097,-4.411427
2.228,8.843912,13.599747,4.241577,11.0803585,0.2211397,-4.327602
2.23,9.2085285,14.203475,4.2712545,11.109011,0.10017027,-4.250089
2.232,9.591857,14.827553,4.3045607,11.126764,-0.035626113,-4.1796656
2.234,9.994656,15.469055,4.3419633,11.133516,-0.186497,-4.117096
2.236,10.417582,16.124792,4.3839884,11.129151,-0.3527211,-4.0631332
2.238,10.861112,16.791014,4.431041,11.113477,-0.5346105,-4.0185404
2.24,11.325811,17.463652,4.4838133,11.086214,-0.7325166,-3.9840822
2.242,11.811931,18.138546,4.543,11.047003,-0.94683903,-3.9604766
2.244,12.31961,18.811195,4.6093636,10.995409,-1.1779946,-3.9483874
2.246,12.849049,19.476755,4.6837187,10.930887,-1.4264879,-3.9483583
2.248,13.399907,20.130217,4.7668047,10.852833,-1.6928405,-3.9608047
2.25,13.971978,20.76657,4.85946,10.760597,-1.9776163,-3.9859865
2.252,14.564809,21.380995,4.9625497,10.653513,-2.2813716,-4.023967
2.254,15.17748,21.968582,5.0770955,10.530978,-2.604607,-4.07464
2.256,15.809296,22.524158,5.2037053,10.392426,-2.9478033,-4.137733
2.258,16.45904,23.042864,5.3430867,10.2373905,-3.3113842,-4.212818
2.26,17.125128,23.519886,5.4959383,10.065508,-3.6956573,-4.2993345
2.262,17.805756,23.95076,5.6625714,9.876547,-4.1008115,-4.3966317
2.264,18.499056,24.331594,5.843195,9.670405,-4.526896,-4.5040054
2.266,19.202904,24.65902,6.037786,9.447129,-4.973772,-4.6207514
2.268,19.915539,24.929695,6.2461486,9.206874,-5.4410586,-4.7461925
2.27,20.634617,25.140995,6.467992,8.949976,-5.9281793,-4.879689
2.272,21.357885,25.290417,6.7027493,8.676872,-6.4342737,-5.020687
2.274,22.08277,25.37619,6.949577,8.388187,-6.9582033,-5.1687746
2.276,22.806776,25.397076,7.207476,8.084643,-7.4985275,-5.3236594
2.278,23.52725,25.35242,7.475445,7.7670765,-8.053524,-5.4851236
2.28,24.241457,25.241955,7.751916,7.4363875,-8.621173,-5.653061
2.282,24.946545,25.066101,8.035269,7.0935073,-9.199189,-5.8273826
2.284,25.639753,24.825764,8.323626,6.7392516,-9.785068,-6.008065
2.286,26.318342,24.522192,8.614959,6.374325,-10.376028,-6.19506
2.288,26.97917,24.157288,8.90724,5.9992723,-10.9691105,-6.3882427
2.29,27.619362,23.733072,9.198005,5.614445,-11.561155,-6.5873127
2.292,28.23564,23.252476,9.484896,5.2201037,-12.148812,-6.791795
2.294,28.824862,22.718552,9.76576,4.8164473,-12.728578,-7.000992
2.296,29.38372,22.134777,10.03832,4.4036865,-13.296853,-7.214056
2.298,29.908857,21.505116,10.300321,3.982071,-13.849922,-7.430006
2.3,30.396925,20.833937,10.549612,3.5520158,-14.384018,-7.6476765
2.302,30.844784,20.125782,10.784137,3.114141,-14.895368,-7.865703
2.304,31.249088,19.38533,11.001953,2.6693282,-15.380287,-8.082579
2.306,31.6067,18.617641,11.201419,2.21874,-15.835288,-8.296692
2.308,31.914501,17.828001,11.380697,1.7637854,-16.257145,-8.506331
2.31,32.16937,17.021841,11.538394,1.3061228,-16.642963,-8.709771
2.312,32.368732,16.204655,11.673088,0.8476286,-16.990246,-8.905248
2.314,32.510246,15.3817005,11.783646,0.39028597,-17.297009,-9.091056
2.316,32.59185,14.558359,11.868933,-0.0638175,-17.561771,-9.26547
2.318,32.6118,13.739849,11.928036,-0.512517,-17.783585,-9.42687
2.32,32.56877,12.931424,11.960189,-0.9536667,-17.961998,-9.573669
2.322,32.46187,12.138273,11.964782,-1.385138,-18.097065,-9.704359
2.324,32.29075,11.365149,11.9411545,-1.8048553,-18.189161,-9.817543
2.326,32.055565,10.61668,11.889002,-2.2108512,-18.238941,-9.911927
2.328,31.757172,9.897081,11.808069,-2.6012368,-18.247295,-9.986272
2.33,31.39695,9.21022,11.698087,-2.9742546,-18.215263,-10.039513
2.332,30.977184,8.559418,11.559014,-3.3282995,-18.143988,-10.070827
2.334,30.500477,7.947504,11.390974,-3.6619363,-18.03469,-10.07956
2.336,29.96984,7.377043,11.194286,-3.9738965,-17.888687,-10.065351
2.338,29.388754,6.8500166,10.969264,-4.263089,-17.707458,-10.028064
2.34,28.761454,6.3679957,10.716583,-4.528633,-17.492767,-9.967861
2.342,28.09242,5.931907,10.436984,-4.769859,-17.246552,-9.885163
2.344,27.386116,5.5423355,10.131353,-4.9863205,-16.971031,-9.780645
2.346,26.64777,5.1992455,9.800879,-5.1778584,-16.668743,-9.655232
2.348,25.882622,4.902272,9.447129,-5.3445816,-16.342438,-9.509982
2.35,25.096231,4.6504197,9.071685,-5.4868603,-15.995039,-9.34603
2.352,24.294056,4.4421225,8.676355,-5.6053,-15.629596,-9.164518
2.354,23.48169,4.275482,8.263437,-5.7007594,-15.249165,-8.966679
2.356,22.664492,4.1483717,7.835251,-5.7743063,-14.856655,-8.753723
2.358,21.847446,4.0583324,7.3944416,-5.827184,-14.454752,-8.526843
2.36,21.03565,4.0024695,6.943711,-5.860759,-14.045788,-8.287163
2.362,20.233702,3.9777155,6.4858503,-5.8764915,-13.631733,-8.035811
2.364,19.446064,3.9808404,6.023721,-5.8758497,-13.214124,-7.7738724
2.366,18.676523,4.0088077,5.5604234,-5.8602753,-12.794136,-7.5024652
2.368,17.92878,4.0584536,5.0989285,-5.831105,-12.37257,-7.222749
2.37,17.206047,4.1265383,4.64207,-5.789581,-11.949952,-6.935958
2.372,16.511084,4.2099833,4.1927423,-5.7368097,-11.526569,-6.643362
2.374,15.846232,4.305376,3.7536144,-5.673731,-11.102531,-6.3462863
2.376,15.213266,4.409596,3.3271317,-5.601182,-10.677848,-6.0460596
2.378,14.613334,4.520048,2.9153156,-5.519869,-10.252508,-5.7439528
2.38,14.047602,4.634159,2.5199442,-5.4304123,-9.826485,-5.4412003
2.382,13.516806,4.7498636,2.1424437,-5.333408,-9.399729,-5.138959
2.384,13.021381,4.8653555,1.7842164,-5.2293854,-8.972202,-4.838265
2.386,12.561396,4.978833,1.4460907,-5.1188574,-8.54385,-4.540018
2.388,12.136831,5.088867,1.1285012,-5.002326,-8.114635,-4.245049
2.39,11.747534,5.194275,0.8320549,-4.880284,-7.6844983,-3.9540548
2.392,11.393034,5.294078,0.55668056,-4.753197,-7.25332,-3.6676507
2.394,11.072778,5.387631,0.30250806,-4.621505,-6.820969,-3.3863592
2.396,10.785877,5.4745255,0.06917274,-4.4856033,-6.387336,-3.1106086
2.398,10.531906,5.5542917,-0.14364433,-4.3458605,-5.9523134,-2.8407917
2.4,10.30967,5.6269503,-0.33637875,-4.2026024,-5.5158,-2.5772557
2.402,10.118579,5.6923504,-0.5097195,-4.0561023,-5.077709,-2.3202636
2.404,9.957608,5.750558,-0.6646083,-3.9066195,-4.6379995,-2.0700376
2.406,9.825807,5.8018284,-0.8020474,-3.754363,-4.1966376,-1.8267412
2.408,9.722294,5.8462806,-0.9230354,-3.5995216,-3.7536538,-1.5904958
2.41,9.646047,5.88387,-1.0286531,-3.4422798,-3.3091478,-1.3613791
2.412,9.595915,5.914873,-1.1201046,-3.2828155,-2.8632991,-1.1394696
2.414,9.571102,5.9396596,-1.1985286,-3.1212978,-2.4163582,-0.9248864
2.416,9.570485,5.9584556,-1.2653327,-2.9579,-1.9686669,-0.7177729
2.418,9.593138,5.97144,-1.321675,-2.7928426,-1.5206969,-0.5183295
2.42,9.638176,5.978821,-1.3689854,-2.6263943,-1.0730376,-0.32681015
2.422,9.704506,5.9806175,-1.4085985,-2.4588604,-0.626379,-0.14351332
2.424,9.791072,5.977127,-1.4416823,-2.290603,-0.18149605,0.031247122
2.426,9.896947,5.9684124,-1.4695065,-2.1220388,0.26072583,0.197162
2.428,10.021069,5.954542,-1.493238,-1.953615,0.6993407,0.35394388
2.43,10.162184,5.935623,-1.5138435,-1.7857963,1.1333885,0.50135547
2.432,10.319332,5.9116797,-1.5324087,-1.6190634,1.5618865,0.6392407
2.434,10.491116,5.8828425,-1.5498985,-1.4539034,1.9838449,0.767539
2.436,10.67625,5.849147,-1.5671566,-1.2907805,2.3983011,0.88629663
2.438,10.8733425,5.8106613,-1.58488,-1.130173,2.8043027,0.99565923
2.44,11.081007,5.7674456,-1.6036209,-0.9725373,3.2009425,1.0958557
2.442,11.297741,5.7196517,-1.6239554,-0.81829053,3.5873399,1.1871929
2.444,11.5219,5.6674747,-1.646306,-0.6678569,3.9626625,1.2700202
2.446,11.751981,5.6111307,-1.6708258,-0.5216207,4.3261213,1.3447239
2.448,11.986394,5.550832,-1.697754,-0.3799181,4.6770267,1.4117043
2.45,12.223408,5.486887,-1.7271485,-0.24303931,5.014777,1.4713584
2.452,12.461627,5.4194155,-1.7591801,-0.111207545,5.3388467,1.5240736
2.454,12.69946,5.348846,-1.7936442,0.015425205,5.648819,1.5702503
2.456,12.935131,5.275465,-1.8304585,0.13675988,5.944346,1.6102595
2.458,13.166999,5.1996474,-1.8694851,0.25276053,6.22517,1.6444702
2.46,13.3934965,5.121928,-1.9106241,0.36343712,6.491075,1.6732315
2.462,13.61327,5.042541,-1.9536352,0.46887624,6.7419214,1.6968865
2.464,13.824819,4.961941,-1.9984028,0.5692047,6.9776278,1.7157676
2.466,14.026894,4.8804016,-2.0446417,0.66455483,7.1981735,1.7301985
2.468,14.218384,4.7982235,-2.092163,0.75509083,7.4035606,1.7405138
2.47,14.398112,4.7157326,-2.14066,0.840996,7.5938325,1.7470298
2.472,14.56512,4.6331306,-2.1898744,0.92245483,7.769084,1.7500234
2.474,14.718758,4.5506067,-2.239604,0.9996536,7.929467,1.7497566
2.476,14.85818,4.4683256,-2.2895784,1.0727599,8.07517,1.7465013
2.478,14.982837,4.386401,-2.3395402,1.1419148,8.206417,1.7404835
2.48,15.09242,4.30507,-2.3892837,1.2072377,8.3234825,1.7318972
2.482,15.186619,4.224297,-2.4385736,1.2688146,8.42668,1.7209389
2.484,15.265311,4.1443453,-2.487367,1.3267169,8.516357,1.7078025
2.486,15.328477,4.065256,-2.535435,1.3809872,8.592901,1.6927062
2.488,15.376081,3.9870882,-2.582661,1.4316561,8.656697,1.6758604
2.49,15.408432,3.9101756,-2.6290085,1.478735,8.70815,1.6574926
2.492,15.425752,3.834502,-2.6743147,1.5222607,8.747667,1.637867
2.494,15.428689,3.7600908,-2.7186964,1.5622535,8.775628,1.6172482
2.496,15.417763,3.6871324,-2.7621295,1.5987179,8.792405,1.5959319
2.498,15.393654,3.6156552,-2.8046267,1.6316876,8.798322,1.5741917
2.5,15.356911,3.545671,-2.8463342,1.6611873,8.793664,1.5522885
2.502,15.308456,3.4772499,-2.8872468,1.6872448,8.778664,1.5304445
2.504,15.248948,3.4105582,-2.9275658,1.7098827,8.753508,1.5088542
2.506,15.179239,3.3455017,-2.9672055,1.7291019,8.718332,1.4876462
2.508,15.1002445,3.2822678,-3.0063353,1.7449021,8.673258,1.4668852
2.51,15.013015,3.2208302,-3.0449224,1.7572613,8.618375,1.4465901
2.512,14.91823,3.1612709,-3.0830622,1.7661577,8.553764,1.4267404
2.514,14.816781,3.1035914,-3.1207385,1.7715585,8.479549,1.4073074
2.516,14.709671,3.0479655,-3.1579022,1.7734182,8.39587,1.3882542
2.518,14.597844,2.9942527,-3.1945434,1.7717012,8.302906,1.3695556
2.52,14.482164,2.942708,-3.2305946,1.7664143,8.200905,1.3512247
2.522,14.363438,2.8932185,-3.2659593,1.7575772,8.090151,1.3332943
2.524,14.242375,2.8458457,-3.3005323,1.7452406,7.9709992,1.3158154
2.526,14.119794,2.8006094,-3.3342578,1.7294964,7.8438387,1.2988515
2.528,13.996574,2.7575526,-3.3669417,1.7104512,7.7090955,1.2824947
2.53,13.873317,2.716602,-3.3984926,1.6882608,7.5672083,1.2668172
2.532,13.7507515,2.6778035,-3.4287124,1.6631105,7.418634,1.251902
2.534,13.629398,2.6410773,-3.4575975,1.6352128,7.2638054,1.237807
2.536,13.509635,2.6064198,-3.4849296,1.6047921,7.1031475,1.2245468
2.538,13.392261,2.573802,-3.5105808,1.5720885,6.9370375,1.2121066
2.54,13.277637,2.5431278,-3.5345452,1.5373359,6.7658224,1.2004287
2.542,13.16603,2.5144498,-3.5566802,1.5007498,6.589837,1.1894428
2.544,13.057974,2.487645,-3.5768337,1.4625165,6.4093676,1.179047
2.546,12.953727,2.4626307,-3.594906,1.422792,6.2246776,1.1691366
2.548,12.853396,2.4393902,-3.6108644,1.3817056,6.03603,1.1595974
2.55,12.757153,2.4179008,-3.624514,1.3393455,5.8436894,1.1503435
2.552,12.665258,2.3980718,-3.6357439,1.2957722,5.647917,1.1412998
2.554,12.577668,2.3799164,-3.6444259,1.2510395,5.448996,1.1324352
2.556,12.494494,2.3633308,-3.650441,1.2051855,5.2472205,1.1237332
2.558,12.415799,2.3482153,-3.6536999,1.1582711,5.042916,1.1151986
2.56,12.341504,2.3345838,-3.6540656,1.1103897,4.8364124,1.106839
2.562,12.271474,2.3224769,-3.6513662,1.0616372,4.6280713,1.098679
2.564,12.205813,2.3119211,-3.6455507,1.0121433,4.4182396,1.0907323
2.566,12.144266,2.3029451,-3.6365073,0.9620571,4.2072773,1.0829889
2.568,12.086949,2.295538,-3.6241975,0.9115381,3.9955344,1.075418
2.57,12.033571,2.28972,-3.60848,0.86075675,3.7833436,1.0679827
2.572,11.983957,2.2855906,-3.5893533,0.8098918,3.571026,1.060603
2.574,11.938202,2.2832336,-3.566804,0.7590996,3.3588867,1.0532048
2.576,11.89604,2.2826347,-3.540883,0.70853543,3.1472082,1.0456979
2.578,11.85744,2.2838304,-3.5115876,0.6583551,2.9362328,1.0380015
2.58,11.822269,2.2868178,-3.4790723,0.6087192,2.7261982,1.0300548
2.582,11.790335,2.2915387,-3.4433255,0.55978733,2.5173135,1.0217693
2.584,11.761468,2.298084,-3.4045086,0.51169205,2.3097875,1.0130863
2.586,11.73571,2.3062885,-3.3628142,0.46457887,2.1038187,1.0039471
2.588,11.712841,2.3161383,-3.3183508,0.41858554,1.8996207,0.994321
2.59,11.692746,2.3274143,-3.2712522,0.3738467,1.697399,0.98419964
2.592,11.675463,2.3401353,-3.2217207,0.33049008,1.4973845,0.9735801
2.594,11.66059,2.3540862,-3.169928,0.288641,1.299814,0.962472
2.596,11.648238,2.3692503,-3.116116,0.24844034,1.1049455,0.9508935
2.598,11.63826,2.3854675,-3.0604315,0.21002689,0.9130459,0.9388871
2.6,11.63061,2.4025784,-3.0030909,0.17353213,0.72438973,0.92648154
2.602,11.625091,2.4203148,-2.9443204,0.13908881,0.5392635,0.91370773
2.604,11.621509,2.4387164,-2.8843744,0.10682815,0.3579435,0.90061176
2.606,11.619796,2.4576325,-2.8234098,0.07687098,0.18069023,0.88722587
2.608,11.619811,2.4770331,-2.7616668,0.04931929,0.0077520013,0.87357825
2.61,11.621549,2.4968681,-2.699315,0.024267137,-0.16066127,0.8596854
2.612,11.624781,2.517031,-2.63666,0.0017876923,-0.3243786,0.845572
2.614,11.629428,2.5374546,-2.5738392,-0.018054374,-0.48328066,0.83123565
2.616,11.635549,2.5581937,-2.5110712,-0.03521789,-0.6373061,0.8166599
2.618,11.64285,2.5791793,-2.4485216,-0.049685463,-0.78641737,0.80182
2.62,11.651244,2.6004653,-2.3864305,-0.061462462,-0.9306379,0.7866852
2.622,11.660917,2.6219811,-2.3247952,-0.07057628,-1.0700179,0.7712134
2.624,11.671679,2.6438043,-2.2639437,-0.07708518,-1.2046323,0.75536454
2.626,11.683339,2.665842,-2.2040186,-0.0810467,-1.3345684,0.7391149
2.628,11.695925,2.6883116,-2.1450129,-0.08253129,-1.4599122,0.7224375
2.63,11.709234,2.7111473,-2.0871694,-0.08161405,-1.5807433,0.7053267
2.632,11.723322,2.7344608,-2.030441,-0.07837036,-1.6971165,0.6877954
2.634,11.738056,2.7583094,-1.9750054,-0.072862,-1.8090804,0.6698493
2.636,11.753348,2.7826073,-1.9208914,-0.06513673,-1.916671,0.6515336
2.638,11.7690525,2.8074126,-1.8682212,-0.05522856,-2.0199082,0.6328801
2.64,11.785161,2.8327754,-1.8170726,-0.043179363,-2.118795,0.61394346
2.642,11.801535,2.858766,-1.7674639,-0.029025048,-2.2133389,0.5947542
2.644,11.818048,2.8853204,-1.7194582,-0.012794495,-2.303529,0.57534575
2.646,11.834728,2.912476,-1.673183,0.0054760873,-2.3893785,0.5557449
2.648,11.8512945,2.9401524,-1.6286197,0.0257442,-2.4708908,0.53597224
2.65,11.867585,2.9682953,-1.5859563,0.04796219,-2.5480802,0.5160456
2.652,11.883694,2.9969208,-1.54517,0.07205835,-2.62097,0.49596024
2.654,11.899357,3.0260074,-1.5064335,0.09797835,-2.6895928,0.47571445
2.656,11.914487,3.0555317,-1.4698161,0.12565553,-2.7539983,0.45531264
2.658,11.929045,3.085433,-1.4353482,0.15503445,-2.8142483,0.43474197
2.66,11.942924,3.1157067,-1.4031445,0.1860429,-2.8704119,0.41401348
2.662,11.956029,3.146254,-1.3733145,0.218615,-2.922594,0.39313653
2.664,11.968312,3.1770663,-1.3459247,0.25269324,-2.970916,0.37213063
2.666,11.979625,3.2081065,-1.3211349,0.28820318,-3.0155103,0.35099944
2.668,11.989962,3.239413,-1.298863,0.3250528,-3.0565317,0.32978666
2.67,11.999269,3.270969,-1.2792752,0.3631667,-3.0941503,0.30851975
2.672,12.007585,3.3027115,-1.2623234,0.40245312,-3.12856,0.2872374
2.674,12.014624,3.3347,-1.2480669,0.44281274,-3.159962,0.26597434
2.676,12.020578,3.366869,-1.2364163,0.4841522,-3.1885836,0.24477005
2.678,12.025378,3.3991828,-1.2273833,0.5263821,-3.2146423,0.2236569
2.68,12.029057,3.4316869,-1.2210957,0.56940293,-3.2383664,0.20266992
2.682,12.031584,3.464385,-1.217433,0.6131294,-3.2599921,0.18184018
2.684,12.032855,3.4972765,-1.21632,0.6574811,-3.2797241,0.16118985
2.686,12.033075,3.5303671,-1.2176867,0.70240086,-3.2977653,0.14074141
2.688,12.032166,3.5635977,-1.2215102,0.7478237,-3.314304,0.12053025
2.69,12.0302105,3.5970378,-1.2276851,0.7936947,-3.3294945,0.10056645
2.692,12.027245,3.6306,-1.2362416,0.8399734,-3.3434818,0.08087057
2.694,12.023315,3.6642473,-1.2470104,0.886606,-3.3564048,0.06146854
2.696,12.018604,3.6978803,-1.259936,0.93353283,-3.36837,0.042386293
2.698,12.013068,3.731574,-1.2750242,0.9807,-3.3794842,0.023650229
2.7,12.006861,3.7652907,-1.2921408,1.0280415,-3.3898473,0.005291462
2.702,12.000051,3.7989936,-1.3112395,1.0754969,-3.3995643,-0.012656212
2.704,11.992851,3.8327465,-1.3321885,1.1229856,-3.408761,-0.030166805
2.706,11.985221,3.8664198,-1.3550348,1.1704569,-3.4175496,-0.047190487
2.708,11.977414,3.9001608,-1.3796273,1.2178391,-3.426075,-0.06368464
2.71,11.96946,3.934001,-1.4058963,1.2650728,-3.4344976,-0.07961643
2.712,11.961619,3.9680552,-1.4337401,1.3120849,-3.4429748,-0.094949484
2.714,11.953892,4.002332,-1.4630361,1.358829,-3.451682,-0.10965413
2.716,11.9465,4.037021,-1.4937497,1.4052546,-3.4608068,-0.123708606
2.718,11.939556,4.0722,-1.5257177,1.4512949,-3.4705215,-0.13709438
2.72,11.933212,4.1080365,-1.5589292,1.4969015,-3.4810154,-0.14979708
2.722,11.927613,4.1446342,-1.5930634,1.5420291,-3.4924636,-0.16182315
2.724,11.922896,4.1822386,-1.6281154,1.586617,-3.505045,-0.17318869
2.726,11.919025,4.220914,-1.6640384,1.6306027,-3.518911,-0.18389845
2.728,11.916248,4.2608967,-1.7005672,1.6739339,-3.5342066,-0.19397771
2.73,11.91459,4.302416,-1.7374876,1.7165517,-3.5510433,-0.20344901
2.732,11.914061,4.3456507,-1.7748029,1.7584134,-3.5695126,-0.21233249
2.734,11.914849,4.3908095,-1.8121152,1.7994576,-3.589686,-0.2206415
2.736,11.917046,4.4380054,-1.8493595,1.8396584,-3.6115882,-0.2283827
2.738,11.920519,4.487439,-1.8864167,1.8789899,-3.6352367,-0.23555887
2.74,11.925426,4.5393167,-1.9231033,1.9174393,-3.6606085,-0.24216795
2.742,11.931898,4.593738,-1.9593813,1.9550164,-3.6876671,-0.24821126
2.744,11.939731,4.650867,-1.9949958,1.9917513,-3.7163584,-0.2536806
2.746,11.949128,4.7108564,-2.0298195,2.0276828,-3.7466044,-0.2585714
2.748,11.959909,4.7738404,-2.0637596,2.0628722,-3.778327,-0.2629006
2.75,11.972078,4.8399296,-2.0966704,2.0973785,-3.8114402,-0.2666788
2.752,11.9857235,4.909045,-2.1285398,2.131259,-3.8458555,-0.26992393
2.754,12.000792,4.9815,-2.159189,2.164585,-3.8814669,-0.27266586
2.756,12.0170965,5.0571556,-2.188561,2.1974213,-3.9181883,-0.27493417
2.758,12.0346985,5.136119,-2.2166102,2.229833,-3.9559107,-0.2767521
2.76,12.053534,5.218457,-2.2431586,2.2618704,-3.9945524,-0.2781638
2.762,12.073501,5.304126,-2.2682242,2.2935958,-4.034006,-0.27918506
2.764,12.094479,5.3931923,-2.2916732,2.3250527,-4.0741806,-0.2798338
2.766,12.116595,5.485605,-2.3135674,2.3563037,-4.1149745,-0.2801206
2.768,12.139585,5.581356,-2.3337028,2.387392,-4.156308,-0.28005004
2.77,12.163361,5.6804667,-2.352085,2.4183795,-4.198081,-0.2796116
2.772,12.187836,5.782942,-2.3687193,2.4493291,-4.240205,-0.27877975
2.774,12.213065,5.8887463,-2.3834112,2.4803045,-4.2825866,-0.27753496
2.776,12.238949,5.997864,-2.3961976,2.5113616,-4.325133,-0.2758453
2.778,12.265265,6.1102657,-2.4070158,2.5425684,-4.3677535,-0.27367532
2.78,12.29209,6.225835,-2.4157858,2.5739808,-4.410359,-0.2709911
2.782,12.31919,6.3446827,-2.4224246,2.60565,-4.4528494,-0.2677629
2.784,12.3467245,6.4666862,-2.426925,2.6376202,-4.495145,-0.26396096
2.786,12.374452,6.5919595,-2.4291816,2.6699314,-4.5371766,-0.25957096
2.788,12.402313,6.720546,-2.429091,2.702638,-4.578848,-0.25458395
2.79,12.43025,6.852207,-2.4265296,2.7357788,-4.620102,-0.24899721
2.792,12.458271,6.987175,-2.4214647,2.7693913,-4.6608734,-0.24281168
2.794,12.486349,7.125306,-2.4138563,2.8035228,-4.7010956,-0.23603368
2.796,12.514304,7.2667236,-2.403503,2.8382366,-4.740692,-0.228652
2.798,12.54218,7.4114246,-2.390373,2.8735964,-4.7796,-0.22065997
2.8,12.569958,7.5593634,-2.3743513,2.9096773,-4.8177676,-0.212049
2.802,12.597556,7.710818,-2.3553748,2.9465532,-4.8551164,-0.2027986
2.804,12.624867,7.8656454,-2.333334,2.984317,-4.891586,-0.19289446
2.806,12.651913,8.023893,-2.308052,3.0230467,-4.927107,-0.18230581
2.808,12.678791,8.185475,-2.2795157,3.062816,-4.96162,-0.1710031
2.81,12.705381,8.350391,-2.2476468,3.103706,-4.99505,-0.15895844
2.812,12.731627,8.51868,-2.2123008,3.1457837,-5.0273256,-0.1461339
2.814,12.75753,8.6903515,-2.1733487,3.1891057,-5.0583653,-0.13249469
2.816,12.78298,8.865442,-2.1305895,3.233705,-5.088089,-0.118014336
2.818,12.807922,9.043951,-2.083916,3.2796166,-5.1164055,-0.10265064
2.82,12.832225,9.225896,-2.0332322,3.3268628,-5.1432505,-0.08637977
2.822,12.855958,9.411228,-1.9783473,3.3754318,-5.168541,-0.06918144
2.824,12.878943,9.599991,-1.9191017,3.4253268,-5.1922274,-0.051048517
2.826,12.900953,9.792059,-1.8552725,3.4765275,-5.21426,-0.03196335
2.828,12.922056,9.987383,-1.7866395,3.5290017,-5.234618,-0.011921883
2.83,12.941881,10.185812,-1.7129014,3.5827055,-5.2533183,0.009066343
2.832,12.960387,10.387411,-1.6340237,3.6375675,-5.2704344,0.030973911
2.834,12.97724,10.59185,-1.549588,3.6935253,-5.286047,0.053744555
2.836,12.992253,10.79916,-1.459234,3.7505121,-5.3002634,0.077326536
2.838,13.004962,11.009081,-1.3626711,3.8084335,-5.3131943,0.101630926
2.84,13.015054,11.221542,-1.2594719,3.867197,-5.324961,0.12658429
2.842,13.022069,11.436251,-1.1492038,3.926708,-5.3357162,0.15207267
2.844,13.025541,11.652908,-1.0313754,3.9868653,-5.345559,0.17796779
2.846,13.024862,11.871456,-0.90542746,4.047609,-5.354558,0.20414758
2.848,13.019512,12.09152,-0.7707648,4.1088715,-5.3627024,0.23050332
2.85,13.008745,12.312805,-0.6267543,4.170639,-5.3698893,0.25694537
2.852,12.9918785,12.535017,-0.47274637,4.232943,-5.375852,0.2834394
2.854,12.968291,12.757765,-0.30825663,4.2958803,-5.380183,0.31002212
2.856,12.93718,12.980722,-0.13252687,4.3595886,-5.38233,0.33681536
2.858,12.897632,13.203449,0.05513382,4.4242673,-5.381575,0.36401176
2.86,12.848907,13.425423,0.25523663,4.490138,-5.377127,0.39185
2.862,12.790167,13.646189,0.468225,4.5574446,-5.3681254,0.4206276
2.864,12.720421,13.865097,0.6949129,4.626412,-5.353713,0.4506638
2.866,12.638902,14.081763,0.9359946,4.6972375,-5.333069,0.48225856
2.868,12.5448065,14.295594,1.191957,4.770068,-5.3054843,0.5156832
2.87,12.437707,14.505868,1.463304,4.845005,-5.27038,0.5511558
2.872,12.316734,14.711933,1.7504687,4.9220734,-5.2272835,0.5888221
2.874,12.181549,14.912934,2.0539432,5.001238,-5.1758666,0.62878084
2.876,12.031836,15.107935,2.373675,5.0824347,-5.1159277,0.67107844
2.878,11.867243,15.29623,2.7100945,5.1655607,-5.0473185,0.71572113
2.88,11.688279,15.476402,3.0635934,5.2505207,-4.9699516,0.76268744
2.882,11.495335,15.647205,3.433604,5.3372164,-4.883757,0.8119614
2.884,11.288369,15.807408,3.8199868,5.42556,-4.788639,0.86352634
2.886,11.067974,15.955694,4.222471,5.5154796,-4.684456,0.9173622
2.888,10.835023,16.090555,4.6402445,5.606898,-4.5710096,0.9734278
2.89,10.590431,16.210615,5.0727825,5.6997643,-4.448002,1.0316741
2.892,10.335484,16.314375,5.519393,5.7940774,-4.3150563,1.0920966
2.894,10.071434,16.400387,5.9791455,5.889854,-4.171664,1.1546495
2.896,9.799957,16.467089,6.4509044,5.9871383,-4.0171504,1.2193007
2.898,9.522551,16.513006,6.933415,6.08597,-3.8507571,1.2860146
2.9,9.24098,16.536863,7.4252625,6.186369,-3.6716504,1.3547351
2.902,8.957016,16.537191,7.924897,6.2883396,-3.4789784,1.4254107
2.904,8.672561,16.51278,8.430613,6.391835,-3.271861,1.4980171
2.906,8.389668,16.462433,8.940514,6.496749,-3.04946,1.5725524
2.908,8.110092,16.385181,9.452627,6.603001,-2.8111124,1.6490417
2.91,7.83566,16.280193,9.964828,6.7105055,-2.5561876,1.7275643
2.912,7.568218,16.146683,10.474835,6.819071,-2.284241,1.8081715
2.914,7.309433,15.984188,10.980299,6.928475,-1.9950635,1.8910003
2.916,7.0607667,15.792524,11.478698,7.0384855,-1.6886168,1.976166
2.918,6.8232727,15.571792,11.967697,7.148782,-1.3651901,2.0637665
2.92,6.598012,15.322304,12.444742,7.258943,-1.0254571,2.1538522
2.922,6.3856163,15.044699,12.907319,7.3683925,-0.6704216,2.2463942
2.924,6.186621,14.739908,13.352954,7.4763603,-0.30145776,2.3412821
2.926,6.0011783,14.4092455,13.77906,7.581831,0.07970488,2.4383292
2.928,5.829031,14.054172,14.183022,7.683587,0.4710498,2.537272
2.93,5.6699867,13.67663,14.5624695,7.780211,0.8703401,2.6378293
2.932,5.523118,13.278995,14.914955,7.870146,1.2752228,2.739719
2.934,5.387603,12.863726,15.238147,7.9517803,1.6833161,2.842695
2.936,5.2621865,12.433754,15.529682,8.023562,2.0923095,2.9465714
2.938,5.145321,11.992212,15.787449,8.084056,2.499978,3.0512257
2.94,5.035667,11.542301,16.009384,8.132029,2.9042675,3.15661
2.942,4.9314938,11.087349,16.193848,8.166508,3.303275,3.2626848
2.944,4.831231,10.630898,16.339077,8.186795,3.6952543,3.3693948
2.946,4.7331114,10.176382,16.4436,8.192467,4.078597,3.476595
2.948,4.6355057,9.7271385,16.506287,8.1833515,4.4518013,3.5840957
2.95,4.5369387,9.28623,16.526133,8.159502,4.813415,3.6915765
2.952,4.4358883,8.856968,16.50245,8.121153,5.162112,3.7985759
2.954,4.3311543,8.442148,16.434875,8.0686655,5.4966397,3.90448
2.956,4.221583,8.044103,16.323214,8.002482,5.815817,4.0085926
2.958,4.106373,7.6652217,16.167624,7.9230995,6.1185145,4.1101007
2.96,3.9849362,7.307213,15.968635,7.8310413,6.403644,4.2081738
2.962,3.8565648,6.9718113,15.726991,7.726781,6.670275,4.3019876
2.964,3.7209191,6.6600275,15.443907,7.6108203,6.917456,4.390727
2.966,3.5779274,6.372754,15.120668,7.483695,7.1443577,4.473694
2.968,3.4277043,6.1105795,14.759123,7.345922,7.3503137,4.550211
2.97,3.2702022,5.873553,14.361454,7.1979537,7.534691,4.6197133
2.972,3.1056435,5.661534,13.92998,7.0402265,7.69709,4.681755
2.974,2.9345279,5.474012,13.467037,6.8731833,7.837278,4.735977
2.976,2.7569768,5.3103848,12.97521,6.6972456,7.9551597,4.782128
2.978,2.573166,5.169795,12.45738,6.512842,8.050777,4.820065
2.98,2.3833723,5.0513144,11.916394,6.3204246,8.124295,4.8497243
2.982,2.18802,4.9538794,11.355326,6.1204247,8.175991,4.8711042
2.984,1.9871616,4.8764515,10.777168,5.913302,8.206228,4.884263
2.986,1.7809072,4.8179045,10.185392,5.6994915,8.215432,4.889274
2.988,1.5696689,4.776894,9.582592,5.47945,8.204094,4.886222
2.99,1.3530672,4.752512,8.971797,5.2536173,8.1727295,4.8751802
2.992,1.1310915,4.74348,8.356588,5.022434,8.121927,4.8561916
2.994,0.9042762,4.7485147,7.7397532,4.786346,8.052275,4.8292656
2.996,0.6726583,4.766166,7.1241484,4.545798,7.9643607,4.7943954
2.998,0.4363171,4.795187,6.5127873,4.3012366,7.858769,4.751565
3,0.19521022,4.834203,5.9081717,4.0531316,7.736092,4.7007856
3.002,-0.05052054,4.881754,5.3127513,3.8019888,7.596865,4.6421394
3.004,-0.30065563,4.9364405,4.7291555,3.5483763,7.4415374,4.575768
3.006,-0.5553077,4.9970765,4.159724,3.2929215,7.270509,4.501955
3.008,-0.8138921,5.062206,3.6067128,3.036318,7.0841227,4.4210734
3.01,-1.0760858,5.1303988,3.072168,2.7793436,6.8826804,4.333575
3.012,-1.341487,5.2004313,2.5581303,2.522832,6.666473,4.240024
3.014,-1.609699,5.271102,2.066454,2.267642,6.4358187,4.1410494
3.016,-1.880117,5.3411574,1.5989566,2.0146666,6.191129,4.0373564
3.018,-2.1521761,5.40948,1.1574028,1.7647744,5.932913,3.9296775
3.02,-2.425245,5.474916,0.74324983,1.5188075,5.6618705,3.818768
3.022,-2.6984665,5.536423,0.35783285,1.2775629,5.3788915,3.705377
3.024,-2.9712114,5.5931973,0.0023083687,1.0417695,5.085071,3.5902255
3.026,-3.2426903,5.644363,-0.32238525,0.81210697,4.781657,3.473986
3.028,-3.5117884,5.6890616,-0.6155031,0.58917564,4.4700394,3.3572993
3.03,-3.7775757,5.7265587,-0.87657183,0.37352574,4.1517015,3.2407458
3.032,-4.039228,5.756377,-1.1053331,0.16564268,3.8281512,3.1248133
3.034,-4.29579,5.7779894,-1.3015628,-0.034044445,3.500881,3.0099294
3.036,-4.5464597,5.7911596,-1.465332,-0.22517389,3.1713085,2.8964489
3.038,-4.790455,5.795721,-1.596814,-0.4074536,2.8407562,2.784632
3.04,-5.0270433,5.791592,-1.6965065,-0.58067954,2.510446,2.674703
3.042,-5.2555094,5.7786427,-1.7650788,-0.7447245,2.18152,2.566827
3.044,-5.4751425,5.7570796,-1.8033817,-0.89953876,1.8550835,2.4611502
3.046,-5.685274,5.7270117,-1.8123951,-1.0451326,1.5321862,2.3577974
3.048,-5.8854713,5.688797,-1.7932951,-1.1815891,1.2138621,2.256895
3.05,-6.075283,5.6428,-1.7474446,-1.3090353,0.90114677,2.1585596
3.052,-6.254315,5.589337,-1.6764455,-1.4276228,0.59505355,2.0629086
3.054,-6.422449,5.5289526,-1.5818405,-1.5375344,0.29659164,1.9700519
3.056,-6.579499,5.4620504,-1.465305,-1.6389415,0.0067396164,1.8800719
3.058,-6.72527,5.389303,-1.3287985,-1.7320291,-0.27355573,1.7930456
3.06,-6.859986,5.3112454,-1.1742359,-1.816986,-0.54340684,1.709027
3.062,-6.9835424,5.228401,-1.0034741,-1.8939657,-0.8019657,1.6280293
3.064,-7.0962744,5.1413145,-0.81854653,-1.9631515,-1.048433,1.5500364
3.066,-7.1982985,5.05051,-0.6213417,-2.0247054,-1.2820365,1.4749867
3.068,-7.289974,4.956493,-0.41380453,-2.078763,-1.5020612,1.4027867
3.07,-7.3716598,4.859747,-0.1979487,-2.125459,-1.7078391,1.333322
3.072,-7.4435735,4.7605767,0.024354935,-2.1649063,-1.8987595,1.2664492
3.074,-7.5059805,4.659482,0.25127268,-2.1972008,-2.0742836,1.2020069
3.076,-7.559349,4.5567117,0.4810915,-2.222441,-2.2339609,1.1398119
3.078,-7.603926,4.4524837,0.7119086,-2.240709,-2.377441,1.0796707
3.08,-7.6400127,4.347219,0.94222,-2.2521148,-2.504483,1.021383
3.082,-7.6679697,4.2411737,1.1705465,-2.2567887,-2.614972,0.9647307
3.084,-7.688167,4.1345744,1.3955112,-2.254868,-2.7089367,0.9095073
3.086,-7.7007265,4.0275397,1.6160052,-2.246536,-2.786518,0.85550046
3.088,-7.706063,3.9202948,1.8309896,-2.232008,-2.8479826,0.802508
3.09,-7.7045116,3.8130193,2.0397205,-2.211519,-2.8937037,0.75034004
3.092,-7.6963773,3.7058308,2.2414157,-2.1853483,-2.924178,0.6988392
3.094,-7.6818976,3.5988781,2.435455,-2.1537936,-2.9399898,0.64785266
3.096,-7.661409,3.4925172,2.6213303,-2.1172085,-2.9418235,0.5972508
3.098,-7.635242,3.3869314,2.798811,-2.075984,-2.9304261,0.54694927
3.1,-7.603768,3.2823913,2.9675913,-2.0305655,-2.9066155,0.49690068
3.102,-7.56716,3.1792727,3.1275349,-1.9814186,-2.8712342,0.4471004
3.104,-7.525819,3.0778825,3.278694,-1.9290311,-2.825159,0.39760506
3.106,-7.4800744,2.9786716,3.4210892,-1.8739053,-2.769261,0.3485002
3.108,-7.4303145,2.8819494,3.55477,-1.8165412,-2.7044299,0.2999074
3.11,-7.37687,2.788114,3.6799774,-1.7574323,-2.6315386,0.25197428
3.112,-7.3201313,2.6976106,3.7967968,-1.6970451,-2.551443,0.20483309
3.114,-7.2604017,2.6108398,3.9054818,-1.6357943,-2.464996,0.15860507
3.116,-7.197959,2.5280893,4.0062933,-1.574076,-2.3730385,0.113380015
3.118,-7.1334844,2.449862,4.099528,-1.5122298,-2.2764103,0.069203466
3.12,-7.067128,2.3765352,4.185603,-1.4505614,-2.1759546,0.026080728
3.122,-6.999305,2.308313,4.2646933,-1.3893522,-2.0724962,-0.016036153
3.124,-6.9303565,2.24551,4.336981,-1.3288543,-1.966868,-0.05725175
3.126,-6.8607063,2.1883006,4.4027166,-1.269319,-1.8599054,-0.097694844
3.128,-6.790619,2.1369035,4.4620833,-1.210972,-1.7524074,-0.1375375
3.13,-6.7203507,2.0914166,4.51534,-1.1540331,-1.6451561,-0.1769669
3.132,-6.6502705,2.051889,4.5627484,-1.0987185,-1.5389119,-0.21618238
3.134,-6.580452,2.0182884,4.604494,-1.0452205,-1.4343734,-0.25538236
3.136,-6.511107,1.9905761,4.6408353,-0.9937257,-1.3321733,-0.2947602
3.138,-6.442558,1.9685452,4.6718826,-0.9443981,-1.2328604,-0.33448908
3.14,-6.3749337,1.9520464,4.6978593,-0.8973729,-1.1368957,-0.37470648
3.142,-6.3081656,1.940703,4.719055,-0.8527482,-1.0446292,-0.41551244
3.144,-6.242449,1.9342793,4.7355747,-0.8105806,-0.95629734,-0.45695537
3.146,-6.177706,1.9322916,4.7475963,-0.7708726,-0.8720315,-0.49903253
3.148,-6.113815,1.9344702,4.7552466,-0.7335794,-0.79186714,-0.54170823
3.15,-6.0508533,1.9403327,4.7587943,-0.69861865,-0.71573865,-0.5848933
3.152,-5.988494,1.9495013,4.7584596,-0.66587615,-0.643531,-0.62847656
3.154,-5.9267383,1.9613854,4.754401,-0.63520986,-0.5750572,-0.6723022
3.156,-5.8655033,1.9757634,4.746766,-0.60647583,-0.5101135,-0.7161988
3.158,-5.8045354,1.9920497,4.7358036,-0.57952,-0.44849622,-0.7599901
3.16,-5.7436934,2.00995,4.721643,-0.5542188,-0.39000225,-0.803504
3.162,-5.682788,2.0292306,4.704551,-0.53046215,-0.33446896,-0.8465837
3.164,-5.621493,2.0495508,4.6846466,-0.50819117,-0.28176814,-0.8890809
3.166,-5.559659,2.0706232,4.6622357,-0.48738074,-0.23181635,-0.93086517
3.168,-5.497096,2.0921364,4.6374655,-0.4680536,-0.1845658,-0.9718492
3.17,-5.4335747,2.1140213,4.6107216,-0.45027262,-0.1400148,-1.0119498
3.172,-5.3689313,2.1359596,4.5820894,-0.4341393,-0.09817877,-1.0511289
3.174,-5.3027616,2.157843,4.5518103,-0.41979784,-0.05908817,-1.0893836
3.176,-5.2349253,2.1795995,4.5200796,-0.40742177,-0.022800393,-1.1267182
3.178,-5.16541,2.201073,4.4870462,-0.39718628,0.010655448,-1.1631544
3.18,-5.093998,2.2223012,4.452974,-0.38926196,0.041261174,-1.1987433
3.182,-5.0205493,2.2432015,4.4181027,-0.38380724,0.06901355,-1.2335538
3.184,-4.9450107,2.263743,4.382592,-0.380956,0.09394898,-1.2676729
3.186,-4.8672523,2.283866,4.346529,-0.3807965,0.11614838,-1.3011773
3.188,-4.7872105,2.3035827,4.3102245,-0.3833596,0.13570967,-1.3341693
3.19,-4.7049327,2.3228693,4.2736106,-0.3886235,0.15278593,-1.3667333
3.192,-4.6204004,2.3417416,4.2369666,-0.39652932,0.167555,-1.398939
3.194,-4.5334644,2.3602335,4.200343,-0.40695626,0.18023285,-1.4308512
3.196,-4.4442616,2.3783238,4.1637816,-0.4197756,0.19105446,-1.4625142
3.198,-4.3528786,2.3960688,4.127466,-0.43483332,0.20027742,-1.4939506
3.2,-4.25936,2.4135628,4.091297,-0.45195177,0.20818436,-1.525163
3.202,-4.163811,2.430803,4.055346,-0.47096235,0.21504942,-1.5561329
3.204,-4.066267,2.4478757,4.0195913,-0.49169037,0.22114663,-1.5868313
3.206,-3.9668837,2.4647799,3.9840965,-0.5139561,0.2267505,-1.6171999
3.208,-3.8658433,2.481597,3.9487228,-0.5375835,0.23211443,-1.6471857
3.21,-3.7632203,2.4984286,3.9134789,-0.56241393,0.23748788,-1.6767256
3.212,-3.6592832,2.5154018,3.8783636,-0.58828294,0.24309611,-1.705753
3.214,-3.5541208,2.532653,3.8431594,-0.61503327,0.24913017,-1.7341952
3.216,-3.4477866,2.5502489,3.8079517,-0.642516,0.25577205,-1.7619812
3.218,-3.3406034,2.5683923,3.7726328,-0.6705781,0.26313904,-1.7890567
3.22,-3.2325532,2.5872438,3.7371936,-0.69909674,0.27131626,-1.8153617
3.222,-3.1238518,2.6069255,3.7016156,-0.7279562,0.28035235,-1.8408475
3.224,-3.0146708,2.6275716,3.665806,-0.7570664,0.290242,-1.8654873
3.226,-2.9049542,2.6492624,3.629778,-0.7863451,0.30094054,-1.8892539
3.228,-2.7948096,2.6721826,3.5934942,-0.81573343,0.31238356,-1.9121355
3.23,-2.684546,2.6964717,3.5569081,-0.8451998,0.324484,-1.9341393
3.232,-2.5740123,2.7222683,3.5200615,-0.8747256,0.3371319,-1.9552766
3.234,-2.4633045,2.7496269,3.4830496,-0.90430444,0.35022575,-1.975557
3.236,-2.3524027,2.7787447,3.4457884,-0.9339334,0.36366042,-1.9949982
3.238,-2.2413797,2.8095984,3.4083862,-0.96361077,0.37735787,-2.013619
3.24,-2.13027,2.8423343,3.3708901,-0.9933388,0.39124447,-2.031439
3.242,-2.019123,2.8769395,3.333274,-1.0231217,0.40527177,-2.0484586
3.244,-1.9078683,2.9134529,3.2956831,-1.0529494,0.41939497,-2.0646827
3.246,-1.7965543,2.951828,3.2581198,-1.0828073,0.43358612,-2.0801208
3.248,-1.685112,2.992114,3.2207174,-1.1126822,0.44781816,-2.0947807
3.25,-1.5733919,3.034194,3.183488,-1.1425447,0.46208608,-2.1086662
3.252,-1.4615095,3.0779214,3.1464128,-1.1723628,0.47637737,-2.1217892
3.254,-1.3494222,3.12328,3.1095548,-1.2021143,0.49067625,-2.134165
3.256,-1.237035,3.1701329,3.0729244,-1.2317753,0.50498205,-2.1458166
3.258,-1.1243503,3.2181768,3.0366087,-1.2613049,0.51928747,-2.1567783
3.26,-1.0112886,3.2673097,3.0004573,-1.2906859,0.533586,-2.1671035
3.262,-0.89794827,3.3173096,2.9644628,-1.3198899,0.5478754,-2.1768324
3.264,-0.78418505,3.367997,2.9286325,-1.3488852,0.5621455,-2.1860273
3.266,-0.6697993,3.4189405,2.8928041,-1.3776451,0.57639515,-2.1947472
3.268,-0.5549097,3.4700694,2.8569617,-1.4061339,0.5906124,-2.2030644
3.27,-0.43935925,3.52098,2.8210206,-1.4343345,0.60476196,-2.2110612
3.272,-0.32325277,3.571393,2.7848518,-1.4622194,0.6188284,-2.2188268
3.274,-0.20643489,3.621,2.7484207,-1.4897742,0.63276696,-2.2264364
3.276,-0.08888209,3.6695385,2.7115068,-1.5169913,0.6465396,-2.2339616
3.278,0.029481888,3.716765,2.6741257,-1.5438716,0.6601074,-2.241472
3.28,0.14860341,3.7623045,2.6360607,-1.5704281,0.67341197,-2.2490134
3.282,0.26854867,3.8060293,2.5973556,-1.59667,0.68640137,-2.2566156
3.284,0.3890926,3.84764,2.5578184,-1.6226115,0.6990356,-2.2643046
3.286,0.51036316,3.8868978,2.517517,-1.6482754,0.71126556,-2.2720883
3.288,0.6324922,3.9236236,2.4763675,-1.6736841,0.7230513,-2.2799501
3.29,0.755302,3.9576316,2.4342947,-1.6988468,0.7343679,-2.2878685
3.292,0.8786551,3.9888587,2.3912394,-1.7237694,0.7451809,-2.2958007
3.294,1.0025909,4.0171094,2.3472054,-1.7484531,0.75548613,-2.303707
3.296,1.1269317,4.0424037,2.302279,-1.7728872,0.7652811,-2.3115344
3.298,1.2515212,4.064682,2.256341,-1.7970594,0.77455986,-2.3192258
3.3,1.3763087,4.0839796,2.2096367,-1.8209592,0.78333545,-2.3267233
3.302,1.5012347,4.100236,2.1620624,-1.8445684,0.7916171,-2.3339558
3.304,1.6259463,4.1135125,2.113665,-1.8678546,0.7994242,-2.3408833
3.306,1.7504021,4.1238933,2.064619,-1.8907999,0.8067785,-2.347464
3.308,1.8745651,4.1314435,2.0149322,-1.9133765,0.81371194,-2.353652
3.31,1.9981428,4.136316,1.9647393,-1.9355572,0.8202578,-2.3594103
3.312,2.120921,4.1386957,1.91413,-1.9516029,0.82475215,-2.364712
3.314,2.242775,4.138679,1.8631879,-1.9692171,0.8295401,-2.3695333
3.316,2.3635476,4.1364403,1.8119534,-1.984569,0.8335353,-2.3738532
3.318,2.483226,4.132203,1.7606082,-1.9971331,0.8366499,-2.377651
3.32,2.6014555,4.12616,1.7092016,-2.0064735,0.8388128,-2.3809106
3.322,2.7182722,4.1184244,1.6577796,-2.0123248,0.8400154,-2.3836102
3.324,2.833556,4.1091795,1.6065371,-2.014734,0.84035337,-2.385732
3.326,2.9470036,4.0986457,1.555415,-2.0141966,0.8400339,-2.3872755
3.328,3.058618,4.0869794,1.50455,-2.0116494,0.83940893,-2.3882432
3.33,3.1683805,4.0742908,1.4539263,-2.0085115,0.83895886,-2.3886397
3.332,3.276182,4.06086,1.4036593,-2.0064993,0.83924997,-2.3884804
3.334,3.3819292,4.0468025,1.3536851,-2.0074136,0.8408784,-2.3877864
3.336,3.4854455,4.032417,1.3040469,-2.0128384,0.84435225,-2.386582
3.338,3.586751,4.0178146,1.2547996,-2.0238657,0.8500248,-2.3848982
3.34,3.6858525,4.003062,1.205932,-2.040886,0.85804904,-2.38275
3.342,3.782746,3.9884424,1.1574316,-2.0635042,0.8683274,-2.380166
3.344,3.8773582,3.9741464,1.10932,-2.0906358,0.88054776,-2.3771563
3.346,3.96963,3.960421,1.0615828,-2.1206913,0.89424896,-2.373737
3.348,4.0597134,3.9474409,1.014166,-2.151851,0.9088987,-2.3698947
3.35,4.1475863,3.9353437,0.9671192,-2.1823874,0.92399466,-2.365617
3.352,4.2332177,3.924436,0.9203646,-2.21087,0.9391318,-2.3608809
3.354,4.3167896,3.9148233,0.87385833,-2.2363167,0.9540255,-2.3556602
3.356,4.3983126,3.9067001,0.82761276,-2.258228,0.9685546,-2.3499365
3.358,4.477841,3.9002562,0.7815943,-2.27653,0.9827018,-2.34368
3.36,4.5554304,3.8957617,0.73579335,-2.2914703,0.9965408,-2.336882
3.362,4.631176,3.8933463,0.6901324,-2.3034663,1.0101931,-2.329535
3.364,4.7051935,3.893167,0.6445639,-2.3130155,1.0237904,-2.321653
3.366,4.7775054,3.895401,0.59914815,-2.3239264,1.0384432,-2.3132532
3.368,4.8482533,3.9001694,0.55380297,-2.3284674,1.0518129,-2.3043604
3.37,4.9174986,3.9076192,0.50853133,-2.332374,1.0655602,-2.295031
3.372,4.9853168,3.9177504,0.46327424,-2.3356698,1.0796251,-2.2853012
3.374,5.0517316,3.9307785,0.41798544,-2.3383477,1.0939571,-2.2752154
3.376,5.116843,3.946573,0.37276387,-2.3404307,1.1085067,-2.2648115
3.378,5.1807723,3.9651642,0.3274033,-2.34194,1.1232352,-2.254116
3.38,5.2435217,3.9866028,0.28202152,-2.34288,1.1381047,-2.2431428
3.382,5.305193,4.010746,0.23648167,-2.3432846,1.1530881,-2.2318919
3.384,5.3658543,4.0375147,0.1908021,-2.3431568,1.168169,-2.220354
3.386,5.4255905,4.066818,0.14492655,-2.3425167,1.183352,-2.2085154
3.388,5.4843616,4.0984116,0.09877396,-2.3413694,1.1986301,-2.1963763
3.39,5.5423717,4.1321206,0.05240035,-2.3397233,1.2140036,-2.1839223
3.392,5.5995774,4.167606,0.0056991577,-2.3375983,1.2294747,-2.171159
3.394,5.65625,4.204625,-0.041359186,-2.3350048,1.2450209,-2.1581352
3.396,5.7123313,4.2428346,-0.088849306,-2.3319693,1.2606194,-2.1448917
3.398,5.7677665,4.2818937,-0.13678408,-2.3285232,1.2762194,-2.1314964
3.4,5.822936,4.321285,-0.18517709,-2.3247004,1.291764,-2.1180358
3.402,5.877908,4.360676,-0.23411822,-2.3205414,1.3071716,-2.1046207
3.404,5.932563,4.399769,-0.28366613,-2.3160865,1.322327,-2.091355
3.406,5.987115,4.4380455,-0.33380246,-2.311383,1.3371305,-2.078346
3.408,6.0416946,4.475031,-0.38455796,-2.3064861,1.3514556,-2.0656903
3.41,6.0962977,4.5103226,-0.43608785,-2.3014448,1.36516,-2.0534678
3.412,6.150893,4.54355,-0.4882989,-2.296321,1.3781295,-2.0417542
3.414,6.205727,4.5743084,-0.5411215,-2.2911613,1.390244,-2.030594
3.416,6.2607427,4.602209,-0.59465146,-2.2860262,1.4013838,-2.0200212
3.418,6.316021,4.62705,-0.6488309,-2.2809718,1.4114501,-2.010028
3.42,6.3699327,4.6490307,-0.7019205,-2.2760568,1.4203608,-2.0005972
3.422,6.423789,4.667614,-0.75519586,-2.271342,1.4280658,-1.9916928
3.424,6.4774394,4.6827087,-0.80849195,-2.2668564,1.4345285,-1.9832429
3.426,6.530778,4.6942596,-0.8616674,-2.2626307,1.439739,-1.975181
3.428,6.5836754,4.702246,-0.91462445,-2.2586884,1.4437072,-1.9674083
3.43,6.6361227,4.7067823,-0.96722126,-2.2550306,1.4464538,-1.959828
3.432,6.687861,4.7080545,-1.0192518,-2.2516487,1.4480093,-1.9523411
3.434,6.7387624,4.706188,-1.0706077,-2.2485366,1.4484276,-1.944851
3.436,6.7888117,4.7014556,-1.1210463,-2.245659,1.4477601,-1.9372686
3.438,6.8378525,4.6940994,-1.1704831,-2.2429883,1.4460609,-1.929506
3.44,6.8855886,4.684443,-1.2187474,-2.2405033,1.4433765,-1.9214909
3.442,6.93204,4.672728,-1.2657356,-2.2381773,1.4397588,-1.9131501
3.444,6.97707,4.6593456,-1.3112643,-2.235982,1.435256,-1.904434
3.446,7.0206614,4.6445208,-1.3552706,-2.233881,1.4299004,-1.8952795
3.448,7.062695,4.6285667,-1.397697,-2.2319303,1.4241323,-1.8861108
3.45,7.1031547,4.611887,-1.4384847,-2.2300727,1.417824,-1.8767067
3.452,7.141826,4.5946097,-1.477597,-2.228302,1.4110968,-1.8671491
3.454,7.1788287,4.576997,-1.5150237,-2.2266235,1.40407,-1.8575377
3.456,7.2141895,4.5592275,-1.5507238,-2.225047,1.3968753,-1.8479964
3.458,7.2478294,4.5414944,-1.5847287,-2.2235754,1.3896542,-1.8386517
3.46,7.2797933,4.523989,-1.6171052,-2.2222095,1.3825203,-1.8296297
3.462,7.3101807,4.5067987,-1.6477382,-2.2209575,1.3755842,-1.8210354
3.464,7.338826,4.4900594,-1.6767735,-2.2198262,1.3689437,-1.8129566
3.466,7.36593,4.473865,-1.7042444,-2.2188041,1.3626509,-1.80544
3.468,7.391603,4.4582605,-1.7302785,-2.2178922,1.3567588,-1.7985163
3.47,7.4157243,4.4432654,-1.7548714,-2.2170906,1.3512921,-1.7921821
