Time_s_,Acc_x_m_s_2_,Acc_y_m_s_2_,Acc_z_m_s_2_,Gyro_x_1_s_,Gyro_y_1_s_,Gyro_z_1_s_
0,-0.07948476,0.21713936,0.48181683,-0.013892651,1.5825934,-1.0506725
0.002,-0.062116653,0.23418611,0.48622212,-0.0117889345,1.5841563,-1.0523516
0.004,-0.04509954,0.25200218,0.49238482,-0.009518176,1.5857027,-1.0541067
0.006,-0.02840595,0.27069032,0.5002048,-0.0070861876,1.5871491,-1.0559266
0.008,-0.012260437,0.290232,0.5099795,-0.0045103133,1.5883864,-1.0578068
0.01,0.0033232719,0.3105915,0.52200985,-0.001812309,1.5892859,-1.0597191
0.012,0.018092573,0.33186197,0.53679353,0.00097596645,1.5896924,-1.0616497
0.014,0.03202042,0.35386762,0.55440605,0.0038040876,1.5894488,-1.0636001
0.016,0.04500994,0.37664568,0.5749266,0.006629139,1.5883998,-1.0655762
0.018,0.057038635,0.40002874,0.59839857,0.00939092,1.5864048,-1.0675982
0.02,0.06799823,0.42406458,0.62496793,0.012046754,1.5833771,-1.0697114
0.022,0.077800006,0.44861132,0.65475005,0.01455614,1.5792888,-1.0719792
0.024,0.08630866,0.4737008,0.6877702,0.016905576,1.574197,-1.0744573
0.026,0.09354541,0.4992602,0.7239626,0.019105613,1.5682747,-1.0772018
0.028,0.0997034,0.5253161,0.7630912,0.021285117,1.5617785,-1.0803457
0.03,0.104735285,0.5518591,0.8048626,0.023337692,1.5549715,-1.0837888
0.032,0.108781874,0.5789284,0.8488761,0.025357842,1.5482013,-1.0875782
0.034,0.11202586,0.6064303,0.8946333,0.027451336,1.5418178,-1.0916984
0.036,0.11465329,0.63434565,0.9415778,0.029705942,1.536088,-1.0961227
0.038,0.116857976,0.6626311,0.98900646,0.032212734,1.5312166,-1.1008093
0.04,0.11885387,0.6913235,1.0361807,0.035054147,1.5273333,-1.1057199
0.042,0.12089893,0.7203974,1.082441,0.03831449,1.5245163,-1.1108229
0.044,0.12311846,0.7499937,1.1270342,0.04208359,1.5227897,-1.1161146
0.046,0.12577707,0.78001964,1.1693845,0.046431363,1.522118,-1.121602
0.048,0.12914312,0.8104944,1.2086972,0.051427543,1.5224077,-1.1272893
0.05,0.13350704,0.8415996,1.2443047,0.05710247,1.5235202,-1.1331823
0.052,0.13908577,0.8732459,1.2755654,0.06348482,1.525286,-1.1392896
0.054,0.14595163,0.9054892,1.302097,0.07058564,1.5275223,-1.1456075
0.056,0.15497643,0.9391767,1.3239067,0.07837969,1.530044,-1.1521447
0.058,0.16503161,0.9730731,1.3404821,0.086847275,1.5326562,-1.1588843
0.06,0.17638952,1.0070236,1.3515515,0.095977396,1.5351564,-1.1657553
0.062,0.18895948,1.0410719,1.3571529,0.105760604,1.537368,-1.1726559
0.064,0.2027322,1.0750494,1.3573098,0.116182685,1.5391448,-1.1794791
0.066,0.21757305,1.1089118,1.3525696,0.12724468,1.5403777,-1.1860834
0.068,0.23363572,1.1424636,1.3433325,0.13897452,1.5410308,-1.1923225
0.07,0.2504334,1.1753256,1.3302767,0.15140846,1.5411372,-1.1980506
0.072,0.2676739,1.2072508,1.3138635,0.16459778,1.5408088,-1.203136
0.074,0.28542513,1.2379823,1.294726,0.17859891,1.5402056,-1.2074757
0.076,0.30313498,1.2672437,1.2736566,0.19344768,1.5395195,-1.2109959
0.078,0.32059026,1.2950019,1.2512195,0.20915195,1.5389522,-1.2136654
0.08,0.3374105,1.3212366,1.2284876,0.22569823,1.5386577,-1.2154745
0.082,0.35326457,1.3458602,1.2059261,0.24303886,1.5387651,-1.2164458
0.084,0.36800534,1.3686298,1.1840787,0.2610879,1.5393534,-1.2166218
0.086,0.38120338,1.3895199,1.1634831,0.27973562,1.5404569,-1.2160587
0.088,0.39285922,1.4085273,1.1445993,0.29887775,1.5420551,-1.2148334
0.09,0.40272045,1.4256057,1.1280392,0.3183981,1.5440836,-1.2130121
0.092,0.41098094,1.4407423,1.1140809,0.33818504,1.5464103,-1.2106466
0.094,0.41756064,1.454129,1.1030335,0.35813692,1.5488721,-1.2078023
0.096,0.42249152,1.4657577,1.0950541,0.37815624,1.5512652,-1.2045556
0.098,0.42615187,1.4755962,1.090421,0.39815843,1.5533526,-1.2009906
0.1,0.42874277,1.483603,1.0891199,0.4180504,1.554859,-1.1972158
0.102,0.43069035,1.4899063,1.0908909,0.43774056,1.5554805,-1.1933669
0.104,0.43234742,1.4945666,1.0953299,0.45714137,1.554873,-1.1895952
0.106,0.43429068,1.4976885,1.1021671,0.4761551,1.5526752,-1.186079
0.108,0.4368795,1.4993966,1.1112336,0.49469778,1.5485511,-1.1830072
0.11,0.4406387,1.4996989,1.122219,0.51272416,1.5422177,-1.1805731
0.112,0.44626173,1.4984598,1.1348332,0.5302,1.5334575,-1.1789459
0.114,0.45398447,1.4958599,1.1487097,0.54711914,1.5221307,-1.178268
0.116,0.46449107,1.4917269,1.1634066,0.5635091,1.5081819,-1.1786416
0.118,0.47811523,1.486198,1.1784346,0.57943547,1.4916472,-1.1801116
0.12,0.4953668,1.4792567,1.1931992,0.59498453,1.4726726,-1.1826586
0.122,0.516713,1.4707971,1.2072077,0.6102757,1.451484,-1.186202
0.124,0.5421704,1.4609138,1.2200485,0.625448,1.4283824,-1.1906202
0.126,0.5718386,1.4495605,1.2313688,0.64064664,1.4037097,-1.1957531
0.128,0.6059822,1.4366391,1.2407851,0.6560101,1.3778508,-1.2013911
0.13,0.644619,1.4220586,1.2478081,0.67167664,1.3511784,-1.2073187
0.132,0.6875049,1.4060357,1.2522202,0.6877669,1.3240404,-1.213321
0.134,0.7342609,1.388705,1.254027,0.70437956,1.2967634,-1.219199
0.136,0.7843682,1.3701797,1.2530748,0.72158384,1.2696366,-1.2247536
0.138,0.8373649,1.350386,1.249284,0.73943996,1.2428912,-1.2298372
0.14,0.8927981,1.3292285,1.2426422,0.7579683,1.2167168,-1.2343324
0.142,0.95004916,1.3069326,1.2333472,0.77715725,1.1912392,-1.2381617
0.144,1.0083895,1.2838264,1.2216988,0.797001,1.1665506,-1.2412817
0.146,1.0671589,1.2601175,1.2079297,0.81748056,1.1426814,-1.2436805
0.148,1.1256175,1.236073,1.1923392,0.83856094,1.1196392,-1.2453703
0.15,1.1830795,1.2118865,1.1751812,0.8602252,1.097381,-1.2463874
0.152,1.2387275,1.187797,1.1566927,0.882445,1.075849,-1.2467866
0.154,1.29211,1.1638432,1.1372358,0.90521675,1.0550064,-1.2466373
0.156,1.342466,1.1403754,1.1171205,0.9285255,1.0347888,-1.2460047
0.158,1.3891972,1.1175908,1.0970137,0.95235306,1.0151327,-1.2449527
0.16,1.4316841,1.0955886,1.0772754,0.9766637,0.9959768,-1.2435399
0.162,1.4696203,1.0747054,1.0583029,1.0014384,0.97725296,-1.2418131
0.164,1.5026591,1.0550998,1.0402155,1.0266443,0.9588907,-1.2397976
0.166,1.5306371,1.0368001,1.0232819,1.0522596,0.9408407,-1.2375416
0.168,1.5532714,1.0200518,1.0075042,1.0782269,0.92305046,-1.2350876
0.17,1.5705324,1.0049016,0.99299955,1.1044815,0.9054243,-1.2324561
0.172,1.5822806,0.9914054,0.9797739,1.1309431,0.88786054,-1.2296503
0.174,1.5887232,0.9795775,0.96787393,1.1575375,0.8702228,-1.2267073
0.176,1.5899408,0.96936095,0.95716894,1.184187,0.8523783,-1.2236788
0.178,1.5858467,0.96072066,0.9475277,1.2108141,0.8342332,-1.2206342
0.18,1.5770917,0.9535595,0.93869257,1.2373663,0.81572044,-1.2176405
0.182,1.5640392,0.9477178,0.9306051,1.2638088,0.7968211,-1.2147738
0.184,1.5470568,0.942831,0.92302155,1.2901334,0.7776019,-1.2120979
0.186,1.526767,0.9386885,0.9155546,1.3163514,0.7581694,-1.2096648
0.188,1.5036669,0.9348793,0.9080378,1.3424762,0.73867327,-1.2074951
0.19,1.478504,0.93120944,0.90010285,1.368569,0.71930456,-1.2055938
0.192,1.4519318,0.92732406,0.8916497,1.3946733,0.7002719,-1.2039258
0.194,1.4246972,0.92292154,0.88260734,1.420847,0.6817777,-1.202453
0.196,1.3975837,0.91758895,0.8728632,1.4471428,0.66401213,-1.201131
0.198,1.3714087,0.9109392,0.86237293,1.4735992,0.64712405,-1.1999131
0.2,1.3470008,0.90259576,0.8511305,1.5002505,0.6312697,-1.198752
0.202,1.3250763,0.89219236,0.8391362,1.5271237,0.6165522,-1.1975932
0.204,1.3065108,0.8793767,0.8265054,1.5542275,0.6030708,-1.1963985
0.206,1.2921617,0.86386895,0.81335294,1.5815718,0.5909122,-1.1951517
0.208,1.2826014,0.84541076,0.7996886,1.6091454,0.5801419,-1.1938349
0.21,1.278626,0.82387793,0.7857899,1.6369206,0.570825,-1.1924381
0.212,1.2806879,0.7989044,0.7719437,1.6648672,0.5630301,-1.1909498
0.214,1.2891629,0.770416,0.758304,1.6929405,0.5567999,-1.1893679
0.216,1.3044161,0.7382478,0.7447759,1.7210643,0.552184,-1.1877034
0.218,1.3266209,0.7025105,0.7312517,1.7491381,0.54922336,-1.1859803
0.22,1.3558071,0.6634098,0.71781945,1.7770553,0.5479211,-1.1842062
0.222,1.3916042,0.62102294,0.70473,1.8047073,0.5482757,-1.1824049
0.224,1.433743,0.5755744,0.6921633,1.8319708,0.55027354,-1.1806492
0.226,1.4815568,0.5274018,0.6802548,1.8587198,0.553839,-1.1790309
0.228,1.5346823,0.47676465,0.6689734,1.8848132,0.5588896,-1.1776096
0.23,1.5919317,0.42402148,0.65835667,1.9101195,0.5652804,-1.1764457
0.232,1.6526321,0.3696711,0.6482618,1.9345325,0.57281685,-1.1756197
0.234,1.715843,0.31426013,0.63884044,1.9579362,0.5812607,-1.1752216
0.236,1.7804993,0.25826645,0.6301615,1.9802256,0.5903061,-1.1753378
0.238,1.845169,0.20227534,0.62233084,2.0013144,0.5996135,-1.1760395
0.24,1.9089732,0.14678371,0.6155483,2.0211356,0.60882497,-1.1773804
0.242,1.9710097,0.09202689,0.6096659,2.039641,0.6175779,-1.1793934
0.244,2.0304294,0.038362205,0.6045127,2.0568027,0.6255509,-1.1820861
0.246,2.086369,-0.013788879,0.600252,2.0726638,0.632488,-1.18544
0.248,2.1377845,-0.06394625,0.5971559,2.0872924,0.63820404,-1.189384
0.25,2.184011,-0.111617625,0.5956257,2.1007984,0.64261895,-1.1938481
0.252,2.2245557,-0.15678656,0.59560317,2.113336,0.645753,-1.1987479
0.254,2.2591283,-0.19926614,0.5970646,2.1250868,0.64771,-1.2039857
0.256,2.2874446,-0.23902237,0.59995264,2.136258,0.6486829,-1.2094796
0.258,2.3095345,-0.27584204,0.6042712,2.147047,0.6488779,-1.2151442
0.26,2.3255944,-0.30965495,0.6101141,2.1576352,0.6485145,-1.2209125
0.262,2.3360412,-0.3404475,0.617519,2.168191,0.6478045,-1.2267374
0.264,2.3413482,-0.3681413,0.62628007,2.1788561,0.64694405,-1.2325834
0.266,2.3422534,-0.39301005,0.6362589,2.1897433,0.6460758,-1.2384299
0.268,2.3396902,-0.41513348,0.6469356,2.2009501,0.64531136,-1.24426
0.27,2.3346841,-0.4347447,0.65821797,2.2125576,0.64468783,-1.2500758
0.272,2.3283677,-0.45207596,0.66975856,2.2246354,0.6441983,-1.2558756
0.274,2.3218997,-0.46730188,0.6814217,2.2372503,0.643789,-1.2616713
0.276,2.3166993,-0.480581,0.69295055,2.2504575,0.6433449,-1.2674732
0.278,2.313977,-0.4921869,0.7043023,2.264312,0.6426792,-1.273276
0.28,2.3150926,-0.5023284,0.7150384,2.2788422,0.641557,-1.2791115
0.282,2.3214238,-0.51130366,0.72481406,2.2940516,0.6396742,-1.2850232
0.284,2.334277,-0.51927024,0.73305386,2.309909,0.6366618,-1.2910596
0.286,2.3549764,-0.52652353,0.73943394,2.3263505,0.6321289,-1.2972734
0.288,2.3846498,-0.53316545,0.7438005,2.3432953,0.6256882,-1.3037133
0.29,2.4240446,-0.53934574,0.7461241,2.3606203,0.6169832,-1.3104436
0.292,2.4740283,-0.5452416,0.74613404,2.3782022,0.60572135,-1.3175386
0.294,2.5352967,-0.55078226,0.7436308,2.3959143,0.5917041,-1.3250637
0.296,2.6084354,-0.5560923,0.7382996,2.4136488,0.574842,-1.3330741
0.298,2.6936266,-0.56102735,0.7297659,2.4313164,0.5551564,-1.3416109
0.3,2.7909205,-0.56560534,0.71762353,2.4488454,0.53279984,-1.3507171
0.302,2.9003086,-0.56978846,0.70177114,2.4662118,0.50804454,-1.3604382
0.304,3.0215003,-0.57336354,0.68196505,2.483428,0.4812278,-1.3708062
0.306,3.1543021,-0.5761996,0.65793496,2.5005214,0.45274004,-1.3818477
0.308,3.2981915,-0.5779634,0.6291856,2.517533,0.42298442,-1.3935905
0.31,3.4525979,-0.5784089,0.59519815,2.534537,0.39233637,-1.4060402
0.312,3.61668,-0.5773544,0.5556849,2.5516074,0.3611647,-1.4191837
0.314,3.7899177,-0.5745625,0.50996685,2.5688462,0.3297839,-1.4329853
0.316,3.97163,-0.569789,0.45750618,2.5863671,0.29844797,-1.4473802
0.318,4.160988,-0.5627829,0.39778033,2.6043177,0.2673734,-1.4622464
0.32,4.3572702,-0.5532764,0.33012855,2.622871,0.23674858,-1.4774259
0.322,4.5596766,-0.5409477,0.2536837,2.64221,0.20673501,-1.4927413
0.324,4.768057,-0.5254856,0.16775005,2.6625538,0.17750064,-1.5079919
0.326,4.980733,-0.5063944,0.07154774,2.6841412,0.14920342,-1.522962
0.328,5.1974006,-0.48343557,-0.035519492,2.7072153,0.1219935,-1.5374441
0.33,5.417571,-0.45651996,-0.15453973,2.7320302,0.096001774,-1.5512515
0.332,5.6408963,-0.42532903,-0.2866498,2.7588382,0.07134326,-1.5642407
0.334,5.8670425,-0.38943994,-0.43222815,2.787884,0.048072785,-1.576283
0.336,6.095172,-0.34828302,-0.59164464,2.819408,0.026194826,-1.5873063
0.338,6.3248363,-0.3014946,-0.7651435,2.8536205,0.005649969,-1.5972677
0.34,6.555864,-0.24858406,-0.9531618,2.89071,-0.013725325,-1.6061364
0.342,6.7877064,-0.18920523,-1.156002,2.9308262,-0.032212257,-1.6139232
0.344,7.0205173,-0.12318528,-1.37384,2.974082,-0.050201982,-1.6206414
0.346,7.254035,-0.05022049,-1.6066271,3.0205314,-0.068228886,-1.6262975
0.348,7.488174,0.03004253,-1.8541188,3.0701907,-0.08691183,-1.6309135
0.35,7.7226815,0.1177752,-2.1154923,3.1230416,-0.10693309,-1.6345122
0.352,7.9577107,0.21323198,-2.3899217,3.1789982,-0.12902546,-1.6371273
0.354,8.193327,0.31663227,-2.6761544,3.2379577,-0.15394178,-1.6387767
0.356,8.429052,0.4285087,-2.9727163,3.2997603,-0.18245953,-1.6394752
0.358,8.664933,0.54888874,-3.2780082,3.364216,-0.21534054,-1.6392202
0.36,8.901386,0.67746645,-3.590719,3.4311035,-0.25330988,-1.6379975
0.362,9.140452,0.81343824,-3.9055023,3.500171,-0.29708642,-1.6357673
0.364,9.378531,0.9582348,-4.2201953,3.5711186,-0.3474056,-1.6324806
0.366,9.616816,1.1128991,-4.535827,3.6436317,-0.40498722,-1.6280977
0.368,9.85573,1.27713,-4.848012,3.7173572,-0.470554,-1.6225622
0.37,10.090987,1.4518499,-5.15369,3.7919292,-0.5448434,-1.6158098
0.372,10.325436,1.6357517,-5.4509063,3.8669639,-0.62861097,-1.6078237
0.374,10.559103,1.8280263,-5.7398825,3.942081,-0.7225602,-1.5985739
0.376,10.793076,2.0278594,-6.012845,4.016911,-0.82730365,-1.5880687
0.378,11.025969,2.2349958,-6.258741,4.091125,-0.9433422,-1.5763484
0.38,11.257988,2.4495716,-6.4699955,4.1644554,-1.0709658,-1.5635144
0.382,11.484521,2.673243,-6.6489897,4.2366853,-1.2101998,-1.5497184
0.384,11.70596,2.9039478,-6.7905107,4.307664,-1.3607711,-1.5351539
0.386,11.927774,3.1350012,-6.8911796,4.377281,-1.5221539,-1.5200739
0.388,12.148567,3.3682327,-6.966132,4.445492,-1.6934702,-1.504784
0.39,12.362606,3.608409,-7.0155287,4.5122867,-1.8735609,-1.4896183
0.392,12.5696125,3.8545485,-7.0287404,4.577684,-2.0610275,-1.4749299
0.394,12.7737665,4.103288,-6.9982314,4.6417055,-2.2542248,-1.4611176
0.396,12.975066,4.352994,-6.921427,4.7044616,-2.45153,-1.4485245
0.398,13.171979,4.6033545,-6.79857,4.766125,-2.6513155,-1.4374431
0.4,13.365186,4.853594,-6.6322556,4.8267636,-2.852012,-1.428194
0.402,13.554646,5.102322,-6.425598,4.88658,-3.0520086,-1.4209578
0.404,13.740001,5.3468585,-6.1828794,4.945802,-3.2499146,-1.4157976
0.406,13.921817,5.5841055,-5.907133,5.004527,-3.4448073,-1.4128236
0.408,14.100539,5.8115053,-5.6002426,5.0629086,-3.6356933,-1.4121096
0.41,14.276407,6.0279,-5.2658396,5.1210566,-3.8220189,-1.4137774
0.412,14.4499235,6.232604,-4.9096403,5.1792135,-4.0036917,-1.4179542
0.414,14.622303,6.424935,-4.538455,5.2375827,-4.181242,-1.4246054
0.416,14.793092,6.60465,-4.15999,5.2966537,-4.3542237,-1.4333389
0.418,14.961847,6.771215,-3.7822063,5.357064,-4.522537,-1.4436572
0.42,15.128778,6.9238567,-3.4115052,5.4193525,-4.687398,-1.4554482
0.422,15.293127,7.0623274,-3.0528338,5.484232,-4.848833,-1.4685032
0.424,15.453185,7.187117,-2.7106724,5.5523696,-5.005945,-1.4823534
0.426,15.607509,7.2991734,-2.3895524,5.624622,-5.157376,-1.4964463
0.428,15.754874,7.399721,-2.0938895,5.702206,-5.3012123,-1.5102912
0.43,15.89294,7.490363,-1.8274882,5.7866297,-5.435094,-1.5234761
0.432,16.019459,7.573235,-1.5931754,5.8793716,-5.55643,-1.5357647
0.434,16.13152,7.65081,-1.3923671,5.981664,-5.66225,-1.5470022
0.436,16.227015,7.726044,-1.2247429,6.0943217,-5.749429,-1.5570198
0.438,16.302343,7.8023367,-1.0889676,6.2176347,-5.814695,-1.5655233
0.44,16.354307,7.8834133,-0.98233867,6.351284,-5.8545465,-1.5721785
0.442,16.3798,7.972948,-0.90135884,6.494301,-5.865497,-1.5767816
0.444,16.375721,8.074245,-0.8422382,6.64512,-5.8441925,-1.5792794
0.446,16.339542,8.190844,-0.8001902,6.801754,-5.7876787,-1.5797563
0.448,16.268875,8.326207,-0.76986814,6.962018,-5.6936855,-1.57832
0.45,16.161798,8.483589,-0.74518776,7.123701,-5.5608997,-1.5750518
0.452,16.016735,8.665873,-0.72020197,7.284817,-5.3895607,-1.5699427
0.454,15.832453,8.875697,-0.68935776,7.4438047,-5.1816745,-1.5628648
0.456,15.608854,9.115133,-0.6473603,7.599292,-4.941359,-1.5537262
0.458,15.346222,9.3856125,-0.58934665,7.750192,-4.6745286,-1.5424435
0.46,15.045462,9.688151,-0.511292,7.895664,-4.3886375,-1.5289388
0.462,14.70785,10.023235,-0.4094863,8.03476,-4.092677,-1.5133975
0.464,14.335601,10.390629,-0.2811277,8.16658,-3.796037,-1.4962875
0.466,13.932052,10.789209,-0.124090195,8.290056,-3.507976,-1.4784863
0.468,13.5002165,11.217869,0.06282735,8.404271,-3.2369313,-1.4613405
0.47,13.04334,11.675074,0.2804799,8.508262,-2.9910183,-1.4466121
0.472,12.564145,12.158958,0.52630377,8.601394,-2.7759857,-1.4360076
0.474,12.070564,12.665042,0.80106974,8.683568,-2.594894,-1.4307997
0.476,11.565435,13.189685,1.1072712,8.754935,-2.4504645,-1.4322871
0.478,11.052807,13.7300625,1.441258,8.816074,-2.3440254,-1.4416771
0.48,10.540564,14.281967,1.8011513,8.867685,-2.275161,-1.4596953
0.482,10.029491,14.843216,2.1854744,8.910451,-2.2422876,-1.4865334
0.484,9.524118,15.410067,2.5941434,8.945138,-2.2429612,-1.5219687
0.486,9.028047,15.97901,3.0191216,8.972694,-2.2741706,-1.5654621
0.488,8.547309,16.545609,3.452662,8.994158,-2.332797,-1.6163672
0.49,8.085848,17.105465,3.8925676,9.010532,-2.4155736,-1.6741124
0.492,7.6510787,17.653595,4.345217,9.022686,-2.5192287,-1.7382122
0.494,7.244658,18.188784,4.807614,9.031346,-2.6406107,-1.8081831
0.496,6.8643484,18.713095,5.2787585,9.037153,-2.7765803,-1.8834821
0.498,6.515872,19.219513,5.7714896,9.040684,-2.9240363,-1.9635761
0.5,6.2068143,19.70105,6.279418,9.042438,-3.0799732,-2.0479963
0.502,5.9374924,20.15804,6.7884026,9.042817,-3.2416344,-2.136423
0.504,5.705165,20.592335,7.2918434,9.042115,-3.4064655,-2.2287014
0.506,5.511947,21.003689,7.789453,9.040485,-3.5721774,-2.32475
0.508,5.360743,21.39068,8.28298,9.037957,-3.7368267,-2.4245272
0.51,5.2512946,21.752968,8.775067,9.034426,-3.898757,-2.5279942
0.512,5.1836815,22.091204,9.2674055,9.0297,-4.056626,-2.6351285
0.514,5.157526,22.407125,9.761314,9.023489,-4.209358,-2.7458897
0.516,5.1711416,22.70238,10.25613,9.015436,-4.356153,-2.8602495
0.518,5.222576,22.977789,10.749897,9.005106,-4.496419,-2.978188
0.52,5.3099976,23.233013,11.2423315,8.99203,-4.629784,-3.0997045
0.522,5.430537,23.46809,11.7345,8.97575,-4.7560797,-3.2247934
0.524,5.5807676,23.683578,12.227759,8.955794,-4.875276,-3.3534286
0.526,5.758404,23.88015,12.72322,8.931746,-4.987408,-3.4855459
0.528,5.9605355,24.059278,13.2216,8.903242,-5.0925894,-3.6210632
0.53,6.183226,24.22285,13.721769,8.869988,-5.1909676,-3.7598352
0.532,6.4236774,24.37221,14.221895,8.8317795,-5.282727,-3.9016683
0.534,6.678906,24.508078,14.720923,8.788502,-5.368078,-4.0463204
0.536,6.9457693,24.631329,15.218502,8.740128,-5.4472837,-4.1935263
0.538,7.220819,24.742645,15.71491,8.686707,-5.5206075,-4.343003
0.54,7.5015125,24.842619,16.210377,8.628321,-5.588341,-4.4944935
0.542,7.7855806,24.931555,16.705055,8.565094,-5.6508017,-4.647747
0.544,8.070992,25.009665,17.19842,8.497173,-5.708329,-4.8025184
0.546,8.356335,25.076971,17.689796,8.424729,-5.7612934,-4.9585695
0.548,8.640244,25.133413,18.17841,8.347928,-5.810041,-5.115643
0.55,8.921883,25.17881,18.663528,8.26693,-5.854936,-5.2734356
0.552,9.2008,25.213018,19.144533,8.181879,-5.896349,-5.4316187
0.554,9.477102,25.235882,19.620747,8.0928955,-5.934612,-5.589851
0.556,9.751171,25.247046,20.091368,8.000064,-5.9700346,-5.747743
0.558,10.023437,25.246407,20.555664,7.903438,-6.0028515,-5.9048734
0.56,10.294676,25.233545,21.012646,7.803067,-6.0332837,-6.0608215
0.562,10.566371,25.207874,21.461315,7.6989756,-6.0614705,-6.215164
0.564,10.839818,25.169092,21.900484,7.591161,-6.087498,-6.3675013
0.566,11.116293,25.116796,22.328741,7.479598,-6.111429,-6.517462
0.568,11.3974,25.050695,22.744623,7.364256,-6.1332703,-6.664686
0.57,11.684805,24.970427,23.146593,7.2451186,-6.1530523,-6.808818
0.572,11.980392,24.875586,23.5329,7.1221323,-6.170795,-6.9495473
0.574,12.285116,24.767126,23.902649,6.9952865,-6.1865115,-7.0865574
0.576,12.602196,24.642387,24.253422,6.864573,-6.2002153,-7.219552
0.578,12.932108,24.501925,24.583105,6.7300167,-6.211882,-7.348315
0.58,13.276516,24.34515,24.890327,6.5916657,-6.221459,-7.472673
0.582,13.637143,24.17167,25.173092,6.4495697,-6.2288356,-7.5924788
0.584,14.014811,23.9819,25.429363,6.3038073,-6.2338247,-7.7076106
0.586,14.41237,23.774223,25.65939,6.1544576,-6.2361784,-7.8179483
0.588,14.829514,23.547487,25.857944,6.0016484,-6.2355695,-7.9233828
0.59,15.265877,23.302074,26.025854,5.845542,-6.2315774,-8.023761
0.592,15.723245,23.03666,26.162195,5.6863117,-6.2237597,-8.118894
0.594,16.201557,22.751303,26.265205,5.5241666,-6.2116113,-8.208527
0.596,16.70025,22.445454,26.33503,5.3593645,-6.1945963,-8.292399
0.598,17.218904,22.117998,26.370972,5.1921825,-6.1721807,-8.370239
0.6,17.75655,21.768139,26.372824,5.0229216,-6.143773,-8.44179
0.602,18.311914,21.395113,26.340801,4.8519163,-6.10883,-8.506811
0.604,18.883673,20.998276,26.275259,4.679503,-6.0667596,-8.5651655
0.606,19.469881,20.5768,26.177177,4.506031,-6.0168543,-8.616672
0.608,20.0683,20.130096,26.047459,4.331833,-5.9586773,-8.661165
0.61,20.676466,19.65784,25.88736,4.15728,-5.8917346,-8.698524
0.612,21.29156,19.159616,25.698145,3.982714,-5.815648,-8.728611
0.614,21.910217,18.635565,25.481485,3.808445,-5.7302237,-8.751297
0.616,22.528915,18.085697,25.239145,3.6348584,-5.6349916,-8.766332
0.618,23.14393,17.510727,24.973173,3.462309,-5.53006,-8.773385
0.62,23.751474,16.911425,24.685406,3.291196,-5.415845,-8.772196
0.622,24.347841,16.288887,24.377502,3.122011,-5.292541,-8.762314
0.624,24.929293,15.644409,24.051123,2.9551427,-5.160816,-8.743282
0.626,25.491962,14.9797735,23.707819,2.7910154,-5.0215263,-8.714674
0.628,26.032084,14.296954,23.349361,2.6300533,-4.8756733,-8.676096
0.63,26.545805,13.598339,22.977547,2.4726093,-4.7244616,-8.627168
0.632,27.029837,12.886557,22.594193,2.3190436,-4.5692325,-8.56752
0.634,27.481026,12.164509,22.200817,2.1696708,-4.411395,-8.496899
0.636,27.896631,11.435421,21.798971,2.024783,-4.252386,-8.415168
0.638,28.274574,10.702487,21.389849,1.8846734,-4.093572,-8.32231
0.64,28.612934,9.968988,20.974566,1.7496004,-3.9362133,-8.218405
0.642,28.910143,9.23838,20.553976,1.6198161,-3.7813978,-8.10364
0.644,29.165522,8.514005,20.129059,1.4955516,-3.629985,-7.978357
0.646,29.378536,7.799102,19.700731,1.377038,-3.4825482,-7.843027
0.648,29.549307,7.0968685,19.269724,1.2644842,-3.339412,-7.6982284
0.65,29.678404,6.410228,18.836779,1.1580904,-3.200593,-7.544611
0.652,29.766758,5.741972,18.40264,1.0580275,-3.065841,-7.3828754
0.654,29.81593,5.0945225,17.968023,0.9644649,-2.9347134,-7.2137427
0.656,29.827827,4.4698553,17.533228,0.87753606,-2.8065572,-7.037937
0.658,29.804798,3.8698797,17.098726,0.7973709,-2.680646,-6.8561406
0.66,29.749142,3.296071,16.665226,0.7240863,-2.5562475,-6.669073
0.662,29.663403,2.7496834,16.233114,0.65775084,-2.4324203,-6.4774194
0.664,29.550179,2.2315283,15.802853,0.598361,-2.3084207,-6.2818136
0.666,29.41201,1.7422199,15.374918,0.5458677,-2.1835754,-6.082893
0.668,29.251781,1.281723,14.949558,0.5001445,-2.0573134,-5.881282
0.67,29.07179,0.85026073,14.527149,0.46090984,-1.9295325,-5.6776967
0.672,28.874126,0.44764137,14.108379,0.4278494,-1.7998469,-5.472839
0.674,28.660969,0.07317448,13.6938095,0.40054655,-1.6680728,-5.267307
0.676,28.43436,-0.27380562,13.284036,0.37846887,-1.534632,-5.0618615
0.678,28.195717,-0.59431076,12.879591,0.36118865,-1.3997066,-4.857172
0.68,27.94635,-0.8893595,12.48095,0.34818792,-1.2636582,-4.653828
0.682,27.686977,-1.1601048,12.08887,0.33892643,-1.1269484,-4.452403
0.684,27.418688,-1.4086618,11.703266,0.33289433,-0.99001074,-4.253462
0.686,27.14018,-1.6339245,11.325532,0.32957172,-0.8533093,-4.0575547
0.688,26.853052,-1.8384218,10.956713,0.32844377,-0.71732306,-3.865139
0.69,26.556702,-2.023388,10.596708,0.32901025,-0.5825415,-3.676651
0.692,26.25045,-2.190075,10.246359,0.33080423,-0.44946748,-3.4924657
0.694,25.934238,-2.3404274,9.906263,0.33338135,-0.31859642,-3.3129117
0.696,25.605957,-2.4745312,9.5753,0.33634847,-0.19041657,-3.1382716
0.698,25.266363,-2.5931969,9.257368,0.33935177,-0.06540573,-2.9687614
0.7,24.915438,-2.6985016,8.95005,0.34211725,0.056004643,-2.804569
0.702,24.550817,-2.7909822,8.653921,0.3444442,0.17343783,-2.6458251
0.704,24.172256,-2.8721104,8.369978,0.3461944,0.28657243,-2.49263
0.706,23.779585,-2.9430065,8.097964,0.34729907,0.39514127,-2.3450541
0.708,23.372038,-3.004077,7.838272,0.3477282,0.49895674,-2.2031538
0.71,22.949604,-3.0559664,7.5909276,0.34750053,0.59785175,-2.0669827
0.712,22.512362,-3.099553,7.355848,0.34663665,0.6916965,-1.9366099
0.714,22.060198,-3.1353502,7.13303,0.34515524,0.7803816,-1.8121129
0.716,21.593801,-3.164092,6.9220514,0.3431068,0.8637987,-1.6935754
0.718,21.113897,-3.1861687,6.722839,0.3404974,0.94182825,-1.5810881
0.72,20.621231,-3.2021747,6.535338,0.33735123,1.0143644,-1.4747382
0.722,20.11724,-3.2124796,6.359219,0.33369866,1.0813184,-1.3746173
0.724,19.603056,-3.217503,6.1941442,0.3295874,1.1426585,-1.2807934
0.726,19.080395,-3.2174773,6.039813,0.3250492,1.19838,-1.1933131
0.728,18.55096,-3.2129087,5.8957214,0.3201172,1.2485073,-1.1121922
0.73,18.01659,-3.2038827,5.761548,0.31483257,1.2931058,-1.0374107
0.732,17.479048,-3.1906,5.6370115,0.30919522,1.3322928,-0.9689209
0.734,16.940353,-3.1730647,5.521838,0.3031988,1.3661873,-0.90664554
0.736,16.402565,-3.1515841,5.4155955,0.29681894,1.394943,-0.85047257
0.738,15.867724,-3.126103,5.3177967,0.29000968,1.4187418,-0.8002486
0.74,15.337752,-3.0967426,5.2278223,0.28270903,1.4378214,-0.7557878
0.742,14.814513,-3.0635996,5.144959,0.2748724,1.4524808,-0.7169008
0.744,14.299709,-3.0266633,5.0686564,0.2664651,1.4630725,-0.6833673
0.746,13.794916,-2.9861217,4.9985437,0.2574496,1.4699898,-0.65495205
0.748,13.301538,-2.9419398,4.934345,0.24784344,1.4736432,-0.6314264
0.75,12.821066,-2.8943615,4.8757505,0.23768777,1.4744593,-0.6125236
0.752,12.354669,-2.8435125,4.8226175,0.22703078,1.4728464,-0.59798175
0.754,11.903252,-2.78967,4.774617,0.21594232,1.4691925,-0.5875151
0.756,11.467639,-2.7332115,4.7315617,0.20449135,1.4638389,-0.5808485
0.758,11.048456,-2.6746206,4.693313,0.19273683,1.4570758,-0.57770693
0.76,10.646054,-2.6141891,4.6594563,0.18072873,1.4491526,-0.57781875
0.762,10.260467,-2.5524502,4.629561,0.16848916,1.4402711,-0.58091235
0.764,9.8914175,-2.489931,4.6033607,0.15601301,1.4306017,-0.58672845
0.766,9.538693,-2.427149,4.580648,0.14327341,1.4202509,-0.5950113
0.768,9.2018585,-2.3647733,4.561353,0.13020456,1.4092938,-0.6055075
0.77,8.880419,-2.3035142,4.5453176,0.11671963,1.3977757,-0.6179495
0.772,8.573604,-2.244122,4.532388,0.1027371,1.3857174,-0.63208294
0.774,8.28053,-2.1873033,4.522376,0.088173926,1.3731118,-0.6476593
0.776,8.000282,-2.1337707,4.5149665,0.07295275,1.3599434,-0.66438174
0.778,7.731447,-2.0841627,4.5100746,0.05700797,1.3461585,-0.68197703
0.78,7.4728985,-2.0391588,4.507632,0.040314436,1.3317077,-0.7001637
0.782,7.223372,-1.9991975,4.5075216,0.02287662,1.3165281,-0.718645
0.784,6.9814267,-1.9647214,4.5099306,0.004719764,1.3005501,-0.73712516
0.786,6.745639,-1.9361176,4.5149794,-0.014082074,1.2836709,-0.75528276
0.788,6.5150127,-1.913722,4.5226855,-0.033446014,1.265744,-0.7728188
0.79,6.287985,-1.8977094,4.5334425,-0.053280473,1.2465637,-0.78944844
0.792,6.063302,-1.8879597,4.5477395,-0.07352406,1.2258824,-0.80493426
0.794,5.8396287,-1.8843439,4.566483,-0.09411916,1.2034162,-0.8190542
0.796,5.6155276,-1.8864546,4.5905447,-0.115044,1.1788793,-0.8316205
0.798,5.389736,-1.8936223,4.6208606,-0.1363002,1.1520119,-0.8424889
0.8,5.161373,-1.9050553,4.658476,-0.15791532,1.1226144,-0.85154134
0.802,4.929082,-1.9199518,4.7041855,-0.17992464,1.0905814,-0.85864764
0.804,4.6918635,-1.9371663,4.7591467,-0.20238043,1.0558779,-0.86371285
0.806,4.448785,-1.9556592,4.824525,-0.22531618,1.0186008,-0.8666318
0.808,4.1988535,-1.9740702,4.901562,-0.24876985,0.9789421,-0.86730623
0.81,3.9411783,-1.9911456,4.9914594,-0.27276146,0.937184,-0.86564755
0.812,3.6748521,-2.005331,5.0953097,-0.29727334,0.8936955,-0.8616025
0.814,3.3989797,-2.0151384,5.2139606,-0.3222713,0.84892166,-0.8551297
0.816,3.1128578,-2.0190654,5.348051,-0.3477062,0.8033536,-0.8462304
0.818,2.8156652,-2.0154057,5.4979854,-0.37349626,0.75757587,-0.8349315
0.82,2.5065916,-2.0026786,5.664235,-0.39955157,0.71225905,-0.82128406
0.822,2.1851032,-1.9793458,5.846875,-0.42575356,0.66816765,-0.80537105
0.824,1.850888,-1.944017,6.045835,-0.4519617,0.6261581,-0.7872721
0.826,1.5032701,-1.8952352,6.260934,-0.4780202,0.5871668,-0.7670581
0.828,1.141971,-1.8318498,6.4916916,-0.50375956,0.55222315,-0.7447879
0.83,0.7666201,-1.752637,6.737407,-0.528991,0.5223753,-0.7205306
0.832,0.37672275,-1.656546,6.997495,-0.553524,0.49868056,-0.6943335
0.834,-0.027870774,-1.5426941,7.271005,-0.57718885,0.48217455,-0.66627437
0.836,-0.447272,-1.4102155,7.5568085,-0.59982985,0.4738323,-0.63643223
0.838,-0.8816475,-1.2584107,7.853693,-0.621323,0.47452337,-0.6049328
0.84,-1.3308252,-1.0867949,8.160122,-0.6416029,0.48499632,-0.57197285
0.842,-1.7946246,-0.8951006,8.474736,-0.66065025,0.50588226,-0.5378021
0.844,-2.2729788,-0.6830176,8.796074,-0.6785074,0.5376404,-0.50274765
0.846,-2.7653706,-0.4503373,9.122617,-0.6952739,0.5805286,-0.4671927
0.848,-3.2713518,-0.19718742,9.452672,-0.71111524,0.63461894,-0.4315864
0.85,-3.7900236,0.07623553,9.784639,-0.7262497,0.69980234,-0.39646107
0.852,-4.320567,0.369776,10.116554,-0.7409345,0.7757938,-0.3623988
0.854,-4.861873,0.68305194,10.446762,-0.75543886,0.8621703,-0.3300395
0.856,-5.4126654,1.0156121,10.77361,-0.7700697,0.9583875,-0.30008066
0.858,-5.971573,1.3668412,11.095608,-0.78514594,1.0637916,-0.27322137
0.86,-6.536991,1.7361218,11.411286,-0.8009921,1.1776114,-0.25019258
0.862,-7.1072845,2.1226234,11.7192,-0.81792754,1.2990178,-0.23173767
0.864,-7.680375,2.5256062,12.017747,-0.83626443,1.427089,-0.21858758
0.866,-8.254313,2.9440274,12.305355,-0.856292,1.5608274,-0.21145725
0.868,-8.826551,3.3769228,12.58091,-0.8782647,1.6991556,-0.21107355
0.87,-9.394466,3.8227093,12.843258,-0.9023802,1.8409581,-0.21813077
0.872,-9.955653,4.280076,13.091332,-0.92881334,1.9850266,-0.23331481
0.874,-10.507563,4.7476716,13.324207,-0.9576952,2.1301124,-0.2572853
0.876,-11.04775,5.2239714,13.54089,-0.98911667,2.274897,-0.29066932
0.878,-11.573778,5.7071996,13.740741,-1.0231419,2.418024,-0.33405918
0.88,-12.083441,6.195679,13.922756,-1.0598156,2.558103,-0.3879568
0.882,-12.574301,6.6873536,14.086357,-1.0991575,2.6936512,-0.4528073
0.884,-13.044218,7.1801786,14.231188,-1.141181,2.8231425,-0.52897894
0.886,-13.491267,7.671924,14.356883,-1.1858952,2.9449635,-0.61673236
0.888,-13.913468,8.160532,14.462885,-1.2332883,3.057405,-0.716225
0.89,-14.309142,8.643639,14.548853,-1.2834032,3.1586823,-0.8275275
0.892,-14.676974,9.118875,14.614542,-1.3362923,3.2469482,-0.9505773
0.894,-15.015759,9.583794,14.659785,-1.3920202,3.3203197,-1.0852127
0.896,-15.3249,10.036011,14.684673,-1.4506958,3.3769224,-1.2311611
0.898,-15.603966,10.473181,14.689695,-1.5124345,3.4149442,-1.3880551
0.9,-15.852479,10.893045,14.6752205,-1.5773722,3.432775,-1.5554438
0.902,-16.070253,11.293274,14.641642,-1.645653,3.4289904,-1.7327871
0.904,-16.257399,11.672011,14.589556,-1.7173994,3.4024737,-1.9194224
0.906,-16.413942,12.027394,14.519976,-1.7927243,3.3524528,-2.1146426
0.908,-16.540102,12.357533,14.434285,-1.8717153,3.2785485,-2.3176308
0.91,-16.636265,12.660861,14.334372,-1.9544085,3.1808283,-2.5275154
0.912,-16.702627,12.936249,14.222309,-2.0407777,3.0597882,-2.7433538
0.914,-16.739319,13.182621,14.100109,-2.1307287,2.9163394,-2.964152
0.916,-16.74651,13.399397,13.970211,-2.224128,2.7517674,-3.1888747
0.918,-16.724262,13.585893,13.835131,-2.3207588,2.5677176,-3.4164639
0.92,-16.672722,13.742028,13.6978035,-2.420355,2.3661082,-3.6458702
0.922,-16.591928,13.867989,13.561258,-2.5225835,2.1491015,-3.8760598
0.924,-16.481724,13.964076,13.42856,-2.6270683,1.9190359,-4.1060395
0.926,-16.341532,14.030932,13.30255,-2.7333918,1.6784325,-4.334874
0.928,-16.17104,14.069149,13.186275,-2.8411078,1.4299082,-4.561706
0.93,-15.969291,14.079714,13.082189,-2.9497652,1.1761435,-4.785757
0.932,-15.735798,14.063502,12.992706,-3.058903,0.91989684,-5.0063233
0.934,-15.470739,14.021802,12.919985,-3.168075,0.66391754,-5.2228127
0.936,-15.173274,13.956003,12.865456,-3.2768493,0.41098046,-5.434695
0.938,-14.843305,13.867761,12.830542,-3.3848338,0.16382241,-5.641508
0.94,-14.480568,13.758532,12.815979,-3.4916596,-0.07486081,-5.8428507
0.942,-14.084995,13.630041,12.821616,-3.5969813,-0.3024187,-6.0383596
0.944,-13.6567,13.483971,12.847271,-3.7004457,-0.51626396,-6.2277117
0.946,-13.196469,13.322026,12.8923235,-3.8016891,-0.7138846,-6.4106426
0.948,-12.704696,13.145937,12.95574,-3.9003386,-0.8928399,-6.586896
0.95,-12.182442,12.957322,13.035854,-3.9959545,-1.0508099,-6.7562923
0.952,-11.6306715,12.757882,13.130486,-4.0880594,-1.1856084,-6.9187083
0.954,-11.050453,12.549169,13.237242,-4.1760826,-1.2953105,-7.0741034
0.956,-10.443301,12.33264,13.35378,-4.259419,-1.3781726,-7.2225547
0.958,-9.810619,12.109848,13.477629,-4.337389,-1.4327905,-7.36422
0.96,-9.154034,11.882359,13.606165,-4.4092464,-1.4580615,-7.499335
0.962,-8.474935,11.651432,13.737062,-4.474249,-1.4532576,-7.6282816
0.964,-7.774959,11.418659,13.8675,-4.53161,-1.4180593,-7.751494
0.966,-7.055425,11.185471,13.994915,-4.5805664,-1.3526106,-7.8695354
0.968,-6.3176794,10.953051,14.116705,-4.620428,-1.2575645,-7.983082
0.97,-5.5632315,10.723032,14.230841,-4.6505585,-1.1340568,-8.092859
0.972,-4.7931395,10.497144,14.335733,-4.67043,-0.9837692,-8.199682
0.974,-4.0086875,10.276808,14.430545,-4.6796546,-0.80891204,-8.304418
0.976,-3.2111154,10.063821,14.51457,-4.678007,-0.6122532,-8.407959
0.978,-2.401827,9.859859,14.586918,-4.6654367,-0.39707828,-8.511194
0.98,-1.5822226,9.66692,14.647384,-4.6420684,-0.1671567,-8.614979
0.982,-0.753217,9.486767,14.695862,-4.6082125,0.07335353,-8.720091
0.984,0.083994746,9.321448,14.732704,-4.5643144,0.32001257,-8.827237
0.986,0.92810535,9.173126,14.758558,-4.5109606,0.5681393,-8.937016
0.988,1.7780559,9.044252,14.774239,-4.448823,0.8130021,-9.049927
0.99,2.6326363,8.937257,14.781303,-4.378641,1.0498786,-9.166376
0.992,3.4907432,8.854635,14.781271,-4.3011856,1.2742081,-9.286709
0.994,4.351511,8.798972,14.775751,-4.217267,1.4816434,-9.411249
0.996,5.213998,8.7728615,14.766947,-4.127721,1.6681638,-9.540285
0.998,6.077912,8.7785635,14.757032,-4.033392,1.8301256,-9.674076
1,6.942991,8.818378,14.748039,-3.935131,1.9643588,-9.812824
1.002,7.8094134,8.894381,14.74241,-3.8337655,2.0681713,-9.956755
1.004,8.67806,9.008259,14.742737,-3.7301154,2.1393352,-10.106042
1.006,9.550971,9.161435,14.751659,-3.624994,2.176161,-10.260782
1.008,10.429875,9.353833,14.770269,-3.5191662,2.1774912,-10.420983
1.01,11.315497,9.587074,14.8021555,-3.4133644,2.1425989,-10.586531
1.012,12.21203,9.860571,14.848756,-3.308312,2.0712266,-10.757231
1.014,13.122242,10.171885,14.91074,-3.2046914,1.9635146,-10.9327545
1.016,14.046679,10.52105,14.990331,-3.1031194,1.819973,-11.112634
1.018,14.9868,10.908882,15.094039,-3.00424,1.6414573,-11.296289
1.02,15.949696,11.331718,15.223297,-2.9086301,1.4291801,-11.482998
1.022,16.943075,11.785162,15.376194,-2.8168006,1.1846435,-11.6719055
1.024,17.964718,12.271042,15.555075,-2.7292385,0.9095342,-11.862072
1.026,19.018911,12.78436,15.763955,-2.6463566,0.605798,-12.052443
1.028,20.111938,13.321131,16.00278,-2.5684657,0.27558088,-12.241882
1.03,21.246208,13.878212,16.271128,-2.495781,-0.07883048,-12.429223
1.032,22.421623,14.454887,16.572124,-2.4284008,-0.4550476,-12.6132965
1.034,23.641985,15.046004,16.907492,-2.3662572,-0.850554,-12.792965
1.036,24.909798,15.648878,17.276615,-2.3091917,-1.2627728,-12.9672165
1.038,26.22486,16.262142,17.679916,-2.2569904,-1.6894915,-13.134986
1.04,27.58765,16.882793,18.11853,-2.2092233,-2.1282442,-13.295347
1.042,28.996967,17.510212,18.59409,-2.1653867,-2.5766907,-13.44754
1.044,30.452942,18.142557,19.10748,-2.1249113,-3.0326133,-13.590765
1.046,31.95476,18.778046,19.658352,-2.0871654,-3.4940927,-13.724308
1.048,33.500565,19.415926,20.246502,-2.051433,-3.959523,-13.847653
1.05,35.087708,20.055593,20.871706,-2.0168934,-4.4271026,-13.960096
1.052,36.713562,20.695934,21.533422,-1.9828057,-4.895346,-14.060701
1.054,38.374714,21.336031,22.230762,-1.9485416,-5.36345,-14.148844
1.056,40.066963,21.97588,22.96235,-1.9134693,-5.830577,-14.22371
1.058,41.786568,22.6146,23.726673,-1.8771214,-6.2958517,-14.284231
1.06,43.530476,23.251284,24.52097,-1.8391356,-6.7587194,-14.329352
1.062,45.294285,23.885342,25.342056,-1.7991781,-7.218919,-14.358225
1.064,47.07375,24.515642,26.187023,-1.7568803,-7.675929,-14.369947
1.066,48.864887,25.140285,27.051987,-1.7119865,-8.129238,-14.363621
1.068,50.66374,25.757065,27.93266,-1.6643186,-8.5784,-14.33853
1.07,52.464966,26.364058,28.825176,-1.6137109,-9.022744,-14.294037
1.072,54.264496,26.958736,29.724812,-1.5600333,-9.461528,-14.229722
1.074,56.05839,27.538229,30.627779,-1.5031452,-9.893847,-14.145292
1.076,57.842506,28.100054,31.53011,-1.4428535,-10.318697,-14.040472
1.078,59.61302,28.641727,32.42835,-1.3789468,-10.735067,-13.9150505
1.08,61.36648,29.160894,33.318962,-1.31113,-11.142016,-13.768922
1.082,63.099648,29.655315,34.198666,-1.2391067,-11.538712,-13.601902
1.084,64.80963,30.123234,35.064373,-1.1624553,-11.924454,-13.413754
1.086,66.49386,30.563148,35.913666,-1.0806935,-12.298713,-13.204254
1.088,68.149826,30.973804,36.74487,-0.9932139,-12.661166,-12.973155
1.09,69.77542,31.354795,37.556633,-0.8992448,-13.011699,-12.720082
1.092,71.368744,31.70651,38.34829,-0.7979101,-13.350017,-12.44483
1.094,72.92802,32.02973,39.11935,-0.68836975,-13.67622,-12.147211
1.096,74.45196,32.326374,39.869934,-0.5696213,-13.990246,-11.827015
1.098,75.93906,32.59974,40.600758,-0.4405806,-14.291988,-11.484175
1.1,77.38839,32.854187,41.312824,-0.30009586,-14.5810995,-11.118558
1.102,78.79909,33.09536,42.00744,-0.14698994,-14.857169,-10.729958
1.104,80.170494,33.330273,42.68622,0.01998077,-15.120018,-10.318459
1.106,81.50247,33.56781,43.3507,0.20220858,-15.369106,-9.884327
1.108,82.794815,33.81845,44.002888,0.4012,-15.603425,-9.427606
1.11,84.0481,34.094086,44.645214,0.618366,-15.822233,-8.948773
1.112,85.262344,34.409035,45.28091,0.8551463,-16.024757,-8.448717
1.114,86.437485,34.77864,45.91359,1.1128973,-16.209854,-7.928419
1.116,87.572624,35.21949,46.547424,1.3927681,-16.376163,-7.3888807
1.118,88.6689,35.749912,47.187317,1.6957324,-16.52255,-6.8313637
1.12,89.72731,36.38776,47.835884,2.022718,-16.647795,-6.257136
1.122,90.74711,37.153698,48.498505,2.3744402,-16.75074,-5.6672697
1.124,91.730705,38.069294,49.181923,2.7514174,-16.830534,-5.0627375
1.126,92.682526,39.15428,49.88818,3.1539793,-16.886597,-4.444217
1.128,93.60515,40.42958,50.615112,3.5822077,-16.918795,-3.8121638
1.13,94.49564,41.91812,51.368034,4.035952,-16.92729,-3.166946
1.132,95.350235,43.648678,52.153324,4.5148897,-16.91259,-2.508722
1.134,96.16623,45.655758,52.96811,5.0184383,-16.875568,-1.837493
1.136,96.96106,47.92639,53.817772,5.5458145,-16.817354,-1.1531668
1.138,97.74809,50.48076,54.733368,6.095983,-16.739187,-0.4555083
1.14,98.531235,53.350063,55.70892,6.667656,-16.64225,0.2559973
1.142,99.31103,56.570393,56.701138,7.2592707,-16.52762,0.982085
1.144,100.10574,60.145813,57.689903,7.8690376,-16.396065,1.7236764
1.146,100.91254,64.07674,58.696342,8.495094,-16.247984,2.482175
1.148,101.71117,68.37444,59.71974,9.135498,-16.083326,3.2595139
1.15,102.53607,73.022964,60.775658,9.78822,-15.901452,4.0579653
1.152,103.389404,78.02018,61.865303,10.451191,-15.700875,4.8802094
1.154,104.26694,83.381584,62.960686,11.122271,-15.479495,5.7293887
1.156,105.179436,89.11804,64.02974,11.799519,-15.234231,6.6088586
1.158,106.110825,95.22993,65.06238,12.481045,-14.961199,7.522171
1.16,106.99747,101.6683,66.14575,13.164826,-14.65591,8.473199
1.162,107.8761,108.37196,67.33275,13.848958,-14.313395,9.4657
1.164,108.75485,115.298096,68.652985,14.531539,-13.928111,10.502794
1.166,109.74487,122.388176,70.10346,15.209929,-13.492738,11.589245
1.168,110.93221,129.63954,71.59722,15.88158,-12.99887,12.731887
1.17,112.273895,137.0439,73.07653,16.546638,-12.435192,13.937582
1.172,113.734,144.55511,74.53653,17.20637,-11.787844,15.212042
1.174,115.33653,152.13683,75.95532,17.857487,-11.045496,16.55943
1.176,117.0898,159.6991,77.37485,18.49296,-10.197147,17.982544
1.178,118.9892,167.12657,78.874115,19.107811,-9.225731,19.48243
1.18,121.07659,174.32143,80.49577,19.698805,-8.110272,21.060041
1.182,123.38432,181.23824,82.264984,20.2597,-6.8308206,22.713722
1.184,125.95129,187.8491,84.181305,20.781523,-5.3670816,24.437649
1.186,128.81137,194.08371,86.20218,21.252766,-3.6998825,26.21912
1.188,131.9979,199.86824,88.28003,21.65837,-1.8146305,28.035858
1.19,135.53795,205.1084,90.402435,21.97994,0.30004406,29.8634
1.192,139.45178,209.69356,92.543884,22.196182,2.653741,31.67868
1.194,143.71426,213.57983,94.704414,22.286747,5.2496805,33.4485
1.196,148.3223,216.74258,96.83507,22.230343,8.071511,35.126926
1.198,153.30103,219.14214,98.84206,22.007252,11.100353,36.678463
1.2,158.66708,220.73584,100.636734,21.606703,14.308641,38.071674
1.202,164.41756,221.50288,102.131615,21.03036,17.662964,39.27854
1.204,170.53389,221.45612,103.269455,20.29176,21.122503,40.273693
1.206,176.98476,220.66806,104.01356,19.398506,24.616669,41.00967
1.208,183.738,219.19664,104.28013,18.370304,28.079025,41.46995
1.21,190.74545,217.09094,103.959854,17.244383,31.434376,41.664455
1.212,197.9298,214.41501,102.95763,16.065403,34.602562,41.60623
1.214,205.19295,211.24269,101.191216,14.88114,37.495888,41.296947
1.216,212.42586,207.65,98.59105,13.73706,40.027874,40.720203
1.218,219.50957,203.71336,95.10529,12.668472,42.116795,39.84551
1.22,226.31764,199.50784,90.70442,11.698066,43.692307,38.63942
1.222,232.71503,195.10442,85.37889,10.838284,44.709084,37.07388
1.224,238.56512,190.56213,79.1411,10.088748,45.154858,35.127964
1.226,243.74174,185.92467,72.01691,9.441457,45.05959,32.78988
1.228,248.12524,181.23457,64.06597,8.888422,44.493324,30.062052
1.23,251.60861,176.52492,55.38755,8.416306,43.54734,26.96318
1.232,254.10847,171.82077,46.11062,8.002745,42.320244,23.530613
1.234,255.5585,167.14397,36.39528,7.6199718,40.912415,19.820595
1.236,255.9101,162.51254,26.423035,7.2391925,39.415215,15.90638
1.238,255.14153,157.93427,16.377823,6.8274465,37.89325,11.875712
1.24,253.2618,153.4076,6.4417267,6.342205,36.369476,7.834566
1.242,250.3069,148.92453,-3.1950684,5.7310543,34.823616,3.9072685
1.244,246.34367,144.47903,-12.336777,4.934488,33.19553,0.22404385
1.246,241.4405,140.12111,-20.805115,3.8938322,31.395565,-3.0852466
1.248,235.69942,135.86707,-28.451416,2.559863,29.32588,-5.8896737
1.25,229.25465,131.72597,-35.112625,0.9066067,26.906635,-8.073221
1.252,222.25359,127.70454,-40.63761,-1.0626564,24.076527,-9.566573
1.254,214.82811,123.84523,-44.94433,-3.316154,20.817806,-10.341877
1.256,207.13316,120.182,-48.02157,-5.79446,17.162388,-10.416056
1.258,199.33018,116.72796,-49.864346,-8.410888,13.193878,-9.851013
1.26,191.51561,113.51294,-50.511883,-11.048277,9.055474,-8.735945
1.262,183.81453,110.54089,-50.014843,-13.593187,4.903654,-7.22482
1.264,176.34407,107.802505,-48.429817,-15.94595,0.9131694,-5.495239
1.266,169.18648,105.302155,-45.849606,-18.017754,-2.7429426,-3.7097046
1.268,162.43294,103.05359,-42.42038,-19.738205,-5.907198,-2.0011816
1.27,156.18456,101.10018,-38.372253,-21.060429,-8.459014,-0.4695692
1.272,150.41689,99.471344,-33.8762,-21.961596,-10.322019,0.8152479
1.274,145.13402,98.15599,-29.075724,-22.444727,-11.468792,1.8086048
1.276,140.25078,97.14413,-24.08801,-22.539007,-11.922939,2.4943252
1.278,135.7332,96.37056,-18.970665,-22.290728,-11.751369,2.8877273
1.28,131.65765,95.78922,-13.835326,-21.75756,-11.053894,3.0294466
1.282,128.0509,95.39472,-8.840894,-21.004051,-9.945013,2.9762104
1.284,124.861694,95.17071,-4.111281,-20.093317,-8.538692,2.7935526
1.286,122.05364,95.14403,0.19859815,-19.084328,-6.9445324,2.5472932
1.288,119.59535,95.34093,3.9502988,-18.030231,-5.2641916,2.296659
1.29,117.41304,95.74988,7.086909,-16.977589,-3.5847194,2.0936096
1.292,115.45374,96.31164,9.593514,-15.964893,-1.9730885,1.979394
1.294,113.66706,96.97078,11.489919,-15.019213,-0.47118378,1.9780438
1.296,112.01636,97.72528,12.831024,-14.156934,0.8994775,2.0956154
1.298,110.46971,98.57458,13.661266,-13.386059,2.1325543,2.3244817
1.3,109.00421,99.53162,13.9873705,-12.709737,3.2334497,2.6464765
1.302,107.60232,100.61112,13.833262,-12.128066,4.2152567,3.035303
1.304,106.27819,101.76224,13.204575,-11.638294,5.094394,3.460343
1.306,105.00905,102.93567,12.156762,-11.234945,5.8867497,3.8905828
1.308,103.74457,104.11266,10.769402,-10.909361,6.605686,4.2978272
1.31,102.449066,105.28213,9.094015,-10.64953,7.2616396,4.6591735
1.312,101.10556,106.41838,7.167444,-10.4436,7.8621135,4.9595165
1.314,99.70482,107.47719,4.9965935,-10.282108,8.40972,5.1928034
1.316,98.23903,108.38631,2.5838985,-10.157707,8.90273,5.360923
1.318,96.69244,109.11919,-0.012746811,-10.065377,9.336437,5.4723077
1.32,95.05726,109.67297,-2.717968,-10.002673,9.704141,5.5390267
1.322,93.34213,110.03894,-5.4777107,-9.969238,9.998763,5.572731
1.324,91.55908,110.20772,-8.248056,-9.965814,10.214286,5.5812793
1.326,89.715195,110.17472,-10.988155,-9.993656,10.345569,5.5673923
1.328,87.81588,109.939316,-13.660692,-10.054541,10.388066,5.5298095
1.33,85.86602,109.50359,-16.231823,-10.150566,10.338014,5.466132
1.332,83.874435,108.87227,-18.666674,-10.284016,10.192705,5.3761168
1.334,81.84985,108.058914,-20.92923,-10.456265,9.950976,5.2623935
1.336,79.795364,107.08245,-22.978273,-10.666603,9.6142025,5.1286235
1.338,77.716,105.95487,-24.78702,-10.912002,9.186726,4.979033
1.34,75.62036,104.68929,-26.345041,-11.187331,8.675981,4.818885
1.342,73.5114,103.300285,-27.646679,-11.485639,8.092227,4.654133
1.344,71.397644,101.80095,-28.693867,-11.798649,7.4478507,4.4902124
1.346,69.29373,100.2051,-29.48588,-12.117575,6.7564826,4.3314276
1.348,67.21184,98.53377,-30.013468,-12.433733,6.0327206,4.181459
1.35,65.16017,96.81413,-30.267647,-12.739052,5.291518,4.043956
1.352,63.147835,95.06957,-30.252659,-13.026493,4.5474534,3.9226975
1.354,61.181572,93.31407,-29.983292,-13.289935,3.8145065,3.821198
1.356,59.264645,91.5572,-29.47797,-13.524434,3.1053586,3.7424135
1.358,57.398613,89.80442,-28.756672,-13.726454,2.4309435,3.6884851
1.36,55.58507,88.068115,-27.838646,-13.89351,1.80072,3.6607475
1.362,53.826683,86.36779,-26.74226,-14.023991,1.2224745,3.659708
1.364,52.12725,84.722855,-25.485962,-14.117058,0.70215964,3.684744
1.366,50.49153,83.15175,-24.08976,-14.172548,0.24396205,3.7340903
1.368,48.923294,81.6726,-22.576208,-14.190817,-0.14942813,3.8052058
1.37,47.42594,80.30223,-20.970753,-14.172682,-0.4765904,3.8949766
1.372,46.00054,79.05098,-19.300358,-14.119232,-0.7372222,3.9999475
1.374,44.641884,77.9208,-17.590887,-14.031826,-0.93195295,4.116502
1.376,43.34669,76.90542,-15.864712,-13.911951,-1.0621676,4.240984
1.378,42.10941,75.99706,-14.140262,-13.76117,-1.1298723,4.369877
1.38,40.923466,75.191864,-12.438651,-13.581177,-1.1376903,4.4999094
1.382,39.787,74.484406,-10.779549,-13.373816,-1.0888202,4.628111
1.384,38.696632,73.871086,-9.17786,-13.141063,-0.9869554,4.751768
1.386,37.64932,73.34856,-7.6453037,-12.885053,-0.83633375,4.8684177
1.388,36.643078,72.912796,-6.1945105,-12.608111,-0.64170885,4.9758253
1.39,35.675808,72.55845,-4.837735,-12.312817,-0.40828395,5.072014
1.392,34.744823,72.277596,-3.5852804,-12.001915,-0.1416204,5.1552887
1.394,33.847137,72.059906,-2.4452102,-11.678324,0.15247655,5.224284
1.396,32.978874,71.89432,-1.4235039,-11.344975,0.46816015,5.278102
1.398,32.136944,71.769424,-0.5245662,-11.004774,0.7997401,5.3163733
1.4,31.318102,71.67465,0.24820924,-10.660497,1.1418762,5.339322
1.402,30.520273,71.59942,0.89322805,-10.314707,1.4897738,5.3477774
1.404,29.74009,71.53405,1.4090285,-9.969652,1.8393716,5.343177
1.406,28.975101,71.4698,1.7962427,-9.627232,2.187489,5.3274283
1.408,28.223612,71.39838,2.055522,-9.288934,2.5320215,5.30271
1.41,27.483555,71.312546,2.1880255,-8.955915,2.8718522,5.2712903
1.412,26.75278,71.206024,2.1951537,-8.629026,3.2067988,5.235325
1.414,26.028858,71.073166,2.079433,-8.308939,3.5374084,5.196708
1.416,25.309526,70.9091,1.8442025,-7.9962616,3.864693,5.156955
1.418,24.592402,70.70997,1.4932151,-7.6915946,4.189855,5.1171403
1.42,23.875053,70.47304,1.0307307,-7.3956776,4.51404,5.077948
1.422,23.156082,70.19605,0.46208096,-7.109359,4.838173,5.0397525
1.424,22.43424,69.87756,-0.20744228,-6.833571,5.1627836,5.002747
1.426,21.708588,69.51766,-0.9720173,-6.569358,5.4878883,4.967128
1.428,20.978899,69.11714,-1.8253508,-6.317763,5.812912,4.9331865
1.43,20.245895,68.677185,-2.7605,-6.0797668,6.1366835,4.9014225
1.432,19.510117,68.19984,-3.7697878,-5.8561583,6.4574695,4.8725543
1.434,18.77281,67.68763,-4.845044,-5.6475205,6.773213,4.847458
1.436,18.03528,67.143585,-5.9777756,-5.454054,7.081518,4.8271375
1.438,17.299194,66.570885,-7.1592913,-5.275688,7.3797297,4.8124776
1.44,16.566877,65.97241,-8.381062,-5.112101,7.6651554,4.8040195
1.442,15.84123,65.35077,-9.634366,-4.962715,7.9351664,4.8018174
1.444,15.124683,64.70847,-10.910853,-4.826792,8.187265,4.8053503
1.446,14.420296,64.04759,-12.201612,-4.70351,8.419153,4.8134103
1.448,13.731373,63.370064,-13.497763,-4.592067,8.628717,4.8241687
1.45,13.060616,62.677567,-14.79047,-4.491748,8.814019,4.835229
1.452,12.410631,61.971584,-16.071144,-4.4019976,8.973188,4.8438344
1.454,11.783764,61.25349,-17.332043,-4.3223753,9.104506,4.847107
1.456,11.1821785,60.524376,-18.565907,-4.252578,9.206343,4.842237
1.458,10.607473,59.784946,-19.765648,-4.192398,9.277136,4.8265915
1.46,10.060635,59.036114,-20.924454,-4.141674,9.315488,4.7979784
1.462,9.5425415,58.278248,-22.036512,-4.100198,9.320213,4.754847
1.464,9.053549,57.51146,-23.096802,-4.0676584,9.290449,4.696311
1.466,8.593306,56.735855,-24.100746,-4.0435414,9.225806,4.622204
1.468,8.161312,55.95146,-25.04454,-4.0271025,9.126484,4.5329714
1.47,7.7565784,55.158295,-25.925194,-4.017319,8.993381,4.4296427
1.472,7.3775997,54.356102,-26.740332,-4.0129166,8.828196,4.313692
1.474,7.0227146,53.544598,-27.488493,-4.012376,8.633374,4.18692
1.476,6.690197,52.7237,-28.169155,-4.0139904,8.412068,4.0513124
1.478,6.3779507,51.893726,-28.78272,-4.0159364,8.168054,3.9088552
1.48,6.0838833,51.05506,-29.330345,-4.016284,7.9056516,3.7614303
1.482,5.806017,50.208504,-29.81416,-4.013095,7.6295795,3.6107483
1.484,5.542406,49.355038,-30.237427,-4.0045247,7.344752,3.4582152
1.486,5.2909927,48.495457,-30.603973,-3.9888859,7.056046,3.304871
1.488,5.05023,47.63037,-30.918327,-3.964651,6.768083,3.1513875
1.49,4.8183365,46.760223,-31.185476,-3.9306815,6.485126,2.9980204
1.492,4.5937138,45.88543,-31.41071,-3.8861618,6.2108517,2.844798
1.494,4.3748503,45.006153,-31.599438,-3.8306499,5.948128,2.691595
1.496,4.1603155,44.122383,-31.757631,-3.7641206,5.699026,2.5381794
1.498,3.9484158,43.234215,-31.891148,-3.6869347,5.4646993,2.3842528
1.5,3.7377214,42.341885,-32.005898,-3.5998254,5.2454042,2.229546
1.502,3.5272417,41.445366,-32.1074,-3.503855,5.0405746,2.073849
1.504,3.3159313,40.544636,-32.200096,-3.4003487,4.84889,1.9170386
1.506,3.102622,39.63973,-32.287704,-3.2908125,4.668437,1.7590214
1.508,2.8865633,38.730892,-32.37318,-3.176908,4.496781,1.599723
1.51,2.6671247,37.818188,-32.45831,-3.060348,4.3311996,1.439053
1.512,2.4432726,36.902206,-32.54452,-2.942831,4.1688743,1.2769873
1.514,2.215845,35.983116,-32.63154,-2.8259583,4.006982,1.1134698
1.516,1.9848404,35.061375,-32.719303,-2.7111962,3.8428452,0.94839436
1.518,1.7499046,34.13755,-32.806763,-2.5998056,3.6740656,0.78170276
1.52,1.5113182,33.212124,-32.892086,-2.4928,3.4985542,0.6134254
1.522,1.2698517,32.285984,-32.973114,-2.3909237,3.3145835,0.44370115
1.524,1.0262632,31.36063,-33.047325,-2.2946482,3.1207776,0.27278048
1.526,0.7813835,30.437277,-33.111664,-2.204161,2.9160619,0.10106671
1.528,0.53665924,29.51729,-33.163094,-2.1193876,2.6997204,-0.070944905
1.53,0.29328728,28.60234,-33.198177,-2.0400534,2.471313,-0.24265823
1.532,0.052253723,27.694618,-33.21366,-1.9657247,2.2306817,-0.4133725
1.534,-0.18500137,26.79626,-33.205822,-1.8958342,1.9779019,-0.5823378
1.536,-0.4167757,25.909195,-33.17131,-1.8297184,1.7132888,-0.74877816
1.538,-0.64159584,25.035662,-33.10701,-1.7666245,1.4374149,-0.9118882
1.54,-0.85816765,24.178453,-33.01006,-1.7057719,1.1511286,-1.0708654
1.542,-1.0646744,23.340137,-32.87782,-1.6463261,0.8555435,-1.2249459
1.544,-1.2596674,22.523245,-32.708244,-1.5874331,0.551981,-1.3734424
1.546,-1.4415579,21.730251,-32.49978,-1.5282283,0.24198645,-1.515815
1.548,-1.6088448,20.963545,-32.250885,-1.4678203,-0.07269257,-1.6517296
1.55,-1.76051,20.22563,-31.960638,-1.4053422,-0.39018115,-1.7810541
1.552,-1.8954453,19.518833,-31.628738,-1.3400072,-0.70848936,-1.9038212
1.554,-2.0123663,18.845303,-31.255104,-1.2710865,-1.0256044,-2.020336
1.556,-2.1102705,18.207054,-30.84054,-1.1979287,-1.339509,-2.1311464
1.558,-2.1885924,17.605623,-30.38631,-1.1200247,-1.6482496,-2.2369945
1.56,-2.246688,17.042215,-29.894133,-1.037014,-1.9499781,-2.3387632
1.562,-2.284092,16.51778,-29.366203,-0.94864476,-2.2429872,-2.4374423
1.564,-2.3002028,16.032558,-28.804771,-0.8548002,-2.5257175,-2.53404
1.566,-2.2951298,15.586544,-28.212538,-0.7554838,-2.7967622,-2.6295238
1.568,-2.2687573,15.179353,-27.592392,-0.6507851,-3.0548718,-2.7247722
1.57,-2.2214622,14.810333,-26.947468,-0.5408817,-3.2989507,-2.8205256
1.572,-2.1535926,14.4784355,-26.280556,-0.4260031,-3.5280883,-2.917377
1.574,-2.065545,14.182286,-25.594818,-0.3064155,-3.74154,-3.0157738
1.576,-1.957869,13.920333,-24.893204,-0.18240511,-3.9387455,-3.115998
1.578,-1.831316,13.690595,-24.178627,-0.054279804,-4.1193314,-3.2181802
1.58,-1.6867657,13.491096,-23.453728,0.077646375,-4.2830987,-3.32235
1.582,-1.525054,13.319622,-22.721075,0.21304941,-4.4300365,-3.4284303
1.584,-1.3471141,13.173792,-21.983088,0.3515911,-4.560324,-3.5362704
1.586,-1.1540208,13.051282,-21.241755,0.4929452,-4.6742935,-3.6456902
1.588,-0.94686127,12.949619,-20.49906,0.6367816,-4.772429,-3.7564764
1.59,-0.72690487,12.866534,-19.756653,0.7827635,-4.8553104,-3.8683977
1.592,-0.4952569,12.799865,-19.015776,0.93059134,-4.9235983,-3.9812427
1.594,-0.25319147,12.7474165,-18.277489,1.079983,-4.978012,-4.094791
1.596,-0.0017251968,12.707167,-17.542606,1.2306976,-5.0192723,-4.208852
1.598,0.25776672,12.677246,-16.811777,1.3825471,-5.0480776,-4.32323
1.6,0.5243783,12.655807,-16.08559,1.5354316,-5.0650573,-4.4377213
1.602,0.79681826,12.641343,-15.3643,1.6892933,-5.0707946,-4.552102
1.604,1.0740552,12.63249,-14.648268,1.8441845,-5.0657883,-4.6661744
1.606,1.3553238,12.627923,-13.937688,2.0002525,-5.050454,-4.7797847
1.608,1.6395822,12.626522,-13.232813,2.1576986,-5.0251265,-4.8927145
1.61,1.9259858,12.627289,-12.533879,2.3167863,-4.9900627,-5.0047474
1.612,2.2135491,12.62933,-11.841094,2.477842,-4.945446,-5.115694
1.614,2.5013652,12.632036,-11.154691,2.6412315,-4.891413,-5.225382
1.616,2.7885861,12.634863,-10.475085,2.807301,-4.8280396,-5.333646
1.618,3.074319,12.637356,-9.802671,2.9764316,-4.7553964,-5.440316
1.62,3.357933,12.639167,-9.138048,3.1489987,-4.6735606,-5.545265
1.622,3.638548,12.640121,-8.481926,3.3253496,-4.5826116,-5.6483693
1.624,3.9154172,12.640195,-7.8351803,3.5058064,-4.4826574,-5.7495337
1.626,4.1879425,12.639147,-7.1989284,3.6906266,-4.3738465,-5.848667
1.628,4.4553957,12.63714,-6.574297,3.880016,-4.256434,-5.9456863
1.63,4.7172737,12.634439,-5.962699,4.0740867,-4.13078,-6.040522
1.632,4.9727254,12.631041,-5.365389,4.2728667,-3.9973855,-6.1331286
1.634,5.221323,12.626952,-4.783661,4.476284,-3.8568685,-6.2234735
1.636,5.4625764,12.622652,-4.218968,4.684161,-3.7099981,-6.3115377
1.638,5.6959887,12.618385,-3.6723638,4.896246,-3.5576172,-6.3973227
1.64,5.921184,12.614584,-3.1450787,5.1121964,-3.4006867,-6.4808373
1.642,6.137718,12.611731,-2.6383107,5.3316083,-3.24021,-6.562071
1.644,6.345399,12.610457,-2.153088,5.5540123,-3.0772061,-6.6410017
1.646,6.544149,12.611442,-1.6904273,5.7789116,-2.9126751,-6.7175703
1.648,6.733838,12.615389,-1.2512163,6.0057764,-2.7475617,-6.7917056
1.65,6.914425,12.62311,-0.836048,6.2340574,-2.5827508,-6.8632584
1.652,7.086081,12.635597,-0.4455762,6.463256,-2.418957,-6.9320107
1.654,7.249009,12.654167,-0.08002508,6.6928625,-2.256813,-6.997671
1.656,7.4035788,12.6800165,0.26046538,6.922406,-2.0968387,-7.0598497
1.658,7.5503116,12.714584,0.57550657,7.1514397,-1.939445,-7.1180983
1.66,7.6898212,12.759467,0.8651327,7.3795767,-1.7849562,-7.1719203
1.662,7.822884,12.816429,1.1296448,7.6064997,-1.6335938,-7.220839
1.664,7.9504876,12.887151,1.3692529,7.8319798,-1.4855115,-7.2643948
1.666,8.073611,12.973609,1.5843402,8.055901,-1.3408177,-7.3021717
1.668,8.193416,13.077766,1.7753197,8.278208,-1.1996093,-7.3338075
1.67,8.311296,13.201824,1.9427516,8.498941,-1.062021,-7.359032
1.672,8.428512,13.347886,2.0871637,8.718169,-0.92823625,-7.377646
1.674,8.54655,13.518047,2.2092352,8.935965,-0.79851174,-7.389516
1.676,8.6670685,13.71407,2.309839,9.152397,-0.67324996,-7.3945622
1.678,8.792018,13.93749,2.3897533,9.36745,-0.5529587,-7.392784
1.68,8.923123,14.18982,2.449937,9.581022,-0.43827796,-7.3842225
1.682,9.062231,14.472662,2.4913666,9.792881,-0.32993937,-7.368993
1.684,9.211138,14.787367,2.5152109,10.00265,-0.2288034,-7.3472624
1.686,9.371664,15.134886,2.5227356,10.209828,-0.13578558,-7.319292
1.688,9.545874,15.515907,2.5155306,10.41377,-0.051898956,-7.285416
1.69,9.736178,15.930514,2.4950633,10.613703,0.021838188,-7.246088
1.692,9.94439,16.377922,2.4623563,10.808754,0.08434796,-7.2018375
1.694,10.172268,16.85683,2.4182074,10.997963,0.13454509,-7.1532917
1.696,10.420918,17.366293,2.363665,11.180359,0.17132735,-7.101154
1.698,10.691462,17.905209,2.3002732,11.35491,0.19357991,-7.0462017
1.7,10.985365,18.472094,2.2301111,11.520642,0.20021486,-6.989222
1.702,11.304001,19.064857,2.1550167,11.676608,0.1901586,-6.931038
1.704,11.648535,19.68057,2.077311,11.821894,0.16241562,-6.872551
1.706,12.019745,20.315748,1.9990427,11.955649,0.11603701,-6.814635
1.708,12.418229,20.96643,1.9219124,12.077179,0.050258398,-6.7580767
1.71,12.844055,21.628391,1.8477592,12.185926,-0.035520554,-6.7035484
1.712,13.29733,22.297203,1.7783663,12.28148,-0.1416744,-6.6516504
1.714,13.778026,22.96811,1.7156196,12.36357,-0.26832426,-6.6028905
1.716,14.285851,23.636124,1.6612864,12.432004,-0.41543818,-6.557634
1.718,14.820279,24.295803,1.6169271,12.48661,-0.5828844,-6.5161266
1.72,15.380618,24.941704,1.5838947,12.527172,-0.7704093,-6.478483
1.722,15.966033,25.56834,1.5634995,12.553316,-0.9776982,-6.4446507
1.724,16.57538,26.17005,1.5565772,12.564501,-1.2044865,-6.414324
1.726,17.207403,26.741224,1.5636334,12.560037,-1.450674,-6.386962
1.728,17.860619,27.27644,1.5851707,12.539085,-1.716387,-6.361926
1.73,18.533531,27.770493,1.6215682,12.500633,-2.0020838,-6.3386106
1.732,19.224579,28.218409,1.6734495,12.443472,-2.3085592,-6.316551
1.734,19.93215,28.61554,1.7413049,12.366129,-2.6368873,-6.295479
1.736,20.654167,28.957813,1.8255525,12.266994,-2.9883664,-6.2753897
1.738,21.389206,29.24125,1.9262314,12.144313,-3.3644276,-6.2565355
1.74,22.13536,29.462687,2.0436854,11.996367,-3.7665484,-6.2394304
1.742,22.890636,29.6195,2.177908,11.821577,-4.1962013,-6.2248774
1.744,23.653137,29.709394,2.3286543,11.618586,-4.654703,-6.2139654
1.746,24.420593,29.73082,2.4959245,11.386396,-5.1430535,-6.2081223
1.748,25.191008,29.682457,2.6796374,11.12443,-5.6618166,-6.2090096
1.75,25.961973,29.56354,2.8797054,10.832611,-6.2109776,-6.218427
1.752,26.731205,29.373571,3.0958743,10.511379,-6.7898636,-6.2382126
1.754,27.495523,29.112629,3.327657,10.161568,-7.397036,-6.270209
1.756,28.25108,28.781128,3.574657,9.784384,-8.030247,-6.316074
1.758,28.99446,28.380268,3.8366873,9.38129,-8.686483,-6.377193
1.76,29.722511,27.9121,4.1139402,8.95389,-9.361992,-6.4546375
1.762,30.43148,27.378952,4.405732,8.503802,-10.052394,-6.5491066
1.764,31.117641,26.782394,4.710631,8.03257,-10.752894,-6.660796
1.766,31.774973,26.125378,5.028089,7.5417147,-11.45825,-6.7893376
1.768,32.398098,25.41087,5.356385,7.032758,-12.162946,-6.9338307
1.77,32.981743,24.642036,5.693361,6.507222,-12.861368,-7.0929146
1.772,33.520035,23.82249,6.036669,5.966689,-13.547794,-7.2648616
1.774,34.007126,22.956604,6.383938,5.412928,-14.21657,-7.4476357
1.776,34.43679,22.049084,6.7326818,4.8479013,-14.86219,-7.6389713
1.778,34.80343,21.105232,7.0801888,4.2737627,-15.479243,-7.836436
1.78,35.10114,20.130547,7.4238815,3.6928573,-16.062532,-8.037451
1.782,35.32488,19.130625,7.760944,3.107719,-16.607063,-8.239227
1.784,35.469437,18.111637,8.088231,2.5211725,-17.1081,-8.438834
1.786,35.530533,17.08008,8.402348,1.9362302,-17.561209,-8.633322
1.788,35.504196,16.042835,8.700347,1.3561568,-17.962494,-8.819874
1.79,35.387962,15.006336,8.97919,0.78451204,-18.308691,-8.995811
1.792,35.180374,13.976998,9.235892,0.22488832,-18.59708,-9.158783
1.794,34.88097,12.961361,9.467839,-0.31922436,-18.825665,-9.306734
1.796,34.49042,11.96596,9.672323,-0.84447575,-18.993042,-9.437872
1.798,34.0103,10.996885,9.846557,-1.3476787,-19.098476,-9.550666
1.8,33.44324,10.060214,9.988252,-1.8258348,-19.142149,-9.643751
1.802,32.79364,9.162089,10.095817,-2.2762537,-19.125109,-9.715872
1.804,32.06685,8.307972,10.167667,-2.6964664,-19.049257,-9.7659235
1.806,31.269485,7.5018635,10.202202,-3.0842462,-18.917273,-9.792952
1.808,30.409039,6.7470737,10.19763,-3.4376564,-18.732592,-9.796177
1.81,29.493061,6.046446,10.15225,-3.7551546,-18.499317,-9.775064
1.812,28.529089,5.402363,10.065411,-4.035704,-18.222075,-9.729401
1.814,27.52552,4.8170733,9.936433,-4.2789073,-17.905853,-9.659328
1.816,26.491283,4.292061,9.765575,-4.4850655,-17.555988,-9.56539
1.818,25.435532,3.8282993,9.553869,-4.6552277,-17.17793,-9.448491
1.82,24.36721,3.4257603,9.302816,-4.791269,-16.777294,-9.3098755
1.822,23.29457,3.0832465,9.014267,-4.8957825,-16.359638,-9.15102
1.824,22.22539,2.799137,8.690737,-4.9718676,-15.930189,-8.9735155
1.826,21.16734,2.5712461,8.335228,-5.0229917,-15.493841,-8.77898
1.828,20.127352,2.3970385,7.9512677,-5.0527425,-15.054909,-8.568947
1.83,19.111696,2.273241,7.5429335,-5.064597,-14.617018,-8.344819
1.832,18.12587,2.1963592,7.114366,-5.061724,-14.182976,-8.107911
1.834,17.174948,2.1623828,6.670325,-5.0468473,-13.754732,-7.8594327
1.836,16.26291,2.1671524,6.215705,-5.0221305,-13.333414,-7.600551
1.838,15.393337,2.206031,5.7552195,-4.9891872,-12.91935,-7.3324065
1.84,14.5688,2.274382,5.2935014,-4.949113,-12.512261,-7.0561953
1.842,13.791444,2.3672528,4.8347187,-4.9026256,-12.111247,-6.773217
1.844,13.062692,2.480037,4.383049,-4.8501134,-11.714899,-6.4848948
1.846,12.3836565,2.6080213,3.9422722,-4.791565,-11.321682,-6.192651
1.848,11.75461,2.7468507,3.5160766,-4.726688,-10.930025,-5.898098
1.85,11.175559,2.8921561,3.107431,-4.655044,-10.538488,-5.6029186
1.852,10.646357,3.0399623,2.719126,-4.5761714,-10.145812,-5.3087673
1.854,10.166194,3.1869197,2.3533974,-4.4896717,-9.750822,-5.0172367
1.856,9.734401,3.3298879,2.011849,-4.39526,-9.3525915,-4.72978
1.858,9.349531,3.4664805,1.6954247,-4.2928767,-8.950465,-4.4476204
1.86,9.010393,3.5945802,1.4046279,-4.1826777,-8.544045,-4.171654
1.862,8.715416,3.7127748,1.1398513,-4.064996,-8.133132,-3.9024262
1.864,8.463292,3.8197675,0.90092885,-3.9402947,-7.71765,-3.6401997
1.866,8.252842,3.9149413,0.6875639,-3.8091009,-7.29765,-3.3849602
1.868,8.082058,3.9975626,0.49860477,-3.6719952,-6.8732634,-3.1365304
1.87,7.9485264,4.0670557,0.33240795,-3.5295517,-6.444599,-2.894622
1.872,7.8501205,4.1236,0.18830848,-3.382328,-6.0117354,-2.658931
1.874,7.7848125,4.168332,0.06553006,-3.2308116,-5.574727,-2.4291935
1.876,7.7520576,4.2017226,-0.037641644,-3.0754685,-5.1336536,-2.2052593
1.878,7.7502375,4.224607,-0.12194264,-2.9166973,-4.6885686,-1.9870887
1.88,7.777471,4.23807,-0.18839371,-2.7548583,-4.239573,-1.7747824
1.882,7.832219,4.2428,-0.23823911,-2.5902824,-3.786758,-1.5685892
1.884,7.912886,4.239443,-0.27288467,-2.4232392,-3.3302026,-1.3688754
1.886,8.018207,4.228381,-0.2939753,-2.2539604,-2.8699856,-1.1760421
1.888,8.146696,4.210105,-0.30295652,-2.0826433,-2.406202,-0.9905004
1.89,8.29722,4.1848564,-0.3016563,-1.9094334,-1.9389768,-0.8126215
1.892,8.468386,4.1532426,-0.2916779,-1.7343987,-1.468471,-0.64271224
1.894,8.659349,4.115565,-0.27429712,-1.5575476,-0.9949187,-0.4809792
1.896,8.868946,4.0720153,-0.25070798,-1.378867,-0.518729,-0.32753298
1.898,9.096229,4.022585,-0.22258365,-1.1983899,-0.040494636,-0.18241522
1.9,9.339847,3.9674249,-0.19142222,-1.0161954,0.4390277,-0.045634568
1.902,9.59856,3.9064803,-0.15859729,-0.8324192,0.91893995,0.08288109
1.904,9.871031,3.8395524,-0.12562466,-0.6473009,1.39815,0.20322943
1.906,10.155904,3.7664022,-0.0935815,-0.46119016,1.8753773,0.31540644
1.908,10.451845,3.6872303,-0.063559055,-0.2745306,2.3492153,0.4193585
1.91,10.757509,3.6017761,-0.036430866,-0.0878821,2.8181787,0.51500404
1.912,11.0711155,3.509976,-0.0131210685,0.09809601,3.2807417,0.60227966
1.914,11.39113,3.4117846,0.005684018,0.28268397,3.7353816,0.6811651
1.916,11.715756,3.307362,0.01915273,0.46513498,4.1806297,0.7516736
1.918,12.042919,3.1969948,0.026724875,0.6446846,4.6151023,0.813913
1.92,12.370913,3.0808947,0.027676567,0.8206002,5.037524,0.868088
1.922,12.697993,2.9595742,0.021402985,0.99219465,5.4467654,0.9144846
1.924,13.022392,2.8334646,0.007660985,1.1588516,5.841805,0.9534445
1.926,13.342021,2.7030525,-0.01385209,1.3200436,6.221766,0.9853898
1.928,13.654935,2.56864,-0.04336299,1.4753377,6.585889,1.0107975
1.93,13.959124,2.4307394,-0.081144504,1.6243927,6.933524,1.0301793
1.932,14.252955,2.290121,-0.1272621,1.7669672,7.2640905,1.0440655
1.934,14.534589,2.1475093,-0.18184982,1.9028814,7.5770683,1.0529869
1.936,14.802284,2.0034995,-0.24500313,2.0320606,7.8719273,1.057456
1.938,15.054506,1.858603,-0.3165725,2.1544828,8.148155,1.0579484
1.94,15.289858,1.7135466,-0.3964235,2.2702,8.40525,1.0549107
1.942,15.50708,1.5688477,-0.48422605,2.3793154,8.642747,1.0487211
1.944,15.705038,1.4250249,-0.5796962,2.481967,8.860176,1.0397031
1.946,15.883022,1.2826881,-0.68236697,2.578291,9.0570965,1.028161
1.948,16.04013,1.1425325,-0.7917628,2.6684222,9.233126,1.0143168
1.95,16.175865,1.0050621,-0.90725094,2.7524624,9.387947,0.99839354
1.952,16.289936,0.8707596,-1.0282354,2.8304777,9.521325,0.9805889
1.954,16.38216,0.740016,-1.1540587,2.9024935,9.633147,0.9611485
1.956,16.452621,0.6131056,-1.2840726,2.968499,9.723413,0.94034576
1.958,16.501411,0.49047828,-1.4174998,3.0284555,9.792247,0.91845655
1.96,16.529095,0.37248713,-1.5535057,3.0823092,9.8399105,0.8958328
1.962,16.536352,0.25931054,-1.6914135,3.1299958,9.866795,0.87285924
1.964,16.52379,0.15108657,-1.8304305,3.1714756,9.873397,0.849936
1.966,16.492188,0.048104703,-1.969873,3.2067327,9.860303,0.82745314
1.968,16.442541,-0.049540997,-2.1089125,3.2357867,9.828169,0.8057747
1.97,16.376198,-0.14162707,-2.2467682,3.2586887,9.777743,0.7852411
1.972,16.29431,-0.22814798,-2.3829908,3.2755036,9.709781,0.7661009
1.974,16.198118,-0.30883026,-2.5168889,3.286345,9.625113,0.7485361
1.976,16.089048,-0.38361704,-2.6481588,3.2913275,9.524565,0.7326546
1.978,15.968434,-0.45239842,-2.7761836,3.2905684,9.409025,0.7184949
1.98,15.83769,-0.51516783,-2.900669,3.2841845,9.279386,0.70603037
1.982,15.698235,-0.57186556,-3.02137,3.2722995,9.136595,0.6952009
1.984,15.5516,-0.6223283,-3.1379611,3.255062,8.981636,0.68589115
1.986,15.399132,-0.66662216,-3.2503898,3.2326107,8.815539,0.67801905
1.988,15.24218,-0.7047677,-3.358562,3.2051473,8.639381,0.6715071
1.99,15.082034,-0.73677945,-3.4624646,3.1728797,8.454245,0.6662662
1.992,14.919877,-0.76267767,-3.5621676,3.136051,8.261221,0.6622431
1.994,14.757044,-0.7825489,-3.6577907,3.094933,8.061371,0.6593754
1.996,14.59466,-0.7964449,-3.7494469,3.0498405,7.855673,0.65761113
1.998,14.433668,-0.804636,-3.8374114,3.0010848,7.645042,0.6568887
2,14.275064,-0.8071306,-3.9218032,2.9489856,7.4302373,0.6571102
2.002,14.119787,-0.8042295,-4.002783,2.8938727,7.211875,0.65818334
2.004,13.968513,-0.7960677,-4.0804586,2.8360252,6.9904184,0.65996146
2.006,13.821835,-0.7828543,-4.155012,2.7756925,6.7661514,0.66228914
2.008,13.680619,-0.7647016,-4.226575,2.713085,6.5392284,0.66498876
2.01,13.54528,-0.7419443,-4.29515,2.6483688,6.309675,0.6678915
2.012,13.416285,-0.7150016,-4.3606925,2.581665,6.077398,0.6708331
2.014,13.29412,-0.6839676,-4.423016,2.513063,5.8422446,0.6736789
2.016,13.178973,-0.6492567,-4.482047,2.442623,5.6040154,0.6763201
2.018,13.071133,-0.6111412,-4.5374026,2.3703866,5.362517,0.6786852
2.02,12.970739,-0.5698323,-4.5887623,2.2964106,5.117591,0.68075037
2.022,12.878018,-0.52571297,-4.635771,2.2207463,4.869125,0.68255377
2.024,12.792813,-0.47903013,-4.6779366,2.1434643,4.617043,0.68414927
2.026,12.715304,-0.43010473,-4.7147503,2.0646653,4.3613873,0.6856322
2.028,12.645452,-0.37927866,-4.745755,1.9844596,4.10227,0.6871158
2.03,12.582978,-0.32666254,-4.7703457,1.9029994,3.8398907,0.68871367
2.032,12.527962,-0.2725234,-4.7881308,1.8204541,3.5745444,0.6905407
2.034,12.480102,-0.21723223,-4.7986927,1.737021,3.3066022,0.6926979
2.036,12.439154,-0.1610403,-4.8015585,1.6529137,3.0365129,0.6952503
2.038,12.404916,-0.10408163,-4.79646,1.5683489,2.7647848,0.69825745
2.04,12.3771305,-0.046585083,-4.7830944,1.4835598,2.4919739,0.70171
2.042,12.355716,0.011240482,-4.7614512,1.3987598,2.2186763,0.70557064
2.044,12.3401785,0.06910372,-4.7314863,1.3141913,1.9455223,0.7098177
2.046,12.33007,0.12689257,-4.693285,1.2301053,1.673105,0.7143927
2.048,12.325242,0.1844616,-4.6471195,1.1467419,1.402024,0.71920216
2.05,12.325286,0.2414546,-4.5931606,1.0643436,1.1328397,0.7241279
2.052,12.329742,0.297606,-4.5318117,0.98313934,0.866076,0.7290374
2.054,12.33831,0.35275793,-4.4635468,0.9033523,0.60222596,0.73377746
2.056,12.350518,0.40656424,-4.3887596,0.82516587,0.34171242,0.73819345
2.058,12.365957,0.4588189,-4.3080626,0.7487641,0.084924616,0.7421271
2.06,12.384255,0.5092788,-4.221982,0.6743034,-0.16778731,0.7454149
2.062,12.404817,0.5577431,-4.131131,0.60190797,-0.4161139,0.74793184
2.064,12.427256,0.6039624,-4.036136,0.5317036,-0.65976596,0.7495743
2.066,12.451149,0.6478534,-3.9375334,0.463823,-0.8984611,0.7502898
2.068,12.476139,0.68913937,-3.8359442,0.3983918,-1.1319251,0.7500521
2.07,12.501585,0.72762156,-3.7320018,0.33556738,-1.3598766,0.7488705
2.072,12.5270405,0.76335955,-3.6262026,0.27551442,-1.5820374,0.7467928
2.074,12.552221,0.79622126,-3.519029,0.21841896,-1.7981215,0.7438675
2.076,12.576703,0.82619476,-3.4109156,0.16448861,-2.007849,0.7401249
2.078,12.600216,0.8532119,-3.302408,0.11393523,-2.2109215,0.7356092
2.08,12.622076,0.8772712,-3.1939003,0.06697148,-2.4070606,0.730341
2.082,12.642034,0.8985038,-3.0856667,0.023799777,-2.595993,0.7243196
2.084,12.659728,0.91681576,-2.9780283,-0.0154105425,-2.7774515,0.71753
2.086,12.675077,0.932183,-2.87139,-0.05050963,-2.9511929,0.70996743
2.088,12.687676,0.94475746,-2.7660866,-0.08137488,-3.1169844,0.70162463
2.09,12.697352,0.95472765,-2.6622915,-0.10792267,-3.2746205,0.69251204
2.092,12.703869,0.96211624,-2.560264,-0.13007855,-3.423943,0.68264365
2.094,12.707049,0.96695566,-2.4603503,-0.14779156,-3.5648217,0.67206216
2.096,12.70694,0.96944284,-2.3628013,-0.16103792,-3.697166,0.66081655
2.098,12.703386,0.9697952,-2.2677453,-0.16980964,-3.8209271,0.64893126
2.1,12.696291,0.96809554,-2.1754658,-0.17412305,-3.9360929,0.63645697
2.102,12.685741,0.9645722,-2.0861914,-0.17400408,-4.0426865,0.6234467
2.104,12.67172,0.9593327,-2.0001454,-0.16949898,-4.1407723,0.6099613
2.106,12.654375,0.95260286,-1.9175284,-0.16066933,-4.2304535,0.59605014
2.108,12.633679,0.94462585,-1.8385241,-0.14761442,-4.3118677,0.58178604
2.11,12.609865,0.9356129,-1.7633579,-0.13043988,-4.3851647,0.5672395
2.112,12.58306,0.92579794,-1.692128,-0.109285414,-4.4505296,0.55249643
2.114,12.553515,0.9153409,-1.6251104,-0.084305644,-4.508154,0.5376451
2.116,12.521502,0.9045129,-1.5623555,-0.055680573,-4.5582542,0.522774
2.118,12.486997,0.89353895,-1.5038726,-0.023599088,-4.601056,0.5079857
2.12,12.450333,0.8827486,-1.4496746,0.011744976,-4.636797,0.4933524
2.122,12.411788,0.872473,-1.399934,0.050168037,-4.6657267,0.47895908
2.124,12.371589,0.86294365,-1.354532,0.091481745,-4.6880913,0.4648664
2.126,12.330053,0.85455656,-1.313488,0.13552243,-4.704159,0.45112038
2.128,12.287323,0.8475456,-1.2767446,0.18213117,-4.7141967,0.43775237
2.13,12.243677,0.8422084,-1.2442255,0.23117018,-4.7184687,0.42478144
2.132,12.199431,0.83883,-1.2157891,0.28251368,-4.7172575,0.41219914
2.134,12.154994,0.8377197,-1.1913092,0.3360563,-4.7108383,0.40000474
2.136,12.110555,0.83916616,-1.1706488,0.39169067,-4.6994805,0.38820052
2.138,12.066274,0.8435583,-1.1536489,0.44931906,-4.6834507,0.37678087
2.14,12.022598,0.85100245,-1.1401815,0.5088509,-4.663019,0.36573339
2.142,11.979804,0.86179423,-1.1300855,0.5701854,-4.638444,0.35505152
2.144,11.938063,0.8763819,-1.12322,0.63323206,-4.6099777,0.34474826
2.146,11.897836,0.89496684,-1.1193626,0.69790435,-4.577872,0.334831
2.148,11.859117,0.9177401,-1.1184688,0.76412106,-4.542388,0.3252939
2.15,11.822494,0.9449887,-1.120383,0.8318003,-4.5038023,0.31614208
2.152,11.787882,0.97696495,-1.1248167,0.90086067,-4.462388,0.30740297
2.154,11.7557955,1.0138454,-1.1317313,0.9712279,-4.418433,0.29909408
2.156,11.726516,1.0557966,-1.1409383,1.0428147,-4.372243,0.29124224
2.158,11.700034,1.1028073,-1.1522007,1.1155198,-4.324125,0.28385544
2.16,11.676676,1.155086,-1.1654737,1.1892527,-4.274394,0.27697086
2.162,11.656623,1.2127213,-1.1804845,1.2639241,-4.2233677,0.27062368
2.164,11.639998,1.2757185,-1.1970761,1.3394132,-4.1713705,0.264848
2.166,11.62701,1.3440123,-1.2151246,1.4156115,-4.118719,0.2596805
2.168,11.617749,1.4175067,-1.2343533,1.4923975,-4.0657263,0.25513756
2.17,11.612159,1.496248,-1.2546368,1.569655,-4.0127006,0.2512406
2.172,11.610491,1.5800734,-1.2757831,1.6472604,-3.9599342,0.248003
2.174,11.612706,1.6688843,-1.2974083,1.7250997,-3.9077117,0.24542975
2.176,11.618902,1.7624695,-1.3193703,1.8030704,-3.856314,0.24350715
2.178,11.628955,1.8607085,-1.3413949,1.8810722,-3.806017,0.2422179
2.18,11.642845,1.963408,-1.3632145,1.9590175,-3.7570653,0.2415353
2.182,11.660477,2.0702922,-1.384556,2.036845,-3.7097094,0.24141014
2.184,11.681811,2.1811874,-1.4050267,2.1144938,-3.6641915,0.24180746
2.186,11.7066965,2.295775,-1.4243803,2.191907,-3.6207373,0.24267924
2.188,11.734861,2.4139304,-1.4422305,2.2690394,-3.579565,0.24397099
2.19,11.766282,2.535216,-1.4583073,2.3458524,-3.5408874,0.24563575
2.192,11.800708,2.6594682,-1.4723196,2.4222975,-3.5048957,0.24764287
2.194,11.837882,2.7863564,-1.484005,2.4983213,-3.4717808,0.24997008
2.196,11.877485,2.9156916,-1.4929025,2.5738733,-3.4417095,0.25260282
2.198,11.919382,3.0471458,-1.4988341,2.6488836,-3.4148235,0.2555349
2.2,11.96313,3.1804755,-1.5014977,2.7232838,-3.391237,0.25877702
2.202,12.008595,3.315498,-1.5006711,2.7969985,-3.3710318,0.26234853
2.204,12.055334,3.4519365,-1.4960063,2.8699508,-3.354248,0.26628304
2.206,12.102946,3.58962,-1.4872699,2.942063,-3.340898,0.2706033
2.208,12.151181,3.7282996,-1.4744163,3.0132747,-3.330953,0.27534866
2.21,12.199829,3.8678825,-1.4571705,3.0835257,-3.324343,0.2805736
2.212,12.248326,4.008245,-1.4353776,3.1527736,-3.320978,0.28633976
2.214,12.296527,4.1492715,-1.4089177,3.2209768,-3.3207507,0.29269063
2.216,12.343927,4.290884,-1.377727,3.288113,-3.3235483,0.29967952
2.218,12.390491,4.43301,-1.3417253,3.3541985,-3.3292537,0.3073665
2.22,12.435734,4.575563,-1.3009214,3.4192457,-3.33777,0.31581676
2.222,12.479423,4.7186084,-1.2553039,3.4832964,-3.3490157,0.32508028
2.224,12.521361,4.8621926,-1.2047638,3.546394,-3.362908,0.3351879
2.226,12.561215,5.0063357,-1.1494088,3.6086118,-3.379371,0.34615827
2.228,12.598783,5.151103,-1.0892293,3.6700158,-3.3983364,0.35799956
2.23,12.634043,5.2965784,-1.0243737,3.7306786,-3.4197276,0.37071407
2.232,12.666768,5.442798,-0.9547404,3.790677,-3.443459,0.38429594
2.234,12.696835,5.5898533,-0.88055134,3.8500702,-3.4694653,0.39872706
2.236,12.724163,5.7379045,-0.80170584,3.908902,-3.4976573,0.41400015
2.238,12.7486725,5.887065,-0.7182951,3.9672174,-3.5279436,0.43010557
2.24,12.770301,6.0376053,-0.6303022,4.0250554,-3.5602264,0.4470446
2.242,12.788944,6.1895747,-0.53786206,4.0824327,-3.594399,0.46484792
2.244,12.8045635,6.3432045,-0.4409194,4.139369,-3.630352,0.48356295
2.246,12.81705,6.498677,-0.33938718,4.1958866,-3.6679578,0.5032556
2.248,12.826516,6.656215,-0.2332766,4.2520046,-3.7070637,0.52402484
2.25,12.832706,6.816239,-0.12259841,4.307756,-3.7475052,0.545974
2.252,12.835655,6.9789944,-0.007173896,4.363197,-3.7891066,0.56923044
2.254,12.835313,7.1447544,0.11314607,4.4183674,-3.831647,0.5939144
2.256,12.831455,7.3138766,0.23832941,4.473339,-3.8748968,0.6201701
2.258,12.824039,7.4868298,0.36885285,4.5281644,-3.9186344,0.6481062
2.26,12.812578,7.6639395,0.50477874,4.5829053,-3.9626281,0.67781174
2.262,12.797068,7.8456645,0.6462728,4.6376095,-4.0066495,0.70936143
2.264,12.776949,8.032548,0.7938589,4.69233,-4.0504827,0.7427851
2.266,12.751865,8.224813,0.94787955,4.747087,-4.093946,0.778085
2.268,12.7215605,8.422937,1.1088401,4.801891,-4.1368937,0.81523085
2.27,12.685451,8.627161,1.2774868,4.8567324,-4.1791964,0.85415494
2.272,12.643298,8.837746,1.4542456,4.9115624,-4.2207804,0.89475965
2.274,12.5943,9.054739,1.6397891,4.966319,-4.2615848,0.93693995
2.276,12.5373125,9.278502,1.8351777,5.0209217,-4.301566,0.98059654
2.278,12.47148,9.509226,2.0411851,5.0752516,-4.3407254,1.0256355
2.28,12.395989,9.746895,2.2588067,5.1291585,-4.3790655,1.0719624
2.282,12.309754,9.99162,2.4891727,5.1825023,-4.41658,1.1195102
2.284,12.211766,10.243374,2.7335024,5.235131,-4.453227,1.16822
2.286,12.100779,10.502038,2.9932294,5.286912,-4.488924,1.2180765
2.288,11.975824,10.767086,3.2698526,5.3377323,-4.52351,1.2690775
2.29,11.836081,11.037761,3.5648432,5.3875065,-4.5567784,1.3212385
2.292,11.680441,11.313096,3.8798468,5.4361687,-4.588428,1.3745897
2.294,11.507876,11.592145,4.2162437,5.483724,-4.6180167,1.4291615
2.296,11.317693,11.8738365,4.575625,5.5302715,-4.644899,1.4850008
2.298,11.109194,12.156688,4.959605,5.57601,-4.668211,1.5421774
2.3,10.881587,12.439398,5.36921,5.621217,-4.686864,1.6007545
2.302,10.634749,12.720863,5.805937,5.6662655,-4.6995163,1.6608024
2.304,10.368866,12.999075,6.271232,5.711605,-4.7046113,1.7224426
2.306,10.084543,13.271783,6.765083,5.7577515,-4.7003303,1.7857676
2.308,9.782182,13.536764,7.288252,5.805302,-4.6846457,1.8508782
2.31,9.462618,13.791616,7.840607,5.8548975,-4.6553426,1.9178905
2.312,9.127329,14.033741,8.421684,5.9072347,-4.6100807,1.9869528
2.314,8.778236,14.260571,9.030668,5.963037,-4.546398,2.0582047
2.316,8.41744,14.469424,9.66632,6.02307,-4.4617505,2.1317742
2.318,8.047382,14.65758,10.32673,6.088128,-4.3535414,2.2078125
2.32,7.670718,14.822301,11.009428,6.15898,-4.2191887,2.2864823
2.322,7.2907443,14.960882,11.711215,6.2363625,-4.056215,2.3679266
2.324,6.910616,15.07073,12.428621,6.320944,-3.8623476,2.4522672
2.326,6.5338626,15.149426,13.157666,6.4132967,-3.63561,2.539563
2.328,6.163825,15.19484,13.893791,6.5138235,-3.3744707,2.629794
2.33,5.804105,15.204898,14.632233,6.622683,-3.0778413,2.7228622
2.332,5.4581513,15.178088,15.367683,6.739874,-2.7453346,2.8186183
2.334,5.129169,15.1132,16.094505,6.8651032,-2.3771608,2.9168968
2.336,4.820021,15.009634,16.807133,6.9976707,-1.9741896,3.017489
2.338,4.5333056,14.867481,17.499691,7.1365294,-1.5379491,3.1203024
2.34,4.2710733,14.687348,18.166216,7.280305,-1.0704887,3.225378
2.342,4.034749,14.470566,18.800995,7.427311,-0.5744145,3.332856
2.344,3.8254771,14.219012,19.398277,7.5755463,-0.052802503,3.442995
2.346,3.6437364,13.935366,19.952599,7.7227535,0.49086878,3.556101
2.348,3.489176,13.622814,20.45887,7.8664336,1.0527894,3.672473
2.35,3.360824,13.2852335,20.912292,8.003924,1.6288468,3.7922788
2.352,3.2572427,12.927031,21.308704,8.132521,2.2147503,3.9155293
2.354,3.1757743,12.552929,21.644297,8.249542,2.80611,4.0420895
2.356,3.1137137,12.1681385,21.915709,8.352464,3.3984969,4.1716228
2.358,3.067663,11.7780285,22.120241,8.438988,3.9875622,4.303603
2.36,3.0338726,11.38814,22.255919,8.5071535,4.569038,4.437385
2.362,3.0082204,11.003881,22.321283,8.555346,5.138829,4.5722065
2.364,2.9863822,10.630582,22.31528,8.582421,5.6931005,4.707205
2.366,2.963799,10.273548,22.237797,8.587699,6.2283587,4.8414316
2.368,2.9357047,9.937641,22.089277,8.570942,6.7414236,4.9738855
2.37,2.898192,9.626981,21.870811,8.532313,7.2294574,5.103435
2.372,2.8470633,9.345277,21.584232,8.472329,7.690004,5.2288656
2.374,2.7784524,9.095711,21.231773,8.39181,8.121055,5.348896
2.376,2.6886666,8.880957,20.816376,8.29174,8.520955,5.462196
2.378,2.574656,8.702835,20.341131,8.173191,8.888427,5.5674486
2.38,2.4339762,8.562353,19.809603,8.03727,9.222521,5.663413
2.382,2.2644033,8.459833,19.226015,7.885106,9.522579,5.74899
2.384,2.0645492,8.395252,18.594633,7.7177963,9.788143,5.82326
2.386,1.8341308,8.367301,17.919853,7.5363245,10.019063,5.8854465
2.388,1.5725584,8.374476,17.206528,7.341629,10.215254,5.9349785
2.39,1.2799404,8.414806,16.459589,7.134646,10.376723,5.971467
2.392,0.956882,8.485873,15.684025,6.9162073,10.503541,5.994581
2.394,0.60441405,8.584965,14.884752,6.687033,10.595763,6.004106
2.396,0.22414011,8.709099,14.066848,6.44778,10.653574,5.999914
2.398,-0.18207103,8.85531,13.235415,6.199028,10.677247,5.981864
2.4,-0.61226344,9.020468,12.395521,5.941262,10.667034,5.9498663
2.402,-1.0640038,9.20146,11.5522,5.6749268,10.623209,5.9039674
2.404,-1.5344572,9.394651,10.710531,5.4004574,10.546164,5.844315
2.406,-2.020813,9.596784,9.875329,5.118288,10.436354,5.771152
2.408,-2.5201318,9.804421,9.050978,4.828893,10.294321,5.6848435
2.41,-3.029221,10.014217,8.242164,4.5328455,10.120725,5.585943
2.412,-3.5452397,10.222489,7.4527035,4.2308426,9.916332,5.4751835
2.414,-4.0652943,10.4268675,6.6862435,3.9237819,9.682089,5.353486
2.416,-4.586911,10.6248455,5.947176,3.612743,9.419111,5.2219324
2.418,-5.1068406,10.813967,5.2385325,3.298988,9.128742,5.0817566
2.42,-5.622284,10.992028,4.563512,2.983946,8.812537,4.934313
2.422,-6.130875,11.157064,3.924844,2.669199,8.472369,4.7810407
2.424,-6.630459,11.30724,3.3248367,2.356395,8.110384,4.6234536
2.426,-7.118889,11.441036,2.765369,2.0472069,7.729024,4.463062
2.428,-7.594233,11.557215,2.2481523,1.7432716,7.330996,4.3013263
2.43,-8.054856,11.654832,1.7743878,1.4461503,6.919256,4.1396756
2.432,-8.499385,11.733124,1.3449969,1.1572754,6.49691,3.9794235
2.434,-8.926682,11.791765,0.9603429,0.8779311,6.0671644,3.821714
2.436,-9.3358555,11.83053,0.6203971,0.6091997,5.6332273,3.6674814
2.438,-9.726131,11.849472,0.3248725,0.35197145,5.198224,3.5173986
2.44,-10.097088,11.849006,0.072989464,0.10694611,4.765146,3.3719318
2.442,-10.448505,11.829459,-0.13619947,-0.12534672,4.336795,3.2313025
2.444,-10.780407,11.791548,-0.30399275,-0.34452987,3.9157867,3.0955188
2.446,-11.0926895,11.735985,-0.43203545,-0.55038977,3.504507,2.9644308
2.448,-11.385925,11.663511,-0.52199316,-0.7428671,3.1050901,2.8377614
2.45,-11.660454,11.575018,-0.57582045,-0.9220334,2.7194057,2.7152035
2.452,-11.916704,11.471519,-0.59575796,-1.0880527,2.3490686,2.5964985
2.454,-12.155579,11.354069,-0.5838938,-1.2412039,1.9955009,2.481405
2.456,-12.37766,11.223583,-0.5425563,-1.3818779,1.6598756,2.369719
2.458,-12.583714,11.08124,-0.4742489,-1.5105578,1.3431029,2.2613554
2.46,-12.774486,10.928014,-0.381289,-1.6277654,1.0458615,2.1563473
2.462,-12.950706,10.765105,-0.26617908,-1.7340528,0.7686357,2.0547836
2.464,-13.112832,10.593415,-0.13122797,-1.8299891,0.5117026,1.9568092
2.466,-13.261786,10.413935,0.021305084,-1.9161203,0.27518207,1.8625916
2.468,-13.39832,10.227627,0.18931293,-1.9929831,0.059031725,1.7722759
2.47,-13.52295,10.035299,0.3705697,-2.0610538,-0.13691711,1.6859913
2.472,-13.636515,9.837917,0.5630927,-2.1207676,-0.31294042,1.6037854
2.474,-13.739357,9.636324,0.7651634,-2.1725194,-0.46937048,1.5256438
2.476,-13.831996,9.431035,0.9747782,-2.2166765,-0.6066276,1.4514685
2.478,-13.914665,9.222692,1.1901541,-2.253552,-0.72516906,1.381103
2.48,-13.988163,9.012285,1.4098248,-2.283451,-0.8254755,1.3143284
2.482,-14.0528145,8.8004055,1.6319981,-2.3066745,-0.9080732,1.2508961
2.484,-14.108678,8.587607,1.8553257,-2.3234916,-0.9734905,1.190517
2.486,-14.155932,8.374421,2.0784621,-2.334178,-1.0222852,1.1329087
2.488,-14.194827,8.161454,2.3003588,-2.339006,-1.0550349,1.0778055
2.49,-14.225424,7.9494534,2.519918,-2.3382218,-1.0723413,1.0249733
2.492,-14.247849,7.738871,2.736289,-2.3320525,-1.0748479,0.9742284
2.494,-14.26202,7.530286,2.9486732,-2.3207157,-1.063236,0.9254
2.496,-14.267924,7.3242736,3.1561694,-2.3044395,-1.0382303,0.8783604
2.498,-14.26555,7.121311,3.3580904,-2.2834694,-1.0006053,0.833012
2.5,-14.2548065,6.9217925,3.5537195,-2.2580328,-0.95118237,0.7892828
2.502,-14.235683,6.7262173,3.7424264,-2.2283916,-0.89082354,0.7471345
2.504,-14.2080345,6.5349097,3.923623,-2.1948233,-0.8204237,0.7065523
2.506,-14.171966,6.3483315,4.09663,-2.1576056,-0.7409021,0.6675068
2.508,-14.127512,6.1669283,4.260939,-2.1170301,-0.6532086,0.62995374
2.51,-14.07475,5.991109,4.4160657,-2.0734136,-0.5582883,0.5938376
2.512,-14.01366,5.821121,4.561564,-2.0270932,-0.45710582,0.55906504
2.514,-13.944421,5.6574645,4.6969376,-1.9784033,-0.35058892,0.5255052
2.516,-13.867203,5.5002055,4.821948,-1.9276823,-0.2396518,0.4930126
2.518,-13.782202,5.349757,4.936424,-1.8752632,-0.12516539,0.46138954
2.52,-13.689631,5.206256,5.040237,-1.8214674,-0.007953301,0.43042362
2.522,-13.589787,5.06989,5.133367,-1.7665918,0.11121446,0.39988765
2.524,-13.482918,4.9406633,5.2156696,-1.7109234,0.23163953,0.36954308
2.526,-13.369206,4.818488,5.2870884,-1.6547016,0.35269254,0.33915925
2.528,-13.249096,4.7033305,5.347625,-1.598134,0.4737988,0.30850792
2.53,-13.122754,4.594905,5.397319,-1.541383,0.5944625,0.27736205
2.532,-12.990658,4.493189,5.43638,-1.4845841,0.7142346,0.24551848
2.534,-12.853206,4.397972,5.4648104,-1.4278378,0.83271927,0.21278945
2.536,-12.710697,4.308962,5.482899,-1.3712153,0.94955957,0.17899054
2.538,-12.563483,4.2258787,5.4908557,-1.314782,1.0644338,0.14398515
2.54,-12.412027,4.1484423,5.488966,-1.2585838,1.1770511,0.10765886
2.542,-12.256749,4.0763435,5.4775004,-1.2026517,1.287133,0.06994039
2.544,-12.09797,4.009063,5.4567947,-1.1470331,1.3944252,0.030791402
2.546,-11.936026,3.9463556,5.4271755,-1.0917602,1.4986845,-0.009792924
2.548,-11.771381,3.8877738,5.3889704,-1.0368843,1.599678,-0.051777422
2.55,-11.604546,3.8330765,5.342539,-0.98245287,1.6971705,-0.09511101
2.552,-11.435801,3.7819073,5.2882776,-0.92849916,1.790947,-0.1396972
2.554,-11.265568,3.7339969,5.2267046,-0.87506926,1.8808122,-0.18542421
2.556,-11.094305,3.6890464,5.1582203,-0.8221863,1.9665745,-0.23218825
2.558,-10.922164,3.6469054,5.0832443,-0.7698707,2.048073,-0.27984774
2.56,-10.749792,3.6073759,5.002307,-0.7181424,2.1251476,-0.32827258
2.562,-10.577369,3.5702937,4.915912,-0.66701347,2.1977038,-0.3773354
2.564,-10.40513,3.5355198,4.82455,-0.6164735,2.2656648,-0.4269233
2.566,-10.23367,3.5030923,4.7286453,-0.56651485,2.328997,-0.47692746
2.568,-10.063032,3.4729953,4.6288424,-0.5171254,2.387689,-0.5272477
2.57,-9.893515,3.4452481,4.5255747,-0.4683055,2.4417977,-0.57781744
2.572,-9.725468,3.4198794,4.419364,-0.4200501,2.4913886,-0.62857413
2.574,-9.559015,3.3970816,4.310629,-0.37236372,2.5365748,-0.67945886
2.576,-9.394253,3.3769686,4.199912,-0.32527083,2.5774934,-0.7304236
2.578,-9.231449,3.3596637,4.0875826,-0.27878672,2.6142972,-0.7814212
2.58,-9.070743,3.3454332,3.9741805,-0.23295246,2.6471522,-0.83241177
2.582,-8.9122,3.334431,3.860044,-0.18779938,2.676245,-0.8833501
2.584,-8.756074,3.326948,3.7456279,-0.1433733,2.7017634,-0.9341792
2.586,-8.60233,3.3232765,3.6313617,-0.09972113,2.7239065,-0.98483837
2.588,-8.451011,3.3237064,3.5175226,-0.056862377,2.7428753,-1.0352377
2.59,-8.302184,3.3284974,3.4043493,-0.014848001,2.758857,-1.0852635
2.592,-8.155727,3.3379931,3.2922552,0.026284546,2.7720318,-1.1347924
2.594,-8.0116625,3.352416,3.1814556,0.06649917,2.7825735,-1.1836791
2.596,-7.8700433,3.3721266,3.072238,0.10576816,2.7906659,-1.2317947
2.598,-7.7308006,3.3973408,2.9648204,0.14407927,2.796462,-1.2790028
2.6,-7.593765,3.4282012,2.8594353,0.18141653,2.800114,-1.3252013
2.602,-7.45881,3.465156,2.7563214,0.21777134,2.8017597,-1.370329
2.604,-7.3256974,3.508177,2.65554,0.25314227,2.8015077,-1.4143548
2.606,-7.1946726,3.5575547,2.5573702,0.28752384,2.7994442,-1.4573143
2.608,-7.065204,3.6133137,2.461961,0.32089993,2.7956014,-1.4992826
2.61,-6.9372125,3.6756935,2.3694649,0.35323298,2.7899766,-1.5403671
2.612,-6.8105445,3.7446098,2.2800014,0.38447133,2.782519,-1.5807241
2.614,-6.6849494,3.820117,2.1936574,0.41453186,2.7731478,-1.6205026
2.616,-6.56019,3.9021907,2.1106822,0.4433286,2.7617133,-1.6598636
2.618,-6.436118,3.990757,2.0311184,0.47073817,2.7480683,-1.698945
2.62,-6.312349,4.085792,1.9551706,0.4966625,2.732037,-1.7378762
2.622,-6.188823,4.187166,1.882801,0.5209887,2.7134569,-1.7767422
2.624,-6.065343,4.294754,1.81423,0.5436479,2.6921768,-1.8155991
2.626,-5.94157,4.408461,1.7494061,0.564575,2.6681006,-1.8544652
2.628,-5.8172097,4.528068,1.6884949,0.5837539,2.6411633,-1.8933414
2.63,-5.692054,4.653358,1.6315403,0.60121274,2.6113615,-1.9321948
2.632,-5.5658484,4.7841644,1.5784817,0.616989,2.5787263,-1.9709713
2.634,-5.4382696,4.920152,1.5293562,0.6311583,2.5433242,-2.0096045
2.636,-5.309087,5.0611515,1.4843171,0.643813,2.5052533,-2.0480428
2.638,-5.1779327,5.206879,1.4433086,0.6550539,2.4646103,-2.086238
2.64,-5.0447206,5.357127,1.4064157,0.6649732,2.4215071,-2.1241689
2.642,-4.9088545,5.51141,1.3735478,0.67364115,2.3760352,-2.1618571
2.644,-4.770116,5.6694417,1.3448524,0.681137,2.328296,-2.199334
2.646,-4.628256,5.830929,1.3201935,0.68750376,2.2783635,-2.2366533
2.648,-4.482729,5.9952703,1.2995808,0.692763,2.2262776,-2.2738981
2.65,-4.3331246,6.1620684,1.2831831,0.6969097,2.1720743,-2.311158
2.652,-4.179283,6.3309784,1.2708142,0.6999141,2.1157727,-2.348545
2.654,-4.0208645,6.501523,1.2623422,0.7017512,2.057371,-2.3861766
2.656,-3.8573422,6.6729636,1.2578213,0.7023832,1.9968578,-2.4241688
2.658,-3.6883726,6.8447704,1.2572389,0.7017532,1.9342287,-2.4626532
2.66,-3.5137126,7.016413,1.2605867,0.6998149,1.8694448,-2.5017378
2.662,-3.3332016,7.18731,1.267731,0.69651204,1.8024912,-2.5415344
2.664,-3.1464639,7.356749,1.2784657,0.69179595,1.733325,-2.5821407
2.666,-2.9533942,7.524045,1.2929032,0.68560123,1.6619143,-2.623628
2.668,-2.753805,7.688365,1.3110714,0.6778794,1.588197,-2.6660762
2.67,-2.5473738,7.8491077,1.3330305,0.6685626,1.5121148,-2.709556
2.672,-2.334364,8.005615,1.3586341,0.6575861,1.4335686,-2.7541313
2.674,-2.1146963,8.157317,1.3878001,0.6448624,1.3524768,-2.7998457
2.676,-1.8885778,8.303663,1.4204943,0.6303192,1.2687496,-2.8467526
2.678,-1.6562126,8.443918,1.4566224,0.6138694,1.1822786,-2.8948972
2.68,-1.4178511,8.577473,1.4961635,0.5954268,1.0929751,-2.9442806
2.682,-1.1737758,8.703765,1.5390339,0.5749166,1.0007973,-2.9949024
2.684,-0.9243977,8.822178,1.58516,0.55228,0.90572083,-3.0467825
2.686,-0.67026126,8.932243,1.6343572,0.52745265,0.80774695,-3.0999084
2.688,-0.41179502,9.033499,1.6865048,0.5003842,0.70695984,-3.1542022
2.69,-0.14966524,9.125493,1.7413454,0.47103477,0.6035129,-3.2095869
2.692,0.11551678,9.20788,1.79864,0.43940127,0.49760562,-3.265994
2.694,0.38308716,9.280157,1.8580654,0.40549898,0.389467,-3.3233395
2.696,0.65231717,9.342102,1.9194448,0.3693329,0.27933976,-3.3815107
2.698,0.92231715,9.393271,1.9823613,0.33088565,0.1674605,-3.4403827
2.7,1.1923587,9.433457,2.046542,0.2901318,0.054050386,-3.4997873
2.702,1.4615432,9.462427,2.1115744,0.24702513,-0.060682565,-3.5595288
2.704,1.7290139,9.480003,2.1770482,0.2015239,-0.1766051,-3.619423
2.706,1.9941727,9.48605,2.2425551,0.15358889,-0.29364103,-3.6793041
2.708,2.2560115,9.480514,2.307684,0.10316563,-0.411743,-3.7390034
2.71,2.5136392,9.463385,2.371974,0.050210238,-0.53090996,-3.7983856
2.712,2.7663932,9.434518,2.435007,-0.005325556,-0.65116966,-3.8573313
2.714,3.0133457,9.394044,2.4964833,-0.06351185,-0.77255005,-3.9157543
2.716,3.254006,9.342059,2.5559325,-0.12441003,-0.89507484,-3.9736052
2.718,3.4875982,9.278686,2.6130342,-0.18809783,-1.0187705,-4.0308776
2.72,3.7134314,9.204017,2.6673975,-0.25466013,-1.1436427,-4.087597
2.722,3.9310884,9.11833,2.7187607,-0.32419956,-1.2696865,-4.143805
2.724,4.1398573,9.021825,2.7669916,-0.39680254,-1.3968685,-4.19958
2.726,4.33958,8.914647,2.8117661,-0.47255087,-1.5251455,-4.2550225
2.728,4.5298543,8.797132,2.852978,-0.55151045,-1.6544675,-4.3102326
2.73,4.710417,8.669518,2.8904362,-0.6337286,-1.7847581,-4.3653026
2.732,4.8810964,8.532131,2.9241786,-0.719224,-1.9159095,-4.420305
2.734,5.041801,8.385298,2.9541576,-0.8080002,-2.0477965,-4.475311
2.736,5.192495,8.229325,2.9804385,-0.900048,-2.1802573,-4.530324
2.738,5.333177,8.064639,3.003042,-0.9953381,-2.3130755,-4.585271
2.74,5.464038,7.891662,3.021968,-1.0937848,-2.4459727,-4.6400466
2.742,5.5851507,7.710718,3.0373886,-1.1952962,-2.578661,-4.69452
2.744,5.69683,7.5223103,3.0494518,-1.299757,-2.7108092,-4.748444
2.746,5.7993493,7.3269196,3.0581613,-1.4070257,-2.8420033,-4.8014956
2.748,5.8929954,7.1250887,3.0636654,-1.5169103,-2.9717836,-4.853298
2.75,5.9781237,6.9173126,3.0660136,-1.6291567,-3.0996459,-4.9034452
2.752,6.0549164,6.7043343,3.0653553,-1.7434653,-3.2250473,-4.95147
2.754,6.1238976,6.486689,3.061693,-1.8595154,-3.347429,-4.9969
2.756,6.1854205,6.2651415,3.0552251,-1.9769559,-3.4662104,-5.039213
2.758,6.2396507,6.040588,3.0459847,-2.09543,-3.580801,-5.0778556
2.76,6.2869706,5.8136907,3.033805,-2.2145796,-3.6906018,-5.1123033
2.762,6.3278813,5.585334,3.0190458,-2.3340306,-3.7950592,-5.142079
2.764,6.3626323,5.35637,3.0017562,-2.4534159,-3.893637,-5.166774
2.766,6.3913913,5.1277537,2.9817843,-2.572366,-3.9858687,-5.1860476
2.768,6.41458,4.9003234,2.9591737,-2.690515,-4.071339,-5.1996393
2.77,6.4325423,4.674786,2.9339843,-2.8075156,-4.149728,-5.2073755
2.772,6.445416,4.452127,2.9062274,-2.9230518,-4.2207513,-5.209158
2.774,6.4533615,4.233151,2.8760514,-3.0368052,-4.284226,-5.2049747
2.776,6.456771,4.018705,2.8433535,-3.1485195,-4.340051,-5.1948967
2.778,6.455694,3.8096452,2.8081691,-3.257957,-4.3881936,-5.179059
2.78,6.4503126,3.6065638,2.7706013,-3.364914,-4.428683,-5.1576715
2.782,6.441027,3.4100404,2.7308476,-3.4692302,-4.461591,-5.1309586
2.784,6.4279075,3.2206047,2.6890917,-3.5707698,-4.4870324,-5.0991807
2.786,6.4113464,3.0387084,2.645434,-3.669428,-4.505166,-5.0625906
2.788,6.3914723,2.8647964,2.6001065,-3.7651095,-4.5161686,-5.021431
2.79,6.3685756,2.6993287,2.5532684,-3.8577452,-4.520242,-4.975918
2.792,6.342876,2.5425382,2.5051823,-3.947265,-4.517591,-4.9262495
2.794,6.314553,2.394733,2.4559898,-4.0336103,-4.5084248,-4.8725777
2.796,6.2839794,2.2560034,2.4060204,-4.1166925,-4.492937,-4.815043
2.798,6.2514787,2.1264503,2.3555388,-4.1964273,-4.471325,-4.753758
2.8,6.2172494,2.00609,2.3048472,-4.2727156,-4.4437904,-4.6888304
2.802,6.181659,1.89487,2.2542622,-4.3454537,-4.4105372,-4.62039
2.804,6.144965,1.7926532,2.204043,-4.4145308,-4.3717628,-4.5485945
2.806,6.107633,1.69932,2.1543968,-4.4798284,-4.3276525,-4.473654
2.808,6.0699677,1.6146951,2.105613,-4.541237,-4.2783895,-4.395787
2.81,6.0323186,1.5385406,2.0578885,-4.5986605,-4.224185,-4.315286
2.812,5.9949665,1.4706453,2.0115001,-4.652023,-4.165203,-4.23246
2.814,5.9583445,1.4106894,1.9665718,-4.7012634,-4.101638,-4.1476526
2.816,5.922769,1.3582809,1.9232347,-4.746335,-4.0336637,-4.061206
2.818,5.8886647,1.3131787,1.8817332,-4.7872143,-3.9614377,-3.9734492
2.82,5.8561974,1.2748988,1.8421272,-4.8238797,-3.885077,-3.8846936
2.822,5.825706,1.2431018,1.8043703,-4.856334,-3.8046823,-3.7952132
2.824,5.7975373,1.2173902,1.7684872,-4.884586,-3.7203336,-3.7052283
2.826,5.7718925,1.197358,1.7344897,-4.9086366,-3.6320968,-3.6149127
2.828,5.7489233,1.1825827,1.7022461,-4.928508,-3.539997,-3.5243943
2.83,5.7289844,1.1726942,1.6717466,-4.94419,-3.444044,-3.4337606
2.832,5.7120123,1.1673558,1.6427641,-4.955678,-3.344236,-3.3430529
2.834,5.69844,1.1661472,1.6150331,-4.9629827,-3.2405784,-3.252274
2.836,5.6880765,1.1689216,1.5884106,-4.9660816,-3.1330957,-3.1614327
2.838,5.681142,1.1751833,1.562577,-4.964957,-3.0218196,-3.0705316
2.84,5.6776047,1.1846821,1.5373445,-4.95959,-2.906787,-2.9795873
2.842,5.676509,1.1965418,1.51388,-4.94995,-2.788052,-2.8886497
2.844,5.6785045,1.2108822,1.4908551,-4.936019,-2.6656952,-2.7977948
2.846,5.6835103,1.2274685,1.468105,-4.9177856,-2.539801,-2.7071075
2.848,5.691427,1.2460485,1.4454024,-4.895261,-2.4104736,-2.6167274
2.85,5.7020583,1.2663605,1.4226302,-4.8684754,-2.2778199,-2.526799
2.852,5.7153077,1.2882054,1.3996245,-4.8374796,-2.1419542,-2.4374843
2.854,5.730797,1.3113644,1.3762614,-4.8023467,-2.0030038,-2.3489482
2.856,5.748428,1.3355442,1.3524718,-4.7631674,-1.8610848,-2.26133
2.858,5.7679424,1.3605208,1.3282222,-4.7200685,-1.7163528,-2.1747684
2.86,5.7890987,1.3861433,1.3035147,-4.673172,-1.5689704,-2.089415
2.862,5.8116345,1.4121542,1.2783372,-4.6226015,-1.4191066,-2.005421
2.864,5.8352976,1.4383998,1.2527689,-4.5685034,-1.2669374,-1.9229171
2.866,5.8598285,1.4645756,1.22681,-4.5110197,-1.1126561,-1.8420392
2.868,5.8849616,1.4905753,1.200597,-4.4503098,-0.9564421,-1.7629099
2.87,5.9105363,1.5162992,1.1742781,-4.3893356,-0.804342,-1.6879594
2.872,5.936317,1.5414916,1.147841,-4.327078,-0.6538464,-1.6160771
2.874,5.9620633,1.566115,1.121403,-4.2643194,-0.50625694,-1.547684
2.876,5.9876223,1.5901095,1.0951425,-4.2019095,-0.36297974,-1.483182
2.878,6.0127974,1.6133813,1.0691494,-4.1407194,-0.2254309,-1.4229207
2.88,6.037502,1.6358699,1.0434422,-4.081587,-0.09490919,-1.3671741
2.882,6.061773,1.65741,1.018226,-4.0252414,0.027488291,-1.3160977
2.884,6.08544,1.6781021,0.9934646,-3.9722676,0.14098462,-1.2697148
2.886,6.10834,1.6979119,0.96924216,-3.9230552,0.24513686,-1.2279394
2.888,6.1304955,1.7168181,0.94559073,-3.8777976,0.33986115,-1.1905944
2.89,6.151837,1.7348068,0.92250806,-3.836539,0.42539138,-1.1573975
2.892,6.1723356,1.7519093,0.900068,-3.799166,0.50219816,-1.1280043
