Time_s_,Acc_x_m_s_2_,Acc_y_m_s_2_,Acc_z_m_s_2_,Gyro_x_1_s_,Gyro_y_1_s_,Gyro_z_1_s_
0,0.4907288,3.603204,4.0275187,-5.078904,0.9956053,0.23651785
0.002,0.49538606,3.5846744,3.9136007,-5.100545,0.97413623,0.25060594
0.004,0.49976805,3.564506,3.792355,-5.1246367,0.94908655,0.2664612
0.006,0.5039928,3.542746,3.6631746,-5.151355,0.9198761,0.2842775
0.008,0.5080595,3.5194328,3.5256906,-5.1808558,0.8859191,0.30422568
0.01,0.5119945,3.4946177,3.3797488,-5.213196,0.84663534,0.32644194
0.012,0.5156844,3.4682388,3.2253673,-5.2483454,0.80147135,0.35103703
0.014,0.518903,3.4404461,3.0627005,-5.2861614,0.74995136,0.378065
0.016,0.5213262,3.4113348,2.8917012,-5.326399,0.6916977,0.40754324
0.018,0.52308595,3.38089,2.7122903,-5.3686943,0.6264895,0.43945485
0.02,0.5240656,3.3492885,2.524584,-5.4125986,0.55426395,0.47375298
0.022,0.5242907,3.3167527,2.3288012,-5.457596,0.47510552,0.5103755
0.024,0.52359444,3.2834022,2.1252904,-5.5031395,0.38921976,0.54926604
0.026,0.5218235,3.249536,1.9145283,-5.54872,0.29691088,0.5903618
0.028,0.5190515,3.2154586,1.6973132,-5.5949855,0.19701517,0.6344192
0.03,0.5151554,3.1815116,1.4744834,-5.6398926,0.09184265,0.6802695
0.032,0.5101219,3.1479523,1.2467874,-5.683257,-0.018419623,0.7279508
0.034,0.503876,3.1151404,1.0151641,-5.724902,-0.13360345,0.7774881
0.036,0.49648556,3.0834546,0.7803533,-5.76466,-0.25357068,0.8288296
0.038,0.4881047,3.0533652,0.54347306,-5.8024096,-0.37819177,0.88183695
0.04,0.4787252,3.0252938,0.3057202,-5.8380885,-0.5073527,0.9363207
0.042,0.46853924,2.9994648,0.06835738,-5.8716516,-0.6409366,0.992044
0.044,0.4577818,2.9758902,-0.16740969,-5.9031105,-0.7787972,1.0487356
0.046,0.44672066,2.9545696,-0.40040895,-5.9325213,-0.9207415,1.106111
0.048,0.435664,2.935366,-0.62964916,-5.9599824,-1.0665296,1.1639192
0.05,0.42479646,2.9183903,-0.8540921,-5.9855623,-1.2158954,1.2219487
0.052,0.41466564,2.9035335,-1.072966,-6.0093155,-1.3685383,1.2800586
0.054,0.40580446,2.8903327,-1.2855997,-6.0312495,-1.5241029,1.3381654
0.056,0.39845634,2.8779633,-1.4969218,-6.0513077,-1.6822224,1.3962725
0.058,0.39289796,2.8666587,-1.6995002,-6.0693903,-1.842521,1.4544203
0.06,0.3896011,2.8557718,-1.8934087,-6.0853596,-2.0045645,1.5126631
0.062,0.3891136,2.844564,-2.0785732,-6.0990343,-2.1678708,1.5710518
0.064,0.39148313,2.8326464,-2.255205,-6.110257,-2.3318686,1.6296384
0.066,0.39741647,2.8191204,-2.4236085,-6.1188526,-2.4959517,1.6884371
0.068,0.40725243,2.8032243,-2.584172,-6.124689,-2.6594806,1.7474275
0.07,0.4205019,2.7843604,-2.7373154,-6.127675,-2.8218613,1.8064629
0.072,0.4385543,2.7610216,-2.8841062,-6.1277637,-2.9825768,1.8653281
0.074,0.46271098,2.7319255,-3.0249717,-6.124913,-3.1411955,1.9237437
0.076,0.49256468,2.6971593,-3.1591177,-6.119122,-3.2974176,1.981402
0.078,0.5278506,2.656801,-3.2853124,-6.110386,-3.4511142,2.03796
0.08,0.56913126,2.6100378,-3.4034472,-6.098685,-3.602332,2.0930648
0.082,0.6165154,2.5561948,-3.5138512,-6.0839896,-3.7512622,2.1463268
0.084,0.67031574,2.4948246,-3.6168342,-6.0663023,-3.8982806,2.1973274
0.086,0.7311951,2.4250205,-3.7124712,-6.0456147,-4.0438423,2.2456722
0.088,0.79954815,2.346403,-3.7999706,-6.021919,-4.188399,2.2910137
0.09,0.875857,2.2583628,-3.878121,-5.9952335,-4.332418,2.3331234
0.092,0.960665,2.160796,-3.9455633,-5.965619,-4.476289,2.3719096
0.094,1.054208,2.0539706,-4.001022,-5.9331503,-4.6202836,2.4074187
0.096,1.1569505,1.9387885,-4.04306,-5.8979373,-4.764496,2.4398603
0.098,1.2693615,1.8159876,-4.070264,-5.8601108,-4.9088078,2.4696357
0.1,1.3916794,1.6869199,-4.081098,-5.819831,-5.05284,2.4972775
0.102,1.5236572,1.5529898,-4.0740585,-5.7773094,-5.1960073,2.5234635
0.104,1.6651895,1.4155669,-4.0478563,-5.73282,-5.3376365,2.5491734
0.106,1.8152279,1.2766975,-4.0015855,-5.6865244,-5.476752,2.5755835
0.108,1.9713602,1.1389753,-3.9351287,-5.638429,-5.611944,2.6037898
0.11,2.1333468,1.0043144,-3.849599,-5.588332,-5.741423,2.63476
0.112,2.2988462,0.87406945,-3.7462938,-5.535802,-5.8631554,2.6694243
0.114,2.4668074,0.7472738,-3.6338968,-5.480164,-5.974921,2.708609
0.116,2.6392827,0.6312156,-3.5182328,-5.420515,-6.074316,2.753018
0.118,2.8051023,0.5512754,-3.4030468,-5.355707,-6.158778,2.8031666
0.12,2.9594564,0.5205339,-3.275951,-5.284422,-6.2255497,2.8593705
0.122,3.0998507,0.53456473,-3.1246235,-5.205204,-6.2717485,2.9217257
0.124,3.2129023,0.5915692,-2.9539604,-5.116561,-6.294461,2.990113
0.126,3.305057,0.67889446,-2.768021,-5.0171113,-6.2908792,3.064125
0.128,3.3772478,0.7967071,-2.5747674,-4.905714,-6.258512,3.1430702
0.13,3.4193304,0.95696676,-2.3886957,-4.7815857,-6.1953125,3.2260003
0.132,3.4243472,1.1692264,-2.2239418,-4.6444807,-6.0999,3.3117647
0.134,3.387776,1.4379051,-2.0839858,-4.494752,-5.9717293,3.3991706
0.136,3.3035576,1.765627,-1.9636086,-4.333398,-5.8112836,3.4870431
0.138,3.1654422,2.1588027,-1.8574181,-4.161971,-5.620107,3.5743198
0.14,2.9685726,2.6261773,-1.7661328,-3.9825997,-5.4009895,3.6602306
0.142,2.7087662,3.173104,-1.688926,-3.797824,-5.157977,3.744173
0.144,2.3822527,3.799748,-1.6241848,-3.6100748,-4.896157,3.825317
0.146,1.9854436,4.5035048,-1.5739331,-3.4213433,-4.6216645,3.9043112
0.148,1.5183175,5.27853,-1.5386809,-3.2330074,-4.340929,3.9822514
0.15,0.9813032,6.119074,-1.5118293,-3.0468388,-4.0617585,4.057847
0.152,0.37449157,7.0197864,-1.4839125,-2.8651114,-3.791649,4.1280813
0.154,-0.30024385,7.973438,-1.4469316,-2.690274,-3.5368342,4.1888595
0.156,-1.039186,8.97052,-1.3941795,-2.5249217,-3.3025599,4.237405
0.158,-1.836629,9.999376,-1.3193374,-2.3704526,-3.092662,4.2720337
0.16,-2.685087,11.046756,-1.2161505,-2.2272143,-2.9095626,4.289421
0.162,-3.5753326,12.098976,-1.0798492,-2.0958173,-2.7546468,4.283672
0.164,-4.495732,13.141344,-0.9086567,-1.9778293,-2.6274436,4.2477026
0.166,-5.4323034,14.158024,-0.7026082,-1.875672,-2.5240674,4.175102
0.168,-6.3707714,15.13375,-0.46238136,-1.7919154,-2.4367929,4.0609684
0.17,-7.296781,16.05415,-0.18981075,-1.7282093,-2.3550138,3.9014387
0.172,-8.195303,16.905184,0.11119294,-1.6845323,-2.266791,3.6946366
0.174,-9.050486,17.67275,0.43473744,-1.6585597,-2.1599765,3.4425154
0.176,-9.847372,18.344534,0.77429533,-1.6454906,-2.0238092,3.1517246
0.178,-10.57128,18.91012,1.1222348,-1.6385549,-1.8506024,2.8336687
0.18,-11.208255,19.361975,1.4703002,-1.6298225,-1.6368093,2.503494
0.182,-11.747522,19.69592,1.8095675,-1.6113832,-1.3831394,2.1777782
0.184,-12.179503,19.91001,2.1303248,-1.5766742,-1.094429,1.871934
0.186,-12.494916,20.002964,2.422954,-1.5215912,-0.77909744,1.5981579
0.188,-12.687725,19.976229,2.678967,-1.4452063,-0.44799694,1.3640527
0.19,-12.755378,19.834208,2.8923988,-1.3498738,-0.11294042,1.1720803
0.192,-12.697496,19.583094,3.058878,-1.2407631,0.21452084,1.0196235
0.194,-12.516552,19.23073,3.1754432,-1.1248058,0.5240578,0.8998495
0.196,-12.217683,18.786753,3.2405496,-1.0095553,0.80718386,0.8037363
0.198,-11.808186,18.261139,3.2542634,-0.9021894,1.0575851,0.72224784
0.2,-11.297884,17.664778,3.2184086,-0.8084063,1.2714053,0.646612
0.202,-10.698275,17.008202,3.1363487,-0.7316351,1.4468757,0.57094216
0.204,-10.022589,16.302525,3.0120406,-0.67215514,1.5850414,0.49424124
0.206,-9.284684,15.558596,2.850793,-0.6278756,1.6880214,0.41808185
0.208,-8.4993305,14.787771,2.658309,-0.5955205,1.758848,0.34508353
0.21,-7.681605,14.000866,2.440597,-0.5713521,1.8021535,0.27668884
0.212,-6.846414,13.208659,2.203834,-0.55262566,1.82347,0.21399996
0.214,-6.008507,12.42128,1.9543197,-0.5371933,1.8285933,0.15957223
0.216,-5.181871,11.648038,1.6984217,-0.52258885,1.8232355,0.116269976
0.218,-4.3791914,10.896998,1.4430742,-0.506366,1.8118372,0.08499423
0.22,-3.6139555,10.175972,1.1953696,-0.48679858,1.7964116,0.064061254
0.222,-2.896232,9.492088,0.9607519,-0.46349186,1.7769439,0.050690517
0.224,-2.235775,8.852514,0.74858814,-0.4374921,1.7526749,0.04288596
0.226,-1.6436759,8.256226,0.56147283,-0.41073453,1.722934,0.039197266
0.228,-1.1171876,7.689763,0.39834824,-0.38546893,1.6871462,0.037911132
0.23,-0.66094625,7.1570644,0.2453401,-0.36359382,1.6452744,0.037231073
0.232,-0.28036872,6.676294,0.09520086,-0.3461372,1.5981702,0.03560476
0.234,0.029912978,6.255979,-0.041428044,-0.3332446,1.5473576,0.032028414
0.236,0.25800514,5.908214,-0.15771261,-0.32435024,1.4946406,0.02648437
0.238,0.4024737,5.6272373,-0.24669054,-0.31840765,1.442132,0.019723356
0.24,0.47436976,5.397062,-0.29987028,-0.31415498,1.3923464,0.012637988
0.242,0.48009396,5.2077866,-0.31448337,-0.31030813,1.3479586,0.005829476
0.244,0.42401642,5.05587,-0.2995511,-0.30569023,1.3115121,-0.00046285987
0.246,0.31306696,4.938373,-0.26880932,-0.29931262,1.2853383,-0.006153181
0.248,0.15442237,4.848253,-0.2309889,-0.29039901,1.2714912,-0.011133507
0.25,-0.04551238,4.7775946,-0.18626454,-0.27834976,1.2716384,-0.015352875
0.252,-0.28042588,4.7227693,-0.13552424,-0.26269948,1.2868534,-0.018861845
0.254,-0.54349494,4.683802,-0.079800785,-0.24317133,1.3175057,-0.02162446
0.256,-0.8275285,4.6608515,-0.016626239,-0.21974003,1.363181,-0.023569293
0.258,-1.1276035,4.6538525,0.053670198,-0.19263443,1.4228541,-0.024741467
0.26,-1.4379212,4.659974,0.12491518,-0.16240668,1.4949211,-0.025450822
0.262,-1.7515656,4.674523,0.19080603,-0.12987009,1.5772921,-0.026217759
0.264,-2.0628884,4.6936965,0.24869263,-0.096026994,1.667596,-0.027618662
0.266,-2.3669448,4.714427,0.29805076,-0.06192734,1.763458,-0.030167522
0.268,-2.65991,4.734426,0.33886582,-0.02855926,1.8627219,-0.034292076
0.27,-2.9385142,4.7516932,0.37058544,0.0031971782,1.9635583,-0.040344086
0.272,-3.2003224,4.763836,0.39367032,0.032603696,2.0645268,-0.048628114
0.274,-3.4440703,4.7696934,0.4097358,0.059082523,2.1645973,-0.059396185
0.276,-3.6689608,4.7685485,0.41983354,0.082239136,2.2630782,-0.07279058
0.278,-3.8738418,4.759758,0.42365873,0.10190147,2.3595428,-0.08879651
0.28,-4.0573196,4.7427216,0.42052877,0.118095756,2.4537146,-0.10723212
0.282,-4.2188425,4.7177467,0.41018558,0.13098237,2.545286,-0.12781939
0.284,-4.358594,4.6862593,0.3930819,0.14072838,2.6338294,-0.15023938
0.286,-4.4771347,4.649741,0.36881638,0.14749435,2.7187731,-0.17422235
0.288,-4.5750303,4.60932,0.33723438,0.1514372,2.7994792,-0.19956324
0.29,-4.6534925,4.56541,0.2985134,0.15274519,2.875326,-0.22613026
0.292,-4.7136006,4.518321,0.25350726,0.15165603,2.9457645,-0.2538035
0.294,-4.7567463,4.4683933,0.20320201,0.14843082,3.0103474,-0.28248572
0.296,-4.784566,4.416678,0.14794064,0.14331868,3.0687923,-0.31217268
0.298,-4.798454,4.3643804,0.0880214,0.13658196,3.1209948,-0.3429035
0.3,-4.7998385,4.3126407,0.024070263,0.12852025,3.167031,-0.37475652
0.302,-4.7902613,4.262519,-0.04302585,0.11943385,3.2070901,-0.40787372
0.304,-4.771146,4.214723,-0.11242342,0.10959998,3.2413855,-0.44245344
0.306,-4.7437806,4.1695,-0.18380117,0.09922525,3.2701123,-0.47870776
0.308,-4.709409,4.1275797,-0.2571671,0.08844218,3.2934227,-0.5168097
0.31,-4.6692786,4.0899496,-0.33242583,0.077346,3.3114429,-0.55685264
0.312,-4.624639,4.057613,-0.40909755,0.0660086,3.324259,-0.59882545
0.314,-4.5761023,4.0308833,-0.4860854,0.054501265,3.3318715,-0.64266604
0.316,-4.5250587,4.0096965,-0.5629209,0.042844504,3.3342457,-0.6882474
0.318,-4.4727407,3.993973,-0.63874674,0.031039,3.3313482,-0.7354052
0.32,-4.419915,3.983393,-0.71282184,0.019061744,3.3231907,-0.7839451
0.322,-4.367297,3.97777,-0.784552,0.006904781,3.3098965,-0.8336348
0.324,-4.315542,3.9770253,-0.85342073,-0.0053866804,3.291722,-0.8842429
0.326,-4.264655,3.9806972,-0.91900516,-0.017732263,3.2690356,-0.9355409
0.328,-4.214736,3.98864,-0.98113585,-0.030010372,3.2423322,-0.9873086
0.33,-4.166329,4.0006633,-1.04003,-0.042034924,3.2122118,-1.0393666
0.332,-4.1194863,4.0163465,-1.0951173,-0.053616464,3.1793146,-1.0915725
0.334,-4.074869,4.0356374,-1.146004,-0.064590424,3.1443055,-1.1438159
0.336,-4.032161,4.0576916,-1.1921124,-0.074808985,3.1078172,-1.195954
0.338,-3.9915073,4.0818667,-1.2330806,-0.084139824,3.070392,-1.2478365
0.34,-3.9527013,4.107543,-1.2689755,-0.092496395,3.032462,-1.2993194
0.342,-3.9153419,4.1339817,-1.2996402,-0.099826664,2.9943626,-1.350267
0.344,-3.879494,4.1605353,-1.3247974,-0.10611236,2.9563553,-1.4005592
0.346,-3.8452346,4.1868114,-1.3446302,-0.111399025,2.9186466,-1.4500809
0.348,-3.8119736,4.212024,-1.3590082,-0.11575115,2.881436,-1.4987402
0.35,-3.779819,4.2357774,-1.3683004,-0.119241,2.844936,-1.5464522
0.352,-3.7487254,4.2575088,-1.3726131,-0.12191114,2.8093832,-1.5932016
0.354,-3.7181215,4.2765326,-1.3724908,-0.12381232,2.7750342,-1.6390305
0.356,-3.6878912,4.2922916,-1.3687342,-0.12496698,2.7421823,-1.6840589
0.358,-3.6576777,4.304403,-1.3621142,-0.1253953,2.7111204,-1.7284701
0.36,-3.6270957,4.312333,-1.353118,-0.12511596,2.6821024,-1.7724764
0.362,-3.5957148,4.315461,-1.3422432,-0.124123156,2.6552753,-1.8163252
0.364,-3.5631742,4.3136325,-1.3299854,-0.122424364,2.630659,-1.860282
0.366,-3.529033,4.3064933,-1.3168645,-0.12000483,2.608116,-1.9046227
0.368,-3.4933023,4.293928,-1.3032649,-0.116844654,2.5874083,-1.9495369
0.37,-3.4552588,4.275674,-1.2897217,-0.11291063,2.568169,-1.9951165
0.372,-3.414442,4.2515078,-1.2764794,-0.10817599,2.5499136,-2.0413468
0.374,-3.3702602,4.221249,-1.2635355,-0.102615714,2.5321033,-2.0880947
0.376,-3.322534,4.1850386,-1.2510557,-0.09621847,2.5141668,-2.135117
0.378,-3.2706861,4.1427565,-1.2393568,-0.08898872,2.4955502,-2.1820738
0.38,-3.2143784,4.094359,-1.2285473,-0.080958545,2.4757087,-2.2285545
0.382,-3.1533308,4.0400724,-1.2189429,-0.07221007,2.4540942,-2.2741046
0.384,-3.0870402,3.9798672,-1.2105644,-0.06285542,2.4301996,-2.3182387
0.386,-3.0153794,3.914005,-1.2032964,-0.053010225,2.4036138,-2.3604984
0.388,-2.938075,3.842587,-1.1971343,-0.042784512,2.3740213,-2.4004812
0.39,-2.8549752,3.7658162,-1.1917889,-0.0322693,2.3412917,-2.4378653
0.392,-2.7658281,3.6837995,-1.1872894,-0.021514535,2.3055255,-2.4723978
0.394,-2.6706395,3.596842,-1.1838418,-0.010518789,2.2670422,-2.5038617
0.396,-2.5692935,3.5049047,-1.1813858,0.0007779002,2.2263525,-2.532087
0.398,-2.4618793,3.408081,-1.1798599,0.012495458,2.1841252,-2.5569506
0.4,-2.3482206,3.3066683,-1.1794677,0.02479583,2.141126,-2.5783906
0.402,-2.2284098,3.2007973,-1.1804681,0.037835956,2.0981195,-2.596372
0.404,-2.1024532,3.0907917,-1.183084,0.05174631,2.0557609,-2.6108966
0.406,-1.970501,2.9766972,-1.1874634,0.06660247,2.0145736,-2.6219954
0.408,-1.8324754,2.8585722,-1.1935525,0.0824365,1.9749069,-2.6297116
0.41,-1.6884304,2.7364419,-1.2016629,0.09923482,1.9369293,-2.6340826
0.412,-1.5384586,2.610292,-1.2118632,0.1169436,1.9006573,-2.6351516
0.414,-1.3827469,2.4802115,-1.224236,0.13549799,1.8660402,-2.632965
0.416,-1.2216742,2.346527,-1.2384725,0.1548289,1.833024,-2.6275616
0.418,-1.0553663,2.209278,-1.2544658,0.17487371,1.801592,-2.6189291
0.42,-0.88372386,2.0683289,-1.2719043,0.19556487,1.771798,-2.607038
0.422,-0.70700437,1.9237204,-1.2906495,0.2168445,1.7437747,-2.591874
0.424,-0.5255909,1.7756344,-1.3102596,0.2386772,1.7177591,-2.5734293
0.426,-0.3396591,1.6244013,-1.330362,0.26104754,1.6940606,-2.5516834
0.428,-0.1493755,1.470162,-1.3508542,0.28397304,1.6730074,-2.5266078
0.43,0.04497415,1.313065,-1.3716023,0.30748355,1.6549139,-2.4981863
0.432,0.24308193,1.1531751,-1.3925394,0.3316469,1.6400764,-2.46642
0.434,0.4444887,0.9904105,-1.4135822,0.35654172,1.6287924,-2.4313478
0.436,0.6488289,0.82481277,-1.4348801,0.38229424,1.6213229,-2.3930342
0.438,0.85576534,0.65642846,-1.4565692,0.4090277,1.6178944,-2.3515947
0.44,1.0650042,0.48536795,-1.4785882,0.4368636,1.618627,-2.3071566
0.442,1.2759447,0.31168303,-1.5009977,0.46591678,1.6235906,-2.2598617
0.444,1.4885578,0.13518548,-1.5236442,0.49627173,1.6327584,-2.2098694
0.446,1.7023188,-0.043706387,-1.5466878,0.52798414,1.645979,-2.1573753
0.448,1.9167755,-0.22483712,-1.5704924,0.56109023,1.6630187,-2.102564
0.45,2.1312628,-0.40784413,-1.5954189,0.5955857,1.6835567,-2.0456178
0.452,2.3452718,-0.592627,-1.6223778,0.6314522,1.7071977,-1.9867207
0.454,2.558755,-0.77887416,-1.6521147,0.66863656,1.7335136,-1.9260406
0.456,2.7712622,-0.96667844,-1.6849812,0.70706606,1.7620913,-1.8637402
0.458,2.9820702,-1.1557183,-1.7213361,0.7466737,1.7925881,-1.7999419
0.46,3.1910226,-1.3460175,-1.7612119,0.78740835,1.8247027,-1.7347164
0.462,3.3973856,-1.5368662,-1.8048146,0.8292372,1.858213,-1.6680963
0.464,3.6004312,-1.7277482,-1.8521173,0.8721278,1.8929852,-1.6000892
0.466,3.7998137,-1.9183751,-1.9031825,0.9160649,1.9289545,-1.5306658
0.468,3.9950562,-2.1085541,-1.9582868,0.9610514,1.9660964,-1.4597434
0.47,4.185607,-2.2978497,-2.0177944,1.0070678,2.0043747,-1.3872278
0.472,4.3711977,-2.4857883,-2.0818474,1.0540841,2.0437233,-1.313031
0.474,4.5511765,-2.672081,-2.15039,1.102044,2.0840144,-1.2370474
0.476,4.7249594,-2.8561869,-2.2232194,1.1508403,2.1250148,-1.1592153
0.478,4.892271,-3.037661,-2.3001387,1.2003475,2.1664276,-1.0794913
0.48,5.0525517,-3.2159104,-2.3806088,1.2504044,2.2079153,-0.9978742
0.482,5.2055006,-3.3905125,-2.4640684,1.3008708,2.2491145,-0.9143906
0.484,5.3508267,-3.5610728,-2.55017,1.3515815,2.2896879,-0.82908875
0.486,5.4882956,-3.7274537,-2.6383839,1.4023936,2.3293426,-0.7420792
0.488,5.6177273,-3.8893638,-2.7282674,1.4532132,2.3678794,-0.6534865
0.49,5.7392287,-4.046692,-2.8194075,1.5039552,2.405128,-0.56341565
0.492,5.8527317,-4.1992517,-2.9111433,1.5545539,2.4409552,-0.47199968
0.494,5.958291,-4.3470964,-3.002978,1.6049459,2.475279,-0.37942582
0.496,6.0559797,-4.4900165,-3.0944352,1.655038,2.5080042,-0.2858895
0.498,6.1459427,-4.62789,-3.1875868,1.7046999,2.5390248,-0.19155373
0.5,6.2283564,-4.7593203,-3.2927241,1.7537849,2.568202,-0.096543685
0.502,6.30271,-4.878507,-3.4213336,1.8021,2.595354,-0.00095945597
0.504,6.3535924,-4.9700828,-3.5756733,1.849468,2.6202834,0.09515615
0.506,6.3686285,-5.020111,-3.7366123,1.895678,2.6428056,0.19183606
0.508,6.3535748,-5.027877,-3.8830583,1.9405651,2.6627328,0.2891401
0.51,6.32459,-5.0009055,-4.010571,1.9840035,2.679875,0.38715503
0.512,6.2782693,-4.9370646,-4.1248255,2.0258806,2.6940408,0.4859799
0.514,6.203537,-4.8311076,-4.227504,2.0661092,2.7050147,0.58568704
0.516,6.0940475,-4.6767783,-4.325008,2.1046095,2.7125251,0.6863355
0.518,5.9509306,-4.4719734,-4.425599,2.1413298,2.7162187,0.78798044
0.52,5.775172,-4.2142224,-4.5332537,2.176241,2.715671,0.89067674
0.522,5.56031,-3.8980372,-4.65048,2.2092915,2.7104287,0.99447614
0.524,5.3022156,-3.519744,-4.779296,2.2404318,2.7000299,1.0994267
0.526,5.0010004,-3.0778475,-4.916542,2.2696366,2.684064,1.2055904
0.528,4.654296,-2.567862,-5.0544195,2.2969642,2.6623502,1.3131218
0.53,4.258235,-1.9833615,-5.1842194,2.3226168,2.634881,1.422416
0.532,3.8108845,-1.3205309,-5.2972846,2.3466692,2.6011825,1.5338426
0.534,3.3135333,-0.5799646,-5.3871455,2.3687274,2.5593815,1.6467329
0.536,2.7693071,0.23401392,-5.448855,2.3877437,2.50485,1.7585768
0.538,2.1829057,1.1148939,-5.4790845,2.4029837,2.4334087,1.8663107
0.54,1.5601748,2.0531464,-5.475987,2.4129043,2.342342,1.9680566
0.542,0.90850407,3.0353408,-5.438081,2.4147053,2.2265515,2.0617218
0.544,0.23753566,4.0439177,-5.3648973,2.4059057,2.079369,2.1436558
0.546,-0.44039524,5.0568686,-5.2558765,2.3849306,1.8945171,2.2086816
0.548,-1.1137304,6.0517387,-5.1112885,2.349695,1.6659045,2.2505567
0.55,-1.7698381,7.0050573,-4.93205,2.297109,1.3880671,2.2630527
0.552,-2.3929665,7.892318,-4.720192,2.2243204,1.0584496,2.2405298
0.554,-2.9689803,8.690311,-4.479631,2.129473,0.6782628,2.1787152
0.556,-3.4850311,9.377565,-4.21617,2.0122333,0.252857,2.0761826
0.558,-3.9274583,9.935172,-3.9375868,1.8744688,-0.20693761,1.9349769
0.56,-4.286627,10.349272,-3.6543767,1.7207284,-0.6846519,1.7602133
0.562,-4.55398,10.608942,-3.3745413,1.558009,-1.1597987,1.5596913
0.564,-4.7214546,10.705924,-3.1012678,1.3949412,-1.6104484,1.3435206
0.566,-4.7868056,10.638806,-2.8373673,1.2406228,-2.015875,1.1236645
0.568,-4.7505946,10.41208,-2.5884652,1.1034595,-2.359188,0.9129296
0.57,-4.614719,10.035447,-2.3604171,0.9902767,-2.6295104,0.7236006
0.572,-4.3847666,9.524156,-2.1570225,0.9057615,-2.8228686,0.56635714
0.574,-4.0703745,8.898287,-1.9805113,0.85246027,-2.9418387,0.44949612
0.576,-3.6827369,8.181195,-1.8309107,0.8309534,-2.9940617,0.3786747
0.578,-3.2352417,7.3985753,-1.706856,0.84028715,-2.9898565,0.3566989
0.58,-2.7436795,6.577438,-1.6056129,0.8784058,-2.9400744,0.38326138
0.582,-2.2247477,5.7453256,-1.5240731,0.94255906,-2.8543305,0.4549455
0.584,-1.6931045,4.9269767,-1.4564898,1.0296078,-2.739592,0.5656157
0.586,-1.1641248,4.146092,-1.3976628,1.1361648,-2.599638,0.7071744
0.588,-0.65286493,3.4244738,-1.3413243,1.2585287,-2.4357576,0.8706927
0.59,-0.17516333,2.7787857,-1.2833366,1.3924466,-2.2478266,1.0467633
0.592,0.2575199,2.2191663,-1.2199318,1.53227,-2.0388448,1.2248193
0.594,0.63561577,1.753048,-1.1486617,1.6721313,-1.8152122,1.3937293
0.596,0.9506892,1.3855836,-1.0690305,1.8065133,-1.5826516,1.5449603
0.598,1.197636,1.1177791,-0.9812888,1.9294109,-1.3479507,1.6737384
0.6,1.373519,0.9463177,-0.8856796,2.0352454,-1.1201456,1.7783096
0.602,1.4779851,0.8640038,-0.7829911,2.1210256,-0.90828055,1.8590251
0.604,1.5126473,0.86083984,-0.674706,2.1863103,-0.72020704,1.917258
0.606,1.4811794,0.9243922,-0.56315494,2.2317019,-0.56301594,1.9553409
0.608,1.3890657,1.0414549,-0.44946247,2.2585132,-0.44192427,1.976189
0.61,1.2428347,1.1977302,-0.32991803,2.268646,-0.3598264,1.9823946
0.612,1.0507841,1.3763385,-0.20362881,2.2641573,-0.31827265,1.9763141
0.614,0.8330661,1.5560459,-0.07996571,2.2470362,-0.3175037,1.9606452
0.616,0.60173655,1.7235676,0.017539235,2.21923,-0.35602516,1.9381958
0.618,0.35130444,1.8803678,0.07497753,2.1827698,-0.4306875,1.9111991
0.62,0.07349208,2.0325305,0.100765005,2.1400745,-0.53686666,1.8806955
0.622,-0.21722227,2.1745498,0.11080041,2.0936794,-0.66882473,1.8474107
0.624,-0.50288844,2.2992442,0.11370199,2.0456734,-0.8201574,1.8124905
0.626,-0.77481866,2.4011383,0.11987744,1.9974694,-0.9843277,1.7771777
0.628,-1.0324137,2.4798143,0.13745669,1.9496982,-1.1551409,1.7424543
0.63,-1.2734442,2.5344944,0.16784951,1.9023961,-1.3271252,1.7088038
0.632,-1.4891486,2.5619373,0.21000609,1.8552613,-1.4956827,1.6762469
0.634,-1.6753738,2.561772,0.26270932,1.8079367,-1.6568437,1.6446722
0.636,-1.8323823,2.5349674,0.3211565,1.7602152,-1.807189,1.6139619
0.638,-1.9579687,2.4797568,0.37925965,1.7121959,-1.9439195,1.5840002
0.64,-2.0492384,2.3934946,0.4335404,1.6644964,-2.0647607,1.554801
0.642,-2.1059313,2.2769613,0.48298103,1.6182516,-2.1677973,1.526609
0.644,-2.130632,2.134508,0.52972776,1.5749145,-2.2516313,1.500019
0.646,-2.1261234,1.9715154,0.5767562,1.5361443,-2.315327,1.4758013
0.648,-2.0951977,1.7926462,0.62728107,1.5035793,-2.3584714,1.4545596
0.65,-2.0401807,1.6024897,0.68391836,1.4783173,-2.38182,1.4365852
0.652,-1.9634291,1.4060361,0.7475684,1.4608169,-2.3870194,1.4220337
0.654,-1.8681937,1.2089529,0.8178618,1.4509282,-2.3761928,1.4109263
0.656,-1.7587602,1.0175319,0.8927896,1.4478217,-2.3519855,1.4031756
0.658,-1.6369386,0.83519566,0.9701328,1.4501486,-2.3175395,1.3986074
0.66,-1.5049968,0.6643937,1.0479937,1.4562238,-2.2762697,1.3968805
0.662,-1.3673357,0.5072617,1.1247414,1.46417,-2.231676,1.3975611
0.664,-1.2262697,0.3645047,1.1997129,1.4721081,-2.1871145,1.4001538
0.666,-1.0830411,0.23621829,1.2732574,1.4783275,-2.1455524,1.4041272
0.668,-0.9408689,0.12244868,1.3467214,1.4814398,-2.1093626,1.4088204
0.67,-0.8002121,0.021771327,1.4225008,1.4804711,-2.0799797,1.4135133
0.672,-0.66337764,-0.065552175,1.4995704,1.4748979,-2.0577183,1.4175737
0.674,-0.5343852,-0.13803427,1.5736419,1.4643825,-2.042091,1.420542
0.676,-0.4135207,-0.19624504,1.6427107,1.4489172,-2.0318148,1.4215369
0.678,-0.30218947,-0.24143314,1.7093561,1.4289594,-2.0249374,1.4193705
0.68,-0.2039244,-0.27423453,1.7765127,1.4052274,-2.0191753,1.4131997
0.682,-0.12064332,-0.29667765,1.8452942,1.3785218,-2.0122154,1.4027842
0.684,-0.052877873,-0.310537,1.9166012,1.3496563,-2.0019593,1.3883733
0.686,-0.0033597648,-0.3166375,1.9909947,1.3193629,-1.9868395,1.3706263
0.688,0.026720852,-0.3165284,2.0695639,1.2882633,-1.9659429,1.350448
0.69,0.03772345,-0.31157157,2.1512055,1.2568688,-1.9388938,1.328864
0.692,0.029618114,-0.30282667,2.2344272,1.2255996,-1.905732,1.3069354
0.694,0.00019735098,-0.2893857,2.3169065,1.1947747,-1.8668267,1.2856721
0.696,-0.051085353,-0.2714319,2.3979611,1.1646255,-1.8227904,1.2659903
0.698,-0.124031246,-0.24959245,2.4765792,1.1353424,-1.774384,1.24861
0.7,-0.21716312,-0.22297928,2.5543756,1.1070762,-1.7224454,1.2339594
0.702,-0.33053738,-0.18927322,2.632678,1.0799439,-1.6678586,1.2221528
0.704,-0.46307284,-0.14875823,2.7131207,1.0539871,-1.6115193,1.2130339
0.706,-0.6128694,-0.10343906,2.7969563,1.0291741,-1.5543269,1.2061912
0.708,-0.7785659,-0.055165038,2.8837013,1.0053564,-1.497154,1.2009895
0.71,-0.957671,-0.005223468,2.9722195,0.98229575,-1.4407599,1.196578
0.712,-1.1475306,0.04602845,3.0613909,0.95968145,-1.3857236,1.1920056
0.714,-1.3456076,0.098587185,3.1501513,0.93726164,-1.3323662,1.1863194
0.716,-1.5491769,0.15236959,3.238223,0.91487193,-1.2807168,1.1785481
0.718,-1.7554581,0.20688996,3.3266466,0.8924476,-1.2304869,1.1679254
0.72,-1.9609694,0.26162592,3.415413,0.8701656,-1.1809824,1.1539801
0.722,-2.162929,0.31650147,3.5036063,0.8484617,-1.1313052,1.1365056
0.724,-2.358634,0.3712644,3.589641,0.8280359,-1.0804148,1.1156372
0.726,-2.545027,0.4257743,3.6718333,0.809852,-1.0270975,1.0919162
0.728,-2.7191472,0.48034844,3.748181,0.7950654,-0.9700544,1.0662855
0.73,-2.8788204,0.5357819,3.8162255,0.7850125,-0.90791595,1.0401157
0.732,-3.0218916,0.59319246,3.8737793,0.7811705,-0.83913344,1.0152355
0.734,-3.146517,0.6538055,3.9180255,0.785097,-0.76213557,0.9938392
0.736,-3.2508142,0.71874416,3.9469864,0.7983799,-0.67531526,0.9782965
0.738,-3.3338342,0.78926265,3.959547,0.82247573,-0.5771229,0.9709978
0.74,-3.3954406,0.86668575,3.9548142,0.8584846,-0.4661721,0.9741812
0.742,-3.4353392,0.9517636,3.9321785,0.9069952,-0.34128535,0.98969007
0.744,-3.4538755,1.0445737,3.8907561,0.96796834,-0.20162836,1.0186723
0.746,-3.4516416,1.1453483,3.829138,1.0406742,-0.04690591,1.0613217
0.748,-3.429464,1.2533127,3.7461066,1.1236557,0.12259784,1.1167517
0.75,-3.389063,1.3676519,3.6407192,1.2148048,0.3059516,1.1829478
0.752,-3.3320665,1.4868085,3.512512,1.3114169,0.50133383,1.2568647
0.754,-3.260436,1.6089035,3.3617098,1.4104059,0.70598865,1.3346621
0.756,-3.176828,1.7320838,3.1897573,1.5084473,0.9162712,1.4121661
0.758,-3.0839837,1.8541551,2.9990165,1.6021005,1.1276838,1.4853169
0.76,-2.984692,1.973358,2.7923646,1.6880105,1.3349998,1.5505358
0.762,-2.881965,2.087949,2.5734744,1.7631136,1.5325888,1.6050888
0.764,-2.7781847,2.1960423,2.346166,1.8247776,1.7147022,1.6473042
0.766,-2.6755395,2.2957506,2.1137447,1.8708901,1.8757758,1.6765959
0.768,-2.5765643,2.3856952,1.8797412,1.8998805,2.010838,1.6933782
0.77,-2.483543,2.464989,1.6475452,1.9108512,2.1158597,1.6989214
0.772,-2.3979285,2.533178,1.4215169,1.9035771,2.188013,1.6949562
0.774,-2.3212109,2.5906112,1.2065995,1.878444,2.2257872,1.683449
0.776,-2.2549536,2.6381621,1.0071809,1.8364272,2.2292023,1.6664262
0.778,-2.2000544,2.6768131,0.8265493,1.7790453,2.199735,1.6456838
0.78,-2.1567492,2.707831,0.6676636,1.7082319,2.1400936,1.6226285
0.782,-2.1249552,2.7327974,0.5327612,1.626224,2.0540729,1.5982527
0.784,-2.1044488,2.7534125,0.4232543,1.5354098,1.9463284,1.5731281
0.786,-2.0949163,2.7713876,0.34033465,1.4382033,1.8220599,1.547446
0.788,-2.095868,2.788405,0.28438956,1.336968,1.6869276,1.5212053
0.79,-2.106938,2.805909,0.25506058,1.2339283,1.5467036,1.4943248
0.792,-2.1273549,2.8257606,0.25167105,1.1311171,1.4070218,1.4666977
0.794,-2.1567204,2.849248,0.2722042,1.0303913,1.2732084,1.4382192
0.796,-2.1944675,2.8778598,0.31308627,0.93334347,1.1499317,1.4087967
0.798,-2.2412426,2.9131398,0.36999118,0.8412085,1.0409416,1.3784183
0.8,-2.2972796,2.9553788,0.44105393,0.7548229,0.9490648,1.3471705
0.802,-2.3632624,3.0046449,0.523805,0.67467767,0.8760861,1.3152009
0.804,-2.4384792,3.060379,0.6137923,0.600966,0.82276404,1.2827159
0.806,-2.5224743,3.1219354,0.70593107,0.5336594,0.7890734,1.2499077
0.808,-2.615169,3.1885085,0.7951797,0.47258127,0.7742675,1.2169409
0.81,-2.716149,3.2591136,0.87715966,0.4175437,0.77696836,1.1838865
0.812,-2.8264086,3.333275,0.948457,0.36843076,0.7953506,1.1506997
0.814,-2.947064,3.4108012,1.0063121,0.3251897,0.82725805,1.1173077
0.816,-3.075784,3.490677,1.0501504,0.28773433,0.870248,1.0836641
0.818,-3.2123015,3.5729346,1.077478,0.25594157,0.92171925,1.0497354
0.82,-3.35529,3.656544,1.0852666,0.2295711,0.9790341,1.0155277
0.822,-3.5033755,3.739716,1.0705649,0.20823257,1.0394993,0.98110193
0.824,-3.6545584,3.8204343,1.0311203,0.19131976,1.1004435,0.9466205
0.826,-3.8073413,3.897134,0.96654755,0.1780737,1.1594268,0.91231775
0.828,-3.9602184,3.9685688,0.87793213,0.16757035,1.2143658,0.87840843
0.83,-4.112615,4.033846,0.76784533,0.15880536,1.2635506,0.84519523
0.832,-4.26396,4.092329,0.6386012,0.15076943,1.3058125,0.8131681
0.834,-4.4122276,4.143142,0.49303508,0.14244759,1.3405379,0.78293854
0.836,-4.5561385,4.1860623,0.33339733,0.13291562,1.367685,0.7552112
0.838,-4.6947327,4.2209897,0.16099143,0.12136005,1.3877606,0.7306476
0.84,-4.8266687,4.2475996,-0.022665739,0.107101254,1.4017947,0.7098617
0.842,-4.951093,4.266441,-0.2158621,0.08970073,1.4111967,0.6934684
0.844,-5.0671573,4.2778883,-0.4145846,0.06902077,1.4176862,0.6820768
0.846,-5.174141,4.282489,-0.6134899,0.0452656,1.4229519,0.67634535
0.848,-5.2710752,4.281324,-0.8100926,0.018996462,1.4286187,0.6767682
0.85,-5.358244,4.276417,-1.0041518,-0.008959368,1.4360145,0.6835373
0.852,-5.433426,4.267235,-1.192177,-0.037542254,1.4460812,0.69659436
0.854,-5.498259,4.2552257,-1.3715092,-0.06545006,1.4592268,0.71569073
0.856,-5.5543466,4.241467,-1.5371245,-0.09124541,1.4752258,0.74045336
0.858,-5.598623,4.224601,-1.6806676,-0.11339612,1.4932872,0.7703884
0.86,-5.6269584,4.2024097,-1.7974968,-0.1303982,1.5121365,0.80489177
0.862,-5.6403117,4.1752014,-1.8863194,-0.14098337,1.5301033,0.8432496
0.864,-5.6391373,4.143058,-1.9478786,-0.14429034,1.5452657,0.88467157
0.866,-5.622434,4.105646,-1.9858444,-0.14001517,1.5556298,0.92831534
0.868,-5.5902743,4.0636735,-2.0035932,-0.12851684,1.5594277,0.97322595
0.87,-5.5421343,4.0176163,-1.9994144,-0.11080101,1.5552542,1.0183854
0.872,-5.4774065,3.9676416,-1.9687581,-0.08834073,1.5424052,1.0627519
0.874,-5.3957057,3.9122105,-1.9077191,-0.06283237,1.5210183,1.1053048
0.876,-5.297474,3.8492458,-1.8157855,-0.035935804,1.4921352,1.1452575
0.878,-5.1838007,3.777511,-1.6950475,-0.009027556,1.4577233,1.1819898
0.88,-5.055948,3.6968853,-1.5472637,0.016907051,1.420248,1.2150108
0.882,-4.916066,3.6084256,-1.3734099,0.04111676,1.3820256,1.2441045
0.884,-4.7666984,3.513068,-1.1738524,0.06321139,1.3454635,1.2692347
0.886,-4.610462,3.411563,-0.94833714,0.082812935,1.312212,1.2903155
0.888,-4.450147,3.3056352,-0.69620574,0.09943706,1.2831451,1.3075424
0.89,-4.289049,3.1978183,-0.41751158,0.1125551,1.2589518,1.3214048
0.892,-4.1299186,3.091186,-0.11307656,0.12135279,1.2396046,1.3323113
0.894,-3.9756768,2.9894276,0.215188,0.12494787,1.2245545,1.3405138
0.896,-3.8296971,2.8966186,0.5636937,0.122341886,1.21299,1.3461977
0.898,-3.6945686,2.8165574,0.9276443,0.112386055,1.2040248,1.3496821
0.9,-3.5720816,2.7529721,1.3021706,0.09406375,1.1972054,1.3513979
0.902,-3.464588,2.709239,1.6822225,0.066971466,1.1927689,1.351855
0.904,-3.3734806,2.688464,2.0625222,0.03175907,1.1917801,1.3514895
0.906,-3.2990682,2.6925316,2.4375257,-0.009785488,1.1957719,1.3506074
0.908,-3.2409325,2.7228866,2.8009758,-0.05488184,1.2062792,1.3495018
0.91,-3.198558,2.780053,3.145738,-0.10003704,1.2244872,1.3484265
0.912,-3.1700566,2.8629837,3.4658852,-0.14152506,1.2509346,1.3473848
0.914,-3.1536682,2.9696722,3.7567399,-0.17583783,1.2853553,1.3459035
0.916,-3.146966,3.0972147,4.014241,-0.20012084,1.326703,1.3429353
0.918,-3.1465495,3.2418957,4.234599,-0.21253343,1.3733062,1.3369079
0.92,-3.1489203,3.3995051,4.41394,-0.21248052,1.4230077,1.3258246
0.922,-3.1502402,3.5653262,4.5492687,-0.20071855,1.4734011,1.307423
0.924,-3.1465018,3.7339518,4.639206,-0.17923577,1.522142,1.2794162
0.926,-3.1356196,3.9006958,4.6831613,-0.15103205,1.5670754,1.2398686
0.928,-3.1138864,4.06026,4.68482,-0.1196924,1.6064638,1.1875616
0.93,-3.0790431,4.2087884,4.648449,-0.088948876,1.6391003,1.1222397
0.932,-3.0288296,4.3428974,4.578952,-0.062186897,1.6643252,1.0449138
0.934,-2.9614747,4.4598746,4.4814186,-0.04199101,1.6822419,0.95784336
0.936,-2.8753965,4.557477,4.3598204,-0.0298132,1.6938286,0.864179
0.938,-2.7696214,4.6339912,4.217585,-0.026211306,1.7003154,0.7676152
0.94,-2.6436446,4.6885257,4.0589285,-0.030757189,1.7035043,0.6721145
0.942,-2.4973905,4.7210836,3.8893635,-0.042340904,1.705349,0.5811854
0.944,-2.3330252,4.7333508,3.7141757,-0.059630945,1.7074211,0.49754453
0.946,-2.1531813,4.727462,3.5387678,-0.08107786,1.7115018,0.42321476
0.948,-1.9601098,4.7059765,3.3687317,-0.10523337,1.7192663,0.35921073
0.95,-1.7565045,4.672068,3.2084346,-0.1307255,1.732041,0.30537415
0.952,-1.5450841,4.6286697,3.0604036,-0.15617833,1.7506729,0.26054007
0.954,-1.3286562,4.5790787,2.9245348,-0.18046623,1.7752984,0.22291231
0.956,-1.1099907,4.526216,2.7991471,-0.20296004,1.8052357,0.19052994
0.958,-0.8919311,4.472157,2.6848667,-0.22352067,1.839425,0.16150084
0.96,-0.6760949,4.4180326,2.5829506,-0.2423048,1.8767741,0.13396543
0.962,-0.46675256,4.367554,2.4902117,-0.25958526,1.9164252,0.10618541
0.964,-0.26417783,4.3217196,2.4046679,-0.27560115,1.9577706,0.07675926
0.966,-0.06932244,4.280995,2.3229332,-0.29047462,2.0003147,0.04487443
0.968,0.11269671,4.2475753,2.2400029,-0.3042636,2.0436025,0.01035893
0.97,0.27751422,4.222734,2.155289,-0.31702188,2.0871532,-0.0265491
0.972,0.42594057,4.2047205,2.0713475,-0.32889852,2.1303608,-0.065403275
0.974,0.55846965,4.1916165,1.9917614,-0.340174,2.1725147,-0.105592765
0.976,0.672809,4.182886,1.9204564,-0.3512001,2.2128534,-0.14636308
0.978,0.7649838,4.177746,1.8606642,-0.3623746,2.2506583,-0.18695575
0.98,0.8390993,4.172336,1.8072898,-0.37409794,2.28535,-0.22670662
0.982,0.8942414,4.166337,1.756774,-0.3866886,2.3165622,-0.26515988
0.984,0.92913485,4.1615496,1.708938,-0.40032512,2.3442082,-0.30207813
0.986,0.9430714,4.16083,1.6656468,-0.4150495,2.3684573,-0.33737728
0.988,0.9350538,4.16584,1.6290061,-0.4307245,2.3897305,-0.37105048
0.99,0.9036165,4.176911,1.6010418,-0.4469671,2.4087014,-0.40312338
0.992,0.85083944,4.192875,1.5836164,-0.46310824,2.426193,-0.43360287
0.994,0.778509,4.213014,1.5801909,-0.47826844,2.4431067,-0.46249726
0.996,0.68646514,4.2371006,1.5929658,-0.49142417,2.4603364,-0.48976505
0.998,0.57720983,4.263663,1.6220117,-0.50146794,2.4787192,-0.5152596
1,0.4540642,4.291081,1.6669915,-0.50728834,2.4989865,-0.53877425
1.002,0.31897023,4.318316,1.7278566,-0.50791466,2.5217016,-0.5600433
1.004,0.1747558,4.344089,1.8037462,-0.50261146,2.54724,-0.57875264
1.006,0.0252693,4.3669205,1.8934747,-0.49091804,2.5758271,-0.59466624
1.008,-0.12668431,4.386111,1.996061,-0.47270465,2.607586,-0.6076456
1.01,-0.27787852,4.4006877,2.1102283,-0.44809598,2.642947,-0.61742365
1.012,-0.4241796,4.409798,2.2338655,-0.4175241,2.6821003,-0.62372154
1.014,-0.5624762,4.413001,2.3643339,-0.38160628,2.7251613,-0.62635124
1.016,-0.6892085,4.4099684,2.499334,-0.34114993,2.7723002,-0.6252908
1.018,-0.8018194,4.400997,2.6365893,-0.29724503,2.8234901,-0.62056816
1.02,-0.89731836,4.386763,2.7732544,-0.2511149,2.8785107,-0.6121118
1.022,-0.9738721,4.368402,2.9057586,-0.20394814,2.9369752,-0.5996733
1.024,-1.0302191,4.3472304,3.0303,-0.15682876,2.9983358,-0.58296645
1.026,-1.0658479,4.3246665,3.1438797,-0.110761404,3.061671,-0.56185853
1.028,-1.0810031,4.3022237,3.244713,-0.066681325,3.125494,-0.5363502
1.03,-1.0764301,4.281583,3.3325875,-0.025612295,3.1875162,-0.5066096
1.032,-1.0538485,4.2645555,3.4076698,0.011230528,3.2446117,-0.47314367
1.034,-1.0158713,4.252926,3.470848,0.04241115,3.2929764,-0.43686318
1.036,-0.965186,4.2483397,3.5225637,0.06636727,3.3285244,-0.39905605
1.038,-0.9047022,4.2523193,3.5629904,0.08152765,3.347283,-0.3613697
1.04,-0.83724093,4.2661614,3.5924797,0.0865255,3.3459864,-0.3256526
1.042,-0.76546717,4.290638,3.6114407,0.08041173,3.3226836,-0.2938193
1.044,-0.6921135,4.325958,3.6207469,0.06283158,3.2770696,-0.26765963
1.046,-0.6195488,4.3717785,3.621243,0.034134805,3.2106237,-0.24867997
1.048,-0.5501737,4.427493,3.6143644,-0.004531026,3.1264699,-0.23787133
1.05,-0.48591888,4.49226,3.6018627,-0.05135274,3.0290105,-0.2356544
1.052,-0.42793384,4.5647883,3.5852592,-0.104038,2.9233108,-0.24192923
1.054,-0.3770815,4.643718,3.565388,-0.16005525,2.8145297,-0.2560389
1.056,-0.33319134,4.727415,3.5427291,-0.21682149,2.7074828,-0.27686524
1.058,-0.29571196,4.814092,3.517624,-0.27190214,2.6062398,-0.30290768
1.06,-0.26385212,4.901866,3.4901164,-0.32317117,2.5139663,-0.3323859
1.062,-0.23653883,4.988551,3.4597797,-0.36885834,2.4328864,-0.36345938
1.064,-0.21237454,5.072217,3.4262538,-0.40763706,2.3642356,-0.39455062
1.066,-0.18956167,5.1512194,3.3890612,-0.4384677,2.3090754,-0.4242335
1.068,-0.16615105,5.224323,3.348,-0.4607089,2.2680676,-0.45123732
1.07,-0.14037395,5.290703,3.3030338,-0.47399098,2.241479,-0.474601
1.072,-0.11026019,5.349527,3.254434,-0.4781333,2.229367,-0.49382198
1.074,-0.074093014,5.4002542,3.2022212,-0.47333005,2.2314262,-0.508865
1.076,-0.030623198,5.4427543,3.1460555,-0.46016908,2.2468896,-0.52008384
1.078,0.021362454,5.477018,3.0855901,-0.4395569,2.274481,-0.52798164
1.08,0.08289501,5.5032873,3.0212698,-0.4125776,2.312645,-0.53305274
1.082,0.15414006,5.5221767,2.9534903,-0.38039422,2.359689,-0.5358629
1.084,0.23405325,5.534966,2.882319,-0.3441137,2.4139426,-0.5369828
1.086,0.32276702,5.5420628,2.8087654,-0.3046951,2.4738047,-0.53685147
1.088,0.42174423,5.543804,2.7327101,-0.262968,2.5377407,-0.5357738
1.09,0.52386034,5.543836,2.657849,-0.21970206,2.6043167,-0.5339749
1.092,0.6286744,5.542278,2.5851066,-0.17561513,2.6721978,-0.53158253
1.094,0.7358308,5.5390015,2.5153077,-0.1313926,2.7400367,-0.5286743
1.096,0.844977,5.533188,2.451184,-0.08768922,2.8064697,-0.5252477
1.098,0.95602787,5.524399,2.395118,-0.0451259,2.870274,-0.5212176
1.1,1.0684819,5.513197,2.346435,-0.004230976,2.9304388,-0.5164459
1.102,1.1795558,5.500393,2.302981,0.034560204,2.986245,-0.51087505
1.104,1.289429,5.4857583,2.26078,0.07092816,3.0372875,-0.5045178
1.106,1.397054,5.4703846,2.218037,0.1046862,3.0835307,-0.49741617
1.108,1.4996701,5.454298,2.1786761,0.13577235,3.1252058,-0.48968327
1.11,1.5963403,5.436373,2.1447308,0.1642186,3.1626987,-0.48148513
1.112,1.6876514,5.4170275,2.1168222,0.19016048,3.1964545,-0.47303563
1.114,1.7725531,5.3963714,2.0970461,0.21381152,3.2268748,-0.4645126
1.116,1.850284,5.3732467,2.0863395,0.23539901,3.2542925,-0.4560473
1.118,1.9216307,5.3465037,2.0833764,0.25512317,3.2788844,-0.4477172
1.12,1.98703,5.316096,2.0863953,0.27313164,3.3006876,-0.4395547
1.122,2.0458813,5.2826476,2.0950894,0.2895583,3.3197298,-0.4315772
1.124,2.097851,5.2466717,2.1096492,0.30447486,3.3359914,-0.42374352
1.126,2.142933,5.208005,2.1290152,0.3179375,3.34946,-0.41595393
1.128,2.181412,5.1660476,2.1512058,0.3300041,3.3601007,-0.40810794
1.13,2.212963,5.1205673,2.1760383,0.34075713,3.3678925,-0.40012306
1.132,2.2382412,5.071526,2.204926,0.35029685,3.3728018,-0.3918603
1.134,2.2572849,5.0195875,2.2396662,0.35873923,3.3747044,-0.38315746
1.136,2.2698421,4.9652967,2.281487,0.36618137,3.3735497,-0.37395155
1.138,2.2756183,4.909274,2.3306785,0.3726076,3.3692083,-0.3643661
1.14,2.2746642,4.851877,2.3863513,0.3780315,3.361587,-0.354291
1.142,2.2674952,4.793527,2.4484262,0.38264576,3.3507302,-0.3434024
1.144,2.2542787,4.7350693,2.516532,0.38655138,3.336745,-0.33173013
1.146,2.2349505,4.6773386,2.5912757,0.38968527,3.3198898,-0.31962746
1.148,2.2096975,4.621012,2.6734543,0.39194494,3.3004882,-0.3073665
1.15,2.1788065,4.5668287,2.7632189,0.393277,3.278877,-0.2950669
1.152,2.1454475,4.5142198,2.8590727,0.3937338,3.2555199,-0.2828728
1.154,2.1079698,4.465537,2.9574287,0.3934899,3.2311435,-0.27100736
1.156,2.0664935,4.4210415,3.061263,0.3928498,3.2066925,-0.25971895
1.158,2.02483,4.378929,3.1750576,0.3922948,3.1832862,-0.24919689
1.16,1.9799466,4.3423038,3.2927685,0.39250192,3.1621668,-0.23948811
1.162,1.9324584,4.3119116,3.41516,0.3943534,3.1447797,-0.23050153
1.164,1.885633,4.2844057,3.5501895,0.3988846,3.1327765,-0.22217646
1.166,1.8375584,4.2605224,3.6940029,0.407141,3.1278598,-0.21458276
1.168,1.7893326,4.240677,3.8384032,0.42006308,3.131508,-0.20784657
1.17,1.7432146,4.2245655,3.9802332,0.43840748,3.1447587,-0.20211312
1.172,1.6982586,4.21352,4.1175337,0.46258888,3.1680393,-0.19759569
1.174,1.6551672,4.2088127,4.2422905,0.49256307,3.2010772,-0.19462039
1.176,1.6237335,4.204896,4.363041,0.5278385,3.2429264,-0.1935603
1.178,1.6025255,4.200342,4.4910603,0.5675213,3.2920625,-0.19481963
1.18,1.5862333,4.1984196,4.619629,0.61041635,3.346526,-0.19879173
1.182,1.576246,4.199465,4.737569,0.65509415,3.4041755,-0.20580192
1.184,1.574647,4.2017217,4.840842,0.70009655,3.4629004,-0.21619348
1.186,1.5792918,4.2042866,4.933737,0.7438532,3.5205204,-0.23034935
1.188,1.5882576,4.205468,5.0262747,0.78487164,3.575355,-0.24835397
1.19,1.6017038,4.2048483,5.1231976,0.82213414,3.6266453,-0.27026725
1.192,1.6196622,4.2037168,5.222334,0.8547864,3.6736658,-0.29624018
1.194,1.6418045,4.202766,5.3188047,0.88179654,3.715662,-0.32647744
1.196,1.6672473,4.2023044,5.4081216,0.90239114,3.7527337,-0.3612364
1.198,1.6952829,4.2025504,5.488123,0.91611433,3.7850184,-0.40038055
1.2,1.7254449,4.20378,5.5596023,0.92263967,3.8123665,-0.44339952
1.202,1.7578807,4.206718,5.6244516,0.9219268,3.835113,-0.48988813
1.204,1.7933565,4.212198,5.68332,0.91434336,3.8541315,-0.5396217
1.206,1.8331654,4.2209063,5.7337,0.90027595,3.8701372,-0.59188724
1.208,1.8784449,4.2336493,5.7711368,0.880538,3.884461,-0.64561296
1.21,1.9301817,4.2512126,5.791585,0.85715187,3.8992887,-0.6999533
1.212,1.9887171,4.2743363,5.7923937,0.8329375,3.9160147,-0.7538026
1.214,2.0538688,4.3034706,5.7716713,0.8110134,3.9350476,-0.8056873
1.216,2.1289709,4.336798,5.727662,0.79433787,3.9560914,-0.8542248
1.218,2.2159042,4.374214,5.6555967,0.7853226,3.9784138,-0.898135
1.22,2.3149374,4.4155145,5.553563,0.7858204,4.001076,-0.93639004
1.222,2.4269452,4.458289,5.4211416,0.7969503,4.0228066,-0.9686682
1.224,2.553363,4.5011234,5.257448,0.81891346,4.042131,-0.9954378
1.226,2.694197,4.543962,5.063878,0.8508435,4.057682,-1.0176618
1.228,2.8485482,4.586154,4.8435297,0.8908343,4.0683827,-1.0366023
1.23,3.014871,4.626312,4.5995007,0.9362072,4.0736637,-1.053674
1.232,3.1914406,4.66312,4.334039,0.9839524,4.0736303,-1.07017
1.234,3.3769362,4.6954637,4.050699,1.0312308,4.069026,-1.0870161
1.236,3.5684605,4.723376,3.754768,1.0757846,4.060938,-1.1046247
1.238,3.7629194,4.746908,3.4531693,1.1160845,4.050536,-1.1226251
1.24,3.9570954,4.7662253,3.151155,1.1515763,4.0390835,-1.1400195
1.242,4.148135,4.7808537,2.8516636,1.1824056,4.027367,-1.1555612
1.244,4.3334236,4.790124,2.5578985,1.2090468,4.015623,-1.1676182
1.246,4.510478,4.7940893,2.273688,1.232491,4.0045934,-1.1744486
1.248,4.6768484,4.793252,2.0031664,1.2540276,3.9950454,-1.1747442
1.25,4.8299356,4.78829,1.7500887,1.2745807,3.9870548,-1.167535
1.252,4.9677143,4.7792735,1.516839,1.2949421,3.9811268,-1.1523868
1.254,5.08928,4.7662296,1.3049678,1.3157153,3.978091,-1.1296434
1.256,5.1933413,4.7494392,1.1157603,1.3371093,3.9783175,-1.1001233
1.258,5.2789917,4.7290916,0.9500923,1.3590763,3.981844,-1.064867
1.26,5.345724,4.7053084,0.8083668,1.3818212,3.988837,-1.0254372
1.262,5.3918905,4.678875,0.69123363,1.4053057,3.998663,-0.98354024
1.264,5.4213276,4.6475077,0.59949565,1.4288747,4.0100307,-0.94062316
1.266,5.4360023,4.611284,0.52704287,1.451911,4.0223675,-0.89839345
1.268,5.435175,4.571177,0.4680612,1.4740345,4.035055,-0.8585809
1.27,5.425061,4.523168,0.42690754,1.495087,4.0468006,-0.8223805
1.272,5.406643,4.466486,0.40016556,1.5149251,4.0556884,-0.79060626
1.274,5.379698,4.403657,0.38003922,1.5330896,4.059627,-0.76373935
1.276,5.3491325,4.3324466,0.37100267,1.5488769,4.057029,-0.7418714
1.278,5.3158627,4.25174,0.37899137,1.561607,4.0468793,-0.7249165
1.28,5.2798734,4.1615896,0.40304995,1.5708578,4.0286446,-0.7128851
1.282,5.244098,4.061229,0.44142222,1.5764785,4.0022135,-0.7057832
1.284,5.2091737,3.9508388,0.49643373,1.5784669,3.967778,-0.7034798
1.286,5.168841,3.836279,0.55491734,1.5768342,3.9257565,-0.705755
1.288,5.129132,3.7179217,0.60665584,1.5715488,3.8768682,-0.71225274
1.29,5.0966244,3.5927424,0.66041183,1.5626341,3.8222497,-0.7224151
1.292,5.0694265,3.462365,0.7247813,1.5502732,3.7633665,-0.7355645
1.294,5.045744,3.330717,0.7980101,1.534823,3.7019117,-0.7509145
1.296,5.0274143,3.2005162,0.87126064,1.5168034,3.639606,-0.76755375
1.298,5.0145264,3.0747445,0.934211,1.4968247,3.5780153,-0.78451073
1.3,5.0049653,2.954852,0.98507726,1.4755667,3.5185435,-0.8008532
1.302,4.9972935,2.8409464,1.0282848,1.4537184,3.4624534,-0.81572413
1.304,4.9901886,2.734184,1.0680416,1.432009,3.4108303,-0.8283241
1.306,4.982624,2.63639,1.1052572,1.4111636,3.3645139,-0.8380062
1.308,4.973542,2.5494628,1.1372155,1.3918526,3.3240957,-0.84433395
1.31,4.96192,2.4744327,1.1591084,1.3746018,3.289892,-0.8470975
1.312,4.9469004,2.4114218,1.1669061,1.3597747,3.2619152,-0.8463223
1.314,4.92708,2.3610325,1.1586163,1.3475758,3.239849,-0.8422559
1.316,4.9012895,2.3233929,1.1361122,1.338056,3.223088,-0.83535767
1.318,4.8695006,2.2979488,1.1020648,1.3311094,3.2107384,-0.82628417
1.32,4.8322477,2.2835798,1.0583797,1.3264654,3.201551,-0.8158288
1.322,4.790249,2.279428,1.0053792,1.3237458,3.194106,-0.8048461
1.324,4.7438154,2.2848954,0.9436035,1.3224859,3.1870074,-0.7941719
1.326,4.6933117,2.2991333,0.8742173,1.3222587,3.1790187,-0.7845593
1.328,4.639685,2.3206053,0.79922795,1.3227532,3.1691368,-0.7767438
1.33,4.5839105,2.3475788,0.72105956,1.3237431,3.1565807,-0.77144367
1.332,4.5272512,2.378108,0.6415968,1.3250364,3.1407459,-0.7693026
1.334,4.470924,2.4106464,0.5623698,1.3264428,3.1211975,-0.77090526
1.336,4.417071,2.442137,0.48578286,1.3277897,3.0976684,-0.7768068
1.338,4.3668056,2.4711456,0.4132254,1.3288791,3.069962,-0.7875404
1.34,4.3210588,2.496472,0.34682965,1.32952,3.0380292,-0.80349594
1.342,4.281322,2.5168028,0.28889978,1.3295091,3.002021,-0.8248334
1.344,4.2483625,2.531468,0.24102378,1.3284874,2.961978,-0.85156024
1.346,4.223118,2.539831,0.20420206,1.3260549,2.9180934,-0.8835307
1.348,4.206244,2.5419443,0.17859352,1.3219029,2.8708024,-0.92031455
1.35,4.1974387,2.537612,0.16416824,1.3158282,2.8207622,-0.96121645
1.352,4.1957164,2.527475,0.16213751,1.3078336,2.7688556,-1.0053201
1.354,4.1999393,2.5123484,0.17285275,1.2981164,2.7161446,-1.0515158
1.356,4.208632,2.4933057,0.19615865,1.28706,2.6637623,-1.0985821
1.358,4.219894,2.4715972,0.23163736,1.2752079,2.612871,-1.1452318
1.36,4.231476,2.4488347,0.2787305,1.2631968,2.5645735,-1.1901534
1.362,4.24072,2.426769,0.3365463,1.2517443,2.519786,-1.2321264
1.364,4.244505,2.4071162,0.40407693,1.2416013,2.4792342,-1.270154
1.366,4.2401123,2.3913496,0.47945416,1.2335525,2.4436297,-1.3033178
1.368,4.2248573,2.38132,0.561098,1.2282345,2.4133866,-1.3307891
1.37,4.195658,2.378606,0.64772296,1.2261474,2.3886158,-1.3520291
1.372,4.1493087,2.3850584,0.73827505,1.2277079,2.3693771,-1.3667371
1.374,4.0830398,2.402138,0.8316654,1.2331719,2.3555932,-1.3748692
1.376,3.9940336,2.4309235,0.9268825,1.2426343,2.3470085,-1.376636
1.378,3.880529,2.4723234,1.0226227,1.2560233,2.3432348,-1.3724586
1.38,3.7411516,2.5267267,1.1176012,1.2731074,2.343777,-1.3629279
1.382,3.575509,2.5940406,1.2108376,1.2935305,2.3480337,-1.3487794
1.384,3.3836231,2.673552,1.3014809,1.3168349,2.3552911,-1.3308356
1.386,3.1657312,2.764458,1.38905,1.3424789,2.364748,-1.3099954
1.388,2.9237638,2.865387,1.4730147,1.3698989,2.3754954,-1.2872121
1.39,2.6600502,2.9747632,1.5528319,1.39851,2.38649,-1.2635381
1.392,2.377556,3.090748,1.6281525,1.4277426,2.396642,-1.2400801
1.394,2.0795918,3.2111378,1.699034,1.4570268,2.404729,-1.2179861
1.396,1.7700659,3.3335855,1.7659073,1.4858288,2.409433,-1.1983967
1.398,1.4532515,3.4559393,1.8291373,1.5137776,2.4096553,-1.182309
1.4,1.1341867,3.5757701,1.8891774,1.5405611,2.404349,-1.1705759
1.402,0.8180637,3.690828,1.9459113,1.5659065,2.3925598,-1.1639104
1.404,0.5101093,3.7988808,1.9993136,1.5896603,2.3735557,-1.1628616
1.406,0.21580139,3.8978043,2.0495079,1.6116942,2.3467922,-1.1677372
1.408,-0.05938211,3.9855437,2.0962498,1.631906,2.3119147,-1.1786056
1.41,-0.3105035,4.0603147,2.1390026,1.6502182,2.2687745,-1.1952845
1.412,-0.53326416,4.1206694,2.1772714,1.6665571,2.2174504,-1.2173632
1.414,-0.72316134,4.165409,2.2104847,1.6808629,2.1581728,-1.2442346
1.416,-0.87622833,4.193752,2.2382412,1.6930729,2.0913067,-1.2751186
1.418,-0.98959804,4.2053337,2.260178,1.7030882,2.0173075,-1.3091588
1.42,-1.0611138,4.200584,2.2751524,1.7107799,1.9366026,-1.3455985
1.422,-1.0889633,4.179949,2.281882,1.7161436,1.8498789,-1.3837407
1.424,-1.0720521,4.1436977,2.2797256,1.7192278,1.7579963,-1.4228203
1.426,-1.0098374,4.092724,2.2674913,1.7201129,1.6617897,-1.462111
1.428,-0.9027124,4.0283785,2.244264,1.7190177,1.5621806,-1.5009607
1.43,-0.75167835,3.952324,2.2093537,1.7162533,1.4602183,-1.5387692
1.432,-0.5580449,3.8661027,2.162363,1.7122571,1.357043,-1.575007
1.434,-0.32336044,3.771132,2.1030178,1.7075746,1.2538352,-1.6092155
1.436,-0.050044462,3.6690874,2.0309863,1.702808,1.15186,-1.6409947
1.438,0.25917464,3.5615368,1.9464172,1.6985874,1.0523702,-1.6699789
1.44,0.6015347,3.449811,1.84966,1.6955142,0.9565625,-1.695833
1.442,0.9739022,3.3354406,1.7415993,1.6941259,0.8655733,-1.7182773
1.444,1.3734325,3.2194808,1.6239024,1.694881,0.7804505,-1.7370718
1.446,1.7961916,3.1042345,1.4972694,1.6981457,0.7021184,-1.7520454
1.448,2.2394068,2.9899776,1.3641243,1.704182,0.63137627,-1.7631382
1.45,2.7002423,2.8770232,1.2261615,1.7131654,0.5688939,-1.7704095
1.452,3.175414,2.765895,1.0851047,1.7251605,0.51518804,-1.7739605
1.454,3.661588,2.6567764,0.9429816,1.7401277,0.47053215,-1.7738392
1.456,4.1556053,2.5500739,0.80211806,1.7580001,0.43502155,-1.7701108
1.458,4.6545725,2.445835,0.6646186,1.7786553,0.40853152,-1.7628284
1.46,5.1559362,2.344252,0.5327261,1.8019208,0.39072925,-1.752043
1.462,5.6570683,2.2452261,0.40810454,1.8275739,0.38107285,-1.7378093
1.464,6.1555557,2.1487532,0.29244345,1.8553109,0.37882176,-1.7202159
1.466,6.6488276,2.0546212,0.18691689,1.8847739,0.38304946,-1.6993828
1.468,7.134512,1.9624108,0.09254372,1.9155499,0.3927303,-1.6754637
1.47,7.609913,1.872086,0.010145485,1.9471657,0.40677565,-1.6486769
1.472,8.072904,1.7837203,-0.059366584,1.9791238,0.42406726,-1.619254
1.474,8.52115,1.697733,-0.11545539,2.0109003,0.4435212,-1.5874804
1.476,8.952767,1.6144234,-0.15794039,2.041981,0.46416253,-1.5536852
1.478,9.365954,1.5338798,-0.18754232,2.071931,0.48513052,-1.5182097
1.48,9.758831,1.4563837,-0.205125,2.100383,0.50571823,-1.4814105
1.482,10.129492,1.3821591,-0.21141589,2.127059,0.5253636,-1.4436283
1.484,10.47592,1.3118525,-0.20728222,2.151769,0.5436048,-1.4051906
1.486,10.796755,1.2460529,-0.19363147,2.1744049,0.56007576,-1.3663671
1.488,11.09065,1.1852975,-0.17175019,2.1949854,0.57452714,-1.3273526
1.49,11.35638,1.1303098,-0.14296861,2.213644,0.5867803,-1.2882843
1.492,11.5926695,1.081998,-0.10873513,2.2306173,0.5967748,-1.2492809
1.494,11.798551,1.041308,-0.070659325,2.246223,0.6045468,-1.2104313
1.496,11.97351,1.0087587,-0.03049454,2.2608209,0.61017144,-1.1717757
1.498,12.116962,0.98492026,0.010177523,2.2748032,0.61380917,-1.1333346
1.5,12.2289715,0.97024703,0.049840882,2.2885666,0.6156664,-1.0951016
1.502,12.309443,0.9650757,0.08693966,2.3024867,0.6159237,-1.0570474
1.504,12.358996,0.96990395,0.12012253,2.3168914,0.614731,-1.019145
1.506,12.378269,0.9849405,0.1481435,2.332082,0.61220396,-0.9814173
1.508,12.368357,1.0101521,0.16994508,2.3482876,0.6083988,-0.9439734
1.51,12.330467,1.0454884,0.1841593,2.3656473,0.60323113,-0.906947
1.512,12.266339,1.0906862,0.1897339,2.38423,0.5965322,-0.8705183
1.514,12.17803,1.1453241,0.18567537,2.4040737,0.58804846,-0.83489996
1.516,12.067807,1.2089947,0.1711076,2.4251912,0.5774497,-0.80033886
1.518,11.938085,1.2811298,0.14556466,2.4475613,0.5643488,-0.76711345
1.52,11.791964,1.3608984,0.108652815,2.4711282,0.54827434,-0.7355069
1.522,11.63274,1.4473963,0.060001135,2.495838,0.52873135,-0.7057839
1.524,11.463369,1.5396651,-0.00087450445,2.5216422,0.50518495,-0.6781751
1.526,11.287278,1.6366618,-0.074431986,2.5484622,0.4770708,-0.65288424
1.528,11.10777,1.737194,-0.16096939,2.5762348,0.44382364,-0.6300344
1.53,10.928339,1.8404901,-0.26039204,2.6048963,0.40484965,-0.6096519
1.532,10.752181,1.9459348,-0.37249476,2.6344008,0.35962164,-0.5916993
1.534,10.58296,2.0523858,-0.49701875,2.6647446,0.30769938,-0.57605886
1.536,10.423875,2.1591766,-0.6338138,2.6959734,0.24876712,-0.5625519
1.538,10.277928,2.265723,-0.7825742,2.728177,0.18267457,-0.55093145
1.54,10.14803,2.3713734,-0.94308865,2.7614849,0.109401375,-0.5409174
1.542,10.036707,2.4757438,-1.1149567,2.7960246,0.029056698,-0.5322126
1.544,9.946415,2.578806,-1.2975419,2.8319194,-0.058191195,-0.5245138
1.546,9.87987,2.6803973,-1.49061,2.869297,-0.15208517,-0.5175181
1.548,9.838976,2.780624,-1.693355,2.9082546,-0.25233918,-0.5109418
1.55,9.825069,2.879876,-1.9047896,2.948886,-0.358666,-0.50450516
1.552,9.839351,2.9784522,-2.123809,2.9912393,-0.47080702,-0.49797153
1.554,9.883213,3.0765977,-2.3486326,3.0353456,-0.5885254,-0.49115252
1.556,9.956203,3.1753552,-2.5791087,3.0812116,-0.71159613,-0.483869
1.558,10.058155,3.2763748,-2.8176858,3.1288202,-0.83983576,-0.47593102
1.56,10.191889,3.3795393,-3.065375,3.1781797,-0.9730569,-0.46720177
1.562,10.35792,3.4845486,-3.3199043,3.2292993,-1.1111193,-0.45759895
1.564,10.555072,3.5925536,-3.577436,3.2821686,-1.253896,-0.4470471
1.566,10.781731,3.705293,-3.8355849,3.3367934,-1.4012547,-0.43549746
1.568,11.037027,3.8234088,-4.093496,3.393161,-1.5530576,-0.42299592
1.57,11.3224125,3.9460588,-4.351033,3.4512467,-1.7091606,-0.4096285
1.572,11.636364,4.073332,-4.6077538,3.511029,-1.8694031,-0.39551264
1.574,11.971753,4.207205,-4.860148,3.572468,-2.0335932,-0.38084584
1.576,12.324856,4.3461223,-5.0999894,3.6355014,-2.2015204,-0.36585718
1.578,12.707642,4.484344,-5.328333,3.700057,-2.372973,-0.35080314
1.58,13.115027,4.6245914,-5.5530376,3.7660625,-2.5476851,-0.33593094
1.582,13.541452,4.7693114,-5.7758017,3.8334286,-2.7253277,-0.32146478
1.584,13.988837,4.9169507,-5.9934235,3.9020908,-2.9055085,-0.30761945
1.586,14.453972,5.0674677,-6.2026567,3.9719827,-3.087908,-0.29452205
1.588,14.932571,5.2198977,-6.3956246,4.0430565,-3.2723122,-0.28219151
1.59,15.426524,5.3713017,-6.566027,4.1153293,-3.4584894,-0.27054584
1.592,15.934209,5.5209904,-6.715264,4.1887326,-3.6463423,-0.25940585
1.594,16.451862,5.6683636,-6.845602,4.263188,-3.835855,-0.24843335
1.596,16.976887,5.8112855,-6.9565597,4.338635,-4.0270734,-0.23726225
1.598,17.508345,5.947025,-7.047822,4.414988,-4.220126,-0.22560024
1.6,18.044712,6.073486,-7.1196203,4.492149,-4.4152584,-0.21316671
1.602,18.583923,6.1895695,-7.1712346,4.5699005,-4.6130695,-0.19967508
1.604,19.123835,6.2944007,-7.200827,4.647844,-4.8146973,-0.18485165
1.606,19.663519,6.3872104,-7.2073703,4.7256603,-5.0209837,-0.16819572
1.608,20.202225,6.467095,-7.192194,4.803487,-5.2315893,-0.14896417
1.61,20.739334,6.533614,-7.1576915,4.8813214,-5.446971,-0.12681103
1.612,21.274193,6.58714,-7.105878,4.9592304,-5.667865,-0.10153127
1.614,21.806288,6.628511,-7.0389957,5.0376,-5.8939075,-0.07259536
1.616,22.334412,6.660095,-6.960172,5.11679,-6.1245985,-0.039531708
1.618,22.857615,6.6846275,-6.871625,5.197347,-6.3591094,-0.0019037724
1.62,23.375221,6.7049346,-6.7744913,5.28041,-6.59544,0.040828466
1.622,23.886456,6.724165,-6.6701527,5.367446,-6.831546,0.089051485
1.624,24.389807,6.746367,-6.5601625,5.460063,-7.065643,0.14283442
1.626,24.883162,6.7758303,-6.4454594,5.559943,-7.2955003,0.20216632
1.628,25.364153,6.816976,-6.326385,5.6686687,-7.5184455,0.26705766
1.63,25.830082,6.8741164,-6.2029886,5.787462,-7.7314796,0.33738327
1.632,26.277473,6.951436,-6.074817,5.9170737,-7.9310737,0.4128027
1.634,26.702606,7.053127,-5.9406557,6.057705,-8.1130085,0.49273205
1.636,27.100874,7.1834917,-5.7986574,6.2089086,-8.272325,0.5763426
1.638,27.46773,7.346492,-5.6463304,6.3695474,-8.403594,0.6626494
1.64,27.79821,7.5452003,-5.480755,6.537947,-8.50141,0.7505586
1.642,28.086954,7.7825418,-5.29908,6.712021,-8.560972,0.8389816
1.644,28.328634,8.060804,-5.098642,6.8894763,-8.578617,0.9269819
1.646,28.518246,8.381189,-4.8769536,7.068089,-8.552315,1.0137639
1.648,28.65102,8.744349,-4.6321516,7.2456517,-8.4820795,1.0986636
1.65,28.723045,9.149968,-4.3624425,7.420139,-8.369861,1.1813319
1.652,28.730003,9.597841,-4.0668845,7.589779,-8.219336,1.2617
1.654,28.668741,10.086564,-3.7444458,7.753077,-8.03566,1.3397487
1.656,28.53696,10.614586,-3.3947673,7.908946,-7.8247643,1.4154019
1.658,28.333319,11.179877,-3.0188227,8.056615,-7.5929484,1.4885093
1.66,28.057869,11.78006,-2.618155,8.195405,-7.3471575,1.5586668
1.662,27.711424,12.412278,-2.195068,8.324583,-7.094731,1.625353
1.664,27.295155,13.073769,-1.7528934,8.444015,-6.8413324,1.6883793
1.666,26.812826,13.760754,-1.2938929,8.553772,-6.5920563,1.7473416
1.668,26.267908,14.469306,-0.8190656,8.653941,-6.352355,1.8014219
1.67,25.662086,15.197163,-0.33203268,8.744975,-6.1266747,1.8498452
1.672,25.000519,15.9415,0.16077709,8.827324,-5.918829,1.891815
1.674,24.290426,16.69812,0.65265083,8.901197,-5.732463,1.9265492
1.676,23.539257,17.462116,1.139296,8.966967,-5.5697584,1.9535991
1.678,22.753487,18.23024,1.6181827,9.025261,-5.431693,1.9728273
1.68,21.938091,19.000195,2.0871062,9.076819,-5.3188343,1.9842156
1.682,21.101566,19.768503,2.5434127,9.12248,-5.2312536,1.9878769
1.684,20.256268,20.530014,2.9823284,9.163179,-5.168248,1.9842329
1.686,19.409416,21.283527,3.397319,9.199818,-5.1286836,1.9740748
1.688,18.555302,22.030308,3.7920537,9.233208,-5.1112905,1.9583801
1.69,17.707771,22.762691,4.1738744,9.264093,-5.1147275,1.938207
1.692,16.877804,23.475697,4.541611,9.293123,-5.1375256,1.9145595
1.694,16.068867,24.168797,4.8901424,9.320807,-5.178078,1.8882781
1.696,15.289015,24.840408,5.2165604,9.347476,-5.2348022,1.8599973
1.698,14.546083,25.489899,5.516165,9.373285,-5.306285,1.8301529
1.7,13.841692,26.118273,5.7884364,9.398293,-5.3911633,1.7990218
1.702,13.181078,26.724688,6.0404015,9.422522,-5.48812,1.7667435
1.704,12.570248,27.308662,6.2781496,9.44594,-5.5960503,1.7332926
1.706,12.012022,27.87186,6.504037,9.468495,-5.713892,1.6985635
1.708,11.506934,28.416357,6.7208366,9.490153,-5.8404756,1.6624218
1.71,11.055989,28.94355,6.931374,9.510874,-5.9745684,1.6246734
1.712,10.660085,29.454151,7.1373496,9.530619,-6.114897,1.5850211
1.714,10.318799,29.949472,7.340024,9.54939,-6.2600975,1.5430852
1.716,10.029921,30.431622,7.5421968,9.567201,-6.4087963,1.498347
1.718,9.7905655,30.903095,7.748601,9.584042,-6.559573,1.4501944
1.72,9.597323,31.366234,7.9639997,9.599927,-6.711056,1.3979855
1.722,9.446443,31.822895,8.191971,9.61486,-6.862012,1.3410702
1.724,9.333445,32.27479,8.435475,9.628883,-7.0113087,1.2788422
1.726,9.254311,32.722965,8.697733,9.642083,-7.1579037,1.2107219
1.728,9.20417,33.168564,8.980482,9.654571,-7.3008966,1.1361972
1.73,9.1776285,33.612984,9.284312,9.666457,-7.4395247,1.0548611
1.732,9.169256,34.057404,9.610194,9.677828,-7.5731077,0.96639836
1.734,9.174473,34.502213,9.959035,9.688754,-7.7010927,0.8705512
1.736,9.18876,34.94758,10.331139,9.69926,-7.8230186,0.76717675
1.738,9.207743,35.39335,10.725893,9.709294,-7.9386663,0.6562184
1.74,9.227033,35.83922,11.142842,9.718764,-8.047979,0.53768957
1.742,9.243245,36.284225,11.581127,9.72752,-8.15102,0.4116416
1.744,9.253295,36.726917,12.039107,9.735326,-8.248055,0.2781676
1.746,9.255054,37.16524,12.514509,9.74189,-8.339517,0.13737214
1.748,9.246955,37.59697,13.004514,9.746849,-8.426017,-0.010650039
1.75,9.2278385,38.019836,13.50579,9.74985,-8.508248,-0.16581202
1.752,9.1972475,38.431664,14.015367,9.750515,-8.587029,-0.3279965
1.754,9.155355,38.830383,14.530083,9.74851,-8.663218,-0.4970442
1.756,9.102721,39.21393,15.04721,9.743554,-8.73769,-0.67271435
1.758,9.040541,39.58023,15.564183,9.735442,-8.811235,-0.85469985
1.76,8.969933,39.927555,16.078426,9.724055,-8.884483,-1.0425768
1.762,8.893389,40.25361,16.587448,9.709342,-8.957957,-1.2358531
1.764,8.812765,40.55658,17.087952,9.691298,-9.032009,-1.4339443
1.766,8.730284,40.834904,17.577362,9.669956,-9.106782,-1.6362089
1.768,8.64863,41.08683,18.053337,9.645347,-9.182305,-1.8419899
1.77,8.570392,41.311104,18.513945,9.617437,-9.258529,-2.0505981
1.772,8.498132,41.506744,18.957844,9.586161,-9.335381,-2.2613575
1.774,8.434536,41.67305,19.383694,9.551324,-9.412811,-2.473637
1.776,8.382165,41.809288,19.790508,9.512661,-9.490843,-2.6868715
1.778,8.343612,41.915264,20.177088,9.46984,-9.569624,-2.9005249
1.78,8.321384,41.990845,20.542473,9.42244,-9.649453,-3.1141176
1.782,8.317674,42.036022,20.88591,9.37002,-9.730723,-3.3272398
1.784,8.334444,42.051155,21.20708,9.312125,-9.813906,-3.5395575
1.786,8.373421,42.03692,21.505974,9.248324,-9.89952,-3.750784
1.788,8.436349,41.99379,21.782866,9.178229,-9.988061,-3.960659
1.79,8.524649,41.922245,22.03811,9.101491,-10.079931,-4.1689444
1.792,8.639415,41.8229,22.27225,9.017826,-10.175433,-4.3754373
1.794,8.781727,41.696354,22.48581,8.926982,-10.274737,-4.579963
1.796,8.9520855,41.54301,22.679405,8.828725,-10.3778515,-4.7823277
1.798,9.150949,41.363316,22.854065,8.722873,-10.484608,-4.982327
1.8,9.378237,41.157787,23.011143,8.609256,-10.59467,-5.17977
1.802,9.633587,40.926586,23.151688,8.487693,-10.7075205,-5.3744607
1.804,9.916201,40.66992,23.27706,8.357981,-10.822461,-5.5662246
1.806,10.225205,40.387707,23.388683,8.219925,-10.93861,-5.754894
1.808,10.559258,40.0801,23.488384,8.073308,-11.054939,-5.940297
1.81,10.916719,39.747112,23.57835,7.917924,-11.170281,-6.1222954
1.812,11.296137,39.38784,23.660072,7.7535863,-11.283394,-6.3007445
1.814,11.695261,39.002136,23.735638,7.580154,-11.392998,-6.4755216
1.816,12.112135,38.589325,23.806911,7.397561,-11.497778,-6.646468
1.818,12.544706,38.148758,23.87515,7.205819,-11.596478,-6.8134184
1.82,12.99068,37.67971,23.941946,7.0050197,-11.687927,-6.9761643
1.822,13.447626,37.18137,24.008797,6.795358,-11.771062,-7.134486
1.824,13.913209,36.652786,24.077082,6.57712,-11.844923,-7.288143
1.826,14.38498,36.093094,24.147846,6.35073,-11.908673,-7.4368615
1.828,14.860721,35.50158,24.221806,6.1167207,-11.961544,-7.5803213
1.83,15.338226,34.87756,24.299278,5.8757505,-12.002765,-7.718173
1.832,15.815558,34.22088,24.380363,5.62858,-12.031591,-7.850062
1.834,16.290928,33.531403,24.464964,5.376097,-12.047222,-7.975565
1.836,16.762224,32.809338,24.552631,5.1192694,-12.048828,-8.094262
1.838,17.227367,32.055286,24.64296,4.8591447,-12.035478,-8.205693
1.84,17.684258,31.270275,24.735655,4.5968432,-12.006206,-8.309348
1.842,18.130733,30.455511,24.830124,4.3334856,-11.960082,-8.40468
1.844,18.564476,29.61278,24.92591,4.070198,-11.896259,-8.491114
1.846,18.983265,28.744293,25.022171,3.8080866,-11.813925,-8.568006
1.848,19.384712,27.852861,25.118208,3.5482101,-11.7123995,-8.634659
1.85,19.766575,26.941376,25.21273,3.2915902,-11.591185,-8.690345
1.852,20.126326,26.013601,25.304508,3.039177,-11.44994,-8.734294
1.854,20.461391,25.0735,25.39249,2.7918801,-11.288506,-8.765677
1.856,20.769138,24.125475,25.47577,2.5505893,-11.106777,-8.783652
1.858,21.04698,23.174252,25.5539,2.3161678,-10.9047985,-8.787384
1.86,21.292454,22.224508,25.62653,2.0894747,-10.682662,-8.776125
1.862,21.503654,21.281134,25.693455,1.8713369,-10.440545,-8.749257
1.864,21.679058,20.34875,25.754595,1.6625776,-10.178627,-8.706303
1.866,21.817322,19.43261,25.809551,1.4639797,-9.897174,-8.646995
1.868,21.917698,18.537455,25.857918,1.2762666,-9.596581,-8.5713005
1.87,21.980265,17.66797,25.899052,1.1001005,-9.277356,-8.479407
1.872,22.005575,16.82826,25.932798,0.9360304,-8.940176,-8.371724
1.874,21.994999,16.022358,25.959019,0.78451777,-8.585904,-8.24889
1.876,21.950367,15.253437,25.977913,0.64589405,-8.215585,-8.11171
1.878,21.874088,14.524386,25.989473,0.5203557,-7.830416,-7.961213
1.88,21.769272,13.83724,25.993614,0.40796566,-7.4317307,-7.7985473
1.882,21.639631,13.193549,25.989952,0.30867195,-7.0208917,-7.6249847
1.884,21.489164,12.594156,25.97821,0.22230482,-6.599281,-7.4418983
1.886,21.322166,12.0393915,25.95819,0.14860535,-6.1681805,-7.2507114
1.888,21.142876,11.528586,25.929726,0.08723068,-5.728767,-7.052888
1.89,20.955648,11.060791,25.892586,0.03771782,-5.2821116,-6.849881
1.892,20.764824,10.634388,25.846111,-0.0004632473,-4.8292,-6.643099
1.894,20.574186,10.247241,25.789524,-0.027938366,-4.37102,-6.4338694
1.896,20.387386,9.896759,25.721813,-0.045421124,-3.908615,-6.2234335
1.898,20.207493,9.580051,25.64222,-0.053715467,-3.44318,-6.012929
1.9,20.03699,9.294203,25.54977,-0.05373764,-2.976215,-5.8033934
1.902,19.878029,9.035883,25.44368,-0.046463013,-2.5094085,-5.5957417
1.904,19.731758,8.801785,25.323154,-0.032940865,-2.0446925,-5.3907747
1.906,19.59888,8.588715,25.18774,-0.014216185,-1.5841851,-5.1892266
1.908,19.479496,8.393463,25.037033,0.008669376,-1.1301093,-4.9917397
1.91,19.373062,8.212995,24.870636,0.03470373,-0.6847316,-4.7988873
1.912,19.278557,8.04429,24.68856,0.06293893,-0.25025362,-4.6111355
1.914,19.194542,7.884673,24.490772,0.09251273,0.17125827,-4.4288754
1.916,19.119194,7.7317076,24.277418,0.122603536,0.57783794,-4.2524657
1.918,19.050228,7.58322,24.048714,0.15246499,0.9676545,-4.082212
1.92,18.985418,7.437356,23.804913,0.18140107,1.3390224,-3.9183993
1.922,18.92181,7.292693,23.547096,0.20874977,1.6904093,-3.7612975
1.924,18.857525,7.1476355,23.275932,0.23389184,2.0204067,-3.6111796
1.926,18.789873,7.00102,22.99243,0.25627044,2.32778,-3.4682739
1.928,18.716232,6.8522935,22.698156,0.27537057,2.6115103,-3.3327632
1.93,18.63454,6.700819,22.394468,0.29074112,2.870845,-3.2047627
1.932,18.5425,6.5464554,22.083172,0.30202433,3.1053352,-3.0843246
1.934,18.438345,6.3892183,21.766031,0.30893856,3.3148553,-2.971429
1.936,18.320587,6.2291784,21.44486,0.31129143,3.4996066,-2.8660104
1.938,18.187685,6.066435,21.12182,0.30896932,3.6601007,-2.767953
1.94,18.03882,5.9012203,20.799124,0.30191374,3.7970898,-2.6771123
1.942,17.873064,5.7336826,20.47886,0.29012346,3.9114976,-2.5933359
1.944,17.689722,5.5644517,20.163286,0.27363658,4.0043664,-2.5164433
1.946,17.488575,5.393991,19.854687,0.2525298,4.0767517,-2.4462972
1.948,17.269762,5.2228637,19.555134,0.22687507,4.129729,-2.3827696
1.95,17.033657,5.0516663,19.266272,0.1967814,4.1644073,-2.3257115
1.952,16.78069,4.881002,18.9899,0.16239965,4.181889,-2.2749453
1.954,16.511585,4.71148,18.727629,0.12390059,4.1832676,-2.2302845
1.956,16.227142,4.5436697,18.481062,0.081493616,4.1696663,-2.1915295
1.958,15.92829,4.37807,18.251675,0.035439312,4.142278,-2.1584525
1.96,15.616028,4.215346,18.040737,-0.013972759,4.1023636,-2.1308079
1.962,15.291434,4.055952,17.849445,-0.06640482,4.0512776,-2.10835
1.964,14.95569,3.9004374,17.678564,-0.121489465,3.9904299,-2.0908415
1.966,14.60999,3.7491207,17.528858,-0.1788438,3.9212875,-2.0780494
1.968,14.255778,3.602419,17.400253,-0.2381014,3.8453317,-2.069745
1.97,13.894228,3.4607859,17.29235,-0.29887024,3.764036,-2.065689
1.972,13.52647,3.3246317,17.204344,-0.3607997,3.6788156,-2.0656495
1.974,13.153292,3.1943965,17.135447,-0.42356068,3.5909896,-2.069379
1.976,12.7760515,3.0701265,17.084835,-0.48685956,3.50177,-2.0766323
1.978,12.395488,2.9520588,17.051714,-0.5504418,3.4122758,-2.087163
1.98,12.012555,2.840373,17.035378,-0.61412436,3.3234742,-2.1007326
1.982,11.628015,2.7353635,17.034489,-0.6777631,3.2362158,-2.1171064
1.984,11.242629,2.63721,17.04756,-0.7412403,3.1512246,-2.1360705
1.986,10.8571415,2.5460901,17.072708,-0.8044653,3.0691078,-2.1574154
1.988,10.472218,2.4620914,17.108046,-0.86735964,2.9903715,-2.1809778
1.99,10.08838,2.3852487,17.151564,-0.92983615,2.9154325,-2.2066188
1.992,9.7060795,2.3155756,17.201258,-0.99179816,2.8446596,-2.2342112
1.994,9.325645,2.2530322,17.255114,-1.0531007,2.7783966,-2.263699
1.996,8.947624,2.197514,17.310926,-1.1136104,2.7169943,-2.2950566
1.998,8.572562,2.1489816,17.3667,-1.1731789,2.6607826,-2.3283153
2,8.2010355,2.1071677,17.420341,-1.231682,2.6100907,-2.3635314
2.002,7.833464,2.0721126,17.469795,-1.2889953,2.5652242,-2.400813
2.004,7.470335,2.0433698,17.51305,-1.3450129,2.526427,-2.440288
2.006,7.1120353,2.0208678,17.548416,-1.3996836,2.4938931,-2.4821105
2.008,6.7587347,2.0044365,17.574196,-1.4529749,2.4677486,-2.5264597
2.01,6.4108634,1.9936199,17.588722,-1.504919,2.4480186,-2.57351
2.012,6.0686893,1.9883151,17.590176,-1.5555811,2.434639,-2.6234245
2.014,5.7323465,1.9882917,17.576973,-1.6050657,2.4274151,-2.6763449
2.016,5.4021997,1.9931989,17.547396,-1.6535196,2.4260404,-2.7324035
2.018,5.0781436,2.0027761,17.499962,-1.7010998,2.4301164,-2.7917
2.02,4.760149,2.0168104,17.433626,-1.7479705,2.439159,-2.8543024
2.022,4.448082,2.0353165,17.347363,-1.7942772,2.4526367,-2.9202445
2.024,4.141695,2.0580964,17.240578,-1.8401507,2.4700098,-2.9895267
2.026,3.8409061,2.0851836,17.112736,-1.8856933,2.4907455,-3.0621433
2.028,3.545509,2.1165385,16.963572,-1.9309828,2.514348,-3.1380618
2.03,3.255222,2.1521087,16.792955,-1.9760525,2.5403666,-3.217235
2.032,2.9701214,2.1920686,16.601017,-2.0208998,2.568426,-3.2996216
2.034,2.6896446,2.2365522,16.387877,-2.0654674,2.5982165,-3.3851783
2.036,2.4138973,2.2857194,16.153944,-2.109684,2.6294713,-3.4738955
2.038,2.1430807,2.339551,15.899808,-2.153452,2.6619399,-3.5657744
2.04,1.877305,2.3983593,15.626419,-2.1966362,2.6953862,-3.6608434
2.042,1.617116,2.4624553,15.335024,-2.2390761,2.7295482,-3.7591662
2.044,1.3635674,2.5320287,15.027205,-2.2805812,2.7641115,-3.8608308
2.046,1.117569,2.6074867,14.704723,-2.3209412,2.7987196,-3.9659424
2.048,0.8805766,2.6892223,14.369049,-2.3599062,2.8329573,-4.0746155
2.05,0.65388584,2.777689,14.0218115,-2.397176,2.8663626,-4.1869683
2.052,0.4392557,2.8731241,13.664735,-2.4324303,2.8984666,-4.303117
2.054,0.23833013,2.9755578,13.299385,-2.4653087,2.9287848,-4.423158
2.056,0.053007364,3.08514,12.92728,-2.4954607,2.9568267,-4.5471954
2.058,-0.11490917,3.201983,12.549866,-2.522561,2.9820957,-4.675332
2.06,-0.2636237,3.3261921,12.168798,-2.5463047,3.004065,-4.8076468
2.062,-0.3913672,3.4577608,11.785364,-2.5664682,3.0221705,-4.9441743
2.064,-0.4965055,3.5963802,11.400591,-2.5828803,3.0358398,-5.084952
2.066,-0.5773449,3.7417636,11.015294,-2.5954776,3.044446,-5.2299776
2.068,-0.6329801,3.8935583,10.629854,-2.6042569,3.047368,-5.3792048
2.07,-0.66207767,4.051125,10.2449875,-2.6092963,3.0439687,-5.53253
2.072,-0.664006,4.2136374,9.86071,-2.6108017,3.0336235,-5.6898346
2.074,-0.6385853,4.379984,9.4773245,-2.6090777,3.0157025,-5.8509517
2.076,-0.58536386,4.549263,9.094526,-2.6045518,2.989574,-6.0156975
2.078,-0.5045581,4.720039,8.711829,-2.5977483,2.9546103,-6.183857
2.08,-0.39683104,4.8909597,8.329277,-2.5892656,2.910161,-6.355175
2.082,-0.26318347,5.0605226,7.946377,-2.5797615,2.8555996,-6.5294037
2.084,-0.104154825,5.227008,7.562592,-2.5699005,2.7903125,-6.706262
2.086,0.078593016,5.3888283,7.177506,-2.560336,2.7137504,-6.8854284
2.088,0.28379667,5.54444,6.790612,-2.5516415,2.6254861,-7.066544
2.09,0.5099675,5.692116,6.401384,-2.5442607,2.5252771,-7.2491903
2.092,0.7552732,5.83025,6.010051,-2.5385134,2.4131153,-7.432895
2.094,1.0182178,5.957167,5.617005,-2.534597,2.2892222,-7.6171236
2.096,1.2970943,6.0714808,5.222852,-2.5325696,2.1541073,-7.801283
2.098,1.5901911,6.171973,4.828428,-2.5323822,2.0085464,-7.984743
2.1,1.8959804,6.2575483,4.434544,-2.5338635,1.8535111,-8.166848
2.102,2.2132077,6.3272505,4.042897,-2.5367932,1.6902075,-8.346947
2.104,2.5405235,6.3802576,3.6551955,-2.5409427,1.5199642,-8.524403
2.106,2.8767996,6.4163003,3.2733293,-2.5460105,1.3441277,-8.698595
2.108,3.2208889,6.435201,2.8993807,-2.5517375,1.1640646,-8.868982
2.11,3.571917,6.4371047,2.5356688,-2.5578446,0.9810767,-9.035068
2.112,3.929143,6.42245,2.1849904,-2.5640306,0.79642296,-9.196369
2.114,4.292047,6.3921003,1.8500257,-2.570002,0.6112025,-9.3524885
2.116,4.660287,6.3470116,1.5334561,-2.575446,0.42645073,-9.503081
2.118,5.033489,6.288432,1.2377195,-2.580035,0.24313402,-9.647843
2.12,5.411096,6.217929,0.96554375,-2.5834463,0.06217432,-9.786488
2.122,5.7929826,6.1369953,0.71941996,-2.5853217,-0.11556387,-9.918784
2.124,6.178972,6.047558,0.5013478,-2.585294,-0.28923416,-10.044503
2.126,6.5688057,5.9519124,0.31326246,-2.5829542,-0.45801377,-10.163443
2.128,6.962474,5.852371,0.15674591,-2.5778883,-0.62107635,-10.275428
2.13,7.359984,5.7511935,0.03318858,-2.5696478,-0.77763176,-10.380301
2.132,7.761264,5.650601,-0.056411386,-2.5577922,-0.92695856,-10.477987
2.134,8.166095,5.55287,-0.11141586,-2.5418906,-1.0683775,-10.568476
2.136,8.574212,5.4602385,-0.1316731,-2.5215414,-1.2013359,-10.651821
2.138,8.985523,5.375096,-0.117363095,-2.4963694,-1.3253951,-10.728173
2.14,9.399787,5.299687,-0.069129825,-2.4660492,-1.4402859,-10.797783
2.142,9.816942,5.23593,0.012048125,-2.4303288,-1.5459056,-10.860992
2.144,10.236843,5.185721,0.12518954,-2.3890045,-1.6423535,-10.918215
2.146,10.659372,5.1507273,0.2688321,-2.3419218,-1.7299418,-10.96989
2.148,11.084258,5.132488,0.44112396,-2.288991,-1.8091836,-11.016521
2.15,11.511348,5.1320343,0.6401278,-2.2301793,-1.8808355,-11.058594
2.152,11.940717,5.150171,0.8634553,-2.1655307,-1.9458625,-11.096565
2.154,12.37223,5.1874595,1.1084176,-2.0952053,-2.0054407,-11.130842
2.156,12.806171,5.2442064,1.3723563,-2.01941,-2.0609708,-11.161792
2.158,13.243065,5.320509,1.6528018,-1.9384145,-2.1139874,-11.189743
2.16,13.683443,5.416047,1.947488,-1.8526256,-2.1660376,-11.215
2.162,14.128264,5.5304,2.2541218,-1.7624893,-2.2187233,-11.237766
2.164,14.578419,5.6630187,2.570374,-1.6685424,-2.2736208,-11.258237
2.166,15.035102,5.8129964,2.8940494,-1.571411,-2.3322628,-11.2766
2.168,15.499176,5.9794726,3.2232206,-1.4717065,-2.3960314,-11.293013
2.17,15.971911,6.161543,3.5567148,-1.3700634,-2.4662476,-11.307608
2.172,16.45508,6.358398,3.8930264,-1.2671249,-2.5441313,-11.320494
2.174,16.95075,6.568873,4.230402,-1.1634719,-2.630777,-11.331781
2.176,17.461311,6.7905703,4.567435,-1.0596751,-2.7271254,-11.341561
2.178,17.98644,7.023086,4.9044085,-0.9562397,-2.8339906,-11.349943
2.18,18.527266,7.266511,5.2438912,-0.853619,-2.9520555,-11.35701
2.182,19.087845,7.5196137,5.5852537,-0.7522336,-3.0818577,-11.362873
2.184,19.672821,7.78012,5.9279566,-0.6524633,-3.2238178,-11.36766
2.186,20.279942,8.049285,6.2719536,-0.5546782,-3.3781977,-11.3714905
2.188,20.912334,8.326108,6.6215944,-0.4592048,-3.5451589,-11.374491
2.19,21.573492,8.6090765,6.97643,-0.36636782,-3.724725,-11.376838
2.192,22.263695,8.899414,7.3389783,-0.27647376,-3.9167428,-11.378693
2.194,22.984667,9.196511,7.710784,-0.18979108,-4.120909,-11.380194
2.196,23.739088,9.499679,8.093216,-0.106528044,-4.3367577,-11.38146
2.198,24.5271,9.80865,8.488129,-0.026853085,-4.5636864,-11.382552
2.2,25.348055,10.125343,8.898543,0.049135566,-4.801001,-11.383481
2.202,26.203873,10.449249,9.326057,0.121388555,-5.047893,-11.384173
2.204,27.095419,10.7806835,9.771674,0.18988681,-5.3035216,-11.384466
2.206,28.02186,11.120179,10.237204,0.25463343,-5.566991,-11.384093
2.208,28.983204,11.468009,10.724367,0.31559718,-5.8375425,-11.382712
2.21,29.979136,11.823839,11.234477,0.37275577,-6.114502,-11.379958
2.212,31.007393,12.188602,11.768639,0.4261405,-6.3971114,-11.375352
2.214,32.066547,12.5628195,12.328041,0.4757542,-6.684697,-11.368288
2.216,33.156002,12.946192,12.913166,0.5214925,-6.976836,-11.358208
2.218,34.27432,13.339,13.524374,0.5633221,-7.2730227,-11.344635
2.22,35.41969,13.741186,14.161691,0.6012337,-7.5724897,-11.327027
2.222,36.590836,14.152419,14.82464,0.6352461,-7.874613,-11.304841
2.224,37.785854,14.57242,15.512941,0.6655816,-8.178428,-11.277599
2.226,39.00286,15.000789,16.225805,0.69253194,-8.482847,-11.244875
2.228,40.24048,15.436691,16.96227,0.7164481,-8.786572,-11.206259
2.23,41.49703,15.879346,17.72137,0.73780143,-9.088264,-11.16133
2.232,42.770348,16.327797,18.5019,0.75723225,-9.386402,-11.109703
2.234,44.059048,16.780602,19.30231,0.7754185,-9.679467,-11.050937
2.236,45.36133,17.236185,20.120867,0.7930645,-9.966104,-10.984581
2.238,46.67549,17.692848,20.955536,0.81087,-10.2450695,-10.910176
2.24,47.999462,18.14881,21.803772,0.8294897,-10.515293,-10.827255
2.242,49.3316,18.602066,22.662916,0.84949404,-10.776077,-10.735368
2.244,50.670387,19.05029,23.52996,0.871456,-11.02696,-10.633987
2.246,52.013783,19.491222,24.402027,0.8959316,-11.267752,-10.522615
2.248,53.359833,19.922428,25.276237,0.9234065,-11.498569,-10.400803
2.25,54.706696,20.341705,26.149746,0.9543463,-11.719675,-10.268103
2.252,56.052307,20.746975,27.019491,0.9891659,-11.931383,-10.12413
2.254,57.39465,21.136097,27.8821,1.028224,-12.134077,-9.968584
2.256,58.731728,21.507366,28.73449,1.0718837,-12.328074,-9.801268
2.258,60.061455,21.85912,29.573519,1.1205006,-12.513575,-9.622096
2.26,61.38198,22.190235,30.396053,1.174412,-12.690702,-9.431082
2.262,62.690956,22.50008,31.199327,1.2339728,-12.859286,-9.228252
2.264,63.985893,22.788372,31.981094,1.2994978,-13.019033,-9.013635
2.266,65.26473,23.055399,32.739178,1.3713028,-13.169583,-8.787316
2.268,66.52506,23.302208,33.471806,1.4497793,-13.310379,-8.549435
2.27,67.764725,23.530647,34.17755,1.5354202,-13.440615,-8.299961
2.272,68.98163,23.743595,34.855568,1.628649,-13.5595665,-8.03875
2.274,70.17395,23.944807,35.505936,1.7299423,-13.666677,-7.7656517
2.276,71.3401,24.138865,36.128914,1.8398123,-13.761173,-7.4803543
2.278,72.4792,24.331264,36.725403,1.9587455,-13.842635,-7.1824155
2.28,73.58975,24.528257,37.296284,2.0873995,-13.910656,-6.871272
2.282,74.67033,24.737087,37.843834,2.2265487,-13.965059,-6.54633
2.284,75.71947,24.966467,38.37158,2.3770132,-14.005839,-6.206995
2.286,76.73558,25.226484,38.8833,2.5396376,-14.0333395,-5.852706
2.288,77.720116,25.525883,39.382484,2.7153392,-14.048075,-5.482975
2.29,78.671844,25.874329,39.871582,2.9050493,-14.050786,-5.097385
2.292,79.58824,26.283314,40.357056,3.109631,-14.042488,-4.6956167
2.294,80.46783,26.765621,40.844208,3.3298244,-14.024433,-4.2774243
2.296,81.31483,27.330751,41.337402,3.5662146,-13.997971,-3.8426142
2.298,82.12921,27.990578,41.8393,3.819107,-13.964627,-3.391058
2.3,82.91021,28.75848,42.355804,4.0885677,-13.925958,-2.9226553
2.302,83.66079,29.645798,42.88892,4.374491,-13.883368,-2.4372547
2.304,84.38284,30.66364,43.44462,4.67655,-13.838139,-1.9346597
2.306,85.07475,31.828564,44.025826,4.9942636,-13.791316,-1.4146621
2.308,85.72238,33.17415,44.6261,5.3270426,-13.743627,-0.8770149
2.31,86.33913,34.68566,45.24984,5.674134,-13.695506,-0.3214401
2.312,86.941925,36.352154,45.919483,6.034699,-13.647051,0.25236583
2.314,87.52312,38.20109,46.6414,6.407853,-13.597958,0.84480476
2.316,88.08012,40.258484,47.404797,6.792672,-13.547593,1.4564136
2.318,88.62473,42.53042,48.189133,7.1882358,-13.4950075,2.0879383
2.32,89.174866,45.014374,48.987133,7.593622,-13.43892,2.7403636
2.322,89.735466,47.729103,49.808537,8.008002,-13.377568,3.4149597
2.324,90.30459,50.69616,50.664253,8.430698,-13.308775,4.1133184
2.326,90.89376,53.92469,51.56946,8.861147,-13.2299385,4.837273
2.328,91.52595,57.399292,52.517567,9.298866,-13.1381445,5.588967
2.33,92.20414,61.125446,53.496483,9.74373,-13.029901,6.3708878
2.332,92.93388,65.12076,54.48804,10.195812,-12.901379,7.185727
2.334,93.72014,69.39961,55.478508,10.655157,-12.748947,8.036451
2.336,94.592606,73.93401,56.509926,11.12211,-12.568737,8.926025
2.338,95.47877,78.73218,57.613464,11.597025,-12.357237,9.856151
2.34,96.37332,83.77928,58.82225,12.079077,-12.1113615,10.8288555
2.342,97.36437,89.02218,60.184135,12.56738,-11.827797,11.848388
2.344,98.51954,94.44184,61.69735,13.062887,-11.500662,12.918231
2.346,99.89214,100.03203,63.2985,13.566298,-11.122938,14.040222
2.348,101.54198,105.80616,64.92028,14.07681,-10.6877775,15.216369
2.35,103.438065,111.78302,66.54791,14.591832,-10.188194,16.448538
2.352,105.580505,117.933464,68.1906,15.1088085,-9.614751,17.736855
2.354,107.95783,124.16215,69.92241,15.625198,-8.953538,19.080158
2.356,110.57381,130.38055,71.784874,16.1374,-8.186787,20.478895
2.358,113.481415,136.53645,73.77823,16.641682,-7.2939577,21.935093
2.36,116.69506,142.63426,75.89416,17.13495,-6.2518992,23.44759
2.362,120.235664,148.63904,78.13251,17.613085,-5.0371513,25.01016
2.364,124.117226,154.47389,80.46917,18.068905,-3.628176,26.61136
2.366,128.34094,160.05727,82.8735,18.489824,-2.0073168,28.23544
2.368,132.89874,165.31126,85.32148,18.861622,-0.15871072,29.85913
2.37,137.7901,170.1578,87.78033,19.168568,1.930119,31.455423
2.372,143.01747,174.53514,90.20331,19.393755,4.2607756,32.998726
2.374,148.57074,178.3934,92.54174,19.524063,6.831467,34.46083
2.376,154.43816,181.6855,94.74008,19.545254,9.625508,35.801395
2.378,160.5989,184.37581,96.73098,19.44883,12.616056,36.985218
2.38,167.03378,186.43448,98.44142,19.234354,15.77429,37.9819
2.382,173.71576,187.84195,99.80028,18.904545,19.064983,38.76261
2.384,180.60886,188.59341,100.72214,18.459951,22.423286,39.294872
2.386,187.6635,188.69513,101.10863,17.919174,25.79306,39.57767
2.388,194.81807,188.16277,100.867226,17.31043,29.114021,39.62817
2.39,202.00064,187.02168,99.91766,16.667316,32.317024,39.46294
2.392,209.1263,185.30899,98.188835,16.026253,35.329216,39.087402
2.394,216.09755,183.07231,95.62402,15.421779,38.07744,38.49696
2.396,222.81053,180.36938,92.18674,14.880603,40.491913,37.677803
2.398,229.15417,177.26245,87.86156,14.419299,42.511063,36.61031
2.4,235.01486,173.8124,82.65081,14.045948,44.09171,35.270226
2.402,240.28088,170.0788,76.580154,13.7583275,45.21373,33.629547
2.404,244.84142,166.12347,69.69379,13.544846,45.880188,31.663975
2.406,248.59859,161.99965,62.053223,13.385499,46.11611,29.360527
2.408,251.4686,157.75482,53.735023,13.254947,45.96466,26.721054
2.41,253.3716,153.43748,44.830635,13.125591,45.481987,23.763851
2.412,254.24696,149.0805,35.44831,12.968011,44.72997,20.524982
2.414,254.05621,144.70912,25.715233,12.752157,43.76786,17.058971
2.416,252.77844,140.33714,15.780861,12.449299,42.643875,13.43511
2.418,250.42819,135.96329,5.808037,12.032643,41.38839,9.732683
2.42,247.01842,131.62692,-4.0472946,11.478077,40.01179,6.0366907
2.422,242.58463,127.35169,-13.639275,10.761878,38.504166,2.4368
2.424,237.20964,123.12007,-22.807335,9.864274,36.842133,-0.9804678
2.426,230.99068,118.92477,-31.390728,8.77299,34.99909,-4.1372757
2.428,224.02864,114.782166,-39.240517,7.4831753,32.943653,-6.9625015
2.43,216.4384,110.71434,-46.24122,6.0033913,30.655155,-9.390427
2.432,208.35986,106.724014,-52.310215,4.3477154,28.118263,-11.380712
2.434,199.94235,102.81818,-57.379906,2.5361032,25.32154,-12.914387
2.436,191.32031,99.01906,-61.39998,0.5972624,22.26738,-13.990242
2.438,182.62018,95.364105,-64.32057,-1.433608,18.985487,-14.621914
2.44,173.98282,91.86398,-66.1144,-3.5332808,15.496201,-14.862073
2.442,165.53271,88.52054,-66.77879,-5.6791105,11.834636,-14.773947
2.444,157.3779,85.34412,-66.34273,-7.848047,8.052541,-14.413419
2.446,149.5909,82.37793,-64.900566,-10.01495,4.214141,-13.827604
2.448,142.31308,79.61976,-62.536514,-12.150896,0.39449358,-13.064297
2.45,135.57928,77.08565,-59.342896,-14.2236395,-3.3238664,-12.17273
2.452,129.33807,74.81172,-55.42852,-16.199617,-6.8556857,-11.200175
2.454,123.577286,72.78557,-50.86205,-18.044905,-10.118844,-10.188763
2.456,118.301476,70.98482,-45.68528,-19.725687,-13.038526,-9.173304
2.458,113.50537,69.37682,-39.97678,-21.211817,-15.55194,-8.18236
2.46,109.248726,67.93616,-33.88445,-22.47934,-17.613644,-7.2384157
2.462,105.52388,66.68536,-27.570112,-23.511621,-19.197433,-6.357361
2.464,102.31276,65.68655,-21.227407,-24.300133,-20.296059,-5.5483522
2.466,99.56633,64.96271,-14.981094,-24.844326,-20.920475,-4.812518
2.468,97.190216,64.48953,-8.903,-25.151012,-21.097645,-4.1422663
2.47,95.13672,64.20147,-3.0556889,-25.232763,-20.865526,-3.5233078
2.472,93.35153,64.09045,2.493679,-25.105856,-20.26909,-2.9369888
2.474,91.788765,64.1849,7.7034416,-24.789246,-19.35829,-2.362546
2.476,90.41354,64.50416,12.535915,-24.304136,-18.186096,-1.7797127
2.478,89.19483,65.05448,16.947939,-23.673378,-16.805977,-1.1710935
2.48,88.091415,65.83632,20.909079,-22.921421,-15.269472,-0.5250311
2.482,87.062164,66.83363,24.403532,-22.07397,-13.625418,0.16260338
2.484,86.08098,68.02454,27.418316,-21.15659,-11.918409,0.8868966
2.486,85.12087,69.39335,29.947235,-20.193483,-10.186499,1.6339436
2.488,84.16258,70.920815,31.996086,-19.207859,-8.461057,2.3834376
2.49,83.18408,72.5907,33.575558,-18.221077,-6.7663145,3.1115603
2.492,82.17002,74.38382,34.695793,-17.25115,-5.1186604,3.793933
2.494,81.111084,76.27557,35.381577,-16.311905,-3.5272722,4.4100037
2.496,80.00562,78.24041,35.667793,-15.410889,-1.9950764,4.9460545
2.498,78.85594,80.25232,35.581093,-14.550316,-0.51970005,5.3944497
2.5,77.66586,82.28379,35.14124,-13.730546,0.90239906,5.7524195
2.502,76.442024,84.30354,34.36886,-12.950887,2.2738812,6.022258
2.504,75.19335,86.27798,33.28437,-12.210419,3.5959706,6.21136
2.506,73.92606,88.17284,31.906664,-11.509303,4.8670316,6.3310933
2.508,72.646774,89.95702,30.256319,-10.849334,6.0818725,6.3946977
2.51,71.36088,91.606,28.360626,-10.233814,7.232507,6.415376
2.512,70.07174,93.09915,26.248901,-9.667326,8.30909,6.4050584
2.514,68.78462,94.41457,23.956348,-9.155415,9.300654,6.373347
2.516,67.49963,95.53998,21.522617,-8.703951,10.195942,6.3269315
2.518,66.215454,96.46685,18.988472,-8.31835,10.984422,6.2695365
2.52,64.94193,97.1834,16.396423,-8.003073,11.657223,6.202211
2.522,63.684235,97.69163,13.783852,-7.761299,12.207796,6.1237855
2.524,62.443542,97.99863,11.177563,-7.5946646,12.632217,6.031496
2.526,61.22706,98.11188,8.597122,-7.5032997,12.929164,5.9217815
2.528,60.036247,98.03893,6.064499,-7.485808,13.099575,5.791134
2.53,58.86908,97.78838,3.6007805,-7.539362,13.146282,5.636774
2.532,57.72508,97.369675,1.2271347,-7.659786,13.073723,5.45722
2.534,56.603333,96.794334,-1.0331879,-7.8418355,12.887701,5.2525144
2.536,55.499416,96.07496,-3.1558075,-8.079236,12.595407,5.024235
2.538,54.40805,95.22451,-5.1196785,-8.364843,12.205223,4.7755833
2.54,53.32453,94.25637,-6.90769,-8.690632,11.726428,4.511377
2.542,52.246048,93.183304,-8.50588,-9.047813,11.169065,4.237715
2.544,51.16954,92.02,-9.903582,-9.427087,10.54389,3.9613762
2.546,50.09373,90.78239,-11.09487,-9.819061,9.862145,3.689071
2.548,49.018673,89.48819,-12.077501,-10.214642,9.135364,3.4269438
2.55,47.94508,88.15411,-12.852023,-10.605339,8.375097,3.1803093
2.552,46.874466,86.79511,-13.42188,-10.983476,7.5926757,2.9534857
2.554,45.810516,85.42374,-13.793379,-11.342295,6.799067,2.7497
2.556,44.75549,84.052536,-13.9748955,-11.676044,6.0048165,2.5710726
2.558,43.71216,82.6932,-13.976009,-11.98004,5.219884,2.4186883
2.56,42.68391,81.35602,-13.806743,-12.250638,4.4535832,2.2927213
2.562,41.671593,80.05,-13.478665,-12.485203,3.7145042,2.1925972
2.564,40.675354,78.78197,-13.005582,-12.682064,3.0103588,2.1171427
2.566,39.695156,77.555374,-12.402605,-12.840331,2.3478608,2.0648057
2.568,38.731194,76.373085,-11.685968,-12.959748,1.732635,2.0338504
2.57,37.784374,75.2404,-10.870974,-13.040624,1.1690439,2.0225015
2.572,36.854923,74.15679,-9.977672,-13.083801,0.6601741,2.0290585
2.574,35.943413,73.12622,-9.02381,-13.090517,0.20782012,2.0519783
2.576,35.05016,72.14971,-8.027568,-13.062237,-0.18740553,2.0899198
2.578,34.175552,71.22619,-7.005232,-13.000534,-0.5258833,2.1417596
2.58,33.318993,70.35441,-5.9719105,-12.907026,-0.8087013,2.2065043
2.582,32.479485,69.5327,-4.9413776,-12.783337,-1.0373039,2.2831764
2.584,31.65628,68.75951,-3.9257727,-12.631017,-1.2132864,2.370805
2.586,30.848564,68.03319,-2.9359312,-12.451577,-1.3381556,2.4683378
2.588,30.056187,67.35184,-1.9818182,-12.246484,-1.4132156,2.5746336
2.59,29.279255,66.71355,-1.0726643,-12.017217,-1.4394627,2.6884408
2.592,28.517544,66.11649,-0.21687508,-11.765267,-1.4176574,2.8083386
2.594,27.770172,65.55907,0.5772133,-11.492178,-1.3483458,2.9328125
2.596,27.037994,65.03851,1.3033638,-11.19955,-1.232052,3.060255
2.598,26.32125,64.551994,1.9553375,-10.889203,-1.0695393,3.1889315
2.6,25.620403,64.09692,2.5274754,-10.563229,-0.8619533,3.317112
2.602,24.935694,63.670822,3.0151901,-10.22399,-0.61100453,3.4431288
2.604,24.267607,63.27114,3.4153156,-9.874084,-0.31903985,3.5654707
2.606,23.616652,62.895367,3.7256165,-9.516349,0.010849461,3.6828287
2.608,22.983639,62.541077,3.944994,-9.153814,0.3749025,3.7941532
2.61,22.369709,62.205658,4.0728188,-8.789605,0.76878566,3.898627
2.612,21.7761,61.88667,4.1089077,-8.426876,1.1876541,3.9957108
2.614,21.204592,61.580772,4.0537243,-8.068726,1.626347,4.085103
2.616,20.65698,61.284798,3.9084682,-7.71812,2.0795684,4.1666937
2.618,20.134785,60.994904,3.6750183,-7.3778296,2.5420704,4.2405047
2.62,19.639254,60.70755,3.3561783,-7.0503664,3.0088131,4.3066525
2.622,19.171658,60.41917,2.955389,-6.7379837,3.4750738,4.3652368
2.624,18.733467,60.12603,2.476799,-6.442661,3.9365556,4.4163074
2.626,18.32573,59.8245,1.9250965,-6.1660686,4.3894377,4.4598093
2.628,17.949635,59.51112,1.3055649,-5.9096003,4.830372,4.495574
2.63,17.606033,59.18241,0.62374115,-5.674378,5.25643,4.523364
2.632,17.295715,58.835114,-0.11428833,-5.461227,5.665097,4.54289
2.634,17.01904,58.466175,-0.90236473,-5.2706695,6.0542183,4.5538816
2.636,16.77576,58.073,-1.7343063,-5.1028924,6.4219313,4.5561347
2.638,16.565483,57.653313,-2.6040535,-4.957738,6.766671,4.549547
2.64,16.387007,57.20536,-3.505947,-4.8346863,7.087149,4.534132
2.642,16.239141,56.727654,-4.4342365,-4.732903,7.3823338,4.5100307
2.644,16.120213,56.21927,-5.3835106,-4.651216,7.6514425,4.4774933
2.646,16.02821,55.679302,-6.3487206,-4.588245,7.8939695,4.436863
2.648,15.960694,55.107338,-7.3247604,-4.5424128,8.109653,4.3885145
2.65,15.914819,54.503372,-8.3068905,-4.5120687,8.298498,4.3328238
2.652,15.887374,53.867714,-9.290779,-4.495468,8.460776,4.2701564
2.654,15.874851,53.20116,-10.272343,-4.490898,8.596974,4.200786
2.656,15.873235,52.50509,-11.248024,-4.496739,8.707722,4.124938
2.658,15.878764,51.780758,-12.214714,-4.5115147,8.793738,4.0427494
2.66,15.887322,51.02982,-13.1697235,-4.5339007,8.85578,3.9543133
2.662,15.894451,50.254387,-14.110477,-4.5627356,8.894598,3.859719
2.664,15.89606,49.45678,-15.034941,-4.5970197,8.91087,3.7591014
2.666,15.888203,48.63928,-15.941208,-4.6359057,8.905195,3.652633
2.668,15.866767,47.80472,-16.827927,-4.678696,8.878099,3.5405443
2.67,15.828339,46.95541,-17.693813,-4.7247868,8.830004,3.423198
2.672,15.770037,46.093716,-18.53788,-4.773659,8.761251,3.3010416
2.674,15.688814,45.22199,-19.358952,-4.824875,8.672176,3.1745713
2.676,15.582298,44.342358,-20.15621,-4.878039,8.563098,3.0443673
2.678,15.448221,43.457172,-20.928785,-4.932779,8.434367,2.9110656
2.68,15.284391,42.566597,-21.676714,-4.9887376,8.286407,2.7753112
2.682,15.090552,41.67608,-22.39682,-5.0455713,8.119699,2.6377184
2.684,14.865236,40.785084,-23.089218,-5.1029086,7.9347687,2.4988565
2.686,14.608147,39.89502,-23.752628,-5.160377,7.732211,2.3592176
2.688,14.319287,39.007404,-24.385784,-5.2175584,7.5126066,2.2192075
2.69,13.998742,38.123585,-24.98699,-5.2740135,7.276524,2.079226
2.692,13.647473,37.24491,-25.554474,-5.329247,7.0245404,1.9396515
2.694,13.266428,36.37279,-26.086498,-5.3827353,6.757202,1.8008747
2.696,12.856703,35.50854,-26.581104,-5.433907,6.47503,1.6633146
2.698,12.419819,34.653458,-27.036234,-5.4821677,6.1785474,1.5274384
2.7,11.95755,33.808517,-27.449932,-5.526899,5.868332,1.3937517
2.702,11.471908,32.974525,-27.820078,-5.567496,5.5450125,1.2628088
2.704,10.964977,32.152596,-28.144686,-5.603347,5.209342,1.1351962
2.706,10.438938,31.343458,-28.421951,-5.6338882,4.8622046,1.0114872
2.708,9.896188,30.547865,-28.650198,-5.6585975,4.504637,0.8922429
2.71,9.339146,29.766525,-28.828144,-5.6770115,4.137888,0.77794296
2.712,8.770318,29.000196,-28.954924,-5.6887,3.763376,0.66898835
2.714,8.192427,28.249458,-29.0301,-5.6933107,3.3827014,0.5656359
2.716,7.608182,27.514923,-29.053616,-5.690555,2.9976416,0.46799868
2.718,7.020156,26.796925,-29.025959,-5.68021,2.610109,0.37602943
2.72,6.431019,26.095684,-28.948057,-5.6621227,2.2220902,0.2895265
2.722,5.8433943,25.411228,-28.821232,-5.6362195,1.8356194,0.2081376
2.724,5.2596436,24.743683,-28.64747,-5.602502,1.4527211,0.13138638
2.726,4.6823483,24.092863,-28.428917,-5.5610323,1.0753456,0.05872502
2.728,4.1140385,23.458546,-28.168264,-5.5119576,0.7052955,-0.010423049
2.73,3.5570054,22.840263,-27.868547,-5.455436,0.34421813,-0.076680824
2.732,3.0134006,22.237316,-27.53302,-5.3916893,-0.0064581633,-0.14066403
2.734,2.4852872,21.649256,-27.16514,-5.3209434,-0.34554732,-0.20293668
2.736,1.9746938,21.075336,-26.768354,-5.2434373,-0.67209804,-0.2639958
2.738,1.4832888,20.51457,-26.3462,-5.1593943,-0.9853821,-0.3242492
2.74,1.0127034,19.966316,-25.902128,-5.069028,-1.2849005,-0.383998
2.742,0.56422853,19.429836,-25.4395,-4.9725385,-1.5703269,-0.44347396
2.744,0.13891172,18.904528,-24.961325,-4.870056,-1.8414745,-0.50284874
2.746,-0.2617874,18.389885,-24.470617,-4.761681,-2.0982656,-0.5622137
2.748,-0.63700724,17.885515,-23.969976,-4.647453,-2.3406725,-0.6216086
2.75,-0.9858222,17.39113,-23.461945,-4.527358,-2.5686688,-0.6810237
2.752,-1.307612,16.906876,-22.949043,-4.4013414,-2.7822185,-0.7404158
2.754,-1.602118,16.43259,-22.433508,-4.2693353,-2.9812276,-0.79973245
2.756,-1.8692179,15.969057,-21.917326,-4.13124,-3.1655502,-0.8589161
2.758,-2.108457,15.516547,-21.402388,-3.9869924,-3.3349931,-0.91791886
2.76,-2.3198752,15.075467,-20.890577,-3.8365297,-3.4893217,-0.9766977
2.762,-2.5033991,14.646391,-20.38329,-3.6798158,-3.6282525,-1.0352062
2.764,-2.6591012,14.230137,-19.8819,-3.5168982,-3.7515416,-1.0934186
2.766,-2.7868462,13.827205,-19.387598,-3.3479037,-3.8589935,-1.151363
2.768,-2.8870862,13.438419,-18.901415,-3.173064,-3.950481,-1.2090927
2.77,-2.9601421,13.064425,-18.424242,-2.9927344,-4.0260105,-1.2667167
2.772,-3.006305,12.705755,-17.957077,-2.8073745,-4.0857277,-1.3243816
2.774,-3.0261557,12.362926,-17.500683,-2.6175535,-4.1299286,-1.3822668
2.776,-3.0204966,12.036405,-17.0558,-2.423895,-4.159058,-1.4405795
2.778,-2.9900417,11.7262745,-16.623096,-2.2271,-4.1737223,-1.4995358
2.78,-2.9359148,11.432877,-16.2031,-2.0278668,-4.174642,-1.5593388
2.782,-2.8590975,11.156034,-15.796101,-1.8268701,-4.162628,-1.6201901
2.784,-2.7606673,10.895514,-15.402457,-1.6247834,-4.138583,-1.6822585
2.786,-2.6420126,10.651111,-15.022144,-1.4222106,-4.103421,-1.7456723
2.788,-2.5044408,10.422137,-14.655191,-1.219706,-4.058077,-1.8105224
2.79,-2.3492603,10.208113,-14.301495,-1.0177675,-4.003454,-1.8768547
2.792,-2.1780624,10.008328,-13.960823,-0.81682146,-3.9403808,-1.9446878
2.794,-1.9922104,9.821975,-13.632987,-0.61722064,-3.869604,-2.0140262
2.796,-1.7932988,9.648134,-13.31753,-0.41924155,-3.791763,-2.0848806
2.798,-1.5828267,9.485802,-13.014008,-0.2231099,-3.707413,-2.1572673
2.8,-1.3621597,9.333843,-12.721839,-0.028993487,-3.6170306,-2.231211
2.802,-1.1328021,9.191334,-12.440438,0.16297829,-3.5210464,-2.3067517
2.804,-0.8961816,9.057103,-12.169135,0.3526944,-3.419888,-2.3839138
2.806,-0.6535095,8.930161,-11.907526,0.5400601,-3.3139763,-2.4627059
2.808,-0.4059776,8.809497,-11.654805,0.7249925,-3.203798,-2.543092
2.81,-0.15471137,8.694204,-11.410451,0.9073982,-3.0898612,-2.6250122
2.812,0.0993011,8.583339,-11.173941,1.0871892,-2.9727132,-2.7083454
2.814,0.3552562,8.475978,-10.944783,1.2642449,-2.8529081,-2.7929342
2.816,0.6123972,8.371334,-10.72243,1.4384315,-2.7310028,-2.8786108
2.818,0.87008643,8.268799,-10.506359,1.6096532,-2.6074748,-2.965187
2.82,1.1278327,8.167832,-10.2960415,1.7778325,-2.4827156,-3.052449
2.822,1.385324,8.067745,-10.091141,1.9429377,-2.3570442,-3.140205
2.824,1.6422944,7.9680495,-9.89119,2.1049883,-2.230682,-3.2282655
2.826,1.8984898,7.868273,-9.695875,2.2640538,-2.103796,-3.3164673
2.828,2.1537447,7.7679625,-9.504979,2.4202476,-1.9765244,-3.4046495
2.83,2.4079785,7.666812,-9.318304,2.5737376,-1.8490024,-3.4926271
2.832,2.6610262,7.564455,-9.135743,2.7247465,-1.7213991,-3.5802116
2.834,2.912946,7.460491,-8.956996,2.8735354,-1.5939338,-3.667195
2.836,3.1635532,7.3547697,-8.782011,3.0204158,-1.4668782,-3.7533326
2.838,3.4127169,7.247009,-8.610849,3.1657326,-1.3405526,-3.83838
2.84,3.6602826,7.137145,-8.44345,3.3098447,-1.2153242,-3.9220867
2.842,3.9061055,7.0250936,-8.279781,3.4531271,-1.0915638,-4.004206
2.844,4.150057,6.9108095,-8.1197,3.5959375,-0.96966803,-4.0845103
2.846,4.391764,6.794346,-7.9633074,3.7386167,-0.85002327,-4.1627836
2.848,4.6307487,6.675996,-7.810433,3.8814907,-0.73299676,-4.2388096
2.85,4.866575,6.555878,-7.660887,4.024854,-0.6189263,-4.31236
2.852,5.098857,6.434404,-7.5145507,4.168989,-0.5081134,-4.3832254
2.854,5.3271275,6.3119917,-7.3712287,4.314166,-0.4008147,-4.451218
2.856,5.550731,6.1892233,-7.2306514,4.460613,-0.29724872,-4.5161333
2.858,5.7691793,6.0668907,-7.0927353,4.6085567,-0.19757909,-4.5777774
2.86,5.98164,5.9457912,-6.9571238,4.7581687,-0.10193616,-4.635969
2.862,6.1876493,5.8269777,-6.823542,4.909578,-0.010371923,-4.6905293
2.864,6.3865595,5.711687,-6.691762,5.062871,0.07710683,-4.7412786
2.866,6.577803,5.6009083,-6.561278,5.218085,0.16054285,-4.78805
2.868,6.7608194,5.4960165,-6.4318,5.375235,0.24006891,-4.830693
2.87,6.935368,5.3982654,-6.302946,5.534328,0.3158636,-4.8690586
2.872,7.1009526,5.308973,-6.174485,5.695354,0.3881892,-4.9030094
2.874,7.2571707,5.2295785,-6.04617,5.8583083,0.45735425,-4.9324226
2.876,7.403196,5.1619897,-5.9179535,6.0231824,0.5237352,-4.9571676
2.878,7.5388665,5.1073813,-5.7897944,6.1899934,0.5877302,-4.9771824
2.88,7.664209,5.0669026,-5.662039,6.3587713,0.6497712,-4.9924197
2.882,7.77904,5.0417905,-5.5348425,6.529576,0.7102944,-5.0028653
2.884,7.8833117,5.033264,-5.4084277,6.7024317,0.7696792,-5.0085754
2.886,7.977199,5.04245,-5.283041,6.8773627,0.82823944,-5.0096645
2.888,8.060993,5.070343,-5.159044,7.05433,0.88614786,-5.006322
2.89,8.134844,5.1177382,-5.0366564,7.2332163,0.9434217,-4.9988036
2.892,8.198897,5.185419,-4.9161706,7.413854,0.9999417,-4.9874606
2.894,8.253621,5.2737446,-4.797893,7.5959673,1.05538,-4.972727
2.896,8.299481,5.3830476,-4.6820602,7.7791586,1.109212,-4.9550667
2.898,8.337043,5.513471,-4.568744,7.9628935,1.1607049,-4.934947
2.9,8.366717,5.664911,-4.4582295,8.146514,1.2089195,-4.912825
2.902,8.389157,5.8372264,-4.3504496,8.329228,1.2527465,-4.889092
2.904,8.405039,6.0299807,-4.245353,8.510144,1.2909698,-4.864057
2.906,8.415086,6.242769,-4.1429625,8.688329,1.3223785,-4.8380513
2.908,8.420003,6.474992,-4.0431023,8.862846,1.3458451,-4.811382
2.91,8.42083,6.7261043,-3.9458299,9.032816,1.3604118,-4.78422
2.912,8.4184,6.995451,-3.8510354,9.19741,1.3653841,-4.75661
2.914,8.413592,7.2824173,-3.7586992,9.355987,1.3604265,-4.7284536
2.916,8.407642,7.5862575,-3.6685505,9.508035,1.3455763,-4.6995616
2.918,8.401919,7.906247,-3.5807848,9.653252,1.321251,-4.6696568
2.92,8.397582,8.241822,-3.4953604,9.791511,1.2881917,-4.6384134
2.922,8.396042,8.592458,-3.4121938,9.922878,1.2473627,-4.6054616
2.924,8.398584,8.957857,-3.3312795,10.047551,1.1998125,-4.5704284
2.926,8.406734,9.337776,-3.2527657,10.165832,1.1465327,-4.5329795
2.928,8.422173,9.732149,-3.176786,10.278073,1.0883455,-4.492872
2.93,8.446568,10.140717,-3.1033168,10.38463,1.0257701,-4.4499645
2.932,8.481673,10.563367,-3.0325158,10.485809,0.95897293,-4.4042034
2.934,8.529092,11.000064,-2.9644523,10.581802,0.8877361,-4.355648
2.936,8.590681,11.450797,-2.8990958,10.672722,0.81147313,-4.304485
2.938,8.6684265,11.915721,-2.8363392,10.758597,0.72934556,-4.251
2.94,8.763957,12.3948,-2.7761178,10.839336,0.6403394,-4.195573
2.942,8.879155,12.88804,-2.7181432,10.914803,0.5433654,-4.1387105
2.944,9.015586,13.395264,-2.6620846,10.9847765,0.43738857,-4.0810385
2.946,9.174967,13.916078,-2.6074982,11.0490265,0.3214491,-4.0232425
2.948,9.358565,14.4501915,-2.5537202,11.107322,0.19480556,-3.9660716
2.95,9.567858,14.996941,-2.4999552,11.159477,0.056956917,-3.9103029
2.952,9.803236,15.556667,-2.44441,11.205346,-0.092339456,-3.8566792
2.954,10.065967,16.129208,-2.387361,11.244815,-0.2530829,-3.805812
2.956,10.357825,16.712807,-2.328389,11.277834,-0.42506644,-3.758168
2.958,10.679774,17.305761,-2.2666457,11.304409,-0.60796833,-3.7140286
2.96,11.031721,17.907148,-2.201144,11.324521,-0.8014054,-3.6734009
2.962,11.413053,18.516304,-2.13059,11.338166,-1.004967,-3.6360972
2.964,11.824776,19.131783,-2.0546813,11.345339,-1.2182496,-3.6018524
2.966,12.266822,19.751692,-1.9723295,11.340315,-1.4392141,-3.5703344
2.968,12.738886,20.37392,-1.8827744,11.330778,-1.6699152,-3.5412018
2.97,13.240394,20.995705,-1.7851012,11.312866,-1.9090719,-3.5141273
2.972,13.770565,21.614372,-1.6780303,11.285993,-2.156455,-3.488903
2.974,14.328581,22.227737,-1.5605494,11.249617,-2.411953,-3.4655142
2.976,14.91381,22.833366,-1.4316142,11.203371,-2.675558,-3.4441297
2.978,15.525592,23.428488,-1.2904658,11.147181,-2.947433,-3.4251242
2.98,16.162836,24.009453,-1.1366085,11.081488,-3.2280474,-3.4090064
2.982,16.824402,24.572443,-0.9697406,11.007289,-3.5180635,-3.3964825
2.984,17.509079,25.113071,-0.7900028,10.925964,-3.8180988,-3.3886306
2.986,18.216047,25.626692,-0.597456,10.839151,-4.1290636,-3.3866684
2.988,18.94368,26.109034,-0.39217854,10.748503,-4.4521384,-3.3917606
2.99,19.690767,26.555376,-0.17411184,10.655474,-4.788567,-3.4050784
2.992,20.45589,26.960619,0.056446075,10.561003,-5.1394486,-3.4279666
2.994,21.237495,27.319529,0.2991557,10.465163,-5.505764,-3.461934
2.996,22.033733,27.62712,0.5529556,10.366951,-5.888334,-3.5085726
2.998,22.84247,27.878939,0.8168955,10.264352,-6.2877045,-3.569533
3,23.661163,28.070105,1.0898294,10.154656,-6.704159,-3.6463041
3.002,24.487484,28.196064,1.3703308,10.034664,-7.1377726,-3.7400923
3.004,25.318483,28.25295,1.6567268,9.900935,-7.5884223,-3.8518867
3.006,26.150658,28.237421,1.9472122,9.750065,-8.055812,-3.9823458
3.008,26.980303,28.147001,2.240201,9.578894,-8.539449,-4.131665
3.01,27.803568,27.979753,2.5340633,9.384632,-9.0386095,-4.299342
3.012,28.616053,27.73503,2.8269472,9.165106,-9.552232,-4.4840097
3.014,29.413433,27.413435,3.1174965,8.918914,-10.078966,-4.6834903
3.016,30.191084,27.016376,3.404251,8.645446,-10.617305,-4.894894
3.018,30.943806,26.546291,3.685997,8.344886,-11.165514,-5.1148114
3.02,31.666298,26.005932,3.9616127,8.021525,-11.722613,-5.339573
3.022,32.352726,25.398771,4.2300644,7.6689057,-12.283923,-5.565522
3.024,32.996887,24.72914,4.490246,7.2946787,-12.848484,-5.789371
3.026,33.591675,24.001553,4.741701,6.9012766,-13.413314,-6.00849
3.028,34.13265,23.222446,4.984501,6.491437,-13.975144,-6.2211456
3.03,34.614876,22.3982,5.218958,6.067986,-14.530493,-6.426556
3.032,35.03248,21.53444,5.444827,5.6336594,-15.075638,-6.6247845
3.034,35.379883,20.63749,5.662176,5.190973,-15.606661,-6.8165555
3.036,35.65143,19.714455,5.871167,4.742203,-16.119692,-7.0029154
3.038,35.84307,18.771896,6.071642,4.2894883,-16.6111,-7.1848803
3.04,35.95096,17.816843,6.263769,3.8348904,-17.077126,-7.3633947
3.042,35.97118,16.855957,6.448107,3.3803973,-17.514006,-7.5391145
3.044,35.900383,15.89608,6.624977,2.9279628,-17.918308,-7.712074
3.046,35.735794,14.944164,6.7943354,2.4796095,-18.286892,-7.8814983
3.048,35.47524,14.006846,6.9565487,2.037569,-18.61678,-8.0460205
3.05,35.117672,13.090357,7.111952,1.6042929,-18.905138,-8.203783
3.052,34.662594,12.200771,7.2606406,1.1823568,-19.14945,-8.352573
3.054,34.11065,11.343721,7.402637,0.7742729,-19.347462,-8.490118
3.056,33.46314,10.524649,7.5376787,0.38250923,-19.49718,-8.614011
3.058,32.72248,9.748498,7.6657,0.009714127,-19.597126,-8.721569
3.06,31.891802,9.019487,7.785982,-0.34145546,-19.646303,-8.81023
3.062,30.975502,8.340607,7.897178,-0.6686268,-19.644064,-8.877707
3.064,29.978342,7.7147083,7.9997916,-0.96959114,-19.590204,-8.921973
3.066,28.905605,7.1453457,8.093063,-1.2423906,-19.484911,-8.941438
3.068,27.76416,6.6345596,8.17564,-1.4854221,-19.328766,-8.934975
3.07,26.561787,6.1830626,8.2457485,-1.697382,-19.122631,-8.901819
3.072,25.307467,5.789873,8.301501,-1.8772297,-18.86772,-8.841535
3.074,24.008966,5.454274,8.342199,-2.0240908,-18.565552,-8.754018
3.076,22.675058,5.174983,8.366311,-2.1372824,-18.218102,-8.639587
3.078,21.315163,4.950399,8.37257,-2.2163515,-17.827793,-8.498982
3.08,19.939014,4.7789783,8.359254,-2.2611852,-17.397507,-8.333303
3.082,18.555805,4.657855,8.32483,-2.272057,-16.930447,-8.14385
3.084,17.174255,4.5832777,8.268847,-2.2497478,-16.430183,-7.9321346
3.086,15.802958,4.550947,8.190969,-2.1956215,-15.9006195,-7.6998124
3.088,14.4505415,4.5565042,8.091691,-2.111671,-15.345997,-7.448605
3.09,13.125442,4.5959253,7.972167,-2.000517,-14.770733,-7.180122
3.092,11.834936,4.6649065,7.8341203,-1.8652959,-14.179491,-6.8958993
3.094,10.585455,4.7591105,7.679874,-1.7096386,-13.577139,-6.597431
3.096,9.382645,4.874466,7.5116973,-1.5373793,-12.968563,-6.28625
3.098,8.232164,5.0069685,7.332055,-1.3523607,-12.358534,-5.964012
3.1,7.13874,5.152701,7.1438446,-1.1582806,-11.751671,-5.6325593
3.102,6.1070495,5.307684,6.9502406,-0.958549,-11.152279,-5.293976
3.104,5.1410484,5.4680147,6.7545776,-0.7561276,-10.564064,-4.950595
3.106,4.244319,5.6298146,6.560931,-0.5533638,-9.989771,-4.6049175
3.108,3.4199343,5.7892504,6.3733244,-0.3519876,-9.431122,-4.25949
3.11,2.6712408,5.9429617,6.1951356,-0.1532054,-8.889059,-3.9169557
3.112,2.000054,6.0875125,6.0300007,0.042016506,-8.363657,-3.5799747
3.114,1.4088213,6.2194977,5.8812027,0.23323226,-7.8539753,-3.25076
3.116,0.8995106,6.3356276,5.751521,0.42066383,-7.3581047,-2.9309916
3.118,0.47347474,6.4329467,5.6430607,0.60484123,-6.873268,-2.6219435
3.12,0.13181496,6.508479,5.5578804,0.7865411,-6.3960314,-2.324354
3.122,-0.12454045,6.5592546,5.4973755,0.96681917,-5.922368,-2.0384884
3.124,-0.29544294,6.5826025,5.4623966,1.1468241,-5.4480095,-1.7643968
3.126,-0.38111162,6.576411,5.453497,1.3275948,-4.9689856,-1.5020685
3.128,-0.38180828,6.5392685,5.4708233,1.5098255,-4.4819736,-1.2515073
3.13,-0.2983899,6.4707036,5.514312,1.6938248,-3.9844575,-1.0126679
3.132,-0.13226914,6.3706403,5.5835457,1.8795362,-3.4747853,-0.785382
3.134,0.115095615,6.239479,5.678,2.0665376,-2.9522474,-0.56930536
3.136,0.44156408,6.0782714,5.7963877,2.2541194,-2.4169412,-0.36382872
3.138,0.84201825,5.8872824,5.937288,2.4414504,-1.869465,-0.16789487
3.14,1.3125496,5.66764,6.099355,2.6277432,-1.310677,0.02006612
3.142,1.8479607,5.4228954,6.2809434,2.8123946,-0.74147236,0.2021204
3.144,2.4443784,5.154575,6.4819603,2.9950762,-0.16273052,0.38060609
3.146,3.0972786,4.864011,6.7005844,3.175702,0.42475736,0.55786103
3.148,3.799654,4.553425,6.935251,3.354422,1.0202762,0.7360236
3.15,4.5440564,4.2255173,7.1842217,3.5314326,1.623015,0.91678524
3.152,5.323697,3.8833663,7.4448357,3.706915,2.2319405,1.1012145
3.154,6.132051,3.5294657,7.714791,3.8809683,2.8457727,1.2896156
3.156,6.961714,3.1665645,7.991762,4.053546,3.462943,1.4815212
3.158,7.8050933,2.7972202,8.273236,4.224376,4.081504,1.6757475
3.16,8.6547,2.4240303,8.556531,4.392998,4.699176,1.8705482
3.162,9.503223,2.048935,8.838826,4.5588975,5.3136373,2.0638602
3.164,10.343532,1.6735862,9.117131,4.721711,5.9228735,2.253555
3.166,11.169028,1.2991023,9.388388,4.8812103,6.5250745,2.4375234
3.168,11.973387,0.9265702,9.649025,5.0372076,7.1182847,2.6136494
3.17,12.751008,0.55714226,9.895797,5.189495,7.700538,2.7798676
3.172,13.496697,0.1917975,10.12507,5.337889,8.269992,2.9341464
3.174,14.205589,-0.16863346,10.333304,5.482276,8.824808,3.0745993
3.176,14.873563,-0.52364135,10.51711,5.6225224,9.363206,3.1996522
3.178,15.497256,-0.872689,10.673239,5.7582846,9.88331,3.3079038
3.18,16.074297,-1.2155712,10.798828,5.8890495,10.383371,3.398256
3.182,16.602379,-1.5516396,10.891187,6.014203,10.861868,3.4698977
3.184,17.080023,-1.8804643,10.947868,6.1328807,11.317331,3.5222783
3.186,17.506598,-2.2017272,10.967094,6.243938,11.748135,3.5551448
3.188,17.881687,-2.5152657,10.947709,6.3460417,12.152579,3.5686893
3.19,18.205454,-2.8212163,10.889501,6.4377604,12.5288315,3.5636597
3.192,18.478529,-3.119025,10.792222,6.5176206,12.874844,3.5414038
3.194,18.702322,-3.408112,10.656071,6.584275,13.188386,3.5038853
3.196,18.878086,-3.6874557,10.481971,6.636647,13.46716,3.4536457
3.198,19.006916,-3.9560041,10.271565,6.6740837,13.7089405,3.3936234
3.2,19.090843,-4.2127976,10.026874,6.6965075,13.911746,3.3269172
3.202,19.132526,-4.4568696,9.750327,6.7043695,14.073929,3.2563643
3.204,19.134459,-4.6872463,9.444773,6.6986136,14.194296,3.1842742
3.206,19.099304,-4.9033136,9.113768,6.6805854,14.272275,3.1123335
3.208,19.02935,-5.104322,8.760857,6.6518693,14.307983,3.0415502
3.21,18.926868,-5.289505,8.389639,6.6140857,14.30219,2.9723394
3.212,18.79427,-5.457892,8.003729,6.568776,14.256319,2.904698
3.214,18.634163,-5.6087065,7.6067476,6.5172014,14.172285,2.8383567
3.216,18.44945,-5.7412634,7.2020216,6.4603043,14.05241,2.7730653
3.218,18.242832,-5.8550863,6.792699,6.3986297,13.899309,2.708708
3.22,18.0167,-5.9493365,6.381981,6.332402,13.715727,2.6453986
3.222,17.774124,-6.0236297,5.9726486,6.261619,13.504473,2.583417
3.224,17.517323,-6.0776963,5.5672836,6.1861115,13.268242,2.5231295
3.226,17.248878,-6.1116343,5.1680994,6.105712,13.009672,2.4649765
3.228,16.971367,-6.1257715,4.7767863,6.0202413,12.731392,2.4092658
3.23,16.68688,-6.1202736,4.3946767,5.9296136,12.435874,2.3559432
3.232,16.397453,-6.095724,4.022845,5.8339796,12.125631,2.3048184
3.234,16.104916,-6.0528293,3.6620002,5.7335835,11.80305,2.2554598
3.236,15.811068,-5.9924726,3.3126335,5.6287084,11.470351,2.2072902
3.238,15.517283,-5.9157715,2.9747696,5.5197606,11.129766,2.1597614
3.24,15.224571,-5.8239183,2.6483588,5.407244,10.7836075,2.1124115
3.242,14.934036,-5.718207,2.333002,5.2916784,10.434117,2.0648603
3.244,14.646179,-5.6000476,2.028428,5.173586,10.083456,2.0169213
3.246,14.361427,-5.4708257,1.7340131,5.053511,9.7337265,1.9685581
3.248,14.079981,-5.3318753,1.4492157,4.931982,9.386911,1.9198687
3.25,13.801647,-5.1844606,1.1731571,4.8094788,9.0447855,1.8710163
3.252,13.527142,-5.0306673,0.905659,4.686427,8.708871,1.8222448
3.254,13.255182,-4.8711205,0.64498824,4.5631847,8.380409,1.773834
3.256,12.984892,-4.706797,0.39119768,4.4400415,8.060315,1.7260816
3.258,12.716203,-4.5390315,0.1439898,4.317214,7.749194,1.6791766
3.26,12.449336,-4.369685,-0.097265184,4.194762,7.447298,1.633189
3.262,12.183936,-4.2005825,-0.33258912,4.072617,7.1545315,1.5880412
3.264,11.919174,-4.033185,-0.562201,3.9505568,6.8704624,1.5434971
3.266,11.654793,-3.8692067,-0.7863153,3.8282287,6.5943627,1.4992131
3.268,11.390597,-3.7098055,-1.0052263,3.7051861,6.325255,1.4547758
3.27,11.126169,-3.5559044,-1.2189803,3.5808845,6.061969,1.409712
3.272,10.8614,-3.4081163,-1.427381,3.4547415,5.803173,1.3635546
3.274,10.596046,-3.26682,-1.6299512,3.3261666,5.547455,1.3159108
3.276,10.330247,-3.1324651,-1.8259782,3.194591,5.2934074,1.2665093
3.278,10.064007,-3.0057018,-2.0146105,3.059514,5.0396647,1.2151822
3.28,9.797609,-2.8870356,-2.194853,2.9205189,4.7849307,1.1619097
3.282,9.531508,-2.776997,-2.3654916,2.777302,4.5280004,1.1067997
3.284,9.266191,-2.6759236,-2.5253057,2.6297019,4.2678223,1.0501437
3.286,9.002293,-2.5838082,-2.6731303,2.477697,4.0035124,0.99238247
3.288,8.740439,-2.5006375,-2.807927,2.3213744,3.734356,0.9340645
3.29,8.481183,-2.4261246,-2.9284472,2.1609387,3.4598362,0.8758284
3.292,8.225218,-2.359928,-3.0336268,1.9966972,3.179599,0.81831557
3.294,7.9735413,-2.3016264,-3.1225872,1.8290447,2.8934615,0.7621598
3.296,7.726713,-2.2506692,-3.194378,1.6584485,2.6013825,0.70795774
3.298,7.485713,-2.206614,-3.248268,1.485435,2.3034506,0.6562158
3.3,7.2514133,-2.168716,-3.2834356,1.3105886,1.999892,0.6073561
3.302,7.024417,-2.1362705,-3.2990642,1.1345043,1.691046,0.56168795
3.304,6.8053265,-2.1084838,-3.2946749,0.95780325,1.3773568,0.5194502
3.306,6.594905,-2.0845876,-3.2698193,0.78113747,1.0593771,0.4807802
3.308,6.3938785,-2.0640287,-3.2242568,0.60517144,0.73773754,0.445713
3.31,6.2025456,-2.0462756,-3.157759,0.430573,0.41315532,0.4142111
3.312,6.0214643,-2.030836,-3.0702496,0.25802183,0.08641228,0.38614875
3.314,5.8510747,-2.017363,-2.961737,0.088195786,-0.24163927,0.36133406
3.316,5.6917887,-2.0055218,-2.832529,-0.07825747,-0.5701192,0.33950612
3.318,5.5436373,-1.9950722,-2.6829133,-0.24071446,-0.8980876,0.32033926
3.32,5.4069357,-1.9857341,-2.5135198,-0.3986179,-1.2245804,0.30343944
3.322,5.281621,-1.9774365,-2.325043,-0.55147415,-1.5486012,0.28836644
3.324,5.167895,-1.9701291,-2.1184025,-0.698864,-1.869123,0.27466434
3.326,5.0656424,-1.9638441,-1.8945334,-0.8404663,-2.1850982,0.26186588
3.328,4.9748454,-1.9586383,-1.6546081,-0.9760425,-2.4954371,0.24950346
3.33,4.8952894,-1.9547207,-1.3998544,-1.1054304,-2.7990656,0.2371541
3.332,4.826886,-1.9521565,-1.1316073,-1.2285362,-3.094895,0.22444019
3.334,4.769305,-1.9509809,-0.85126185,-1.3453166,-3.3818624,0.2110495
3.336,4.7223954,-1.951346,-0.5603913,-1.4557853,-3.6589403,0.1967676
3.338,4.6857815,-1.9531692,-0.26043385,-1.5599831,-3.9252014,0.18146694
3.34,4.6593676,-1.9565887,0.046918094,-1.6579559,-4.179821,0.16510752
3.342,4.6427174,-1.9614613,0.36018196,-1.7497579,-4.422087,0.14775679
3.344,4.6357346,-1.9678185,0.6777512,-1.8354304,-4.651483,0.12956676
3.346,4.6378474,-1.9755499,0.9980121,-1.9150093,-4.867652,0.11074296
3.348,4.64889,-1.984492,1.3195928,-1.9885144,-5.07042,0.09155226
3.35,4.66859,-1.9944093,1.6410935,-2.0559416,-5.2597895,0.07229093
3.352,4.696608,-2.0050936,1.961211,-2.1172905,-5.435899,0.053263396
3.354,4.7324595,-2.0162687,2.2785413,-2.172561,-5.599042,0.034767598
3.356,4.775887,-2.0276709,2.5919616,-2.221757,-5.749604,0.017067552
3.358,4.8265734,-2.039143,2.9003267,-2.2649279,-5.8880396,0.0003696084
3.36,4.884057,-2.0503798,3.2026384,-2.3021705,-6.01483,-0.015175462
3.362,4.9479327,-2.0610523,3.498016,-2.3336158,-6.1304617,-0.029475138
3.364,5.0178356,-2.0710208,3.785562,-2.3594446,-6.2354016,-0.04249017
3.366,5.0932555,-2.0798485,4.0645943,-2.3798776,-6.3300934,-0.054217957
3.368,5.1736765,-2.0874007,4.334383,-2.3951473,-6.414941,-0.06471187
3.37,5.2588,-2.0934808,4.594472,-2.4054892,-6.490319,-0.074056305
3.372,5.347946,-2.0979724,4.8442464,-2.4111352,-6.5565753,-0.08235397
3.374,5.4407244,-2.100622,5.083299,-2.4123034,-6.6140084,-0.089729816
3.376,5.536607,-2.101494,5.3112984,-2.4091814,-6.662919,-0.096331716
3.378,5.6350083,-2.100534,5.527915,-2.4019356,-6.703536,-0.102324426
3.38,5.735443,-2.0976777,5.732912,-2.3907094,-6.736079,-0.10788374
3.382,5.837325,-2.093148,5.926158,-2.3756332,-6.7607317,-0.11318657
3.384,5.9401073,-2.0871463,6.1074834,-2.3568318,-6.7776175,-0.1184023
3.386,6.043141,-2.0797381,6.2766576,-2.3344142,-6.786817,-0.12367624
3.388,6.146207,-2.0710716,6.4336805,-2.308504,-6.7883673,-0.12915209
3.39,6.248489,-2.0614457,6.5784726,-2.2792,-6.782233,-0.13492733
3.392,6.3496256,-2.0511136,6.710957,-2.2466211,-6.768325,-0.14109626
3.394,6.449076,-2.0403323,6.831091,-2.210909,-6.7465105,-0.14772612
3.396,6.546359,-2.0294662,6.93875,-2.1722012,-6.716625,-0.15484744
3.398,6.641142,-2.0187733,7.0340695,-2.1306524,-6.6784954,-0.16249186
3.4,6.7332745,-2.008665,7.11703,-2.0864415,-6.63195,-0.17061561
3.402,6.822173,-1.9991988,7.187777,-2.039755,-6.5768476,-0.17919624
3.404,6.9073515,-1.9906367,7.2462673,-1.9908088,-6.513108,-0.18815732
3.406,6.9887853,-1.9832232,7.2926483,-1.9398226,-6.4407268,-0.19739276
3.408,7.0661635,-1.9770683,7.3270674,-1.8870404,-6.3597727,-0.20676857
3.41,7.1392517,-1.9723063,7.3496227,-1.8327148,-6.27045,-0.21613276
3.412,7.208105,-1.9689415,7.360532,-1.7771082,-6.1730194,-0.22528833
3.414,7.272489,-1.9669539,7.3599453,-1.720506,-6.0678825,-0.23400968
3.416,7.3322487,-1.9661695,7.3482237,-1.6631801,-5.9555264,-0.24206758
3.418,7.3874474,-1.9663856,7.325749,-1.6054109,-5.836523,-0.24925095
3.42,7.438099,-1.9671952,7.2927275,-1.547476,-5.711516,-0.25535244
3.422,7.484128,-1.9684165,7.2495813,-1.4896387,-5.5812016,-0.26016176
3.424,7.525711,-1.9696556,7.196803,-1.4321556,-5.446315,-0.26352853
3.426,7.5627685,-1.9702754,7.1349726,-1.3752853,-5.307602,-0.26531655
3.428,7.5954237,-1.9698908,7.064459,-1.319254,-5.1657915,-0.26541322
3.43,7.623731,-1.9678684,6.9859695,-1.2642969,-5.0215774,-0.26371574
3.432,7.6477184,-1.9636291,6.899981,-1.2106088,-4.8756313,-0.2601592
3.434,7.667472,-1.9566368,6.8072176,-1.158383,-4.7285814,-0.25469583
3.436,7.683052,-1.9463807,6.708136,-1.1077913,-4.5809817,-0.24729568
3.438,7.6944304,-1.9321363,6.603524,-1.0589763,-4.4333725,-0.2379446
3.44,7.701747,-1.9133848,6.4939384,-1.0120612,-4.2862754,-0.22666162
3.442,7.7048817,-1.8895721,6.3800297,-0.9671581,-4.1401715,-0.21348679
3.444,7.704042,-1.8602054,6.262321,-0.92435193,-3.995518,-0.19848973
3.446,7.6991444,-1.8248005,6.141471,-0.8837126,-3.8527625,-0.18174678
3.448,7.690137,-1.7829444,6.0179515,-0.8452946,-3.7123508,-0.16334814
3.45,7.676963,-1.7342024,5.8924527,-0.8091527,-3.5746884,-0.1433909
3.452,7.6596966,-1.6784046,5.7652864,-0.77534956,-3.4401445,-0.121962905
3.454,7.638113,-1.6152167,5.6370306,-0.74392056,-3.3090482,-0.09915054
3.456,7.6123734,-1.5445219,5.508214,-0.7149146,-3.1816826,-0.07500595
3.458,7.5823717,-1.4662552,5.3791575,-0.68836486,-3.0582745,-0.04957044
3.46,7.54795,-1.380522,5.250273,-0.6642975,-2.9390116,-0.022858799
3.462,7.5090446,-1.2872459,5.121969,-0.6427108,-2.8240223,0.0051321387
3.464,7.465707,-1.1866513,4.9946203,-0.6235945,-2.713399,0.034390926
3.466,7.4178004,-1.0789645,4.8685184,-0.6069153,-2.6072307,0.06490594
3.468,7.3653793,-0.96446335,4.743987,-0.59262294,-2.505559,0.096645236
3.47,7.3082023,-0.8434814,4.621313,-0.5806652,-2.4084234,0.12955701
3.472,7.246518,-0.7165674,4.5007205,-0.5709741,-2.315857,0.16357303
3.474,7.180184,-0.584103,4.3824916,-0.5634775,-2.227892,0.1985943
3.476,7.1092215,-0.44680333,4.266713,-0.5581176,-2.1445527,0.23448706
3.478,7.033747,-0.30497158,4.153646,-0.55482435,-2.0658593,0.2711311
3.48,6.953745,-0.15931106,4.0433526,-0.55351603,-1.991813,0.3083964
3.482,6.8694115,-0.01040709,3.9360938,-0.5541063,-1.9224287,0.3461495
3.484,6.78071,0.14101112,3.831849,-0.5565045,-1.8576736,0.3842746
3.486,6.6879063,0.29438698,3.7307696,-0.5606284,-1.7974865,0.42269132
3.488,6.591179,0.44921505,3.6329007,-0.56637853,-1.7417805,0.4613566
3.49,6.4907856,0.6047557,3.5382504,-0.5736544,-1.6904409,0.5002321
3.492,6.386876,0.7605816,3.4468148,-0.58235055,-1.6433318,0.5393023
3.494,6.2796745,0.9161985,3.3586068,-0.5923593,-1.600281,0.57857215
3.496,6.1695366,1.0710113,3.273675,-0.60357994,-1.561113,0.61807024
3.498,6.0565653,1.2246873,3.1917782,-0.61592567,-1.5256402,0.6578336
3.5,5.941245,1.3768089,3.1129234,-0.6292959,-1.4936719,0.69790184
3.502,5.82382,1.5271256,3.037004,-0.6436047,-1.4650145,0.7383247
3.504,5.7045836,1.6753134,2.9639664,-0.6587612,-1.4394776,0.77915084
3.506,5.5839434,1.8212839,2.8936863,-0.67466855,-1.4169016,0.8204293
3.508,5.4621797,1.9648337,2.8259163,-0.69123596,-1.3971062,0.8622135
3.51,5.3396015,2.1059422,2.7604804,-0.7083747,-1.379922,0.90455604
3.512,5.21679,2.2441216,2.697164,-0.7260065,-1.3651962,0.94749206
3.514,5.093861,2.379513,2.6357756,-0.7440513,-1.3527712,0.9910721
3.516,4.971276,2.5120955,2.5759964,-0.76245695,-1.3425028,1.0353341
3.518,4.8491874,2.6418712,2.51767,-0.78116465,-1.3342538,1.0803206
3.52,4.7279315,2.768993,2.460548,-0.8001449,-1.3279008,1.1260403
3.522,4.6077394,2.8933825,2.4043808,-0.81936747,-1.3233333,1.1725004
