Time_s_,Acc_x_m_s_2_,Acc_y_m_s_2_,Acc_z_m_s_2_,Gyro_x_1_s_,Gyro_y_1_s_,Gyro_z_1_s_
0,1.3752211,-0.22172785,-0.79209524,0.6489496,-0.0658185,-0.48883396
0.002,1.3778492,-0.22972062,-0.7488692,0.6623353,-0.04486429,-0.48408464
0.004,1.3811281,-0.23910996,-0.70121115,0.67638224,-0.022548258,-0.47888815
0.006,1.3849843,-0.2500903,-0.64809287,0.69084436,0.0008890182,-0.4732573
0.008,1.3894867,-0.26317888,-0.58695745,0.70539415,0.025060177,-0.46723878
0.01,1.3951458,-0.27883518,-0.51879144,0.719571,0.04940082,-0.4609183
0.012,1.401767,-0.29667512,-0.44466823,0.73284,0.073161766,-0.4543849
0.014,1.4090105,-0.3165034,-0.3639831,0.7446187,0.09544581,-0.44775474
0.016,1.4173645,-0.33869708,-0.27650267,0.7542965,0.11526345,-0.44114578
0.018,1.4273709,-0.36360782,-0.18234506,0.7613323,0.1316094,-0.43465889
0.02,1.4389212,-0.39135757,-0.08103816,0.765257,0.14354926,-0.42835644
0.022,1.4520894,-0.42205107,0.02793939,0.7657532,0.15031473,-0.42226022
0.024,1.4671177,-0.455746,0.14453715,0.7626729,0.15135038,-0.41633663
0.026,1.4841424,-0.49247742,0.26875752,0.75602454,0.14637527,-0.4105059
0.028,1.5035628,-0.5323686,0.4004328,0.7462923,0.13606006,-0.40446123
0.03,1.5255426,-0.5753976,0.5392848,0.7332589,0.11954552,-0.39836034
0.032,1.549944,-0.6213819,0.684908,0.7172646,0.09743928,-0.39208952
0.034,1.5765567,-0.6699087,0.83677435,0.69865143,0.07039167,-0.38554806
0.036,1.605257,-0.7207087,0.99408466,0.6777664,0.039069384,-0.37869292
0.038,1.6363587,-0.7736475,1.1558123,0.6549967,0.0042761937,-0.37151846
0.04,1.6703131,-0.82859,1.3204504,0.63075435,-0.03301283,-0.36398202
0.042,1.707111,-0.8853994,1.4866062,0.6053827,-0.071924984,-0.35601223
0.044,1.7467511,-0.94388235,1.6530385,0.57925755,-0.111550346,-0.34754795
0.046,1.7885797,-1.0035374,1.8176684,0.55281323,-0.15079162,-0.33848667
0.048,1.8318046,-1.0632138,1.977816,0.52653134,-0.18847576,-0.32867378
0.05,1.8758518,-1.1218843,2.1323886,0.5009692,-0.22339675,-0.3179197
0.052,1.9198253,-1.1785723,2.281215,0.47677588,-0.2542894,-0.3059949
0.054,1.9628937,-1.2323024,2.4235818,0.45466512,-0.27986768,-0.29267424
0.056,2.0041852,-1.2827425,2.5614316,0.4353394,-0.29889148,-0.27773058
0.058,2.0430562,-1.3278637,2.691463,0.41948393,-0.31023872,-0.2609773
0.06,2.0792913,-1.3670876,2.812248,0.4076781,-0.3129661,-0.24226114
0.062,2.11186,-1.399623,2.9222085,0.4003368,-0.3063811,-0.22147825
0.064,2.1393843,-1.4246594,3.019503,0.39770225,-0.29007596,-0.19858658
0.066,2.1606505,-1.4417646,3.102397,0.39979985,-0.26394564,-0.17361653
0.068,2.1741848,-1.4501343,3.16996,0.40648633,-0.22815861,-0.14662403
0.07,2.1780846,-1.4485066,3.2217379,0.41747713,-0.18311122,-0.117715105
0.072,2.1707,-1.4352362,3.2580779,0.43232313,-0.12940486,-0.087074116
0.074,2.150775,-1.4089762,3.2801106,0.45051712,-0.06777708,-0.054957777
0.076,2.117451,-1.3689914,3.2889807,0.47147417,0.00093723834,-0.021653138
0.078,2.0701568,-1.3152535,3.285755,0.49455193,0.07568984,0.012482986
0.08,2.0081165,-1.2477973,3.2712638,0.5190452,0.15521008,0.04701703
0.082,1.9303671,-1.1667379,3.2458127,0.54421693,0.23823135,0.08145237
0.084,1.8360736,-1.0724778,3.2095342,0.5693279,0.32347113,0.1152656
0.086,1.7247269,-0.9653917,3.1628475,0.59361535,0.40949488,0.1479344
0.088,1.595864,-0.8460964,3.1063821,0.6163336,0.49471486,0.17893463
0.09,1.4497584,-0.71550786,3.0409536,0.6367244,0.57745224,0.20772281
0.092,1.2867877,-0.57486063,2.9676218,0.65394294,0.65591645,0.2336694
0.094,1.1074982,-0.42553854,2.887184,0.6670846,0.72826725,0.25603634
0.096,0.91280806,-0.26933056,2.8000855,0.6753124,0.7929005,0.27409795
0.098,0.70443857,-0.10821599,2.7067356,0.6779267,0.8483771,0.28726128
0.1,0.4838871,0.055707753,2.6073217,0.67451227,0.8934625,0.2950372
0.102,0.2535366,0.21999913,2.502224,0.6650735,0.92740136,0.29705817
0.104,0.016068548,0.3823083,2.392186,0.65004194,0.9500199,0.29309216
0.106,-0.22623453,0.54068965,2.2776515,0.6302395,0.9617316,0.2831083
0.108,-0.47056374,0.69313776,2.1582565,0.60677356,0.9633883,0.26735657
0.11,-0.71324533,0.8376471,2.033549,0.58094335,0.95610905,0.24631707
0.112,-0.95087683,0.9723685,1.903526,0.55407184,0.9410863,0.22068991
0.114,-1.1810322,1.0960909,1.768896,0.52736175,0.9193638,0.19131646
0.116,-1.4018278,1.2075241,1.6318458,0.5017555,0.89168465,0.15914044
0.118,-1.6100997,1.3063426,1.4911412,0.4778857,0.85848504,0.12517324
0.12,-1.8033555,1.3932037,1.3478676,0.4560542,0.81992245,0.090411484
0.122,-1.9793,1.4679284,1.2040256,0.43627414,0.7759871,0.055775076
0.124,-2.1355104,1.5297706,1.0603559,0.4184028,0.7266498,0.02208981
0.126,-2.270864,1.5789822,0.91819906,0.40228003,0.67205113,-0.00992544
0.128,-2.3846068,1.6163018,0.7792361,0.38779926,0.6126004,-0.03968808
0.13,-2.4756763,1.6424935,0.6444968,0.37495917,0.5490526,-0.0667931
0.132,-2.5442162,1.6588303,0.51465607,0.3638853,0.4826018,-0.09097898
0.134,-2.590514,1.6663482,0.3905054,0.35479936,0.414663,-0.11212004
0.136,-2.6144445,1.665639,0.27279758,0.34789425,0.34661278,-0.13023356
0.138,-2.6173892,1.6580727,0.16244979,0.34328032,0.2798622,-0.14545445
0.14,-2.6010175,1.6450377,0.060542166,0.3409809,0.2158761,-0.15799695
0.142,-2.5665517,1.6274788,-0.031921268,0.34088182,0.1559875,-0.16811948
0.144,-2.5159934,1.6065125,-0.11470564,0.34275487,0.101420835,-0.17612845
0.146,-2.451292,1.583194,-0.18761313,0.3463454,0.05322224,-0.18231322
0.148,-2.374839,1.5584244,-0.25013202,0.3514529,0.01221326,-0.18671674
0.15,-2.289393,1.5329311,-0.30151513,0.35783774,-0.02104704,-0.18937737
0.152,-2.19674,1.507104,-0.34214884,0.365177,-0.046293642,-0.19055636
0.154,-2.0987995,1.4812244,-0.3732413,0.37310493,-0.063587576,-0.19049956
0.156,-1.996765,1.455224,-0.395123,0.38117793,-0.073492095,-0.18933146
0.158,-1.891172,1.4283235,-0.40771663,0.38896695,-0.07710488,-0.18713754
0.16,-1.7835284,1.4005306,-0.41250533,0.3961133,-0.075909056,-0.18401934
0.162,-1.6749668,1.3720077,-0.41109714,0.4023933,-0.07156055,-0.18011871
0.164,-1.5660942,1.3427405,-0.4040171,0.40768233,-0.06577938,-0.17557308
0.166,-1.4575797,1.312612,-0.3915976,0.41193742,-0.06018552,-0.17049427
0.168,-1.350142,1.2817452,-0.37441072,0.41520578,-0.056116108,-0.16492687
0.17,-1.2446796,1.2502303,-0.35220033,0.41758963,-0.054516714,-0.15889816
0.172,-1.1409519,1.2177708,-0.323888,0.41924128,-0.055887368,-0.15237594
0.174,-1.038476,1.1839806,-0.288386,0.4203474,-0.060236108,-0.14525658
0.176,-0.93768656,1.1489162,-0.24562383,0.42108902,-0.06716497,-0.1373764
0.178,-0.83651054,1.1111789,-0.19589755,0.42164028,-0.07594382,-0.12855902
0.18,-0.7354147,1.0703866,-0.13923052,0.4221022,-0.08565159,-0.11865894
0.182,-0.6341104,1.0253954,-0.076123774,0.4225173,-0.09530559,-0.10754406
0.184,-0.5317773,0.97560126,-0.0077055097,0.4229126,-0.10401626,-0.09512177
0.186,-0.42959473,0.9220662,0.06479223,0.42329174,-0.111087665,-0.081368715
0.188,-0.3292687,0.86611336,0.14095494,0.42366844,-0.11598936,-0.06630151
0.19,-0.23053539,0.80779624,0.22060826,0.42410272,-0.11838537,-0.050016142
0.192,-0.13362211,0.747129,0.30368137,0.42468995,-0.118133865,-0.03268432
0.194,-0.03904119,0.68446225,0.39118677,0.42553803,-0.11519346,-0.014484414
0.196,0.052779123,0.6196147,0.48396567,0.426782,-0.10954809,0.0044756336
0.198,0.14111462,0.5526763,0.58168906,0.42855114,-0.1012931,0.024163514
0.2,0.22476904,0.48430723,0.68295217,0.43093386,-0.09051938,0.044623304
0.202,0.30367774,0.4145761,0.78664386,0.43393335,-0.07729172,0.06582637
0.204,0.37818035,0.34392953,0.8894148,0.4375428,-0.061688907,0.08787982
0.206,0.44653428,0.2740875,0.99166054,0.44175184,-0.043857917,0.1110791
0.208,0.50758827,0.20562375,1.0932984,0.44652796,-0.023991093,0.13560778
0.21,0.56165326,0.13901252,1.192587,0.45181406,-0.0022446215,0.16142303
0.212,0.6081596,0.07509822,1.2886783,0.45750526,0.021243319,0.18834594
0.214,0.646933,0.0145331025,1.3803452,0.4634933,0.046301857,0.21612832
0.216,0.67845017,-0.042568207,1.466607,0.46967104,0.07274385,0.24434224
0.218,0.70274085,-0.09598634,1.5470893,0.47597426,0.10036972,0.27239066
0.22,0.71886176,-0.14518052,1.6212564,0.48240116,0.12898804,0.29962215
0.222,0.72706765,-0.19023496,1.68787,0.48898974,0.1584338,0.32537124
0.224,0.73278564,-0.23351485,1.7455316,0.49579707,0.18848935,0.34896955
0.226,0.7342969,-0.2730399,1.7918717,0.5028831,0.2189334,0.36975288
0.228,0.73290503,-0.30984858,1.8273978,0.51029944,0.24952553,0.38715932
0.23,0.7281437,-0.34362185,1.8520863,0.5181184,0.27999488,0.40072322
0.232,0.7206114,-0.37411794,1.8654598,0.526405,0.31006682,0.41014218
0.234,0.7120685,-0.40118095,1.8667581,0.5352703,0.33951402,0.41530555
0.236,0.70449185,-0.4257269,1.8548961,0.54474896,0.3679662,0.41607296
0.238,0.6992112,-0.44914475,1.8288606,0.5548346,0.3952109,0.41241884
0.24,0.69723374,-0.4724643,1.7877591,0.56548333,0.4211951,0.4045819
0.242,0.7001574,-0.49665302,1.731122,0.5766183,0.4459136,0.39296547
0.244,0.70880693,-0.5218823,1.6588936,0.58822393,0.46952498,0.37818712
0.246,0.7234798,-0.54799914,1.5712669,0.6002604,0.4922518,0.36096978
0.248,0.74555594,-0.5758282,1.4685721,0.6126697,0.5143415,0.34207195
0.25,0.7764101,-0.6060789,1.3512529,0.6253711,0.5359951,0.32225192
0.252,0.8166338,-0.6389087,1.2197468,0.6382576,0.5572092,0.30232108
0.254,0.8670631,-0.67488897,1.0748528,0.6512039,0.5778761,0.28310555
0.256,0.9277743,-0.7139543,0.9173312,0.6640334,0.5976137,0.26515955
0.258,0.99877805,-0.75555986,0.747867,0.67656624,0.6156859,0.24890101
0.26,1.0802929,-0.79931,0.56735116,0.688671,0.6312084,0.2346878
0.262,1.1721277,-0.8446953,0.3779562,0.7001692,0.6432279,0.22268566
0.264,1.273409,-0.8910943,0.18165176,0.71090066,0.65096414,0.21305022
0.266,1.3834211,-0.9381639,-0.019946322,0.7207043,0.6537778,0.20578158
0.268,1.5007526,-0.985379,-0.22461957,0.7294435,0.6512077,0.20066608
0.27,1.6246285,-1.0326426,-0.43064672,0.73705137,0.64303476,0.19752231
0.272,1.7539452,-1.0795553,-0.6364389,0.7435286,0.62935555,0.19621038
0.274,1.8867545,-1.125524,-0.839893,0.74890053,0.6105442,0.19656023
0.276,2.0214658,-1.1698198,-1.038535,0.7532433,0.58725,0.19838539
0.278,2.1561396,-1.2119848,-1.2299576,0.7566772,0.5604564,0.20157333
0.28,2.288947,-1.2513978,-1.4119885,0.75929356,0.5313308,0.20604189
0.282,2.4175396,-1.2872176,-1.5827948,0.7611812,0.50118244,0.21170422
0.284,2.5398715,-1.3186913,-1.7408139,0.7623915,0.47138676,0.21856555
0.286,2.6545045,-1.3455796,-1.8840306,0.76295364,0.4432097,0.22670156
0.288,2.7580135,-1.3669388,-2.0106623,0.7628895,0.41767156,0.23625651
0.29,2.849708,-1.3830585,-2.1196787,0.7622762,0.3956526,0.24753499
0.292,2.9276195,-1.3936179,-2.210147,0.7612179,0.37759018,0.26081604
0.294,2.9894083,-1.3983839,-2.2811322,0.7599257,0.36368936,0.27627727
0.296,3.0354464,-1.398205,-2.3316252,0.75869155,0.35395584,0.2940776
0.298,3.0637562,-1.3922424,-2.361367,0.7578304,0.34815764,0.31439018
0.3,3.072902,-1.3803198,-2.3683774,0.7578202,0.34606138,0.3373894
0.302,3.0628533,-1.3622932,-2.3526182,0.7592046,0.34742808,0.36316824
0.304,3.033829,-1.3378886,-2.3150308,0.7625497,0.35199684,0.39175862
0.306,2.986337,-1.3073497,-2.2574708,0.7683405,0.35954112,0.42306966
0.308,2.920867,-1.2712642,-2.1812458,0.7769181,0.36971438,0.45688826
0.31,2.8380704,-1.2303562,-2.0863535,0.7885085,0.38217756,0.49311015
0.312,2.7382672,-1.1843095,-1.9731708,0.80317485,0.39658368,0.5315187
0.314,2.6232224,-1.1336923,-1.8410954,0.82080114,0.41245702,0.571748
0.316,2.4963977,-1.0807636,-1.6959112,0.8412003,0.42926604,0.6134179
0.318,2.3601096,-1.0265715,-1.5405188,0.8641008,0.44645137,0.6560707
0.32,2.2153609,-0.971657,-1.3753629,0.8891493,0.46362445,0.69932985
0.322,2.0642335,-0.9166873,-1.2021152,0.9158959,0.48058912,0.74282277
0.324,1.9088182,-0.8622478,-1.0218499,0.94382846,0.49730793,0.7861123
0.326,1.7499973,-0.8081302,-0.83764684,0.97243583,0.51382375,0.8287491
0.328,1.5909692,-0.75552195,-0.65142405,1.0011922,0.53024995,0.8702146
0.33,1.4321461,-0.7040144,-0.4650337,1.0294945,0.5465931,0.909976
0.332,1.2768296,-0.6546778,-0.2800172,1.0567827,0.56277823,0.9476356
0.334,1.1227665,-0.60656625,-0.099505045,1.0825647,0.57853913,0.9828531
0.336,0.9744529,-0.5621126,0.07356923,1.1063725,0.59355867,1.0152144
0.338,0.83137536,-0.5206301,0.23771313,1.1277072,0.6073772,1.0442728
0.34,0.69563365,-0.48331484,0.39153856,1.1461058,0.61935526,1.0696797
0.342,0.56855893,-0.45016775,0.53289425,1.1612041,0.6287271,1.0911721
0.344,0.44878858,-0.41940486,0.6604256,1.1727782,0.63463837,1.1086131
0.346,0.3357012,-0.3894582,0.7724317,1.1807004,0.63625926,1.1218432
0.348,0.22886589,-0.3589616,0.8696484,1.1849024,0.6326359,1.1307623
0.35,0.12979016,-0.3293737,0.95075434,1.1854684,0.6230496,1.1354651
0.352,0.040453825,-0.30237457,1.0154887,1.1826031,0.6069887,1.1360976
0.354,-0.04106748,-0.27704725,1.0638005,1.1766385,0.58416295,1.1328639
0.356,-0.1165601,-0.2537328,1.093499,1.1680633,0.5546899,1.1259909
0.358,-0.18507667,-0.23349108,1.1031808,1.157316,0.51885104,1.1157297
0.36,-0.24601936,-0.21647242,1.0918977,1.1448429,0.4771293,1.1023924
0.362,-0.29973146,-0.20178866,1.0595857,1.1311249,0.43028203,1.0863249
0.364,-0.3463653,-0.18848456,1.0085584,1.1165506,0.379277,1.0678239
0.366,-0.38508898,-0.17675342,0.94168085,1.1013856,0.32506335,1.0470742
0.368,-0.41572207,-0.16717075,0.8607805,1.0858067,0.2685034,1.0242403
0.37,-0.43805116,-0.16031155,0.76754326,1.0699757,0.21050417,0.9995638
0.372,-0.45223895,-0.15634224,0.66381913,1.0541366,0.15207076,0.9733431
0.374,-0.45769113,-0.15542893,0.55190426,1.0385731,0.09426421,0.9458504
0.376,-0.45441034,-0.15707141,0.4342862,1.0234917,0.03789252,0.91733533
0.378,-0.4422076,-0.160568,0.31300518,1.0089325,-0.016645491,0.8880167
0.38,-0.42095053,-0.1657576,0.19071089,0.9949272,-0.068778545,0.85833937
0.382,-0.39058226,-0.17250489,0.069510885,0.98146516,-0.11827025,0.82909507
0.384,-0.35093835,-0.18031642,-0.04899174,0.9685916,-0.16488287,0.801034
0.386,-0.30194965,-0.18908976,-0.1630122,0.9562287,-0.2086449,0.77469385
0.388,-0.24345927,-0.19843107,-0.27060735,0.94419867,-0.24979147,0.7508063
0.39,-0.17576733,-0.20810656,-0.37051263,0.93233716,-0.2886402,0.73026323
0.392,-0.09941676,-0.21779759,-0.46182078,0.92051756,-0.32542336,0.7137366
0.394,-0.014872938,-0.22728634,-0.5439808,0.9086584,-0.3601718,0.7015285
0.396,0.07717982,-0.23640259,-0.6169561,0.8967736,-0.39256936,0.69369006
0.398,0.17617339,-0.24501629,-0.6811678,0.88500404,-0.42199314,0.6900004
0.4,0.28130037,-0.253273,-0.73711324,0.8736195,-0.44769293,0.6901353
0.402,0.39194357,-0.26125222,-0.7859311,0.86303055,-0.46876168,0.69365
0.404,0.50671977,-0.26894617,-0.82868004,0.85366297,-0.4844566,0.6999933
0.406,0.6240872,-0.27644455,-0.8667932,0.84590155,-0.494264,0.70868355
0.408,0.74477774,-0.2847743,-0.90139747,0.8399839,-0.49801183,0.71931756
0.41,0.8672346,-0.293306,-0.9353587,0.835956,-0.4959232,0.7315875
0.412,0.9894347,-0.30172297,-0.96922,0.8337781,-0.48837003,0.7451914
0.414,1.1100744,-0.3104042,-1.0034921,0.83321387,-0.4760558,0.75975287
0.416,1.2278942,-0.3188961,-1.0378884,0.8338405,-0.4599477,0.77484024
0.418,1.3423924,-0.32694262,-1.0721534,0.8352176,-0.44099838,0.7900282
0.42,1.452948,-0.33487046,-1.1070675,0.83696055,-0.42000002,0.8049142
0.422,1.5587984,-0.3430651,-1.1434584,0.83871293,-0.3976438,0.8190325
0.424,1.6583523,-0.35164338,-1.1812259,0.8401365,-0.3747158,0.83186585
0.426,1.7509083,-0.35989183,-1.2177753,0.8408673,-0.35211122,0.8429641
0.428,1.8358201,-0.36741003,-1.2535319,0.8405949,-0.33079588,0.85205007
0.43,1.912842,-0.37435827,-1.2892187,0.83909667,-0.31157696,0.8590077
0.432,1.9816402,-0.38102683,-1.3246863,0.8361532,-0.2951718,0.86376953
0.434,2.0415034,-0.38738066,-1.3595881,0.8313457,-0.28265607,0.86610967
0.436,2.0928242,-0.3935629,-1.3910534,0.8241794,-0.27479517,0.8657415
0.438,2.133666,-0.3984283,-1.4177316,0.81407404,-0.27217245,0.86256576
0.44,2.1648428,-0.40230596,-1.4384856,0.80053383,-0.27485874,0.8565358
0.442,2.1832318,-0.40358853,-1.4531105,0.7832055,-0.28243256,0.84736645
0.444,2.188766,-0.40191573,-1.4604312,0.7618528,-0.29416388,0.83475643
0.446,2.1813047,-0.39704838,-1.4600086,0.7364387,-0.30896157,0.81858826
0.448,2.1604552,-0.38919938,-1.4526589,0.7070746,-0.3255278,0.79886746
0.45,2.1255274,-0.37818772,-1.4390888,0.6739894,-0.34258682,0.7756329
0.452,2.0761464,-0.36390817,-1.4198272,0.6375574,-0.35895255,0.7489724
0.454,2.013468,-0.3472375,-1.3950834,0.5982704,-0.3735435,0.71899116
0.456,1.9382454,-0.328585,-1.3648705,0.5566755,-0.38551426,0.68578607
0.458,1.8516951,-0.30841795,-1.3314406,0.51337314,-0.3943121,0.6494778
0.46,1.7534857,-0.2853574,-1.2947131,0.46899027,-0.399701,0.6102431
0.462,1.6441597,-0.25908217,-1.2559541,0.42417872,-0.4016915,0.5683441
0.464,1.5278038,-0.23171851,-1.2163391,0.37959895,-0.40052852,0.524071
0.466,1.4070156,-0.20344913,-1.175676,0.33591092,-0.39655444,0.4777036
0.468,1.2819273,-0.1740118,-1.1346259,0.29374337,-0.39009374,0.42955905
0.47,1.1537801,-0.14456308,-1.0940301,0.25363344,-0.38151598,0.37997505
0.472,1.0254155,-0.117185205,-1.0546161,0.21601623,-0.37124163,0.32930544
0.474,0.8990621,-0.093208715,-1.0178406,0.1811634,-0.35968184,0.27798295
0.476,0.776141,-0.07294555,-0.9849036,0.14922829,-0.3472231,0.22654524
0.478,0.658537,-0.056252673,-0.9555125,0.120256126,-0.33419362,0.17566192
0.48,0.5484467,-0.043131486,-0.92873865,0.094198614,-0.32084423,0.12611169
0.482,0.44786814,-0.033686608,-0.9040744,0.070947565,-0.30733785,0.07874707
0.484,0.3578413,-0.027912624,-0.8806424,0.050396882,-0.2937198,0.034509778
0.486,0.27971756,-0.025986288,-0.8572195,0.032513224,-0.27988866,-0.005660097
0.488,0.2138967,-0.02784471,-0.832187,0.017329045,-0.2656241,-0.04087598
0.49,0.1603674,-0.032436803,-0.8042294,0.0049820915,-0.25065798,-0.07032853
0.492,0.119066544,-0.03892591,-0.77167773,-0.004321322,-0.23466255,-0.09329876
0.494,0.08958631,-0.046645597,-0.73334014,-0.010370195,-0.21734235,-0.10919271
0.496,0.07144173,-0.054730132,-0.68851286,-0.012975998,-0.19843514,-0.11757753
0.498,0.06287035,-0.0620162,-0.6364823,-0.012039326,-0.17779234,-0.11821656
0.5,0.06327281,-0.06765211,-0.5765994,-0.0075913295,-0.15534736,-0.11106816
0.502,0.071647644,-0.07080695,-0.50786453,0.00019596517,-0.13101733,-0.096287936
0.504,0.086249754,-0.07065044,-0.42984134,0.011061061,-0.104647756,-0.07424495
0.506,0.106056824,-0.066617936,-0.3423646,0.024672434,-0.07595175,-0.045541734
0.508,0.13003646,-0.05839222,-0.24579713,0.040661156,-0.04457357,-0.0110063385
0.51,0.15744048,-0.04589263,-0.14066407,0.05859225,-0.010138944,0.028310705
0.512,0.1871503,-0.02915781,-0.027594432,0.078000054,0.027681815,0.071187496
0.514,0.2190262,-0.008626409,0.09248845,0.0983673,0.06909041,0.11628363
0.516,0.25230232,0.015479855,0.21899347,0.119100764,0.11399594,0.16217402
0.518,0.2862696,0.04258114,0.35096222,0.13957825,0.16206823,0.20747057
0.52,0.32052425,0.07216968,0.48739102,0.15915602,0.2126645,0.25088608
0.522,0.35535374,0.103155494,0.6269167,0.17719513,0.26483303,0.29131693
0.524,0.39075854,0.13458273,0.76767313,0.19312704,0.31743497,0.32785934
0.526,0.4272802,0.16555445,0.90737516,0.20644894,0.36924756,0.35985062
0.528,0.46561372,0.19509369,1.0439994,0.21680626,0.41909805,0.3868795
0.53,0.5063761,0.22270949,1.1761569,0.22394805,0.46589056,0.4088162
0.532,0.54999423,0.24771617,1.302828,0.2277408,0.50872266,0.4257681
0.534,0.5968839,0.26966023,1.4231312,0.22818589,0.54698795,0.43801337
0.536,0.6476265,0.28779733,1.5357786,0.22537978,0.5803297,0.4459728
0.538,0.7031269,0.30173478,1.639822,0.21948281,0.6085548,0.45015964
0.54,0.7638059,0.3110754,1.7339125,0.2106696,0.63166,0.45114452
0.542,0.8297165,0.31591612,1.8165201,0.19911864,0.6498033,0.44951293
0.544,0.9004606,0.3165138,1.8865899,0.18498331,0.66329837,0.44582778
0.546,0.9748616,0.31341633,1.9431609,0.16840458,0.6725081,0.4406154
0.548,1.0533733,0.30653548,1.9858233,0.14952998,0.6778689,0.43434435
0.55,1.1367037,0.2959004,2.014177,0.12848571,0.6798944,0.427477
0.552,1.2218128,0.2835214,2.0292642,0.10536674,0.67917657,0.42045218
0.554,1.3054543,0.2713961,2.032829,0.080236375,0.67633307,0.41368166
0.556,1.3857908,0.2609138,2.025129,0.053124666,0.6719447,0.4075365
0.558,1.4605736,0.25386566,2.0063655,0.024001539,0.66652167,0.40237927
0.56,1.5271621,0.25174785,1.9776862,-0.007201344,0.6605416,0.39855477
0.562,1.5829363,0.25589758,1.9399846,-0.040531635,0.6544897,0.39634693
0.564,1.6250271,0.26776952,1.8941317,-0.07595137,0.6488457,0.39603466
0.566,1.6506846,0.28860223,1.8418556,-0.113340765,0.6440483,0.39784393
0.568,1.6576176,0.31964743,1.7851205,-0.15241674,0.64049876,0.40198922
0.57,1.6434743,0.36185944,1.7259896,-0.19273344,0.6385852,0.40865964
0.572,1.6063083,0.4160056,1.6663609,-0.2337021,0.6385695,0.417984
0.574,1.5452037,0.4820745,1.6078081,-0.27459282,0.6406226,0.4300124
0.576,1.4600282,0.55989194,1.5523322,-0.3145837,0.6448275,0.44469282
0.578,1.350843,0.6490685,1.5016994,-0.3528414,0.6512222,0.4619188
0.58,1.2183609,0.7490605,1.4569379,-0.38850585,0.6598527,0.48155326
0.582,1.0634487,0.8587543,1.4188956,-0.42084974,0.67062354,0.5033065
0.584,0.88801575,0.9763944,1.3881099,-0.44926912,0.6834656,0.5267929
0.586,0.6947078,1.0999172,1.3653984,-0.4733191,0.6984372,0.55169314
0.588,0.48608875,1.2272353,1.3518279,-0.49274993,0.7156619,0.5777302
0.59,0.26447424,1.356379,1.3483362,-0.507458,0.7354437,0.60457927
0.592,0.033132613,1.4850466,1.3556243,-0.5174488,0.75831604,0.6318475
0.594,-0.20353341,1.6107252,1.3736526,-0.52279747,0.78487456,0.65912277
0.596,-0.4413473,1.7310007,1.4013828,-0.5236286,0.81575143,0.6859892
0.598,-0.67594177,1.8436452,1.4372473,-0.520097,0.85161066,0.71203697
0.6,-0.90230227,1.94595,1.4800105,-0.51236564,0.8930296,0.73682123
0.602,-1.1135032,2.034603,1.5269756,-0.50060534,0.94038475,0.7599298
0.604,-1.3074217,2.1088557,1.5746012,-0.48498517,0.99377024,0.7810004
0.606,-1.4819183,2.1669984,1.622987,-0.46572235,1.0529298,0.79974484
0.608,-1.63361,2.2071242,1.6725777,-0.4431102,1.1172383,0.8159704
0.61,-1.7597823,2.2293115,1.7240244,-0.41756433,1.1857204,0.82961273
0.612,-1.8577285,2.233986,1.7766416,-0.38963696,1.2570812,0.8406922
0.614,-1.9249101,2.2204995,1.8285425,-0.35998952,1.3297629,0.84933615
0.616,-1.9605701,2.1886551,1.8762655,-0.32934946,1.4020813,0.85574204
0.618,-1.9644177,2.1384027,1.9174519,-0.29846662,1.4723103,0.860116
0.62,-1.9354278,2.0702045,1.9512838,-0.26806027,1.5388123,0.8626246
0.622,-1.8734173,1.985387,1.977318,-0.23880053,1.6001835,0.8633628
0.624,-1.7799163,1.8858557,1.995915,-0.21127254,1.6552352,0.86239326
0.626,-1.6567022,1.7729955,2.00741,-0.18594229,1.7030585,0.8597895
0.628,-1.5060759,1.6482532,2.0118968,-0.16319144,1.7430658,0.8557055
0.63,-1.3306227,1.5132082,2.0096982,-0.14334738,1.7748864,0.85040414
0.632,-1.1339515,1.3701282,2.0008626,-0.12675035,1.7981927,0.8443452
0.634,-0.9199362,1.2216282,1.9855677,-0.11374253,1.8129838,0.83802974
0.636,-0.6928424,1.0702686,1.9649806,-0.10472387,1.8196149,0.8319851
0.638,-0.45751473,0.91889,1.9404929,-0.10006052,1.8185952,0.8268586
0.64,-0.21852481,0.7700796,1.9132833,-0.099962115,1.8103888,0.8234547
0.642,0.01952079,0.62640446,1.8844159,-0.104572654,1.7956121,0.82252496
0.644,0.25197777,0.49051413,1.8552599,-0.114115655,1.7750437,0.8245499
0.646,0.47397745,0.36513287,1.8274782,-0.12890798,1.7494017,0.82973766
0.648,0.6812148,0.2529205,1.8022965,-0.14923751,1.719291,0.8381099
0.65,0.87026954,0.15606916,1.7800139,-0.17523962,1.6851571,0.8495476
0.652,1.0385158,0.07641584,1.760026,-0.20680183,1.647402,0.86375403
0.654,1.1841325,0.015096724,1.7413617,-0.24347085,1.6065991,0.8802831
0.656,1.306097,-0.02758187,1.7234918,-0.28441447,1.563659,0.8985502
0.658,1.402631,-0.050920606,1.7064173,-0.32835686,1.5198257,0.91797155
0.66,1.4727242,-0.055167973,1.6907482,-0.37362492,1.4765975,0.93810016
0.662,1.5193839,-0.042413354,1.6757383,-0.4182793,1.4355944,0.95863813
0.664,1.5466404,-0.015463054,1.659373,-0.46033114,1.3984408,0.97942305
0.666,1.5586357,0.023234487,1.6370624,-0.4979908,1.3666294,1.0003501
0.668,1.553659,0.07389188,1.6027578,-0.5298668,1.341445,1.0212961
0.67,1.5338414,0.13514078,1.5624859,-0.5551395,1.3239179,1.0420885
0.672,1.5044522,0.20187831,1.5360695,-0.57358545,1.3147931,1.062488
0.674,1.4660664,0.2724399,1.5255213,-0.5855434,1.3145317,1.0821689
0.676,1.4205916,0.3457396,1.520439,-0.59180635,1.3232977,1.100747
0.678,1.3700166,0.41976136,1.5110296,-0.5934723,1.3409925,1.1178162
0.68,1.3159206,0.49305898,1.4916247,-0.59181094,1.367198,1.1329901
0.682,1.2664007,0.5618423,1.4655627,-0.5880961,1.401069,1.1459525
0.684,1.2282293,0.62248224,1.4457672,-0.5835033,1.4414334,1.1564783
0.686,1.1955533,0.67801815,1.4314635,-0.5790398,1.4868789,1.1644645
0.688,1.1655836,0.7315165,1.4142826,-0.5755699,1.5356007,1.1700971
0.69,1.1442219,0.780022,1.3972347,-0.57367027,1.5857953,1.1738068
0.692,1.1317564,0.822189,1.3857756,-0.5737449,1.6358007,1.1759458
0.694,1.1214818,0.8606664,1.383102,-0.5761194,1.6842496,1.1767848
0.696,1.1112508,0.89685154,1.3937542,-0.5809596,1.7299211,1.1767375
0.698,1.1024467,0.93039024,1.4213833,-0.5883114,1.7716062,1.1760521
0.7,1.0933201,0.9626416,1.465459,-0.59842366,1.808075,1.1746162
0.702,1.0795928,0.9960659,1.5237086,-0.61204696,1.838712,1.1722908
0.704,1.0579729,1.0330918,1.5954249,-0.6298179,1.8642344,1.1687908
0.706,1.0260651,1.0761093,1.6801925,-0.65216494,1.8853179,1.1635866
0.708,0.98183584,1.1273618,1.7774432,-0.67960584,1.9018722,1.1561542
0.71,0.9231086,1.1890948,1.8863417,-0.7126988,1.91367,1.1462317
0.712,0.84687555,1.2635727,2.0061533,-0.75190717,1.9210299,1.1338999
0.714,0.75562394,1.3504894,2.1353688,-0.7974034,1.925463,1.1193591
0.716,0.65049964,1.4507146,2.2680016,-0.84841865,1.9297769,1.10241
0.718,0.5320504,1.564301,2.398596,-0.9030771,1.9364355,1.0827173
0.72,0.4006396,1.6893547,2.5230198,-0.95879084,1.9474092,1.0606762
0.722,0.25755715,1.8238876,2.6387491,-1.0124178,1.9649925,1.0372794
0.724,0.104629874,1.9671123,2.74468,-1.0603738,1.9909095,1.0133977
0.726,-0.055386186,2.1175857,2.8401759,-1.0990222,2.0255604,0.98981476
0.728,-0.21957898,2.2737079,2.923331,-1.125258,2.068271,0.9673455
0.73,-0.3858453,2.433163,2.9912782,-1.1370771,2.1173487,0.9464269
0.732,-0.55139244,2.5929742,3.0430014,-1.1339788,2.1698637,0.92695916
0.734,-0.71281564,2.7502146,3.0776746,-1.1171672,2.2220411,0.90841043
0.736,-0.8673142,2.902616,3.0958748,-1.0893817,2.2700267,0.88989246
0.738,-1.0126415,3.0485604,3.0994868,-1.0545033,2.3103576,0.87017936
0.74,-1.1469172,3.1864214,3.091651,-1.0169414,2.3404233,0.84784305
0.742,-1.2685516,3.3146558,3.0764728,-0.98093677,2.358821,0.82163703
0.744,-1.3761963,3.431763,3.058133,-0.9499497,2.365428,0.7907777
0.746,-1.469382,3.536703,3.0401688,-0.9262131,2.3613446,0.7550908
0.748,-1.5474368,3.628737,3.0256138,-0.9105169,2.348627,0.7150028
0.75,-1.6098298,3.7075253,3.017157,-0.9022385,2.3299344,0.67160136
0.752,-1.6562762,3.7731562,3.0169196,-0.89967525,2.3081508,0.6266257
0.754,-1.6864947,3.825969,3.0263686,-0.90046674,2.2859244,0.5819341
0.756,-1.7003865,3.8665257,3.046833,-0.9021704,2.2647867,0.5388721
0.758,-1.698092,3.895546,3.0793772,-0.90323615,2.2448559,0.49839416
0.76,-1.6797591,3.9141655,3.125031,-0.9029527,2.2262728,0.46113214
0.762,-1.6455003,3.9233694,3.1842875,-0.9010744,2.2094796,0.42701706
0.764,-1.595073,3.9244273,3.2560472,-0.8977794,2.1944025,0.39515308
0.766,-1.5284241,3.9188888,3.3378186,-0.8935972,2.1803484,0.36411452
0.768,-1.4455695,3.908169,3.4262962,-0.88924235,2.166188,0.33248565
0.77,-1.3464508,3.893459,3.5180962,-0.885768,2.1508749,0.29937372
0.772,-1.2311156,3.8757215,3.6102955,-0.88417566,2.1346524,0.2640088
0.774,-1.1005831,3.8563414,3.7010176,-0.8849715,2.11816,0.22528967
0.776,-0.9564123,3.8362517,3.7913156,-0.88836455,2.101247,0.1824179
0.778,-0.7942214,3.8135393,3.8815503,-0.8945141,2.0837688,0.13548505
0.78,-0.6141393,3.788218,3.960497,-0.9035511,2.0658212,0.085017085
0.782,-0.4191754,3.763298,4.0110836,-0.9155133,2.047153,0.031659514
0.784,-0.20746136,3.7376456,4.0385733,-0.9303184,2.0273316,-0.023683935
0.786,0.02004838,3.7102993,4.057169,-0.94776016,2.0062866,-0.08000195
0.788,0.26145983,3.681512,4.0755215,-0.9674777,1.9842144,-0.13640809
0.79,0.51494956,3.651597,4.0955973,-0.9889953,1.9613917,-0.19218573
0.792,0.7726265,3.623178,4.111246,-1.0117227,1.9383645,-0.24667737
0.794,1.0301938,3.5979748,4.1115246,-1.0349748,1.9159507,-0.29930252
0.796,1.2941355,3.5718997,4.1019387,-1.0580263,1.8951463,-0.34967178
0.798,1.5644878,3.5432708,4.092455,-1.0801748,1.8770417,-0.39754102
0.8,1.8325274,3.5165627,4.0804462,-1.1007785,1.8626817,-0.44273216
0.802,2.0962029,3.4939272,4.062367,-1.119324,1.8528895,-0.48511702
0.804,2.358439,3.4739623,4.038431,-1.1355059,1.8481749,-0.52469695
0.806,2.6155298,3.457375,4.0085263,-1.149262,1.8486738,-0.56154996
0.808,2.8616946,3.44602,3.9739106,-1.1607276,1.8542097,-0.5957655
0.81,3.0948172,3.439918,3.9391668,-1.1702275,1.8643465,-0.62743586
0.812,3.314292,3.4386587,3.908843,-1.1781936,1.8784966,-0.65665233
0.814,3.5174701,3.442441,3.8843656,-1.1851193,1.8959851,-0.68353426
0.816,3.7009196,3.4518886,3.8658712,-1.1914667,1.9160228,-0.708137
0.818,3.8617039,3.4678426,3.8532767,-1.19764,1.9378201,-0.7304569
0.82,3.9974024,3.4914374,3.8460712,-1.2039219,1.960696,-0.7504873
0.822,4.1056657,3.5243297,3.8444996,-1.2104366,1.9840817,-0.76822555
0.824,4.1843915,3.5676126,3.8484697,-1.2170805,2.0075586,-0.7836553
0.826,4.232368,3.6221342,3.857922,-1.2235501,2.0308301,-0.79672366
0.828,4.248693,3.688715,3.8727183,-1.2293637,2.0536768,-0.80734813
0.83,4.232491,3.7682886,3.8925269,-1.2339128,2.0759606,-0.81545734
0.832,4.183154,3.8611207,3.9170303,-1.2365556,2.0975912,-0.8210219
0.834,4.100959,3.967134,3.9465399,-1.2366738,2.1184468,-0.82407224
0.836,3.9867651,4.0858474,3.9820037,-1.2337451,2.1383793,-0.82473093
0.838,3.8416147,4.216252,4.0242834,-1.2273932,2.1572177,-0.8232862
0.84,3.6671715,4.3571863,4.073395,-1.2174265,2.1747441,-0.8202008
0.842,3.4658713,4.5068607,4.1287165,-1.2038255,2.190727,-0.8161026
0.844,3.2404685,4.663483,4.190038,-1.1867121,2.2049904,-0.8116989
0.846,2.9942188,4.825089,4.257261,-1.1663463,2.2173543,-0.8077465
0.848,2.7306056,4.9893694,4.3303633,-1.1430737,2.2276976,-0.8049666
0.85,2.4528682,5.1540513,4.4091506,-1.1172876,2.2359648,-0.80397797
0.852,2.1647406,5.31682,4.4936047,-1.0894246,2.2421832,-0.8053049
0.854,1.8698778,5.4753017,4.583618,-1.0599499,2.2464764,-0.80936575
0.856,1.5721653,5.6273685,4.6790905,-1.0293049,2.2490604,-0.8164161
0.858,1.2753158,5.7709923,4.7801056,-0.99792325,2.2501986,-0.8265275
0.86,0.98248386,5.9042964,4.886685,-0.966203,2.250186,-0.8396385
0.862,0.6967125,6.0258737,4.9988475,-0.93451047,2.2493696,-0.8556132
0.864,0.42082977,6.134318,5.11632,-0.9031638,2.2481344,-0.8742405
0.866,0.1573062,6.228566,5.238504,-0.87244606,2.24689,-0.8952906
0.868,-0.09208751,6.3079853,5.365057,-0.84257185,2.2461164,-0.91849303
0.87,-0.32599115,6.372425,5.495573,-0.8136939,2.246303,-0.94352293
0.872,-0.5439594,6.422283,5.629615,-0.7859255,2.2478962,-0.970008
0.874,-0.74573064,6.4585767,5.767185,-0.75933015,2.2512755,-0.9974824
0.876,-0.9314294,6.4826055,5.9080896,-0.73392123,2.2567692,-1.0254033
0.878,-1.1012647,6.4957275,6.0517807,-0.70967996,2.2646544,-1.0531919
0.88,-1.2558119,6.4996433,6.1972275,-0.6865167,2.2752037,-1.0802487
0.882,-1.3961587,6.496192,6.3435287,-0.66431195,2.2886846,-1.1059891
0.884,-1.5236928,6.487239,6.489534,-0.64289147,2.305367,-1.1298549
0.886,-1.6395862,6.4746614,6.634304,-0.6220149,2.3255217,-1.1513638
0.888,-1.7452469,6.460351,6.777059,-0.60136896,2.3494756,-1.1701369
0.89,-1.8417864,6.4461837,6.9169946,-0.5805752,2.3775702,-1.1859145
0.892,-1.9300005,6.433724,7.0533442,-0.5592241,2.410129,-1.1985763
0.894,-2.0105205,6.4240704,7.1851635,-0.5368773,2.4474216,-1.208171
0.896,-2.0832605,6.417933,7.3115687,-0.5131503,2.4896264,-1.2149307
0.898,-2.1481538,6.4158783,7.4312887,-0.4877274,2.536744,-1.2192729
0.9,-2.2049556,6.418005,7.543042,-0.4603667,2.5885804,-1.2217622
0.902,-2.2530956,6.4240403,7.646054,-0.4309493,2.6446977,-1.2230878
0.904,-2.2914915,6.4334936,7.7398458,-0.39948952,2.7043815,-1.2239778
0.906,-2.3188145,6.4457035,7.8238583,-0.3661088,2.7666583,-1.2251117
0.908,-2.333813,6.4596844,7.8975244,-0.3310149,2.8303823,-1.2270834
0.91,-2.3346078,6.474346,7.9607153,-0.29457057,2.894292,-1.2304037
0.912,-2.3193908,6.488157,8.013231,-0.25720668,2.9571338,-1.2354611
0.914,-2.286482,6.4996147,8.055107,-0.21941322,3.0177608,-1.2424681
0.916,-2.2342408,6.5070744,8.0863695,-0.18170065,3.075173,-1.2514606
0.918,-2.1616433,6.5094156,8.107143,-0.14457,3.128593,-1.2623193
0.92,-2.0676703,6.5056214,8.117704,-0.1084792,3.1774917,-1.2747962
0.922,-1.9516215,6.4949136,8.118468,-0.073833406,3.2215333,-1.2885661
0.924,-1.8131065,6.4766836,8.110088,-0.040937304,3.2606237,-1.3032615
0.926,-1.6517758,6.450632,8.0930805,-0.009983897,3.2948995,-1.3184721
0.928,-1.4679344,6.416577,8.067577,0.018930733,3.3246336,-1.3338168
0.93,-1.2625852,6.3747416,8.034058,0.04580325,3.3502188,-1.3489203
0.932,-1.0371373,6.32552,7.992941,0.07070023,3.3721018,-1.3634202
0.934,-0.79368377,6.270019,7.945057,0.093740284,3.3907743,-1.3769904
0.936,-0.53450704,6.20965,7.8911686,0.11510676,3.4067516,-1.3893327
0.938,-0.26205254,6.1458764,7.831743,0.13498664,3.4205425,-1.4001979
0.94,0.021151543,6.080103,7.7671723,0.15359592,3.432643,-1.4093944
0.942,0.31239033,6.013953,7.697882,0.17114848,3.4434795,-1.4168061
0.944,0.6086662,5.9488335,7.624282,0.18785465,3.4533942,-1.4223628
0.946,0.9067999,5.8862476,7.54677,0.20392442,3.4626331,-1.426059
0.948,1.2040465,5.827485,7.465796,0.21952814,3.471334,-1.427967
0.95,1.4976687,5.773805,7.382419,0.23484695,3.4795098,-1.4282234
0.952,1.7850947,5.726291,7.2974873,0.25003392,3.4870658,-1.4270109
0.954,2.063966,5.685582,7.2117825,0.2652016,3.493818,-1.4245516
0.956,2.3323345,5.6521816,7.125968,0.28042537,3.4994926,-1.4211078
0.958,2.5887418,5.6262655,7.040727,0.2957431,3.503788,-1.4169428
0.96,2.831912,5.607827,6.9565935,0.31116274,3.506396,-1.4123181
0.962,3.0610456,5.5965967,6.874109,0.32663172,3.507008,-1.4074867
0.964,3.2754526,5.5922947,6.7938676,0.34210238,3.5054238,-1.4027203
0.966,3.4751313,5.5942173,6.7165103,0.3575051,3.5015378,-1.3982619
0.968,3.660093,5.601508,6.642333,0.37276188,3.4953544,-1.3943257
0.97,3.8309731,5.613148,6.571471,0.38778618,3.486999,-1.3910686
0.972,3.9883556,5.62811,6.50394,0.40249693,3.4767127,-1.3886008
0.974,4.1330614,5.6453414,6.439437,0.4167922,3.4648135,-1.386958
0.976,4.2663274,5.663803,6.3774533,0.4305876,3.4516969,-1.3861116
0.978,4.3898025,5.6822467,6.3173075,0.4438029,3.437767,-1.3860006
0.98,4.504872,5.699559,6.25826,0.4563723,3.4233944,-1.3865349
0.982,4.6133294,5.714848,6.199416,0.46826637,3.4088962,-1.3875755
0.984,4.7165537,5.727018,6.1397414,0.47946936,3.394452,-1.388984
0.986,4.8160033,5.735365,6.078104,0.48998356,3.3801372,-1.3906157
0.988,4.912804,5.7394595,6.013574,0.4998143,3.365845,-1.3923491
0.99,5.0076895,5.7392507,5.945359,0.50894725,3.3513412,-1.3940854
0.992,5.101369,5.7347193,5.8718414,0.5173626,3.3362465,-1.3957409
0.994,5.195792,5.7255697,5.792959,0.52501935,3.3200889,-1.3972819
0.996,5.2909174,5.712206,5.71101,0.53185844,3.3023505,-1.3986918
0.998,5.3859916,5.69586,5.623822,0.53783095,3.282547,-1.4000294
1,5.481759,5.6772337,5.5273232,0.5429065,3.2602434,-1.4013487
1.002,5.5784245,5.6567745,5.421307,0.54707146,3.2350645,-1.4027367
1.004,5.6747684,5.6351943,5.307769,0.55030787,3.2066836,-1.4042851
1.006,5.7702427,5.6131225,5.187391,0.5526118,3.174858,-1.4061005
1.008,5.864722,5.5914917,5.060838,0.55400485,3.1394234,-1.4082731
1.01,5.9571457,5.571362,4.9287214,0.5545121,3.1003132,-1.410848
1.012,6.046752,5.553415,4.790371,0.55420315,3.0576153,-1.4138501
1.014,6.1327085,5.5382743,4.6457443,0.55317694,3.011568,-1.4172559
1.016,6.214059,5.526521,4.4961176,0.55160695,2.9626026,-1.4209719
1.018,6.2899218,5.5185738,4.343148,0.5497215,2.9112911,-1.4248338
1.02,6.3595448,5.5143886,4.187872,0.5478223,2.858364,-1.4286445
1.022,6.422579,5.513861,4.031547,0.5462568,2.8046522,-1.4321897
1.024,6.478314,5.516728,3.8750706,0.54532385,2.7508829,-1.4352216
1.026,6.5261908,5.522885,3.719387,0.5452694,2.6977901,-1.4375541
1.028,6.5659566,5.5316563,3.5656242,0.54640204,2.6462145,-1.4390864
1.03,6.5973744,5.542424,3.4151247,0.54899126,2.59659,-1.4397509
1.032,6.6205144,5.5544453,3.2689633,0.5531136,2.5489342,-1.439538
1.034,6.6357307,5.5669427,3.128245,0.55867755,2.5031846,-1.4385151
1.036,6.6432667,5.5789547,2.9940434,0.56553286,2.459254,-1.4367442
1.038,6.6436496,5.5899634,2.867295,0.57353634,2.41691,-1.4342825
1.04,6.6376896,5.599176,2.7486696,0.58256155,2.375887,-1.4312892
1.042,6.625958,5.6059136,2.638624,0.59248686,2.3359303,-1.4279433
1.044,6.609453,5.6096497,2.537629,0.6032123,2.2967048,-1.4243724
1.046,6.5891767,5.6100245,2.4461029,0.6146836,2.2579384,-1.4206502
1.048,6.565942,5.6068482,2.3644104,0.6268895,2.219461,-1.4168291
1.05,6.540619,5.600132,2.2926316,0.6398405,2.181166,-1.4129622
1.052,6.5141196,5.5899496,2.2306879,0.6535317,2.142955,-1.4090855
1.054,6.487284,5.5765176,2.1782613,0.6679463,2.1047873,-1.4052081
1.056,6.460969,5.560114,2.134952,0.6830751,2.0666761,-1.4013153
1.058,6.4358277,5.54129,2.1001472,0.6988866,2.028639,-1.3974073
1.06,6.412587,5.5206385,2.0733705,0.7153092,1.9906728,-1.3935091
1.062,6.391849,5.4988084,2.0538957,0.7322446,1.9527442,-1.3896807
1.064,6.3741894,5.476453,2.0407906,0.7495632,1.9147937,-1.38605
1.066,6.359981,5.454077,2.0330462,0.76711947,1.8767183,-1.3827977
1.068,6.349332,5.432256,2.0299442,0.7847924,1.8384237,-1.3801229
1.07,6.342526,5.4115176,2.0308075,0.80247116,1.7998414,-1.3782711
1.072,6.33944,5.39226,2.034894,0.8200798,1.7609701,-1.3774492
1.074,6.3401213,5.3748417,2.0414405,0.83759075,1.721889,-1.377825
1.076,6.3443923,5.359453,2.0493839,0.8550351,1.6827418,-1.3794937
1.078,6.3520074,5.3461876,2.0577493,0.8725587,1.6438131,-1.3824668
1.08,6.3627324,5.3350754,2.0655496,0.8903288,1.6053063,-1.3866062
1.082,6.3761826,5.3260098,2.072131,0.9084266,1.5672766,-1.391673
1.084,6.39181,5.318884,2.0771956,0.92693645,1.5299938,-1.3974065
1.086,6.4088926,5.313546,2.0807033,0.9460325,1.4936779,-1.403518
1.088,6.42691,5.3097982,2.0825229,0.96583456,1.4581833,-1.4097311
1.09,6.4450026,5.3073277,2.0824122,0.98630095,1.4231718,-1.4158354
1.092,6.462604,5.3057013,2.0799713,1.0072478,1.3883257,-1.4216945
1.094,6.479031,5.30472,2.0750833,1.0284315,1.3532938,-1.4271473
1.096,6.4935837,5.304001,2.0680184,1.0496073,1.3177407,-1.4321051
1.098,6.505572,5.303519,2.0589428,1.07055,1.2814901,-1.4365798
1.1,6.514738,5.3029685,2.0482183,1.091078,1.2444377,-1.4405923
1.102,6.5206165,5.3022623,2.036526,1.1110824,1.2065713,-1.4441026
1.104,6.5216646,5.3019066,2.0233815,1.1305561,1.1680644,-1.4470298
1.106,6.5181828,5.301739,2.0068932,1.1496127,1.1292588,-1.4492724
1.108,6.5109143,5.301078,1.9899256,1.1684477,1.0906154,-1.4507214
1.11,6.498811,5.3001795,1.9761133,1.1873268,1.0526689,-1.4512308
1.112,6.4813266,5.2997413,1.9646828,1.2065821,1.0159912,-1.4506531
1.114,6.4595194,5.300061,1.9538438,1.226574,0.98112786,-1.4488623
1.116,6.433143,5.3016205,1.9438758,1.2476559,0.9485551,-1.4457968
1.118,6.4020634,5.304451,1.9354897,1.2701421,0.9186552,-1.4414468
1.12,6.367001,5.308608,1.9294903,1.294263,0.8916781,-1.4358877
1.122,6.328412,5.314372,1.9276389,1.320156,0.8677259,-1.4292936
1.124,6.2868376,5.322071,1.9307792,1.3478925,0.84673786,-1.4218909
1.126,6.2431016,5.331544,1.9383688,1.3774464,0.8284814,-1.4139848
1.128,6.198261,5.342828,1.9501002,1.4087224,0.812586,-1.4059398
1.13,6.1529875,5.355962,1.9661398,1.4415615,0.7985886,-1.3981771
1.132,6.108085,5.3709145,1.9866233,1.4757413,0.78593284,-1.3911493
1.134,6.0645857,5.3875966,2.0118797,1.5110319,0.77402353,-1.385283
1.136,6.0235877,5.4055614,2.0422225,1.5471987,0.76229256,-1.3809686
1.138,5.9862084,5.424513,2.0774536,1.5840377,0.750222,-1.3785352
1.14,5.9537306,5.444042,2.117006,1.6213751,0.7373756,-1.3782256
1.142,5.9269776,5.463537,2.1602743,1.6590904,0.7233944,-1.3801421
1.144,5.906904,5.4825697,2.2067502,1.6971203,0.7079812,-1.3842843
1.146,5.894426,5.500663,2.2558062,1.7354698,0.6909307,-1.3905334
1.148,5.890608,5.5169606,2.3069324,1.7741717,0.6720947,-1.3986927
1.15,5.8959646,5.5311527,2.3595212,1.8132781,0.65139717,-1.4085175
1.152,5.91129,5.54276,2.4129853,1.8528302,0.6287515,-1.4197598
1.154,5.936976,5.5512443,2.4665172,1.8928494,0.6040889,-1.4321601
1.156,5.9733396,5.5561395,2.5188653,1.9333216,0.57737887,-1.4454614
1.158,6.020799,5.5570965,2.5687494,1.9742141,0.5486109,-1.4594239
1.16,6.079572,5.5538626,2.6148996,2.0154583,0.5178419,-1.4738214
1.162,6.1494107,5.5464187,2.656189,2.056989,0.4851392,-1.4884416
1.164,6.229938,5.5348015,2.6916194,2.098728,0.4506278,-1.5030677
1.166,6.3208327,5.519215,2.720104,2.1406226,0.41447133,-1.5174916
1.168,6.4213767,5.499805,2.7406802,2.1826413,0.37685937,-1.5314758
1.17,6.5306916,5.4770355,2.7520614,2.224775,0.3380128,-1.544757
1.172,6.6480293,5.4512405,2.7533474,2.267056,0.2981586,-1.5570526
1.174,6.772285,5.423093,2.7439375,2.309557,0.25752705,-1.5680293
1.176,6.9025617,5.393374,2.723359,2.3523889,0.21633244,-1.577354
1.178,7.037687,5.3627744,2.6910744,2.3956811,0.17479342,-1.5847273
1.18,7.176353,5.332201,2.6465294,2.439621,0.13314706,-1.589871
1.182,7.317727,5.302353,2.5892968,2.4843984,0.09160566,-1.592545
1.184,7.460798,5.273924,2.5193806,2.5302348,0.05036497,-1.5925859
1.186,7.6043687,5.24788,2.4372823,2.5773256,0.0096206665,-1.5899552
1.188,7.7476816,5.2250414,2.3438482,2.6258318,-0.030463338,-1.5847557
1.19,7.8897705,5.206221,2.240042,2.675879,-0.069741845,-1.577183
1.192,8.030105,5.1919184,2.1267416,2.72753,-0.10804355,-1.5675217
1.194,8.168146,5.1824665,2.005013,2.7807982,-0.14518297,-1.5561306
1.196,8.303341,5.178315,1.8759301,2.8356571,-0.18095684,-1.5434219
1.198,8.435061,5.1797523,1.7408204,2.8920105,-0.21514547,-1.5298319
1.2,8.5632105,5.1869116,1.6013312,2.9497356,-0.24753976,-1.5157782
1.202,8.687527,5.199933,1.458996,3.0087068,-0.2779596,-1.5016563
1.204,8.807663,5.218835,1.3153166,3.0687652,-0.30626845,-1.4878088
1.206,8.923524,5.24363,1.1711773,3.1297593,-0.33235776,-1.4745274
1.208,9.035036,5.2740493,1.0278683,3.191533,-0.35620594,-1.4620821
1.21,9.142052,5.30995,0.88650405,3.2539346,-0.37787902,-1.4506981
1.212,9.244334,5.3511167,0.747928,3.3168085,-0.39748895,-1.4405636
1.214,9.341905,5.397314,0.6127458,3.380024,-0.41521418,-1.4318023
1.216,9.434911,5.4483213,0.4812311,3.443465,-0.4312861,-1.4244826
1.218,9.523293,5.5041656,0.3535596,3.507078,-0.44597614,-1.4186083
1.22,9.606988,5.564747,0.22962022,3.570857,-0.45959163,-1.414113
1.222,9.686189,5.6299,0.10904527,3.6348517,-0.47249508,-1.4109044
1.224,9.760971,5.69971,-0.009002745,3.6991775,-0.4850756,-1.4088259
1.226,9.831711,5.7740135,-0.12577194,3.763996,-0.4977405,-1.4077027
1.228,9.8986435,5.852995,-0.24236512,3.8295147,-0.51094425,-1.407356
1.23,9.962019,5.936874,-0.35992092,3.8959322,-0.5252068,-1.4075999
1.232,10.02236,6.0258255,-0.4800682,3.9634626,-0.54113495,-1.4082466
1.234,10.080405,6.120016,-0.6045021,4.0322576,-0.559425,-1.4091479
1.236,10.137806,6.2195697,-0.7336512,4.1024604,-0.5808574,-1.4101881
1.238,10.194188,6.3254843,-0.8675705,4.1741447,-0.6062808,-1.4112837
1.24,10.248098,6.440279,-1.010521,4.2473574,-0.63658834,-1.4123845
1.242,10.30181,6.564366,-1.1655465,4.322122,-0.6727041,-1.4134649
1.244,10.357245,6.696787,-1.3330615,4.398402,-0.7156346,-1.414548
1.246,10.416042,6.8372564,-1.5116923,4.4761314,-0.76643145,-1.4156604
1.248,10.479294,6.986045,-1.6991322,4.555212,-0.8262044,-1.416836
1.25,10.548062,7.143691,-1.8935571,4.635522,-0.89608335,-1.4181511
1.252,10.626292,7.3098574,-2.0928173,4.716909,-0.97717106,-1.419703
1.254,10.714973,7.485736,-2.2965834,4.799202,-1.070537,-1.4216375
1.256,10.811172,7.6749,-2.506008,4.8821907,-1.1771424,-1.4241202
1.258,10.915061,7.8784614,-2.716801,4.965664,-1.2978146,-1.4273405
1.26,11.03014,8.094906,-2.9279225,5.049389,-1.433191,-1.4315029
1.262,11.158937,8.323493,-3.1377177,5.1331377,-1.5836085,-1.436811
1.264,11.301279,8.56407,-3.3377721,5.216673,-1.7491235,-1.443444
1.266,11.460053,8.814648,-3.520041,5.299752,-1.929523,-1.4515638
1.268,11.636323,9.075606,-3.6858156,5.3821187,-2.1242518,-1.4613398
1.27,11.831875,9.346664,-3.8340867,5.4635377,-2.3325276,-1.472945
1.272,12.045982,9.627716,-3.9599414,5.543868,-2.5534546,-1.4864864
1.274,12.277468,9.918739,-4.0589743,5.6229506,-2.7859006,-1.5020021
1.276,12.528868,10.21837,-4.126303,5.700569,-3.0285172,-1.5194764
1.278,12.799964,10.5252075,-4.157655,5.7765846,-3.279664,-1.538873
1.28,13.090846,10.837386,-4.149921,5.850897,-3.5375357,-1.5601679
1.282,13.401361,11.152838,-4.100182,5.9235153,-3.8001637,-1.5833447
1.284,13.731582,11.467882,-4.006293,5.9946084,-4.065201,-1.6083307
1.286,14.081286,11.778898,-3.8689268,6.064296,-4.3305907,-1.6350869
1.288,14.449804,12.082762,-3.6906743,6.132901,-4.5942235,-1.6634578
1.29,14.835914,12.376606,-3.4740245,6.200946,-4.8533754,-1.6929736
1.292,15.238649,12.657911,-3.2234023,6.269046,-5.105296,-1.7230479
1.294,15.655503,12.926142,-2.947492,6.337885,-5.347199,-1.7531692
1.296,16.08157,13.180826,-2.6499207,6.408453,-5.5755777,-1.7827139
1.298,16.514256,13.419569,-2.3333144,6.4819403,-5.786863,-1.811104
1.3,16.95189,13.639902,-2.001074,6.5595503,-5.9783564,-1.8380204
1.302,17.389778,13.840296,-1.6567091,6.642509,-6.1478333,-1.8633068
1.304,17.82253,14.020749,-1.3059771,6.731964,-6.2935095,-1.8868637
1.306,18.245565,14.180746,-0.954725,6.829015,-6.414071,-1.9085736
1.308,18.653004,14.319916,-0.6081511,6.934684,-6.508477,-1.9282684
1.31,19.038002,14.438644,-0.27158812,7.0498385,-6.5757394,-1.9458814
1.312,19.393097,14.538352,0.050902635,7.1750736,-6.614867,-1.9614642
1.314,19.71098,14.621244,0.35716859,7.3105392,-6.6247745,-1.9751363
1.316,19.983948,14.690124,0.64635265,7.455831,-6.604238,-1.9869821
1.318,20.204704,14.748791,0.9172588,7.6099405,-6.552144,-1.9970466
1.32,20.366283,14.801582,1.1692116,7.771344,-6.467641,-2.005342
1.322,20.46263,14.85315,1.4025548,7.938221,-6.35011,-2.0117612
1.324,20.488094,14.908619,1.618187,8.10848,-6.19965,-2.0162106
1.326,20.438223,14.973167,1.8176532,8.279825,-6.017451,-2.0186641
1.328,20.309593,15.052296,2.0032063,8.450346,-5.805066,-2.0188236
1.33,20.1005,15.151335,2.1779094,8.61845,-5.56483,-2.0161371
1.332,19.810356,15.275577,2.3448558,8.782893,-5.3000054,-2.0098581
1.334,19.440384,15.429933,2.5076005,8.942909,-5.0144997,-1.9991479
1.336,18.993126,15.618973,2.6699812,9.098019,-4.7131424,-1.9833506
1.338,18.473038,15.846489,2.835507,9.247884,-4.4017506,-1.9621115
1.34,17.886162,16.115223,3.0077055,9.392239,-4.0865593,-1.9353917
1.342,17.239716,16.427309,3.1901798,9.5306,-3.7746582,-1.9037316
1.344,16.541985,16.783787,3.3861585,9.662263,-3.4739616,-1.8683741
1.346,15.801918,17.184647,3.5975728,9.7865,-3.191928,-1.8309345
1.348,15.030741,17.62811,3.8260355,9.902549,-2.9352198,-1.7932949
1.35,14.240687,18.110643,4.076713,10.009556,-2.7097642,-1.7576922
1.352,13.439968,18.630207,4.3520727,10.106901,-2.519521,-1.7263647
1.354,12.637888,19.184658,4.651342,10.1944,-2.3659215,-1.70127
1.356,11.844693,19.769388,4.9725823,10.272172,-2.2487826,-1.684083
1.358,11.07029,20.378738,5.314081,10.340654,-2.1666007,-1.6761162
1.36,10.323162,21.006908,5.675411,10.400458,-2.1167567,-1.6782024
1.362,9.609371,21.648174,6.055611,10.452236,-2.0960577,-1.690619
1.364,8.936879,22.295208,6.4549565,10.496645,-2.1011431,-1.7130475
1.366,8.314823,22.939472,6.874347,10.534346,-2.1286616,-1.7447004
1.368,7.7465897,23.576122,7.309137,10.565987,-2.1755211,-1.784631
1.37,7.232063,24.202492,7.758203,10.592173,-2.23901,-1.8319497
1.372,6.771696,24.814837,8.219332,10.613451,-2.3166857,-1.8858862
1.374,6.368037,25.409122,8.685179,10.630208,-2.4064245,-1.9458442
1.376,6.0190687,25.983208,9.151156,10.642632,-2.5065818,-2.0114625
1.378,5.7246504,26.532928,9.62148,10.650888,-2.6155226,-2.0825145
1.38,5.4827986,27.05579,10.096048,10.655141,-2.73157,-2.1589208
1.382,5.293349,27.549688,10.570824,10.655331,-2.8538375,-2.240921
1.384,5.1549873,28.01347,11.042963,10.651438,-2.9814262,-2.3289084
1.386,5.0622835,28.447624,11.509906,10.643376,-3.1133783,-2.4232554
1.388,5.0125346,28.8532,11.970472,10.630951,-3.2488544,-2.524192
1.39,5.0026035,29.231503,12.425322,10.614,-3.3869412,-2.63182
1.392,5.0290413,29.583946,12.874807,10.592405,-3.5267372,-2.7462256
1.394,5.088107,29.913176,13.320169,10.566101,-3.6674337,-2.8674438
1.396,5.1762943,30.221218,13.764185,10.534997,-3.8082304,-2.9954069
1.398,5.289095,30.51122,14.211489,10.498978,-3.9483452,-3.129987
1.4,5.426077,30.780834,14.663811,10.457897,-4.087196,-3.2710195
1.402,5.581434,31.032545,15.1227,10.4116,-4.224278,-3.418277
1.404,5.7524834,31.266726,15.593813,10.359947,-4.3591514,-3.5715058
1.406,5.9410906,31.481354,16.07536,10.302813,-4.49142,-3.7304382
1.408,6.140684,31.680477,16.562689,10.240076,-4.620812,-3.8948119
1.41,6.3463397,31.866493,17.058235,10.171623,-4.7471285,-4.0643177
1.412,6.558204,32.040134,17.560938,10.097372,-4.870198,-4.2386208
1.414,6.7739096,32.20198,18.073114,10.017244,-4.9899335,-4.4173365
1.416,6.9910088,32.35267,18.596851,9.931196,-5.106269,-4.600025
1.418,7.2084017,32.49299,19.13258,9.839239,-5.219185,-4.7861605
1.42,7.4254894,32.623127,19.680584,9.741409,-5.3286667,-4.9752083
1.422,7.6419587,32.74245,20.239796,9.637773,-5.4347544,-5.166582
1.424,7.857751,32.850304,20.80758,9.528414,-5.537498,-5.3596287
1.426,8.073141,32.945557,21.381027,9.4134035,-5.6370497,-5.553753
1.428,8.288625,33.02712,21.957832,9.292841,-5.7335196,-5.748439
1.43,8.505173,33.093746,22.535769,9.166871,-5.8267255,-5.9430456
1.432,8.724238,33.14429,23.112,9.035565,-5.91695,-6.1370673
1.434,8.947504,33.177444,23.683355,8.899082,-6.004271,-6.3301015
1.436,9.176781,33.19212,24.246357,8.757591,-6.0884314,-6.5216866
1.438,9.414353,33.18712,24.796867,8.61107,-6.1698766,-6.7114706
1.44,9.662822,33.161343,25.330376,8.45968,-6.2484913,-6.8991203
1.442,9.925016,33.113605,25.843004,8.303598,-6.3239446,-7.084255
1.444,10.203664,33.042854,26.330822,8.142952,-6.3960514,-7.2664423
1.446,10.501575,32.94793,26.790041,7.97793,-6.4644556,-7.445232
1.448,10.821255,32.82779,27.217152,7.8087244,-6.5287256,-7.6201234
1.45,11.165047,32.681805,27.60902,7.635502,-6.588469,-7.790594
1.452,11.534887,32.509136,27.962961,7.458393,-6.6433673,-7.9561176
1.454,11.932791,32.309063,28.27673,7.2774744,-6.6931734,-8.1161785
1.456,12.360051,32.080925,28.548607,7.0927386,-6.7377944,-8.270336
1.458,12.817871,31.823847,28.777687,6.904095,-6.7772207,-8.418241
1.46,13.306897,31.537151,28.963314,6.711395,-6.8115406,-8.559612
1.462,13.827361,31.22013,29.105474,6.5144444,-6.840883,-8.694283
1.464,14.378891,30.872116,29.204561,6.3130417,-6.8653255,-8.822193
1.466,14.959679,30.492893,29.2614,6.1069922,-6.884928,-8.943349
1.468,15.568368,30.081913,29.277082,5.8961744,-6.899697,-9.057809
1.47,16.203392,29.638397,29.25297,5.680534,-6.9095798,-9.16566
1.472,16.862053,29.162014,29.191032,5.460133,-6.914485,-9.267018
1.474,17.541456,28.652328,29.093353,5.2351217,-6.9142957,-9.361948
1.476,18.238533,28.10894,28.96205,5.005818,-6.908927,-9.450525
1.478,18.950035,27.531284,28.799236,4.77264,-6.8982973,-9.532773
1.48,19.672241,26.919048,28.607208,4.536145,-6.8823223,-9.608619
1.482,20.401424,26.272095,28.38858,4.29697,-6.8610363,-9.677882
1.484,21.13322,25.590286,28.145649,4.055808,-6.8346624,-9.740432
1.486,21.863667,24.873615,27.88045,3.8134909,-6.803,-9.795937
1.488,22.588043,24.12225,27.594908,3.5708647,-6.766119,-9.843939
1.49,23.30183,23.336773,27.290806,3.3287897,-6.7242174,-9.884006
1.492,24.000446,22.518066,26.969866,3.0883162,-6.676875,-9.915594
1.494,24.67924,21.6672,26.63368,2.850217,-6.624312,-9.938181
1.496,25.333454,20.785616,26.284008,2.6152937,-6.566675,-9.951292
1.498,25.958546,19.874916,25.92221,2.3843298,-6.503795,-9.954401
1.5,26.549614,18.937311,25.549246,2.1579556,-6.4356008,-9.946972
1.502,27.101809,17.975693,25.166008,1.9367285,-6.3618975,-9.9285
1.504,27.610657,16.992987,24.773249,1.7211437,-6.282399,-9.898418
1.506,28.071825,15.992456,24.372246,1.5116432,-6.196688,-9.856033
1.508,28.482262,14.976549,23.96321,1.308656,-6.1042585,-9.800564
1.51,28.835846,13.952763,23.548002,1.112639,-6.004517,-9.731126
1.512,29.131626,12.923632,23.128946,0.92404556,-5.8968334,-9.646794
1.514,29.367311,11.893154,22.706036,0.7434089,-5.7804966,-9.546648
1.516,29.538828,10.868256,22.280449,0.5713327,-5.654751,-9.429863
1.518,29.648195,9.852121,21.855358,0.40850854,-5.518832,-9.295754
1.52,29.695608,8.849747,21.429058,0.2557099,-5.3719816,-9.1439
1.522,29.680618,7.8663273,21.004139,0.11381221,-5.2134256,-8.974174
1.524,29.606531,6.906063,20.581593,-0.016269684,-5.0424128,-8.786778
1.526,29.476543,5.9734974,20.162237,-0.13360238,-4.858245,-8.582308
1.528,29.294512,5.072485,19.747238,-0.23728919,-4.66025,-8.361687
1.53,29.065514,4.2064886,19.337534,-0.32654214,-4.4478416,-8.126191
1.532,28.79511,3.378458,18.934048,-0.40071893,-4.2205696,-7.8773885
1.534,28.48957,2.590643,18.537193,-0.45939088,-3.9781713,-7.6170707
1.536,28.155289,1.8450279,18.147419,-0.50239205,-3.7206259,-7.347124
1.538,27.798862,1.142477,17.764791,-0.5298755,-3.448235,-7.0694823
1.54,27.426712,0.48365498,17.388693,-0.54230356,-3.1616666,-6.7860713
1.542,27.045086,-0.13150406,17.018442,-0.5404453,-2.8619409,-6.4987483
1.544,26.65981,-0.7035618,16.653465,-0.52537274,-2.5504324,-6.209196
1.546,26.276073,-1.2336168,16.29282,-0.4984219,-2.228836,-5.9189057
1.548,25.898367,-1.7231846,15.935981,-0.46111488,-1.899142,-5.62918
1.55,25.529873,-2.174181,15.582487,-0.41510618,-1.5634923,-5.341158
1.552,25.172813,-2.5885477,15.231498,-0.36213917,-1.2241358,-5.0557756
1.554,24.828375,-2.96836,14.882397,-0.30394518,-0.8833546,-4.773815
1.556,24.496628,-3.315733,14.534672,-0.2421838,-0.54336774,-4.4959254
1.558,24.176632,-3.6328087,14.188057,-0.178398,-0.2063367,-4.2226744
1.56,23.866573,-3.9216385,13.842565,-0.11397067,0.12568696,-3.9545455
1.562,23.563845,-4.1842384,13.498503,-0.0500917,0.45078757,-3.6919532
1.564,23.264645,-4.422345,13.156763,0.01225692,0.76720524,-3.435271
1.566,22.965048,-4.6372547,12.818325,0.07230762,1.0732863,-3.184853
1.568,22.660767,-4.8304415,12.484253,0.12942708,1.367501,-2.9410317
1.57,22.347229,-5.0030966,12.155984,0.18315643,1.6484323,-2.7041028
1.572,22.02013,-5.156356,11.834954,0.23316038,1.9148488,-2.4743834
1.574,21.675308,-5.2910414,11.522965,0.2792154,2.1656904,-2.2522113
1.576,21.309185,-5.4078984,11.221825,0.32116854,2.4000819,-2.0379455
1.578,20.918179,-5.507654,10.933435,0.35896325,2.617342,-1.8319592
1.58,20.499485,-5.5910707,10.659714,0.3926028,2.81699,-1.6346107
1.582,20.050915,-5.6585994,10.402148,0.42213428,2.998693,-1.4462638
1.584,19.570848,-5.710647,10.162406,0.4476179,3.1622982,-1.2672697
1.586,19.058455,-5.747529,9.941657,0.46912146,3.307776,-1.0979472
1.588,18.51342,-5.7698116,9.741085,0.48670173,3.4351797,-0.93862593
1.59,17.936195,-5.777893,9.561616,0.5003866,3.5446672,-0.7895986
1.592,17.32794,-5.772215,9.403703,0.51020944,3.6364858,-0.65109617
1.594,16.690193,-5.7531576,9.267735,0.5161853,3.7109542,-0.5232926
1.596,16.025066,-5.721276,9.15417,0.51830053,3.7685223,-0.40630883
1.598,15.3350315,-5.677029,9.062976,0.5165843,3.8097908,-0.30021045
1.6,14.622824,-5.621056,8.99405,0.5110731,3.8355253,-0.20499907
1.602,13.891284,-5.553788,8.947339,0.5018195,3.846675,-0.12061001
1.604,13.143281,-5.475534,8.92279,0.48888397,3.8443036,-0.046903223
1.606,12.38186,-5.386633,8.919726,0.4723611,3.8296118,0.01629728
1.608,11.610096,-5.2873497,8.9374075,0.4523288,3.803918,0.06922507
1.61,10.830455,-5.1778708,8.974944,0.428877,3.7685964,0.11219704
1.612,10.045692,-5.058486,9.031704,0.40208626,3.725062,0.14555341
1.614,9.259143,-4.9294543,9.107637,0.3720411,3.6747131,0.1696854
1.616,8.472581,-4.7912016,9.201005,0.33882225,3.618918,0.18504143
1.618,7.6878114,-4.6438856,9.31084,0.3025304,3.5589786,0.19214734
1.62,6.9061966,-4.487661,9.436351,0.2632779,3.4961293,0.19157472
1.622,6.1301265,-4.322757,9.575644,0.22120893,3.4314852,0.18390897
1.624,5.3606005,-4.149124,9.727452,0.17644572,3.3660588,0.16973507
1.626,4.599158,-3.966762,9.890122,0.1291138,3.3007517,0.14963928
1.628,3.8471255,-3.7759187,10.061887,0.07935524,3.2363248,0.1242322
1.63,3.1054707,-3.5768256,10.241247,0.027299404,3.1734085,0.0940893
1.632,2.3753262,-3.3695924,10.426489,-0.02692616,3.1124995,0.05974281
1.634,1.6579816,-3.154471,10.615616,-0.08319032,3.05396,0.021636903
1.636,0.9546211,-2.9319515,10.806708,-0.14138329,2.998056,-0.019833297
1.638,0.26655158,-2.7021208,10.997989,-0.20139253,2.9449468,-0.06433195
1.64,-0.40509903,-2.4653656,11.187795,-0.26312566,2.89472,-0.11159521
1.642,-1.0589194,-2.222035,11.374393,-0.32650387,2.847427,-0.16139433
1.644,-1.6939318,-1.9724754,11.556083,-0.3914554,2.8030622,-0.21356022
1.646,-2.308994,-1.7171656,11.7313595,-0.45796263,2.761701,-0.2679698
1.648,-2.9030685,-1.4563773,11.899102,-0.52605975,2.7233298,-0.32450628
1.65,-3.4754462,-1.1906683,12.0587845,-0.59573424,2.687966,-0.3831026
1.652,-4.0258417,-0.92008674,12.209865,-0.6670383,2.6556365,-0.44374296
1.654,-4.5539083,-0.64503056,12.351727,-0.74003375,2.6263862,-0.50640893
1.656,-5.059671,-0.36568916,12.483886,-0.81474096,2.6003313,-0.5711285
1.658,-5.5436597,-0.08237904,12.60581,-0.89116764,2.5776052,-0.6379915
1.66,-6.0065236,0.2047875,12.717112,-0.9693109,2.5583892,-0.7071261
1.662,-6.449018,0.49553907,12.818032,-1.0491054,2.5429323,-0.7787001
1.664,-6.872193,0.78966594,12.908946,-1.1304269,2.531508,-0.85294414
1.666,-7.277024,1.087117,12.990325,-1.2130628,2.5244033,-0.9300816
1.668,-7.6642876,1.3878255,13.062574,-1.2967381,2.5218868,-1.01038
1.67,-8.034965,1.6917262,13.1258335,-1.3811158,2.5241575,-1.0941405
1.672,-8.389833,1.9989722,13.179869,-1.465811,2.5313597,-1.181688
1.674,-8.729431,2.309466,13.224363,-1.5503924,2.5435545,-1.273375
1.676,-9.054206,2.6230686,13.259289,-1.6343961,2.5607133,-1.3695605
1.678,-9.364128,2.9397628,13.284309,-1.7173668,2.5826821,-1.4705975
1.68,-9.658845,3.2592995,13.2990675,-1.7988671,2.609189,-1.5768249
1.682,-9.937699,3.5814018,13.302977,-1.8785154,2.6398602,-1.6885822
1.684,-10.199884,3.9055943,13.295409,-1.9559789,2.6742,-1.8061581
1.686,-10.44418,4.231473,13.275542,-2.030959,2.7115893,-1.9297776
1.688,-10.669051,4.558486,13.2423525,-2.103234,2.7512727,-2.059554
1.69,-10.872599,4.885852,13.194678,-2.1726027,2.7923694,-2.1955338
1.692,-11.053136,5.212471,13.131636,-2.2389376,2.8339162,-2.33766
1.694,-11.208688,5.5372953,13.051895,-2.3021717,2.8748536,-2.4857621
1.696,-11.337554,5.8589325,12.954547,-2.3622735,2.9140446,-2.6396074
1.698,-11.438038,6.176179,12.838585,-2.4192889,2.9503188,-2.7988887
1.7,-11.508846,6.487423,12.703398,-2.4733093,2.982394,-2.9632473
1.702,-11.548863,6.7910995,12.548675,-2.5244746,3.0090718,-3.1322734
1.704,-11.557265,7.085441,12.374398,-2.5730338,3.0290575,-3.3055112
1.706,-11.533855,7.368947,12.180785,-2.61926,3.0410392,-3.482487
1.708,-11.478198,7.639837,11.968497,-2.663478,3.043704,-3.6627798
1.71,-11.390593,7.896021,11.738292,-2.7060962,3.0357041,-3.8459406
1.712,-11.271247,8.135908,11.490849,-2.7475166,3.0157695,-4.031513
1.714,-11.120737,8.3574295,11.227335,-2.7881577,2.982661,-4.219079
1.716,-10.940735,8.558974,10.949789,-2.8284786,2.935231,-4.4082336
1.718,-10.732667,8.739141,10.660011,-2.8689508,2.8725176,-4.5985827
1.72,-10.497432,8.896715,10.360252,-2.910051,2.7937794,-4.7897625
1.722,-10.236812,9.03067,10.053183,-2.9522486,2.6985593,-4.9813867
1.724,-9.953015,9.140366,9.740473,-2.9959717,2.586734,-5.1730843
1.726,-9.647,9.225618,9.425423,-3.041579,2.4585247,-5.3644896
1.728,-9.320064,9.285966,9.11045,-3.0893738,2.3145049,-5.5552325
1.73,-8.973385,9.321388,8.79802,-3.1395884,2.1556284,-5.7449694
1.732,-8.609365,9.332472,8.491534,-3.1923463,1.9832382,-5.9333763
1.734,-8.229004,9.31991,8.193381,-3.2476847,1.7990413,-6.12014
1.736,-7.8341,9.284724,7.906374,-3.3055367,1.6050496,-6.30496
1.738,-7.42572,9.228197,7.6330447,-3.3657258,1.4035683,-6.4875364
1.74,-7.0048046,9.152036,7.375253,-3.4280043,1.1971285,-6.6675687
1.742,-6.572199,9.058064,7.1348286,-3.4919858,0.98839355,-6.8447247
1.744,-6.1285954,8.948338,6.9135685,-3.5572352,0.7801094,-7.0187073
1.746,-5.6745343,8.8252,6.7129393,-3.623224,0.57504964,-7.189173
1.748,-5.2103405,8.690662,6.5342245,-3.68932,0.37601066,-7.3557587
1.75,-4.7365303,8.547436,6.378894,-3.7548172,0.18570375,-7.518137
1.752,-4.25237,8.3976345,6.246563,-3.8189144,0.0067813396,-7.6759834
1.754,-3.7585702,8.243372,6.1383796,-3.880702,-0.15819383,-7.8290052
1.756,-3.2548609,8.087943,6.054441,-3.9392488,-0.30684853,-7.97697
1.758,-2.740251,7.9335184,5.9938803,-3.9935818,-0.437006,-8.119728
1.76,-2.2143197,7.7824316,5.955674,-4.0427303,-0.54679394,-8.2572
1.762,-1.6763532,7.6365404,5.93883,-4.085766,-0.63473105,-8.389402
1.764,-1.1255016,7.4981685,5.9420443,-4.121851,-0.699775,-8.516488
1.766,-0.5609152,7.3691263,5.9642105,-4.1502542,-0.7413807,-8.638718
1.768,0.01843059,7.251195,6.004012,-4.170367,-0.75952196,-8.756456
1.77,0.6134181,7.1458187,6.059806,-4.1816983,-0.75465584,-8.870117
1.772,1.2248285,7.0547276,6.1296835,-4.1838765,-0.7277341,-8.980203
1.774,1.8532801,6.979218,6.211705,-4.176669,-0.68015766,-9.087261
1.776,2.4995966,6.9203115,6.303753,-4.1599517,-0.61368823,-9.191866
1.778,3.1639569,6.87918,6.404188,-4.1337075,-0.53042984,-9.294567
1.78,3.846726,6.856797,6.511699,-4.0980086,-0.43268633,-9.395901
1.782,4.5482807,6.853833,6.6251745,-4.0530343,-0.32298803,-9.496413
1.784,5.2686186,6.871067,6.7435007,-3.9990263,-0.20415878,-9.596476
1.786,6.0077157,6.9092607,6.86572,-3.9362366,-0.07904768,-9.696498
1.788,6.765282,6.969211,6.9915943,-3.8649976,0.049334526,-9.796867
1.79,7.5409946,7.0516005,7.1207557,-3.7856798,0.1778717,-9.89789
1.792,8.334222,7.1571155,7.2533207,-3.69868,0.30339575,-9.999825
1.794,9.145031,7.2858553,7.389264,-3.6044168,0.4227481,-10.102902
1.796,9.972427,7.438114,7.528845,-3.5033596,0.5328078,-10.2073345
1.798,10.814671,7.615244,7.6741796,-3.395981,0.63057566,-10.313259
1.8,11.672577,7.8161592,7.8262796,-3.282816,0.71314883,-10.420797
1.802,12.545169,8.041726,7.9849977,-3.164452,0.777756,-10.530084
1.804,13.430425,8.293299,8.1532955,-3.041532,0.8218405,-10.64119
1.806,14.331597,8.56763,8.332823,-2.9147854,0.8430059,-10.754181
1.808,15.244991,8.867366,8.524231,-2.7850337,0.839036,-10.869125
1.81,16.17178,9.190874,8.73172,-2.65314,0.8080096,-10.986052
1.812,17.114695,9.536971,8.953524,-2.5200424,0.7482672,-11.1049385
1.814,18.07404,9.905008,9.189941,-2.3867273,0.6585078,-11.225738
1.816,19.049253,10.293697,9.442541,-2.2542028,0.5378237,-11.348322
1.818,20.039337,10.702573,9.714492,-2.1234434,0.3857422,-11.472449
1.82,21.047377,11.12869,10.00647,-1.9954276,0.2022767,-11.597841
1.822,22.07512,11.569805,10.3172245,-1.8710773,-0.012138367,-11.7241335
1.824,23.121141,12.027624,10.648975,-1.7512054,-0.2565775,-11.850866
1.826,24.189356,12.499084,11.002436,-1.6365242,-0.5297532,-11.977465
1.828,25.282816,12.981622,11.377382,-1.5276337,-0.83017397,-12.103397
1.83,26.401398,13.474619,11.774818,-1.4249232,-1.1558967,-12.227911
1.832,27.546366,13.97707,12.1948595,-1.3287053,-1.504878,-12.350206
1.834,28.720224,14.486413,12.638033,-1.2391539,-1.8751647,-12.469548
1.836,29.923706,15.00095,13.105186,-1.1561599,-2.2643597,-12.584957
1.838,31.156055,15.52133,13.598177,-1.0797071,-2.670394,-12.695681
1.84,32.419144,16.045784,14.117443,-1.0095711,-3.0913384,-12.800852
1.842,33.715015,16.57286,14.662501,-0.94538975,-3.5250237,-12.899365
1.844,35.043118,17.102537,15.233465,-0.8868041,-3.969613,-12.9902315
1.846,36.403145,17.633944,15.830574,-0.8334403,-4.4232593,-13.072563
1.848,37.79385,18.166609,16.454405,-0.78490686,-4.8842463,-13.145638
1.85,39.214252,18.699095,17.105028,-0.7407341,-5.350711,-13.208647
1.852,40.661915,19.23085,17.78228,-0.7004533,-5.8208237,-13.260763
1.854,42.13441,19.76086,18.485935,-0.66357327,-6.292886,-13.301449
1.856,43.629395,20.288034,19.215378,-0.62952566,-6.7649183,-13.330156
1.858,45.14344,20.811495,19.969608,-0.5977979,-7.2348895,-13.346276
1.86,46.673077,21.329355,20.74623,-0.56784344,-7.7007174,-13.349358
1.862,48.213078,21.84028,21.54476,-0.5389819,-8.160197,-13.338995
1.864,49.75935,22.342493,22.363155,-0.51047516,-8.611166,-13.3147545
1.866,51.30689,22.83305,23.199295,-0.48152542,-9.051509,-13.276176
1.868,52.849823,23.309734,24.05114,-0.45125532,-9.479357,-13.222952
1.87,54.38369,23.770214,24.916588,-0.41868496,-9.893068,-13.154746
1.872,55.903286,24.211966,25.793055,-0.3828497,-10.291447,-13.07112
1.874,57.40342,24.631933,26.678001,-0.34279442,-10.673769,-12.971662
1.876,58.879307,25.027487,27.568981,-0.2976942,-11.039696,-12.855982
1.878,60.326065,25.396488,28.463146,-0.24686289,-11.38932,-12.723719
1.88,61.739563,25.736897,29.358032,-0.1896596,-11.7229395,-12.574531
1.882,63.11644,26.046839,30.250923,-0.12550545,-12.041056,-12.408028
1.884,64.45397,26.324577,31.13915,-0.05389309,-12.344431,-12.223997
1.886,65.74925,26.569788,32.02014,0.025751114,-12.633781,-12.022158
1.888,67.00058,26.781897,32.891144,0.11404467,-12.909721,-11.802141
1.89,68.207085,26.961212,33.74969,0.21152878,-13.173023,-11.563821
1.892,69.36822,27.1091,34.593746,0.31898975,-13.423999,-11.306904
1.894,70.483894,27.22807,35.421375,0.4371009,-13.662995,-11.031224
1.896,71.55498,27.321358,36.23098,0.56665444,-13.890419,-10.736799
1.898,72.58302,27.393358,37.02084,0.7085295,-14.106308,-10.423504
1.9,73.5702,27.449793,37.790054,0.8636472,-14.310712,-10.091184
1.902,74.51944,27.497782,38.53794,1.0329695,-14.503468,-9.739724
1.904,75.433655,27.546127,39.264626,1.2173781,-14.684469,-9.369303
1.906,76.31718,27.604467,39.970764,1.4177918,-14.853336,-8.980231
1.908,77.17453,27.683395,40.656853,1.6351117,-15.009462,-8.572782
1.91,78.00813,27.796524,41.32567,1.8701581,-15.152376,-8.147453
1.912,78.82304,27.95618,41.98175,2.123776,-15.281478,-7.704983
1.914,79.6241,28.175877,42.627808,2.396603,-15.396192,-7.246012
1.916,80.41214,28.473583,43.26856,2.6890776,-15.495987,-6.7711945
1.918,81.19484,28.86175,43.909637,3.0014503,-15.580404,-6.2812257
1.92,81.97433,29.358204,44.55419,3.3338165,-15.649103,-5.7766333
1.922,82.75223,29.97995,45.21177,3.686071,-15.7018,-5.257666
1.924,83.53332,30.744228,45.88858,4.0579076,-15.738448,-4.7245164
1.926,84.321014,31.668983,46.58755,4.4489756,-15.75907,-4.177326
1.928,85.12032,32.768867,47.3126,4.858811,-15.763805,-3.6160142
1.93,85.93273,34.062393,48.07438,5.2868624,-15.753008,-3.0403848
1.932,86.75059,35.575333,48.876694,5.732479,-15.727142,-2.4501777
1.934,87.56749,37.337738,49.71555,6.194866,-15.686773,-1.8450522
1.936,88.40358,39.338047,50.593548,6.6730847,-15.632433,-1.2245698
1.938,89.23665,41.583942,51.529297,7.1661043,-15.564602,-0.5881984
1.94,90.090485,44.091198,52.549194,7.6728406,-15.483579,0.064747095
1.942,90.9807,46.879242,53.64079,8.192124,-15.3895235,0.7352773
1.944,91.891884,49.992332,54.77992,8.722735,-15.2824335,1.4248079
1.946,92.853,53.423553,55.95798,9.263351,-15.161956,2.1351128
1.948,93.85536,57.17021,57.170086,9.812602,-15.027382,2.8684382
1.95,94.89105,61.232834,58.42761,10.369031,-14.877536,3.6274614
1.952,95.96209,65.60744,59.74074,10.931235,-14.710516,4.41523
1.954,97.08629,70.29344,61.10083,11.497939,-14.523743,5.235115
1.956,98.28106,75.31099,62.46274,12.068027,-14.313759,6.090847
1.958,99.52762,80.66014,63.82683,12.640507,-14.076461,6.986578
1.96,100.73916,86.34956,65.20912,13.214502,-13.806937,7.926711
1.962,101.92134,92.31837,66.6884,13.789494,-13.4990835,8.915307
1.964,103.11987,98.53049,68.27902,14.364886,-13.146473,9.955565
1.966,104.40973,104.93793,69.99528,14.939625,-12.741934,11.051328
1.968,105.90077,111.52578,71.77557,15.510753,-12.279154,12.207348
1.97,107.63134,118.30826,73.54025,16.07824,-11.746312,13.429708
1.972,109.52748,125.29454,75.259926,16.643215,-11.128553,14.724363
1.974,111.601974,132.41064,76.89373,17.205523,-10.409854,16.095337
1.976,113.82975,139.57103,78.48372,17.761517,-9.574938,17.546822
1.978,116.19436,146.71002,80.073364,18.305725,-8.607191,19.08125
1.98,118.77694,153.72113,81.6943,18.834806,-7.4834375,20.698915
1.982,121.64841,160.56735,83.34788,19.345688,-6.1758666,22.400341
1.984,124.779144,167.25293,85.04688,19.832472,-4.6554832,24.186504
1.986,128.19911,173.74454,86.77749,20.287033,-2.8950567,26.053371
1.988,131.97101,179.92863,88.50599,20.699251,-0.86859703,27.983797
1.99,136.08705,185.7321,90.20572,21.055012,1.4475052,29.949219
1.992,140.54605,191.08054,91.83604,21.335257,4.0704727,31.924253
1.994,145.31996,195.8473,93.35242,21.518444,6.9997425,33.872375
1.996,150.39395,199.98357,94.7351,21.584251,10.225509,35.74511
1.998,155.74344,203.45366,95.96341,21.50783,13.7230425,37.489876
2,161.37177,206.21584,96.97501,21.269238,17.452286,39.05076
2.002,167.28104,208.22392,97.722145,20.860199,21.361065,40.368164
2.004,173.44083,209.46881,98.15467,20.278355,25.390953,41.382717
2.006,179.81155,209.96416,98.203575,19.51228,29.439186,42.017735
2.008,186.35144,209.72926,97.82076,18.566582,33.40273,42.23747
2.01,193.00722,208.79013,96.96385,17.465666,37.17823,42.045826
2.012,199.71844,207.1737,95.583084,16.24884,40.658707,41.465797
2.014,206.40744,204.9231,93.62202,14.964793,43.738514,40.51999
2.016,212.9878,202.0891,91.03349,13.6628065,46.318718,39.228096
2.018,219.36241,198.73163,87.78085,12.386725,48.31131,37.610527
2.02,225.42766,194.91916,83.83728,11.173094,49.651596,35.68445
2.022,231.08174,190.72258,79.19091,10.052928,50.30158,33.472736
2.024,236.22432,186.21054,73.85351,9.044155,50.248413,31.009205
2.026,240.76138,181.44524,67.86186,8.15443,49.521183,28.330593
2.028,244.6,176.48653,61.273552,7.387027,48.194313,25.472408
2.03,247.65262,171.38426,54.1553,6.743903,46.380943,22.467136
2.032,249.84897,166.17654,46.571655,6.222903,44.216213,19.3463
2.034,251.13914,160.89496,38.60293,5.8147135,41.844315,16.133806
2.036,251.48782,155.57143,30.366173,5.5051193,39.407593,12.845583
2.038,250.87903,150.2351,21.997688,5.2698135,37.025772,9.497621
2.04,249.314,144.91364,13.643417,5.0694194,34.781464,6.11833
2.042,246.82234,139.62328,5.459656,4.8494554,32.70987,2.7598467
2.044,243.45537,134.37311,-2.3999329,4.542751,30.79419,-0.5038929
2.046,239.25723,129.21257,-9.793747,4.0743504,28.972063,-3.5872054
2.048,234.33092,124.16519,-16.59784,3.3688693,27.152935,-6.381245
2.05,228.75174,119.24751,-22.699707,2.3606653,25.223679,-8.769389
2.052,222.62146,114.478775,-27.960785,1.0094614,23.073704,-10.649946
2.054,216.07715,109.864174,-32.261627,-0.701396,20.613117,-11.948618
2.056,209.21962,105.45863,-35.529694,-2.7614422,17.786833,-12.6283655
2.058,202.19003,101.30039,-37.724724,-5.124373,14.58294,-12.698669
2.06,195.11354,97.41813,-38.843513,-7.7061253,11.062547,-12.204397
2.062,188.09412,93.83339,-38.901413,-10.420917,7.3071327,-11.263221
2.064,181.215,90.5515,-37.921925,-13.1852665,3.4226327,-10.021135
2.066,174.55405,87.55622,-35.93062,-15.915361,-0.46159768,-8.611938
2.068,168.206,84.85628,-33.027027,-18.529774,-4.206068,-7.1405816
2.07,162.2905,82.45319,-29.33464,-20.952732,-7.675302,-5.6903567
2.072,156.80539,80.4018,-25.02835,-23.118744,-10.747809,-4.3301144
2.074,151.71388,78.7086,-20.209366,-24.978676,-13.330627,-3.1117382
2.076,146.967,77.3767,-14.987316,-26.502794,-15.360308,-2.0753546
2.078,142.50711,76.3685,-9.417274,-27.676405,-16.805414,-1.2474918
2.08,138.3573,75.62803,-3.5729942,-28.498543,-17.67337,-0.6312218
2.082,134.61343,75.120056,2.4051437,-28.983288,-18.004257,-0.20871639
2.084,131.24716,74.88452,8.391541,-29.158625,-17.8611,0.051142693
2.086,128.25055,74.94626,14.203796,-29.063026,-17.320566,0.18877602
2.088,125.58894,75.292725,19.703415,-28.742683,-16.47066,0.2546177
2.09,123.143234,75.93539,24.798824,-28.248505,-15.403428,0.30164623
2.092,120.83719,76.812645,29.449287,-27.629549,-14.203293,0.37768364
2.094,118.69379,77.84713,33.6169,-26.931532,-12.945044,0.52156496
2.096,116.666855,79.01994,37.299484,-26.195415,-11.6922245,0.7602229
2.098,114.69373,80.3805,40.513237,-25.453678,-10.492415,1.1076059
2.1,112.7862,81.919975,43.264763,-24.72898,-9.376104,1.5643346
2.102,110.93807,83.62598,45.572487,-24.034885,-8.3581505,2.118516
2.104,109.158325,85.52312,47.454117,-23.377007,-7.440136,2.747904
2.106,107.43187,87.55121,48.904827,-22.753637,-6.612836,3.4230726
2.108,105.74707,89.65508,49.929085,-22.15689,-5.8599625,4.11164
2.11,104.06547,91.79982,50.570236,-21.575249,-5.162262,4.782462
2.112,102.35887,93.96261,50.849384,-20.996235,-4.5002112,5.410345
2.114,100.63167,96.09566,50.7885,-20.407843,-3.8558793,5.97933
2.116,98.88852,98.15085,50.424152,-19.79857,-3.2137394,6.4825172
2.118,97.128494,100.09587,49.77009,-19.158241,-2.560318,6.9208884
2.12,95.35507,101.9087,48.840736,-18.481224,-1.8872795,7.3023405
2.122,93.5715,103.57834,47.663727,-17.767038,-1.1932206,7.639897
2.124,91.78897,105.08809,46.27482,-17.019424,-0.48157454,7.9492216
2.126,90.01701,106.42456,44.703568,-16.245947,0.24056244,8.245052
2.128,88.26624,107.575745,42.97563,-15.456827,0.96412754,8.538021
2.13,86.545135,108.531006,41.117054,-14.663725,1.6795774,8.832943
2.132,84.85515,109.28558,39.151203,-13.87887,2.3774848,9.129223
2.134,83.196365,109.84157,37.09455,-13.114489,3.0487351,9.422319
2.136,81.565475,110.20831,34.960884,-12.382046,3.6844692,9.705309
2.138,79.964516,110.39574,32.76675,-11.691408,4.2761683,9.970232
2.14,78.39708,110.41989,30.539759,-11.050161,4.8160334,10.209124
2.142,76.860306,110.300964,28.321493,-10.463469,5.297246,10.414962
2.144,75.34749,110.05646,26.144526,-9.934139,5.71435,10.58253
2.146,73.857574,109.69696,24.017265,-9.462809,6.0635204,10.708361
2.148,72.38672,109.233604,21.942331,-9.048277,6.342653,10.789897
2.15,70.93641,108.673645,19.92466,-8.687893,6.5514946,10.825211
2.152,69.506775,108.026825,17.97512,-8.378142,6.6914325,10.813681
2.154,68.09337,107.3065,16.10944,-8.114986,6.765154,10.756539
2.156,66.69211,106.52373,14.343694,-7.8939714,6.776459,10.656804
2.158,65.30138,105.68414,12.689781,-7.7103763,6.7300153,10.518828
2.16,63.919373,104.79167,11.155811,-7.559329,6.631317,10.34791
2.162,62.544434,103.849365,9.745838,-7.4360504,6.4864607,10.149638
2.164,61.175446,102.86159,8.462057,-7.3360887,6.302101,9.929395
2.166,59.810303,101.833984,7.3063717,-7.2553005,6.0854335,9.692168
2.168,58.44777,100.77242,6.2807407,-7.1899276,5.8437943,9.442321
2.17,57.08848,99.68356,5.3855667,-7.1365643,5.584522,9.183565
2.172,55.73425,98.57655,4.618662,-7.092133,5.314678,8.918858
2.174,54.386642,97.461754,3.976307,-7.0539722,5.0408673,8.650374
2.176,53.04541,96.34714,3.4532146,-7.019927,4.7690177,8.379642
2.178,51.710335,95.23202,3.0415058,-6.988417,4.5040913,8.107729
2.18,50.38005,94.111145,2.7320766,-6.9584603,4.24998,7.8354053
2.182,49.05231,92.978745,2.5153198,-6.929657,4.009379,7.563396
2.184,47.725513,91.83137,2.380331,-6.9020452,3.783723,7.292633
2.186,46.399242,90.66848,2.317482,-6.8760667,3.573242,7.024397
2.188,45.074158,89.49303,2.31707,-6.852521,3.377121,6.760288
2.19,43.750732,88.31005,2.3710623,-6.832482,3.1937156,6.5022
2.192,42.429344,87.12511,2.4720802,-6.817093,3.0208802,6.252366
2.194,41.110626,85.94364,2.6129246,-6.8074846,2.856193,6.0133495
2.196,39.795547,84.76994,2.7871647,-6.804595,2.6973743,5.7880583
2.198,38.48434,83.608734,2.9880428,-6.8089895,2.5425415,5.57964
2.2,37.17657,82.4649,3.2101564,-6.820797,2.3903553,5.3912954
2.202,35.872086,81.34302,3.4492273,-6.839567,2.2402034,5.2261214
2.204,34.571606,80.24768,3.701498,-6.864262,2.0923462,5.086887
2.206,33.27577,79.18353,3.963757,-6.8932247,1.9479318,4.9758162
2.208,31.986027,78.15465,4.2325406,-6.924261,1.8089609,4.894357
2.21,30.704174,77.16469,4.5041857,-6.954688,1.6782204,4.8430867
2.212,29.432964,76.21699,4.7747827,-6.9814577,1.5591707,4.821662
2.214,28.175316,75.31413,5.039996,-7.0013695,1.4557829,4.828747
2.216,26.934608,74.45746,5.2953973,-7.011199,1.3723209,4.862067
2.218,25.713589,73.64762,5.535919,-7.0078545,1.3131722,4.9185524
2.22,24.51587,72.88365,5.756298,-6.988583,1.2826173,4.994442
2.222,23.345638,72.16331,5.9507475,-6.9510794,1.2846376,5.0855217
2.224,22.20673,71.48335,6.112445,-6.8936157,1.3226922,5.187358
2.226,21.103039,70.83957,6.2339277,-6.8151155,1.3996168,5.2955594
2.228,20.038626,70.22719,6.3077464,-6.715111,1.5174655,5.4060397
2.23,19.017492,69.6405,6.3267436,-6.593789,1.6774054,5.5151887
2.232,18.043133,69.07388,6.284081,-6.451971,1.8796493,5.6199636
2.234,17.118313,68.521515,6.1730976,-6.290992,2.1234946,5.717918
2.236,16.245544,67.97764,5.9878397,-6.112702,2.4073062,5.807189
2.238,15.426848,67.43633,5.7230406,-5.91945,2.7285728,5.886386
2.24,14.663046,66.89215,5.3741713,-5.713958,3.0839586,5.95445
2.242,13.954744,66.34,4.9382076,-5.4992275,3.4693203,6.0106378
2.244,13.302004,65.775566,4.4134073,-5.278472,3.879743,6.0544043
2.246,12.704229,65.1953,3.7989845,-5.0550632,4.3097,6.085278
2.248,12.160158,64.59613,3.0957375,-4.832456,4.753125,6.102884
2.25,11.668404,63.975353,2.305522,-4.613986,5.2035465,6.107048
2.252,11.226528,63.33142,1.4312611,-4.4028497,5.6542726,6.097858
2.254,10.831903,62.663223,0.47718906,-4.201894,6.0986443,6.075686
2.256,10.481461,61.970604,-0.5510845,-4.0135903,6.5302143,6.0413074
2.258,10.172148,61.253628,-1.6471395,-3.8398957,6.942932,5.995902
2.26,9.89957,60.513638,-2.8036861,-3.682207,7.3313746,5.940925
2.262,9.660143,59.751774,-4.0123816,-3.5413752,7.6909227,5.8780136
2.264,9.45027,58.969353,-5.264413,-3.417705,8.017839,5.8087645
2.266,9.265911,58.168083,-6.5512457,-3.3110573,8.309252,5.7345376
2.268,9.1027775,57.350044,-7.8638353,-3.2209134,8.563151,5.656301
2.27,8.956778,56.51732,-9.192746,-3.1465068,8.778301,5.574504
2.272,8.823948,55.672455,-10.529113,-3.0869267,8.954105,5.489032
2.274,8.7006645,54.81771,-11.864477,-3.0412138,9.090491,5.3992524
2.276,8.583342,53.955124,-13.191072,-3.00842,9.18778,5.304096
2.278,8.468925,53.086147,-14.501611,-2.9876547,9.246625,5.202224
2.28,8.354204,52.212257,-15.789564,-2.9780362,9.267933,5.09218
2.282,8.236452,51.33426,-17.048977,-2.9787087,9.252837,4.972575
2.284,8.113131,50.452858,-18.274673,-2.9888144,9.202691,4.8422413
2.286,7.982151,49.568424,-19.462118,-3.0074086,9.119047,4.7003913
2.288,7.841627,48.68097,-20.607723,-3.0334487,9.00367,4.5466785
2.29,7.6900616,47.790573,-21.708817,-3.0657916,8.858513,4.3812294
2.292,7.5260067,46.897,-22.763405,-3.1031857,8.685732,4.2045813
2.294,7.3485546,45.99958,-23.769928,-3.1442618,8.487651,4.0176144
2.296,7.156969,45.097458,-24.727375,-3.1875865,8.266718,3.821493
2.298,6.9506702,44.18954,-25.634937,-3.2317045,8.025461,3.6175585
2.3,6.7293835,43.275085,-26.492247,-3.2752013,7.7663345,3.407242
2.302,6.4932547,42.35311,-27.298822,-3.3167691,7.4916964,3.191984
2.304,6.242523,41.423244,-28.054104,-3.3552542,7.203713,2.9732258
2.306,5.9774637,40.485683,-28.757992,-3.3896475,6.904255,2.752416
2.308,5.6988344,39.54096,-29.410185,-3.4191213,6.5948772,2.5310085
2.31,5.4074116,38.589886,-30.01041,-3.443014,6.2768583,2.3103955
2.312,5.104183,37.63355,-30.55848,-3.4608567,5.951223,2.091883
2.314,4.789978,36.673294,-31.054283,-3.4723568,5.6187654,1.8766766
2.316,4.465809,35.71042,-31.497648,-3.4773884,5.2801037,1.6658211
2.318,4.1332445,34.746372,-31.888472,-3.476033,4.93577,1.460139
2.32,3.793809,33.78264,-32.22667,-3.4685016,4.586333,1.2602406
2.322,3.4488125,32.820942,-32.512276,-3.4551573,4.232398,1.0664521
2.324,3.0998478,31.86266,-32.74539,-3.436475,3.874654,0.87882304
2.326,2.7484426,30.909515,-32.92625,-3.4130409,3.5138912,0.6971407
2.328,2.3963861,29.963007,-33.055065,-3.385501,3.1509368,0.52098155
2.33,2.045195,29.02471,-33.13262,-3.3545282,2.7866964,0.3497826
2.332,1.6961579,28.095951,-33.159687,-3.3207893,2.4220452,0.18289125
2.334,1.3508348,27.178267,-33.13672,-3.2849274,2.057829,0.019649148
2.336,1.0107102,26.273094,-33.064816,-3.2475069,1.6948392,-0.14054847
2.338,0.6772351,25.381817,-32.945107,-3.2089598,1.3338053,-0.29818267
2.34,0.35163832,24.505844,-32.779266,-3.1695964,0.9753901,-0.45357683
2.342,0.03547144,23.646334,-32.569035,-3.129563,0.620177,-0.6068717
2.344,-0.26972103,22.804379,-32.31597,-3.088858,0.26869476,-0.7580489
2.346,-0.56273556,21.980911,-32.02208,-3.047345,-0.07854891,-0.9069178
2.348,-0.8425498,21.176876,-31.689152,-3.004776,-0.4210825,-1.0531505
2.35,-1.1078782,20.39312,-31.31899,-2.9607944,-0.7584224,-1.196363
2.352,-1.3579826,19.630598,-30.913532,-2.914975,-1.0900584,-1.3361331
2.354,-1.5920892,18.89027,-30.474884,-2.866794,-1.4153671,-1.4720464
2.356,-1.8094559,18.172934,-30.004969,-2.8156648,-1.733667,-1.603732
2.358,-2.0093575,17.47961,-29.505821,-2.760979,-2.0441446,-1.730952
2.36,-2.1913373,16.811209,-28.979109,-2.7020998,-2.3458788,-1.8535846
2.362,-2.3546615,16.168594,-28.426699,-2.6383967,-2.6378386,-1.9716588
2.364,-2.4990602,15.552799,-27.850231,-2.569269,-2.918915,-2.0853405
2.366,-2.6241395,14.964537,-27.251572,-2.4941702,-3.187963,-2.1949365
2.368,-2.729288,14.404514,-26.632687,-2.4126294,-3.443821,-2.3008633
2.37,-2.814449,13.873402,-25.99574,-2.3242724,-3.6853466,-2.403615
2.372,-2.8792758,13.371601,-25.343094,-2.2288256,-3.9115016,-2.5037274
2.374,-2.9236274,12.89929,-24.677002,-2.126163,-4.121383,-2.601787
2.376,-2.9475818,12.456673,-24.000053,-2.0162737,-4.3142242,-2.6983378
2.378,-2.9513943,12.043505,-23.314556,-1.8992839,-4.4894342,-2.7938979
2.38,-2.9352872,11.659425,-22.623055,-1.7754235,-4.646628,-2.8889387
2.382,-2.899719,11.303986,-21.927559,-1.6450353,-4.7855835,-2.9838486
2.384,-2.845137,10.976486,-21.230345,-1.5085456,-4.9062853,-3.0789433
2.386,-2.7719083,10.676105,-20.5333,-1.3664377,-5.008872,-3.1744556
2.388,-2.6810744,10.402035,-19.838417,-1.219231,-5.093647,-3.270526
2.39,-2.5729146,10.153049,-19.147211,-1.0674503,-5.1610365,-3.3672252
2.392,-2.4482574,9.927916,-18.461155,-0.91162586,-5.211588,-3.464572
2.394,-2.307804,9.725271,-17.781464,-0.75227296,-5.24594,-3.5625486
2.396,-2.1523595,9.543621,-17.109144,-0.5898886,-5.264819,-3.6611214
2.398,-1.9825761,9.38142,-16.44466,-0.42493558,-5.269002,-3.7602153
2.4,-1.7991633,9.2369995,-15.788321,-0.25782037,-5.2592983,-3.859766
2.402,-1.6028523,9.108543,-15.140163,-0.08891559,-5.236496,-3.9596834
2.404,-1.3945975,8.994561,-14.500071,0.08147943,-5.2013845,-4.059888
2.406,-1.1751814,8.893346,-13.8679,0.25313175,-5.1546936,-4.1603107
2.408,-0.945076,8.803208,-13.243378,0.42587554,-5.097115,-4.260895
2.41,-0.7048259,8.722492,-12.625984,0.59962296,-5.0292377,-4.3616176
2.412,-0.45497417,8.649394,-12.015123,0.7743919,-4.951579,-4.4624248
2.414,-0.19620705,8.5824,-11.410134,0.9502774,-4.864526,-4.5632668
2.416,0.07120514,8.519757,-10.810367,1.1274755,-4.768404,-4.6640835
2.418,0.34662104,8.460076,-10.215111,1.3062518,-4.663433,-4.7647724
2.42,0.6296401,8.401962,-9.623949,1.4869596,-4.549752,-4.8651943
2.422,0.9195485,8.34425,-9.036649,1.6699927,-4.427454,-4.9651737
2.424,1.2157717,8.285889,-8.452887,1.8557584,-4.2966127,-5.064476
2.426,1.5180993,8.225968,-7.8724914,2.0446954,-4.157299,-5.162842
2.428,1.8260193,8.163622,-7.295434,2.2372403,-4.009609,-5.259968
2.43,2.1390805,8.098019,-6.7216845,2.4338107,-3.8536892,-5.355542
2.432,2.4565613,8.028262,-6.1514688,2.6348138,-3.6897082,-5.449225
2.434,2.7777362,7.954135,-5.5851145,2.8406544,-3.5178971,-5.5406895
2.436,3.101617,7.875494,-5.023322,3.051712,-3.3385196,-5.629633
2.438,3.4275348,7.7919073,-4.467187,3.268362,-3.1518316,-5.7157435
2.44,3.7542474,7.7035084,-3.9176722,3.4909887,-2.9580674,-5.798733
2.442,4.080795,7.6105375,-3.3764696,3.7199743,-2.7574492,-5.8783507
2.444,4.406296,7.513454,-2.8449504,3.9556997,-2.5501504,-5.9543333
2.446,4.7295194,7.4130955,-2.3241234,4.198525,-2.3363037,-6.0264387
2.448,5.048785,7.310283,-1.81533,4.448768,-2.1160703,-6.09442
2.45,5.3631215,7.205618,-1.3202529,4.7066545,-1.8897045,-6.15807
2.452,5.6711755,7.099737,-0.8404108,4.9722495,-1.6576104,-6.2172337
2.454,5.9716477,6.9935284,-0.37722278,5.245457,-1.4203674,-6.271803
2.456,6.2630296,6.888243,0.06805259,5.525992,-1.1787465,-6.3217435
2.458,6.5439954,6.7851257,0.4944856,5.8133945,-0.9337393,-6.3670526
2.46,6.8130245,6.685486,0.9009281,6.107033,-0.68654907,-6.40777
2.462,7.0688257,6.5909643,1.2866025,6.4060907,-0.43861127,-6.4439335
2.464,7.3104825,6.5028405,1.6508324,6.709632,-0.19149804,-6.475583
2.466,7.536673,6.4230375,1.9930682,7.0166492,0.05316794,-6.502765
2.468,7.746443,6.3532724,2.3131192,7.326096,0.29377997,-6.5254765
2.47,7.939006,6.295381,2.6109273,7.6368933,0.52881956,-6.5436387
2.472,8.113546,6.2513347,2.886867,7.9479814,0.7569562,-6.5570807
2.474,8.269659,6.2230797,3.1412828,8.258338,0.9770521,-6.5654955
2.476,8.407142,6.2128544,3.3748946,8.566971,1.1882821,-6.568465
2.478,8.525703,6.222845,3.5884275,8.872958,1.3900722,-6.565529
2.48,8.625753,6.255057,3.7828445,9.175396,1.5821129,-6.5561285
2.482,8.707724,6.3114777,3.9592452,9.473354,1.764165,-6.539572
2.484,8.772394,6.393984,4.1185837,9.765907,1.9360305,-6.5150747
2.486,8.821018,6.504573,4.262064,10.052131,2.0974574,-6.4818535
2.488,8.85483,6.645409,4.3904667,10.331082,2.2481027,-6.439162
2.49,8.87543,6.8189573,4.5048037,10.601903,2.3874464,-6.386387
2.492,8.884588,7.0272646,4.6056666,10.863746,2.514824,-6.323119
2.494,8.884544,7.2722206,4.6937895,11.115829,2.629408,-6.249193
2.496,8.877779,7.555716,4.769765,11.357475,2.730288,-6.164706
2.498,8.867191,7.879326,4.834033,11.588131,2.8164997,-6.069985
2.5,8.855259,8.244573,4.8867197,11.807391,2.8870764,-5.9655304
2.502,8.845373,8.652409,4.927824,12.014968,2.9411192,-5.8520126
2.504,8.841005,9.1035,4.9571714,12.21073,2.9777894,-5.7301655
2.506,8.845549,9.598112,4.9744925,12.3946705,2.996317,-5.600857
2.508,8.862459,10.136097,4.9793506,12.566834,2.9959643,-5.465087
2.51,8.8953705,10.716714,4.97136,12.727259,2.9760127,-5.3240824
2.512,8.947682,11.338908,4.950116,12.875969,2.9358168,-5.1793547
2.514,9.022909,12.000898,4.915286,13.013002,2.8748329,-5.0326743
2.516,9.124383,12.700439,4.866665,13.138382,2.7926817,-4.8860765
2.518,9.255106,13.434734,4.804163,13.252085,2.6891425,-4.74183
2.52,9.417876,14.200272,4.7276735,13.353954,2.564229,-4.602385
2.522,9.615364,14.993272,4.6371765,13.443736,2.4181986,-4.470192
2.524,9.849763,15.809359,4.5329056,13.521019,2.2515812,-4.3474874
2.526,10.122915,16.643885,4.4154015,13.585238,2.0651152,-4.2360926
2.528,10.436413,17.491922,4.2855153,13.635654,1.8597066,-4.137227
2.53,10.791409,18.348167,4.1446247,13.671415,1.6363277,-4.051389
2.532,11.188675,19.207096,3.9941492,13.691565,1.3959036,-3.978312
2.534,11.6285305,20.063093,3.8359947,13.6951275,1.1392071,-3.917107
2.536,12.110415,20.910719,3.6722841,13.681191,0.8668355,-3.866445
2.538,12.633312,21.744707,3.5053873,13.648895,0.57909656,-3.8247242
2.54,13.196231,22.560095,3.3380919,13.597448,0.275944,-3.790246
2.542,13.798052,23.352266,3.173283,13.526157,-0.043042064,-3.7614245
2.544,14.4370365,24.116247,3.014203,13.434376,-0.3786558,-3.7370377
2.546,15.111208,24.847439,2.8646173,13.321514,-0.7320502,-3.7162666
2.548,15.81786,25.542183,2.7283192,13.186996,-1.1046475,-3.69875
2.55,16.554636,26.196867,2.6089678,13.030241,-1.4981246,-3.6845636
2.552,17.318382,26.807936,2.5102863,12.850737,-1.914223,-3.6741548
2.554,18.10594,27.371666,2.4356337,12.648006,-2.3547592,-3.668262
2.556,18.91401,27.884724,2.3880005,12.42168,-2.8215292,-3.6678276
2.558,19.739958,28.344246,2.3702192,12.171534,-3.3161812,-3.6739676
2.56,20.58071,28.74796,2.3857546,11.897543,-3.8400848,-3.6879194
2.562,21.43293,29.093782,2.4373074,11.599899,-4.39429,-3.7110307
2.564,22.293612,29.37915,2.5269594,11.27905,-4.9793777,-3.7446957
2.566,23.159594,29.601608,2.6563263,10.935623,-5.595421,-3.7903457
2.568,24.027927,29.758766,2.8263645,10.570443,-6.2418957,-3.849486
2.57,24.895771,29.848234,3.0375528,10.184474,-6.9176273,-3.9235883
2.572,25.76016,29.86774,3.289812,9.778796,-7.6207533,-4.0139656
2.574,26.617746,29.81593,3.5824604,9.354542,-8.348783,-4.1217012
2.576,27.465534,29.691263,3.914384,8.912893,-9.098549,-4.2475615
2.578,28.300222,29.492682,4.283598,8.455074,-9.86628,-4.3919716
2.58,29.118439,29.219486,4.687495,7.982285,-10.6476,-4.554997
2.582,29.916521,28.871479,5.1228952,7.4957156,-11.437648,-4.736424
2.584,30.690702,28.44921,5.586107,6.996549,-12.23106,-4.9356217
2.586,31.436565,27.953897,6.0728393,6.4860353,-13.022067,-5.1514883
2.588,32.149906,27.387619,6.57835,5.9655485,-13.80461,-5.382513
2.59,32.826145,26.753065,7.0975866,5.4365726,-14.57252,-5.6268263
2.592,33.460987,26.053787,7.625081,4.9007683,-15.319544,-5.8822684
2.594,34.04963,25.293737,8.155579,4.3599467,-16.039474,-6.146517
2.596,34.587326,24.477358,8.683681,3.8161044,-16.726202,-6.4170227
2.598,35.069477,23.609718,9.203936,3.2714138,-17.373848,-6.6910715
2.6,35.49168,22.6961,9.710848,2.7281928,-17.976917,-6.965852
2.602,35.849506,21.742893,10.199272,2.18888,-18.530445,-7.2385306
2.604,36.138588,20.75703,10.6641445,1.6560354,-19.030062,-7.5063176
2.606,36.35517,19.745457,11.100476,1.1322355,-19.472126,-7.7665396
2.608,36.49608,18.715446,11.503931,0.62004566,-19.853722,-8.016723
2.61,36.558662,17.674213,11.870607,0.121995926,-20.172726,-8.254565
2.612,36.540825,16.62918,12.197102,-0.35954857,-20.427849,-8.4779825
2.614,36.44089,15.587656,12.480572,-0.8224344,-20.618687,-8.685134
2.616,36.258152,14.556519,12.718491,-1.2647581,-20.745579,-8.874402
2.618,35.99286,13.542295,12.908892,-1.6849146,-20.809696,-9.044437
2.62,35.64592,12.551322,13.050289,-2.081738,-20.812944,-9.194093
2.622,35.21899,11.589344,13.141798,-2.4543676,-20.757856,-9.322374
2.624,34.71459,10.661588,13.182924,-2.80225,-20.647644,-9.428373
2.626,34.135914,9.772982,13.173645,-3.12505,-20.485939,-9.511258
2.628,33.486717,8.927966,13.114468,-3.4225407,-20.27673,-9.570345
2.63,32.771526,8.130327,13.006347,-3.694591,-20.024305,-9.605131
2.632,31.99555,7.3833375,12.8506565,-3.941103,-19.733162,-9.615286
2.634,31.164536,6.6894813,12.649132,-4.162002,-19.40779,-9.6006565
2.636,30.28454,6.0506544,12.403934,-4.3572483,-19.052654,-9.56134
2.638,29.361809,5.4681644,12.1173725,-4.526969,-18.67205,-9.497735
2.64,28.402796,4.9428115,11.792217,-4.6715403,-18.270111,-9.41062
2.642,27.41425,4.4746847,11.431745,-4.791647,-17.850647,-9.3009615
2.644,26.402882,4.063464,11.039091,-4.8882885,-17.417114,-9.169891
2.646,25.375618,3.7079937,10.617798,-4.9628067,-16.972626,-9.018585
2.648,24.338978,3.406914,10.171645,-5.0168204,-16.519894,-8.848265
2.65,23.299322,3.1581488,9.704283,-5.052189,-16.06125,-8.660179
2.652,22.262648,2.9591846,9.219877,-5.0708857,-15.598625,-8.455627
2.654,21.234741,2.807415,8.72244,-5.0748835,-15.133522,-8.235914
2.656,20.220991,2.699782,8.215881,-5.066067,-14.667059,-8.002388
2.658,19.226568,2.6327348,7.7043405,-5.046175,-14.200083,-7.7564063
2.66,18.255726,2.602561,7.1918592,-5.0166855,-13.733198,-7.499382
2.662,17.312687,2.605726,6.6824355,-4.9788227,-13.266825,-7.232783
2.664,16.400887,2.6388886,6.1797,-4.9335546,-12.80125,-6.958145
2.666,15.523448,2.6983273,5.687008,-4.881606,-12.336699,-6.677046
2.668,14.682693,2.7803311,5.207702,-4.823474,-11.873265,-6.3910174
2.67,13.880456,2.8810377,4.744159,-4.759493,-11.411019,-6.1015444
2.672,13.118393,2.9969254,4.298982,-4.6898446,-10.949931,-5.8100147
2.674,12.397796,3.1249084,3.8743865,-4.6145406,-10.489828,-5.5176387
2.676,11.719626,3.262083,3.4723535,-4.5335526,-10.030501,-5.225466
2.678,11.084415,3.4057193,3.0944905,-4.446808,-9.571587,-4.934431
2.68,10.4923725,3.5535517,2.7422564,-4.3542423,-9.11266,-4.6452885
2.682,9.943524,3.7033587,2.4163938,-4.255803,-8.65317,-4.3586206
2.684,9.437835,3.8530502,2.1175296,-4.1515026,-8.192432,-4.0748987
2.686,8.974909,4.001009,1.8458083,-4.0413933,-7.729702,-3.7944825
2.688,8.554485,4.1458387,1.6012379,-3.9255881,-7.26418,-3.5176206
2.69,8.176125,4.2865524,1.3833332,-3.8042328,-6.795038,-3.244478
2.692,7.839472,4.422285,1.1914666,-3.677504,-6.3214536,-2.9751687
2.694,7.5439463,4.5521097,1.0248538,-3.5456195,-5.8426228,-2.7098067
2.696,7.289445,4.6752787,0.8825321,-3.4088025,-5.3578267,-2.4485111
2.698,7.0753813,4.7912464,0.76338565,-3.267289,-4.866514,-2.1914177
2.7,6.9010177,4.8997016,0.66597134,-3.1213245,-4.3683095,-1.9387106
2.702,6.765749,5.0003595,0.5888915,-2.971152,-3.8630557,-1.6906416
2.704,6.6688504,5.0932636,0.53028846,-2.817024,-3.3508372,-1.4475327
2.706,6.6099668,5.1783524,0.48834458,-2.6592174,-2.831996,-1.2097881
2.708,6.588565,5.255503,0.46135125,-2.4980328,-2.3071246,-0.97786975
2.71,6.6037455,5.3247046,0.44748724,-2.33381,-1.7770808,-0.75229913
2.712,6.65486,5.3857183,0.4448244,-2.1669507,-1.2429596,-0.5336041
2.714,6.741161,5.4384146,0.45160708,-1.9979049,-0.7060752,-0.3223015
2.716,6.86162,5.4826827,0.46614942,-1.827162,-0.16789205,-0.118889496
2.718,7.015092,5.5185537,0.48670965,-1.6552563,0.36997783,0.07618724
2.72,7.2002444,5.546052,0.5115309,-1.4827651,0.9058527,0.26255846
2.722,7.415438,5.565377,0.5389205,-1.3103012,1.437997,0.43995222
2.724,7.659206,5.576552,0.56738096,-1.1384858,1.9646811,0.6082293
2.726,7.929721,5.579702,0.59558153,-0.96793234,2.4842227,0.7673569
2.728,8.224902,5.5751734,0.6222079,-0.7992468,2.995044,0.917372
2.73,8.5425415,5.563058,0.6461121,-0.6330077,3.4956748,1.0583478
2.732,8.880539,5.543567,0.6663102,-0.46977505,3.9847775,1.1903585
2.734,9.236157,5.5168996,0.68196034,-0.31006137,4.461161,1.3134408
2.736,9.606933,5.483266,0.6923331,-0.15434963,4.92378,1.4275597
2.738,9.990208,5.442889,0.6967153,-0.003083706,5.371732,1.5325876
2.74,10.383219,5.396267,0.69450355,0.14332229,5.804237,1.628333
2.742,10.78312,5.3435793,0.68531245,0.28449804,6.2206106,1.7145582
2.744,11.187284,5.285258,0.66882455,0.42012972,6.6202793,1.7910286
2.746,11.59268,5.221806,0.6447797,0.5499282,7.0027523,1.8575463
2.748,11.996843,5.1534925,0.6129943,0.67366457,7.367592,1.9140072
2.75,12.397199,5.0809255,0.57331204,0.79115164,7.7144103,1.9604266
2.752,12.791213,5.004627,0.52569616,0.90261686,8.044074,1.9977045
2.754,13.176445,4.9251227,0.47016272,1.0074705,8.35457,2.025101
2.756,13.550732,4.8429637,0.40689647,1.1059389,8.646383,2.0435424
2.758,13.912097,4.7586894,0.33592534,1.1980646,8.919313,2.0536213
2.76,14.258463,4.672883,0.25760475,1.283977,9.173124,2.056012
2.762,14.588323,4.586162,0.17213207,1.3637975,9.4076,2.0514064
2.764,14.900124,4.4990764,0.079880625,1.437699,9.622479,2.0404882
2.766,15.192653,4.4122815,-0.018768549,1.5058551,9.817471,2.0238748
2.768,15.464985,4.326379,-0.123359084,1.5684202,9.992192,2.002101
2.77,15.716331,4.24201,-0.23352334,1.6255329,10.146241,1.9756197
2.772,15.946031,4.159815,-0.34873912,1.6772988,10.279257,1.9447515
2.774,16.15378,4.0804024,-0.4684836,1.7238278,10.390936,1.9097812
2.776,16.339426,4.004421,-0.59223235,1.765212,10.481134,1.8709451
2.778,16.502989,3.932314,-0.7195307,1.8015409,10.549912,1.8284538
2.78,16.644459,3.864644,-0.8495704,1.8329124,10.597582,1.782557
2.782,16.764526,3.8019042,-0.98201525,1.8594602,10.624725,1.7335458
2.784,16.86371,3.7447367,-1.1164523,1.8813587,10.6321745,1.6817831
2.786,16.943031,3.6933608,-1.2526555,1.8987617,10.620952,1.6276861
2.788,17.003298,3.6484804,-1.3904575,1.911844,10.592184,1.5717058
2.79,17.045559,3.610323,-1.529628,1.920769,10.547004,1.5143034
2.792,17.07082,3.5792468,-1.6699228,1.9256606,10.486509,1.455945
2.794,17.080563,3.5554085,-1.811546,1.9266312,10.411687,1.3970368
2.796,17.076237,3.5389667,-1.9545693,1.9237398,10.323388,1.3379681
2.798,17.059235,3.530133,-2.0990174,1.9170146,10.222326,1.2790916
2.8,17.031006,3.5288734,-2.2450109,1.9064723,10.109059,1.2207311
2.802,16.993,3.5353446,-2.3928103,1.892101,9.984009,1.163145
2.804,16.946962,3.5495963,-2.542738,1.8738972,9.847512,1.1065793
2.806,16.894344,3.571516,-2.695133,1.8516436,9.699133,1.0507578
2.808,16.836712,3.6008043,-2.8500528,1.8258456,9.540829,0.9968817
2.81,16.775671,3.6371431,-3.0078845,1.7961661,9.371649,0.9443394
2.812,16.712482,3.680166,-3.1688123,1.7626901,9.191864,0.8932102
2.814,16.6487,3.7294228,-3.3330483,1.7254987,9.00171,0.8434733
2.816,16.585482,3.7842965,-3.5008068,1.6847291,8.801444,0.7950802
2.818,16.524197,3.8441095,-3.6722677,1.6405212,8.591365,0.74789274
2.82,16.466072,3.908223,-3.8475242,1.5930531,8.371813,0.70175827
2.822,16.412136,3.975914,-4.0265713,1.542507,8.143169,0.65650856
2.824,16.363155,4.0461745,-4.209461,1.4890771,7.9058843,0.6119368
2.826,16.320017,4.118333,-4.3960533,1.4329386,7.6604137,0.5678563
2.828,16.28331,4.191396,-4.5860863,1.3742329,7.407223,0.52406526
2.83,16.253605,4.264409,-4.779189,1.3131018,7.146803,0.48037982
2.832,16.231392,4.3363295,-4.974924,1.2496593,6.879624,0.43666208
2.834,16.21679,4.406289,-5.1728635,1.1839796,6.6061115,0.39277542
2.836,16.20986,4.4734,-5.372282,1.1160774,6.32661,0.3486005
2.838,16.210646,4.536703,-5.5725107,1.0459092,6.041401,0.30403984
2.84,16.21875,4.59548,-5.77269,0.9734136,5.750717,0.25905132
2.842,16.233788,4.6490464,-5.9719553,0.8984666,5.454741,0.21362495
2.844,16.255379,4.6967096,-6.1692605,0.82092226,5.1536083,0.1678145
2.846,16.282747,4.7379475,-6.363385,0.74061215,4.8474445,0.121721745
2.848,16.315199,4.7723026,-6.5532174,0.65736604,4.5363846,0.075493455
2.85,16.35176,4.799325,-6.7374125,0.5710614,4.2206006,0.029325664
2.852,16.391378,4.819023,-6.9146748,0.4816203,3.90032,-0.016533792
2.854,16.43278,4.831274,-7.08369,0.38902956,3.5758681,-0.061807334
2.856,16.475008,4.8361473,-7.243019,0.29334456,3.247647,-0.106193006
2.858,16.516682,4.833807,-7.391376,0.19471198,2.916165,-0.14938778
2.86,16.556585,4.824498,-7.527444,0.09336406,2.582029,-0.19107932
2.862,16.593376,4.8086367,-7.650084,-0.010395706,2.2459364,-0.2310152
2.864,16.625875,4.786721,-7.7581034,-0.11621834,1.9086823,-0.26898813
2.866,16.652607,4.7593236,-7.850714,-0.22371855,1.5711415,-0.30482757
2.868,16.672482,4.7270193,-7.926977,-0.33243272,1.2342799,-0.33837938
2.87,16.684532,4.690535,-7.986498,-0.44183713,0.899126,-0.3695588
2.872,16.68747,4.650668,-8.028751,-0.55138767,0.56673247,-0.39832664
2.874,16.680445,4.608286,-8.053532,-0.6604963,0.23817381,-0.42468077
2.876,16.66256,4.564104,-8.060867,-0.7685429,-0.085482806,-0.4486445
2.878,16.633228,4.5188704,-8.050852,-0.8748855,-0.4032255,-0.47024113
2.88,16.591843,4.4732966,-8.023788,-0.978867,-0.7140803,-0.4894786
2.882,16.53802,4.4282436,-7.9800935,-1.0798478,-1.0171397,-0.506355
2.884,16.47167,4.3842316,-7.92045,-1.1772166,-1.3116285,-0.52086383
2.886,16.3927,4.3418846,-7.8456697,-1.2703868,-1.5968839,-0.532985
2.888,16.301085,4.301992,-7.756663,-1.3588227,-1.872363,-0.54268575
2.89,16.197275,4.2650156,-7.654499,-1.4420292,-2.13766,-0.5499362
2.892,16.081583,4.2312775,-7.540208,-1.5195699,-2.3924997,-0.5547458
2.894,15.954347,4.201045,-7.414817,-1.5910845,-2.636754,-0.55717856
2.896,15.81614,4.174678,-7.279457,-1.6562759,-2.8704093,-0.5573278
2.898,15.66784,4.1521416,-7.135169,-1.7149175,-3.0935369,-0.55532736
2.9,15.510337,4.1337004,-6.983324,-1.7668313,-3.30629,-0.5513269
2.902,15.344667,4.119343,-6.8251324,-1.8118943,-3.508889,-0.5454933
2.904,15.17162,4.108906,-6.661668,-1.8500354,-3.7015932,-0.5380136
2.906,14.9922905,4.102253,-6.4940934,-1.8812222,-3.8846655,-0.52908033
2.908,14.807702,4.0992928,-6.3236904,-1.9054396,-4.0583797,-0.5188916
2.91,14.618983,4.0996914,-6.1515384,-1.9227111,-4.22296,-0.50763106
2.912,14.427217,4.1030984,-5.9787226,-1.9330885,-4.378595,-0.49548173
2.914,14.233302,4.1092796,-5.8062277,-1.9366428,-4.525425,-0.48261738
2.916,14.03838,4.117919,-5.6350923,-1.9334702,-4.663517,-0.46919245
2.918,13.843395,4.1287823,-5.4664235,-1.9236819,-4.792889,-0.45538098
2.92,13.649393,4.1415367,-5.3009024,-1.9073889,-4.913498,-0.4413017
2.922,13.457211,4.1558766,-5.1394553,-1.8847408,-5.0252748,-0.42708993
2.924,13.267835,4.171389,-4.9827447,-1.8558925,-5.1281266,-0.4128489
2.926,13.081847,4.18781,-4.831466,-1.820987,-5.2219467,-0.3986748
2.928,12.899993,4.204921,-4.6862493,-1.7801757,-5.306625,-0.38464773
2.93,12.723069,4.2223907,-4.547559,-1.7336282,-5.3821073,-0.37085032
2.932,12.551602,4.2400813,-4.4159284,-1.6815128,-5.4483466,-0.3573361
2.934,12.386253,4.2578278,-4.291841,-1.6240193,-5.5053363,-0.34414953
2.936,12.227346,4.275492,-4.1756268,-1.561336,-5.553105,-0.33133942
2.938,12.075241,4.2928905,-4.067621,-1.4936827,-5.591717,-0.3189171
2.94,11.930367,4.3100595,-3.9681091,-1.4212962,-5.6212564,-0.30687726
2.942,11.792905,4.326973,-3.877262,-1.3444102,-5.641829,-0.29521316
2.944,11.663219,4.3435984,-3.7951546,-1.2632735,-5.6535387,-0.28390127
2.946,11.541376,4.3599896,-3.7218912,-1.1781411,-5.6565213,-0.27289766
2.948,11.427402,4.37619,-3.6574483,-1.0892541,-5.650918,-0.26216304
2.95,11.321432,4.3922453,-3.6017814,-0.99685115,-5.636865,-0.2516387
2.952,11.223504,4.408284,-3.5547967,-0.901162,-5.6145453,-0.24128044
2.954,11.133526,4.42452,-3.516347,-0.8024144,-5.5841475,-0.23103988
2.956,11.051451,4.441083,-3.4863348,-0.70083594,-5.5458994,-0.22087657
2.958,10.9771,4.4581895,-3.4644625,-0.59664136,-5.5000668,-0.21073192
2.96,10.910261,4.475994,-3.45049,-0.4900468,-5.4469914,-0.20058274
2.962,10.850835,4.494591,-3.4441228,-0.3812669,-5.387039,-0.19040263
2.964,10.798597,4.5141587,-3.445028,-0.2705112,-5.3206553,-0.18020171
2.966,10.75337,4.534874,-3.452809,-0.15800701,-5.248348,-0.16999936
2.968,10.714864,4.5569277,-3.4670105,-0.043990865,-5.1706567,-0.15983558
2.97,10.68269,4.5802784,-3.4872475,0.07128285,-5.0881853,-0.14978051
2.972,10.656679,4.60518,-3.5130541,0.18754059,-5.001559,-0.13990396
2.974,10.63644,4.631707,-3.5440474,0.30448908,-4.911397,-0.13032603
2.976,10.621891,4.6597996,-3.5795534,0.42184305,-4.818324,-0.1211378
2.978,10.612533,4.6896896,-3.619234,0.5392943,-4.7229557,-0.11245048
2.98,10.608061,4.721318,-3.6624606,0.65655303,-4.6258674,-0.104367256
2.982,10.6082,4.7547054,-3.7087939,0.7733406,-4.527598,-0.09698737
2.984,10.612678,4.789797,-3.7577019,0.88939637,-4.428642,-0.09038973
2.986,10.621152,4.8265576,-3.808696,1.0044917,-4.329456,-0.08465445
2.988,10.633354,4.865037,-3.861332,1.1184347,-4.2304597,-0.079837084
2.99,10.649089,4.9050465,-3.9151304,1.2310731,-4.132027,-0.07595998
2.992,10.668029,4.9465137,-3.969817,1.3422847,-4.0345063,-0.07304299
2.994,10.689844,4.9894943,-4.0249367,1.4519808,-3.9382157,-0.07107049
2.996,10.714368,5.0339494,-4.080174,1.5600889,-3.8434355,-0.07000673
2.998,10.741495,5.079671,-4.135253,1.6665704,-3.750431,-0.06980753
3,10.770915,5.1266603,-4.189895,1.771396,-3.65944,-0.07041341
3.002,10.802294,5.174929,-4.243899,1.874527,-3.5706654,-0.07174724
3.004,10.835764,5.224391,-4.297059,1.9759488,-3.4842906,-0.07373196
3.006,10.8710165,5.2751617,-4.349274,2.0756335,-3.4004552,-0.07627344
3.008,10.907892,5.3272533,-4.4004564,2.173565,-3.3192985,-0.079282105
3.01,10.946366,5.3805456,-4.450464,2.2697144,-3.2409112,-0.08265364
3.012,10.986268,5.4351535,-4.4993234,2.3640628,-3.165365,-0.08628595
3.014,11.027409,5.4912987,-4.5469933,2.4566102,-3.0927083,-0.09004265
3.016,11.069826,5.5490875,-4.5935206,2.5473464,-3.0229964,-0.09377909
3.018,11.113419,5.6085463,-4.6389117,2.6362767,-2.9562643,-0.097355485
3.02,11.158186,5.6699677,-4.683167,2.7234383,-2.8925455,-0.1006338
3.022,11.204122,5.733455,-4.726293,2.808887,-2.8318837,-0.10347521
3.024,11.251235,5.7991567,-4.7682877,2.8926919,-2.7743378,-0.105760515
3.026,11.299253,5.8673143,-4.80909,2.9749374,-2.7199757,-0.10740119
3.028,11.348346,5.9381623,-4.848694,3.0557299,-2.6688874,-0.10832018
3.03,11.398481,6.011946,-4.887006,3.1351783,-2.6211762,-0.108495
3.032,11.449621,6.0888367,-4.9239693,3.213401,-2.5769467,-0.10790515
3.034,11.501621,6.169132,-4.9594145,3.2905092,-2.5363076,-0.106559396
3.036,11.554653,6.2530727,-4.993149,3.3666198,-2.4993699,-0.10448128
3.038,11.608513,6.3408284,-5.0248494,3.4418476,-2.4662375,-0.101694405
3.04,11.663111,6.4326434,-5.0543737,3.5162792,-2.437004,-0.098216414
3.042,11.718532,6.528719,-5.0813274,3.5899906,-2.4117496,-0.094049335
3.044,11.774574,6.6293573,-5.105245,3.6630447,-2.3905406,-0.089185536
3.046,11.831234,6.734684,-5.1257124,3.7354937,-2.3734214,-0.08359188
3.048,11.888357,6.844967,-5.1423726,3.8073695,-2.3604357,-0.077216804
3.05,11.945899,6.9604506,-5.1546955,3.878698,-2.3516028,-0.06998491
3.052,12.003706,7.0812693,-5.162091,3.9494843,-2.34692,-0.061798632
3.054,12.061658,7.207648,-5.164177,4.0197306,-2.3463478,-0.05256772
3.056,12.119696,7.33992,-5.160187,4.0894322,-2.3498538,-0.04217863
3.058,12.177624,7.4782553,-5.1497016,4.1585674,-2.357389,-0.030528545
3.06,12.235291,7.6228533,-5.132117,4.2271137,-2.3688834,-0.017513096
3.062,12.292461,7.773987,-5.106879,4.2950525,-2.3842494,-0.0030367374
3.064,12.349026,7.9318705,-5.0735464,4.3623996,-2.4034035,0.012992859
3.066,12.404832,8.096665,-5.031512,4.4291472,-2.4262605,0.030638576
3.068,12.459674,8.2686,-4.980356,4.4953303,-2.4527216,0.049966574
3.07,12.513401,8.447971,-4.919674,4.5610085,-2.4826822,0.07100791
3.072,12.56572,8.63486,-4.84914,4.626273,-2.5160441,0.093814254
3.074,12.616432,8.829548,-4.76842,4.6912065,-2.5527043,0.11841333
3.076,12.665167,9.031999,-4.677303,4.755922,-2.5925338,0.14482582
3.078,12.711681,9.242434,-4.575632,4.8205256,-2.635395,0.1730628
3.08,12.755775,9.460798,-4.463236,4.8851256,-2.6811361,0.20314014
3.082,12.79714,9.686891,-4.3400598,4.9498057,-2.7295878,0.23505282
3.084,12.835351,9.920607,-4.2061095,5.0146523,-2.7805667,0.26881206
3.086,12.869781,10.162032,-4.0615025,5.079726,-2.8338635,0.3044132
3.088,12.90007,10.410911,-3.9062338,5.145083,-2.889254,0.34185612
3.09,12.925408,10.667097,-3.7404299,5.2107544,-2.9464917,0.38113916
3.092,12.945293,10.930273,-3.5642233,5.2767687,-3.0053144,0.42226362
3.094,12.958966,11.200197,-3.3776562,5.3431506,-3.0654593,0.4652164
3.096,12.965523,11.476802,-3.1806638,5.4099073,-3.1266408,0.50999725
3.098,12.964791,11.7595005,-2.973967,5.4770513,-3.1885731,0.55662
3.1,12.955113,12.047846,-2.7567363,5.5445814,-3.2509913,0.60509765
3.102,12.9356365,12.341233,-2.5288863,5.6124706,-3.3136404,0.65544724
3.104,12.905092,12.63925,-2.2904758,5.680669,-3.3763325,0.70767283
3.106,12.86245,12.9414215,-2.0413272,5.749085,-3.4389286,0.7617476
3.108,12.806105,13.247567,-1.7811522,5.8175945,-3.5013568,0.8176336
3.11,12.734832,13.557273,-1.5094929,5.8860497,-3.5635777,0.87527
3.112,12.64742,13.870228,-1.2258625,5.9542546,-3.625628,0.93457973
3.114,12.542022,14.186379,-0.9295211,6.0219707,-3.6876116,0.9954654
3.116,12.417411,14.505014,-0.6195898,6.088896,-3.7497082,1.0578026
3.118,12.272249,14.825253,-0.29507256,6.1547184,-3.8121033,1.1214352
3.12,12.105085,15.146142,0.045084476,6.219108,-3.874968,1.1861988
3.122,11.914603,15.466571,0.4023347,6.281744,-3.9383829,1.2519288
3.124,11.699515,15.785489,0.7781067,6.3423915,-4.002233,1.3185179
3.126,11.458871,16.101814,1.1739349,6.4008665,-4.066151,1.3858712
3.128,11.191802,16.41434,1.5912938,6.457145,-4.129543,1.454005
3.13,10.897858,16.721712,2.0318508,6.5113287,-4.191474,1.523034
3.132,10.576478,17.022263,2.496715,6.5637083,-4.2505093,1.5931978
3.134,10.227875,17.3148,2.9870872,6.6147456,-4.3048315,1.6648505
3.136,9.8530035,17.597416,3.504508,6.6650543,-4.352277,1.7384591
3.138,9.452861,17.867594,4.0491996,6.71541,-4.3902645,1.8145478
3.14,9.028545,18.122837,4.621793,6.7667074,-4.415907,1.8936939
3.142,8.582153,18.360424,5.222442,6.81993,-4.426084,1.976488
3.144,8.116209,18.57735,5.8508167,6.8761106,-4.4174924,2.0635042
3.146,7.6336837,18.770367,6.506174,6.9363203,-4.386727,2.1552765
3.148,7.138344,18.936275,7.1873097,7.001573,-4.3304048,2.2523026
3.15,6.6341157,19.07195,7.892401,7.072813,-4.2452416,2.3549864
3.152,6.1254616,19.174185,8.618845,7.1508865,-4.128108,2.4635627
3.154,5.6173553,19.239708,9.363482,7.236577,-3.9760666,2.578103
3.156,5.115021,19.265512,10.122472,7.3305793,-3.7864928,2.698424
3.158,4.623919,19.248632,10.891647,7.4334464,-3.5571535,2.8241029
3.16,4.149385,19.18642,11.666094,7.545558,-3.286376,2.9545045
3.162,3.6968188,19.076733,12.440545,7.6669874,-2.9731321,3.088827
3.164,3.2714598,18.917782,13.209409,7.797523,-2.6172833,3.2261727
3.166,2.8781765,18.708336,13.966614,7.936584,-2.219652,3.3656938
3.168,2.5212603,18.447918,14.706177,8.083051,-1.7820035,3.5066197
3.17,2.2042136,18.136972,15.421858,8.235302,-1.3071461,3.6484804
3.172,1.9300923,17.776663,16.107433,8.391239,-0.7988099,3.7911189
3.174,1.7007183,17.36917,16.756866,8.548333,-0.26154923,3.9346251
3.176,1.5171545,16.91742,17.364124,8.7036915,0.29943323,4.0792866
3.178,1.3794624,16.425362,17.923534,8.854162,0.87847304,4.225427
3.18,1.2866119,15.89759,18.429966,8.996494,1.4697328,4.3733244
3.182,1.2366083,15.339706,18.878658,9.127436,2.0674567,4.523052
3.184,1.2263532,14.757766,19.265526,9.243874,2.6660924,4.6744623
3.186,1.252152,14.158519,19.58705,9.342924,3.2603807,4.827191
3.188,1.309235,13.549107,19.840517,9.42205,3.8456533,4.9807405
3.19,1.3925252,12.93713,20.023603,9.479171,4.4178395,5.1345444
3.192,1.4961938,12.330138,20.13467,9.512702,4.973423,5.2880664
3.194,1.6143397,11.735499,20.172817,9.52166,5.5094705,5.4408474
3.196,1.7408742,11.160419,20.137733,9.505684,6.023629,5.5924897
3.198,1.8698484,10.6117,20.029732,9.465021,6.51405,5.7426457
3.2,1.9958012,10.095514,19.849907,9.400487,6.9793005,5.890901
3.202,2.1135826,9.616789,19.599783,9.313391,7.418341,6.036628
3.204,2.2183094,9.180227,19.281315,9.205354,7.830404,6.178945
3.206,2.3056364,8.789751,18.896946,9.078132,8.214865,6.316673
3.208,2.3717904,8.448153,18.450146,8.933445,8.571159,6.448354
3.21,2.4148402,8.157354,17.943302,8.772845,8.89874,6.5722675
3.212,2.4325871,7.918298,17.380135,8.59764,9.197016,6.6865454
3.214,2.423901,7.730918,16.764542,8.408862,9.465374,6.7892833
3.216,2.3882568,7.594304,16.100578,8.207256,9.70313,6.8786
3.218,2.3261104,7.5066524,15.392293,7.993269,9.909597,6.9527884
3.22,2.2382302,7.465294,14.644076,7.7671824,10.084125,7.010347
3.222,2.1258867,7.4671273,13.860636,7.52924,10.226019,7.050104
3.224,1.9908502,7.508452,13.046629,7.279653,10.334716,7.0710745
3.226,1.8350868,7.5855064,12.206738,7.018628,10.409746,7.072559
3.228,1.6607244,7.6941867,11.345853,6.7465053,10.450816,7.0541124
3.23,1.4702189,7.8300157,10.468915,6.463758,10.457817,7.0155406
3.232,1.2661016,7.9881134,9.580675,6.1709995,10.430827,6.9569597
3.234,1.0509813,8.163247,8.68601,5.869012,10.370132,6.8787713
3.236,0.82691264,8.350193,7.78959,5.5587425,10.276213,6.781541
3.238,0.5961127,8.543857,6.896258,5.2412577,10.149709,6.665984
3.24,0.36057472,8.739224,6.0104766,4.9177027,9.991461,6.533001
3.242,0.12230933,8.931658,5.136931,4.5892334,9.802488,6.3836393
3.244,-0.117437124,9.11637,4.27985,4.2570114,9.583989,6.219124
3.246,-0.3576188,9.2894125,3.4428606,3.9221222,9.337378,6.040842
3.248,-0.5972545,9.44753,2.630444,3.585606,9.064315,5.8503723
3.25,-0.83527315,9.587747,1.8459953,3.2484374,8.766655,5.6495323
3.252,-1.0713067,9.707472,1.0928578,2.9115725,8.446496,5.4403114
3.254,-1.305163,9.804761,0.37402713,2.5759857,8.106169,5.2248735
3.256,-1.5367999,9.8782425,-0.30777943,2.2427354,7.7481723,5.0055428
3.258,-1.7663978,9.926914,-0.950169,1.9129908,7.375144,4.784679
3.26,-1.9944338,9.950325,-1.5509949,1.5880519,6.9898176,4.564623
3.262,-2.2213204,9.948609,-2.1082094,1.269336,6.5949216,4.3475547
3.264,-2.4476368,9.922687,-2.62019,0.9583483,6.1931453,4.13548
3.266,-2.6742003,9.873822,-3.0856335,0.6566204,5.7870398,3.9301267
3.268,-2.9015973,9.803802,-3.5036714,0.36566544,5.378987,3.732927
3.27,-3.130683,9.714786,-3.8736942,0.086897016,4.971215,3.5449753
3.272,-3.3618991,9.609014,-4.195503,-0.17845058,4.565792,3.3670068
3.274,-3.5960884,9.48911,-4.4691324,-0.42936325,4.164594,3.1994147
3.276,-3.8336549,9.357722,-4.6950197,-0.6650686,3.769383,3.0422447
3.278,-4.075057,9.217511,-4.873779,-0.8850782,3.3818035,2.8952413
3.28,-4.320415,9.070858,-5.006571,-1.0891534,3.0033731,2.7578883
3.282,-4.569997,8.919921,-5.094604,-1.2773577,2.635498,2.6294537
3.284,-4.8235903,8.766878,-5.139461,-1.4499677,2.2794495,2.5090158
3.286,-5.0811357,8.613576,-5.142872,-1.607472,1.9363341,2.3954816
3.288,-5.3422213,8.461428,-5.106736,-1.7505718,1.6070533,2.2876756
3.29,-5.6063905,8.311757,-5.0333605,-1.8801278,1.2923024,2.1845145
3.292,-5.8731,8.165319,-4.9251595,-1.9970896,0.9925659,2.0849633
3.294,-6.141518,8.022713,-4.784675,-2.1024501,0.70812726,1.9880526
3.296,-6.4109836,7.8842225,-4.614495,-2.197193,0.43911457,1.8929693
3.298,-6.6804442,7.7497716,-4.4174457,-2.2822819,0.18552902,1.799067
3.3,-6.948991,7.618966,-4.1960783,-2.3585968,-0.05270037,1.705878
3.302,-7.2156177,7.491478,-3.9528415,-2.4268923,-0.27569857,1.6131195
3.304,-7.4793396,7.366712,-3.6903372,-2.4877987,-0.4836022,1.5206144
3.306,-7.739103,7.2439775,-3.4111655,-2.541823,-0.67653775,1.4283333
3.308,-7.993997,7.122492,-3.1177301,-2.589352,-0.85462976,1.3363614
3.31,-8.243169,7.0016866,-2.8126028,-2.6306798,-1.0179933,1.2448454
3.312,-8.485834,6.8813577,-2.4980817,-2.6660092,-1.166705,1.154003
3.314,-8.720961,6.760601,-2.1763487,-2.6955047,-1.30085,1.0640898
3.316,-8.947173,6.6384344,-1.8495128,-2.7192874,-1.420506,0.9754096
3.318,-9.164091,6.5146756,-1.5196309,-2.737456,-1.5257564,0.8882792
3.32,-9.370778,6.3888144,-1.1884851,-2.7500987,-1.6166868,0.8030349
3.322,-9.566433,6.26048,-0.85783386,-2.7573233,-1.6934019,0.72002673
3.324,-9.75034,6.129337,-0.52917576,-2.7591994,-1.7560422,0.63961905
3.326,-9.922013,5.9952106,-0.2041502,-2.755807,-1.8047783,0.5621539
3.328,-10.080935,5.8580246,0.11582613,-2.7472086,-1.8398333,0.48794448
3.33,-10.226746,5.718043,0.42921448,-2.7334764,-1.8614863,0.41723752
3.332,-10.359091,5.5753694,0.73447037,-2.7146666,-1.8700944,0.35020208
3.334,-10.477501,5.430189,1.0302601,-2.690841,-1.8660876,0.28692114
3.336,-10.5819645,5.282908,1.3154392,-2.6620505,-1.8499665,0.2273941
3.338,-10.672375,5.1340714,1.5888925,-2.6283844,-1.8222991,0.17152834
3.34,-10.748799,4.984214,1.8496141,-2.589944,-1.7837381,0.119167924
3.342,-10.8114605,4.833963,2.0967536,-2.546854,-1.734993,0.07009518
3.344,-10.860611,4.684018,2.3294883,-2.4992762,-1.6768019,0.02406323
3.346,-10.896354,4.535019,2.5474148,-2.447397,-1.6099218,-0.019193769
3.348,-10.919191,4.3875756,2.7499986,-2.3914266,-1.5350921,-0.059931636
3.35,-10.929546,4.2423363,2.9369254,-2.3315895,-1.4530265,-0.09839684
3.352,-10.92786,4.099927,3.1080256,-2.2681165,-1.3643867,-0.1348055
3.354,-10.914505,3.9608257,3.2632127,-2.201236,-1.2697804,-0.16935915
3.356,-10.890232,3.8256893,3.4024715,-2.1312103,-1.1697397,-0.20222884
3.358,-10.855595,3.6950605,3.5257149,-2.058302,-1.0647416,-0.2335726
3.36,-10.8113,3.5692773,3.6330457,-1.9827781,-0.95520765,-0.2635305
3.362,-10.757809,3.4488106,3.7245388,-1.9049276,-0.84151405,-0.29225653
3.364,-10.695753,3.3338256,3.8004656,-1.8250526,-0.72400826,-0.31988722
3.366,-10.62582,3.2245803,3.8610392,-1.7434623,-0.6030365,-0.34656918
3.368,-10.548628,3.1212914,3.9065256,-1.6604681,-0.47891632,-0.3724593
3.37,-10.464703,3.0240073,3.9373589,-1.576381,-0.35198778,-0.39771444
3.372,-10.374594,2.932844,3.953857,-1.4915195,-0.22262037,-0.42247203
3.374,-10.279013,2.8478532,3.9564235,-1.406182,-0.09119895,-0.44688296
3.376,-10.178341,2.7689378,3.945491,-1.3206321,0.041877232,-0.4710673
3.378,-10.0731735,2.6961172,3.921471,-1.2351408,0.176173,-0.495111
3.38,-9.963814,2.6292272,3.8847911,-1.1499275,0.31123304,-0.51907337
3.382,-9.850914,2.5682163,3.8358753,-1.0652083,0.4465901,-0.542989
3.384,-9.734732,2.5129056,3.7751534,-0.98116845,0.5817332,-0.5668726
3.386,-9.6156845,2.4630828,3.7030962,-0.89797974,0.7161623,-0.5907116
3.388,-9.494104,2.4185627,3.620082,-0.81580645,0.8493635,-0.61449975
3.39,-9.370234,2.3791378,3.526702,-0.73478156,0.9808203,-0.63822764
3.392,-9.244289,2.3446524,3.4233918,-0.6550441,1.1100267,-0.6619022
3.394,-9.11664,2.3147266,3.3106008,-0.5767152,1.236519,-0.685564
3.396,-8.987318,2.2891126,3.1887965,-0.49990624,1.3598645,-0.70927334
3.398,-8.8565445,2.2674732,3.0585074,-0.42472643,1.4796528,-0.7331232
3.4,-8.724349,2.2495608,2.9202363,-0.35128576,1.5955191,-0.7572204
3.402,-8.590733,2.235101,2.774573,-0.27967215,1.7071282,-0.78169686
3.404,-8.455923,2.2237678,2.6220305,-0.20998251,1.814156,-0.8066957
3.406,-8.319849,2.2152674,2.4630516,-0.14230222,1.916277,-0.8323736
3.408,-8.182616,2.2092235,2.2983456,-0.07673648,2.0131574,-0.8588774
3.41,-8.044313,2.2055,2.1285613,-0.013387948,2.104417,-0.88636386
3.412,-7.9048467,2.2037086,1.9543049,0.047617257,2.1896563,-0.9149667
3.414,-7.764071,2.2035758,1.7761788,0.10614267,2.268451,-0.9448206
3.416,-7.6220016,2.20484,1.594924,0.16204512,2.3403618,-0.9760314
3.418,-7.4787025,2.2073228,1.4113266,0.21518803,2.4049602,-1.0086913
3.42,-7.3341484,2.2108479,1.2261353,0.26541156,2.461852,-1.0428493
3.422,-7.188328,2.2153044,1.0401607,0.31258214,2.5106897,-1.0785102
3.424,-7.041111,2.2206511,0.85423064,0.3565824,2.551215,-1.1156272
3.426,-6.892747,2.2269173,0.6691737,0.39733386,2.5832691,-1.1541166
3.428,-6.7431126,2.2340732,0.48590612,0.43478203,2.6067982,-1.1938419
3.43,-6.592224,2.2423468,0.30517197,0.46889955,2.6218271,-1.2346323
3.432,-6.440087,2.2517517,0.12781,0.499712,2.6285,-1.2762904
3.434,-6.2869215,2.2626185,-0.045395374,0.52726007,2.6270459,-1.3185878
3.436,-6.132675,2.2751956,-0.21370268,0.5516361,2.6177707,-1.3612828
3.438,-5.9774,2.2897573,-0.37635303,0.5729356,2.6010408,-1.4041268
3.44,-5.821166,2.3067133,-0.5327995,0.59128016,2.5772557,-1.4469029
3.442,-5.664065,2.326436,-0.68223286,0.6068141,2.546873,-1.489398
3.444,-5.506229,2.3493958,-0.8243332,0.61966527,2.510374,-1.5314345
3.446,-5.347612,2.375978,-0.95844245,0.6299933,2.4682338,-1.5728722
3.448,-5.18832,2.4065142,-1.0843135,0.63793045,2.420944,-1.6136124
3.45,-5.028323,2.4414299,-1.2016168,0.6436031,2.3689723,-1.6536007
3.452,-4.8676996,2.481107,-1.3100293,0.6471426,2.3127887,-1.6928184
3.454,-4.7064896,2.5258574,-1.4093386,0.64867085,2.2528453,-1.7312764
3.456,-4.5447936,2.5760841,-1.4995431,0.6482898,2.1895635,-1.7690144
3.458,-4.3825154,2.6320536,-1.5805975,0.6461079,2.1233518,-1.8060879
3.46,-4.219671,2.694008,-1.6525551,0.6422324,2.0545976,-1.8425709
3.462,-4.0561595,2.7620873,-1.715492,0.63676405,1.9836593,-1.8785522
3.464,-3.8920016,2.8365157,-1.769572,0.629799,1.9108717,-1.914137
3.466,-3.7269993,2.917255,-1.8149538,0.6214179,1.8365136,-1.9494491
3.468,-3.5612452,3.0043588,-1.8517457,0.6117072,1.7608267,-1.9846141
3.47,-3.394495,3.0977452,-1.8802302,0.6007149,1.6840093,-2.0197773
3.472,-3.2267623,3.1972966,-1.9004304,0.5884873,1.6062051,-2.0550761
3.474,-3.057975,3.3028777,-1.9127572,0.57506883,1.5275128,-2.090663
3.476,-2.8878994,3.4142287,-1.9173344,0.56045246,1.4480022,-2.12668
3.478,-2.7165315,3.5310516,-1.9142874,0.5446309,1.3677027,-2.1632648
3.48,-2.5436296,3.653062,-1.9038976,0.5275825,1.2866104,-2.2005436
3.482,-2.3692338,3.779864,-1.8863406,0.5092772,1.2047197,-2.2385921
3.484,-2.1931803,3.9110513,-1.861849,0.48969406,1.1220417,-2.2774868
3.486,-2.01535,4.046289,-1.8305446,0.46879256,1.03857,-2.317269
3.488,-1.8356776,4.1852107,-1.7926433,0.4465568,0.95433134,-2.3579502
3.49,-1.6540678,4.3272843,-1.7481873,0.42297804,0.8693736,-2.3995152
3.492,-1.4703461,4.4720793,-1.6974604,0.39808238,0.78377014,-2.4419394
3.494,-1.2844455,4.619174,-1.6406107,0.37189257,0.6976155,-2.4851675
3.496,-1.0962691,4.768091,-1.5777991,0.34445584,0.61101645,-2.5291455
3.498,-0.9055878,4.918378,-1.5093067,0.31584966,0.52410066,-2.5738044
3.5,-0.71255034,5.0695024,-1.4352634,0.28614986,0.43701306,-2.6190908
3.502,-0.5170833,5.2210474,-1.355952,0.25544572,0.3498594,-2.66497
3.504,-0.3190574,5.3724756,-1.2715346,0.2238133,0.26275772,-2.711424
3.506,-0.11862403,5.5235324,-1.182302,0.19131005,0.17577413,-2.7584758
3.508,0.0843001,5.6736765,-1.0885739,0.15797424,0.088937014,-2.8061597
