Time_s_,Acc_x_m_s_2_,Acc_y_m_s_2_,Acc_z_m_s_2_,Gyro_x_1_s_,Gyro_y_1_s_,Gyro_z_1_s_
0,-0.33481193,0.101729184,-0.3874852,-0.060708076,-0.67775685,0.5203428
0.002,-0.34197885,0.11378671,-0.38828263,-0.056964725,-0.67501986,0.5254949
0.004,-0.35095662,0.12837839,-0.3897833,-0.0526644,-0.671667,0.53118527
0.006,-0.36162558,0.14539863,-0.39240396,-0.047780693,-0.6676307,0.53740054
0.008,-0.3740071,0.16492938,-0.39680108,-0.042381585,-0.6629338,0.544148
0.01,-0.38806814,0.18691462,-0.40326983,-0.036429346,-0.6572491,0.5515393
0.012,-0.40374646,0.21128707,-0.41236433,-0.029796362,-0.6501812,0.5597558
0.014,-0.42084405,0.23795454,-0.42425093,-0.022430837,-0.64189553,0.5687868
0.016,-0.43927872,0.26690465,-0.43900964,-0.014219075,-0.6322037,0.5787545
0.018,-0.45882192,0.2979411,-0.45685682,-0.005085796,-0.62078494,0.58989716
0.02,-0.47919422,0.33081132,-0.4780955,0.00507766,-0.6074237,0.60238266
0.022,-0.50014496,0.36517972,-0.5029087,0.016441047,-0.5918704,0.6164234
0.024,-0.5211799,0.40064493,-0.5313178,0.02924639,-0.5738714,0.63237554
0.026,-0.54196155,0.43688488,-0.5634596,0.043798715,-0.5532202,0.65063256
0.028,-0.56197065,0.47359204,-0.5992284,0.06065455,-0.5295642,0.6718623
0.03,-0.58081454,0.5104477,-0.6384406,0.079830736,-0.503196,0.6959151
0.032,-0.5978647,0.5470661,-0.68095934,0.10149345,-0.47441098,0.72299325
0.034,-0.6124228,0.5830841,-0.726477,0.12563945,-0.44378555,0.75308025
0.036,-0.6240785,0.61826605,-0.7746741,0.15198487,-0.41214994,0.78590614
0.038,-0.6321457,0.65231866,-0.82509667,0.17995298,-0.38058662,0.8209604
0.04,-0.6360032,0.68504345,-0.87724936,0.20867276,-0.35032833,0.8575089
0.042,-0.6351031,0.7161896,-0.93056846,0.23704861,-0.32266533,0.8946723
0.044,-0.6290283,0.7456759,-0.9843188,0.2638737,-0.2987946,0.9315395
0.046,-0.6172942,0.77336216,-1.0378331,0.28797212,-0.27970576,0.96721953
0.048,-0.5995895,0.7991172,-1.0903803,0.3083757,-0.26605576,1.0009167
0.05,-0.5755322,0.8228143,-1.1412009,0.32444018,-0.25815818,1.0320028
0.052,-0.5449751,0.8443506,-1.1898355,0.33593547,-0.25599834,1.0600641
0.054,-0.5079844,0.8637863,-1.2354949,0.34308347,-0.25925142,1.0849046
0.056,-0.4644165,0.8814244,-1.278241,0.3464919,-0.2673939,1.106524
0.058,-0.41466722,0.8970067,-1.3168685,0.34703577,-0.27978006,1.1250635
0.06,-0.35875857,0.91062284,-1.3509128,0.34570667,-0.2956919,1.1407405
0.062,-0.2971001,0.92226774,-1.3800044,0.3435075,-0.3144061,1.1537744
0.064,-0.23025778,0.9321289,-1.4038647,0.34117484,-0.33550012,1.1643494
0.066,-0.15900213,0.94019663,-1.4221034,0.33917257,-0.35856983,1.1726336
0.068,-0.08406949,0.94658774,-1.4346613,0.33781812,-0.38287845,1.178967
0.07,-0.0063412786,0.9515501,-1.4413515,0.3371547,-0.4081993,1.1835716
0.072,0.07280663,0.95538807,-1.4420041,0.3371262,-0.4343865,1.1866264
0.074,0.152304,0.95858014,-1.4368429,0.33753234,-0.4611984,1.1884569
0.076,0.23061347,0.9616421,-1.425654,0.33812916,-0.48847243,1.1893612
0.078,0.30656567,0.9650612,-1.4085865,0.33867466,-0.516072,1.189545
0.08,0.37877566,0.9694745,-1.3859652,0.33898577,-0.5438962,1.1892347
0.082,0.44538257,0.9754479,-1.3580568,0.33895868,-0.57189405,1.1886729
0.084,0.5050435,0.9836472,-1.325168,0.33859187,-0.6000474,1.188029
0.086,0.55684704,0.99456394,-1.2877601,0.337956,-0.6283092,1.1874077
0.088,0.59897375,1.0090802,-1.2473159,0.33714885,-0.6566202,1.1868446
0.09,0.629441,1.02806,-1.204751,0.33630177,-0.6849276,1.1863071
0.092,0.6464659,1.0527184,-1.155639,0.33554617,-0.7131335,1.1856909
0.094,0.65042216,1.0830564,-1.1036217,0.3350237,-0.74107313,1.184874
0.096,0.6406746,1.1199316,-1.0515141,0.33485746,-0.7685021,1.1837182
0.098,0.6159874,1.1639051,-0.9985893,0.33517152,-0.7951287,1.1821195
0.1,0.5762242,1.2151328,-0.9462595,0.33606812,-0.8205671,1.1800344
0.102,0.5215998,1.2740178,-0.8959182,0.33764032,-0.84437394,1.17748
0.104,0.452677,1.3403234,-0.8487512,0.33997014,-0.8660735,1.1745119
0.106,0.37037742,1.4134334,-0.80602187,0.34311262,-0.8851774,1.1712065
0.108,0.27584368,1.4926207,-0.76918936,0.34709767,-0.9012326,1.1676323
0.11,0.17021632,1.5772715,-0.73911947,0.3519273,-0.9138652,1.1638125
0.112,0.054748893,1.6667212,-0.7160841,0.3575598,-0.9228502,1.1597447
0.114,-0.06912005,1.759965,-0.7008961,0.36391535,-0.92812324,1.1553684
0.116,-0.1993398,1.8559403,-0.6939255,0.37085813,-0.92982805,1.1505449
0.118,-0.33369178,1.9533565,-0.6947749,0.37821117,-0.92832375,1.1450654
0.12,-0.47033,2.0511076,-0.7028545,0.38571113,-0.92417103,1.1386812
0.122,-0.6064715,2.1477635,-0.7179371,0.39300373,-0.91812295,1.1310943
0.124,-0.73924655,2.2415366,-0.7414421,0.39970654,-0.91106564,1.1219587
0.126,-0.86715436,2.331435,-0.773622,0.4053845,-0.9040117,1.1109022
0.128,-0.98869014,2.417012,-0.8132571,0.40961257,-0.8980111,1.0975481
0.13,-1.1014216,2.4971628,-0.85892457,0.41197845,-0.89409876,1.081568
0.132,-1.2031224,2.5705085,-0.909688,0.41212085,-0.89329875,1.0626866
0.134,-1.292727,2.6361666,-0.96401936,0.4097482,-0.8965524,1.0407537
0.136,-1.369194,2.6931648,-1.0196949,0.4046524,-0.9046646,1.0157286
0.138,-1.4317486,2.7408948,-1.0743469,0.39673674,-0.918277,0.9876895
0.14,-1.4792838,2.7785623,-1.1257452,0.38601485,-0.9379372,0.9567843
0.142,-1.5114328,2.8055959,-1.170989,0.372603,-0.9640252,0.92321557
0.144,-1.5278156,2.8215618,-1.20805,0.35671833,-0.9966861,0.8872457
0.146,-1.5280585,2.826233,-1.235336,0.33858433,-1.035978,0.84918165
0.148,-1.5126891,2.8197384,-1.2510585,0.31843504,-1.0817765,0.80934864
0.15,-1.482269,2.802577,-1.253677,0.29658505,-1.1336306,0.7680377
0.152,-1.4370562,2.7754006,-1.2421223,0.27337694,-1.1909378,0.7254205
0.154,-1.3774046,2.7385788,-1.2153244,0.24918753,-1.2529392,0.6817239
0.156,-1.304348,2.6927872,-1.1726806,0.2243399,-1.3187447,0.63724285
0.158,-1.2190384,2.6387725,-1.1137034,0.1992318,-1.3871765,0.5922805
0.16,-1.1227744,2.5770822,-1.0382208,0.17436802,-1.456753,0.5471232
0.162,-1.0165733,2.50809,-0.9464776,0.15031648,-1.5258434,0.5021528
0.164,-0.9013297,2.431888,-0.8390994,0.12768084,-1.5927327,0.45792156
0.166,-0.7782808,2.348792,-0.7168513,0.10709661,-1.6556718,0.41516066
0.168,-0.649014,2.2592669,-0.5811667,0.08919877,-1.7130377,0.37468112
0.17,-0.5155458,2.1641436,-0.4335889,0.07461804,-1.7634847,0.33731136
0.172,-0.3789211,2.0640461,-0.27562377,0.063955784,-1.8060417,0.3038129
0.174,-0.2401849,1.9591875,-0.10890517,0.057795525,-1.8401692,0.27475142
0.176,-0.10081148,1.8504022,0.06458372,0.056592286,-1.8658063,0.25042012
0.178,0.037545264,1.7384205,0.2430549,0.06057489,-1.8833482,0.23077577
0.18,0.1738286,1.6237202,0.4245419,0.06972581,-1.8934677,0.21541569
0.182,0.3070898,1.5067579,0.60697913,0.08376515,-1.8970153,0.20355582
0.184,0.4360877,1.388144,0.78907555,0.10213411,-1.8948624,0.19414449
0.186,0.5599761,1.2685181,0.9695573,0.12408054,-1.8877758,0.1860702
0.188,0.6780429,1.1485199,1.146755,0.1487059,-1.876343,0.17827728
0.19,0.7895254,1.0288312,1.3196424,0.17508745,-1.8609431,0.16992483
0.192,0.89447325,0.9100405,1.4873279,0.2023409,-1.8417665,0.16046831
0.194,0.99261045,0.7927097,1.6488388,0.22970074,-1.8188525,0.1497221
0.196,1.0840374,0.6772688,1.8031077,0.25659645,-1.7922056,0.13780835
0.198,1.1690562,0.56431085,1.949408,0.2826532,-1.761879,0.124963924
0.2,1.2480434,0.45427006,2.087174,0.30770797,-1.7278626,0.11143263
0.202,1.3211418,0.34790745,2.2150178,0.3316688,-1.6902173,0.097393036
0.204,1.3882941,0.24578884,2.3311343,0.35448843,-1.6491249,0.082932964
0.206,1.44911,0.14868239,2.432601,0.37612516,-1.6046834,0.06806789
0.208,1.5038663,0.0572204,2.5165532,0.39655572,-1.5569104,0.05265051
0.21,1.553139,-0.028334528,2.5801528,0.41581458,-1.5056969,0.036502495
0.212,1.597757,-0.10781208,2.621353,0.43392956,-1.4509726,0.019589022
0.214,1.6381484,-0.18062489,2.6386,0.45093784,-1.3926929,0.0020570457
0.216,1.6737103,-0.24538131,2.630539,0.46700376,-1.3306899,-0.015848339
0.218,1.7037921,-0.30107516,2.5975153,0.48241383,-1.2647781,-0.033865556
0.22,1.7280147,-0.34710118,2.539429,0.4975208,-1.194834,-0.051737323
0.222,1.7468106,-0.38372275,2.4554298,0.5127115,-1.1208082,-0.069222435
0.224,1.760428,-0.41117668,2.3439345,0.5283527,-1.0427673,-0.086185426
0.226,1.7683971,-0.4295711,2.202032,0.54480135,-0.9609668,-0.102640525
0.228,1.7708116,-0.43914595,2.026564,0.56237555,-0.87587124,-0.11869442
0.23,1.7679324,-0.4398449,1.8157825,0.5814458,-0.78807455,-0.13453351
0.232,1.7597603,-0.43104976,1.5705596,0.6023684,-0.69835246,-0.15034428
0.234,1.7462908,-0.41155595,1.294183,0.62542146,-0.6077359,-0.16617219
0.236,1.728699,-0.3808364,0.989128,0.6506894,-0.51749766,-0.18177205
0.238,1.7075751,-0.3389517,0.6575921,0.67797035,-0.4292553,-0.19662488
0.24,1.6825311,-0.2852825,0.30273736,0.7067612,-0.34484565,-0.2099579
0.242,1.6537721,-0.21925592,-0.07093495,0.73625225,-0.2664516,-0.22074614
0.244,1.6224915,-0.14092964,-0.4584239,0.7653974,-0.19644341,-0.22785161
0.246,1.5895882,-0.050177038,-0.85450125,0.792904,-0.13741925,-0.23021777
0.248,1.555677,0.052835405,-1.2532367,0.8172498,-0.09212962,-0.22703391
0.25,1.5210843,0.16804099,-1.6480224,0.8366508,-0.06348741,-0.2177808
0.252,1.4861436,0.29513156,-2.0322146,0.8491969,-0.05443734,-0.202208
0.254,1.450923,0.43348294,-2.3982618,0.85311496,-0.06765044,-0.18040764
0.256,1.4154348,0.5818858,-2.7385583,0.84705734,-0.10518488,-0.15289088
0.258,1.3801363,0.7385911,-3.046488,0.83030176,-0.16812494,-0.120555565
0.26,1.3451128,0.9014856,-3.3160632,0.80297065,-0.25625288,-0.084651984
0.262,1.3098925,1.0685667,-3.5422199,0.76602393,-0.36780727,-0.04673912
0.264,1.2741263,1.2380459,-3.721405,0.72113276,-0.49939924,-0.008601028
0.266,1.2380782,1.4077182,-3.8504653,0.67045486,-0.6460966,0.027826324
0.268,1.201968,1.5753732,-3.9276485,0.6164626,-0.8017037,0.06064026
0.27,1.1657858,1.7392154,-3.9524846,0.5616922,-0.9593493,0.08817252
0.272,1.1297902,1.8974445,-3.925461,0.5085044,-1.1121093,0.10918555
0.274,1.0940404,2.0483108,-3.8484771,0.4588968,-1.2536547,0.12298182
0.276,1.0588679,2.190032,-3.724575,0.41435897,-1.3788159,0.12943053
0.278,1.0250769,2.32078,-3.5576358,0.37583315,-1.4838859,0.12887663
0.28,0.99358165,2.4389462,-3.3523998,0.3437186,-1.5667933,0.122017056
0.282,0.9634274,2.5442595,-3.114957,0.31798208,-1.6270461,0.10976535
0.284,0.9340442,2.636965,-2.852152,0.29827023,-1.6654654,0.09312931
0.286,0.9061191,2.7170954,-2.5713253,0.28409255,-1.6837151,0.073090345
0.288,0.8811833,2.784204,-2.2796803,0.27492124,-1.6838791,0.050536603
0.29,0.85927594,2.8390982,-1.9837267,0.27029836,-1.6680932,0.026227891
0.292,0.840964,2.882434,-1.6895626,0.26986504,-1.6382475,0.0008696914
0.294,0.8271377,2.9145372,-1.4037265,0.27331454,-1.5959558,-0.024901152
0.296,0.8181926,2.9364195,-1.1310661,0.28037715,-1.5424774,-0.050499946
0.298,0.8147505,2.949071,-0.87573695,0.29076445,-1.4789011,-0.075309515
0.3,0.81667477,2.9537106,-0.643093,0.30425704,-1.4061564,-0.098727345
0.302,0.82315606,2.9522264,-0.43684676,0.32073906,-1.3251393,-0.12025383
0.304,0.8336556,2.9468756,-0.25924647,0.34017903,-1.2367527,-0.13960639
0.306,0.8460187,2.9408505,-0.113609254,0.3625457,-1.1420279,-0.15677753
0.308,0.8583311,2.936293,-0.0033237934,0.38766512,-1.0422393,-0.17195185
0.31,0.87005436,2.9337904,0.07086581,0.41511405,-0.9388882,-0.18539564
0.312,0.8816701,2.9323735,0.11029005,0.44427258,-0.8336277,-0.19746454
0.314,0.8937253,2.9306266,0.11627966,0.4743966,-0.7281363,-0.20852569
0.316,0.9059873,2.9275074,0.09061301,0.50472754,-0.62403774,-0.21883434
0.318,0.9140373,2.924304,0.034430087,0.5346347,-0.52279824,-0.22839402
0.32,0.9215537,2.9194858,-0.047203243,0.56368744,-0.4256107,-0.23695125
0.322,0.9311814,2.9124207,-0.1560499,0.59157944,-0.33336332,-0.24410751
0.324,0.9417995,2.9049225,-0.28992832,0.618051,-0.24661686,-0.24930876
0.326,0.9536356,2.8988032,-0.44675905,0.6429554,-0.16549915,-0.25190657
0.328,0.966291,2.8971763,-0.63011914,0.6663358,-0.089684695,-0.25124043
0.33,0.9778967,2.904007,-0.8407508,0.688378,-0.018638998,-0.24666578
0.332,0.9864274,2.9224586,-1.0741396,0.70941144,0.048330247,-0.23753478
0.334,0.9900527,2.9542253,-1.3241049,0.7298376,0.11208686,-0.2233307
0.336,0.986765,3.0004447,-1.5860097,0.7500346,0.1734612,-0.20391625
0.338,0.9752414,3.0615497,-1.8563099,0.7702593,0.2330752,-0.17960984
0.34,0.9558556,3.1370263,-2.1332002,0.79059386,0.29129422,-0.15117596
0.342,0.9284735,3.2261848,-2.4155858,0.8109179,0.34817308,-0.11985128
0.344,0.8938097,3.3281093,-2.700963,0.83086705,0.4033503,-0.087331116
0.346,0.8533871,3.4416928,-2.985899,0.8499045,0.4560287,-0.05572188
0.348,0.8083968,3.5665383,-3.2667263,0.86727005,0.50466084,-0.027434573
0.35,0.75973296,3.7013,-3.538476,0.8821319,0.54737467,-0.00496912
0.352,0.70857525,3.8437157,-3.7969105,0.89381003,0.58195364,0.009247035
0.354,0.65568924,3.9908996,-4.039098,0.90165937,0.60551715,0.01293838
0.356,0.601563,4.139738,-4.2623043,0.9051409,0.6154747,0.0044464767
0.358,0.54682565,4.2872334,-4.463501,0.9039049,0.6095856,-0.017031789
0.36,0.4918959,4.4306254,-4.6396203,0.897894,0.58607167,-0.051433265
0.362,0.43774486,4.567686,-4.788252,0.88744676,0.54414934,-0.09768283
0.364,0.38552475,4.696023,-4.9064426,0.8733071,0.48436567,-0.15365773
0.366,0.3366394,4.8135095,-4.991316,0.85650504,0.40873593,-0.21627928
0.368,0.29236412,4.9186406,-5.04018,0.8382883,0.32058406,-0.2818606
0.37,0.2539544,5.0097437,-5.05039,0.8199918,0.22418469,-0.34659874
0.372,0.22263026,5.0853252,-5.0196557,0.80281055,0.12424171,-0.40709856
0.374,0.19893527,5.1444373,-4.9465165,0.78761744,0.025338262,-0.46077275
0.376,0.18304682,5.1868124,-4.8311253,0.77480644,-0.068608016,-0.5061855
0.378,0.17535877,5.212743,-4.674633,0.7642005,-0.15485284,-0.54334795
0.38,0.17561531,5.222657,-4.4789176,0.7549646,-0.23220414,-0.57361156
0.382,0.18304276,5.2178283,-4.246265,0.7457392,-0.30096313,-0.5992886
0.384,0.19736338,5.1998377,-3.9792304,0.7349291,-0.36253193,-0.62319785
0.386,0.21787643,5.1706233,-3.6803923,0.7210108,-0.41909096,-0.64818037
0.388,0.2441032,5.1321335,-3.3524575,0.702839,-0.47299337,-0.676506
0.39,0.27567697,5.086195,-2.9987054,0.67991066,-0.52597654,-0.7093839
0.392,0.3128426,5.0342517,-2.623088,0.65252686,-0.5786686,-0.7468375
0.394,0.35542345,4.9778237,-2.2299094,0.6217902,-0.6303438,-0.7878533
0.396,0.40239024,4.9185414,-1.8244443,0.5895028,-0.67883855,-0.83054686
0.398,0.45179093,4.859059,-1.4128588,0.5579692,-0.7207578,-0.8724695
0.4,0.502779,4.8009815,-1.0018058,0.5296318,-0.7519798,-0.91103876
0.402,0.55385256,4.7464147,-0.5978106,0.5067951,-0.76806164,-0.94391286
0.404,0.6033926,4.6974277,-0.2070458,0.49124435,-0.7653238,-0.96941304
0.406,0.65012646,4.6555276,0.16369486,0.48392695,-0.74121267,-0.98666674
0.408,0.6923747,4.622097,0.5088997,0.48506594,-0.69441235,-0.9956086
0.41,0.7293261,4.5980844,0.82477677,0.49408898,-0.62576157,-0.9971723
0.412,0.7603359,4.583729,1.1069462,0.50973356,-0.53768766,-0.9929969
0.414,0.7849438,4.578888,1.351335,0.53018755,-0.43377322,-0.98503524
0.416,0.8037965,4.582631,1.5565287,0.5533552,-0.31857666,-0.9754201
0.418,0.8173538,4.594847,1.7219689,0.57715714,-0.19714567,-0.9662585
0.42,0.8244547,4.6164546,1.845897,0.59973496,-0.07451302,-0.9593565
0.422,0.82415795,4.648309,1.9271882,0.6195189,0.04469922,-0.9560394
0.424,0.81623614,4.690512,1.9667224,0.63527375,0.15656134,-0.95711404
0.426,0.8018365,4.7416267,1.9667579,0.6460731,0.25790203,-0.9628551
0.428,0.78527987,4.797717,1.9297816,0.6512477,0.34620932,-0.97310126
0.43,0.7634851,4.857424,1.8552915,0.6503902,0.41957542,-0.9873775
0.432,0.7350633,4.9186726,1.7497867,0.64331514,0.47672954,-1.0049684
0.434,0.7030469,4.9770226,1.6171207,0.6300863,0.5170461,-1.0251193
0.436,0.67159474,5.027817,1.4608306,0.6110023,0.5404929,-1.0471416
0.438,0.6437162,5.0677214,1.2872633,0.58664787,0.5477594,-1.0704299
0.44,0.6219287,5.0943613,1.1010437,0.5579394,0.54029953,-1.0944313
0.442,0.6084281,5.1070194,0.90308785,0.5261397,0.5202693,-1.1186059
0.444,0.6044717,5.1063128,0.69430816,0.49280876,0.4903805,-1.1424042
0.446,0.6107888,5.092763,0.4780494,0.4596627,0.4537638,-1.1652589
0.448,0.62652016,5.0668006,0.25729668,0.42844492,0.41372547,-1.1865606
0.45,0.6497749,5.0288763,0.034631252,0.4007718,0.37348622,-1.2057712
0.452,0.6789229,4.979096,-0.18865073,0.37799585,0.33595747,-1.2224787
0.454,0.71221805,4.9176025,-0.4127562,0.3611601,0.3036139,-1.2364252
0.456,0.74756646,4.8449636,-0.63790137,0.35100466,0.27835763,-1.2476144
0.458,0.7840984,4.7615714,-0.8637497,0.34794685,0.26150244,-1.2562993
0.46,0.82109845,4.668932,-1.0904588,0.3521211,0.25374645,-1.2629856
0.462,0.8576026,4.5687823,-1.3167933,0.3634272,0.25526854,-1.2683997
0.464,0.89311945,4.4626856,-1.5409229,0.381534,0.26584512,-1.2734264
0.466,0.927197,4.3518033,-1.7612329,0.4058824,0.28486753,-1.2789581
0.468,0.9591472,4.2369447,-1.9768276,0.4357789,0.31135923,-1.2859318
0.47,0.98862755,4.118939,-2.187018,0.47037342,0.34404135,-1.2952693
0.472,1.014941,3.9984105,-2.3909047,0.5086539,0.3813944,-1.3076345
0.474,1.0372603,3.876484,-2.5880737,0.5494656,0.42163584,-1.3234454
0.476,1.055085,3.7544322,-2.7776647,0.59157634,0.46281362,-1.3429103
0.478,1.0679622,3.6332948,-2.958468,0.6336778,0.5028107,-1.3660026
0.48,1.0757232,3.5142462,-3.1290731,0.6744404,0.53941244,-1.392484
0.482,1.0786631,3.398364,-3.2876587,0.71255636,0.5703405,-1.4219671
0.484,1.0775518,3.286303,-3.431861,0.74678475,0.59334534,-1.453979
0.486,1.0729798,3.1789765,-3.5589423,0.77605927,0.60634,-1.4880323
0.488,1.0654645,3.0768,-3.6662555,0.7995217,0.607544,-1.5236418
0.49,1.0558839,2.9805546,-3.751279,0.81657493,0.5956458,-1.5603783
0.492,1.0451047,2.8907127,-3.8118882,0.8269419,0.5699414,-1.5978277
0.494,1.0333444,2.807907,-3.8470373,0.83066183,0.5304571,-1.6355076
0.496,1.0211124,2.7324774,-3.8568926,0.8280673,0.47794724,-1.6728737
0.498,1.0085216,2.6647735,-3.8426938,0.8197513,0.4138782,-1.7092474
0.5,0.9956405,2.605462,-3.8057027,0.8065095,0.34033233,-1.7438229
0.502,0.9827508,2.5550265,-3.7467275,0.78926647,0.25980067,-1.7757176
0.504,0.969745,2.5140643,-3.66672,0.7689885,0.17500651,-1.804031
0.506,0.95665634,2.4830217,-3.5665264,0.74665165,0.08870685,-1.8279247
0.508,0.94321334,2.4619765,-3.447388,0.7231748,0.0034720302,-1.846706
0.51,0.9293872,2.4508812,-3.3114378,0.6993724,-0.07840335,-1.8598584
0.512,0.914834,2.4494514,-3.1612916,0.675951,-0.15502453,-1.8671172
0.514,0.899676,2.457432,-3.0000112,0.6534882,-0.22491986,-1.8684707
0.516,0.88393474,2.4742808,-2.831087,0.63242567,-0.28708142,-1.8641176
0.518,0.8679809,2.4995327,-2.6580877,0.61309516,-0.34095067,-1.8545104
0.52,0.8521877,2.5324898,-2.485147,0.59572446,-0.38634384,-1.8403494
0.522,0.83697844,2.5725708,-2.3158903,0.58040226,-0.42329997,-1.8224161
0.524,0.8222864,2.6188974,-2.1537166,0.5671586,-0.4520668,-1.8015298
0.526,0.8085846,2.6706417,-2.0018392,0.55599874,-0.47308764,-1.7786466
0.528,0.7964119,2.726878,-1.8629622,0.54692787,-0.4868601,-1.7547199
0.53,0.78662837,2.7864351,-1.7391126,0.53990597,-0.4939667,-1.7306314
0.532,0.7803083,2.8481092,-1.6319563,0.53485984,-0.49510816,-1.7071879
0.534,0.7785369,2.91064,-1.5420798,0.53167284,-0.49108848,-1.6851287
0.536,0.78250706,2.9728625,-1.4695883,0.53014046,-0.4828051,-1.6650941
0.538,0.7932074,3.033909,-1.4137151,0.52994233,-0.47133604,-1.6476083
0.54,0.8117636,3.0929859,-1.3732013,0.53061646,-0.45797473,-1.6330565
0.542,0.83995664,3.1490824,-1.3467065,0.5315842,-0.44425222,-1.6216753
0.544,0.87942994,3.2012527,-1.3337352,0.5321202,-0.431884,-1.6135385
0.546,0.9289901,3.249967,-1.3317813,0.531419,-0.42271736,-1.6085688
0.548,0.98838764,3.2953649,-1.3375593,0.5286101,-0.4186106,-1.6065428
0.55,1.0576236,3.3381443,-1.3493929,0.5228566,-0.42124313,-1.6070765
0.552,1.1354835,3.379658,-1.3653235,0.5134263,-0.4318712,-1.6096563
0.554,1.2209206,3.4213517,-1.3826861,0.49981874,-0.4511573,-1.6136211
0.556,1.312681,3.464618,-1.3993015,0.4818198,-0.4790075,-1.6181362
0.558,1.4094663,3.511352,-1.4128774,0.45956296,-0.51453483,-1.6222434
0.56,1.5095441,3.5632129,-1.4216468,0.43351567,-0.5560993,-1.6249564
0.562,1.6110988,3.6219072,-1.423629,0.40442967,-0.60148877,-1.625317
0.564,1.7120545,3.6887572,-1.4171127,0.3732496,-0.64816934,-1.6224626
0.566,1.8105085,3.7649336,-1.400526,0.3409962,-0.69358826,-1.6156896
0.568,1.9043238,3.8514173,-1.3727905,0.30861846,-0.7354845,-1.6045163
0.57,1.9916904,3.9486325,-1.3338134,0.2768784,-0.7721209,-1.5887129
0.572,2.0707145,4.057364,-1.2840523,0.24627692,-0.8024554,-1.5682667
0.574,2.1399477,4.1783366,-1.2231694,0.21699321,-0.82616824,-1.5434058
0.576,2.197829,4.31178,-1.1497462,0.18891133,-0.8435893,-1.5144886
0.578,2.243516,4.4574914,-1.0626203,0.16166744,-0.85552275,-1.481985
0.58,2.277029,4.614196,-0.9612285,0.13476941,-0.86302924,-1.4463836
0.582,2.2986727,4.7802796,-0.84485054,0.10767446,-0.8672422,-1.4081479
0.584,2.3094735,4.953672,-0.71328044,0.07990201,-0.86917675,-1.3676922
0.586,2.3111153,5.1318517,-0.5662606,0.051100936,-0.8695578,-1.3253951
0.588,2.3060908,5.312242,-0.40344226,0.021088831,-0.86882067,-1.2816205
0.59,2.2971318,5.492184,-0.22471046,-0.010147668,-0.86710685,-1.236727
0.592,2.287301,5.6686153,-0.029759169,-0.042450063,-0.8642865,-1.1910865
0.594,2.2803898,5.838119,0.18148613,-0.07553006,-0.8600018,-1.1451192
0.596,2.2807908,5.9967184,0.4088683,-0.10897352,-0.8537573,-1.0992662
0.598,2.2927256,6.141087,0.65223503,-0.14225644,-0.8450435,-1.0539912
0.6,2.3205614,6.267359,0.91142297,-0.17482936,-0.8334087,-1.0097393
0.602,2.3693943,6.3718157,1.1854684,-0.20614408,-0.8184659,-0.9669208
0.604,2.4426084,6.451367,1.4752736,-0.23568228,-0.79989636,-0.9259378
0.606,2.5453033,6.5030704,1.778837,-0.26297545,-0.7775228,-0.88718975
0.608,2.6799574,6.5252323,2.095415,-0.28763524,-0.75130796,-0.85100186
0.61,2.8486288,6.516302,2.4237375,-0.309407,-0.72142863,-0.8176198
0.612,3.0527806,6.4758263,2.7611432,-0.32817042,-0.6882743,-0.78721356
0.614,3.2931032,6.4038825,3.104694,-0.343952,-0.6524265,-0.759853
0.616,3.5692964,6.3017545,3.4507844,-0.3568972,-0.61458427,-0.7355149
0.618,3.8807926,6.170693,3.7957091,-0.367262,-0.57546145,-0.7142012
0.62,4.22629,6.0124173,4.135709,-0.37533766,-0.5356355,-0.6960214
0.622,4.6036434,5.8290358,4.4669666,-0.38133517,-0.49534756,-0.6811872
0.624,5.009452,5.6232414,4.7852507,-0.38532788,-0.45439237,-0.67005914
0.626,5.4397244,5.3981094,5.0864058,-0.3871192,-0.41198325,-0.66316026
0.628,5.890291,5.1567445,5.3665,-0.3861883,-0.3667605,-0.6612002
0.63,6.356026,4.902892,5.6214933,-0.38168946,-0.3168512,-0.6650605
0.632,6.8310366,4.6404214,5.8471704,-0.37245575,-0.25997815,-0.6756961
0.634,7.309057,4.373562,6.038982,-0.35713753,-0.1936634,-0.6941311
0.636,7.7834253,4.1066732,6.192544,-0.33438206,-0.1155989,-0.7213425
0.638,8.246684,3.8440185,6.3039026,-0.30298346,-0.02396956,-0.75817394
0.64,8.691314,3.589943,6.3691816,-0.26207504,0.08228782,-0.8052521
0.642,9.110056,3.3486698,6.385261,-0.2113155,0.20322655,-0.8628566
0.644,9.495737,3.1242528,6.3498497,-0.15101364,0.33777758,-0.93084204
0.646,9.841435,2.9205632,6.262046,-0.082240894,0.4838125,-1.0086159
0.648,10.141172,2.7407618,6.1212687,-0.00676167,0.638197,-1.0950445
0.65,10.389419,2.5875082,5.928065,0.073028505,0.7970817,-1.1883832
0.652,10.581693,2.4625416,5.6839094,0.15427303,0.95615077,-1.2862484
0.654,10.714226,2.3677342,5.3911896,0.23386727,1.1109862,-1.3857222
0.656,10.784093,2.304085,5.052872,0.30867296,1.2573243,-1.4835281
0.658,10.789024,2.272248,4.67285,0.3756824,1.3913385,-1.5761737
0.66,10.728073,2.2724862,4.255291,0.4322391,1.5098655,-1.6602619
0.662,10.600478,2.3049943,3.805139,0.47614008,1.610505,-1.732811
0.664,10.407711,2.36905,3.3276236,0.50577134,1.6917024,-1.791467
0.666,10.15148,2.4635582,2.828411,0.520136,1.7527045,-1.8346558
0.668,9.83422,2.5871615,2.31313,0.5188613,1.7935214,-1.8617411
0.67,9.459521,2.7383227,1.7878472,0.50220335,1.8148243,-1.8730385
0.672,9.031725,2.9148672,1.258385,0.47099465,1.8178186,-1.8697665
0.674,8.556007,3.1142886,0.7302656,0.42656866,1.8041984,-1.8540041
0.676,8.038044,3.3336062,0.20837379,0.37067768,1.7760684,-1.8286157
0.678,7.483843,3.5695791,-0.30276418,0.30541655,1.7358692,-1.7970941
0.68,6.899712,3.8190322,-0.798736,0.23303166,1.6862016,-1.7633276
0.682,6.2929115,4.0781145,-1.2757441,0.15585151,1.6297493,-1.7312899
0.684,5.67033,4.342782,-1.7310877,0.07618219,1.5691444,-1.7048519
0.686,5.039729,4.609025,-2.1636868,-0.0038684607,1.5067717,-1.6875696
0.688,4.408404,4.872802,-2.572202,-0.08245134,1.4446993,-1.6824553
0.69,3.7827983,5.1304317,-2.9547977,-0.15800408,1.384604,-1.6918597
0.692,3.1694016,5.378611,-3.3099918,-0.2293356,1.3278033,-1.7174044
0.694,2.5747287,5.6140766,-3.6365714,-0.2956738,1.2751937,-1.7600242
0.696,2.004835,5.833622,-3.9338396,-0.35660216,1.2272189,-1.8199288
0.698,1.465414,6.033836,-4.2008986,-0.4119764,1.1839528,-1.8965747
0.7,0.9619546,6.211755,-4.4370565,-0.4618572,1.1451668,-1.988806
0.702,0.49933648,6.364847,-4.641795,-0.50649464,1.1104478,-2.0950322
0.704,0.08177817,6.4908657,-4.8143406,-0.5462383,1.0792863,-2.2133389
0.706,-0.28706264,6.5879636,-4.953901,-0.5814782,1.0512165,-2.3416338
0.708,-0.6038965,6.654373,-5.0602107,-0.6126295,1.0258024,-2.477704
0.71,-0.8662112,6.689425,-5.1333933,-0.6400891,1.0027711,-2.6192868
0.712,-1.0726346,6.692824,-5.173642,-0.66422886,0.98201656,-2.7642272
0.714,-1.2197776,6.664337,-5.1822243,-0.6853984,0.96364033,-2.9105313
0.716,-1.3085012,6.6036005,-5.1576977,-0.7039141,0.9479572,-3.0564618
0.718,-1.3394578,6.5100145,-5.102042,-0.7200584,0.9354063,-3.200571
0.72,-1.3126026,6.3845677,-5.0167675,-0.7341347,0.92640704,-3.341663
0.722,-1.2284349,6.229702,-4.9034696,-0.7464347,0.92127573,-3.478791
0.724,-1.0886378,6.0476284,-4.7645903,-0.7572905,0.9201402,-3.6112916
0.726,-0.8951777,5.8395157,-4.6013565,-0.76707125,0.9227988,-3.7386897
0.728,-0.6516359,5.6072636,-4.415556,-0.77621186,0.9286204,-3.8605905
0.73,-0.36248708,5.353613,-4.2096434,-0.7852255,0.93652546,-3.9766717
0.732,-0.031768918,5.0819106,-3.986743,-0.79471207,0.945034,-4.0866756
0.734,0.33616954,4.795698,-3.749476,-0.80530345,0.9523938,-4.1904397
0.736,0.73621094,4.498649,-3.5002418,-0.8176869,0.9566755,-4.2878933
0.738,1.1628768,4.1941977,-3.2417045,-0.8325957,0.95589614,-4.3790145
0.74,1.6111448,3.885398,-2.9759474,-0.85076547,0.94817984,-4.463869
0.742,2.0762167,3.575357,-2.7049992,-0.8729266,0.93188536,-4.5426025
0.744,2.5538583,3.2666025,-2.431469,-0.8997692,0.9058391,-4.615489
0.746,3.0393333,2.9615564,-2.157774,-0.9318584,0.86933017,-4.682954
0.748,3.5271933,2.6634605,-1.8828413,-0.9695214,0.82218826,-4.7454367
0.75,4.0127993,2.3740659,-1.6058046,-1.0129426,0.7649255,-4.803235
0.752,4.4913316,2.0947814,-1.3263502,-1.0622013,0.69866776,-4.8566566
0.754,4.9576015,1.8277042,-1.0450866,-1.1171737,0.62492704,-4.906118
0.756,5.406769,1.5753374,-0.7638523,-1.1775113,0.54565215,-4.952012
0.758,5.8346186,1.3399081,-0.48416543,-1.242662,0.46308005,-4.99456
0.76,6.238108,1.1227453,-0.20682436,-1.3119283,0.37956405,-5.0337644
0.762,6.614363,0.9254544,0.06829971,-1.3844979,0.2974336,-5.06951
0.764,6.9611263,0.7486911,0.34065646,-1.4595611,0.21873462,-5.101624
0.766,7.2770963,0.5929584,0.6103524,-1.5363456,0.14518082,-5.129926
0.768,7.5609326,0.45875818,0.87707597,-1.6141629,0.078041315,-5.1542954
0.77,7.811389,0.34678566,1.1398453,-1.6924431,0.018119693,-5.1746674
0.772,8.028349,0.2572467,1.3965715,-1.7707723,-0.03419435,-5.1911225
0.774,8.211938,0.18998636,1.6455759,-1.8489094,-0.07891965,-5.2038817
0.776,8.363725,0.14455685,1.8851587,-1.9268749,-0.116672754,-5.21331
0.778,8.485343,0.120377064,2.1132677,-2.0047996,-0.14834595,-5.21996
0.78,8.578487,0.116811335,2.3280425,-2.082797,-0.17473388,-5.2245207
0.782,8.645458,0.1329968,2.5272858,-2.1610441,-0.1967603,-5.2277355
0.784,8.688551,0.16802055,2.7095132,-2.2397811,-0.2154808,-5.230241
0.786,8.7104645,0.22085428,2.8735528,-2.3192403,-0.23193562,-5.2326107
0.788,8.714196,0.29038513,3.018273,-2.3996782,-0.24723661,-5.235429
0.79,8.703545,0.37467146,3.1426232,-2.4814072,-0.26266575,-5.239253
0.792,8.6817665,0.47208583,3.2456179,-2.564689,-0.2793635,-5.2445974
0.794,8.652313,0.5811082,3.326464,-2.6497195,-0.2982906,-5.251882
0.796,8.618324,0.70013404,3.385256,-2.7366445,-0.320292,-5.2614026
0.798,8.582973,0.8273131,3.4221213,-2.8255594,-0.34607017,-5.2732496
0.8,8.549377,0.9607734,3.4372544,-2.9165235,-0.37609947,-5.287306
0.802,8.520696,1.09827,3.430867,-3.0095563,-0.41068876,-5.3034616
0.804,8.499329,1.237892,3.4037242,-3.1045623,-0.450153,-5.321608
0.806,8.487718,1.3778808,3.3569703,-3.2013898,-0.49482656,-5.341385
0.808,8.487874,1.5166057,3.291746,-3.299892,-0.545014,-5.362115
0.81,8.501702,1.652263,3.2099001,-3.3999405,-0.6010792,-5.3831024
0.812,8.530626,1.7831724,3.1133082,-3.5013697,-0.6633785,-5.403804
0.814,8.57535,1.9082253,3.0039563,-3.6039643,-0.73214334,-5.42374
0.816,8.636229,2.0263302,2.8840013,-3.707459,-0.8073108,-5.442391
0.818,8.712689,2.1366582,2.756224,-3.8114731,-0.8884262,-5.459216
0.82,8.804216,2.2383528,2.6232018,-3.915581,-0.9746965,-5.4736547
0.822,8.909341,2.3311357,2.4880476,-4.019317,-1.0649617,-5.4851913
0.824,9.025359,2.41508,2.3534145,-4.122183,-1.1577395,-5.4934087
0.826,9.150822,2.4911022,2.2221496,-4.223704,-1.2513448,-5.4980025
0.828,9.284622,2.5601387,2.0978253,-4.3234224,-1.3439829,-5.498781
0.83,9.422956,2.622386,1.9826361,-4.420912,-1.4337423,-5.4956536
0.832,9.561798,2.6775873,1.878605,-4.515894,-1.518991,-5.488576
0.834,9.698174,2.7268248,1.7880976,-4.608248,-1.5984688,-5.477675
0.836,9.828472,2.7724323,1.7124165,-4.6978655,-1.6709632,-5.4633293
0.838,9.950024,2.8168223,1.6527473,-4.7846184,-1.7353352,-5.4461384
0.84,10.059872,2.8617687,1.6102293,-4.868412,-1.7906075,-5.426768
0.842,10.154981,2.9085171,1.5856867,-4.949154,-1.8358804,-5.4058313
0.844,10.232559,2.9580975,1.5788975,-5.0266986,-1.8702605,-5.3839784
0.846,10.290835,3.0116792,1.5889461,-5.100943,-1.8931441,-5.361867
0.848,10.328141,3.070982,1.6146624,-5.171778,-1.9041117,-5.3401303
0.85,10.343373,3.1372397,1.6542722,-5.239066,-1.9028634,-5.3193398
0.852,10.335966,3.2114558,1.7060003,-5.3026767,-1.8892848,-5.3000045
0.854,10.30545,3.2946177,1.7685971,-5.362502,-1.8634796,-5.2824893
0.856,10.252521,3.3873606,1.8398435,-5.418463,-1.8256674,-5.2669754
0.858,10.179274,3.4893484,1.913975,-5.4705014,-1.7761621,-5.2535396
0.86,10.08722,3.6013312,1.9870149,-5.5185866,-1.7154173,-5.242201
0.862,9.978252,3.7237163,2.0565135,-5.56272,-1.6439068,-5.232913
0.864,9.855075,3.8560383,2.120608,-5.6029234,-1.562139,-5.225566
0.866,9.7203245,3.9971247,2.1779752,-5.6392546,-1.4705865,-5.2199807
0.868,9.576178,4.1466346,2.226832,-5.6717834,-1.3696563,-5.215958
0.87,9.424426,4.3049207,2.2643833,-5.700608,-1.2597731,-5.2132916
0.872,9.267986,4.471452,2.287093,-5.725876,-1.1413665,-5.211747
0.874,9.109753,4.6459084,2.2926722,-5.747782,-1.0149136,-5.2111087
0.876,8.952764,4.827724,2.2789986,-5.7665806,-0.88098955,-5.211135
0.878,8.800311,5.0159435,2.24478,-5.7825546,-0.7403201,-5.211611
0.88,8.655744,5.209061,2.1897838,-5.795998,-0.59376025,-5.2123485
0.882,8.521962,5.4059024,2.114141,-5.8072424,-0.4422977,-5.2132273
0.884,8.400811,5.605851,2.0178022,-5.816598,-0.2870133,-5.214159
0.886,8.294165,5.8083005,1.9011766,-5.824361,-0.12903738,-5.2151246
0.888,8.204101,6.012105,1.7650021,-5.830802,0.030440211,-5.216135
0.89,8.132254,6.2160583,1.6097231,-5.8361173,0.1902206,-5.2172127
0.892,8.079953,6.4191914,1.4364176,-5.8404713,0.34912896,-5.218405
0.894,8.048128,6.620704,1.2458181,-5.8439913,0.5059906,-5.219799
0.896,8.03744,6.819669,1.0390137,-5.8467665,0.65966606,-5.2215357
0.898,8.04818,7.014989,0.8173998,-5.8488927,0.8090193,-5.2237725
0.9,8.080116,7.2060943,0.5827306,-5.85044,0.9529481,-5.2267056
0.902,8.132918,7.392039,0.3363589,-5.8515077,1.0903718,-5.230547
0.904,8.2062435,7.5715985,0.07944403,-5.852195,1.2202457,-5.235504
0.906,8.2993555,7.7438235,-0.186832,-5.8526163,1.3415494,-5.241761
0.908,8.4109535,7.908065,-0.4612265,-5.852889,1.4533432,-5.249494
0.91,8.539347,8.063744,-0.74230266,-5.853144,1.5547037,-5.258855
0.912,8.682419,8.210131,-1.0283366,-5.853529,1.6448073,-5.269963
0.914,8.838059,8.346853,-1.3178679,-5.854227,1.7228955,-5.282889
0.916,9.003653,8.473542,-1.6094856,-5.855438,1.7883345,-5.2976413
0.918,9.176754,8.589939,-1.9017549,-5.8573923,1.8406373,-5.314175
0.92,9.354482,8.695917,-2.1935418,-5.860319,1.879471,-5.332415
0.922,9.5341215,8.791535,-2.4837375,-5.864438,1.9047217,-5.3522344
0.924,9.712872,8.876671,-2.7711754,-5.869942,1.9165639,-5.373454
0.926,9.888006,8.951335,-3.0543094,-5.876998,1.9154575,-5.3958883
0.928,10.056927,9.015786,-3.331529,-5.885702,1.9021589,-5.419334
0.93,10.216917,9.070357,-3.6011844,-5.8960752,1.877709,-5.4436016
0.932,10.365452,9.115486,-3.8620143,-5.9080815,1.8434203,-5.4685035
0.934,10.500492,9.151762,-4.1129274,-5.9216037,1.8008119,-5.493879
0.936,10.620101,9.180071,-4.3524537,-5.9364514,1.7516398,-5.5195956
0.938,10.722838,9.201126,-4.5788007,-5.9523916,1.6977705,-5.5455427
0.94,10.807403,9.215947,-4.7904534,-5.969165,1.6411557,-5.571563
0.942,10.872606,9.225655,-4.9861393,-5.986522,1.5837617,-5.5974383
0.944,10.917387,9.231605,-5.16543,-6.004239,1.5275347,-5.622901
0.946,10.941351,9.235166,-5.3282013,-6.022105,1.4742714,-5.6476383
0.948,10.944731,9.237475,-5.4742413,-6.039935,1.4256002,-5.6712565
0.95,10.9281845,9.239807,-5.6033673,-6.057582,1.3828804,-5.6933403
0.952,10.892349,9.243885,-5.714904,-6.074907,1.3471426,-5.7134604
0.954,10.838564,9.25081,-5.809469,-6.091806,1.3190866,-5.7311916
0.956,10.768203,9.261558,-5.8877115,-6.10818,1.2990732,-5.7461567
0.958,10.682962,9.277119,-5.9503946,-6.123974,1.2871248,-5.758055
0.96,10.5850115,9.29848,-5.9986267,-6.1391597,1.2829843,-5.766679
0.962,10.476473,9.326194,-6.0338807,-6.1537223,1.2861128,-5.771901
0.964,10.359924,9.360674,-6.057392,-6.1676645,1.2957782,-5.773711
0.966,10.23774,9.402309,-6.070321,-6.1809945,1.311091,-5.772215
0.968,10.112476,9.451283,-6.0735826,-6.193719,1.3311106,-5.767609
0.97,9.98659,9.507655,-6.068558,-6.205845,1.3547935,-5.7601748
0.972,9.862078,9.571229,-6.056925,-6.217371,1.3810943,-5.750231
0.974,9.741553,9.641424,-6.0401897,-6.2282915,1.409006,-5.7381225
0.976,9.62697,9.717915,-6.0194454,-6.2385807,1.4375559,-5.7242103
0.978,9.520502,9.800029,-5.9955935,-6.248211,1.4658229,-5.708831
0.98,9.42347,9.887341,-5.969077,-6.2571316,1.4930024,-5.6922894
0.982,9.337334,9.979077,-5.94079,-6.265257,1.518437,-5.674893
0.984,9.262844,10.074524,-5.9116507,-6.272502,1.5415959,-5.656951
0.986,9.200103,10.172912,-5.8825045,-6.2787704,1.5620904,-5.63872
0.988,9.149206,10.273608,-5.854559,-6.2839384,1.5797423,-5.6204214
0.99,9.10941,10.376178,-5.828745,-6.287863,1.5944728,-5.60225
0.992,9.079924,10.479996,-5.8058333,-6.290394,1.606344,-5.584405
0.994,9.059414,10.584733,-5.7866697,-6.291376,1.6155016,-5.567053
0.996,9.046289,10.6900425,-5.7720075,-6.290686,1.6221447,-5.55032
0.998,9.038779,10.795681,-5.7625513,-6.2882395,1.6264552,-5.534285
1,9.035113,10.901314,-5.7591786,-6.283983,1.6286218,-5.5189633
1.002,9.032998,11.006685,-5.7626677,-6.2778835,1.6287975,-5.5043397
1.004,9.030431,11.111329,-5.774014,-6.2699127,1.6270777,-5.4903646
1.006,9.025191,11.214878,-5.7941895,-6.2601223,1.623497,-5.4769363
1.008,9.015024,11.317297,-5.824071,-6.2485647,1.6180432,-5.4639587
1.01,8.99764,11.418316,-5.864873,-6.2352467,1.6107638,-5.4513135
1.012,8.970755,11.517796,-5.9171033,-6.2201347,1.6017221,-5.4389176
1.014,8.932385,11.61549,-5.981469,-6.2032194,1.5909352,-5.42669
1.016,8.880916,11.711186,-6.058631,-6.1845145,1.5784905,-5.414508
1.018,8.815157,11.804443,-6.149053,-6.164095,1.5645211,-5.402257
1.02,8.734063,11.894649,-6.252804,-6.142049,1.5491961,-5.3898335
1.022,8.63743,11.981113,-6.369525,-6.1184745,1.5326804,-5.377157
1.024,8.5249,12.063113,-6.49851,-6.0934963,1.5151869,-5.36413
1.026,8.396391,12.139963,-6.639168,-6.0672293,1.4969172,-5.3506627
1.028,8.252119,12.211051,-6.7907066,-6.039806,1.478055,-5.336684
1.03,8.092599,12.275968,-6.9518065,-6.011362,1.4587412,-5.322118
1.032,7.9188256,12.334179,-7.1206284,-5.982023,1.4390678,-5.306905
1.034,7.732462,12.385492,-7.295277,-5.951948,1.4190915,-5.290974
1.036,7.5350904,12.42963,-7.473956,-5.921322,1.3987947,-5.274252
1.038,7.328919,12.466268,-7.6546755,-5.890336,1.37814,-5.256665
1.04,7.1159205,12.495364,-7.83545,-5.859197,1.3570638,-5.2381988
1.042,6.8982277,12.516795,-8.014036,-5.8281603,1.3354776,-5.21884
1.044,6.6778173,12.530771,-8.188187,-5.7974987,1.3132849,-5.1985826
1.046,6.4570265,12.53747,-8.356269,-5.767477,1.2903616,-5.17738
1.048,6.238067,12.537426,-8.5164175,-5.738367,1.2665364,-5.1551895
1.05,6.0231524,12.531213,-8.66686,-5.710408,1.2416162,-5.1319423
1.052,5.8147535,12.519428,-8.806055,-5.6837945,1.2153912,-5.1075583
1.054,5.6148853,12.502869,-8.932788,-5.6587076,1.187583,-5.0819435
1.056,5.42509,12.482595,-9.046278,-5.635325,1.1578491,-5.0549726
1.058,5.2462187,12.45995,-9.146123,-5.613787,1.125801,-5.0265307
1.06,5.079091,12.436106,-9.232394,-5.594213,1.0910181,-4.996511
1.062,4.924329,12.412025,-9.306043,-5.5766954,1.0530763,-4.9648247
1.064,4.7819757,12.389564,-9.367491,-5.561346,1.0115104,-4.9314547
1.066,4.651675,12.370392,-9.418174,-5.548212,0.9659823,-4.8964295
1.068,4.5329328,12.355784,-9.460062,-5.537221,0.91634285,-4.8598847
1.07,4.424922,12.347031,-9.494843,-5.528205,0.86258245,-4.8221154
1.072,4.326518,12.345469,-9.524612,-5.520891,0.8049084,-4.7834706
1.074,4.2361584,12.352236,-9.551554,-5.514896,0.7437506,-4.7443724
1.076,4.1520953,12.36825,-9.5779,-5.5097637,0.67977417,-4.7052984
1.078,4.072278,12.394145,-9.605905,-5.504957,0.6138433,-4.666782
1.08,3.9944,12.430555,-9.637682,-5.4998884,0.546968,-4.629351
1.082,3.9164095,12.477873,-9.675401,-5.4939327,0.48025966,-4.5934834
1.084,3.8359642,12.536427,-9.721008,-5.4864645,0.41483665,-4.559629
1.086,3.7508335,12.60627,-9.776283,-5.476878,0.3517456,-4.5281706
1.088,3.6589751,12.686987,-9.843046,-5.4646187,0.2919284,-4.499443
1.09,3.558856,12.778088,-9.923115,-5.4492054,0.2361877,-4.4736657
1.092,3.4485874,12.8791275,-10.017427,-5.4302263,0.18517935,-4.4509606
1.094,3.3269958,12.989363,-10.12681,-5.4073744,0.13945174,-4.431355
1.096,3.1932888,13.107948,-10.252165,-5.3804045,0.0994246,-4.4147835
1.098,3.0468025,13.233688,-10.393557,-5.349145,0.0654583,-4.40112
1.1,2.8878622,13.364888,-10.551116,-5.3134894,0.0378623,-4.390205
1.102,2.716927,13.500178,-10.724604,-5.273384,0.016918778,-4.3818617
1.104,2.5348487,13.637655,-10.913596,-5.2288227,0.0028471947,-4.3758917
1.106,2.3429852,13.775593,-11.117893,-5.1798964,-0.004238367,-4.372097
1.108,2.1429844,13.912105,-11.336947,-5.1267366,-0.0043176413,-4.3703036
1.11,1.9367294,14.045436,-11.5699215,-5.069526,0.0024701357,-4.3703628
1.112,1.7265892,14.173646,-11.815908,-5.008529,0.015828967,-4.3721333
1.114,1.514967,14.295061,-12.073341,-4.9440594,0.035262465,-4.3755245
1.116,1.3044262,14.407849,-12.340648,-4.8764796,0.060100555,-4.3804255
1.118,1.0973821,14.510175,-12.6163025,-4.806163,0.08953428,-4.386755
1.12,0.896389,14.600525,-12.89844,-4.7334795,0.12266219,-4.394447
1.122,0.7041168,14.67733,-13.185558,-4.658779,0.15853703,-4.40344
1.124,0.522357,14.739653,-13.475716,-4.582366,0.19622707,-4.413679
1.126,0.35269165,14.786216,-13.766985,-4.5045033,0.23484266,-4.4251513
1.128,0.19641018,14.816274,-14.057267,-4.4254103,0.27356076,-4.437848
1.13,0.05458641,14.829197,-14.344671,-4.3452616,0.31163633,-4.451767
1.132,-0.07234955,14.824757,-14.6273985,-4.264191,0.3483802,-4.4668827
1.134,-0.18409586,14.802568,-14.903645,-4.182328,0.3831395,-4.4831815
1.136,-0.2806859,14.762379,-15.171546,-4.0998,0.41525018,-4.5006337
1.138,-0.362329,14.704395,-15.4293995,-4.016769,0.44406092,-4.5192103
1.14,-0.42973137,14.62886,-15.67581,-3.9333699,0.46892476,-4.5389137
1.142,-0.48416948,14.53647,-15.909883,-3.8497283,0.48920155,-4.5597396
1.144,-0.52726173,14.427835,-16.130981,-3.7659316,0.5043459,-4.581721
1.146,-0.5607228,14.304005,-16.338543,-3.682024,0.5139234,-4.604896
1.148,-0.58628654,14.165859,-16.53241,-3.597988,0.51764345,-4.629276
1.15,-0.60573196,14.014368,-16.712112,-3.5137653,0.51541007,-4.6548605
1.152,-0.6206217,13.850683,-16.877756,-3.4292574,0.5073018,-4.681609
1.154,-0.6327858,13.67569,-17.029758,-3.3443575,0.49355876,-4.7094283
1.156,-0.64420795,13.490726,-17.16881,-3.258941,0.47457612,-4.7381988
1.158,-0.65666294,13.297022,-17.296053,-3.172905,0.45082176,-4.7677402
1.16,-0.671659,13.095689,-17.412766,-3.0861502,0.42284608,-4.7978396
1.162,-0.6909032,12.888004,-17.520384,-2.998617,0.39123702,-4.8282676
1.164,-0.7159662,12.675011,-17.620125,-2.9102726,0.3565849,-4.8587995
1.166,-0.7482195,12.457735,-17.713264,-2.8210998,0.31945848,-4.889222
1.168,-0.7888856,12.2371235,-17.801369,-2.7311034,0.28041065,-4.919296
1.17,-0.83893013,12.014162,-17.885817,-2.640315,0.23999274,-4.948774
1.172,-0.8992243,11.789855,-17.967817,-2.548771,0.19877195,-4.9773965
1.174,-0.97014,11.564898,-18.048622,-2.456493,0.15732336,-5.0049148
1.176,-1.0520563,11.339935,-18.12961,-2.363461,0.116253495,-5.0310926
1.178,-1.1450968,11.11566,-18.212162,-2.2696228,0.0762105,-5.055695
1.18,-1.2490788,10.892626,-18.297848,-2.1748948,0.03788817,-5.078482
1.182,-1.3636484,10.671547,-18.387886,-2.0791755,0.0019936562,-5.0992017
1.184,-1.4880478,10.452936,-18.483782,-1.9823163,-0.030787945,-5.1175685
1.186,-1.6210029,10.237143,-18.587234,-1.8841615,-0.059830546,-5.133255
1.188,-1.7608371,10.0245075,-18.699545,-1.7845478,-0.0846318,-5.145865
1.19,-1.9056013,9.81513,-18.821793,-1.6833086,-0.10484195,-5.1549635
1.192,-2.0535152,9.609211,-18.954865,-1.5803162,-0.12034756,-5.160079
1.194,-2.2024765,9.406839,-19.099564,-1.4755026,-0.13129318,-5.16071
1.196,-2.3499584,9.207728,-19.256512,-1.3688595,-0.13811147,-5.1563826
1.198,-2.4936547,9.011925,-19.426094,-1.260441,-0.14151728,-5.1466794
1.2,-2.6305704,8.819111,-19.608637,-1.1503699,-0.1425162,-5.131286
1.202,-2.7579396,8.629279,-19.804445,-1.0388508,-0.14228404,-5.1099973
1.204,-2.8728006,8.442316,-20.013554,-0.92616427,-0.14214641,-5.0827146
1.206,-2.9723096,8.258098,-20.235855,-0.81261444,-0.14349097,-5.0494657
1.208,-3.0532956,8.076609,-20.471258,-0.698511,-0.14770979,-5.010384
1.21,-3.1135507,7.8982177,-20.719378,-0.58418477,-0.15615642,-4.9656796
1.212,-3.150734,7.723099,-20.97968,-0.46996793,-0.17006111,-4.915633
1.214,-3.1629076,7.5516634,-21.251049,-0.35620815,-0.19050294,-4.8605447
1.216,-3.1486788,7.384213,-21.532005,-0.24324322,-0.21838069,-4.8007407
1.218,-3.1071434,7.2212677,-21.820902,-0.13141465,-0.2544394,-4.7365417
1.22,-3.03793,7.063572,-22.11605,-0.021048874,-0.2991978,-4.6682706
1.222,-2.9411738,6.911932,-22.415958,0.087551564,-0.35303307,-4.5962954
1.224,-2.8175716,6.7673035,-22.719261,0.19413334,-0.41617382,-4.521046
1.226,-2.6686783,6.6306534,-23.024216,0.29847038,-0.4887405,-4.4429855
1.228,-2.4961512,6.5031385,-23.328856,0.40038836,-0.57077646,-4.3626537
1.23,-2.3021617,6.385701,-23.631136,0.4997399,-0.6622701,-4.280649
1.232,-2.0897002,6.279496,-23.928894,0.5964412,-0.7631932,-4.197646
1.234,-1.8617604,6.1854396,-24.219927,0.6904478,-0.8735054,-4.1143675
1.236,-1.621736,6.104821,-24.502432,0.78174436,-0.9931587,-4.031553
1.238,-1.3734819,6.0385246,-24.774572,0.87032413,-1.1220651,-3.9499426
1.24,-1.1208024,5.987454,-25.034578,0.9562125,-1.2600622,-3.8702466
1.242,-0.86774385,5.952217,-25.280962,1.0394326,-1.4069186,-3.7931013
1.244,-0.6183523,5.933425,-25.51198,1.1199919,-1.5622889,-3.7190404
1.246,-0.37652063,5.9318323,-25.726025,1.1978765,-1.7256763,-3.6484735
1.248,-0.146029,5.947761,-25.92192,1.2730584,-1.8964447,-3.581724
1.25,0.06973362,5.9813385,-26.098253,1.3455029,-2.0737975,-3.519003
1.252,0.26797187,6.032387,-26.253635,1.4151667,-2.2568257,-3.4604158
1.254,0.4464581,6.100676,-26.387014,1.4820222,-2.4444556,-3.4059463
1.256,0.6033952,6.185695,-26.497488,1.5460987,-2.6355717,-3.355538
1.258,0.7372918,6.287129,-26.584301,1.6074637,-2.8289313,-3.3090425
1.26,0.84756374,6.404567,-26.647087,1.6662261,-3.0232222,-3.2662497
1.262,0.9337436,6.537571,-26.685755,1.7225325,-3.2170734,-3.2268903
1.264,0.9962778,6.685491,-26.700357,1.7765783,-3.4090981,-3.1906776
1.266,1.0359908,6.847534,-26.691135,1.8285918,-3.5978997,-3.1572886
1.268,1.0542312,7.0228186,-26.658672,1.87882,-3.7821317,-3.1264043
1.27,1.0527191,7.2106514,-26.603603,1.9274845,-3.9605174,-3.097712
1.272,1.0336212,7.4100366,-26.526827,1.9747611,-4.1318436,-3.0709193
1.274,0.9999956,7.620069,-26.42935,2.0207763,-4.295045,-3.0457635
1.276,0.9549606,7.8397264,-26.312708,2.0656009,-4.4491696,-3.022015
1.278,0.90203357,8.068137,-26.178205,2.1092374,-4.5934,-2.9995139
1.28,0.8444691,8.304588,-26.027195,2.1516902,-4.727024,-2.978171
1.282,0.7854469,8.548522,-25.861366,2.1929712,-4.8494015,-2.9579797
1.284,0.72810864,8.7992115,-25.682613,2.2331314,-4.9599447,-2.9390256
1.286,0.67558074,9.056234,-25.492897,2.2722733,-5.058123,-2.921468
1.288,0.63090634,9.318991,-25.293583,2.3105469,-5.14342,-2.9055433
1.29,0.5967622,9.58722,-25.086004,2.3481522,-5.215346,-2.8915696
1.292,0.5753436,9.860483,-24.87197,2.3852885,-5.273501,-2.8799236
1.294,0.5687635,10.138378,-24.65246,2.4221718,-5.317565,-2.871028
1.296,0.57830334,10.420721,-24.42858,2.4590375,-5.3473473,-2.8653283
1.298,0.60457516,10.707611,-24.201471,2.4961107,-5.3628254,-2.8632903
1.3,0.6480794,10.99906,-23.97231,2.5335948,-5.3641596,-2.865397
1.302,0.70905447,11.295119,-23.741854,2.5716562,-5.3517127,-2.8721397
1.304,0.78674746,11.595842,-23.510561,2.6104066,-5.3260574,-2.8840063
1.306,0.88010406,11.901403,-23.278696,2.6499243,-5.2879276,-2.9014544
1.308,0.9877317,12.211945,-23.046482,2.6902268,-5.238242,-2.9249113
1.31,1.1074497,12.527718,-22.814,2.731276,-5.1780443,-2.954737
1.312,1.2370766,12.848698,-22.58096,2.7729838,-5.108526,-2.9912262
1.314,1.3741978,13.17492,-22.346893,2.8152108,-5.030934,-3.0345964
1.316,1.5164095,13.506206,-22.111158,2.8577964,-4.946508,-3.0849907
1.318,1.6610744,13.84231,-21.873,2.900561,-4.856455,-3.142428
1.32,1.8057592,14.182938,-21.631695,2.9433327,-4.7618484,-3.206844
1.322,1.9483215,14.527664,-21.386684,2.9859269,-4.6636286,-3.2780674
1.324,2.0868967,14.876005,-21.137459,3.0281928,-4.562512,-3.3558035
1.326,2.2200713,15.22732,-20.883204,3.0700016,-4.459025,-3.4396896
1.328,2.346651,15.580821,-20.6231,3.1112561,-4.3534455,-3.529314
1.33,2.4659731,15.935629,-20.35645,3.1518884,-4.2457995,-3.6242092
1.332,2.5775623,16.290844,-20.082453,3.1918766,-4.1359005,-3.7238855
1.334,2.6812434,16.645737,-19.800524,3.2311969,-4.023378,-3.8278565
1.336,2.7775214,16.999891,-19.510239,3.2698133,-3.907731,-3.9356842
1.338,2.8669255,17.352703,-19.211327,3.3077056,-3.7883675,-4.0470157
1.34,2.9502628,17.703888,-18.90356,3.3448296,-3.6645923,-4.161613
1.342,3.0291388,18.053108,-18.586714,3.3811698,-3.5356784,-4.2793794
1.344,3.105504,18.400234,-18.261051,3.4166746,-3.4008327,-4.4003444
1.346,3.1816018,18.745209,-17.926529,3.4513066,-3.2592053,-4.5246344
1.348,3.2601624,19.088293,-17.58326,3.4849927,-3.1098728,-4.6524696
1.35,3.3441515,19.429964,-17.231688,3.5176592,-2.9518318,-4.7841215
1.352,3.437109,19.77046,-16.872421,3.5492344,-2.784006,-4.919892
1.354,3.5428083,20.110369,-16.506844,3.5796251,-2.6053007,-5.060081
1.356,3.6651416,20.450363,-16.136343,3.6087482,-2.4145584,-5.2049537
1.358,3.8075783,20.791504,-15.76248,3.636529,-2.2106023,-5.3547716
1.36,3.974194,21.134815,-15.38746,3.662914,-1.9922938,-5.509782
1.362,4.1684003,21.481562,-15.013424,3.6878989,-1.7585425,-5.670197
1.364,4.3935566,21.833107,-14.64285,3.7115183,-1.5082922,-5.836189
1.366,4.6531043,22.190647,-14.278345,3.733863,-1.2405616,-6.0078974
1.368,4.9500437,22.555605,-13.922817,3.7551146,-0.95445836,-6.1853843
1.37,5.2870426,22.929121,-13.579422,3.775534,-0.649198,-6.3686075
1.372,5.6665363,23.312407,-13.250875,3.7954903,-0.32410026,-6.5574
1.374,6.0902653,23.70684,-12.9401245,3.8154268,0.021335363,-6.7514405
1.376,6.559479,24.11352,-12.649888,3.8358846,0.3874308,-6.9502378
1.378,7.074871,24.533316,-12.382933,3.857461,0.77428675,-7.153146
1.38,7.63685,24.967209,-12.142429,3.8807676,1.1817521,-7.359332
1.382,8.24583,25.415558,-11.930889,3.9064178,1.6094009,-7.567814
1.384,8.900953,25.878813,-11.750912,3.934983,2.0565271,-7.7774916
1.386,9.601474,26.35695,-11.604177,3.9669857,2.5222034,-7.987177
1.388,10.345861,26.849823,-11.492644,4.002871,3.005289,-8.195645
1.39,11.132776,27.356804,-11.418049,4.0430336,3.504531,-8.401637
1.392,11.960403,27.876837,-11.381367,4.0877843,4.018615,-8.603898
1.394,12.826446,28.408653,-11.383195,4.137399,4.5462346,-8.801144
1.396,13.729019,28.950699,-11.424026,4.192122,5.0861354,-8.992078
1.398,14.6653,29.500923,-11.504136,4.2522035,5.6371613,-9.175359
1.4,15.632258,30.05738,-11.623111,4.31789,6.198298,-9.349659
1.402,16.62718,30.617432,-11.780462,4.3894587,6.7686253,-9.513624
1.404,17.646778,31.178242,-11.975329,4.4672003,7.347294,-9.665898
1.406,18.688122,31.736107,-12.205781,4.551373,7.933487,-9.8050995
1.408,19.747955,32.287468,-12.469662,4.6422234,8.526372,-9.929855
1.41,20.82322,32.828537,-12.765068,4.7399693,9.125089,-10.038884
1.412,21.910742,33.355206,-13.089732,4.8446984,9.728599,-10.131046
1.414,23.007347,33.863365,-13.441075,4.9563913,10.335679,-10.205338
1.416,24.10963,34.34884,-13.816489,5.074866,10.944862,-10.260935
1.418,25.21362,34.807083,-14.214194,5.1998305,11.554405,-10.29722
1.42,26.319214,35.23419,-14.627329,5.3307834,12.162279,-10.313787
1.422,27.424156,35.624725,-15.054599,5.4670477,12.766138,-10.310438
1.424,28.523064,35.975563,-15.491748,5.6077247,13.3634205,-10.287133
1.426,29.615273,36.28299,-15.938381,5.751728,13.951391,-10.2439785
1.428,30.700502,36.543163,-16.391922,5.8978367,14.527191,-10.181113
1.43,31.777557,36.753105,-16.848465,6.0446095,15.088096,-10.098742
1.432,32.845795,36.910492,-17.30523,6.1904807,15.631527,-9.997116
1.434,33.90574,37.013203,-17.76027,6.333757,16.155138,-9.876512
1.436,34.957718,37.059814,-18.21213,6.472688,16.65699,-9.737194
1.438,36.002895,37.049416,-18.659332,6.6054893,17.135551,-9.579445
1.44,37.042385,36.98197,-19.101315,6.7303653,17.589607,-9.403586
1.442,38.078415,36.85844,-19.537952,6.8455567,18.018312,-9.210109
1.444,39.113667,36.680183,-19.969105,6.949403,18.421127,-8.99956
1.446,40.151123,36.449085,-20.394875,7.0403037,18.79781,-8.772787
1.448,41.194492,36.16755,-20.815245,7.116836,19.148458,-8.530811
1.45,42.247288,35.838783,-21.230251,7.1775,19.473333,-8.274803
1.452,43.313557,35.466217,-21.640347,7.2208133,19.77227,-8.006212
1.454,44.397488,35.05413,-22.046417,7.2454963,20.045792,-7.7266173
1.456,45.502422,34.608055,-22.449644,7.2504177,20.29458,-7.4377522
1.458,46.632782,34.1328,-22.850327,7.234403,20.519054,-7.1414404
1.46,47.794975,33.632034,-23.24765,7.1963563,20.719778,-6.8394175
1.462,48.994556,33.110123,-23.639729,7.1354194,20.897823,-6.533307
1.464,50.237854,32.57201,-24.02601,7.0508213,21.054226,-6.2246523
1.466,51.531193,32.023117,-24.406252,6.9418545,21.19007,-5.9148035
1.468,52.880703,31.4693,-24.778807,6.8079576,21.306732,-5.6048436
1.47,54.291897,30.91594,-25.141048,6.648649,21.405708,-5.2955446
1.472,55.772644,30.366547,-25.491547,6.463472,21.488607,-4.9873943
1.474,57.331627,29.824799,-25.829874,6.251994,21.557175,-4.6805797
1.476,58.977917,29.294498,-26.155582,6.013873,21.613317,-4.37501
1.478,60.720966,28.779264,-26.46693,5.748808,21.658983,-4.0702753
1.48,62.56973,28.283516,-26.760946,5.4565706,21.696278,-3.7656412
1.482,64.53361,27.812553,-27.034872,5.1370087,21.727467,-3.460082
1.484,66.62343,27.372465,-27.28617,4.7901416,21.754797,-3.1521578
1.486,68.84883,26.97002,-27.51576,4.4160857,21.780476,-2.8400946
1.488,71.21886,26.616032,-27.728893,4.01496,21.806501,-2.5218067
1.49,73.73865,26.326004,-27.928144,3.5867662,21.834488,-2.1947846
1.492,76.41207,26.111094,-28.109781,3.1316056,21.86598,-1.856142
1.494,79.241905,25.978016,-28.26546,2.64985,21.902706,-1.5028434
1.496,82.227425,25.939749,-28.386623,2.14191,21.946014,-1.1319451
1.498,85.36586,26.0109,-28.469461,1.6081963,21.996675,-0.74076986
1.5,88.65672,26.211424,-28.510387,1.0492027,22.055351,-0.32683325
1.502,92.099396,26.575523,-28.511127,0.46558762,22.122839,0.11215401
1.504,95.69007,27.132027,-28.467493,-0.1416533,22.20015,0.5782335
1.506,99.42287,27.906889,-28.378351,-0.7713959,22.288431,1.0733969
1.508,103.28581,28.935452,-28.241266,-1.4225051,22.388006,1.5994874
1.51,107.27906,30.244703,-28.049496,-2.0937066,22.49929,2.158269
1.512,111.37779,31.895048,-27.802607,-2.7833576,22.622929,2.7513113
1.514,115.560196,33.901604,-27.503176,-3.4897282,22.759012,3.3796823
1.516,119.84031,36.266716,-27.103033,-4.211055,22.906782,4.043917
1.518,124.26447,38.963932,-26.592283,-4.9456477,23.064367,4.7438536
1.52,128.78127,42.023926,-26.02293,-5.6926856,23.227276,5.477991
1.522,133.33109,45.49971,-25.380203,-6.4527273,23.38803,6.2442245
1.524,137.90878,49.439774,-24.634861,-7.2268486,23.537813,7.040473
1.526,142.51851,53.90616,-23.773703,-8.016907,23.665564,7.8638678
1.528,147.15982,58.921642,-22.796633,-8.826176,23.756672,8.711178
1.53,151.8326,64.49455,-21.806087,-9.65911,23.794079,9.580458
1.532,156.53392,70.58508,-20.741394,-10.52131,23.757711,10.469896
1.534,161.23325,77.017586,-19.601242,-11.418992,23.625172,11.378592
1.536,165.92664,83.68931,-18.355862,-12.357921,23.374044,12.307638
1.538,170.65074,90.59926,-16.917053,-13.34308,22.983055,13.261282
1.54,175.43878,97.69777,-15.218951,-14.378396,22.434265,14.249759
1.542,180.33194,104.93743,-13.190102,-15.46531,21.717876,15.288754
1.544,185.3784,112.27639,-10.89329,-16.604448,20.830631,16.39677
1.546,190.59782,119.56288,-8.407433,-17.79526,19.777029,17.601921
1.548,195.97574,126.74968,-5.808016,-19.036842,18.567093,18.95057
1.55,201.5444,133.66904,-3.0031853,-20.322502,17.22155,20.4999
1.552,207.23094,140.23032,0.021678925,-21.640205,15.79307,22.281544
1.554,213.0386,146.30475,3.242197,-22.99205,14.32927,24.338053
1.556,218.98506,151.72636,6.6326714,-24.386602,12.866323,26.694494
1.558,225.03494,156.41006,10.192911,-25.826607,11.435968,29.361345
1.56,231.15504,160.27419,13.939034,-27.31864,10.07704,32.322853
1.562,237.29536,163.25093,17.883047,-28.865852,8.837993,35.486107
1.564,243.38239,165.30055,22.027836,-30.48319,7.7306514,38.777145
1.566,249.32169,166.40952,26.363335,-32.19246,6.7427597,42.099342
1.568,255.00577,166.5876,30.87257,-34.012302,5.8356276,45.315155
1.57,260.32852,165.85532,35.5592,-35.946804,4.9510612,48.25297
1.572,265.1793,164.24922,40.423485,-37.978706,4.0076447,50.725983
1.574,269.43335,161.83636,45.4336,-40.0692,2.9093046,52.544563
1.576,272.97845,158.70471,50.539417,-42.167187,1.5510321,53.524067
1.578,275.7118,154.94374,55.69494,-44.20164,-0.18204689,53.519566
1.58,277.53452,150.65773,60.847675,-46.07734,-2.388052,52.464874
1.582,278.36002,145.96477,65.93428,-47.675915,-5.1101503,50.38382
1.584,278.1325,140.98291,70.87884,-48.863358,-8.330963,47.389706
1.586,276.831,135.83228,75.58903,-49.50135,-11.968024,43.67503
1.588,274.46164,130.63565,79.958755,-49.45688,-15.873573,39.484413
1.59,271.05634,125.511406,83.8775,-48.615562,-19.844011,35.080566
1.592,266.67004,120.569046,87.23341,-46.897762,-23.638584,30.713684
1.594,261.37906,115.90569,89.92035,-44.27038,-27.006008,26.592434
1.596,255.2802,111.59985,91.85027,-40.757652,-29.719563,22.86849
1.598,248.48814,107.70688,92.95375,-36.445637,-31.604174,19.63538
1.6,241.13326,104.26266,93.17749,-31.480978,-32.560345,16.931263
1.602,233.35286,101.29277,92.48397,-26.054335,-32.569096,14.751916
1.604,225.28769,98.81167,90.8567,-20.387733,-31.69211,13.075632
1.606,217.07854,96.81194,88.30779,-14.7155,-30.076159,11.893787
1.608,208.86061,95.271774,84.88286,-9.249465,-27.896658,11.172808
1.61,200.7532,94.15497,80.653145,-4.1744404,-25.343977,10.880716
1.612,192.86111,93.40584,75.71803,0.35776162,-22.618105,10.968899
1.614,185.27466,92.97118,70.19067,4.249935,-19.916477,11.371623
1.616,178.0676,92.79555,64.20231,7.455863,-17.412315,12.026282
1.618,171.29837,92.812584,57.89071,9.989491,-15.212277,12.785711
1.62,164.99402,92.96499,51.39333,11.905948,-13.384966,13.498861
1.622,159.18571,93.16971,44.851997,13.283646,-11.962896,14.037633
1.624,153.87778,93.39333,38.400627,14.211236,-10.950335,14.300779
1.626,149.02884,93.60512,32.119118,14.782999,-10.318547,14.21914
1.628,144.5742,93.7872,26.119354,15.097974,-10.0134735,13.770418
1.63,140.53711,93.86171,20.53878,15.259908,-9.958701,12.987168
1.632,136.91711,93.74838,15.415377,15.359919,-10.056455,11.935326
1.634,133.64798,93.39339,10.761698,15.470072,-10.209801,10.695343
1.636,130.66333,92.75088,6.5937843,15.642735,-10.342396,9.360447
1.638,127.91139,91.826996,2.9201908,15.912849,-10.388285,8.027322
1.64,125.34473,90.64064,-0.19760895,16.299858,-10.293379,6.783448
1.642,122.92882,89.246376,-2.8758335,16.806505,-10.022385,5.698491
1.644,120.65678,87.78029,-5.1662436,17.42141,-9.561959,4.8181744
1.646,118.48955,86.25539,-7.1454396,18.124393,-8.918931,4.1603956
1.648,116.36461,84.59022,-8.929161,18.888327,-8.11611,3.7192996
1.65,114.24524,82.77403,-10.582521,19.683054,-7.184187,3.4719071
1.652,112.10185,80.80252,-12.154107,20.478958,-6.156381,3.3839288
1.654,109.91144,78.67877,-13.571438,21.248028,-5.065388,3.4163728
1.656,107.68428,76.502625,-14.791111,21.9606,-3.9450567,3.5315018
1.658,105.45075,74.26085,-15.807409,22.589617,-2.8285356,3.698563
1.66,103.18712,72.05197,-16.76346,23.115574,-1.74087,3.895171
1.662,100.953514,69.8825,-17.687464,23.524027,-0.701221,4.1049514
1.664,98.711945,67.79699,-18.566095,23.804018,0.27498674,4.317254
1.666,96.41615,65.85974,-19.391434,23.948994,1.1775441,4.526143
1.668,94.070625,64.05229,-20.179756,23.956928,2.0003576,4.728301
1.67,91.66693,62.370277,-20.952515,23.829718,2.7402468,4.9223967
1.672,89.20436,60.81253,-21.71479,23.572693,3.3969927,5.1091404
1.674,86.69328,59.369793,-22.458029,23.194221,3.9725733,5.2906313
1.676,84.1508,58.03138,-23.163616,22.705261,4.470049,5.4690456
1.678,81.59081,56.790962,-23.815048,22.118578,4.8931165,5.6453304
1.68,79.016495,55.654713,-24.419666,21.44719,5.2455935,5.818282
1.682,76.434784,54.629562,-24.98036,20.703594,5.531022,5.984954
1.684,73.86446,53.709244,-25.47366,19.899454,5.753177,6.14177
1.686,71.31392,52.886086,-25.876411,19.045511,5.9159408,6.2853956
1.688,68.79184,52.16415,-26.186768,18.151773,6.0232844,6.413231
1.69,66.31366,51.541344,-26.407408,17.227762,6.079512,6.5237
1.692,63.893166,51.008987,-26.538872,16.282488,6.0893626,6.6163683
1.694,61.531357,50.560703,-26.579468,15.324545,6.058126,6.691986
1.696,59.22174,50.185898,-26.523178,14.362242,5.991596,6.7522197
1.698,56.960987,49.868534,-26.364214,13.403614,5.895897,6.799133
1.7,54.75013,49.59288,-26.102297,12.456472,5.777484,6.834817
1.702,52.593773,49.345417,-25.740295,11.528236,5.6429586,6.8612566
1.704,50.497856,49.11586,-25.285446,10.625733,5.499088,6.880334
1.706,48.46904,48.90087,-24.753098,9.755096,5.352653,6.893778
1.708,46.512146,48.70147,-24.160439,8.92148,5.2101765,6.903098
1.71,44.630726,48.51887,-23.524868,8.128913,5.0777435,6.909447
1.712,42.82685,48.35378,-22.862272,7.3801966,4.9607935,6.9134893
1.714,41.10131,48.204865,-22.185036,6.6768713,4.8638506,6.9153137
1.716,39.452744,48.07103,-21.504868,6.0193453,4.79033,6.9144144
1.718,37.878555,47.951817,-20.833487,5.4069004,4.742274,6.909831
1.72,36.37671,47.846645,-20.182707,4.8378444,4.720237,6.900285
1.722,34.94506,47.75629,-19.564873,4.3096714,4.723293,6.884384
1.724,33.580517,47.682247,-18.991882,3.8191721,4.749032,6.860696
1.726,32.277817,47.62691,-18.473898,3.3626456,4.7937675,6.827802
1.728,31.031399,47.591766,-18.01883,2.9360905,4.852788,6.7843266
1.73,29.835356,47.576633,-17.632072,2.535343,4.9206553,6.7289696
1.732,28.684093,47.580666,-17.317146,2.15622,4.991487,6.6606045
1.734,27.57231,47.602398,-17.075562,1.7946942,5.059372,6.578449
1.736,26.494686,47.64075,-16.906918,1.4469342,5.118623,6.482214
1.738,25.44609,47.694706,-16.808804,1.1093835,5.163904,6.3722486
1.74,24.42236,47.763073,-16.776802,0.7788092,5.190453,6.2496405
1.742,23.41888,47.844982,-16.805964,0.452412,5.194197,6.1162233
1.744,22.431726,47.939186,-16.890488,0.12780648,5.1717825,5.974456
1.746,21.457417,48.043972,-17.02335,-0.19695884,5.120564,5.8273497
1.748,20.492867,48.157192,-17.196596,-0.5233793,5.038631,5.678309
1.75,19.53606,48.276638,-17.402103,-0.852502,4.9247293,5.530912
1.752,18.585716,48.399666,-17.631197,-1.1849362,4.7781525,5.388702
1.754,17.6414,48.52359,-17.874626,-1.5209233,4.5986433,5.2550797
1.756,16.703781,48.645607,-18.122957,-1.8603615,4.386323,5.1332383
1.758,15.774226,48.762497,-18.366257,-2.202894,4.1414895,5.0260577
1.76,14.855259,48.87066,-18.595211,-2.5479805,3.8645825,4.9360805
1.762,13.949976,48.966576,-18.801205,-2.8948727,3.5561347,4.865478
1.764,13.062035,49.046368,-18.976377,-3.242691,3.2166665,4.8160014
1.766,12.195778,49.10607,-19.112926,-3.5904264,2.8466465,4.789053
1.768,11.3559475,49.141594,-19.20363,-3.9368896,2.4465687,4.7857666
1.77,10.546808,49.149406,-19.241714,-4.2807183,2.016957,4.8069196
1.772,9.772818,49.126225,-19.221151,-4.620358,1.558473,4.852893
1.774,9.038525,49.068634,-19.136936,-4.954115,1.0720714,4.923707
1.776,8.348228,48.97361,-18.984894,-5.280022,0.55920464,5.018833
1.778,7.705662,48.837883,-18.76139,-5.595859,0.021957815,5.137085
1.78,7.114086,48.658447,-18.463299,-5.8991814,-0.5369368,5.27649
1.782,6.576208,48.432396,-18.088766,-6.18737,-1.114063,5.4343443
1.784,6.09379,48.157326,-17.636627,-6.457619,-1.7053086,5.6071625
1.786,5.6678333,47.831345,-17.106346,-6.707087,-2.3059993,5.7907
1.788,5.298424,47.453217,-16.498384,-6.933027,-2.9111269,5.980105
1.79,4.984705,47.022762,-15.814151,-7.132907,-3.515504,6.170097
1.792,4.7247715,46.540104,-15.055652,-7.304529,-4.1139855,6.3551645
1.794,4.5159054,46.006554,-14.225655,-7.4461527,-4.7016716,6.529859
1.796,4.354435,45.42402,-13.327612,-7.556609,-5.2740474,6.6890035
1.798,4.2357445,44.79521,-12.365592,-7.6353765,-5.827095,6.827937
1.8,4.1545963,44.12328,-11.343935,-7.682564,-6.357338,6.94281
1.802,4.105257,43.411987,-10.267607,-7.698939,-6.861815,7.0307336
1.804,4.0817785,42.665245,-9.141921,-7.685838,-7.338019,7.0899677
1.806,4.0778847,41.887417,-7.9725695,-7.645089,-7.783805,7.1199265
1.808,4.087389,41.08315,-6.7654667,-7.578904,-8.197348,7.121146
1.81,4.1040773,40.256554,-5.5265102,-7.4897404,-8.576992,7.095168
1.812,4.1221704,39.412174,-4.2619514,-7.380212,-8.921318,7.044316
1.814,4.1362514,38.55411,-2.9778156,-7.2529535,-9.229112,6.971428
1.816,4.141447,37.686523,-1.680356,-7.110606,-9.499389,6.8796844
1.818,4.1335754,36.812866,-0.37552643,-6.9557037,-9.731385,6.7723155
1.82,4.109002,35.936497,0.9308758,-6.7906623,-9.924608,6.6523376
1.822,4.065094,35.060116,2.2331991,-6.617728,-10.078932,6.5223475
1.824,3.999895,34.186222,3.5261593,-6.438934,-10.194578,6.3844633
1.826,3.9120197,33.316727,4.804565,-6.2560725,-10.272174,6.240321
1.828,3.8008327,32.452957,6.0636635,-6.070668,-10.312798,6.0909834
1.83,3.6660805,31.596035,7.299129,-5.884107,-10.318002,5.9371862
1.832,3.508399,30.746498,8.506638,-5.697584,-10.289724,5.77946
1.834,3.3287392,29.904654,9.682758,-5.512162,-10.230202,5.6181707
1.836,3.1288319,29.070292,10.82424,-5.328743,-10.141867,5.4535823
1.838,2.9106426,28.243183,11.928038,-5.1481724,-10.02735,5.285992
1.84,2.676538,27.42289,12.991661,-4.971154,-9.889318,5.1158056
1.842,2.4284391,26.609192,14.013101,-4.798272,-9.730344,4.9434857
1.844,2.1685667,25.801874,14.990857,-4.629983,-9.552859,4.769556
1.846,1.8992677,25.000692,15.923674,-4.466635,-9.359057,4.59459
1.848,1.6230874,24.205505,16.810362,-4.3084335,-9.150798,4.41917
1.85,1.3421521,23.416645,17.649996,-4.155458,-8.929609,4.243873
1.852,1.0594063,22.634113,18.442081,-4.007655,-8.696598,4.069218
1.854,0.7771716,21.858452,19.186335,-3.8648992,-8.452514,3.8956869
1.856,0.49739933,21.090317,19.88244,-3.727003,-8.197736,3.7237039
1.858,0.2221179,20.330881,20.530106,-3.5937865,-7.932378,3.5536942
1.86,-0.046582222,19.581417,21.129265,-3.4650905,-7.6563416,3.3860936
1.862,-0.30682087,18.843729,21.679558,-3.340857,-7.369359,3.2213771
1.864,-0.5569818,18.119738,22.180624,-3.2211294,-7.0711393,3.060073
1.866,-0.79584503,17.411415,22.632334,-3.1061049,-6.7614174,2.902757
1.868,-1.0221746,16.721107,23.034338,-2.9961634,-6.4400625,2.7500749
1.87,-1.235018,16.050777,23.386425,-2.891814,-6.1071243,2.6026952
1.872,-1.4337683,15.402552,23.688362,-2.7937057,-5.7629366,2.4612782
1.874,-1.6175425,14.778215,23.94014,-2.7025988,-5.4081106,2.3264582
1.876,-1.785878,14.179669,24.14192,-2.619292,-5.043561,2.1987257
1.878,-1.938396,13.608475,24.294312,-2.5446088,-4.670502,2.0784423
1.88,-2.074705,13.066172,24.398136,-2.479309,-4.290411,1.9657538
1.882,-2.1948187,12.554088,24.454504,-2.4240444,-3.9049892,1.8605245
1.884,-2.2986524,12.073254,24.464668,-2.3793178,-3.5160997,1.7623305
1.886,-2.38654,11.624504,24.430231,-2.345443,-3.1256766,1.6704929
1.888,-2.4586692,11.208417,24.352928,-2.322536,-2.7356896,1.5840974
1.89,-2.5156872,10.825366,24.234922,-2.310537,-2.3480675,1.5020665
1.892,-2.5579295,10.475243,24.078497,-2.309186,-1.9646492,1.4232522
1.894,-2.5857475,10.157835,23.88622,-2.3180861,-1.587118,1.3464853
1.896,-2.5996542,9.872427,23.660728,-2.3367226,-1.2169834,1.2706617
1.898,-2.6000857,9.618284,23.404734,-2.3644996,-0.8555743,1.1948146
1.9,-2.5877354,9.394178,23.121084,-2.4007766,-0.504028,1.1181415
1.902,-2.563173,9.198935,22.812553,-2.4449193,-0.16330561,1.0400267
1.904,-2.5269456,9.031071,22.481771,-2.4962912,0.16582817,0.9600422
1.906,-2.4796357,8.889082,22.131336,-2.5542881,0.48276347,0.8779013
1.908,-2.4216735,8.771533,21.763676,-2.618355,0.7870232,0.79345036
1.91,-2.3536487,8.677001,21.381124,-2.687982,1.0783013,0.7066212
1.912,-2.2759566,8.604001,20.985872,-2.7627218,1.3564113,0.6174202
1.914,-2.1889763,8.551094,20.579962,-2.8421881,1.6212811,0.52591103
1.916,-2.0930052,8.516699,20.165388,-2.9260547,1.8729343,0.4321959
1.918,-1.9884455,8.499559,19.743725,-3.0140467,2.111463,0.33638802
1.92,-1.8754163,8.498451,19.316584,-3.1059332,2.3370256,0.23863219
1.922,-1.7542765,8.5121565,18.885572,-3.2015328,2.549822,0.13906577
1.924,-1.625181,8.539625,18.451916,-3.3007185,2.750074,0.03784445
1.926,-1.4883124,8.579918,18.01701,-3.4033828,2.938025,-0.06488621
1.928,-1.3438792,8.632436,17.58196,-3.5094523,3.1139216,-0.16900444
1.93,-1.1920877,8.69651,17.147726,-3.6188726,3.2780328,-0.274378
1.932,-1.0332106,8.771766,16.715294,-3.7315922,3.430622,-0.38092726
1.934,-0.8674357,8.857726,16.285538,-3.8475456,3.571948,-0.48858315
1.936,-0.695045,8.954195,15.859304,-3.9666953,3.702256,-0.59726226
1.938,-0.5164335,9.061058,15.437423,-4.088996,3.8217642,-0.70690185
1.94,-0.33149505,9.177975,15.020528,-4.214397,3.9306552,-0.8174364
1.942,-0.14094114,9.304894,14.609384,-4.3428698,4.0290885,-0.92876977
1.944,0.05518627,9.441769,14.204557,-4.474379,4.117166,-1.0408052
1.946,0.25687337,9.588353,13.806871,-4.6089315,4.194988,-1.1534264
1.948,0.46385527,9.744553,13.417137,-4.746534,4.262629,-1.26648
1.95,0.67578745,9.910325,13.035978,-4.8871903,4.320178,-1.3798069
1.952,0.8928194,10.085393,12.664376,-5.0309215,4.367745,-1.4932289
1.954,1.1151142,10.269437,12.303208,-5.1777296,4.405493,-1.6065655
1.956,1.3429706,10.46218,11.953007,-5.327597,4.4336953,-1.719626
1.958,1.5764008,10.663385,11.614638,-5.4804707,4.452732,-1.8322375
1.96,1.815614,10.872543,11.288516,-5.6362653,4.463106,-1.944236
1.962,2.0611434,11.089051,10.9753685,-5.794838,4.465456,-2.055456
1.964,2.313423,11.312357,10.67579,-5.9559975,4.4605494,-2.165729
1.966,2.5728784,11.541894,10.390276,-6.1195164,4.449277,-2.2748563
1.968,2.8403442,11.7770195,10.119518,-6.2851377,4.4326305,-2.3826187
1.97,3.116415,12.017226,9.864044,-6.452572,4.4117146,-2.4887786
1.972,3.401742,12.262056,9.624386,-6.621507,4.3876853,-2.5930471
1.974,3.6969774,12.511073,9.401003,-6.791608,4.3617563,-2.6951137
1.976,4.0028915,12.764148,9.194147,-6.962458,4.335183,-2.7946377
1.978,4.3201838,13.020967,9.004087,-7.1335955,4.30927,-2.891283
1.98,4.649525,13.281607,8.830777,-7.3045,4.285266,-2.9847364
1.982,4.9915776,13.546116,8.674166,-7.4745874,4.2643895,-3.074686
1.984,5.3467884,13.814682,8.533882,-7.643167,4.2478504,-3.1608825
1.986,5.7157507,14.087657,8.40946,-7.8094563,4.236868,-3.2431536
1.988,6.098934,14.365598,8.300179,-7.9726086,4.2326317,-3.3214393
1.99,6.496683,14.649058,8.205183,-8.131731,4.2363076,-3.3957353
1.992,6.9093475,14.938775,8.123508,-8.285931,4.249003,-3.4661014
1.994,7.3372607,15.235798,8.054147,-8.4343815,4.2717075,-3.532648
1.996,7.780908,15.541004,7.9957705,-8.576334,4.3052483,-3.5955346
1.998,8.240463,15.855509,7.947174,-8.711203,4.350292,-3.65494
2,8.716709,16.180212,7.9068055,-8.83856,4.40728,-3.711066
2.002,9.209852,16.516403,7.873179,-8.958193,4.4763975,-3.76416
2.004,9.720187,16.865036,7.8445964,-9.070039,4.5576134,-3.8144953
2.006,10.247747,17.227234,7.819336,-9.174171,4.650707,-3.8623478
2.008,10.792826,17.603828,7.795989,-9.270741,4.7553043,-3.9080045
2.01,11.356375,17.995726,7.773292,-9.359926,4.870927,-3.9517303
2.012,11.938965,18.403645,7.749812,-9.441891,4.9970536,-3.9937286
2.014,12.540988,18.828222,7.724032,-9.51667,5.13326,-4.034149
2.016,13.163223,19.269608,7.6947002,-9.584218,5.279207,-4.073122
2.018,13.806242,19.727535,7.6605587,-9.644319,5.434692,-4.1107244
2.02,14.47077,20.201275,7.6203218,-9.696628,5.5996747,-4.1469936
2.022,15.157045,20.68983,7.573061,-9.74068,5.7742767,-4.1819305
2.024,15.865056,21.192001,7.5177183,-9.775932,5.958756,-4.2155943
2.026,16.594238,21.706795,7.452977,-9.8017845,6.1535068,-4.2480927
2.028,17.344654,22.232868,7.3778253,-9.817606,6.359022,-4.279638
2.03,18.116146,22.768343,7.290895,-9.822727,6.5758476,-4.3105717
2.032,18.90923,23.310255,7.190877,-9.816486,6.80455,-4.341355
2.034,19.723717,23.85525,7.076234,-9.79817,7.0457764,-4.37259
2.036,20.559286,24.39923,6.945215,-9.767046,7.3001156,-4.4049835
2.038,21.41536,24.937532,6.796299,-9.7224455,7.5680275,-4.439261
2.04,22.290821,25.465052,6.6275616,-9.663658,7.8498955,-4.476175
2.042,23.184345,25.976007,6.4369903,-9.589957,8.145973,-4.5165424
2.044,24.093576,26.464386,6.222534,-9.500649,8.45634,-4.561209
2.046,25.016,26.923758,5.9819984,-9.395058,8.780832,-4.6109324
2.048,25.94841,27.347511,5.7128778,-9.272581,9.119104,-4.666355
2.05,26.887148,27.72876,5.413312,-9.132669,9.470569,-4.7279673
2.052,27.82851,28.060143,5.081537,-8.974888,9.834342,-4.796009
2.054,28.768147,28.334578,4.715768,-8.798972,10.2093,-4.870407
2.056,29.70174,28.544922,4.314402,-8.604835,10.594135,-4.950735
2.058,30.624748,28.684486,3.8758526,-8.392568,10.987404,-5.0362577
2.06,31.532356,28.746765,3.3990045,-8.162337,11.387556,-5.1260095
2.062,32.41874,28.726128,2.8827372,-7.9143906,11.792952,-5.2186995
2.064,33.27781,28.617533,2.326478,-7.6490154,12.201904,-5.31277
2.066,34.10324,28.416557,1.730217,-7.366497,12.612615,-5.4064083
2.068,34.88837,28.12008,1.0939837,-7.067203,13.023083,-5.497598
2.07,35.626205,27.726156,0.41857147,-6.75156,13.431064,-5.5841384
2.072,36.308964,27.23431,-0.2950592,-6.4200835,13.833919,-5.6638026
2.074,36.92887,26.645082,-1.0450029,-6.073429,14.228475,-5.734476
2.076,37.478104,25.960588,-1.8290491,-5.7124186,14.610955,-5.7942553
2.078,37.9486,25.184238,-2.6442442,-5.3380613,14.9768915,-5.8415103
2.08,38.332726,24.321045,-3.4870691,-4.951624,15.321038,-5.8749943
2.082,38.623177,23.377472,-4.3531046,-4.5546675,15.637383,-5.8938274
2.084,38.81302,22.36131,-5.237157,-4.149167,15.919227,-5.897401
2.086,38.896873,21.281229,-6.1337347,-3.7375698,16.15932,-5.8853083
2.088,38.869923,20.147602,-7.0362225,-3.3229423,16.350048,-5.8572197
2.09,38.72785,18.971952,-7.938282,-2.908987,16.483736,-5.8127856
2.092,38.468475,17.76625,-8.832556,-2.5000985,16.553072,-5.751502
2.094,38.09135,16.542578,-9.711489,-2.1013713,16.551455,-5.6725483
2.096,37.59794,15.312971,-10.567373,-1.7184792,16.47346,-5.574762
2.098,36.991043,14.089966,-11.392049,-1.3573931,16.315252,-5.4567895
2.1,36.27566,12.885822,-12.17761,-1.0241432,16.074827,-5.317345
2.102,35.458824,11.712243,-12.916363,-0.7244897,15.7521515,-5.1553116
2.104,34.548794,10.57999,-13.600837,-0.46356598,15.349256,-4.969923
2.106,33.556103,9.498891,-14.223891,-0.24551487,14.870167,-4.760956
2.108,32.492302,8.477582,-14.779177,-0.07317945,14.320709,-4.5288687
2.11,31.37011,7.5231724,-15.260958,0.052087635,13.708137,-4.2748485
2.112,30.20361,6.6412115,-15.664392,0.13048325,13.040804,-4.0007997
2.114,29.00725,5.8355618,-15.985687,0.16369966,12.327838,-3.7094147
2.116,27.795675,5.1085215,-16.221937,0.15490636,11.578813,-3.404114
2.118,26.583204,4.4606347,-16.37181,0.10851943,10.803325,-3.0889597
2.12,25.383152,3.8908722,-16.435083,0.03005898,10.010758,-2.7685847
2.122,24.208607,3.3967764,-16.412527,-0.07418229,9.210095,-2.448089
2.124,23.07145,2.9746547,-16.305885,-0.19754285,8.409674,-2.1327882
2.126,21.982279,2.6197789,-16.118435,-0.3332931,7.617105,-1.8277963
2.128,20.950066,2.326832,-15.854367,-0.4749678,6.8392916,-1.5378462
2.13,19.982178,2.0895185,-15.519142,-0.6166564,6.0823216,-1.2670758
2.132,19.08454,1.9011036,-15.119234,-0.7532368,5.3514752,-1.0189056
2.134,18.261333,1.7542241,-14.661799,-0.8805035,4.651318,-0.79594207
2.136,17.51511,1.6411371,-14.154505,-0.99521375,3.985718,-0.59987223
2.138,16.845852,1.5542388,-13.6057205,-1.0950892,3.3578844,-0.4315266
2.14,16.251888,1.4866297,-13.02403,-1.1787069,2.770379,-0.29089463
2.142,15.730051,1.432338,-12.418399,-1.2454094,2.2251437,-0.17724197
2.144,15.276606,1.3859243,-11.797538,-1.2951627,1.7235092,-0.08928093
2.146,14.886784,1.3425002,-11.170169,-1.3284087,1.266136,-0.025343359
2.148,14.5553665,1.297575,-10.544623,-1.3459499,0.8530377,0.016441315
2.15,14.276453,1.2472347,-9.928744,-1.3488349,0.48359662,0.038010687
2.152,14.043806,1.1882432,-9.32963,-1.3383044,0.15658379,0.041261345
2.154,13.851372,1.1179261,-8.75369,-1.3156962,-0.12978694,0.027993828
2.156,13.692678,1.0342606,-8.206555,-1.2824371,-0.37781066,-0.00020965934
2.158,13.561349,0.9361203,-7.6927853,-1.240007,-0.5902654,-0.042005032
2.16,13.450999,0.8231047,-7.2164803,-1.1899642,-0.7703331,-0.096268505
2.162,13.355635,0.69563663,-6.780799,-1.1338985,-0.9215067,-0.16197474
2.164,13.269455,0.5544124,-6.38762,-1.073438,-1.0474464,-0.2380811
2.166,13.187062,0.40085799,-6.0381064,-1.0102326,-1.1519113,-0.3234278
2.168,13.103907,0.23640847,-5.7320004,-0.9459332,-1.2386733,-0.416573
2.17,13.016063,0.063152134,-5.46852,-0.882207,-1.3114033,-0.5158047
2.172,12.920743,-0.1166811,-5.2460403,-0.82064366,-1.373515,-0.61913323
2.174,12.8158655,-0.30062002,-5.0621796,-0.76286554,-1.4280955,-0.7242951
2.176,12.700068,-0.4858455,-4.913947,-0.71037346,-1.4779,-0.8289087
2.178,12.572839,-0.6699153,-4.7979894,-0.6644974,-1.5252783,-0.93077624
2.18,12.434287,-0.8502909,-4.7105575,-0.6264007,-1.5721569,-1.0280946
2.182,12.285345,-1.024753,-4.647641,-0.5970427,-1.6200974,-1.1195036
2.184,12.127201,-1.1909566,-4.6054983,-0.5771375,-1.6702116,-1.204183
2.186,11.961445,-1.3469996,-4.5800376,-0.5670696,-1.7231199,-1.2819679
2.188,11.79015,-1.4913211,-4.567477,-0.56688875,-1.7790393,-1.3533598
2.19,11.615203,-1.62273,-4.5639877,-0.5762693,-1.8377423,-1.4195366
2.192,11.438911,-1.7403996,-4.566113,-0.594472,-1.8986143,-1.4821848
2.194,11.2634945,-1.8437693,-4.570839,-0.6203933,-1.9606873,-1.5433372
2.196,11.090424,-1.9324875,-4.574788,-0.65257514,-2.0227332,-1.6050813
2.198,10.921675,-2.0067701,-4.575509,-0.6892959,-2.0833967,-1.6693394
2.2,10.759384,-2.0672073,-4.570177,-0.72868985,-2.1412916,-1.7376366
2.202,10.604784,-2.1140757,-4.5571346,-0.7688607,-2.1951063,-1.8109434
2.204,10.458818,-2.1475053,-4.5347786,-0.8080132,-2.2436895,-1.8895519
2.206,10.321961,-2.167684,-4.501939,-0.84457576,-2.286109,-1.973043
2.208,10.194921,-2.175352,-4.4581356,-0.87734354,-2.3217175,-2.0603783
2.21,10.077928,-2.1711013,-4.4029884,-0.9054966,-2.3501377,-2.1500397
2.212,9.97069,-2.1554532,-4.336502,-0.92864406,-2.3712444,-2.2402098
2.214,9.873447,-2.1286836,-4.258932,-0.9467629,-2.3851287,-2.3289692
2.216,9.785236,-2.0908074,-4.1708245,-0.96018875,-2.392064,-2.414493
2.218,9.705993,-2.04191,-4.072839,-0.9695138,-2.3924725,-2.4951997
2.22,9.635063,-1.9816995,-3.9657114,-0.9754607,-2.386849,-2.569829
2.222,9.571585,-1.9099996,-3.850356,-0.9787676,-2.375715,-2.637509
2.224,9.514994,-1.8263209,-3.727683,-0.9801115,-2.3595893,-2.69778
2.226,9.46488,-1.7304053,-3.5987422,-0.98006886,-2.3389869,-2.7505252
2.228,9.420719,-1.6220207,-3.4644074,-0.9790205,-2.3143427,-2.7959132
2.23,9.382043,-1.5009089,-3.3256526,-0.97717494,-2.2859683,-2.8343623
2.232,9.348461,-1.3673244,-3.183453,-0.9745872,-2.254027,-2.8664732
2.234,9.319702,-1.2217665,-3.0387669,-0.9711465,-2.2185345,-2.8930335
2.236,9.295364,-1.0647624,-2.8924065,-0.9666274,-2.1793513,-2.9149225
2.238,9.275408,-0.8976176,-2.745338,-0.9607146,-2.1362271,-2.9330564
2.24,9.259703,-0.7215537,-2.5982785,-0.95308304,-2.088828,-2.9482737
2.242,9.248063,-0.5383494,-2.4519248,-0.94338095,-2.0367646,-2.9613562
2.244,9.240507,-0.3500272,-2.306974,-0.93131125,-1.9796139,-2.9729712
2.246,9.236978,-0.1588738,-2.1640322,-0.91659534,-1.9169744,-2.9836903
2.248,9.237547,0.032625318,-2.0235891,-0.89898133,-1.848467,-2.9939933
2.25,9.242256,0.22188616,-1.8861566,-0.8782332,-1.7737707,-3.0042844
2.252,9.25089,0.4061985,-1.7521216,-0.8541377,-1.6926429,-3.0148692
2.254,9.263169,0.5827254,-1.6219133,-0.8264568,-1.6049597,-3.0259542
2.256,9.278984,0.7489102,-1.4957004,-0.7949534,-1.5107205,-3.0376377
2.258,9.298153,0.9025835,-1.3737909,-0.75940514,-1.4100481,-3.049889
2.26,9.320677,1.0417204,-1.2562587,-0.7195908,-1.3032061,-3.062552
2.262,9.346495,1.164509,-1.143239,-0.67533517,-1.1905751,-3.0753012
2.264,9.375616,1.2694122,-1.034746,-0.6265313,-1.0726418,-3.087647
2.266,9.408126,1.3552709,-0.9305159,-0.5731536,-0.94996697,-3.0989654
2.268,9.444018,1.4211152,-0.830281,-0.5152854,-0.8231529,-3.1085258
2.27,9.483286,1.4663835,-0.73360467,-0.45310855,-0.6927953,-3.1155107
2.272,9.525971,1.4911058,-0.6400486,-0.38688493,-0.5594236,-3.119062
2.274,9.572038,1.4955652,-0.5490868,-0.31697488,-0.4234868,-3.1183343
2.276,9.621435,1.4806697,-0.46009064,-0.24380839,-0.2853067,-3.1125407
2.278,9.674233,1.4475693,-0.37264788,-0.16784555,-0.14507914,-3.10098
2.28,9.730678,1.3976876,-0.28631485,-0.089556634,-0.002834484,-3.083111
2.282,9.790721,1.3328907,-0.20059133,-0.009416491,0.14151688,-3.0585666
2.284,9.854649,1.2551413,-0.115216374,0.07213974,0.28818285,-3.0271575
2.286,9.922537,1.1666204,-0.030019403,0.15474486,0.43745893,-2.988871
2.288,9.994587,1.0696046,0.05518794,0.23808195,0.58970004,-2.943882
2.29,10.071038,0.96636176,0.1404326,0.3219071,0.7452731,-2.8925476
2.292,10.15203,0.85933423,0.22551572,0.40606132,0.9045428,-2.8353307
2.294,10.237838,0.7507603,0.31039023,0.49045908,1.0678427,-2.7728117
2.296,10.328574,0.6428304,0.3948642,0.5750525,1.2354386,-2.7056193
2.298,10.424287,0.53771853,0.4785571,0.6598636,1.4075024,-2.6344094
2.3,10.525288,0.43720412,0.5612291,0.74492955,1.5841303,-2.5598197
2.302,10.631561,0.342911,0.6424817,0.830297,1.7653178,-2.4824698
2.304,10.7430725,0.25625587,0.72188175,0.9160259,1.9509475,-2.4029412
2.306,10.859847,0.1783514,0.79907596,1.0021622,2.1408014,-2.3217845
2.308,10.981652,0.11003947,0.87356615,1.0887291,2.3345687,-2.2395182
2.31,11.108452,0.05171752,0.94503975,1.1757393,2.5318186,-2.1566565
2.312,11.239817,0.0036447048,1.0132325,1.2631879,2.7320151,-2.0737095
2.314,11.37528,-0.034334183,1.0779285,1.3510436,2.934539,-1.9912044
2.316,11.514084,-0.062422514,1.1388451,1.4392934,3.1387017,-1.9096913
2.318,11.655866,-0.08126807,1.1959801,1.5278823,3.3437438,-1.8297457
2.32,11.79979,-0.091573,1.2491877,1.6167481,3.5488546,-1.7519431
2.322,11.945105,-0.09438133,1.2984711,1.7058142,3.753221,-1.6768606
2.324,12.090689,-0.09078312,1.3437352,1.7949886,3.9560146,-1.6050513
2.326,12.235869,-0.08222675,1.3851876,1.8841591,4.156431,-1.5370215
2.328,12.3793955,-0.07014704,1.4228983,1.9731841,4.353699,-1.4732065
2.33,12.520216,-0.056040764,1.456972,2.0618997,4.5470953,-1.4139516
2.332,12.657409,-0.04147482,1.4875559,2.1501312,4.735974,-1.3594983
2.334,12.789891,-0.028064251,1.5148314,2.2376912,4.9197516,-1.3099735
2.336,12.916597,-0.01737833,1.5389323,2.3243904,5.097931,-1.2653924
2.338,13.036443,-0.010735035,1.5600502,2.4100358,5.2700977,-1.2256613
2.34,13.148514,-0.009628773,1.5781646,2.494451,5.4359202,-1.1905941
2.342,13.251837,-0.015073776,1.593512,2.5774677,5.595148,-1.1598924
2.344,13.345784,-0.028113365,1.6061575,2.6589453,5.747611,-1.1331835
2.346,13.429505,-0.049485207,1.6161633,2.7387362,5.893183,-1.1100566
2.348,13.502422,-0.07974672,1.6237369,2.8167338,6.0318003,-1.0900401
2.35,13.564047,-0.119113445,1.6289408,2.8928342,6.1634636,-1.0726326
2.352,13.614086,-0.16779852,1.6317036,2.9669437,6.288208,-1.0573426
2.354,13.652348,-0.22558832,1.6321437,3.0389862,6.4061046,-1.0436666
2.356,13.678574,-0.29214525,1.6302488,3.108882,6.5172334,-1.0311233
2.358,13.6928625,-0.36706305,1.6259675,3.1765428,6.6216946,-1.0192688
2.36,13.695375,-0.44980574,1.619272,3.241885,6.719578,-1.0076897
2.362,13.686314,-0.5396104,1.6101491,3.3048153,6.8109703,-0.99600387
2.364,13.665865,-0.63560057,1.5986757,3.3652458,6.895948,-0.9838712
2.366,13.634477,-0.73693657,1.5848513,3.4230773,6.9745626,-0.9710233
2.368,13.5924835,-0.84273624,1.5686865,3.4782305,7.04685,-0.9572437
2.37,13.54044,-0.95201063,1.550353,3.5306149,7.1128063,-0.94239545
2.372,13.478887,-1.0638447,1.5300941,3.5801783,7.1724076,-0.9264264
2.374,13.408423,-1.1773696,1.5080838,3.626873,7.225603,-0.90937567
2.376,13.329712,-1.2918558,1.4846144,3.6706557,7.272298,-0.8913548
2.378,13.2432575,-1.4064407,1.459898,3.7115088,7.312406,-0.8725476
2.38,13.1498165,-1.5204358,1.4343493,3.7494092,7.3457947,-0.85317874
2.382,13.050093,-1.6332645,1.4083395,3.7843442,7.3723288,-0.8335066
2.384,12.944808,-1.7442355,1.3822556,3.8162875,7.3918777,-0.81378746
2.386,12.834598,-1.853014,1.356591,3.8451853,7.4043217,-0.79426
2.388,12.720102,-1.9589891,1.3318095,3.870985,7.4095554,-0.7751179
2.39,12.602055,-2.0618849,1.3085055,3.8936086,7.407506,-0.7565148
2.392,12.481216,-2.1615348,1.2870557,3.9129636,7.3981247,-0.73855567
2.394,12.357967,-2.2574797,1.2679701,3.9289396,7.381418,-0.7212982
2.396,12.233063,-2.3496246,1.2517958,3.9414258,7.35742,-0.7047601
2.398,12.107075,-2.4377837,1.239048,3.9503021,7.3262177,-0.6889367
2.4,11.980491,-2.5217388,1.2299945,3.9554687,7.2879624,-0.67378926
2.402,11.853833,-2.6015038,1.22509,3.9568284,7.242809,-0.6592634
2.404,11.727602,-2.6769595,1.2246251,3.954296,7.1909657,-0.64529276
2.406,11.602148,-2.7480352,1.2287617,3.9478066,7.1326632,-0.63177156
2.408,11.477907,-2.8148663,1.2377372,3.9372869,7.068154,-0.6186023
2.41,11.35527,-2.8774178,1.2515624,3.9227111,6.997714,-0.6056447
2.412,11.23445,-2.9358237,1.2702136,3.904056,6.92161,-0.5927844
2.414,11.11569,-2.9902434,1.2937891,3.8813272,6.8401237,-0.5799141
2.416,10.9990015,-3.0408523,1.3219154,3.8545299,6.753532,-0.56696296
2.418,10.884573,-3.0879638,1.3544848,3.8236873,6.6620865,-0.55388165
2.42,10.77223,-3.1317825,1.3911147,3.788858,6.566043,-0.54066944
2.422,10.662226,-3.1728816,1.4314625,3.7501135,6.4656286,-0.5273907
2.424,10.554434,-3.211554,1.4750245,3.707541,6.3610673,-0.51414657
2.426,10.44878,-3.248402,1.5213466,3.6612463,6.252551,-0.5010834
2.428,10.345027,-3.2837515,1.5698471,3.6113458,6.140253,-0.48838067
2.43,10.242909,-3.3182704,1.619957,3.5579715,6.0243454,-0.4762392
2.432,10.142321,-3.352479,1.6711495,3.501248,5.904965,-0.46485758
2.434,10.043008,-3.3868713,1.7228165,3.4412885,5.7822456,-0.45443463
2.436,9.944597,-3.421945,1.7743802,3.3781831,5.656328,-0.44510698
2.438,9.846977,-3.4581215,1.8252702,3.3120136,5.5273194,-0.43699503
2.44,9.749777,-3.4957771,1.8748724,3.2428126,5.395325,-0.43014812
2.442,9.652716,-3.5351818,1.9228013,3.1705918,5.260453,-0.4245541
2.444,9.555589,-3.576542,1.9685636,3.095327,5.1228056,-0.42013597
2.446,9.458151,-3.6198986,2.0117552,3.0169768,4.982506,-0.4167452
2.448,9.360088,-3.665177,2.0520778,2.935471,4.839666,-0.41418743
2.45,9.261269,-3.7121506,2.0893505,2.8507462,4.6944275,-0.4122026
2.452,9.161542,-3.7606468,2.1233535,2.762743,4.5469418,-0.4104929
2.454,9.0607395,-3.8101828,2.1539814,2.671398,4.3973937,-0.40874147
2.456,8.958649,-3.860279,2.1813045,2.5766878,4.2459974,-0.406605
2.458,8.855353,-3.9104047,2.2051737,2.4786208,4.092996,-0.40376186
2.46,8.750667,-3.9599073,2.2257786,2.3772304,3.938652,-0.39989853
2.462,8.644526,-4.00786,2.2432084,2.2726173,3.783266,-0.3947227
2.464,8.536807,-4.0534534,2.2577114,2.164915,3.627151,-0.388016
2.466,8.427507,-4.0960355,2.2695568,2.0542908,3.470644,-0.37957478
2.468,8.316649,-4.1346207,2.2789516,1.9409497,3.3140821,-0.36925006
2.47,8.204052,-4.168387,2.2862728,1.8251449,3.1578062,-0.3569299
2.472,8.089715,-4.1965766,2.2919204,1.7071373,3.0021355,-0.34256256
2.474,7.973686,-4.2186284,2.296146,1.5871909,2.8473473,-0.3261118
2.476,7.855863,-4.2339253,2.2993333,1.465585,2.693692,-0.30759335
2.478,7.736381,-4.242167,2.301961,1.3426375,2.541381,-0.287094
2.48,7.6149564,-4.242815,2.3043103,1.2186389,2.3905702,-0.26474547
2.482,7.4916086,-4.235707,2.3066943,1.0938654,2.2413661,-0.24071991
2.484,7.3663707,-4.220681,2.3096232,0.96858627,2.093833,-0.21522188
2.486,7.2391653,-4.1977434,2.3134918,0.8430524,1.9480007,-0.18847764
2.488,7.1100965,-4.1670265,2.318613,0.7174921,1.8038754,-0.16072673
2.49,6.9790506,-4.128683,2.3252604,0.5921177,1.6614413,-0.13219237
2.492,6.8459034,-4.083006,2.3338203,0.4670974,1.5206888,-0.103052795
2.494,6.7107735,-4.0304046,2.3444486,0.34258807,1.3816257,-0.073459744
2.496,6.5738215,-3.9712768,2.3573217,0.21871985,1.2442675,-0.043515265
2.498,6.435052,-3.906197,2.3726006,0.095594704,1.1086605,-0.013231903
2.5,6.2944818,-3.835559,2.3903725,-0.026698202,0.9748682,0.017434865
2.502,6.1522512,-3.7599406,2.410714,-0.14808352,0.84296703,0.048581332
2.504,6.008674,-3.6801255,2.4336302,-0.26849958,0.7130718,0.080355704
2.506,5.8639884,-3.5967085,2.458912,-0.38790652,0.58527553,0.11294784
2.508,5.718234,-3.5103369,2.4863987,-0.5062835,0.45965493,0.14657547
2.51,5.57172,-3.4215527,2.516054,-0.6236051,0.33629566,0.18145654
2.512,5.424797,-3.330977,2.5474732,-0.73984635,0.215268,0.21779636
2.514,5.27762,-3.2392533,2.58038,-0.8549823,0.09662455,0.2557447
2.516,5.1307273,-3.1468873,2.614398,-0.9689997,-0.019604504,0.29542595
2.518,4.9843044,-3.0544693,2.6491303,-1.0818697,-0.13338959,0.33692068
2.52,4.838747,-2.962545,2.6842198,-1.1935462,-0.24472085,0.38022923
2.522,4.694426,-2.8717017,2.7192402,-1.3039825,-0.35359025,0.42531046
2.524,4.5519066,-2.7824206,2.7536964,-1.4131367,-0.45998245,0.472075
2.526,4.411484,-2.6951723,2.7872868,-1.5209444,-0.56388456,0.52040386
2.528,4.273616,-2.610467,2.8196397,-1.6273361,-0.665277,0.570155
2.53,4.1388116,-2.5288386,2.850369,-1.732243,-0.76413643,0.62118095
2.532,4.007326,-2.4505763,2.8790932,-1.8355963,-0.86044097,0.6733572
2.534,3.8796604,-2.3761551,2.9056377,-1.9373083,-0.9541473,0.72653574
2.536,3.7563734,-2.3059826,2.9298177,-2.0372713,-1.0451989,0.7805744
2.538,3.637659,-2.240488,2.9514174,-2.1353714,-1.1335416,0.8353094
2.54,3.5239754,-2.179977,2.970315,-2.231509,-1.2191023,0.8905848
2.542,3.4155505,-2.1246457,2.986405,-2.3255773,-1.3017851,0.9462258
2.544,3.3127396,-2.074751,2.9997458,-2.4174645,-1.381489,1.002034
2.546,3.2157855,-2.0303514,3.0102503,-2.5070543,-1.458097,1.0578129
2.548,3.1248019,-1.9915187,3.0180268,-2.594236,-1.5314932,1.1133714
2.55,3.040091,-1.958145,3.0232334,-2.6788957,-1.6015328,1.1685315
2.552,2.9617016,-1.9301608,3.025877,-2.7609136,-1.6680627,1.2230991
2.554,2.8895707,-1.907314,3.0261855,-2.8401778,-1.7309349,1.2769337
2.556,2.8239272,-1.8893751,3.0242448,-2.9165924,-1.7899745,1.3299204
2.558,2.7645614,-1.8761334,3.0200553,-2.9900687,-1.8450243,1.3819728
2.56,2.711351,-1.8671461,3.0138028,-3.0605254,-1.8959122,1.4330411
2.562,2.6640217,-1.8618996,3.0055842,-3.1278906,-1.9424763,1.4830893
2.564,2.6222873,-1.8598372,2.9955192,-3.1921432,-1.984594,1.5321147
2.566,2.585894,-1.8604188,2.9836092,-3.2532845,-2.0221567,1.5801518
2.568,2.5544014,-1.8628596,2.9700656,-3.3113208,-2.055081,1.6272559
2.57,2.5274348,-1.866503,2.9548643,-3.366283,-2.0833244,1.6734679
2.572,2.5043564,-1.8706174,2.93812,-3.4182272,-2.1068764,1.718851
2.574,2.484788,-1.8744744,2.9199357,-3.4672084,-2.125754,1.7634761
2.576,2.4684865,-1.8772948,2.9003565,-3.5133004,-2.1400042,1.8074108
2.578,2.4548612,-1.8784082,2.8793423,-3.5565968,-2.1497123,1.8507211
2.58,2.4434848,-1.8768661,2.8570545,-3.5972116,-2.1549678,1.8934876
2.582,2.4339247,-1.8720982,2.833578,-3.6352794,-2.155909,1.9357556
2.584,2.4257326,-1.8634516,2.8089395,-3.6709454,-2.1526809,1.977573
2.586,2.418635,-1.8504847,2.783272,-3.7043602,-2.1454444,2.0189605
2.588,2.4122453,-1.8326647,2.7565656,-3.735683,-2.134379,2.0599222
2.59,2.4065714,-1.8097537,2.729094,-3.7650797,-2.119672,2.1004186
2.592,2.401268,-1.781291,2.7009802,-3.7927065,-2.101486,2.1403878
2.594,2.3961816,-1.7471583,2.672272,-3.8186812,-2.079962,2.1796997
2.596,2.3914042,-1.707306,2.6431742,-3.8430927,-2.055229,2.2181883
2.598,2.3869262,-1.6617979,2.6139297,-3.8660023,-2.0273721,2.2556388
2.6,2.3828156,-1.6107029,2.584679,-3.88743,-1.9964356,2.2917902
2.602,2.379346,-1.5542675,2.5556324,-3.9073443,-1.9624147,2.3263595
2.604,2.3765504,-1.4927117,2.5269237,-3.9256744,-1.9252689,2.3590226
2.606,2.3747296,-1.4264339,2.498798,-3.942321,-1.8849152,2.3895278
2.608,2.3741148,-1.3557801,2.471361,-3.9571621,-1.8412731,2.4176922
2.61,2.374865,-1.2811618,2.444645,-3.9700267,-1.7942538,2.4433293
2.612,2.3773084,-1.2028753,2.4188375,-3.980761,-1.7437618,2.4663358
2.614,2.3817115,-1.1212225,2.3939843,-3.9892244,-1.6897129,2.4867086
2.616,2.3883185,-1.036607,2.3702042,-3.995316,-1.6320381,2.504538
2.618,2.3974648,-0.9493687,2.3474598,-3.9989603,-1.5706764,2.5199718
2.62,2.4094543,-0.85984194,2.325669,-4.0001116,-1.5056124,2.5331988
2.622,2.424354,-0.7683377,2.30478,-3.998756,-1.4368327,2.544421
2.624,2.4424012,-0.6750933,2.284648,-3.9949174,-1.3643445,2.5538301
2.626,2.4636602,-0.5803693,2.2651832,-3.9886339,-1.2881892,2.5615842
2.628,2.4882417,-0.4844483,2.2461183,-3.9799652,-1.2084318,2.5678058
2.63,2.5159762,-0.38733846,2.227211,-3.968964,-1.1251724,2.5725725
2.632,2.5470421,-0.28918183,2.208143,-3.955678,-1.0385506,2.5759237
2.634,2.5810332,-0.19012636,2.1887183,-3.9401715,-0.9487473,2.5778544
2.636,2.617936,-0.090106845,2.1685526,-3.9224904,-0.85595787,2.5783594
2.638,2.6575298,0.010841727,2.1472538,-3.9027007,-0.7604212,2.577398
2.64,2.6994934,0.11284858,2.1244822,-3.8808625,-0.6623949,2.5749373
2.642,2.743532,0.21589804,2.099858,-3.8570435,-0.5621432,2.5709405
2.644,2.789195,0.32012725,2.0729237,-3.8313248,-0.45995194,2.5653782
2.646,2.8362172,0.42553106,2.0431442,-3.803792,-0.3561293,2.558225
2.648,2.8841505,0.53216374,2.0101347,-3.7745533,-0.25097573,2.5494728
2.65,2.9325256,0.6402584,1.9735367,-3.7437248,-0.14480141,2.5391273
2.652,2.9810321,0.74979925,1.932895,-3.7114482,-0.037928484,2.5272288
2.654,3.0291102,0.86085546,1.8877276,-3.6778746,0.0693073,2.5138206
2.656,3.0762563,0.97351897,1.8377107,-3.643178,0.17655015,2.4989805
2.658,3.122007,1.0879008,1.782429,-3.6075482,0.28342998,2.4828224
2.66,3.1657689,1.2039621,1.7215682,-3.5711708,0.3895699,2.465404
2.662,3.2071137,1.3218925,1.6548905,-3.5342474,0.49459848,2.446794
2.664,3.2455397,1.4417696,1.5820585,-3.4969778,0.5981174,2.4271321
2.666,3.2803893,1.5635996,1.5030158,-3.4595304,0.6997253,2.4065006
2.668,3.311372,1.6873965,1.417703,-3.422041,0.7990326,2.384948
2.67,3.337936,1.8132303,1.3259244,-3.3846207,0.8956504,2.36251
2.672,3.3598042,1.9410186,1.2277793,-3.3473504,0.9891973,2.3392358
2.674,3.376521,2.0705879,1.1233127,-3.3102808,1.0793126,2.3151858
2.676,3.387826,2.2018452,1.01258,-3.27345,1.1656352,2.2904403
2.678,3.393174,2.3345265,0.8957919,-3.2368739,1.247842,2.26512
2.68,3.3924117,2.4683335,0.7731447,-3.200544,1.3256354,2.2393634
2.682,3.385353,2.6029747,0.6450138,-3.1644423,1.3987547,2.213288
2.684,3.3717303,2.7380064,0.5116004,-3.1285667,1.466986,2.1870296
2.686,3.3512034,2.8732474,0.3733673,-3.0928762,1.5301677,2.1606972
2.688,3.3237598,3.0080342,0.23083282,-3.0573182,1.588178,2.1343513
2.69,3.289463,3.141768,0.08429289,-3.0218244,1.6409634,2.1080055
2.692,3.2482429,3.273957,-0.06584072,-2.986287,1.6885107,2.0816433
2.694,3.2004106,3.4040911,-0.21899271,-2.95059,1.7308683,2.055195
2.696,3.1458786,3.531643,-0.3746258,-2.9145753,1.768138,2.0285728
2.698,3.0849342,3.6560032,-0.5322429,-2.8780684,1.8004476,2.0016775
2.7,3.017653,3.776649,-0.6914824,-2.8408995,1.8279651,1.9744296
2.702,2.9446187,3.893019,-0.85181594,-2.802893,1.8508825,1.946783
2.704,2.866032,4.0046225,-1.0127901,-2.7639143,1.8694096,1.9187232
2.706,2.7822504,4.1111736,-1.1738617,-2.7238302,1.8837594,1.8902838
2.708,2.6936665,4.212304,-1.3347538,-2.6825707,1.8941365,1.8615645
2.71,2.6007807,4.307806,-1.494989,-2.6401055,1.9007207,1.8327075
2.712,2.50404,4.397499,-1.6542478,-2.5964713,1.9036748,1.8039072
2.714,2.4040008,4.481302,-1.8120356,-2.5517306,1.9031409,1.7753829
2.716,2.3011608,4.559206,-1.9681078,-2.5059948,1.8992406,1.7473533
2.718,2.1960578,4.631311,-2.1221263,-2.4594154,1.8920668,1.7200353
2.72,2.0891583,4.697805,-2.2738209,-2.4121604,1.8816922,1.6936438
2.722,1.9809232,4.7589087,-2.4229403,-2.364409,1.8681729,1.668356
2.724,1.8717781,4.8147907,-2.5692744,-2.3163264,1.8515437,1.6443216
2.726,1.7620852,4.865919,-2.7126164,-2.2680984,1.8318399,1.6216533
2.728,1.6523521,4.9125524,-2.8526974,-2.2198796,1.809088,1.6004183
2.73,1.5428593,4.9551764,-2.989357,-2.1718085,1.7833071,1.5806475
2.732,1.4340222,4.994179,-3.1224113,-2.123983,1.7544951,1.5623317
2.734,1.326063,5.029957,-3.2516992,-2.0765004,1.7226737,1.5454291
2.736,1.2191266,5.06298,-3.377079,-2.0294294,1.6878668,1.5298831
2.738,1.113385,5.093805,-3.498382,-1.9827899,1.6500946,1.5156051
2.74,1.0090259,5.1226993,-3.6154952,-1.936611,1.6093972,1.5025029
2.742,0.9059154,5.1501417,-3.728248,-1.8908955,1.5658264,1.4905123
2.744,0.8042544,5.1763864,-3.836605,-1.8456438,1.5194415,1.4795828
2.746,0.70390165,5.201731,-3.9403582,-1.8008499,1.4703038,1.4696642
2.748,0.6046525,5.226467,-4.0393896,-1.7565141,1.4184998,1.4607546
2.75,0.5065217,5.250774,-4.1335564,-1.7126417,1.3640963,1.4528605
2.752,0.40921688,5.274899,-4.222832,-1.6692457,1.3071814,1.4460093
2.754,0.31271815,5.298905,-4.3069706,-1.6263452,1.2478399,1.4402146
2.756,0.21656966,5.3230376,-4.3858023,-1.5839514,1.1861455,1.4354737
2.758,0.120709896,5.3472795,-4.459216,-1.5420709,1.1221918,1.4317659
2.76,0.02494049,5.371609,-4.5270367,-1.5007252,1.0560694,1.4290237
2.762,-0.07101989,5.3958645,-4.5892067,-1.4598808,0.98788506,1.4271168
2.764,-0.16721725,5.42009,-4.6454644,-1.4195011,0.9177642,1.4258837
2.766,-0.2637794,5.4441423,-4.6956825,-1.3795091,0.8458214,1.4251156
2.768,-0.36080003,5.4678235,-4.739683,-1.339808,0.77219564,1.4245989
2.77,-0.45840406,5.4908743,-4.777384,-1.3002741,0.6970495,1.4241046
2.772,-0.5566938,5.513089,-4.8086014,-1.2607762,0.6205706,1.4234166
2.774,-0.6555073,5.5341673,-4.8333144,-1.2211697,0.54298407,1.4223331
2.776,-0.75487876,5.5538535,-4.851459,-1.1813327,0.4645451,1.420702
2.778,-0.85478175,5.5719943,-4.863009,-1.1411743,0.38555422,1.4184277
2.78,-0.9549861,5.588255,-4.867923,-1.1006156,0.3063409,1.415458
2.782,-1.05548,5.602542,-4.866398,-1.059618,0.22727129,1.4118093
2.784,-1.1561346,5.6146812,-4.858462,-1.0181706,0.1487388,1.4075212
2.786,-1.2567401,5.6244965,-4.8442354,-0.97629905,0.071141794,1.4026682
2.788,-1.3570201,5.631948,-4.824021,-0.93404686,-0.0051177368,1.3973503
2.79,-1.4568871,5.636902,-4.798117,-0.8914762,-0.079660624,1.3916762
2.792,-1.5559806,5.6393166,-4.7668424,-0.84865177,-0.15213737,1.3857348
2.794,-1.6542242,5.6392746,-4.7305064,-0.80564415,-0.22224782,1.3795843
2.796,-1.7513492,5.636695,-4.6896,-0.7625073,-0.28972748,1.3732486
2.798,-1.8472046,5.6317177,-4.644518,-0.71929264,-0.35438257,1.3667045
2.8,-1.9416431,5.624449,-4.5956182,-0.6760354,-0.41607848,1.3599255
2.802,-2.0343904,5.6150527,-4.5433316,-0.63278294,-0.4747417,1.3528402
2.804,-2.125504,5.603749,-4.4881077,-0.5895601,-0.5303539,1.3453639
2.806,-2.2147164,5.5906363,-4.430458,-0.546402,-0.5829556,1.3373995
2.808,-2.301928,5.575968,-4.3706694,-0.5033493,-0.63265234,1.3288814
2.81,-2.386936,5.5597897,-4.30908,-0.4604646,-0.67957693,1.3197396
2.812,-2.4699156,5.542338,-4.2461,-0.41782475,-0.7239082,1.3099248
2.814,-2.550542,5.523752,-4.1818547,-0.37550145,-0.7658521,1.2994264
2.816,-2.6289158,5.5042005,-4.116672,-0.33359396,-0.80562687,1.2882487
2.818,-2.704865,5.4837255,-4.050576,-0.29220635,-0.8434707,1.2764206
2.82,-2.7784247,5.46237,-3.9836884,-0.2514516,-0.8795955,1.263968
2.822,-2.8495827,5.4401846,-3.916059,-0.21142459,-0.9142125,1.2509168
2.824,-2.9182343,5.4171305,-3.8476367,-0.17222118,-0.94751304,1.2372763
2.826,-2.9844508,5.393287,-3.7784278,-0.13390642,-0.9796438,1.2230251
2.828,-3.0482316,5.36845,-3.708291,-0.096536696,-1.0107182,1.2081116
2.83,-3.1093404,5.3424573,-3.6370099,-0.060125828,-1.0408123,1.1924312
2.832,-3.167779,5.3151717,-3.5646155,-0.024641216,-1.0699443,1.1758417
2.834,-3.223655,5.286538,-3.490893,0.009975195,-1.0980809,1.1581872
2.836,-3.2768135,5.25616,-3.415713,0.04380822,-1.1251464,1.1392694
2.838,-3.3272903,5.224062,-3.339014,0.07699382,-1.1510122,1.1189257
2.84,-3.3750296,5.1898246,-3.2607098,0.10969281,-1.175504,1.0970021
2.842,-3.419944,5.153374,-3.1806517,0.14208502,-1.1984285,1.0733832
2.844,-3.4618988,5.1144447,-3.098864,0.17435795,-1.2195557,1.0480064
2.846,-3.5008225,5.072748,-3.0154176,0.20667112,-1.2386343,1.0208791
2.848,-3.5367906,5.0281224,-2.930351,0.23918289,-1.2554183,0.99206895
2.85,-3.5695715,4.9803777,-2.8437517,0.27200383,-1.2696656,0.96167994
2.852,-3.5991793,4.9294214,-2.7558634,0.30521655,-1.2811335,0.92988014
2.854,-3.6256382,4.875371,-2.6668558,0.33885318,-1.2896011,0.89684623
2.856,-3.6487687,4.8180666,-2.577001,0.37293229,-1.2948865,0.8627744
2.858,-3.668693,4.757663,-2.4866533,0.40742624,-1.2968278,0.8278687
2.86,-3.6853905,4.694296,-2.3960567,0.44228745,-1.2953005,0.7923064
2.862,-3.6986096,4.628131,-2.3055143,0.47746706,-1.2902299,0.75624305
2.864,-3.7085032,4.559461,-2.2154994,0.5129047,-1.2815928,0.7198347
2.866,-3.7149234,4.4886074,-2.1263027,0.54853666,-1.2694153,0.6832094
2.868,-3.7179747,4.415931,-2.0382414,0.58429205,-1.2537673,0.6464751
2.87,-3.717664,4.341717,-1.9517572,0.6201023,-1.234782,0.6097517
2.872,-3.7140095,4.266516,-1.8670446,0.65590763,-1.2126153,0.5731112
2.874,-3.7070909,4.1906133,-1.7845088,0.6916417,-1.1874684,0.53664404
2.876,-3.6969912,4.114397,-1.7044122,0.727224,-1.1595753,0.5004198
2.878,-3.683639,4.0382466,-1.6269801,0.76258004,-1.1291991,0.46450603
2.88,-3.6671042,3.9626048,-1.5524503,0.7976327,-1.0966178,0.42894533
2.882,-3.6474464,3.8877058,-1.4810323,0.8323117,-1.0621186,0.39376053
2.884,-3.624919,3.81383,-1.412726,0.8665492,-1.0259713,0.3589401
2.886,-3.5996633,3.7413094,-1.3476912,0.900283,-0.98846126,0.3244391
2.888,-3.57169,3.670353,-1.2859768,0.9334699,-0.9498471,0.29018718
2.89,-3.5412614,3.6010137,-1.2275087,0.9660831,-0.91036904,0.2560793
2.892,-3.5085244,3.533367,-1.1722357,0.99811333,-0.8702606,0.22199315
2.894,-3.4735887,3.467526,-1.1201699,1.0295715,-0.8297178,0.18780679
2.896,-3.4368567,3.403578,-1.0711997,1.0604893,-0.7889142,0.15341419
2.898,-3.3984041,3.3414636,-1.0251697,1.0908953,-0.74801946,0.11873889
2.9,-3.358358,3.2812958,-0.9819058,1.1208367,-0.70718616,0.08373374
2.902,-3.3170156,3.2230482,-0.941237,1.1503416,-0.666553,0.048415124
2.904,-3.2744613,3.1667075,-0.9030154,1.1794381,-0.6262505,0.012835622
2.906,-3.231008,3.112239,-0.86709845,1.2081319,-0.5863985,-0.022922695
2.908,-3.1867123,3.05969,-0.8331953,1.23642,-0.5470995,-0.0587371
2.91,-3.1417499,3.00895,-0.8012346,1.2642831,-0.50845516,-0.09447318
2.912,-3.0963016,2.9599495,-0.7709925,1.2916965,-0.47055387,-0.12998497
2.914,-3.0504289,2.9125772,-0.7422154,1.3186462,-0.43348023,-0.16511631
2.916,-3.0041919,2.8668008,-0.7148485,1.3450929,-0.3972999,-0.19973868
2.918,-2.9577532,2.8225162,-0.6887251,1.3710192,-0.3620705,-0.23375171
2.92,-2.9112144,2.779606,-0.6635623,1.3964047,-0.32782656,-0.26709956
2.922,-2.8646188,2.737971,-0.6392696,1.4212425,-0.29460794,-0.29974383
2.924,-2.8180218,2.6975274,-0.6157775,1.4455318,-0.2624426,-0.33171487
2.926,-2.771401,2.6580758,-0.59301686,1.4692707,-0.23135081,-0.36305737
2.928,-2.724811,2.6194937,-0.57078266,1.4924746,-0.20135108,-0.3938707
2.93,-2.6782947,2.5817032,-0.54906774,1.51516,-0.17244667,-0.42427143
2.932,-2.631791,2.544536,-0.52778673,1.5373555,-0.14462215,-0.45440194
2.934,-2.585456,2.5078697,-0.50693834,1.5591016,-0.117863536,-0.48438933
2.936,-2.539123,2.4714298,-0.4864025,1.5804389,-0.092151396,-0.51434606
2.938,-2.492858,2.43521,-0.4661523,1.6014173,-0.06745429,-0.5443497
2.94,-2.446684,2.3989177,-0.44623363,1.6220834,-0.04373221,-0.5744317
2.942,-2.4006588,2.3624868,-0.42654133,1.6424835,-0.020946115,-0.60457516
2.944,-2.3546917,2.3257356,-0.40709698,1.6626711,0.0009629503,-0.63469166
2.946,-2.308846,2.288726,-0.38790858,1.6826661,0.022042066,-0.6646669
2.948,-2.263102,2.2511795,-0.36898422,1.7024868,0.042331547,-0.6943593
2.95,-2.2174535,2.21319,-0.35024285,1.7221242,0.061885584,-0.72359776
2.952,-2.1719723,2.1748116,-0.33181894,1.741575,0.08074798,-0.7522204
2.954,-2.1265802,2.1360343,-0.31367028,1.7608137,0.09895452,-0.78006935
2.956,-2.0813603,2.0970292,-0.29575908,1.7798173,0.116530724,-0.8070178
2.958,-2.0361867,2.057848,-0.2781316,1.7985439,0.13349132,-0.8329772
2.96,-1.9911534,2.0186207,-0.26075566,1.8169632,0.14983658,-0.8578701
2.962,-1.9462042,1.9794037,-0.24360955,1.8350474,0.16556455,-0.88165534
2.964,-1.9012811,1.9402825,-0.22671163,1.8527489,0.18065548,-0.904303
2.966,-1.8565876,1.9015106,-0.21003908,1.8700347,0.19509192,-0.9258024
2.968,-1.8118145,1.863119,-0.19352245,1.8868797,0.2088367,-0.9461604
2.97,-1.7670944,1.8251202,-0.17715335,1.903276,0.22185796,-0.9653826
2.972,-1.7225409,1.7876538,-0.16090095,1.9192001,0.23413947,-0.98348725
2.974,-1.6780448,1.7507528,-0.14473313,1.9346427,0.24565391,-1.0005088
2.976,-1.6336703,1.7143893,-0.12860626,1.9495971,0.2564036,-1.0165129
2.978,-1.5894156,1.6786444,-0.11256945,1.9640787,0.266398,-1.0315669
2.98,-1.5452089,1.6434922,-0.096549034,1.9780973,0.27564645,-1.0457573
2.982,-1.5010736,1.6089016,-0.08048117,1.9916735,0.28417057,-1.0591711
2.984,-1.4570642,1.5748596,-0.06428224,2.0048294,0.2920045,-1.0718932
2.986,-1.4132369,1.5413347,-0.047936082,2.0175784,0.29916543,-1.0839978
2.988,-1.3696407,1.5082061,-0.031356692,2.029933,0.305684,-1.0955482
2.99,-1.3261806,1.4753138,-0.01459831,2.041919,0.31160146,-1.1065801
2.992,-1.2829852,1.4428203,0.002434194,2.0535367,0.31693497,-1.1171107
2.994,-1.2400742,1.4106048,0.019707441,2.064793,0.32171893,-1.1271415
2.996,-1.1972989,1.3785939,0.03728199,2.0756662,0.32597277,-1.1366621
2.998,-1.1549151,1.3467332,0.055093706,2.0861437,0.3297104,-1.1456555
3,-1.1128931,1.315192,0.073176265,2.0961955,0.33294973,-1.1540892
3.002,-1.071438,1.283972,0.09157559,2.105788,0.3357054,-1.1619294
3.004,-1.0304666,1.2530862,0.110223055,2.114892,0.33796653,-1.1691413
3.006,-0.9898772,1.2226924,0.12913823,2.123471,0.33972934,-1.1756852
3.008,-0.9499131,1.1928877,0.14838481,2.1314921,0.34098026,-1.1815212
3.01,-0.9106225,1.1637514,0.16786084,2.1389108,0.34169078,-1.1866148
3.012,-0.87197745,1.1353441,0.18761173,2.14572,0.34183484,-1.1909194
3.014,-0.8340344,1.1079481,0.2076022,2.1518877,0.3413943,-1.1944143
3.016,-0.79672223,1.0816156,0.22788802,2.1573763,0.3403283,-1.1970564
3.018,-0.7602166,1.0565261,0.24848133,2.1621668,0.33861384,-1.1988212
3.02,-0.7244215,1.03289,0.26936513,2.1662135,0.33621562,-1.1996969
3.022,-0.68932277,1.0108273,0.29056248,2.1694665,0.33312777,-1.1996636
3.024,-0.6550852,0.9904334,0.31206223,2.1718752,0.32932386,-1.19872
3.026,-0.6215492,0.9717333,0.33400762,2.1733973,0.32478118,-1.196876
3.028,-0.58865255,0.95484006,0.3564149,2.173984,0.3194858,-1.1941626
3.03,-0.55645245,0.9398526,0.37922442,2.1735868,0.3134161,-1.190631
3.032,-0.52483994,0.9265514,0.40251908,2.1721714,0.3065648,-1.1863617
3.034,-0.49389926,0.9149929,0.4263453,2.1697373,0.29891327,-1.1814454
3.036,-0.46351245,0.9050683,0.4508342,2.16629,0.2904546,-1.1759971
3.038,-0.433647,0.8965886,0.47596136,2.1618543,0.28117767,-1.170135
3.04,-0.40413776,0.88936776,0.5017538,2.1564827,0.27109203,-1.163981
3.042,-0.3751441,0.8831879,0.52826357,2.150233,0.26021084,-1.1576501
3.044,-0.34648302,0.87776995,0.55555296,2.143166,0.24855664,-1.1512525
3.046,-0.31818703,0.87290734,0.5835382,2.1353545,0.23617472,-1.1448693
3.048,-0.29010957,0.8683374,0.612321,2.126867,0.223111,-1.1385672
3.05,-0.2623096,0.8638906,0.6419039,2.1177688,0.20942685,-1.1323822
3.052,-0.234718,0.8591362,0.6722584,2.1081114,0.19518869,-1.126323
3.054,-0.20725212,0.8539963,0.70332485,2.0979354,0.18046501,-1.1203663
3.056,-0.17997923,0.8481711,0.73510134,2.0872645,0.1653201,-1.1144825
3.058,-0.15285212,0.8415912,0.76753944,2.0761225,0.14982486,-1.1086137
3.06,-0.12582502,0.8340827,0.80057335,2.0645,0.13404857,-1.1026889
3.062,-0.09891409,0.8254341,0.83423746,2.0523944,0.11803953,-1.0966278
3.064,-0.07214233,0.8155994,0.86836165,2.039786,0.10184786,-1.0903497
3.066,-0.04545921,0.8045085,0.9029,2.0266285,0.08550598,-1.0837799
3.068,-0.018815398,0.7920911,0.93782604,2.0129025,0.069035485,-1.0768496
3.07,0.0076863766,0.7783544,0.9729738,1.9985689,0.052457813,-1.0695286
3.072,0.03413278,0.76326084,1.0083952,1.9835753,0.03577487,-1.0617781
3.074,0.060495198,0.74676824,1.0439141,1.9679009,0.018983748,-1.0535911
3.076,0.08675724,0.72881955,1.0794845,1.9515127,0.0020745024,-1.0450003
3.078,0.1128096,0.7094662,1.1151061,1.9343983,-0.014955621,-1.0360599
3.08,0.13878006,0.6887207,1.1506386,1.9165545,-0.032110166,-1.0268425
3.082,0.16453978,0.66647756,1.1860125,1.8979942,-0.049381755,-1.0174171
3.084,0.1900416,0.64269894,1.2212425,1.8787622,-0.06677223,-1.0078807
3.086,0.2152307,0.6173457,1.2561147,1.8589072,-0.084270656,-0.99833184
3.088,0.24016622,0.590275,1.2906494,1.838484,-0.10183629,-0.9888619
3.09,0.26456422,0.5614919,1.3247263,1.8175708,-0.119438134,-0.9795279
3.092,0.28828952,0.5309241,1.3582531,1.7962406,-0.13704026,-0.9703985
3.094,0.3114749,0.49854112,1.3910882,1.7745645,-0.15460134,-0.9614949
3.096,0.3340077,0.46431693,1.4230187,1.7526014,-0.17207667,-0.9528129
3.098,0.3555717,0.4283957,1.4538738,1.7304119,-0.1894168,-0.9443115
3.1,0.3760675,0.39077196,1.4836247,1.7080358,-0.2065744,-0.93593556
3.102,0.39540622,0.3513706,1.5119426,1.6854935,-0.22349638,-0.9276082
3.104,0.41351852,0.31038934,1.5386443,1.6627944,-0.24015409,-0.9192324
3.106,0.43012208,0.26791668,1.5634959,1.6399233,-0.25651857,-0.9107263
3.108,0.44503832,0.22424074,1.5863857,1.6168717,-0.27258343,-0.90199053
3.11,0.45816794,0.17944835,1.606985,1.5936198,-0.28835788,-0.89292586
3.112,0.46943852,0.133883,1.6250559,1.5701241,-0.3038831,-0.8834577
3.114,0.47849208,0.08776015,1.6404496,1.5463663,-0.31922156,-0.8735248
3.116,0.4851383,0.041338265,1.6528695,1.5223074,-0.3344402,-0.86307657
3.118,0.4891355,-0.0048593283,1.662034,1.4979178,-0.34964648,-0.85207224
3.12,0.4904577,-0.050553948,1.667825,1.4731613,-0.36494702,-0.84047747
3.122,0.4889806,-0.09526369,1.6700087,1.447981,-0.3804648,-0.8282715
3.124,0.48458233,-0.13872746,1.6684003,1.4223359,-0.39633703,-0.81543237
3.126,0.47725588,-0.18050972,1.6628177,1.3961653,-0.41268784,-0.8019618
3.128,0.4669781,-0.22023943,1.6529787,1.3693882,-0.4296648,-0.7878479
3.13,0.45366362,-0.2575505,1.6389076,1.3419303,-0.44741976,-0.7731076
3.132,0.43714932,-0.2919223,1.6204715,1.3137054,-0.46609125,-0.75775045
3.134,0.41758114,-0.32296565,1.5976849,1.2846352,-0.48582178,-0.7418073
3.136,0.39491236,-0.35036373,1.5705111,1.2546359,-0.5067615,-0.72533524
3.138,0.36917713,-0.37379783,1.5390564,1.2236191,-0.52903795,-0.7083783
3.14,0.34058526,-0.39288685,1.5034747,1.1915256,-0.55279535,-0.69099426
3.142,0.3091722,-0.40707684,1.4639807,1.1583124,-0.5781474,-0.67324406
3.144,0.27515942,-0.41620535,1.4207649,1.1239527,-0.60518986,-0.6552033
3.146,0.23869431,-0.4199457,1.3739543,1.0884485,-0.6339786,-0.6368992
3.148,0.19998363,-0.41797957,1.3237646,1.0518285,-0.6645481,-0.618367
3.15,0.15915382,-0.41022614,1.270414,1.0141516,-0.6968939,-0.5996272
3.152,0.11664492,-0.39640054,1.2140877,0.97551274,-0.7309823,-0.58069336
3.154,0.07269728,-0.37629402,1.1548703,0.9360376,-0.7667143,-0.5615475
3.156,0.027478725,-0.34973514,1.0930014,0.89586157,-0.8039709,-0.5421639
3.158,-0.018725604,-0.31653953,1.0284364,0.8551574,-0.842579,-0.52250683
3.16,-0.06579387,-0.27646697,0.96122015,0.81408846,-0.8823287,-0.502528
3.162,-0.113266796,-0.22930075,0.89121115,0.77281624,-0.92295414,-0.48224035
3.164,-0.16104254,-0.17512132,0.8183665,0.7314981,-0.964163,-0.46166003
3.166,-0.2087588,-0.113678835,0.7424354,0.6902728,-1.0056225,-0.4408506
3.168,-0.256358,-0.044876575,0.66327435,0.64926344,-1.0469995,-0.4199129
3.17,-0.30360433,0.031255074,0.5805286,0.60857004,-1.0879827,-0.39896464
3.172,-0.35028356,0.11484958,0.49392387,0.56828856,-1.1282749,-0.37815136
3.174,-0.3964185,0.20584366,0.4031486,0.5285059,-1.167654,-0.35762239
3.176,-0.44172972,0.30417925,0.30778757,0.48930717,-1.2059534,-0.33751374
3.178,-0.4865557,0.40991488,0.2073831,0.4507835,-1.2430826,-0.3179459
3.18,-0.53076637,0.52279705,0.101735845,0.41302842,-1.2790604,-0.29901728
3.182,-0.5745526,0.64280695,-0.009686694,0.37613583,-1.3139544,-0.28079242
3.184,-0.6181993,0.7696426,-0.12720025,0.34019846,-1.3479123,-0.26330143
3.186,-0.661747,0.90305793,-0.25117522,0.30529553,-1.3811257,-0.24659759
3.188,-0.7056682,1.04275,-0.38198176,0.2715163,-1.4138008,-0.23072219
3.19,-0.75023067,1.1884003,-0.51973844,0.23894939,-1.4461493,-0.21572548
3.192,-0.79569256,1.3397579,-0.66479635,0.20769653,-1.4783596,-0.20166522
3.194,-0.8423911,1.496331,-0.81731766,0.1778574,-1.5106,-0.18859532
3.196,-0.89077854,1.6578877,-0.97726554,0.14955395,-1.5430217,-0.17657441
3.198,-0.94113845,1.8240125,-1.1447998,0.1229167,-1.5757285,-0.165629
3.2,-0.9938879,1.9943032,-1.3198693,0.09808555,-1.6087992,-0.15579128
3.202,-1.0490713,2.1684957,-1.5025611,0.07519814,-1.6422806,-0.14706782
3.204,-1.1071142,2.346326,-1.6925521,0.054381788,-1.6761991,-0.13943887
3.206,-1.1680974,2.5274794,-1.889472,0.035730213,-1.7105473,-0.13288239
3.208,-1.2317804,2.711732,-2.0930457,0.019329041,-1.745318,-0.12737879
3.21,-1.2982347,2.8988214,-2.3029613,0.005230516,-1.780465,-0.12291977
3.212,-1.3671987,3.0885577,-2.5185695,-0.006565094,-1.8159401,-0.11951882
3.214,-1.4383502,3.2805986,-2.7392468,-0.016059518,-1.8517255,-0.11719096
3.216,-1.5114294,3.4748633,-2.9642978,-0.02329439,-1.8878065,-0.11593217
3.218,-1.5857294,3.670967,-3.1928234,-0.028315365,-1.924185,-0.11577162
3.22,-1.6608567,3.8687084,-3.42382,-0.031160235,-1.9608848,-0.11673191
3.222,-1.7362386,4.067683,-3.6561291,-0.031879514,-1.9979402,-0.11884549
3.224,-1.8113062,4.2676716,-3.888689,-0.030519933,-2.0354009,-0.12217116
3.226,-1.8856428,4.4682984,-4.120055,-0.027114987,-2.0733426,-0.12675408
3.228,-1.958467,4.6691046,-4.3489,-0.021684438,-2.1118288,-0.13264939
3.23,-2.0297098,4.8697596,-4.573839,-0.014249355,-2.1509242,-0.13991648
3.232,-2.0988142,5.0699964,-4.7933517,-0.004815817,-2.1906807,-0.14860919
3.234,-2.1653736,5.2694073,-5.0058947,0.0066511035,-2.2310972,-0.15879405
3.236,-2.22917,5.467767,-5.209906,0.020198941,-2.2721477,-0.17052418
3.238,-2.2897377,5.6645217,-5.4039583,0.03591484,-2.3137536,-0.18383005
3.24,-2.3468468,5.859317,-5.5866637,0.05391401,-2.3557935,-0.19870168
3.242,-2.4002614,6.0515947,-5.7567787,0.07432544,-2.3980942,-0.21511847
3.244,-2.450048,6.241063,-5.913103,0.09732318,-2.4404094,-0.23303503
3.246,-2.4962444,6.427467,-6.0546007,0.12309098,-2.4824595,-0.25240493
3.248,-2.5387943,6.610523,-6.180456,0.15184152,-2.5238795,-0.27320886
3.25,-2.5779614,6.789968,-6.290037,0.18378758,-2.564257,-0.2954569
3.252,-2.6138296,6.9655914,-6.3829226,0.21915919,-2.6031485,-0.31920803
3.254,-2.6467285,7.1372166,-6.4589534,0.2581765,-2.6400821,-0.3445602
3.256,-2.6767833,7.304822,-6.5180287,0.30106205,-2.6745641,-0.371664
3.258,-2.7044773,7.4684153,-6.5604267,0.34803772,-2.7061303,-0.4007262
3.26,-2.7300029,7.627996,-6.5864787,0.3993035,-2.7343652,-0.43196493
3.262,-2.7536747,7.783438,-6.5968423,0.45500678,-2.7589128,-0.46562952
3.264,-2.775944,7.93478,-6.5923223,0.51526254,-2.7795088,-0.5019507
3.266,-2.797017,8.081928,-6.573899,0.5801291,-2.7959914,-0.5411316
3.268,-2.8170912,8.224789,-6.5426054,0.6495646,-2.8082993,-0.58332527
3.27,-2.8364365,8.363319,-6.4995246,0.7234393,-2.8164964,-0.6286282
3.272,-2.855377,8.497333,-6.4457345,0.80150384,-2.820733,-0.6770689
3.274,-2.8742,8.626928,-6.382529,0.8834079,-2.8212495,-0.72861004
3.276,-2.8928638,8.751805,-6.3110237,0.96871287,-2.8183312,-0.7831793
3.278,-2.9116082,8.871899,-6.232429,1.0569003,-2.812276,-0.8406738
3.28,-2.9304304,8.987107,-6.147579,1.147379,-2.8033762,-0.9010099
3.282,-2.949114,9.09719,-6.057469,1.2395474,-2.791897,-0.9641011
3.284,-2.9672828,9.201842,-5.9628415,1.3328226,-2.7780607,-1.0298887
3.286,-2.9847903,9.300644,-5.8643713,1.4266329,-2.7620442,-1.0983315
3.288,-3.000761,9.392988,-5.762439,1.5204531,-2.7440042,-1.1694173
3.29,-3.0149245,9.478434,-5.657473,1.6138201,-2.724056,-1.2431558
3.292,-3.0265675,9.556337,-5.5493755,1.7063181,-2.7022815,-1.319563
3.294,-3.0346813,9.626298,-5.4379773,1.7975798,-2.6787436,-1.398668
3.296,-3.038518,9.687621,-5.3230577,1.8872817,-2.653493,-1.4804962
3.298,-3.036824,9.739668,-5.204237,1.9751261,-2.6265771,-1.5650914
3.3,-3.028564,9.781612,-5.08106,2.06085,-2.5980227,-1.6525173
3.302,-3.0126295,9.812789,-4.9527583,2.1442316,-2.5678506,-1.742852
3.304,-2.9878073,9.832369,-4.818839,2.2250984,-2.5360458,-1.8362089
3.306,-2.952715,9.839462,-4.678522,2.3033245,-2.5025737,-1.9327258
3.308,-2.9065628,9.833476,-4.5312147,2.3788395,-2.467387,-2.0325556
3.31,-2.8479152,9.813525,-4.376269,2.4516437,-2.4304335,-2.1358438
3.312,-2.7760353,9.778932,-4.212805,2.5217729,-2.3916368,-2.2427065
3.314,-2.6899116,9.728925,-4.0404873,2.5893383,-2.350932,-2.3532202
3.316,-2.5887976,9.662996,-3.8590565,2.654479,-2.3082755,-2.467371
3.318,-2.472302,9.580605,-3.6681857,2.7173605,-2.2636611,-2.585062
3.32,-2.339952,9.481443,-3.4676626,2.778134,-2.2171311,-2.7061186
3.322,-2.1991973,9.373313,-3.264748,2.836945,-2.1687646,-2.830285
3.324,-2.0447013,9.250636,-3.0543675,2.893931,-2.1186604,-2.9572577
3.326,-1.8769596,9.113849,-2.8372393,2.949202,-2.0669594,-3.086667
3.328,-1.6969913,8.963762,-2.614358,3.0028405,-2.0138113,-3.2181268
3.33,-1.5058942,8.801384,-2.3867884,3.0549273,-1.9593676,-3.3511794
3.332,-1.3049049,8.627877,-2.1557584,3.1055393,-1.9037886,-3.485311
3.334,-1.095458,8.444532,-1.9224695,3.1547623,-1.8472449,-3.619909
3.336,-0.87905216,8.252744,-1.6884187,3.2026985,-1.7899019,-3.754294
3.338,-0.65749454,8.054012,-1.4549638,3.2494464,-1.7319252,-3.8877172
3.34,-0.4322722,7.849952,-1.2234337,3.2951338,-1.6734543,-4.019412
3.342,-0.20528388,7.6420336,-0.99525476,3.3399007,-1.6145893,-4.148622
3.344,0.021820545,7.4319296,-0.77163446,3.3838966,-1.5554254,-4.2746825
3.346,0.24750304,7.2210956,-0.5537188,3.4272487,-1.4960229,-4.397027
3.348,0.47010088,7.0111217,-0.34246075,3.4700906,-1.4364035,-4.5152507
3.35,0.6883509,6.8033247,-0.13874471,3.5110576,-1.3788037,-4.6258864
3.352,0.90111566,6.5990343,0.05684161,3.5509353,-1.3221763,-4.7305875
3.354,1.1075547,6.3992367,0.24365032,3.5895214,-1.266909,-4.8289614
3.356,1.3067765,6.2048182,0.42136765,3.6265597,-1.2134284,-4.9207
3.358,1.4981142,6.016491,0.5897478,3.6617873,-1.16218,-5.005592
3.36,1.681277,5.8347893,0.74876165,3.6949556,-1.1135746,-5.0835257
3.362,1.8558654,5.6601357,0.8984901,3.7258608,-1.0679631,-5.154503
3.364,2.021844,5.4929166,1.0391604,3.7543604,-1.0256033,-5.2186494
3.366,2.1790714,5.333168,1.1709907,3.7804015,-0.98664427,-5.276209
3.368,2.3278804,5.1808825,1.29439,3.803999,-0.9511273,-5.327534
3.37,2.468334,5.0360775,1.4096215,3.825239,-0.9189755,-5.373082
3.372,2.6006231,4.898697,1.5171505,3.8442552,-0.89002186,-5.4133754
