Time_s_,Acc_x_m_s_2_,Acc_y_m_s_2_,Acc_z_m_s_2_,Gyro_x_1_s_,Gyro_y_1_s_,Gyro_z_1_s_
0,-0.047598533,0.06306919,-0.15643692,0.1303429,-0.29995695,0.33088818
0.002,-0.048489768,0.062606975,-0.14944445,0.1296347,-0.303149,0.33090946
0.004,-0.04969978,0.062413406,-0.1420488,0.12891409,-0.3066543,0.33089867
0.006,-0.05122201,0.062397964,-0.13430639,0.12821004,-0.31047776,0.3308393
0.008,-0.05320748,0.06258523,-0.12608026,0.12755808,-0.31459197,0.33071634
0.01,-0.055392817,0.0630377,-0.11736438,0.12698087,-0.31893203,0.33051264
0.012,-0.058012933,0.06383058,-0.108281225,0.12654257,-0.3234182,0.33021405
0.014,-0.06103223,0.0651266,-0.098846786,0.12629715,-0.32792488,0.32981554
0.016,-0.0644789,0.06675321,-0.08926289,0.12630726,-0.33230716,0.3292946
0.018,-0.06833014,0.0688859,-0.079606034,0.12662175,-0.3363989,0.32864496
0.02,-0.072655864,0.07147052,-0.06999631,0.12728462,-0.34003645,0.32786462
0.022,-0.07748996,0.07457966,-0.060569145,0.12830591,-0.343067,0.32696396
0.024,-0.08262361,0.078076236,-0.051284995,0.12968075,-0.34537926,0.32595932
0.026,-0.08813519,0.082107484,-0.0423445,0.13137487,-0.34690595,0.3248674
0.028,-0.09402445,0.08660458,-0.033848524,0.133316,-0.3477488,0.3236968
0.03,-0.10023512,0.09161591,-0.025812054,0.13545111,-0.3477567,0.3224898
0.032,-0.10664394,0.097006105,-0.018364564,0.13767236,-0.34704277,0.32125908
0.034,-0.11317478,0.10278301,-0.0117607415,0.13988724,-0.34574112,0.32002413
0.036,-0.11971945,0.108872235,-0.006043986,0.14201522,-0.34397292,0.318808
0.038,-0.12613373,0.11524065,-0.0013795154,0.14398023,-0.34187126,0.3176519
0.04,-0.1322508,0.12183633,0.0021479325,0.14572355,-0.33956337,0.31658727
0.042,-0.13795,0.12855446,0.0044568432,0.1471911,-0.3371495,0.31564888
0.044,-0.14306349,0.13530838,0.0054946784,0.14835012,-0.33470458,0.3148657
0.046,-0.14741327,0.14204338,0.0053273886,0.1491822,-0.3323026,0.31427705
0.048,-0.15096267,0.14859022,0.0039472887,0.14968261,-0.32997924,0.31391382
0.05,-0.15348212,0.1549302,0.0015656902,0.14984894,-0.32777333,0.31380847
0.052,-0.15488242,0.16096842,-0.0017619042,0.14969936,-0.32569733,0.31398642
0.054,-0.15508357,0.1666989,-0.00582627,0.14924121,-0.32375965,0.31445026
0.056,-0.1541759,0.1722529,-0.010395788,0.14850515,-0.32197353,0.31520462
0.058,-0.15213491,0.17756057,-0.015360473,0.14753753,-0.3203543,0.316236
0.06,-0.14901139,0.18262352,-0.020545257,0.14637282,-0.31889677,0.31752703
0.062,-0.14489445,0.18739787,-0.025669925,0.14506716,-0.31760162,0.31905562
0.064,-0.13989702,0.19203942,-0.030507045,0.14370373,-0.3164678,0.32079616
0.066,-0.13425967,0.1967299,-0.03467316,0.14235312,-0.31548738,0.32270935
0.068,-0.12823895,0.2015273,-0.038090307,0.14110811,-0.31464627,0.32475978
0.07,-0.122027725,0.206641,-0.0405912,0.14006758,-0.31389958,0.32692233
0.072,-0.11593245,0.21219136,-0.042054325,0.13933742,-0.31319267,0.32915285
0.074,-0.11025226,0.21835294,-0.042266063,0.1390086,-0.31244636,0.33141482
0.076,-0.105203725,0.22527048,-0.041136682,0.13916075,-0.3115713,0.33367464
0.078,-0.101195246,0.23296064,-0.03868824,0.13984284,-0.31047344,0.3358984
0.08,-0.098492205,0.24178246,-0.034877192,0.14106676,-0.30907348,0.3380665
0.082,-0.09712333,0.25160414,-0.029752437,0.14280862,-0.30731782,0.34016314
0.084,-0.09741671,0.26261362,-0.023243284,0.14501113,-0.30519345,0.34215084
0.086,-0.09915548,0.27459553,-0.015396307,0.14757323,-0.30272198,0.34399593
0.088,-0.10274107,0.28770941,-0.0063465647,0.15038013,-0.29999578,0.345666
0.09,-0.10801732,0.3017894,0.0036286793,0.15329768,-0.29715902,0.34711316
0.092,-0.11497852,0.3169353,0.014421737,0.15617901,-0.29439688,0.34827867
0.094,-0.12348667,0.3329718,0.025922637,0.15888819,-0.29191545,0.3491271
0.096,-0.13339624,0.34979552,0.037826907,0.16130458,-0.289925,0.3496218
0.098,-0.14444523,0.36724842,0.05010139,0.16332516,-0.28860736,0.34974447
0.1,-0.15643871,0.38503888,0.062341925,0.16487393,-0.28811705,0.3494736
0.102,-0.1691548,0.40301597,0.07446545,0.16591126,-0.28857833,0.34880376
0.104,-0.18234584,0.42098576,0.08628584,0.16643238,-0.29003516,0.34773126
0.106,-0.19556126,0.43868917,0.0975215,0.16644582,-0.29249734,0.34626323
0.108,-0.2086806,0.45603663,0.10807981,0.16601282,-0.29592693,0.3444166
0.11,-0.2213787,0.47269347,0.11784047,0.16520268,-0.3002347,0.3422122
0.112,-0.2333562,0.48859397,0.12665862,0.16410092,-0.30528793,0.33967268
0.114,-0.24429621,0.5034192,0.1344062,0.1628097,-0.3109311,0.3368184
0.116,-0.25404534,0.51718974,0.14095728,0.16142178,-0.31700847,0.33366504
0.118,-0.26236543,0.5297674,0.14608836,0.16001464,-0.32334766,0.33023614
0.12,-0.26921225,0.5410116,0.14974299,0.15866831,-0.32977667,0.32655367
0.122,-0.27443928,0.5508948,0.15191324,0.15744609,-0.3361331,0.32264885
0.124,-0.27786067,0.55938715,0.15245518,0.15641223,-0.34224817,0.3185529
0.126,-0.27956766,0.5666992,0.15143086,0.15561706,-0.34796324,0.3143003
0.128,-0.2795732,0.5726962,0.14870736,0.15510245,-0.35312268,0.3099366
0.13,-0.27786398,0.5775656,0.14424475,0.15490338,-0.35756037,0.30550367
0.132,-0.27446222,0.5813898,0.13786827,0.15503685,-0.36112,0.30106148
0.134,-0.2696641,0.58441615,0.12931433,0.15551646,-0.36365977,0.29666364
0.136,-0.26344508,0.58658063,0.11865409,0.1563394,-0.3650762,0.29236627
0.138,-0.2558887,0.58821607,0.105776526,0.15746498,-0.3652964,0.28824306
0.14,-0.24722528,0.58945024,0.09058975,0.15886688,-0.36429322,0.2843485
0.142,-0.23760794,0.5904645,0.07330295,0.16048719,-0.36208713,0.28071204
0.144,-0.2271833,0.5913724,0.054059256,0.16226095,-0.35876188,0.27737686
0.146,-0.2161253,0.5923656,0.032894984,0.16410597,-0.35445085,0.2743674
0.148,-0.20462412,0.59360296,0.010107094,0.16595425,-0.3493513,0.27167967
0.15,-0.19288833,0.5951783,-0.014248572,0.16774625,-0.34366572,0.26930073
0.152,-0.18106781,0.59721553,-0.039904613,0.16942714,-0.33764547,0.26721373
0.154,-0.16936922,0.5999802,-0.06671989,0.17094626,-0.33153796,0.26537782
0.156,-0.1579504,0.603507,-0.0945301,0.1722685,-0.3255655,0.26374015
0.158,-0.14686409,0.607952,-0.122969724,0.17338625,-0.3199352,0.26224455
0.16,-0.13636267,0.613324,-0.15198845,0.17430905,-0.31480876,0.26082873
0.162,-0.12642255,0.61965036,-0.18116386,0.1750477,-0.31029603,0.25943398
0.164,-0.117301494,0.6269436,-0.21028069,0.17563665,-0.30646643,0.25801173
0.166,-0.1089685,0.6351837,-0.23895313,0.17611429,-0.30332226,0.25652236
0.168,-0.10149574,0.6443463,-0.267061,0.17653587,-0.30081272,0.25493148
0.17,-0.0948903,0.65441704,-0.29422325,0.17696497,-0.2988249,0.25321653
0.172,-0.08918917,0.6654315,-0.32019097,0.17746823,-0.29721963,0.25136763
0.174,-0.084412605,0.67721343,-0.34466594,0.17811424,-0.2958278,0.24938424
0.176,-0.08047408,0.68967396,-0.36757946,0.17896497,-0.29448977,0.24726464
0.178,-0.07730687,0.70268774,-0.3885914,0.18005891,-0.29307702,0.24502026
0.18,-0.07488951,0.7162024,-0.40754384,0.18143417,-0.29146004,0.24265654
0.182,-0.07293987,0.7300329,-0.4242589,0.18311931,-0.28956932,0.24016966
0.184,-0.07139608,0.7441012,-0.4386426,0.1851215,-0.28738996,0.237554
0.186,-0.07005602,0.7583395,-0.4505101,0.18744045,-0.284927,0.23478006
0.188,-0.068737835,0.7726028,-0.45976993,0.19006974,-0.28222427,0.23182188
0.19,-0.06739786,0.7867484,-0.4664446,0.19298868,-0.27934596,0.22865719
0.192,-0.06587979,0.80082387,-0.4706049,0.19618174,-0.27637038,0.22526173
0.194,-0.064130545,0.8146571,-0.4724463,0.19959842,-0.27337772,0.221618
0.196,-0.061878413,0.8282741,-0.4720504,0.20320259,-0.27043873,0.21772845
0.198,-0.05884385,0.84155977,-0.46947137,0.2069633,-0.26762578,0.21360445
0.2,-0.05497536,0.8545085,-0.4646564,0.2108383,-0.26499924,0.20925876
0.202,-0.05014965,0.8670751,-0.45785454,0.21476194,-0.26260924,0.20473476
0.204,-0.044166,0.87920547,-0.44929647,0.21868594,-0.26052788,0.20007399
0.206,-0.03690052,0.89096606,-0.43917194,0.22255413,-0.25879985,0.19530171
0.208,-0.028363585,0.9023247,-0.42775252,0.2263275,-0.25747317,0.19045761
0.21,-0.018441558,0.91342264,-0.41520578,0.22996095,-0.25661147,0.18555798
0.212,-0.0071306527,0.92420745,-0.40178674,0.23341516,-0.25625935,0.18060325
0.214,0.005592704,0.9347552,-0.38783714,0.23668255,-0.2564551,0.17557085
0.216,0.01962933,0.94514984,-0.3735482,0.23976165,-0.2572203,0.17042607
0.218,0.035095096,0.95544547,-0.35926184,0.24264833,-0.25854918,0.16513595
0.22,0.051945806,0.965732,-0.3452373,0.24536219,-0.26043653,0.15965469
0.222,0.07003111,0.9761598,-0.33171532,0.24792466,-0.26284176,0.15396471
0.224,0.089333504,0.98684263,-0.31889185,0.25037143,-0.2657099,0.14804101
0.226,0.10974234,0.99774283,-0.30687445,0.2527603,-0.2689658,0.14184877
0.228,0.13105059,1.0090365,-0.29589614,0.25513235,-0.27251613,0.13537799
0.23,0.15306681,1.0207462,-0.28613243,0.2575422,-0.27626616,0.1286021
0.232,0.17584884,1.0329199,-0.2777168,0.2600283,-0.2801079,0.12150853
0.234,0.19890356,1.0457085,-0.2708387,0.2626112,-0.28395474,0.11408707
0.236,0.22223842,1.0590985,-0.26552504,0.26528385,-0.28772026,0.10633484
0.238,0.24573481,1.073329,-0.2617463,0.26804084,-0.29135296,0.09826408
0.24,0.26890105,1.0884166,-0.2596223,0.2708285,-0.29484123,0.089912675
0.242,0.29168504,1.1043478,-0.259045,0.2735639,-0.29821017,0.08131995
0.244,0.31377158,1.1212821,-0.25979936,0.27616608,-0.30150345,0.07254391
0.246,0.33489317,1.139193,-0.26185024,0.27852878,-0.3048113,0.063670635
0.248,0.3549406,1.1580093,-0.2650585,0.28056645,-0.30822703,0.054812614
0.25,0.3735655,1.177769,-0.26921707,0.2821825,-0.31184033,0.04609373
0.252,0.39052767,1.1985872,-0.27437067,0.28329563,-0.31570873,0.037634093
0.254,0.4057687,1.2203639,-0.28030378,0.28387454,-0.3198758,0.029568758
0.256,0.41894358,1.2430644,-0.2868686,0.28392568,-0.32433483,0.022005646
0.258,0.42997542,1.2666513,-0.29388636,0.28346017,-0.3290274,0.0150458235
0.26,0.43895704,1.2910404,-0.30113292,0.28252026,-0.33386093,0.008763485
0.262,0.4456278,1.3161924,-0.30839106,0.2811748,-0.33869722,0.0032076973
0.264,0.45006967,1.3417641,-0.31545812,0.27951282,-0.34336734,-0.0016107797
0.266,0.4522813,1.3677922,-0.32217413,0.27761406,-0.3477047,-0.0057036304
0.268,0.4523176,1.3940327,-0.32856137,0.2755534,-0.35153458,-0.0091134235
0.27,0.4503256,1.4203525,-0.33451134,0.27341118,-0.35470504,-0.011911802
0.272,0.446428,1.4465854,-0.33991742,0.27125794,-0.3570818,-0.014201927
0.274,0.44088572,1.4726585,-0.34486312,0.26914787,-0.35855797,-0.016089072
0.276,0.43387163,1.4981997,-0.34932372,0.26712397,-0.3590695,-0.017705616
0.278,0.42560053,1.5232174,-0.35332635,0.26520872,-0.35859644,-0.01917102
0.28,0.41638947,1.5475192,-0.35687187,0.26339787,-0.3571617,-0.020584576
0.282,0.40641183,1.5709699,-0.36001346,0.26167956,-0.35482773,-0.022051947
0.284,0.39612395,1.5934557,-0.3628596,0.2600372,-0.3516823,-0.023647329
0.286,0.38568437,1.6148572,-0.36529866,0.25844294,-0.34787935,-0.025435193
0.288,0.3753599,1.6352441,-0.36742324,0.25685436,-0.3436021,-0.02746037
0.29,0.36553425,1.6544008,-0.3692396,0.25524494,-0.33903214,-0.0297633
0.292,0.35621852,1.6723425,-0.37078297,0.2535836,-0.33435455,-0.03237021
0.294,0.34774232,1.6892266,-0.37209675,0.25186136,-0.32975027,-0.03530347
0.296,0.34020436,1.7049807,-0.373307,0.25009263,-0.32536942,-0.038576793
0.298,0.3338182,1.7197944,-0.37452704,0.2482837,-0.32134813,-0.0422028
0.3,0.3287673,1.7336824,-0.3755895,0.24646862,-0.31777632,-0.046200547
0.302,0.32505554,1.7468443,-0.37633815,0.24468066,-0.31472787,-0.050577924
0.304,0.3229059,1.7593778,-0.37680134,0.24296394,-0.31222326,-0.055344902
0.306,0.3221208,1.7715361,-0.37699163,0.24135628,-0.3102688,-0.060503323
0.308,0.32267588,1.783433,-0.37700087,0.23988539,-0.3088293,-0.06605013
0.31,0.32461917,1.7952764,-0.37696072,0.23855887,-0.30787805,-0.07198849
0.312,0.32787395,1.8072321,-0.37677217,0.23739098,-0.3073957,-0.07831762
0.314,0.33230758,1.8194681,-0.37646168,0.23637646,-0.30736998,-0.08501187
0.316,0.3378818,1.8320408,-0.3760861,0.23548138,-0.30781633,-0.092063494
0.318,0.34445012,1.8451421,-0.37565768,0.2346532,-0.3087689,-0.09945679
0.32,0.35198337,1.8587074,-0.3751319,0.23383555,-0.3102746,-0.107184626
0.322,0.36048877,1.8729137,-0.3745408,0.23296256,-0.3123908,-0.11521387
0.324,0.36969262,1.8877715,-0.37386116,0.23196773,-0.31516242,-0.12352361
0.326,0.37975103,1.9032037,-0.37314722,0.23080641,-0.31862578,-0.13209723
0.328,0.39043248,1.9192871,-0.3724042,0.22945388,-0.32278132,-0.14091803
0.33,0.40166163,1.9358122,-0.37165898,0.22789636,-0.32760206,-0.14997858
0.332,0.41354775,1.9527596,-0.37101734,0.22615522,-0.33300442,-0.15926754
0.334,0.42579722,1.9699976,-0.37054205,0.22426942,-0.3388936,-0.16877899
0.336,0.4385327,1.9876084,-0.37029868,0.22229296,-0.34515214,-0.17849387
0.338,0.45172912,2.0053577,-0.37023437,0.22028175,-0.35164666,-0.1883946
0.34,0.46538335,2.0232885,-0.37039268,0.21828903,-0.3582209,-0.19845417
0.342,0.47934133,2.0412185,-0.37073782,0.21637854,-0.36473852,-0.20864469
0.344,0.49376518,2.058994,-0.37119365,0.21458934,-0.37109727,-0.21893789
0.346,0.5085472,2.076672,-0.3718534,0.21294656,-0.37720585,-0.22929679
0.348,0.5233542,2.0940988,-0.3728084,0.21147546,-0.38298893,-0.23968038
0.35,0.5385779,2.1111941,-0.37402582,0.21016341,-0.3883866,-0.2500459
0.352,0.55381095,2.1280208,-0.3753969,0.20899676,-0.39334732,-0.26035136
0.354,0.56906086,2.144469,-0.37716073,0.20795622,-0.39782554,-0.27054852
0.356,0.5843148,2.1605911,-0.379119,0.20700592,-0.40177855,-0.28062013
0.358,0.5992127,2.1764495,-0.38127178,0.20611644,-0.40517938,-0.29054496
0.36,0.6139467,2.1920397,-0.38375044,0.20526782,-0.40798557,-0.3003029
0.362,0.6283454,2.2072725,-0.386384,0.20443526,-0.4101631,-0.30989665
0.364,0.64210343,2.2223616,-0.38914818,0.2035956,-0.41167548,-0.31931266
0.366,0.65539795,2.2372422,-0.3919921,0.20273656,-0.41247377,-0.3285435
0.368,0.6679913,2.2519646,-0.39497876,0.20185998,-0.41251767,-0.33758742
0.37,0.6797314,2.26653,-0.39800388,0.20095357,-0.41179007,-0.34642398
0.372,0.69082046,2.2810392,-0.40124616,0.20001367,-0.410277,-0.35502538
0.374,0.7010225,2.2955766,-0.40455836,0.19903654,-0.4079855,-0.36336252
0.376,0.7103764,2.3100572,-0.4079213,0.19800222,-0.40495542,-0.37142232
0.378,0.7188163,2.3246791,-0.4112504,0.19689915,-0.40124887,-0.37918004
0.38,0.7263213,2.3393955,-0.4144886,0.19570372,-0.39696008,-0.38662833
0.382,0.7328639,2.3542812,-0.41764903,0.19438103,-0.39219815,-0.39378443
0.384,0.7386395,2.369279,-0.4205458,0.19292033,-0.38710055,-0.40065908
0.386,0.743605,2.38465,-0.42313245,0.19129327,-0.38181865,-0.40729362
0.388,0.7478241,2.4002733,-0.42538083,0.18948177,-0.3765071,-0.41372988
0.39,0.751432,2.4162111,-0.4273327,0.1874677,-0.37132138,-0.42002493
0.392,0.75452924,2.4324503,-0.42883435,0.18523625,-0.3664247,-0.42624056
0.394,0.75704265,2.449037,-0.42984074,0.18280056,-0.36194998,-0.43244964
0.396,0.7591593,2.4660625,-0.4303158,0.18017888,-0.35799596,-0.43869406
0.398,0.7609973,2.4834642,-0.4301674,0.17740223,-0.3546366,-0.44502252
0.4,0.76257527,2.5013545,-0.42930692,0.1745188,-0.35190016,-0.4514842
0.402,0.7639924,2.5197568,-0.42773136,0.17159536,-0.34977493,-0.4581176
0.404,0.7653769,2.5385296,-0.42551357,0.168713,-0.3482044,-0.46495277
0.406,0.76679534,2.557819,-0.42265153,0.16595331,-0.34710044,-0.4720133
0.408,0.7681529,2.5775366,-0.4190911,0.1633889,-0.34634903,-0.47931203
0.41,0.7697256,2.5977087,-0.41495532,0.16109183,-0.3458356,-0.48683974
0.412,0.77157605,2.6182775,-0.41043282,0.15910885,-0.34545004,-0.49460563
0.414,0.77361757,2.639264,-0.40539968,0.15745975,-0.3451253,-0.50261587
0.416,0.7758405,2.6605732,-0.40008783,0.15614638,-0.34482065,-0.51089096
0.418,0.7784264,2.6822386,-0.39452302,0.15514337,-0.34454513,-0.5194607
0.42,0.78130037,2.7041128,-0.38883433,0.1543796,-0.34437275,-0.5283554
0.422,0.78453815,2.7261028,-0.38324657,0.1537697,-0.3444016,-0.53760785
0.424,0.78818244,2.7481759,-0.37780145,0.153218,-0.3447487,-0.5472524
0.426,0.7922138,2.7703052,-0.37261948,0.1526075,-0.3455539,-0.5573069
0.428,0.79676807,2.7924318,-0.367691,0.15181513,-0.34695143,-0.5677669
0.43,0.80177265,2.8144493,-0.3631253,0.15074247,-0.34905416,-0.57862914
0.432,0.8072965,2.8361194,-0.35892612,0.14929298,-0.35192862,-0.5898647
0.434,0.8133377,2.8573613,-0.35492688,0.14740045,-0.35561568,-0.60141987
0.436,0.8198689,2.8781128,-0.3511474,0.14502816,-0.36011943,-0.61324334
0.438,0.8270056,2.89815,-0.34734416,0.14216253,-0.36539838,-0.62528497
0.44,0.83463335,2.9176242,-0.34350672,0.13882706,-0.37137637,-0.6374819
0.442,0.84276056,2.9362783,-0.33945537,0.13506675,-0.37794274,-0.6497887
0.444,0.8515544,2.9540908,-0.3349222,0.13094959,-0.38496295,-0.66216487
0.446,0.86081874,2.970932,-0.32993212,0.12655324,-0.39227176,-0.6745811
0.448,0.8705832,2.9868546,-0.3242173,0.12196842,-0.39970294,-0.68702203
0.45,0.88071275,3.001677,-0.31766003,0.11729789,-0.40708113,-0.69951403
0.452,0.89116096,3.0155764,-0.31014302,0.11264183,-0.4142301,-0.71206915
0.454,0.90186656,3.0284894,-0.30144328,0.10810424,-0.42097828,-0.7246963
0.456,0.91272044,3.0404482,-0.29161423,0.10375687,-0.42715466,-0.737404
0.458,0.9239551,3.0514765,-0.28047255,0.09965865,-0.43261343,-0.7501911
0.46,0.9351274,3.0616589,-0.26800904,0.0958443,-0.43721956,-0.7630282
0.462,0.9463155,3.0710032,-0.2544544,0.0923334,-0.44086418,-0.77586186
0.464,0.95732665,3.0797231,-0.2397176,0.0891086,-0.44346026,-0.78862363
0.466,0.9680498,3.087881,-0.22399026,0.0861336,-0.4449618,-0.8012167
0.468,0.97847867,3.0955362,-0.20734552,0.08334426,-0.4453435,-0.813542
0.47,0.9884437,3.1027348,-0.18968576,0.08066687,-0.44463652,-0.8254965
0.472,0.997831,3.109653,-0.17118925,0.07800409,-0.44292122,-0.8370093
0.474,1.0065248,3.1163816,-0.15186808,0.075260416,-0.4403124,-0.8480285
0.476,1.0143865,3.1230042,-0.13172,0.07233852,-0.43698382,-0.8585326
0.478,1.021492,3.1295586,-0.110863626,0.06914389,-0.43313253,-0.8685288
0.48,1.0276688,3.1362753,-0.08925477,0.06560026,-0.42898813,-0.87805754
0.482,1.032839,3.143079,-0.06691283,0.061638616,-0.4247831,-0.8871711
0.484,1.037106,3.149992,-0.043976158,0.05721374,-0.42073062,-0.895936
0.486,1.0404123,3.1571946,-0.020502865,0.052312344,-0.41702026,-0.9044364
0.488,1.0428582,3.164618,0.0034763813,0.04694178,-0.41377428,-0.91277236
0.49,1.0443509,3.1723413,0.028003335,0.041134365,-0.41106766,-0.92101705
0.492,1.0448347,3.180384,0.052903146,0.03495673,-0.40890872,-0.92923445
0.494,1.0442444,3.188737,0.07814264,0.028516524,-0.40722418,-0.9374929
0.496,1.0428226,3.1973515,0.10365856,0.021938361,-0.40588927,-0.94583184
0.498,1.0406101,3.2062645,0.12926662,0.015362263,-0.40473384,-0.9542853
0.5,1.0375683,3.215524,0.15494251,0.008943021,-0.40357122,-0.9628618
0.502,1.033931,3.2249272,0.18037197,0.0028235242,-0.40221423,-0.971541
0.504,1.029722,3.2346096,0.20536128,-0.0028581992,-0.40047747,-0.9802793
0.506,1.0250816,3.2444186,0.22970733,-0.007968329,-0.3981884,-0.98903227
0.508,1.0201144,3.2544546,0.2528995,-0.012423225,-0.39521134,-0.9977594
0.51,1.0149206,3.2645185,0.2745994,-0.016156591,-0.39144862,-1.006423
0.512,1.0097895,3.274438,0.29444596,-0.019131266,-0.38681322,-1.0149816
0.514,1.0048026,3.2840781,0.31225255,-0.02134978,-0.3812588,-1.0234344
0.516,1.0001763,3.2933607,0.3274529,-0.022835888,-0.37474197,-1.0318065
0.518,0.9960773,3.3021803,0.3396225,-0.02363091,-0.36723676,-1.0401455
0.52,0.99259186,3.3103738,0.34832123,-0.023790874,-0.35872918,-1.0485076
0.522,0.9898682,3.3176973,0.3532981,-0.023378164,-0.3492421,-1.0569522
0.524,0.98812824,3.3240302,0.35430095,-0.022483356,-0.33883578,-1.065543
0.526,0.9875128,3.329205,0.3511707,-0.021206185,-0.32761085,-1.0743302
0.528,0.98811793,3.332933,0.34388232,-0.019655831,-0.3157435,-1.0833442
0.53,0.9900104,3.3351967,0.33234993,-0.017961338,-0.30347762,-1.0925951
0.532,0.9932414,3.3357735,0.316673,-0.016231693,-0.2911303,-1.1020716
0.534,0.9977807,3.334662,0.2970517,-0.014603224,-0.2790561,-1.1117606
0.536,1.0036423,3.331701,0.27368706,-0.013180438,-0.26764587,-1.1216562
0.538,1.010642,3.3269687,0.24681121,-0.012070894,-0.25730717,-1.1317337
0.54,1.0189357,3.320486,0.216954,-0.011366155,-0.24840984,-1.1419982
0.542,1.0282357,3.312225,0.18454415,-0.011142373,-0.24128851,-1.1524397
0.544,1.0384858,3.3022506,0.14999154,-0.011453118,-0.23620452,-1.1630282
0.546,1.0493858,3.2905266,0.11397934,-0.012350388,-0.2333527,-1.1737343
0.548,1.0607404,3.2772477,0.07708332,-0.013872672,-0.23283999,-1.184496
0.55,1.0724213,3.2625477,0.040085405,-0.01603238,-0.23468068,-1.1952554
0.552,1.0840781,3.2466297,0.003582865,-0.018831674,-0.23880498,-1.2059311
0.554,1.0953927,3.2296698,-0.03189364,-0.022244975,-0.24506176,-1.2164428
0.556,1.1063756,3.2117946,-0.06567466,-0.026238896,-0.25322318,-1.2267356
0.558,1.1166439,3.1930437,-0.09728992,-0.030748237,-0.26300466,-1.2367611
0.56,1.1259595,3.17372,-0.12625697,-0.035695404,-0.27407375,-1.2464954
0.562,1.1341715,3.1538048,-0.15217623,-0.040973157,-0.2860736,-1.2559247
0.564,1.140995,3.133397,-0.17485893,-0.046452723,-0.29862866,-1.2650466
0.566,1.1463162,3.112578,-0.19397342,-0.051996954,-0.31135976,-1.2739024
0.568,1.1497535,3.0915442,-0.20951876,-0.057460167,-0.32388586,-1.2825291
0.57,1.1512136,3.0704174,-0.22138676,-0.06270511,-0.33587778,-1.2909807
0.572,1.1505525,3.0492907,-0.22950524,-0.06759502,-0.3470292,-1.2992915
0.574,1.1478469,3.028034,-0.23379794,-0.0720309,-0.35707772,-1.307494
0.576,1.1429148,3.0068262,-0.23426956,-0.075934485,-0.36580575,-1.3155911
0.578,1.1356586,2.9856455,-0.23075148,-0.079276785,-0.3730616,-1.3235377
0.58,1.1259384,2.964596,-0.2234698,-0.0820608,-0.37874973,-1.3312881
0.582,1.1137989,2.9435787,-0.21259439,-0.0843399,-0.3828298,-1.3388002
0.584,1.0993626,2.9225,-0.19855073,-0.08618492,-0.3853237,-1.3460302
0.586,1.0825906,2.901478,-0.18167806,-0.087702945,-0.38633394,-1.3529354
0.588,1.0636168,2.880467,-0.16210565,-0.08898397,-0.38601905,-1.3595017
0.59,1.0423474,2.8595364,-0.14017019,-0.09012348,-0.38455802,-1.3657246
0.592,1.0190928,2.8388066,-0.11631958,-0.09118992,-0.38214898,-1.3716179
0.594,0.9939993,2.8182049,-0.09079428,-0.092231154,-0.37900534,-1.3772212
0.596,0.9675677,2.7976243,-0.06403786,-0.093279555,-0.3752945,-1.3826045
0.598,0.94004786,2.777147,-0.036359638,-0.0943472,-0.37116346,-1.387853
0.6,0.9118249,2.756802,-0.008040905,-0.095431834,-0.3666813,-1.3929926
0.602,0.88343775,2.7364607,0.020723313,-0.09653586,-0.3618945,-1.3980305
0.604,0.8552801,2.7161589,0.049782544,-0.09763647,-0.3568001,-1.4029094
0.606,0.8277239,2.695783,0.07889709,-0.09871661,-0.35136092,-1.4075475
0.608,0.8014096,2.6753051,0.10775399,-0.099764526,-0.34553885,-1.4118469
0.61,0.77685994,2.6544888,0.1359325,-0.1007437,-0.33930546,-1.4156835
0.612,0.7545309,2.6333222,0.16304925,-0.1016165,-0.332631,-1.4189312
0.614,0.73496854,2.6115665,0.18873486,-0.1022943,-0.32549578,-1.4214932
0.616,0.7185465,2.5892286,0.21236649,-0.102635734,-0.3178532,-1.4233404
0.618,0.70569,2.5661252,0.23372483,-0.10246147,-0.30962083,-1.4244933
0.62,0.69657326,2.542382,0.25253102,-0.101553835,-0.3006829,-1.4250506
0.622,0.6913304,2.518141,0.26837212,-0.09966906,-0.29086053,-1.4251783
0.624,0.69012773,2.4934475,0.2808381,-0.09657422,-0.27992892,-1.4250829
0.626,0.693101,2.4682772,0.28973457,-0.092069164,-0.26764756,-1.4250143
0.628,0.7000902,2.4427521,0.29485914,-0.08601232,-0.25379634,-1.4252237
0.63,0.7109834,2.4167767,0.29599848,-0.07834629,-0.23821619,-1.4259355
0.632,0.7255609,2.390583,0.29296097,-0.06909376,-0.22085667,-1.4273282
0.634,0.74373376,2.3640952,0.2854438,-0.058385067,-0.20183629,-1.4294654
0.636,0.7649564,2.3374352,0.27346367,-0.0464357,-0.18145886,-1.4323416
0.638,0.78875244,2.3110802,0.25694704,-0.033549286,-0.16020653,-1.435895
0.64,0.81461716,2.2850544,0.23596409,-0.02007674,-0.13872658,-1.4400115
0.642,0.84218633,2.2596638,0.21101403,-0.00640887,-0.117794126,-1.4445431
0.644,0.8709439,2.2349699,0.18244365,0.007069163,-0.0982496,-1.449349
0.646,0.9003507,2.2111678,0.15100971,0.019980993,-0.08089805,-1.4543184
0.648,0.9302015,2.1882927,0.11753115,0.03199832,-0.06645208,-1.4593511
0.65,0.9597329,2.1666143,0.08265597,0.042851374,-0.05544482,-1.4643698
0.652,0.98808634,2.1459162,0.046805084,0.052346505,-0.048185453,-1.4693261
0.654,1.0152854,2.1257021,0.010841042,0.06037514,-0.044780985,-1.4742066
0.656,1.0411848,2.106926,-0.02419126,0.066930115,-0.0450902,-1.4789793
0.658,1.0651314,2.090231,-0.057469398,0.07208809,-0.048737466,-1.4836341
0.66,1.0867757,2.075333,-0.08842057,0.076044396,-0.055188075,-1.4881538
0.662,1.1060842,2.0618026,-0.11636427,0.07904995,-0.06378594,-1.4925098
0.664,1.1227552,2.0494268,-0.14053991,0.08142087,-0.073799536,-1.4966687
0.666,1.1364653,2.0383677,-0.16025253,0.08350215,-0.084484674,-1.5006245
0.668,1.1471245,2.028792,-0.17495355,0.08563003,-0.095116355,-1.5043926
0.67,1.1546544,2.0206552,-0.1841825,0.08810513,-0.105042756,-1.5080137
0.672,1.1588688,2.0139983,-0.18763393,0.09118444,-0.11369354,-1.5115775
0.674,1.1597648,2.008987,-0.18512085,0.09505209,-0.12060631,-1.5151676
0.676,1.1570234,2.0056286,-0.17667815,0.09979385,-0.12545934,-1.5188909
0.678,1.1509509,2.0038018,-0.16245459,0.105393305,-0.12803078,-1.5228398
0.68,1.1416541,2.003675,-0.14258714,0.11176586,-0.12818402,-1.5270989
0.682,1.1292021,2.0052621,-0.1171304,0.11876437,-0.12596,-1.5317943
0.684,1.1138786,2.0086944,-0.08635807,0.12619233,-0.12151965,-1.5369333
0.686,1.0957793,2.0139027,-0.050620213,0.13382068,-0.11507838,-1.5423955
0.688,1.0753801,2.0209336,-0.010514557,0.1414187,-0.10690679,-1.548174
0.69,1.0526859,2.0298648,0.03346145,0.1487939,-0.097297415,-1.554327
0.692,1.0280272,2.0409613,0.08077869,0.15584666,-0.08651465,-1.5608813
0.694,1.0018443,2.0542064,0.13125521,0.16257179,-0.07474223,-1.5678502
0.696,0.9748049,2.0694873,0.18451008,0.16903655,-0.062075645,-1.575256
0.698,0.94746983,2.0866952,0.24027744,0.17535363,-0.048530042,-1.5831637
0.7,0.92060316,2.1056366,0.29844955,0.18168569,-0.03404908,-1.5916611
0.702,0.8947333,2.126083,0.3589999,0.18818225,-0.018517196,-1.600865
0.704,0.8703147,2.14802,0.42143464,0.1949581,-0.0018392354,-1.610953
0.706,0.84801143,2.1711318,0.48520124,0.20205042,0.01605931,-1.6220965
0.708,0.8283731,2.195273,0.549277,0.2094309,0.035231218,-1.6344784
0.71,0.8120656,2.220153,0.6127995,0.2169918,0.05565104,-1.64828
0.712,0.7996843,2.245659,0.67510754,0.22456466,0.07722016,-1.6636435
0.714,0.79185355,2.2715492,0.73552597,0.23192206,0.09978376,-1.6806768
0.716,0.7890357,2.2977161,0.79354787,0.2388358,0.123148546,-1.6994177
0.718,0.7915916,2.323934,0.84884095,0.24502766,0.14704645,-1.7198386
0.72,0.7997899,2.3500419,0.9010042,0.25020573,0.17113557,-1.7418228
0.722,0.8139224,2.3759296,0.94970655,0.25406098,0.19498712,-1.7651697
0.724,0.8342664,2.4014153,0.99464697,0.25628775,0.21814424,-1.7896255
0.726,0.8609818,2.426198,1.0357634,0.25659323,0.24007644,-1.8149179
0.728,0.8941724,2.4500654,1.0727912,0.25470734,0.2601999,-1.8407893
0.73,0.9338906,2.4727924,1.1055481,0.25038713,0.2778785,-1.8669933
0.732,0.9800463,2.4942422,1.1341679,0.24340798,0.29242072,-1.8933244
0.734,1.032519,2.5144184,1.1589364,0.23355371,0.30312425,-1.9196013
0.736,1.0908086,2.5332265,1.1801975,0.22065292,0.30942565,-1.9456494
0.738,1.1548115,2.5506592,1.1982509,0.20460916,0.310875,-1.9714772
0.74,1.2238612,2.5668771,1.2137061,0.18544194,0.30717888,-1.9971629
0.742,1.297651,2.581795,1.2271001,0.16327678,0.29831934,-2.0226674
0.744,1.3753285,2.5956042,1.2391181,0.13835254,0.28459406,-2.0479538
0.746,1.4565043,2.608366,1.2503914,0.11101064,0.26659405,-2.0730755
0.748,1.5404136,2.6198199,1.2616423,0.08169252,0.24517499,-2.0981143
0.75,1.6262612,2.630194,1.273627,0.050927192,0.22140881,-2.1230977
0.752,1.7133942,2.63941,1.2867236,0.019277334,0.19650093,-2.1479795
0.754,1.8008418,2.6477776,1.3013363,-0.012695715,0.17165408,-2.1726615
0.756,1.8877442,2.6553774,1.3177233,-0.04449427,0.147954,-2.197017
0.758,1.973176,2.662314,1.3359925,-0.07571397,0.12626675,-2.2209058
0.76,2.0565805,2.6686761,1.3564656,-0.10610033,0.10717662,-2.244263
0.762,2.1377401,2.6748104,1.3798078,-0.1355449,0.090953305,-2.267051
0.764,2.2153728,2.6810517,1.4060138,-0.16408664,0.0775723,-2.2893178
0.766,2.288775,2.6864336,1.4350541,-0.19189055,0.066751376,-2.3111837
0.768,2.3579764,2.6903825,1.4670501,-0.21917981,0.058060706,-2.3328183
0.77,2.4227066,2.6933212,1.5021057,-0.24621375,0.05100961,-2.354448
0.772,2.4823484,2.695578,1.5399383,-0.2732315,0.045127377,-2.3762918
0.774,2.5367942,2.6971679,1.5800571,-0.3004207,0.04002914,-2.398555
0.776,2.585889,2.697612,1.6221309,-0.32794678,0.035427943,-2.4214034
0.778,2.629909,2.6966,1.6661917,-0.35593194,0.031112477,-2.4449432
0.78,2.668896,2.6937532,1.7123222,-0.38447958,0.02699545,-2.4692225
0.782,2.7031424,2.6886823,1.7604495,-0.4136684,0.023089007,-2.4942486
0.784,2.732857,2.680888,1.8105258,-0.44356933,0.01945202,-2.520016
0.786,2.7585225,2.6700687,1.8622493,-0.4742614,0.01615426,-2.5465016
0.788,2.7801418,2.656266,1.9159809,-0.5058403,0.013272494,-2.5736725
0.79,2.798063,2.6393473,1.9714206,-0.53841525,0.010855302,-2.601514
0.792,2.8127801,2.6190896,2.0282798,-0.57210624,0.008929603,-2.6299822
0.794,2.824615,2.5952952,2.0863826,-0.6070417,0.0075321347,-2.6590626
0.796,2.8341656,2.5680046,2.1454961,-0.6433202,0.0067144707,-2.6887488
0.798,2.8415332,2.5374274,2.2054887,-0.68099886,0.006577477,-2.7190413
0.8,2.8474946,2.5038087,2.2663863,-0.72009104,0.0073112026,-2.7499187
0.802,2.8524532,2.4673948,2.3280776,-0.7605354,0.00917694,-2.7813346
0.804,2.856823,2.4284034,2.389895,-0.80222064,0.012528442,-2.813223
0.806,2.860787,2.387232,2.4512463,-0.8449718,0.017776586,-2.8455024
0.808,2.8646526,2.3445427,2.5118957,-0.8885903,0.02541054,-2.8780844
0.81,2.8690493,2.3007867,2.5710382,-0.93286115,0.035973594,-2.9108708
0.812,2.8745337,2.2563918,2.628375,-0.9775599,0.0500018,-2.943736
0.814,2.8815122,2.211844,2.6839616,-1.0224942,0.06790988,-2.9765053
0.816,2.889974,2.1679058,2.7379138,-1.067539,0.089909,-3.0090144
0.818,2.9003465,2.1251147,2.790134,-1.1126553,0.11599114,-3.0411346
0.82,2.9129722,2.0840406,2.840307,-1.15788,0.14597145,-3.0728297
0.822,2.927852,2.0452416,2.8879676,-1.2033694,0.17937571,-3.1041398
0.824,2.9453547,2.0092428,2.9326963,-1.2493678,0.21547262,-3.135175
0.826,2.9656208,1.9765265,2.9741976,-1.296163,0.25337487,-3.166075
0.828,2.9890351,1.9473042,3.012288,-1.3440835,0.29209042,-3.197031
0.83,3.015804,1.9220998,3.0467138,-1.3934424,0.33058685,-3.2282584
0.832,3.0461216,1.9009455,3.077301,-1.4445366,0.36786008,-3.2599645
0.834,3.0802429,1.8838698,3.103762,-1.4976169,0.4029768,-3.2923117
0.836,3.1181371,1.8710304,3.1258016,-1.5528822,0.43509448,-3.325377
0.838,3.160055,1.8624557,3.1432037,-1.6104283,0.46359852,-3.3591712
0.84,3.206373,1.8579605,3.15574,-1.6702478,0.48810208,-3.3936415
0.842,3.257248,1.857292,3.1631274,-1.7322519,0.5083471,-3.4286578
0.844,3.3129725,1.8600645,3.165073,-1.7962879,0.52423066,-3.4640126
0.846,3.3739188,1.8659946,3.1613352,-1.8621472,0.53580624,-3.4994476
0.848,3.440282,1.8745713,3.15176,-1.9295697,0.5431598,-3.534722
0.85,3.5122359,1.8854854,3.1361153,-1.9982882,0.5464255,-3.5696175
0.852,3.5898597,1.898203,3.1144984,-2.0680203,0.54576224,-3.6039681
0.854,3.6734073,1.9123411,3.0869431,-2.138456,0.5413312,-3.6376772
0.856,3.7624915,1.9274251,3.0532594,-2.2092938,0.53334975,-3.6707084
0.858,3.8570209,1.9431243,3.013355,-2.2802138,0.5220567,-3.703068
0.86,3.9564216,1.9591179,2.9673052,-2.3509011,0.5077846,-3.7347696
0.862,4.0600038,1.9752187,2.915488,-2.4210258,0.49093813,-3.765825
0.864,4.1671414,1.9912406,2.8581462,-2.4902592,0.47200558,-3.79624
0.866,4.276759,2.0072455,2.7957933,-2.5582845,0.4515973,-3.8260226
0.868,4.387784,2.0232317,2.728694,-2.6248055,0.4304406,-3.8551643
0.87,4.4988594,2.0392365,2.6570446,-2.6895561,0.4093306,-3.8836372
0.872,4.608856,2.055477,2.5810175,-2.7523146,0.38905424,-3.9113955
0.874,4.7164125,2.0721726,2.500881,-2.8129187,0.3703146,-3.9383655
0.876,4.8201423,2.0897725,2.4169796,-2.8712518,0.35374764,-3.9645073
0.878,4.918463,2.1086202,2.329711,-2.9272487,0.33989155,-3.9898584
0.88,5.0098915,2.1290367,2.2394862,-2.9809194,0.32907984,-4.014521
0.882,5.093424,2.1515071,2.1471112,-3.0323257,0.32149392,-4.0386057
0.884,5.1679673,2.176411,2.0530593,-3.0815852,0.31716618,-4.0622396
0.886,5.2325883,2.204188,1.9577508,-3.1288626,0.3159697,-4.085558
0.888,5.286388,2.2352214,1.8611504,-3.1743596,0.31765547,-4.108693
0.89,5.328896,2.2698956,1.7632021,-3.2182984,0.32188785,-4.1317687
0.892,5.360089,2.3084135,1.6641668,-3.2609417,0.32819173,-4.1548667
0.894,5.380223,2.3512356,1.5642979,-3.3025525,0.33604574,-4.1780286
0.896,5.3900266,2.3984275,1.4641051,-3.3433685,0.34498006,-4.2013044
0.898,5.390431,2.4498632,1.3636136,-3.383582,0.35458884,-4.2247276
0.9,5.3824067,2.5054374,1.2636123,-3.4233267,0.36452758,-4.248328
0.902,5.3672647,2.564959,1.1646743,-3.46266,0.3746529,-4.2720814
0.904,5.3466926,2.6283119,1.0672942,-3.5015407,0.38498288,-4.2959576
0.906,5.3222637,2.6951766,0.9719118,-3.5398455,0.39572108,-4.3199286
0.908,5.2963524,2.7650168,0.87881696,-3.5773752,0.40726852,-4.3439603
0.91,5.270964,2.837229,0.7883133,-3.6138499,0.42015094,-4.3679986
0.912,5.248125,2.911203,0.7004936,-3.648939,0.43501276,-4.392006
0.914,5.2297997,2.9864254,0.61549395,-3.6822963,0.45252338,-4.4159427
0.916,5.218114,3.062412,0.5330893,-3.713585,0.47329637,-4.43978
0.918,5.214965,3.1383832,0.4525841,-3.7424824,0.49786058,-4.463486
0.92,5.222081,3.2137427,0.3738539,-3.7687087,0.5265693,-4.4870114
0.922,5.241052,3.288025,0.2964629,-3.7920334,0.5595821,-4.5103235
0.924,5.2734942,3.360546,0.21980304,-3.812309,0.59684896,-4.533388
0.926,5.3206925,3.4303703,0.14350197,-3.829479,0.6380645,-4.5561595
0.928,5.383734,3.4967375,0.06736553,-3.8436153,0.6826755,-4.578606
0.93,5.463109,3.5590453,-0.008810997,-3.8549025,0.7299241,-4.6007357
0.932,5.559367,3.6167407,-0.08527273,-3.8636665,0.77885544,-4.6225443
0.934,5.672151,3.6694121,-0.16253391,-3.870354,0.82832533,-4.644044
0.936,5.801315,3.716579,-0.24092847,-3.87551,0.8770764,-4.6652765
0.938,5.9462295,3.7581701,-0.3207638,-3.8797376,0.92379224,-4.686346
0.94,6.106257,3.7937503,-0.40185452,-3.883655,0.9671755,-4.7074122
0.942,6.2802095,3.8234067,-0.48383445,-3.887838,1.006035,-4.7286797
0.944,6.4667606,3.8471766,-0.5661572,-3.8927712,1.0393708,-4.750372
0.946,6.664429,3.865024,-0.6484152,-3.898803,1.0664644,-4.7727137
0.948,6.87121,3.876989,-0.73014057,-3.9060872,1.0869372,-4.795917
0.95,7.085252,3.8833885,-0.81086403,-3.9146059,1.1008136,-4.8201423
0.952,7.3045454,3.8845842,-0.88986087,-3.9241552,1.1084875,-4.845497
0.954,7.5267,3.8811958,-0.96647376,-3.934405,1.1107109,-4.872036
0.956,7.749591,3.8738585,-1.0399939,-3.9449706,1.1084521,-4.8997145
0.958,7.970705,3.8632665,-1.109804,-3.9554307,1.1028278,-4.9283967
0.96,8.187689,3.850125,-1.1755781,-3.9653835,1.0949954,-4.9578924
0.962,8.398102,3.8355794,-1.237392,-3.974491,1.0860198,-4.987954
0.964,8.599691,3.8205156,-1.2952619,-3.982517,1.0768008,-5.0183263
0.966,8.790132,3.8061535,-1.3491826,-3.9893215,1.0680201,-5.0487323
0.968,8.967315,3.793613,-1.3993598,-3.9948468,1.0601488,-5.078906
0.97,9.129418,3.7838736,-1.4463253,-3.9991078,1.0534445,-5.108576
0.972,9.274393,3.778143,-1.491081,-4.0021877,1.0479993,-5.1375175
0.974,9.40069,3.7772884,-1.5343173,-4.0042195,1.0437759,-5.1655297
0.976,9.506927,3.7823706,-1.5767738,-4.0053596,1.0406362,-5.192413
0.978,9.592108,3.7945118,-1.6191015,-4.005756,1.0384052,-5.2179766
0.98,9.655652,3.814516,-1.6619589,-4.0055842,1.0368983,-5.2420216
0.982,9.69688,3.8431234,-1.7062607,-4.0049863,1.0359243,-5.2643657
0.984,9.716067,3.8807583,-1.7528334,-4.0041156,1.0352778,-5.2848325
0.986,9.713656,3.9277682,-1.802501,-4.003152,1.0347471,-5.303283
0.988,9.690566,3.9846492,-1.8558517,-4.00228,1.034126,-5.319618
0.99,9.648044,4.0514436,-1.9131296,-4.001722,1.0332243,-5.3337693
0.992,9.587735,4.1280117,-1.9747885,-4.001697,1.0318393,-5.3457055
0.994,9.511627,4.214036,-2.040948,-4.002434,1.0298355,-5.3554645
0.996,9.422168,4.3092775,-2.1117558,-4.0041404,1.027143,-5.363165
0.998,9.321862,4.4132504,-2.1869829,-4.0069714,1.0237956,-5.368998
1,9.21379,4.525488,-2.2660131,-4.0110283,1.0199418,-5.373206
1.002,9.100834,4.64513,-2.3482487,-4.0163565,1.0158677,-5.3760414
1.004,8.985906,4.7711816,-2.4329143,-4.0229273,1.0119588,-5.377752
1.006,8.872186,4.902649,-2.5190701,-4.03066,1.0087079,-5.3785625
1.008,8.762938,5.0385723,-2.6056943,-4.0394077,1.0066565,-5.378642
1.01,8.661429,5.1777716,-2.69168,-4.048999,1.006347,-5.3781404
1.012,8.570491,5.3193603,-2.776102,-4.0592604,1.008238,-5.377159
1.014,8.492765,5.4621096,-2.85792,-4.070047,1.0126846,-5.3757224
1.016,8.431021,5.6047697,-2.9358704,-4.0812407,1.0198945,-5.3738117
1.018,8.387061,5.746295,-3.0089443,-4.0927315,1.0299478,-5.371399
1.02,8.3626175,5.885872,-3.0763597,-4.104455,1.0427727,-5.368441
1.022,8.358995,6.0227427,-3.137103,-4.1163645,1.058147,-5.3649163
1.024,8.376945,6.156217,-3.1902692,-4.1284246,1.075798,-5.3608484
1.026,8.416729,6.285541,-3.2350445,-4.1405787,1.0953951,-5.3562894
1.028,8.478125,6.410125,-3.2709477,-4.1527305,1.1166296,-5.351371
1.03,8.560345,6.5294547,-3.2978358,-4.1647463,1.1392249,-5.346283
1.032,8.662014,6.643282,-3.3160822,-4.176455,1.1629076,-5.341261
1.034,8.781206,6.7516356,-3.3261752,-4.187658,1.1874294,-5.3365655
1.036,8.915653,6.8546095,-3.3291254,-4.19817,1.2125554,-5.332429
1.038,9.062567,6.9524727,-3.3258648,-4.2078066,1.2380201,-5.3290577
1.04,9.2190485,7.0455985,-3.3176074,-4.216416,1.2634982,-5.3266335
1.042,9.3818245,7.134237,-3.3054032,-4.223918,1.2885728,-5.3252783
1.044,9.547542,7.2186613,-3.2905421,-4.230305,1.3126972,-5.3250403
1.046,9.712489,7.2994843,-3.274436,-4.235661,1.3352504,-5.325916
1.048,9.872856,7.37708,-3.2587342,-4.2401204,1.3555595,-5.327836
1.05,10.024878,7.4520097,-3.2447867,-4.243889,1.3729484,-5.3306937
1.052,10.165363,7.5247474,-3.2339373,-4.2471924,1.3867714,-5.33439
1.054,10.290739,7.595869,-3.227871,-4.250267,1.3964939,-5.338823
1.056,10.397858,7.6659946,-3.2279737,-4.253335,1.4017018,-5.3438845
1.058,10.484205,7.73563,-3.235331,-4.256624,1.4021634,-5.3494744
1.06,10.54723,7.805144,-3.2508867,-4.2603645,1.3977871,-5.355478
1.062,10.585033,7.8750095,-3.2753336,-4.264776,1.388658,-5.3617625
1.064,10.596359,7.945563,-3.3091216,-4.2700562,1.3750285,-5.368183
1.066,10.5803585,8.0171175,-3.3526087,-4.276395,1.3572836,-5.3745594
1.068,10.53721,8.089834,-3.4056873,-4.283942,1.3359232,-5.3806973
1.07,10.467194,8.163885,-3.4678493,-4.292814,1.3115685,-5.38639
1.072,10.371313,8.239347,-3.538014,-4.303073,1.2849228,-5.391383
1.074,10.2510395,8.316277,-3.615209,-4.3147197,1.2567493,-5.3954077
1.076,10.108629,8.3945265,-3.6985085,-4.32774,1.227862,-5.398173
1.078,9.946333,8.473975,-3.7870438,-4.3420577,1.1990207,-5.399398
1.08,9.767071,8.554801,-3.8797002,-4.3575873,1.1709487,-5.3988237
1.082,9.574081,8.636788,-3.9751503,-4.3742375,1.1443207,-5.396248
1.084,9.3709545,8.719917,-4.0720377,-4.39193,1.1196442,-5.3915324
1.086,9.161428,8.803861,-4.16913,-4.4106054,1.0973074,-5.3846188
1.088,8.9489975,8.8883,-4.2648897,-4.430197,1.0775496,-5.3755274
1.09,8.737385,8.973055,-4.3579683,-4.450648,1.0604517,-5.3643484
1.092,8.530386,9.057845,-4.447058,-4.47192,1.0459857,-5.351198
1.094,8.331371,9.14237,-4.531355,-4.49397,1.0340283,-5.336213
1.096,8.143156,9.226534,-4.609928,-4.516758,1.0243521,-5.319559
1.098,7.9685197,9.310009,-4.6819086,-4.540245,1.0166402,-5.3013725
1.1,7.809736,9.392338,-4.7473135,-4.5643907,1.0104922,-5.281762
1.102,7.6683683,9.473178,-4.805625,-4.589162,1.0054348,-5.260875
1.104,7.545747,9.552559,-4.856155,-4.6145086,1.0009325,-5.2388687
1.106,7.4422226,9.630295,-4.8986707,-4.6404037,0.9964057,-5.215926
1.108,7.3578334,9.706217,-4.9330335,-4.6667967,0.99126667,-5.192283
1.11,7.2916994,9.7800455,-4.959473,-4.6935925,0.9849712,-5.168238
1.112,7.242467,9.851959,-4.9784493,-4.720623,0.97712445,-5.1441507
1.114,7.2083325,9.9218645,-4.990916,-4.747629,0.9674701,-5.1204095
1.116,7.1867766,9.989984,-4.9978337,-4.7743044,0.955935,-5.097408
1.118,7.1748962,10.056431,-5.000224,-4.8002486,0.94262385,-5.0754724
1.12,7.1693144,10.121682,-4.9989843,-4.825043,0.92780256,-5.054871
1.122,7.1665597,10.186046,-4.9949894,-4.848253,0.9118591,-5.035765
1.124,7.162963,10.249936,-4.9893646,-4.8694963,0.89523005,-5.0182357
1.126,7.1546803,10.31389,-4.983873,-4.888438,0.8783487,-5.002259
1.128,7.1381073,10.378242,-4.9799643,-4.9047904,0.86168474,-4.987788
1.13,7.1096735,10.44328,-4.97948,-4.9183807,0.8456255,-4.9747424
1.132,7.06657,10.509325,-4.984559,-4.92916,0.8305145,-4.9629426
1.134,7.004735,10.577618,-4.996189,-4.937118,0.81664675,-4.95219
1.136,6.9230595,10.647789,-5.016698,-4.9423466,0.80422467,-4.9423065
1.138,6.8191843,10.720312,-5.0479245,-4.945003,0.7934303,-4.9331465
1.14,6.691764,10.795677,-5.0914855,-4.9452868,0.78442645,-4.924584
1.142,6.5401297,10.874091,-5.1491327,-4.9434423,0.77735114,-4.916524
1.144,6.364269,10.955783,-5.222452,-4.939712,0.77233434,-4.908908
1.146,6.164834,11.041009,-5.3126407,-4.9343324,0.7695005,-4.901711
1.148,5.942949,11.129697,-5.4210715,-4.927566,0.769002,-4.894902
1.15,5.7001143,11.221777,-5.548914,-4.9196444,0.77102196,-4.8884454
1.152,5.438402,11.317335,-5.697159,-4.910808,0.7757853,-4.8822966
1.154,5.160494,11.416285,-5.8662243,-4.9012737,0.7835263,-4.8763986
1.156,4.869285,11.518377,-6.0565186,-4.891205,0.79447865,-4.8706427
1.158,4.5679955,11.623546,-6.267865,-4.8807554,0.8088846,-4.8649254
1.16,4.2597227,11.731974,-6.4999857,-4.8700657,0.8269385,-4.85915
1.162,3.9483504,11.842714,-6.7523375,-4.859204,0.84881586,-4.853241
1.164,3.6366973,11.956093,-7.023432,-4.848187,0.8746507,-4.847204
1.166,3.3285542,12.071772,-7.3116875,-4.837038,0.9044121,-4.8410635
1.168,3.0269022,12.189632,-7.6156263,-4.825795,0.9379011,-4.8348837
1.17,2.7345572,12.309607,-7.9335256,-4.8144655,0.9748614,-4.8288136
1.172,2.4541492,12.431458,-8.263847,-4.8030252,1.0149032,-4.823073
1.174,2.1878986,12.554894,-8.604731,-4.7914257,1.0575132,-4.8179426
1.176,1.9376993,12.679938,-8.953728,-4.779563,1.1020833,-4.8137445
1.178,1.7047892,12.806597,-9.308737,-4.767278,1.1479847,-4.8108025
1.18,1.4904895,12.934742,-9.667391,-4.7544003,1.1945195,-4.809467
1.182,1.2954578,13.064001,-10.027878,-4.7407084,1.2409306,-4.810035
1.184,1.1189365,13.194772,-10.388434,-4.7259445,1.2864647,-4.8127775
1.186,0.96075296,13.326422,-10.74878,-4.709852,1.3303543,-4.817958
1.188,0.8208008,13.457739,-11.107095,-4.69225,1.371793,-4.825755
1.19,0.6984577,13.590346,-11.4593525,-4.6729794,1.4100134,-4.8362565
1.192,0.5913534,13.724476,-11.805283,-4.6519504,1.4442627,-4.8494596
1.194,0.49818993,13.858583,-12.144526,-4.6291428,1.4737942,-4.86529
1.196,0.41729736,13.992621,-12.476925,-4.604567,1.4979539,-4.8836493
1.198,0.3463583,14.127085,-12.803303,-4.5782766,1.5161533,-4.904415
1.2,0.2833271,14.261882,-13.124102,-4.5502996,1.5279425,-4.9274416
1.202,0.22564793,14.396724,-13.439749,-4.520612,1.5330346,-4.9526167
1.204,0.17042828,14.531446,-13.750336,-4.4891286,1.5313098,-4.9798436
1.206,0.115270615,14.6657915,-14.056769,-4.45571,1.5228794,-5.009058
1.208,0.057857513,14.799656,-14.360362,-4.420158,1.5080192,-5.0401726
1.21,-0.0041484833,14.9332695,-14.662289,-4.382213,1.4872522,-5.073106
1.212,-0.07291031,15.066345,-14.964231,-4.34153,1.4612384,-5.1077356
1.214,-0.15037918,15.198438,-15.267908,-4.2977176,1.4308243,-5.143904
1.216,-0.23839664,15.329146,-15.574423,-4.2504387,1.3968878,-5.181348
1.218,-0.33857822,15.458213,-15.884963,-4.199432,1.3602288,-5.2196274
1.22,-0.45214176,15.585269,-16.200417,-4.144326,1.3219105,-5.2583466
1.222,-0.5795193,15.7097435,-16.521465,-4.0848093,1.2830083,-5.29708
1.224,-0.72075176,15.8308525,-16.848484,-4.020743,1.2443888,-5.3351684
1.226,-0.87526035,15.947547,-17.181929,-3.951977,1.2069635,-5.3718038
1.228,-1.0425348,16.058968,-17.522036,-3.8783689,1.1716033,-5.4061856
1.23,-1.2211761,16.163857,-17.869015,-3.7999115,1.1390462,-5.437543
1.232,-1.4092121,16.260983,-18.222263,-3.716688,1.109929,-5.4651113
1.234,-1.6044998,16.349218,-18.580917,-3.62882,1.0848398,-5.4881625
1.236,-1.8041687,16.427069,-18.943636,-3.536467,1.0642054,-5.506034
1.238,-2.0048723,16.493382,-19.309166,-3.4398305,1.0482359,-5.5181756
1.24,-2.2030964,16.54696,-19.676212,-3.3391466,1.0368875,-5.524211
1.242,-2.3958683,16.586739,-20.04357,-3.2346208,1.0298347,-5.523941
1.244,-2.5784054,16.61131,-20.410822,-3.1264791,1.0264292,-5.517336
1.246,-2.7487078,16.620892,-20.776205,-3.01495,1.0257225,-5.5045714
1.248,-2.9028397,16.614815,-21.13863,-2.90029,1.0264596,-5.4859495
1.25,-3.0378132,16.592453,-21.497643,-2.7828057,1.0271022,-5.4618287
1.252,-3.1506348,16.553522,-21.851837,-2.6628382,1.0259756,-5.432641
1.254,-3.238368,16.498383,-22.199526,-2.5408285,1.0212581,-5.3988056
1.256,-3.2989645,16.427551,-22.539473,-2.417293,1.011118,-5.3606954
1.258,-3.3305168,16.341623,-22.870287,-2.2928557,0.99375594,-5.3185925
1.26,-3.33144,16.241364,-23.191236,-2.168207,0.9674819,-5.2726803
1.262,-3.3005953,16.127842,-23.501726,-2.0440943,0.9307879,-5.223051
1.264,-3.2373457,16.00256,-23.80128,-1.9213029,0.88236827,-5.169752
1.266,-3.1415348,15.867062,-24.089584,-1.8006008,0.8211489,-5.1128407
1.268,-3.0136204,15.723095,-24.366346,-1.6826935,0.7463376,-5.052444
1.27,-2.8542166,15.572204,-24.631428,-1.5681453,0.65746474,-4.988806
1.272,-2.6654453,15.417103,-24.884596,-1.4573519,0.55442584,-4.9223237
1.274,-2.4482574,15.259167,-25.125645,-1.350641,0.43728232,-4.853461
1.276,-2.2054987,15.100661,-25.35443,-1.2480861,0.3065498,-4.7828417
1.278,-1.9395051,14.943808,-25.571033,-1.1495173,0.16315687,-4.7113357
1.28,-1.6531677,14.790558,-25.775389,-1.0546937,0.00824137,-4.63985
1.282,-1.3497777,14.642747,-25.967545,-0.9632207,-0.1568116,-4.569204
1.284,-1.0328355,14.502248,-26.147512,-0.8744937,-0.3304345,-4.500179
1.286,-0.70605373,14.370607,-26.315508,-0.7878602,-0.5110743,-4.4335465
1.288,-0.37314415,14.249271,-26.47146,-0.7027183,-0.69730234,-4.369963
1.29,-0.038021088,14.139305,-26.615713,-0.6185088,-0.88784707,-4.3099613
1.292,0.29536533,14.041843,-26.748264,-0.5347594,-1.0816805,-4.2539
1.294,0.6238408,13.957417,-26.869007,-0.45116422,-1.2780602,-4.2018957
1.296,0.94341373,13.887015,-26.97688,-0.36758336,-1.476538,-4.1539073
1.298,1.2499743,13.831743,-27.072636,-0.2840385,-1.6768475,-4.109725
1.3,1.5401058,13.789703,-27.15884,-0.20065808,-1.8788545,-4.06897
1.302,1.8117852,13.760781,-27.234299,-0.117684245,-2.082455,-4.031146
1.304,2.062162,13.745945,-27.29852,-0.03539461,-2.2874682,-3.9956436
1.306,2.289103,13.744311,-27.350895,0.04592675,-2.4936297,-3.9617808
1.308,2.4913607,13.754361,-27.391338,0.12606615,-2.700511,-3.9288778
1.31,2.6684961,13.774914,-27.419685,0.2048595,-2.9075394,-3.8962936
1.312,2.820475,13.8052435,-27.436028,0.28225464,-3.1140206,-3.863442
1.314,2.9475698,13.843902,-27.441486,0.35828286,-3.319213,-3.8298197
1.316,3.0512962,13.889812,-27.435303,0.43306357,-3.522297,-3.7950168
1.318,3.1322346,13.941941,-27.417933,0.5067736,-3.7224674,-3.7587018
1.32,3.1924925,13.998708,-27.389044,0.57963216,-3.918933,-3.720623
1.322,3.234623,14.058971,-27.348408,0.65185416,-4.110962,-3.6806176
1.324,3.2609134,14.12179,-27.29633,0.7236476,-4.297858,-3.6386313
1.326,3.2745209,14.1861,-27.232882,0.7951937,-4.478964,-3.5947125
1.328,3.278534,14.251039,-27.158136,0.8666476,-4.6537085,-3.5489895
1.33,3.2757163,14.315987,-27.072268,0.93809414,-4.8216076,-3.5016623
1.332,3.26862,14.380616,-26.975348,1.0095693,-4.982257,-3.4530616
1.334,3.2597504,14.445086,-26.867569,1.0810761,-5.135335,-3.4036307
1.336,3.2512412,14.509659,-26.749046,1.152577,-5.2806005,-3.3539033
1.338,3.2455812,14.57459,-26.62021,1.2239636,-5.4179196,-3.3044615
1.34,3.2446265,14.640531,-26.4813,1.295091,-5.5472403,-3.255944
1.342,3.2495508,14.708511,-26.332714,1.3657902,-5.668529,-3.2090824
1.344,3.261414,14.779438,-26.17495,1.4357725,-5.7818503,-3.1645937
1.346,3.2805443,14.854586,-26.008522,1.504728,-5.887247,-3.1231854
1.348,3.3067813,14.935182,-25.834003,1.5723729,-5.9847884,-3.0856383
1.35,3.3406668,15.024573,-25.65034,1.6383682,-6.074591,-3.052669
1.352,3.3806257,15.119065,-25.460938,1.702408,-6.1567492,-3.0249634
1.354,3.4266062,15.221604,-25.263752,1.7642169,-6.231328,-3.0032294
1.356,3.476348,15.334734,-25.059092,1.8235567,-6.298353,-2.9881454
1.358,3.5293703,15.459131,-24.848486,1.8802319,-6.3577943,-2.9803407
1.36,3.5843048,15.595321,-24.631,1.9341168,-6.4095592,-2.98035
1.362,3.6386764,15.744066,-24.406458,1.9851336,-6.4534974,-2.9885707
1.364,3.6903906,15.905328,-24.175793,2.0332952,-6.489427,-3.00528
1.366,3.7378826,16.079348,-23.938805,2.0786314,-6.517147,-3.030645
1.368,3.7791913,16.266302,-23.695492,2.1212213,-6.536445,-3.0647323
1.37,3.8123965,16.46598,-23.445347,2.1611547,-6.5470977,-3.1074793
1.372,3.8358195,16.677822,-23.187967,2.1985602,-6.5488706,-3.1587377
1.374,3.8478444,16.901003,-22.922966,2.2335997,-6.5414896,-3.2183337
1.376,3.8472893,17.134596,-22.649261,2.266461,-6.5246263,-3.2860608
1.378,3.8335717,17.377375,-22.365818,2.2973137,-6.497919,-3.3617465
1.38,3.8062792,17.628017,-22.07161,2.326414,-6.460602,-3.4454641
1.382,3.765737,17.88492,-21.765537,2.3539164,-6.412304,-3.5370102
1.384,3.712415,18.146503,-21.446743,2.37999,-6.352357,-3.635919
1.386,3.6474748,18.411394,-21.114141,2.4048607,-6.279776,-3.7420597
1.388,3.5719075,18.678036,-20.767815,2.4286814,-6.193633,-3.8553038
1.39,3.4880393,18.944914,-20.407513,2.4515488,-6.0930223,-3.9754515
1.392,3.3974743,19.211472,-20.03223,2.4736202,-5.9769135,-4.1022224
1.394,3.3022945,19.47644,-19.642227,2.4950523,-5.8442698,-4.2353067
1.396,3.204998,19.738808,-19.237747,2.5159714,-5.694206,-4.3744
1.398,3.1082134,19.998032,-18.81918,2.536534,-5.5259037,-4.519239
1.4,3.0146158,20.253883,-18.387068,2.5568829,-5.3386855,-4.6695633
1.402,2.9274998,20.506248,-17.942205,2.5771549,-5.13202,-4.825115
1.404,2.8501616,20.755293,-17.485596,2.59754,-4.905448,-4.9857774
1.406,2.7857447,21.00137,-17.018654,2.618223,-4.658613,-5.1515465
1.408,2.7374055,21.24506,-16.543512,2.6393943,-4.3911943,-5.322474
1.41,2.7082691,21.487356,-16.062592,2.6612637,-4.1028967,-5.498701
1.412,2.7015157,21.729744,-15.578884,2.684055,-3.793416,-5.6804
1.414,2.7201397,21.973713,-15.0957155,2.7080011,-3.4624996,-5.8677363
1.416,2.7674537,22.22088,-14.616644,2.7333605,-3.1099586,-6.060825
1.418,2.8464568,22.47324,-14.144399,2.760383,-2.7357407,-6.259645
1.42,2.9596214,22.732855,-13.682777,2.7893155,-2.3399317,-6.464055
1.422,3.1098857,23.001148,-13.235468,2.8204157,-1.922759,-6.673811
1.424,3.3004222,23.280087,-12.805426,2.8539214,-1.484668,-6.88855
1.426,3.5331326,23.571033,-12.396898,2.8899925,-1.0262976,-7.107732
1.428,3.8106947,23.875843,-12.013411,2.928785,-0.5484059,-7.330726
1.43,4.135013,24.195942,-11.659915,2.9704509,-0.051892996,-7.5568256
1.432,4.508989,24.532322,-11.337812,3.0151107,0.46221876,-7.785197
1.434,4.934889,24.885296,-11.047813,3.0628417,0.99265075,-8.014832
1.436,5.413077,25.256157,-10.794744,3.1138482,1.5384777,-8.245
1.438,5.9444127,25.64542,-10.582115,3.1683135,2.0983176,-8.474965
1.44,6.5306153,26.052502,-10.41172,3.226389,2.6705074,-8.703485
1.442,7.1723156,26.476776,-10.284233,3.2883458,3.253442,-8.929454
1.444,7.8698697,26.917221,-10.199726,3.3544817,3.8453987,-9.151936
1.446,8.622973,27.372675,-10.158537,3.4250438,4.444436,-9.370132
1.448,9.431377,27.841373,-10.160042,3.500268,5.048582,-9.583337
1.45,10.29424,28.321354,-10.20348,3.5804033,5.6559057,-9.790951
1.452,11.209911,28.810558,-10.2876835,3.6656613,6.264532,-9.992477
1.454,12.176396,29.30642,-10.410944,3.756202,6.872691,-10.187493
1.456,13.191422,29.80632,-10.57136,3.8521328,7.478753,-10.375558
1.458,14.252137,30.307644,-10.766638,3.9535098,8.081238,-10.556177
1.46,15.35412,30.80628,-10.995197,4.0603094,8.678705,-10.728764
1.462,16.494968,31.30391,-11.251015,4.172376,9.270047,-10.892611
1.464,17.668877,31.794842,-11.533899,4.28956,9.854365,-11.046818
1.466,18.872038,32.27466,-11.84016,4.4117193,10.430804,-11.190337
1.468,20.097977,32.74131,-12.165082,4.5386333,10.998592,-11.322067
1.47,21.341175,33.19249,-12.505862,4.670031,11.557116,-11.4408245
1.472,22.596527,33.62541,-12.8593,4.80565,12.105915,-11.545288
1.474,23.858105,34.037273,-13.221778,4.9451747,12.644562,-11.634068
1.476,25.120129,34.425014,-13.58998,5.0882673,13.172593,-11.705747
1.478,26.377266,34.785828,-13.960528,5.2345834,13.689499,-11.759024
1.48,27.624836,35.117294,-14.330049,5.3837633,14.194607,-11.792685
1.482,28.858164,35.41683,-14.695919,5.5353,14.687035,-11.805585
1.484,30.073154,35.682304,-15.055154,5.6885667,15.165762,-11.796797
1.486,31.266716,35.9113,-15.405777,5.842821,15.629709,-11.76555
1.488,32.43632,36.101562,-15.746113,5.997095,16.07777,-11.711254
1.49,33.580067,36.25138,-16.074318,6.15023,16.508966,-11.633585
1.492,34.696964,36.35908,-16.388847,6.300902,16.92263,-11.532471
1.494,35.78682,36.423355,-16.688053,6.447672,17.318394,-11.408031
1.496,36.850204,36.442886,-16.970512,6.588994,17.696293,-11.260621
1.498,37.888725,36.416977,-17.233952,6.7232866,18.05675,-11.09076
1.5,38.904507,36.345116,-17.47728,6.848979,18.400442,-10.899236
1.502,39.901573,36.226425,-17.7,6.9645076,18.728212,-10.687018
1.504,40.88431,36.061043,-17.901066,7.06833,19.040945,-10.45538
1.506,41.857693,35.849064,-18.080002,7.158919,19.339333,-10.205741
1.508,42.82807,35.590878,-18.23661,7.2347393,19.623867,-9.939764
1.51,43.802765,35.287083,-18.3708,7.294235,19.894804,-9.659244
1.512,44.789192,34.938454,-18.482529,7.3358126,20.15217,-9.366043
1.514,45.79605,34.54583,-18.571777,7.3578534,20.39584,-9.06212
1.516,46.83245,34.110374,-18.638132,7.358752,20.625463,-8.749342
1.518,47.90844,33.63357,-18.681437,7.3368073,20.840752,-8.429474
1.52,49.033993,33.116787,-18.701408,7.2903633,21.041693,-8.10404
1.522,50.219574,32.561462,-18.69814,7.2179184,21.228533,-7.774212
1.524,51.475315,31.969517,-18.672668,7.118112,21.40166,-7.4409027
1.526,52.81301,31.34279,-18.626497,6.989774,21.561733,-7.10475
1.528,54.244583,30.683182,-18.561079,6.8319616,21.709702,-6.7661095
1.53,55.782143,29.993916,-18.47857,6.643951,21.846752,-6.4250555
1.532,57.439037,29.277973,-18.381716,6.4252234,21.974283,-6.081457
1.534,59.229965,28.537218,-18.273355,6.1754804,22.093822,-5.7349873
1.536,61.168137,27.77537,-18.156755,5.8946548,22.206861,-5.385192
1.538,63.268036,26.998327,-18.03557,5.5828447,22.31489,-5.03143
1.54,65.54261,26.215641,-17.913864,5.240353,22.4194,-4.673096
1.542,68.00078,25.441319,-17.8016,4.8676476,22.521772,-4.3095703
1.544,70.653076,24.69249,-17.713451,4.465217,22.623184,-3.940105
1.546,73.50648,23.991589,-17.66142,4.033564,22.724546,-3.5638442
1.548,76.56369,23.350805,-17.649628,3.5731988,22.826609,-3.1797786
1.55,79.82406,22.774591,-17.679802,3.0845113,22.929924,-2.7868075
1.552,83.28395,22.27939,-17.7584,2.5677962,23.034756,-2.3837206
1.554,86.92685,21.899967,-17.87642,2.0233474,23.14141,-1.9691269
1.556,90.74813,21.666512,-18.03389,1.4514074,23.250147,-1.5414548
1.558,94.74027,21.626188,-18.24276,0.85215616,23.361185,-1.0988827
1.56,98.90111,21.806444,-18.517235,0.22585082,23.474957,-0.639446
1.562,103.21616,22.254585,-18.877003,-0.4271946,23.591967,-0.16115594
1.564,107.67607,23.006065,-19.337132,-1.1067841,23.712648,0.33830094
1.566,112.2771,24.079288,-19.910177,-1.8125771,23.837572,0.86171454
1.568,116.98472,25.532558,-20.593351,-2.5439587,23.96719,1.411978
1.57,121.776306,27.41771,-21.370481,-3.3003013,24.101152,1.9919147
1.572,126.64784,29.716442,-22.210697,-4.080761,24.238293,2.603877
1.574,131.6058,32.441525,-23.179647,-4.8844423,24.375898,3.2492576
1.576,136.62987,35.619717,-24.33432,-5.711232,24.50751,3.9279857
1.578,141.65483,39.334064,-25.704449,-6.5623407,24.623028,4.6394453
1.58,146.66359,43.614906,-27.211557,-7.439595,24.710188,5.3829255
1.582,151.66574,48.56148,-28.786415,-8.344539,24.75271,6.1563563
1.584,156.62729,54.098137,-30.443735,-9.279459,24.72898,6.9558144
1.586,161.53706,60.195267,-32.167244,-10.246999,24.614862,7.7763777
1.588,166.3869,66.797134,-33.87342,-11.250103,24.382599,8.61236
1.59,171.18805,73.874664,-35.544106,-12.292063,24.000046,9.4593315
1.592,175.96092,81.388885,-37.168663,-13.376795,23.43229,10.314054
1.594,180.72491,89.259094,-38.661182,-14.508281,22.644905,11.177076
1.596,185.50674,97.39397,-39.951332,-15.690054,21.607769,12.05526
1.598,190.34627,105.716194,-41.002876,-16.9225,20.296917,12.962647
1.6,195.28622,114.13095,-41.76243,-18.203672,18.69358,13.921325
1.602,200.36978,122.532555,-42.166107,-19.528353,16.787556,14.968319
1.604,205.63461,130.81308,-42.149815,-20.88332,14.584058,16.147724
1.606,211.02725,138.89,-41.650124,-22.251232,12.107611,17.48975
1.608,216.5458,146.6605,-40.59696,-23.616728,9.387367,19.033838
1.61,222.1675,153.95773,-38.91175,-24.978071,6.4624176,20.81049
1.612,227.8129,160.56952,-36.515648,-26.34969,3.3688793,22.829468
1.614,233.58867,166.28506,-33.366394,-27.73844,0.13761425,25.079575
1.616,239.4433,171.19427,-29.383251,-29.140533,-3.2008104,27.529976
1.618,245.27725,175.24614,-24.495327,-30.554352,-6.5938063,30.11341
1.62,251.00237,178.34323,-18.675945,-32.002274,-9.981494,32.72909
1.622,256.5237,180.41507,-11.921822,-33.52415,-13.340464,35.27361
1.624,261.7391,181.41061,-4.2341566,-35.14699,-16.642525,37.62157
1.626,266.5108,181.31664,4.365125,-36.883827,-19.88039,39.620476
1.628,270.6787,180.16104,13.821483,-38.723343,-23.064522,41.102596
1.63,274.0811,178.00424,24.049236,-40.62414,-26.21505,41.898365
1.632,276.5809,174.91698,34.934895,-42.509174,-29.359276,41.85468
1.634,278.07364,170.95187,46.334953,-44.26724,-32.525093,40.853928
1.636,278.45316,166.17636,58.090347,-45.761154,-35.726414,38.82727
1.638,277.61673,160.70782,70.02983,-46.832138,-38.941944,35.76396
1.64,275.48724,154.68118,81.9697,-47.319645,-42.113647,31.703575
1.642,272.03015,148.22365,93.68587,-47.082916,-45.135216,26.755318
1.644,267.24158,141.45296,104.94192,-46.007587,-47.882618,21.1177
1.646,261.14014,134.4968,115.51842,-44.024563,-50.21186,14.994989
1.648,253.78708,127.48622,125.204254,-41.124928,-51.973804,8.592836
1.65,245.28824,120.554985,133.79845,-37.359463,-53.03252,2.1433296
1.652,235.78632,113.83545,141.12166,-32.835136,-53.27622,-4.1023407
1.654,225.44557,107.46086,147.02628,-27.705091,-52.630726,-9.88732
1.656,214.45317,101.55891,151.39685,-22.157774,-51.0681,-14.968977
1.658,203.00934,96.251434,154.14705,-16.404552,-48.611164,-19.12877
1.66,191.31805,91.63617,155.2318,-10.658516,-45.330124,-22.182362
1.662,179.58199,87.77162,154.65356,-5.1177826,-41.326748,-24.024487
1.664,168.00125,84.6851,152.44766,0.04883766,-36.739666,-24.621899
1.666,156.74628,82.39692,148.7055,4.705532,-31.727438,-24.021196
1.668,145.9707,80.89554,143.56572,8.738726,-26.465378,-22.362547
1.67,135.79945,80.171684,137.19608,12.072759,-21.141937,-19.87181
1.672,126.34255,80.176605,129.78835,14.688305,-15.957069,-16.823175
1.674,117.67389,80.85623,121.54263,16.628891,-11.091134,-13.516946
1.676,109.83362,82.14951,112.665245,17.97636,-6.6718974,-10.263641
1.678,102.85908,83.9408,103.351974,18.821075,-2.816091,-7.321929
1.68,96.74123,86.11711,93.78979,19.265848,0.40465832,-4.876937
1.682,91.43042,88.6144,84.15349,19.416374,2.9583464,-3.0425153
1.684,86.85613,91.31378,74.68801,19.375708,4.8499184,-1.8677828
1.686,82.96206,94.07876,65.579315,19.235916,6.122365,-1.3511553
1.688,79.710915,96.735016,56.948235,19.072464,6.8524737,-1.4521446
1.69,77.00117,99.18108,48.802956,18.9421,7.141574,-2.0953624
1.692,74.713264,101.27129,41.17487,18.87758,7.0999665,-3.1777258
1.694,72.77795,103.034485,34.16033,18.894644,6.844573,-4.5711603
1.696,71.1062,104.42868,27.790506,18.997349,6.484892,-6.1504083
1.698,69.618614,105.4306,22.023016,19.173023,6.1344604,-7.8070545
1.7,68.234024,105.99167,16.873032,19.404964,5.8806934,-9.391559
1.702,66.884636,106.08562,12.338478,19.678764,5.7808065,-10.763575
1.704,65.52376,105.73096,8.336672,19.97895,5.8637133,-11.836317
1.706,64.11515,104.952286,4.8126736,20.2896,6.130027,-12.567447
1.708,62.62719,103.76257,1.7420235,20.595959,6.560191,-12.948797
1.71,61.043243,102.19737,-0.92310905,20.884962,7.117819,-12.99852
1.712,59.35745,100.304634,-3.2380085,21.144241,7.755439,-12.7536125
1.714,57.575592,98.134636,-5.252533,21.361317,8.421826,-12.2635565
1.716,55.774647,95.72042,-7.0100956,21.52453,9.068825,-11.584571
1.718,53.953747,93.12407,-8.554264,21.623964,9.655775,-10.773945
1.72,52.12091,90.45854,-9.927755,21.650648,10.149701,-9.881049
1.722,50.313778,87.84488,-11.16399,21.596613,10.526142,-8.93918
1.724,48.3966,85.36411,-12.261723,21.456789,10.76906,-7.9677997
1.726,46.410378,82.838974,-13.259144,21.22963,10.869564,-6.97883
1.728,44.411266,80.301704,-14.178711,20.917542,10.829291,-5.9800267
1.73,42.415005,77.835075,-15.006708,20.525873,10.659007,-4.978517
1.732,40.428154,75.4892,-15.728321,20.062355,10.374174,-3.9821725
1.734,38.455112,73.29766,-16.34702,19.538113,9.993814,-2.9986858
1.736,36.523697,71.267006,-16.866404,18.96665,9.539635,-2.0351248
1.738,34.666973,69.38512,-17.282993,18.362314,9.034525,-1.0966773
1.74,32.906273,67.636314,-17.592003,17.739197,8.50145,-0.18572712
1.742,31.237698,66.021126,-17.79282,17.11118,7.962158,0.6966338
1.744,29.641985,64.56997,-17.886267,16.491295,7.435809,1.5472522
1.746,28.12334,63.300415,-17.885445,15.890912,6.93826,2.3608642
1.748,26.700256,62.191284,-17.81128,15.318931,6.4818172,3.1325083
1.75,25.384796,61.221657,-17.684284,14.781425,6.0747557,3.858931
1.752,24.172316,60.391632,-17.4987,14.281832,5.721211,4.5383554
1.754,23.06035,59.710968,-17.25251,13.821068,5.4212847,5.1699324
1.756,22.055897,59.17325,-16.96399,13.397915,5.1717787,5.7533107
1.758,21.152466,58.765675,-16.64977,13.009516,4.9669914,6.2883234
1.76,20.334488,58.4693,-16.320923,12.651789,4.79957,6.77479
1.762,19.585285,58.263,-15.986845,12.31992,4.661383,7.2125597
1.764,18.894363,58.12339,-15.65707,12.008802,4.544413,7.601727
1.766,18.253647,58.02776,-15.340573,11.71343,4.4414315,7.942738
1.768,17.656807,57.965176,-15.045816,11.429074,4.346309,8.236613
1.77,17.100536,57.937515,-14.779063,11.151453,4.2542777,8.485198
1.772,16.582,57.94912,-14.543785,10.876929,4.1619034,8.691138
1.774,16.099482,57.99731,-14.342472,10.602555,4.0668864,8.857762
1.776,15.64989,58.074974,-14.17762,10.326133,3.9677937,8.988867
1.778,15.229238,58.17466,-14.05007,10.046201,3.8636193,9.088475
1.78,14.834003,58.287903,-13.958385,9.761993,3.7535563,9.16069
1.782,14.460482,58.406803,-13.898901,9.47338,3.636733,9.20948
1.784,14.105374,58.52417,-13.866547,9.180811,3.512052,9.2385235
1.786,13.765853,58.6335,-13.855373,8.885172,3.37813,9.251089
1.788,13.439985,58.729027,-13.8585415,8.58768,3.2333822,9.249974
1.79,13.126582,58.80532,-13.868623,8.289824,3.076139,9.237516
1.792,12.824665,58.858414,-13.878596,7.993234,2.9047642,9.215582
1.794,12.533802,58.88488,-13.881983,7.699612,2.7178175,9.185656
1.796,12.253626,58.881775,-13.8723955,7.410698,2.5142562,9.148969
1.798,11.984233,58.847153,-13.843696,7.1282253,2.2935708,9.10659
1.8,11.7257595,58.779644,-13.789967,6.853882,2.0557926,9.059479
1.802,11.478538,58.678894,-13.705759,6.589251,1.8015445,9.008678
1.804,11.242591,58.544575,-13.58611,6.3357306,1.5319985,8.955369
1.806,11.017761,58.376106,-13.426094,6.0945325,1.2487307,8.9009285
1.808,10.803255,58.173973,-13.221366,5.866651,0.953638,8.846881
1.81,10.599144,57.938522,-12.96877,5.6527786,0.6487094,8.794821
1.812,10.405371,57.670357,-12.666777,5.453293,0.33582348,8.746305
1.814,10.221789,57.37002,-12.314343,5.2682567,0.01661931,8.702745
1.816,10.04809,57.038696,-11.911662,5.0974684,-0.307604,8.665303
1.818,9.884144,56.677383,-11.459563,4.9404783,-0.63603437,8.63471
1.82,9.729832,56.286938,-10.959203,4.796651,-0.9683435,8.611207
1.822,9.585283,55.868355,-10.41199,4.665224,-1.3046,8.59457
1.824,9.451285,55.42226,-9.819859,4.545418,-1.6451476,8.584002
1.826,9.328474,54.948902,-9.185434,4.4364867,-1.9904476,8.578211
1.828,9.217493,54.448143,-8.511591,4.337781,-2.340893,8.575483
1.83,9.118516,53.919662,-7.8016305,4.248775,-2.6966286,8.573796
1.832,9.03169,53.362965,-7.059198,4.1690807,-3.057372,8.570934
1.834,8.956861,52.777386,-6.28749,4.098447,-3.4223313,8.564572
1.836,8.893802,52.162357,-5.4898863,4.036713,-3.7901561,8.5523815
1.838,8.842264,51.517338,-4.6698723,3.9837236,-4.1589565,8.532165
1.84,8.802095,50.841618,-3.83103,3.939287,-4.5263805,8.501934
1.842,8.772687,50.134693,-2.9772005,3.9031534,-4.8897214,8.459862
1.844,8.752955,49.39593,-2.1112394,3.8749156,-5.2461095,8.404378
1.846,8.741406,48.6249,-1.2360268,3.853986,-5.5926795,8.334248
1.848,8.736283,47.821465,-0.35399532,3.8395956,-5.9266486,8.24856
1.85,8.73568,46.98604,0.53229046,3.8307843,-6.245489,8.14677
1.852,8.737769,46.119286,1.4205313,3.8264356,-6.547016,8.028694
1.854,8.74045,45.222298,2.308548,3.8253171,-6.8294253,7.8945203
1.856,8.741175,44.296547,3.1944485,3.826097,-7.091388,7.7448106
1.858,8.7376175,43.34404,4.0765247,3.8274264,-7.3320208,7.580497
1.86,8.727017,42.36728,4.953335,3.827987,-7.550848,7.4028463
1.862,8.707007,41.36905,5.823559,3.826566,-7.74778,7.2134333
1.864,8.675133,40.352383,6.686213,3.8221226,-7.9230103,7.014065
1.866,8.62934,39.320564,7.540154,3.8138666,-8.076883,6.806621
1.868,8.56761,38.277084,8.384431,3.8012917,-8.209839,6.5930157
1.87,8.4883,37.22534,9.218,3.7842255,-8.322302,6.375105
1.872,8.390338,36.168518,10.039614,3.7628646,-8.414576,6.154701
1.874,8.273052,35.109676,10.848028,3.737761,-8.4868145,5.9334574
1.876,8.135657,34.051907,11.641708,3.7097907,-8.539017,5.712883
1.878,7.97843,32.997746,12.419068,3.6801028,-8.571004,5.494405
1.88,7.8013725,31.94992,13.178165,3.6500323,-8.582458,5.2793036
1.882,7.6052866,30.910595,13.916847,3.621026,-8.572964,5.0687633
1.884,7.391114,29.881752,14.632875,3.59449,-8.542077,4.8639154
1.886,7.160095,28.865242,15.32384,3.5717142,-8.489443,4.6658545
1.888,6.9137383,27.862423,15.98733,3.5537314,-8.41483,4.4756155
1.89,6.653865,26.87482,16.621044,3.5412736,-8.318236,4.2941422
1.892,6.3821106,25.90345,17.222885,3.534709,-8.199911,4.1222544
1.894,6.1003156,24.94925,17.791142,3.5340233,-8.060436,3.9606323
1.896,5.8102407,24.012928,18.32439,3.5387769,-7.900717,3.8098187
1.898,5.5138073,23.094893,18.821619,3.548182,-7.7219715,3.6700969
1.9,5.213129,22.195358,19.282175,3.561131,-7.5257587,3.5414934
1.902,4.9101634,21.314533,19.706154,3.5762892,-7.313947,3.4238205
1.904,4.606715,20.45231,20.094286,3.5921855,-7.0886283,3.3166478
1.906,4.304839,19.608507,20.447649,3.6072884,-6.8520365,3.2193236
1.908,4.00627,18.78289,20.767826,3.620109,-6.6064267,3.1309729
1.91,3.7129107,17.97488,21.056786,3.629304,-6.3539977,3.0505002
1.912,3.4261453,17.183828,21.316969,3.6337192,-6.0967236,2.9766462
1.914,3.1474242,16.40907,21.55085,3.63247,-5.836282,2.908025
1.916,2.8779826,15.649937,21.761097,3.624986,-5.5740056,2.8431797
1.918,2.6193342,14.905327,21.950188,3.6110132,-5.3108315,2.7806435
1.92,2.3717518,14.174383,22.120787,3.590626,-5.047271,2.7190397
1.922,2.1361418,13.456538,22.27554,3.5642192,-4.7834196,2.6571023
1.924,1.9130758,12.750978,22.416395,3.532418,-4.5190105,2.5937614
1.926,1.7029262,12.057121,22.545033,3.496022,-4.253467,2.5281682
1.928,1.5057878,11.374662,22.662987,3.4559329,-3.98599,2.4597504
1.93,1.3212019,10.703426,22.77111,3.4130647,-3.7156417,2.3882046
1.932,1.1487976,10.043392,22.869995,3.368246,-3.4414499,2.313486
1.934,0.987991,9.394868,22.959747,3.3221653,-3.1624885,2.2358303
1.936,0.8377615,8.75859,23.03983,3.2753098,-2.8779411,2.1556957
1.938,0.6973187,8.135474,23.109451,3.2279441,-2.5871508,2.0737257
1.94,0.5659634,7.526575,23.167248,3.1800725,-2.289674,1.9906912
1.942,0.44288483,6.9331465,23.211533,3.1314285,-1.985345,1.9075013
1.944,0.32704985,6.356579,23.240204,3.081476,-1.6742985,1.8251286
1.946,0.2178764,5.798291,23.251171,3.0294557,-1.3569928,1.7445488
1.948,0.11444884,5.2600574,23.242395,2.974397,-1.0342618,1.6666949
1.95,0.015965119,4.7436047,23.211718,2.915201,-0.70729274,1.5923932
1.952,-0.078438915,4.250593,23.157368,2.8507056,-0.37757224,1.5222677
1.954,-0.1693582,3.7826853,23.077454,2.779765,-0.046886146,1.4566164
1.956,-0.25749016,3.3412752,22.970715,2.70131,0.28270358,1.3953639
1.958,-0.34316367,2.9276066,22.835922,2.6144223,0.6089341,1.3380541
1.96,-0.42676744,2.5426397,22.672436,2.5183744,0.9294091,1.2838314
1.962,-0.5086411,2.1870012,22.480062,2.4126332,1.2416613,1.2315439
1.964,-0.58890325,1.8613434,22.259216,2.2968752,1.5432684,1.1798335
1.966,-0.6674907,1.5658121,22.01067,2.1709805,1.831851,1.1272004
1.968,-0.74443036,1.3004398,21.73574,2.0349844,2.1052165,1.0721734
1.97,-0.81925607,1.0649576,21.436203,1.8890634,2.3614404,1.0134194
1.972,-0.89144874,0.8586359,21.114075,1.7335154,2.5989292,0.949824
1.974,-0.96065736,0.68082905,20.771667,1.568732,2.8164673,0.88054276
1.976,-1.0262293,0.53052235,20.411758,1.3951744,3.0132363,0.8049931
1.978,-1.0875591,0.40660763,20.037106,1.2134163,3.1888545,0.72288215
1.98,-1.1438092,0.3079071,19.650831,1.0241013,3.34337,0.6341669
1.982,-1.1940074,0.23312378,19.255953,0.8279335,3.477226,0.5390299
1.984,-1.2373116,0.18084669,18.855402,0.62567216,3.5912225,0.43785238
1.986,-1.2722377,0.149611,18.451962,0.4181276,3.6864705,0.3311751
1.988,-1.2978854,0.13788176,18.047922,0.20611548,3.7642632,0.21968043
1.99,-1.3127943,0.14411879,17.645359,-0.009549551,3.8260434,0.10415578
1.992,-1.3157934,0.16668653,17.246124,-0.22805308,3.8733273,-0.014507532
1.994,-1.3058928,0.20431948,16.851566,-0.44860625,3.9076428,-0.1354059
1.996,-1.2817811,0.25549746,16.462835,-0.6704463,3.930479,-0.2576939
1.998,-1.242169,0.3188243,16.080421,-0.892868,3.9432216,-0.3806306
2,-1.1862555,0.39294672,15.704475,-1.1152498,3.9471307,-0.50361955
2.002,-1.1130542,0.47666168,15.334766,-1.3370415,3.9433143,-0.6262307
2.004,-1.0220422,0.56882334,14.970795,-1.5578129,3.9327197,-0.7482221
2.006,-0.91262394,0.6682906,14.611984,-1.7772603,3.9160647,-0.8695184
2.008,-0.78462553,0.77382517,14.257521,-1.995208,3.8938477,-0.99013627
2.01,-0.6380203,0.88430834,13.906516,-2.2116232,3.8663516,-1.1102028
2.012,-0.47322807,0.9985299,13.558016,-2.426608,3.8336103,-1.229905
2.014,-0.29109964,1.1154003,13.21125,-2.6403918,3.7954326,-1.3494111
2.016,-0.092749536,1.2338915,12.865437,-2.8532867,3.75146,-1.4689007
2.018,0.12073794,1.3528595,12.5202675,-3.0657015,3.7011755,-1.5885266
2.02,0.34776458,1.471241,12.175462,-3.2780952,3.6440258,-1.7083793
2.022,0.5869249,1.5879984,11.831005,-3.4909163,3.5794146,-1.8285112
2.024,0.8363409,1.7022018,11.487227,-3.7045853,3.5067668,-1.9489561
2.026,1.0941994,1.8130016,11.144676,-3.919466,3.4255788,-2.0696607
2.028,1.3585036,1.9196157,10.804156,-4.1358433,3.335512,-2.1905112
2.03,1.6273379,2.0213227,10.466752,-4.3538904,3.2364292,-2.3113112
2.032,1.8988438,2.1172388,10.133575,-4.573673,3.128419,-2.4317868
2.034,2.1712956,2.206982,9.80589,-4.795147,3.0118253,-2.5515614
2.036,2.442966,2.29004,9.48488,-5.018163,2.8872676,-2.6701481
2.038,2.7122881,2.366116,9.171538,-5.24249,2.755643,-2.786938
2.04,2.9778624,2.4350555,8.867005,-5.4678164,2.6180735,-2.9012136
2.042,3.2386656,2.4968123,8.572186,-5.6937876,2.475913,-3.0122032
2.044,3.4936216,2.5516405,8.287903,-5.920005,2.3306513,-3.1191192
2.046,3.742258,2.5998585,8.014666,-6.1460457,2.1838403,-3.2212205
2.048,3.9842072,2.6417818,7.752752,-6.3714476,2.0370088,-3.3178172
2.05,4.220149,2.6774983,7.502161,-6.595713,1.8915975,-3.408304
2.052,4.4488873,2.708189,7.2624226,-6.818324,1.7488899,-3.4922194
2.054,4.6704907,2.7347198,7.0329533,-7.038755,1.6099324,-3.569284
2.056,4.885586,2.7579422,6.8140726,-7.256502,1.4754643,-3.6393504
2.058,5.0950584,2.778893,6.604709,-7.4710965,1.3458847,-3.7023919
2.06,5.299666,2.7987657,6.403667,-7.6821265,1.2212569,-3.7584653
2.062,5.500325,2.8186722,6.209309,-7.8893065,1.1013442,-3.8076549
2.064,5.697578,2.8395734,6.019841,-8.092442,0.985643,-3.8500628
2.066,5.892247,2.8624926,5.833664,-8.291466,0.8734266,-3.8857868
2.068,6.0849295,2.8884296,5.6497564,-8.486428,0.7638532,-3.9149373
2.07,6.2763495,2.9183705,5.467165,-8.677484,0.65601766,-3.937598
2.072,6.4669957,2.9536548,5.2853603,-8.864875,0.5490744,-3.9538581
2.074,6.6575994,2.9953992,5.1038847,-9.048891,0.44229025,-3.9638212
2.076,6.848841,3.0446596,4.922636,-9.229869,0.33511347,-3.9675636
2.078,7.041021,3.1025202,4.741721,-9.408121,0.22724554,-3.9651356
2.08,7.2343636,3.1700828,4.5614057,-9.58381,0.11885211,-3.9565306
2.082,7.428733,3.248672,4.3822927,-9.756891,0.010535702,-3.9417472
2.084,7.624302,3.339436,4.2049265,-9.927226,-0.09695952,-3.9207346
2.086,7.8210835,3.4435577,4.030058,-10.094506,-0.20248048,-3.8933172
2.088,8.018973,3.5622497,3.8583803,-10.258174,-0.30449486,-3.8592196
2.09,8.21767,3.69662,3.6905541,-10.417528,-0.40115786,-3.8181727
2.092,8.417101,3.8478103,3.5273824,-10.571642,-0.49027476,-3.7699373
2.094,8.616878,4.0169125,3.3698025,-10.719473,-0.569424,-3.7142847
2.096,8.816922,4.204924,3.218624,-10.859885,-0.63612527,-3.6510158
2.098,9.017319,4.4127736,3.0745869,-10.9918585,-0.688037,-3.5799565
2.1,9.218148,4.641121,2.9382048,-11.114511,-0.7230878,-3.5010006
2.102,9.419691,4.8906116,2.809801,-11.227218,-0.7395762,-3.4141827
2.104,9.622476,5.1614037,2.6895695,-11.329636,-0.7363533,-3.3197412
2.106,9.826813,5.453661,2.577353,-11.421713,-0.71286017,-3.2181199
2.108,10.033201,5.767277,2.4730406,-11.503604,-0.6691305,-3.1099844
2.11,10.242654,6.1018906,2.3763227,-11.575648,-0.6056987,-2.996206
2.112,10.456113,6.4570284,2.2868545,-11.638245,-0.5234684,-2.8778255
2.114,10.674784,6.831845,2.2042403,-11.691741,-0.42356667,-2.7559838
2.116,10.899769,7.2254176,2.128001,-11.736353,-0.30722183,-2.6318755
2.118,11.132221,7.636807,2.0575922,-11.772111,-0.17566109,-2.5066261
2.12,11.373473,8.064819,1.9924798,-11.798877,-0.030022085,-2.3812408
2.122,11.62509,8.508188,1.9322169,-11.816334,0.12869903,-2.2565725
2.124,11.888642,8.965215,1.8762076,-11.824022,0.2997061,-2.1333055
2.126,12.16547,9.434338,1.8239113,-11.821358,0.48247653,-2.012011
2.128,12.456828,9.913913,1.7746251,-11.807647,0.6768067,-1.8932085
2.13,12.76384,10.402255,1.7276523,-11.7821245,0.88285255,-1.7773943
2.132,13.087574,10.897523,1.6824098,-11.743928,1.1011225,-1.6650937
2.134,13.429118,11.397859,1.6381931,-11.692193,1.3323661,-1.5568495
2.136,13.789407,11.901558,1.594198,-11.626039,1.5776495,-1.4531605
2.138,14.1691265,12.406904,1.5490575,-11.54449,1.8385221,-1.3544526
2.14,14.569039,12.912182,1.5011642,-11.446686,2.1164858,-1.2611015
2.142,14.989379,13.415828,1.4489985,-11.331971,2.4129508,-1.1733146
2.144,15.430286,13.916092,1.3907351,-11.199941,2.729074,-1.0910411
2.146,15.891813,14.411383,1.3239565,-11.050596,3.0656068,-1.0140102
2.148,16.37359,14.90011,1.2463531,-10.884337,3.4228227,-0.9418037
2.15,16.875305,15.380683,1.1554227,-10.701968,3.8005118,-0.87391067
2.152,17.395966,15.851457,1.0485301,-10.504655,4.197946,-0.80982065
2.154,17.934692,16.31053,0.9229975,-10.293864,4.613821,-0.749022
2.156,18.490147,16.75616,0.7761841,-10.071317,5.0463247,-0.69104624
2.158,19.060532,17.186613,0.60550594,-9.838865,5.493212,-0.635504
2.16,19.643368,17.600288,0.4086609,-9.598414,5.951902,-0.5821278
2.162,20.237663,17.994488,0.18365765,-9.351849,6.419483,-0.53080964
2.164,20.841156,18.367176,-0.071326256,-9.100928,6.892868,-0.4815601
2.166,21.450447,18.716343,-0.3585682,-8.847221,7.3688917,-0.43452978
2.168,22.06226,19.039682,-0.67871094,-8.592016,7.8443875,-0.38998592
2.17,22.67342,19.334824,-1.0317011,-8.336388,8.31623,-0.34827757
2.172,23.28046,19.599764,-1.4170475,-8.081104,8.781463,-0.30979264
2.174,23.87989,19.832386,-1.8337564,-7.8266506,9.237405,-0.27490515
2.176,24.467857,20.030783,-2.280779,-7.5732894,9.681658,-0.24395984
2.178,25.040218,20.19302,-2.756853,-7.321072,10.112086,-0.21724471
2.18,25.592665,20.31739,-3.260251,-7.069949,10.526768,-0.19494277
2.182,26.12089,20.402058,-3.7887468,-6.8198233,10.923977,-0.17710263
2.184,26.620323,20.44553,-4.339778,-6.570627,11.302078,-0.1636518
2.186,27.086561,20.446886,-4.910225,-6.3224,11.659523,-0.15439898
2.188,27.51558,20.405315,-5.4967346,-6.075318,11.994775,-0.14904708
2.19,27.903128,20.320559,-6.0956774,-5.829699,12.306293,-0.14724874
2.192,28.245836,20.192522,-6.7031736,-5.586032,12.592457,-0.14862776
2.194,28.540333,20.021645,-7.3151474,-5.344959,12.851626,-0.15279269
2.196,28.783415,19.809032,-7.92774,-5.1072617,13.082124,-0.1593535
2.198,28.972586,19.555925,-8.537131,-4.8738356,13.282261,-0.16793883
2.2,29.105898,19.26435,-9.139513,-4.6456976,13.450359,-0.17817044
2.202,29.181763,18.936455,-9.731417,-4.4239626,13.584796,-0.18959999
2.204,29.199661,18.574602,-10.309763,-4.2098413,13.684028,-0.20172262
2.206,29.159164,18.181446,-10.871234,-4.004622,13.746625,-0.21396971
2.208,29.060862,17.759897,-11.412901,-3.8096616,13.771299,-0.2257098
2.21,28.905872,17.313314,-11.931867,-3.6263502,13.756924,-0.23626196
2.212,28.695747,16.844948,-12.425606,-3.4560587,13.702531,-0.24490666
2.214,28.433094,16.358215,-12.891695,-3.3001542,13.607375,-0.250942
2.216,28.121136,15.856402,-13.327807,-3.1598568,13.471005,-0.25372005
2.218,27.763645,15.342875,-13.73191,-3.036256,13.293141,-0.2527238
2.22,27.364529,14.821033,-14.10211,-2.9302318,13.073783,-0.24753451
2.222,26.928501,14.294212,-14.436651,-2.8424437,12.813289,-0.23785812
2.224,26.460445,13.765493,-14.734078,-2.7732139,12.51241,-0.22353834
2.226,25.965536,13.237981,-14.993082,-2.7226,12.172266,-0.20458543
2.228,25.449429,12.714402,-15.212688,-2.6903367,11.794349,-0.18114728
2.23,24.917336,12.19741,-15.391974,-2.6758661,11.380647,-0.1534689
2.232,24.374834,11.689684,-15.530596,-2.6783366,10.933601,-0.12183195
2.234,23.827198,11.19361,-15.628292,-2.696637,10.456162,-0.086544335
2.236,23.279634,10.7109375,-15.685238,-2.72939,9.951737,-0.04796663
2.238,22.736828,10.243733,-15.70188,-2.7749984,9.4242,-0.0064326823
2.24,22.203316,9.793745,-15.679001,-2.8317041,8.877777,0.037763685
2.242,21.683031,9.362663,-15.617846,-2.8975973,8.316996,0.08427529
2.244,21.179615,8.951863,-15.520041,-2.9707055,7.7466006,0.13276167
2.246,20.695915,8.562576,-15.387421,-3.0490327,7.1714597,0.18288092
2.248,20.234406,8.195582,-15.221816,-3.1305635,6.5964227,0.23427826
2.25,19.796799,7.8517656,-15.025711,-3.2133799,6.0262084,0.2865567
2.252,19.384531,7.5314174,-14.801943,-3.2956355,5.465314,0.33925435
2.254,18.998505,7.2349753,-14.553457,-3.3756332,4.917872,0.3918247
2.256,18.638899,6.9624815,-14.283336,-3.4518476,4.3875966,0.443634
2.258,18.305779,6.7137985,-13.99489,-3.5229409,3.8776555,0.49398738
2.26,17.998356,6.488668,-13.691598,-3.5877826,3.3906763,0.5421646
2.262,17.715694,6.286515,-13.376813,-3.6454659,2.9286642,0.58740366
2.264,17.456509,6.10672,-13.05378,-3.6953187,2.4930005,0.62888336
2.266,17.21922,5.948146,-12.725481,-3.7368927,2.084469,0.6657789
2.268,17.001984,5.809682,-12.394836,-3.7699275,1.7033008,0.69735134
2.27,16.802805,5.689981,-12.064426,-3.7943609,1.3492149,0.7228777
2.272,16.619724,5.587621,-11.736517,-3.810276,1.0215036,0.74171895
2.274,16.450504,5.5009613,-11.4129715,-3.8179126,0.7191323,0.7533003
2.276,16.29321,5.4282904,-11.095386,-3.8176172,0.44078684,0.7571519
2.278,16.145832,5.3679714,-10.785015,-3.809822,0.18501616,0.7529389
2.28,16.006557,5.3184443,-10.482712,-3.79502,-0.04969883,0.7405057
2.282,15.873697,5.278077,-10.188944,-3.7737532,-0.26489103,0.7199182
2.284,15.745971,5.24541,-9.9040575,-3.7465844,-0.46205008,0.6914567
2.286,15.622065,5.2189703,-9.628058,-3.7140918,-0.6425438,0.65558577
2.288,15.501202,5.197264,-9.360593,-3.6768525,-0.8076016,0.61293197
2.29,15.382893,5.1790285,-9.101301,-3.635435,-0.9582963,0.56426275
2.292,15.266643,5.1630907,-8.849691,-3.5903816,-1.0955575,0.51040334
2.294,15.152297,5.148406,-8.605019,-3.5421917,-1.2201326,0.45219925
2.296,15.039575,5.133975,-8.366661,-3.4913507,-1.332647,0.39048985
2.298,14.928471,5.1188893,-8.133992,-3.4382703,-1.4335756,0.32600895
2.3,14.819408,5.1025295,-7.9063873,-3.3833025,-1.5232602,0.25931606
2.302,14.71217,5.08428,-7.6833944,-3.326721,-1.6019464,0.19080305
2.304,14.606995,5.0637445,-7.464512,-3.268694,-1.6697907,0.12072545
2.306,14.504322,5.0404453,-7.2494993,-3.2092953,-1.7269175,0.049224854
2.308,14.404402,5.014167,-7.037897,-3.1484973,-1.7734432,-0.023639679
2.31,14.30743,4.9847794,-6.8297668,-3.0861835,-1.8095281,-0.09782392
2.312,14.213683,4.9521713,-6.624954,-3.0221815,-1.8354087,-0.1732485
2.314,14.123131,4.9166403,-6.4233623,-2.956279,-1.8514417,-0.24975401
2.316,14.035984,4.8784323,-6.2253885,-2.8883018,-1.8581047,-0.32705593
2.318,13.952169,4.837989,-6.0310726,-2.818111,-1.8560224,-0.40466687
2.32,13.871769,4.795578,-5.840685,-2.7456744,-1.8459301,-0.48197502
2.322,13.79475,4.751897,-5.654335,-2.6710567,-1.8286734,-0.5583315
2.324,13.720938,4.7076406,-5.4722247,-2.5944622,-1.8051499,-0.6329706
2.326,13.650002,4.6636076,-5.294686,-2.5162084,-1.7762735,-0.70512354
2.328,13.581696,4.6206512,-5.12186,-2.4367042,-1.7429321,-0.7740629
2.33,13.516021,4.5795693,-4.953815,-2.356413,-1.7059351,-0.8391737
2.332,13.452731,4.54112,-4.7907434,-2.2758024,-1.6660004,-0.90000707
2.334,13.391616,4.506301,-4.632641,-2.1953309,-1.6237009,-0.9563075
2.336,13.332538,4.475968,-4.4795856,-2.1153824,-1.5794394,-1.008006
2.338,13.275081,4.4509325,-4.331311,-2.0362556,-1.5334479,-1.0551776
2.34,13.219199,4.432052,-4.1878443,-1.958117,-1.4857905,-1.098026
2.342,13.1648035,4.419715,-4.0488534,-1.8810043,-1.4363747,-1.1368324
2.344,13.111739,4.4146066,-3.9141796,-1.8048174,-1.3849503,-1.1719177
2.346,13.059933,4.417307,-3.7836518,-1.729344,-1.331136,-1.2036073
2.348,13.009462,4.4279246,-3.6570683,-1.6542797,-1.2744834,-1.2322212
2.35,12.960289,4.4464226,-3.5341716,-1.5792649,-1.2144811,-1.2580329
2.352,12.91223,4.4725013,-3.4149647,-1.5039101,-1.1506064,-1.2812921
2.354,12.865185,4.5058556,-3.299358,-1.4278421,-1.0823832,-1.3021923
2.356,12.819118,4.545962,-3.1873085,-1.3507451,-1.0093937,-1.3209081
2.358,12.773911,4.592291,-3.0789766,-1.2723457,-0.93133247,-1.3375773
2.36,12.72942,4.643968,-2.9743495,-1.1924564,-0.84798455,-1.3523202
2.362,12.68541,4.700254,-2.8736043,-1.1109451,-0.7592506,-1.3652445
2.364,12.641561,4.7601814,-2.7769723,-1.0277531,-0.6651664,-1.3764455
2.366,12.5976925,4.8226604,-2.6846428,-0.9428843,-0.5658786,-1.385988
2.368,12.553163,4.8867,-2.5969243,-0.8564043,-0.46163613,-1.3939303
2.37,12.507806,4.9511795,-2.5140793,-0.768399,-0.3527721,-1.4002767
2.372,12.461166,5.0152,-2.4364614,-0.67900765,-0.23969865,-1.405026
2.374,12.412677,5.077629,-2.3643818,-0.58839905,-0.122898325,-1.4081293
2.376,12.361934,5.1376286,-2.2981884,-0.49678928,-0.002848804,-1.4094745
2.378,12.3087635,5.1939735,-2.2380915,-0.40441123,0.119940236,-1.4089328
2.38,12.252699,5.2456036,-2.1844316,-0.31150642,0.24499637,-1.4063723
2.382,12.193367,5.291475,-2.1373,-0.21833736,0.37187052,-1.4016485
2.384,12.130438,5.3305817,-2.0970216,-0.12516265,0.5001838,-1.3946187
2.386,12.06364,5.3618984,-2.0636764,-0.03225126,0.62961656,-1.3851438
2.388,11.992726,5.3845053,-2.037366,0.06016913,0.7599213,-1.3731025
2.39,11.9175005,5.397381,-2.0182514,0.15187673,0.89092267,-1.3584018
2.392,11.8380165,5.399605,-2.0063875,0.24267226,1.0225075,-1.3409922
2.394,11.754338,5.390312,-2.001593,0.33238798,1.1546228,-1.3208251
2.396,11.666576,5.3687563,-2.0038583,0.42087018,1.2872677,-1.2978925
2.398,11.574935,5.3343534,-2.0131903,0.50799596,1.4204645,-1.272227
2.4,11.479792,5.286352,-2.0294023,0.59365356,1.5542544,-1.2438974
2.402,11.381434,5.2244143,-2.0523124,0.6777487,1.6886797,-1.212978
2.404,11.280286,5.1481566,-2.0817132,0.7601803,1.8237684,-1.1795726
2.406,11.177028,5.0574894,-2.1172748,0.84082615,1.9595344,-1.1437798
2.408,11.072321,4.9524345,-2.1586647,0.91958326,2.0959613,-1.1057277
2.41,10.966589,4.83304,-2.2055335,0.99633235,2.2330103,-1.0655459
2.412,10.860632,4.6995983,-2.2573698,1.070936,2.3706152,-1.0233753
2.414,10.7551155,4.5525465,-2.3138347,1.143278,2.5086856,-0.9793365
2.416,10.650568,4.392518,-2.3741646,1.2132483,2.6471002,-0.9335681
2.418,10.547651,4.220343,-2.437899,1.2807395,2.7857158,-0.886218
2.42,10.4468,4.0370092,-2.5043256,1.3456843,2.9243867,-0.8374355
2.422,10.348596,3.8436728,-2.572815,1.4080445,3.0629382,-0.787388
2.424,10.2534,3.641562,-2.6427498,1.4678018,3.201175,-0.73627496
2.426,10.1616125,3.4320548,-2.713282,1.5249507,3.3388996,-0.684302
2.428,10.073567,3.216503,-2.7838702,1.5795273,3.4759035,-0.63168705
2.43,9.989536,2.9964287,-2.8537493,1.6315739,3.611926,-0.5786453
2.432,9.9097805,2.7732468,-2.9224095,1.6811287,3.7466862,-0.5253937
2.434,9.834293,2.5484564,-2.989163,1.7282186,3.879846,-0.47212207
2.436,9.763227,2.3235917,-3.0533628,1.7728736,4.01103,-0.41901112
2.438,9.696519,2.1001368,-3.1145315,1.8151149,4.139798,-0.36622912
2.44,9.6341,1.8795347,-3.172104,1.8549397,4.2656584,-0.31393564
2.442,9.57576,1.6630874,-3.2255912,1.8923405,4.3880787,-0.26226872
2.444,9.521591,1.4520831,-3.2746034,1.9273005,4.5064926,-0.21137267
2.446,9.471294,1.247613,-3.318707,1.9597963,4.6203165,-0.16140068
2.448,9.424826,1.0507698,-3.35772,1.9897842,4.7289515,-0.11252415
2.45,9.382084,0.8623538,-3.3912146,2.0172508,4.8318024,-0.06494087
2.452,9.342697,0.6833203,-3.4190097,2.0421464,4.9282875,-0.018875122
2.454,9.306708,0.5142565,-3.440941,2.064437,5.017868,0.02542317
2.456,9.273938,0.35558248,-3.4567156,2.0840962,5.1000743,0.067674935
2.458,9.244417,0.20753622,-3.4664555,2.1011038,5.1744924,0.10758269
2.46,9.217939,0.070334435,-3.4699805,2.115447,5.2407975,0.1448282
2.462,9.194717,-0.056085348,-3.4672222,2.1271338,5.298771,0.17908907
2.464,9.174507,-0.17190742,-3.4580774,2.1362023,5.3482695,0.21003795
2.466,9.157484,-0.27761126,-3.4425735,2.142739,5.3892794,0.23734742
2.468,9.1436825,-0.37362957,-3.4207044,2.1468475,5.421871,0.26069653
2.47,9.133242,-0.46067286,-3.3924642,2.1486945,5.4462385,0.279804
2.472,9.126228,-0.5395014,-3.3579516,2.148501,5.4626474,0.29439342
2.474,9.122606,-0.6109805,-3.3173451,2.146517,5.471449,0.3042401
2.476,9.12252,-0.67594385,-3.270785,2.1430233,5.4730644,0.30918527
2.478,9.126043,-0.73539543,-3.2183588,2.13833,5.4679713,0.30915606
2.48,9.13313,-0.7903333,-3.1604016,2.1327522,5.4566565,0.30415976
2.482,9.143887,-0.8417566,-3.0971017,2.1265702,5.4396057,0.29432273
2.484,9.158356,-0.8905301,-3.0287669,2.1200626,5.4173164,0.27988148
2.486,9.176485,-0.93753195,-2.9556298,2.113454,5.3902464,0.26117754
2.488,9.198106,-0.9834726,-2.8781018,2.1069298,5.3588266,0.23864615
2.49,9.223235,-1.0290227,-2.7964683,2.1006136,5.3234434,0.21279073
2.492,9.251705,-1.0747807,-2.7112038,2.0945747,5.2844267,0.18415558
2.494,9.283434,-1.1213408,-2.6226802,2.0888581,5.2420807,0.15329766
2.496,9.318133,-1.1689978,-2.5313,2.0834436,5.196656,0.12070632
2.498,9.355734,-1.218257,-2.437498,2.0783029,5.148396,0.08684516
2.5,9.395903,-1.2692745,-2.341665,2.0733957,5.097515,0.052078962
2.502,9.438478,-1.322228,-2.2441814,2.0686789,5.0442286,0.01668787
2.504,9.48317,-1.377253,-2.1453743,2.0641005,4.988739,-0.019127846
2.506,9.5298395,-1.4343932,-2.0456781,2.0596588,4.93128,-0.055271626
2.508,9.578199,-1.493629,-1.9453359,2.0553565,4.872059,-0.09175539
2.51,9.627686,-1.5546334,-1.8447337,2.0511951,4.8112993,-0.12862504
2.512,9.678161,-1.6172867,-1.7440443,2.0472016,4.749228,-0.16594529
2.514,9.729413,-1.6813138,-1.643589,2.0434093,4.6860657,-0.20378685
2.516,9.781221,-1.7466049,-1.5436668,2.0398278,4.6220303,-0.24220991
2.518,9.83314,-1.8128755,-1.4446537,2.0364616,4.55733,-0.28122115
2.52,9.88509,-1.8799887,-1.3467753,2.0332952,4.492157,-0.32079887
2.522,9.936604,-1.9474502,-1.2502375,2.030302,4.42669,-0.3608513
2.524,9.98734,-2.0148976,-1.1551511,2.0274081,4.3610735,-0.40124345
2.526,10.0371895,-2.0819504,-1.0617485,2.0245237,4.2954426,-0.44180393
2.528,10.085634,-2.1480846,-0.9700992,2.0215442,4.2299123,-0.48234284
2.53,10.132616,-2.2128687,-0.8802142,2.0183609,4.1645813,-0.52264655
2.532,10.1776495,-2.2756252,-0.7922425,2.014838,4.0995207,-0.5625261
2.534,10.220661,-2.3358831,-0.70613885,2.0108552,4.034803,-0.60177946
2.536,10.2614155,-2.393063,-0.62202907,2.0062952,3.9704723,-0.6402142
2.538,10.299521,-2.4464302,-0.53987217,2.0010486,3.9065478,-0.6776563
2.54,10.335004,-2.4953723,-0.45973754,1.995039,3.84303,-0.71393394
2.542,10.367527,-2.539332,-0.38142395,1.9882007,3.7799015,-0.74891424
2.544,10.397043,-2.5775297,-0.30499434,1.9804858,3.717153,-0.78246427
2.546,10.423365,-2.609515,-0.23040223,1.9718525,3.654749,-0.8144685
2.548,10.446442,-2.6347735,-0.15754485,1.9622769,3.5926147,-0.84481287
2.55,10.466135,-2.6528513,-0.0864234,1.9517528,3.5306742,-0.8733705
2.552,10.4824505,-2.6633651,-0.016952038,1.9402912,3.4688401,-0.90004206
2.554,10.495314,-2.6659732,0.050970554,1.9279045,3.4070635,-0.92477715
2.556,10.504597,-2.6603281,0.11738992,1.9145951,3.3453236,-0.94759846
2.558,10.510352,-2.64637,0.18245173,1.9003597,3.283636,-0.968619
2.56,10.512518,-2.6239483,0.2462225,1.8851775,3.2220736,-0.9880247
2.562,10.511134,-2.5931041,0.308743,1.8690236,3.1607814,-1.0060574
2.564,10.506285,-2.5538666,0.37019658,1.8518844,3.0999422,-1.0230488
2.566,10.497999,-2.5064466,0.43051457,1.8337247,3.0397701,-1.0393473
2.568,10.486213,-2.4510665,0.48995447,1.8145351,2.9804926,-1.0552621
2.57,10.471094,-2.388078,0.54841876,1.7943443,2.9223437,-1.0710504
2.572,10.452599,-2.3177717,0.6060517,1.77321,2.865542,-1.0868738
2.574,10.430981,-2.2406645,0.66293454,1.7512422,2.8102734,-1.1027945
2.576,10.406317,-2.157197,0.7191429,1.7285968,2.7567115,-1.1188112
2.578,10.37874,-2.0679326,0.77470994,1.7054683,2.7050292,-1.1348414
2.58,10.348389,-1.9734764,0.8296237,1.6820816,2.6553912,-1.1507748
2.582,10.3155,-1.874469,0.8840039,1.658665,2.607963,-1.1665127
2.584,10.280317,-1.7716818,0.93779135,1.6354287,2.562918,-1.181978
2.586,10.242966,-1.6659067,0.99100137,1.6125815,2.5204453,-1.1971052
2.588,10.203637,-1.5576799,1.0434544,1.590288,2.4807205,-1.2118917
2.59,10.162463,-1.4475524,1.095269,1.5686605,2.443917,-1.2263641
2.592,10.119629,-1.3361602,1.1463599,1.5477672,2.410161,-1.2405331
2.594,10.075304,-1.2238479,1.1964724,1.5276374,2.3795373,-1.2543913
2.596,10.029749,-1.1112676,1.2456362,1.5082624,2.3520665,-1.2678707
2.598,9.983086,-0.9988854,1.2939091,1.4895933,2.3277032,-1.2808659
2.6,9.935522,-0.8869562,1.3411424,1.4715469,2.306375,-1.293215
2.602,9.887253,-0.7758291,1.3872278,1.4540144,2.2879825,-1.3047259
2.604,9.83851,-0.66565657,1.4322193,1.436861,2.272386,-1.3151636
2.606,9.789501,-0.55670667,1.4760036,1.4199122,2.2594192,-1.3242685
2.608,9.740265,-0.44897628,1.5186758,1.4029922,2.2488985,-1.331755
2.61,9.691111,-0.3425982,1.5601065,1.385931,2.2406614,-1.3373485
2.612,9.642135,-0.23761082,1.6004224,1.3685571,2.234567,-1.3408058
2.614,9.593475,-0.13410234,1.6395698,1.3507117,2.2304626,-1.3419254
2.616,9.545245,-0.032127857,1.6778109,1.3322709,2.2282329,-1.3405703
2.618,9.497647,0.06831646,1.7152383,1.3131381,2.2277741,-1.3366649
2.62,9.451094,0.16699624,1.7520018,1.2932804,2.229002,-1.3301976
2.622,9.405661,0.26370645,1.7882311,1.2726972,2.2318478,-1.3212448
2.624,9.361399,0.35838175,1.8241765,1.2514417,2.2362256,-1.3099256
2.626,9.318499,0.4509604,1.8601332,1.2296002,2.2420447,-1.2964354
2.628,9.277199,0.5411899,1.8963692,1.2072849,2.2492123,-1.2809521
2.63,9.237444,0.62897754,1.9331574,1.1846149,2.2576149,-1.2636701
2.632,9.19948,0.71392846,1.9705961,1.1617277,2.2670996,-1.2447903
2.634,9.163685,0.795681,2.008832,1.1387333,2.277517,-1.2244956
2.636,9.129757,0.8740001,2.0480814,1.115737,2.2887063,-1.2029355
2.638,9.098102,0.9483993,2.088563,1.0928347,2.30049,-1.1802603
2.64,9.068666,1.0186486,2.1303568,1.0700854,2.312694,-1.156604
2.642,9.0415325,1.084332,2.1736605,1.0475401,2.3251498,-1.1320891
2.644,9.0166855,1.1452041,2.21859,1.0252595,2.337701,-1.1068181
2.646,8.994117,1.2011375,2.2651753,1.0032946,2.350213,-1.0809094
2.648,8.97385,1.2517364,2.3136482,0.98169726,2.3625498,-1.0544846
2.65,8.955692,1.2969601,2.3639379,0.9605325,2.3746023,-1.0276697
2.652,8.939797,1.3368459,2.4160204,0.93988085,2.3862734,-1.0005841
2.654,8.925941,1.3711896,2.4700034,0.9198198,2.3974762,-0.9733469
2.656,8.914041,1.4001544,2.5257647,0.90041786,2.4081376,-0.9460677
2.658,8.903902,1.4238517,2.5831463,0.88172656,2.4181938,-0.91884583
2.66,8.895456,1.4424739,2.6421025,0.86379707,2.4276075,-0.8917504
2.662,8.8885145,1.456368,2.7024724,0.8466597,2.4363356,-0.8648357
2.664,8.882812,1.4657722,2.7639985,0.8303298,2.4443624,-0.83814293
2.666,8.878361,1.4710464,2.826449,0.8147973,2.451684,-0.81168884
2.668,8.874875,1.4726596,2.8895996,0.80004585,2.4583075,-0.78547454
2.67,8.872111,1.4709918,2.9530635,0.78605646,2.464243,-0.7594806
2.672,8.869908,1.4665265,3.0166636,0.7728127,2.4695048,-0.7336705
2.674,8.868083,1.4596896,3.0800307,0.7603008,2.4741,-0.70799786
2.676,8.866415,1.4510942,3.1429176,0.7485123,2.4780288,-0.682406
2.678,8.864615,1.4412265,3.2050111,0.73743325,2.4812813,-0.6568409
2.68,8.862592,1.4305587,3.2660217,0.7270658,2.4838386,-0.6312289
2.682,8.860147,1.4195099,3.325652,0.71741045,2.4856586,-0.6055589
2.684,8.8571415,1.4085574,3.383626,0.7084723,2.4867005,-0.57981753
2.686,8.853292,1.3981376,3.4397664,0.7002262,2.4869146,-0.55400354
2.688,8.848513,1.388654,3.493863,0.69265586,2.4862418,-0.52813745
2.69,8.842749,1.3804021,3.5457458,0.68574166,2.4846084,-0.50226694
2.692,8.835758,1.3735964,3.595161,0.6794298,2.481966,-0.47643942
2.694,8.827457,1.3685851,3.6421876,0.673685,2.4782577,-0.4507115
2.696,8.817769,1.3655467,3.6866076,0.6684602,2.4734359,-0.42513603
2.698,8.806633,1.3644047,3.7284489,0.66368735,2.4674456,-0.3997875
2.7,8.794039,1.3652151,3.7675421,0.65930974,2.4602652,-0.37473202
2.702,8.779853,1.3680046,3.8038776,0.65526444,2.451878,-0.35003793
2.704,8.764068,1.3725429,3.8376884,0.65149057,2.4422731,-0.32576418
2.706,8.746544,1.3789222,3.8687556,0.64793575,2.4314547,-0.3019606
2.708,8.727335,1.3870926,3.8971107,0.6445465,2.4194322,-0.27867925
2.71,8.706341,1.3967264,3.9228826,0.6412749,2.4062219,-0.25595832
2.712,8.683634,1.4078431,3.9462411,0.6380831,2.3918467,-0.2338351
2.714,8.6591015,1.4203262,3.9671662,0.63492465,2.376313,-0.21233273
2.716,8.632814,1.4339871,3.9858088,0.6317631,2.3596516,-0.19145286
2.718,8.604931,1.4486508,4.002216,0.62856096,2.3418837,-0.17117965
2.72,8.575293,1.4644094,4.0165224,0.625289,2.323024,-0.15146422
2.722,8.5441,1.4810343,4.028764,0.62191314,2.303107,-0.13225102
2.724,8.511343,1.4986355,4.039159,0.6183852,2.2821476,-0.11348212
2.726,8.477282,1.5170996,4.047694,0.6146605,2.2601697,-0.09507668
2.728,8.441759,1.5364692,4.0545273,0.61068565,2.2371924,-0.07694495
2.73,8.404914,1.5566652,4.0598383,0.60640585,2.2132308,-0.05899149
2.732,8.366934,1.5779135,4.0637064,0.6017739,2.1883006,-0.041135907
2.734,8.327852,1.6003203,4.0662475,0.59672797,2.1624017,-0.023307383
2.736,8.287858,1.6238511,4.0675693,0.59120524,2.1355338,-0.005423844
2.738,8.247181,1.6487191,4.067844,0.58514655,2.107695,0.012563646
2.74,8.205894,1.6749957,4.0671883,0.57849556,2.0788865,0.0306983
2.742,8.164387,1.702702,4.0656886,0.5711864,2.0491078,0.04900056
2.744,8.122522,1.7319188,4.063491,0.5631479,2.0183592,0.06746715
2.746,8.080717,1.7626214,4.0607586,0.5543392,1.9866403,0.08607811
2.748,8.038921,1.7949369,4.0576944,0.54468226,1.9539554,0.10478735
2.75,7.9973664,1.8288367,4.0545325,0.53412247,1.9202992,0.12355429
2.752,7.9560966,1.8644066,4.051491,0.52261204,1.8856807,0.1423235
2.754,7.915223,1.9015634,4.0486326,0.51009965,1.8500918,0.16105157
2.756,7.8749514,1.9399805,4.046233,0.49655798,1.8135427,0.17968655
2.758,7.8354554,1.9795918,4.0441747,0.48196623,1.7760532,0.19817507
2.76,7.79657,2.0201232,4.0427685,0.46631405,1.7376373,0.21646446
2.762,7.75834,2.061262,4.0420713,0.44961253,1.6983316,0.2345075
2.764,7.720796,2.1028786,4.042244,0.43189612,1.6581824,0.2522571
2.766,7.6838393,2.144641,4.043478,0.41320106,1.6172546,0.26968408
2.768,7.6474385,2.1862047,4.04593,0.3935785,1.5756232,0.28674346
2.77,7.611451,2.2273195,4.0497417,0.37308568,1.5333575,0.30340266
2.772,7.57573,2.2675097,4.0549226,0.35178906,1.4905324,0.31963968
2.774,7.5400567,2.3065999,4.061662,0.32976574,1.4472352,0.33544725
2.776,7.504329,2.3442,4.069924,0.30710894,1.4035331,0.3508596
2.778,7.4682755,2.3800526,4.079695,0.28390774,1.3594897,0.36593425
2.78,7.431748,2.4138498,4.091113,0.2602613,1.315177,0.3807394
2.782,7.3945327,2.4452841,4.1040363,0.2362796,1.2706611,0.39533794
2.784,7.3564267,2.474185,4.11838,0.21206267,1.2260022,0.40980774
2.786,7.317295,2.5002296,4.1339855,0.18769719,1.1812423,0.42422742
2.788,7.2769756,2.523232,4.150796,0.16328081,1.1364185,0.4386728
2.79,7.235199,2.5432212,4.1687126,0.13890728,1.091569,0.4532093
2.792,7.1918797,2.5600932,4.187397,0.11464636,1.0467267,0.4678864
2.794,7.1467323,2.5738723,4.2067184,0.09056814,1.0019546,0.48270065
2.796,7.099826,2.5845678,4.226413,0.066713005,0.95733774,0.49762273
2.798,7.050967,2.5922933,4.2463293,0.043088317,0.9130037,0.51258004
2.8,7.000079,2.597291,4.2661977,0.019664377,0.86910385,0.52747524
2.802,6.9471865,2.5997603,4.285831,-0.0035975873,0.8258176,0.5421995
2.804,6.8923125,2.5999491,4.3048596,-0.026758611,0.7833358,0.55662906
2.806,6.8353515,2.5981865,4.323169,-0.049890965,0.74182713,0.5706854
2.808,6.7763186,2.594782,4.3405495,-0.07306695,0.7014424,0.5843322
2.81,6.7151384,2.5901353,4.356756,-0.096324,0.66229683,0.59759754
2.812,6.6518493,2.5846758,4.3715835,-0.119687945,0.6244587,0.61056924
2.814,6.5865517,2.5789196,4.384927,-0.14314862,0.58797014,0.62339133
2.816,6.5192547,2.5732358,4.3966284,-0.16668524,0.5528202,0.6362426
2.818,6.449995,2.5680604,4.406606,-0.19026066,0.51899326,0.649315
2.82,6.3788533,2.5639267,4.414864,-0.21382006,0.48645967,0.66276217
2.822,6.305772,2.5611696,4.4212356,-0.2373224,0.45518744,0.6767316
2.824,6.2310286,2.5600545,4.425767,-0.26074678,0.42515457,0.6912999
2.826,6.1545067,2.5609097,4.428509,-0.28407395,0.39633042,0.70648235
2.828,6.0762978,2.5640256,4.429404,-0.30732307,0.36868235,0.72224736
2.83,5.9967566,2.5693884,4.4286776,-0.3305232,0.3421601,0.7385148
2.832,5.915855,2.5772104,4.426461,-0.35369474,0.31668907,0.75518745
2.834,5.834027,2.5873682,4.422841,-0.3768754,0.29213792,0.7721587
2.836,5.7512016,2.599698,4.4180837,-0.40010172,0.26835778,0.7893262
2.838,5.6679177,2.6140234,4.412504,-0.42339402,0.24520044,0.8065622
2.84,5.584158,2.630151,4.4062757,-0.44676733,0.22250108,0.8237337
2.842,5.5004888,2.6476076,4.3997,-0.47023153,0.2001268,0.8406979
2.844,5.417219,2.665889,4.393233,-0.49378228,0.17797165,0.85727763
2.846,5.3346033,2.684729,4.3871417,-0.51739484,0.15597823,0.8732891
2.848,5.253011,2.70358,4.381839,-0.54102254,0.1341303,0.88855606
2.85,5.172981,2.721894,4.3775635,-0.56458604,0.112464175,0.9029124
2.852,5.0945454,2.7392077,4.3747563,-0.5879884,0.0910722,0.9162128
2.854,5.018325,2.7551308,4.373774,-0.6111141,0.07009524,0.9283478
2.856,4.9445295,2.7692,4.3747616,-0.6338369,0.04970509,0.9392607
2.858,4.8734417,2.7810314,4.378018,-0.6560301,0.030120969,0.94896543
2.86,4.8053846,2.7902136,4.3836813,-0.6775521,0.011563137,0.9575287
2.862,4.74061,2.7965345,4.392002,-0.698283,-0.0057338327,0.96505904
2.864,4.6793184,2.7998629,4.403185,-0.7181295,-0.021544293,0.9717107
2.866,4.6214895,2.8002326,4.417272,-0.737006,-0.03563954,0.9776586
2.868,4.5672016,2.7977154,4.4344172,-0.7548541,-0.047802255,0.9830717
2.87,4.516821,2.7923555,4.454461,-0.77162623,-0.057830185,0.9881251
2.872,4.470153,2.7844105,4.4772534,-0.78730917,-0.06555414,0.99297106
2.874,4.4271483,2.7739992,4.502549,-0.80191,-0.07081063,0.997746
2.876,4.3877797,2.7615457,4.5301614,-0.8154306,-0.07346681,1.0025355
2.878,4.3519297,2.7473795,4.5596857,-0.8278708,-0.07344526,1.0074244
2.88,4.319463,2.7318802,4.590845,-0.8392707,-0.07069117,1.0124767
2.882,4.2901793,2.7154772,4.623336,-0.84964657,-0.065190524,1.0177245
2.884,4.263899,2.6986003,4.656783,-0.8590287,-0.056968674,1.0231928
2.886,4.240233,2.6818357,4.6908574,-0.8674526,-0.04609099,1.0288886
2.888,4.2190475,2.6654387,4.72519,-0.8749554,-0.032642588,1.0347952
2.89,4.1999817,2.6500754,4.759347,-0.88157886,-0.016726613,1.0408809
2.892,4.182915,2.635961,4.7930374,-0.88738227,0.001521945,1.0471218
2.894,4.167314,2.6235254,4.8259583,-0.89241815,0.021986261,1.0534468
2.896,4.152983,2.6131268,4.8578935,-0.89674735,0.0445168,1.0597796
2.898,4.139671,2.6050353,4.8883643,-0.90043795,0.068965495,1.0660659
2.9,4.127032,2.5994706,4.9171352,-0.9035509,0.09518662,1.0722401
2.902,4.1147203,2.5965943,4.9441657,-0.9061473,0.12304187,1.0782448
2.904,4.102477,2.5966475,4.969181,-0.90828115,0.1523715,1.0840151
2.906,4.0899315,2.5997834,4.992003,-0.9099836,0.18300965,1.0895219
2.908,4.076665,2.6060972,5.0125265,-0.91127753,0.21478695,1.0947461
2.91,4.062358,2.6156592,5.030672,-0.9122009,0.24753317,1.099685
2.912,4.0467386,2.6287017,5.0463347,-0.912777,0.28106606,1.104357
2.914,4.0293746,2.6452935,5.05957,-0.91304207,0.31522357,1.1088096
2.916,4.010084,2.665574,5.070157,-0.91302955,0.34983197,1.1131073
2.918,3.988597,2.6897657,5.0782084,-0.9128024,0.384722,1.1173303
2.92,3.964706,2.7179213,5.083765,-0.91242176,0.41972587,1.1215723
2.922,3.9383242,2.7500541,5.0868745,-0.91196346,0.454662,1.1259494
2.924,3.9091604,2.7862742,5.0874596,-0.9115257,0.48936445,1.1305599
2.926,3.8772683,2.826707,5.0856967,-0.9112108,0.5236465,1.13551
2.928,3.8425627,2.8713431,5.081538,-0.91112685,0.5573091,1.1408927
2.93,3.8049772,2.9202125,5.0750656,-0.91139853,0.59016466,1.1467909
2.932,3.764752,2.9732938,5.066412,-0.91214347,0.62202716,1.1532376
2.934,3.7217174,3.0306191,5.0556903,-0.91345525,0.65274346,1.160224
2.936,3.6762528,3.092144,5.042945,-0.9154297,0.68216145,1.1677079
2.938,3.628461,3.1577559,5.0283074,-0.91814387,0.71017325,1.1756004
2.94,3.5784206,3.2272735,5.011811,-0.92164797,0.73670584,1.1837815
2.942,3.5264218,3.300578,4.993468,-0.925973,0.7617372,1.1921182
2.944,3.472618,3.3774605,4.9734755,-0.9311133,0.78526694,1.2004524
2.946,3.417468,3.457725,4.951854,-0.93703234,0.8073417,1.2086103
2.948,3.3609428,3.5409253,4.92847,-0.9436836,0.8280331,1.2164552
2.95,3.3034601,3.626752,4.9035764,-0.9510076,0.84744245,1.223866
2.952,3.2449348,3.7149465,4.8771405,-0.9589164,0.8656657,1.2307427
2.954,3.1856816,3.805066,4.8490863,-0.96733224,0.88281035,1.2370298
2.956,3.125823,3.8967357,4.8194985,-0.9761751,0.8989577,1.2426891
2.958,3.065351,3.9894934,4.7882323,-0.9853846,0.91417855,1.2477486
2.96,3.0044258,4.0830474,4.755475,-0.99492896,0.92849886,1.2522466
2.962,2.9430628,4.1770215,4.7210593,-1.004789,0.941943,1.256252
2.964,2.881259,4.270952,4.684889,-1.0149609,0.9544991,1.2598445
2.966,2.8190365,4.364481,4.64704,-1.0254779,0.966143,1.2630975
2.968,2.7563915,4.457377,4.6073136,-1.0363772,0.97681516,1.2660985
2.97,2.6931427,4.549293,4.5657415,-1.0477164,0.9864547,1.2689352
2.972,2.6294043,4.639878,4.5221734,-1.0595438,0.9949918,1.2716882
2.974,2.5649605,4.728942,4.4766293,-1.0719128,1.0023597,1.2744244
2.976,2.4997857,4.8162,4.4291706,-1.0848715,1.0084965,1.2771882
2.978,2.4338367,4.901389,4.379678,-1.0984471,1.0133164,1.2800285
2.98,2.3670619,4.9842997,4.3282766,-1.1126456,1.0167468,1.2829838
2.982,2.2995093,5.0647025,4.2750015,-1.1274719,1.0187346,1.2860802
2.984,2.2311873,5.142367,4.219866,-1.142912,1.0192231,1.2893382
2.986,2.162128,5.2170544,4.162985,-1.1589329,1.018188,1.2927711
2.988,2.0922687,5.2885623,4.1044683,-1.1754962,1.0155923,1.2963759
2.99,2.0217586,5.3566723,4.0444393,-1.1925449,1.0114508,1.3001285
2.992,1.9506543,5.421315,3.9830503,-1.2100025,1.0057831,1.3040015
2.994,1.8790938,5.482196,3.920545,-1.2277834,0.99861205,1.3079439
2.996,1.8072497,5.5390983,3.8570895,-1.24578,0.98997504,1.3119104
2.998,1.7350532,5.592065,3.7928996,-1.2639037,0.97991604,1.3158517
3,1.6627856,5.640659,3.7281082,-1.2820365,0.96848524,1.319723
3.002,1.5904081,5.684992,3.6630325,-1.300065,0.95572126,1.3234832
3.004,1.5182693,5.7248445,3.5978909,-1.3178796,0.94166833,1.3270881
3.006,1.4464532,5.7600503,3.532885,-1.3354005,0.9263572,1.330513
3.008,1.3750324,5.790559,3.4683921,-1.352529,0.90980905,1.3337407
3.01,1.3044564,5.8161783,3.4046443,-1.3691947,0.8920636,1.336757
3.012,1.2347286,5.8370266,3.341908,-1.3853236,0.87314636,1.3395338
3.014,1.1660428,5.852962,3.2804024,-1.4008453,0.85308737,1.3420541
3.016,1.0986378,5.863969,3.2205696,-1.4157038,0.8319037,1.3442731
3.018,1.0327308,5.8700075,3.1626358,-1.4298314,0.80962634,1.3461584
3.02,0.9684756,5.8712134,3.106838,-1.443161,0.7863108,1.3476708
3.022,0.90613747,5.867388,3.053575,-1.4556289,0.7620274,1.3487602
3.024,0.84596586,5.858614,3.0029774,-1.4671664,0.73685795,1.3493533
3.026,0.7879696,5.844949,2.9554715,-1.477707,0.71089625,1.3493817
3.028,0.73235106,5.826297,2.9111009,-1.487184,0.68424386,1.348789
3.03,0.6793257,5.802821,2.870245,-1.4955297,0.65703034,1.347523
3.032,0.62888956,5.7745404,2.833004,-1.5026863,0.62938887,1.3455226
3.034,0.5811429,5.741553,2.7995791,-1.5085902,0.6014596,1.3427503
3.036,0.53615415,5.7039423,2.7699785,-1.5131811,0.573349,1.3391893
3.038,0.4939661,5.6617875,2.7444067,-1.5164263,0.5451862,1.3348341
3.04,0.45460773,5.6151967,2.7228878,-1.5182796,0.5170862,1.3296866
3.042,0.41801763,5.564229,2.7054863,-1.5187156,0.48915136,1.3237462
3.044,0.38419878,5.5090685,2.6920955,-1.5177153,0.46148062,1.3170213
3.046,0.3529266,5.4497595,2.6825898,-1.5152752,0.43416598,1.3095108
3.048,0.32415307,5.386429,2.6770759,-1.5113928,0.40730143,1.3012048
3.05,0.2977364,5.3192477,2.6752949,-1.5060755,0.38096482,1.2920895
3.052,0.27344203,5.2483654,2.6771748,-1.4993271,0.3552296,1.2821443
3.054,0.2510258,5.1739087,2.6824248,-1.4911667,0.3301711,1.2713559
3.056,0.23019981,5.0961065,2.6908937,-1.4815955,0.3058479,1.259715
3.058,0.2108661,5.0151553,2.7024531,-1.4706177,0.282307,1.2472088
3.06,0.19269538,4.9312606,2.7167914,-1.4582409,0.25960898,1.2338332
3.062,0.1754092,4.844627,2.7336223,-1.4444729,0.23779921,1.2195973
3.064,0.15882123,4.755506,2.7527282,-1.4293293,0.21691123,1.2045221
3.066,0.14261532,4.664154,2.773806,-1.4128283,0.19699353,1.1886414
3.068,0.12667072,4.5709057,2.7967455,-1.3950016,0.178083,1.1719993
3.07,0.11067188,4.475893,2.8211403,-1.3758895,0.16023575,1.1546621
3.072,0.09449744,4.379471,2.8468857,-1.3555447,0.14350368,1.1366841
3.074,0.07793331,4.2819223,2.8737009,-1.3340268,0.12791973,1.1181307
3.076,0.060974717,4.1835117,2.9012928,-1.3114024,0.113544494,1.0990651
3.078,0.043477893,4.0843973,2.9295597,-1.2877456,0.10042155,1.0795722
3.08,0.025422692,3.9849763,2.958342,-1.2631226,0.08859992,1.0597203
3.082,0.0067071915,3.8853874,2.9874437,-1.2376001,0.078117624,1.0395551
3.084,-0.01248908,3.7859035,3.0166783,-1.2112391,0.06901258,1.0191207
3.086,-0.032175064,3.6867533,3.04586,-1.1840879,0.061325863,0.99844015
3.088,-0.052225947,3.5881634,3.0749478,-1.1561856,0.055098087,0.9774966
3.09,-0.072595954,3.4903383,3.1037843,-1.1275648,0.05039014,0.956255
3.092,-0.0931083,3.3933845,3.132276,-1.0982339,0.04724683,0.9346639
3.094,-0.11356771,3.2975755,3.1604424,-1.0682063,0.045732915,0.912679
3.096,-0.13389802,3.203021,3.188091,-1.037466,0.04592657,0.89023995
3.098,-0.15382743,3.1098719,3.2151706,-1.0060148,0.047902957,0.86729383
3.1,-0.1732018,3.0181632,3.2416527,-0.97383183,0.051741064,0.8437999
3.102,-0.19185948,2.9280782,3.267509,-0.9409223,0.05750735,0.81975305
3.104,-0.20969939,2.8396778,3.2925267,-0.9072863,0.06525901,0.7951636
3.106,-0.22646463,2.7531333,3.316773,-0.8729368,0.07504828,0.7700803
3.108,-0.2419784,2.6684976,3.3401518,-0.83790505,0.08689354,0.74456066
3.11,-0.2563449,2.5859122,3.3626282,-0.8022419,0.10081379,0.71869105
3.112,-0.26930165,2.5055196,3.384132,-0.7660077,0.11680634,0.6925751
3.114,-0.2809335,2.4273434,3.4045885,-0.7292648,0.13483682,0.6663126
3.116,-0.29107416,2.3515353,3.4239511,-0.69211537,0.15485398,0.6399881
3.118,-0.2995944,2.2781382,3.4420774,-0.65462226,0.17678699,0.6136872
3.12,-0.30671608,2.2072895,3.4589272,-0.6168772,0.20053825,0.5874717
3.122,-0.31233168,2.1389396,3.474418,-0.5789616,0.22598788,0.56138146
3.124,-0.31646788,2.073154,3.4885163,-0.54095095,0.25299326,0.5354322
3.126,-0.31921434,2.010046,3.5010445,-0.5029262,0.28139722,0.5096222
3.128,-0.32052326,1.949677,3.5120766,-0.46495664,0.3110507,0.4839383
3.13,-0.3204862,1.8918755,3.5215592,-0.427111,0.3417824,0.4583499
3.132,-0.31935453,1.8368243,3.5293992,-0.3894465,0.37343025,0.4328108
3.134,-0.3171773,1.7843815,3.535706,-0.35202286,0.405833,0.4072851
3.136,-0.31384456,1.7345629,3.5404053,-0.31489247,0.43885314,0.38171437
3.138,-0.30968463,1.6873777,3.5435257,-0.27809483,0.47235653,0.35606372
3.14,-0.30476058,1.6426747,3.5450413,-0.24166936,0.5062265,0.33029896
3.142,-0.29909158,1.6004245,3.545063,-0.2056478,0.5403584,0.30440247
3.144,-0.29280722,1.5604204,3.5436537,-0.17005114,0.57465273,0.2783699
3.146,-0.28613567,1.5225912,3.5408921,-0.13489668,0.6090301,0.2522174
3.148,-0.2790135,1.4868791,3.5367694,-0.100205794,0.6434195,0.2259693
3.15,-0.27167165,1.4529886,3.5313323,-0.06597982,0.677769,0.19966918
3.152,-0.26418507,1.4208477,3.5246525,-0.03222473,0.7120368,0.1733531
3.154,-0.2565657,1.3901999,3.5168326,0.0010449588,0.7461859,0.14706662
3.156,-0.248891,1.3609535,3.5080023,0.033835605,0.7801925,0.12083417
3.158,-0.24130666,1.3328974,3.4980855,0.066142894,0.81403553,0.094690144
3.16,-0.23387241,1.3058587,3.4872158,0.097970344,0.8476897,0.06864774
3.162,-0.22653925,1.2796569,3.4754312,0.12932539,0.8811273,0.042724013
3.164,-0.21939194,1.2541199,3.4628174,0.1602064,0.9143001,0.016916752
3.166,-0.21230435,1.2290821,3.4494042,0.19062099,0.9471573,-0.008761883
3.168,-0.20540786,1.2043953,3.4352818,0.22056854,0.9796362,-0.034305632
3.17,-0.19869697,1.1799263,3.4204643,0.25004405,1.0116607,-0.059692085
3.172,-0.19199586,1.1554122,3.4051123,0.2790236,1.0431515,-0.08489725
3.174,-0.18537712,1.1307501,3.3892713,0.30749917,1.0740323,-0.109883845
3.176,-0.17879474,1.1058295,3.3730626,0.33544725,1.104227,-0.13460791
3.178,-0.17224431,1.0805469,3.3564668,0.36283034,1.1336701,-0.15902421
3.18,-0.16547668,1.0548162,3.3396368,0.3896295,1.1623118,-0.18310201
3.182,-0.15845156,1.0285733,3.3226957,0.4158173,1.1901146,-0.20682201
3.184,-0.15121078,1.0017309,3.3057804,0.44137302,1.2170607,-0.23015612
3.186,-0.1435821,0.97437716,3.2890368,0.4662826,1.2431468,-0.25308967
3.188,-0.13541973,0.94640803,3.2724705,0.49052858,1.2683853,-0.275625
3.19,-0.12662232,0.91782695,3.2562041,0.5141238,1.2927903,-0.29774377
3.192,-0.11712217,0.88880765,3.2403746,0.5370773,1.3163936,-0.31945035
3.194,-0.10691702,0.8593089,3.22506,0.5594055,1.3392292,-0.34072748
3.196,-0.095748425,0.8295891,3.21034,0.5811111,1.3613367,-0.3615561
3.198,-0.08356428,0.7997291,3.1963336,0.60222423,1.382764,-0.3818889
3.2,-0.07029235,0.76986456,3.183098,0.622737,1.4035375,-0.40167934
3.202,-0.05581522,0.7402662,3.1706882,0.6426548,1.4236953,-0.42086914
3.204,-0.040014267,0.7110625,3.1591558,0.6619665,1.4432702,-0.4393874
3.206,-0.022756934,0.6824826,3.1485524,0.6806571,1.462293,-0.45716763
3.208,-0.004210949,0.6548778,3.1389349,0.69871175,1.4807892,-0.47415712
3.21,0.015796185,0.62844795,3.130136,0.71609193,1.49879,-0.4903135
3.212,0.037259758,0.60340524,3.122238,0.7327767,1.5163214,-0.505618
3.214,0.060229957,0.5801188,3.1152515,0.7487272,1.5334148,-0.5200597
3.216,0.08457327,0.5588973,3.109107,0.7639215,1.5500915,-0.5336573
3.218,0.1103403,0.54006094,3.103774,0.7783462,1.5663831,-0.5464256
3.22,0.13752598,0.52399135,3.0992525,0.7919822,1.5823035,-0.55839175
3.222,0.16595155,0.5109611,3.0953612,0.80482846,1.5978634,-0.5695849
3.224,0.19566315,0.5012624,3.0921528,0.8168917,1.613069,-0.5800241
3.226,0.2264809,0.49519408,3.0894966,0.82816243,1.6279109,-0.5897274
3.228,0.2583447,0.49305665,3.0874505,0.83864427,1.6423844,-0.5987152
3.23,0.29108107,0.49507236,3.085833,0.8483392,1.6564727,-0.6069938
3.232,0.324759,0.50148517,3.0846224,0.8572409,1.670153,-0.61457676
3.234,0.35921097,0.51241523,3.0836933,0.8653406,1.6834074,-0.6214663
3.236,0.39436424,0.5279425,3.083053,0.8726243,1.696215,-0.6276846
3.238,0.43157697,0.5532196,3.0736983,0.8790759,1.7085524,-0.6332486
3.24,0.46812373,0.57973015,3.0706308,0.884699,1.7204182,-0.6381936
3.242,0.50525653,0.6112033,3.0669992,0.88948804,1.7318056,-0.6425693
3.244,0.5427084,0.6476158,3.062479,0.8934478,1.7427022,-0.64644265
3.246,0.580456,0.6888101,3.0569134,0.89658916,1.7531085,-0.6498976
3.248,0.6185788,0.73449546,3.0502002,0.898937,1.763029,-0.65303373
3.25,0.6567907,0.78447866,3.0420225,0.900542,1.7724624,-0.655959
3.252,0.69509375,0.83841276,3.0321677,0.9014404,1.7814139,-0.65880805
3.254,0.7335539,0.8958794,3.020498,0.9016888,1.7898979,-0.661707
3.256,0.7720225,0.9563232,3.0068283,0.9013432,1.7979147,-0.66478145
3.258,0.8103102,1.0192497,2.9911687,0.90047204,1.8054651,-0.6681378
3.26,0.84844035,1.084112,2.9733784,0.8991536,1.8125591,-0.67187834
3.262,0.8862405,1.150265,2.9533982,0.8974449,1.8192117,-0.6761003
3.264,0.9237097,1.2170289,2.9312935,0.8954203,1.825425,-0.6808636
3.266,0.9607199,1.2836592,2.90719,0.8931159,1.8311886,-0.6861649
3.268,0.99722755,1.34943,2.8812115,0.890614,1.8365574,-0.6920852
3.27,1.0330892,1.4136711,2.8537066,0.8879471,1.8415477,-0.69858366
3.272,1.0682303,1.4756482,2.8249412,0.8851454,1.8462012,-0.70562434
3.274,1.1026424,1.5346977,2.7953362,0.88223886,1.8505597,-0.71314406
3.276,1.1360112,1.590168,2.7653368,0.87923986,1.8546674,-0.7210515
3.278,1.1685414,1.6414772,2.7353623,0.87615293,1.8585613,-0.72924286
3.28,1.2000829,1.6879934,2.7059908,0.87299526,1.8622774,-0.7375994
3.282,1.2305233,1.7293243,2.6777053,0.8697593,1.8658304,-0.7459847
3.284,1.2599251,1.7650089,2.651008,0.86644536,1.8692374,-0.75428617
3.286,1.288384,1.7947376,2.6263075,0.86306655,1.8725073,-0.76238316
3.288,1.3158089,1.8183316,2.604129,0.8596137,1.8756219,-0.7701787
3.29,1.3422682,1.8357155,2.5846286,0.8560939,1.8785613,-0.7775829
3.292,1.3678665,1.8469216,2.5681963,0.8525045,1.8813109,-0.78453934
3.294,1.3926708,1.8520395,2.5548787,0.8488389,1.8838373,-0.7909843
3.296,1.4168088,1.8512908,2.5448217,0.84511745,1.8861066,-0.79686356
3.298,1.4403002,1.8450854,2.537969,0.8413377,1.8880928,-0.8021358
3.3,1.4633949,1.8339269,2.5342004,0.83751017,1.889763,-0.8067471
3.302,1.4863269,1.8182214,2.5332978,0.8336476,1.8910714,-0.81064874
3.304,1.5091064,1.7986931,2.5349677,0.82975924,1.8919964,-0.81379193
3.306,1.5318236,1.7757188,2.5388753,0.82585436,1.8924935,-0.8161151
3.308,1.5545976,1.7502205,2.5447092,0.82193834,1.8925338,-0.81757104
3.31,1.5776333,1.7228479,2.551964,0.8180017,1.8921,-0.8180944
3.312,1.6009233,1.6943332,2.5603209,0.8140365,1.8911706,-0.8176543
3.314,1.6244963,1.665369,2.5694323,0.81003225,1.8897176,-0.8162149
3.316,1.648406,1.63662,2.5789835,0.80599505,1.8877243,-0.8137621
3.318,1.672799,1.6086681,2.5886471,0.8019266,1.8851886,-0.8103208
3.32,1.6976023,1.5821333,2.5982192,0.79784095,1.8821168,-0.8059611
3.322,1.7226923,1.5574667,2.6073575,0.7937327,1.8784692,-0.8006856
3.324,1.747945,1.5351233,2.615911,0.78964067,1.8742738,-0.7946279
3.326,1.7733706,1.5154598,2.6238246,0.7856066,1.8695096,-0.7878795
3.328,1.7988024,1.4988414,2.6309476,0.78166765,1.8641778,-0.7805326
3.33,1.8240432,1.4854792,2.6371858,0.7778577,1.8582726,-0.7726702
3.332,1.8488775,1.4756045,2.6426444,0.77421147,1.8517797,-0.7643553
3.334,1.8731551,1.4694198,2.6471102,0.7707345,1.8446579,-0.7556257
3.336,1.8966827,1.467024,2.650699,0.76742285,1.8368739,-0.74649286
3.338,1.9193062,1.468347,2.653266,0.76425546,1.8283699,-0.7369393
3.34,1.9408607,1.4733366,2.654988,0.76118344,1.8190734,-0.726943
3.342,1.9611268,1.4818542,2.6557715,0.75814676,1.8089033,-0.71646893
3.344,1.9798825,1.4937959,2.655656,0.75507027,1.7977723,-0.70547664
3.346,1.9969771,1.5088973,2.6544473,0.75187093,1.7855674,-0.69394255
3.348,2.0111613,1.5229261,2.6590133,0.7484614,1.7721934,-0.6818669
3.35,2.0248227,1.544197,2.6539962,0.7447597,1.7575662,-0.66927487
3.352,2.0362895,1.567364,2.6481733,0.74071,1.7416085,-0.65621763
3.354,2.0456297,1.5918939,2.6414518,0.7362699,1.7242495,-0.642781
3.356,2.052522,1.6175363,2.6336458,0.73140633,1.7054589,-0.62906766
3.358,2.0569365,1.6438133,2.6244903,0.7261191,1.6852057,-0.6152055
3.36,2.058811,1.6701617,2.6139853,0.7204252,1.6634879,-0.60131884
3.362,2.0580988,1.6961857,2.6020484,0.7143601,1.6402998,-0.58753395
3.364,2.0547698,1.7213858,2.5884283,0.70796335,1.615664,-0.57397616
3.366,2.0487964,1.7453632,2.573154,0.7012664,1.5896076,-0.5607135
3.368,2.0401762,1.7676519,2.555973,0.69429564,1.5621537,-0.5477899
3.37,2.0288582,1.7878581,2.5369394,0.6870622,1.5333171,-0.5351939
3.372,2.014827,1.8055735,2.515998,0.67955667,1.503102,-0.522866
3.374,1.9981039,1.8205106,2.4931786,0.67175704,1.4715062,-0.5107069
3.376,1.9787868,1.8324445,2.4684246,0.6636249,1.4385204,-0.49857342
3.378,1.9569074,1.8411294,2.441773,0.65508777,1.4041162,-0.48630574
3.38,1.9324995,1.8463824,2.413283,0.6460677,1.3682804,-0.47375178
3.382,1.9056963,1.8481804,2.3829944,0.6364852,1.3309852,-0.4607559
3.384,1.8764856,1.8464527,2.351066,0.6262676,1.2922075,-0.44719347
3.386,1.8451506,1.8412781,2.3176098,0.61534774,1.2519313,-0.43297324
3.388,1.8117355,1.8326743,2.2828164,0.603669,1.2101498,-0.4180412
3.39,1.7764007,1.8208994,2.2468371,0.5912044,1.1668589,-0.4023796
3.392,1.739336,1.8060641,2.2098613,0.57793,1.1220466,-0.3860013
3.394,1.7006627,1.7884768,2.1720657,0.5638433,1.0757195,-0.36894566
3.396,1.6606004,1.7682801,2.1338143,0.5489567,1.0278909,-0.35126117
3.398,1.6193881,1.7457421,2.0953085,0.53329176,0.97854996,-0.3330124
3.4,1.5770173,1.721233,2.0568426,0.5168727,0.92770827,-0.31423864
3.402,1.5338528,1.6949011,2.0187151,0.49972537,0.8753474,-0.29497886
3.404,1.4902134,1.6670735,1.9812806,0.48187783,0.82145053,-0.2752702
3.406,1.446253,1.6380087,1.9447533,0.46335366,0.7660155,-0.25515488
3.408,1.4021719,1.607939,1.909533,0.44417292,0.7090333,-0.2346584
3.41,1.3580803,1.5770488,1.875864,0.424363,0.6504993,-0.21382152
3.412,1.3142066,1.5456858,1.8440421,0.403953,0.59042865,-0.19268322
3.414,1.2709596,1.5139339,1.814377,0.38298985,0.5288469,-0.17131527
3.416,1.228431,1.4821595,1.7871453,0.3615226,0.46578637,-0.14978258
3.418,1.1869063,1.45046,1.7625257,0.33960167,0.40129063,-0.1281611
3.42,1.1464531,1.4190875,1.7408143,0.31729907,0.33541688,-0.10655571
3.422,1.1074101,1.3880584,1.7222767,0.2946965,0.26825142,-0.08505401
3.424,1.0697958,1.3576324,1.7070807,0.27186722,0.19988403,-0.06375098
3.426,1.0338163,1.3279881,1.6953493,0.24889413,0.1304133,-0.042731233
3.428,0.9997543,1.2992326,1.6872789,0.22586147,0.059968095,-0.022069952
3.43,0.9675486,1.2714578,1.6829351,0.20285428,-0.011324677,-0.0018312125
3.432,0.9374363,1.2447262,1.6825209,0.1799501,-0.08330861,0.017932188
3.434,0.9094385,1.2192389,1.686067,0.15722522,-0.15582818,0.037184373
3.436,0.883649,1.1948866,1.6934426,0.13474894,-0.22871783,0.05588744
3.438,0.85999346,1.171813,1.7047813,0.11259715,-0.3017911,0.074022725
3.44,0.83865386,1.1500676,1.7200294,0.0908408,-0.37485668,0.09157292
3.442,0.8195998,1.1297009,1.7390554,0.06954831,-0.4477161,0.108529404
3.444,0.802675,1.1107999,1.7618268,0.04878043,-0.52017325,0.12486461
3.446,0.7878648,1.0933001,1.7882125,0.028609473,-0.5920053,0.14057812
3.448,0.77512175,1.0772846,1.8181367,0.009090284,-0.66302717,0.15565518
3.45,0.7643907,1.0628189,1.8513496,-0.009724606,-0.733039,0.1700803
3.452,0.75562996,1.0498588,1.8876873,-0.027792465,-0.8018679,0.1838637
3.454,0.74864113,1.0384853,1.9269847,-0.0450926,-0.8693574,0.19699666
3.456,0.7434674,1.0287504,1.9691503,-0.061610367,-0.9353564,0.20949203
3.458,0.7398369,1.0207282,2.0138261,-0.077349246,-0.9997571,0.22137418
3.46,0.737945,1.0144168,2.0609977,-0.09232713,-1.0624574,0.23266605
3.462,0.7374934,1.0098138,2.1104944,-0.106564045,-1.1233681,0.24337414
3.464,0.73839134,1.0070022,2.1620255,-0.12009013,-1.1824077,0.25351727
