Time_s_,Acc_x_m_s_2_,Acc_y_m_s_2_,Acc_z_m_s_2_,Gyro_x_1_s_,Gyro_y_1_s_,Gyro_z_1_s_
0,-0.38742745,0.2736815,-0.56648064,-0.18703313,-0.2886831,0.08538248
0.002,-0.3771883,0.24291444,-0.54776746,-0.18609647,-0.28291437,0.086993985
0.004,-0.36735645,0.21229593,-0.53268677,-0.18453228,-0.27507442,0.08856191
0.006,-0.35811943,0.18198371,-0.52178836,-0.18224385,-0.2647561,0.09027217
0.008,-0.3495149,0.15204379,-0.51552105,-0.1789946,-0.2515416,0.09203946
0.01,-0.34146696,0.12222466,-0.51443815,-0.17451334,-0.23504928,0.09363685
0.012,-0.3341035,0.092381835,-0.5190189,-0.16855943,-0.2149222,0.0949116
0.014,-0.32774055,0.06270986,-0.52961147,-0.16091241,-0.19088247,0.09573899
0.016,-0.3226996,0.03374657,-0.54639274,-0.15140694,-0.16281642,0.095982246
0.018,-0.31909052,0.0056035966,-0.5697332,-0.14000921,-0.1309389,0.0955443
0.02,-0.3174348,-0.021320969,-0.5999486,-0.12686089,-0.095885165,0.09434796
0.022,-0.31784174,-0.04672408,-0.6374712,-0.1123331,-0.058830373,0.09229553
0.024,-0.3206494,-0.07033618,-0.6825311,-0.097038954,-0.021462884,0.08925096
0.026,-0.3259153,-0.09177548,-0.735287,-0.08178769,0.014150498,0.085025206
0.028,-0.3339887,-0.11066681,-0.7958342,-0.067296155,0.046290018,0.079393856
0.03,-0.34510756,-0.12672138,-0.86386657,-0.054667752,0.072111346,0.07204597
0.032,-0.35948572,-0.13972321,-0.93896353,-0.044603296,0.0898229,0.06280085
0.034,-0.37726006,-0.14962055,-1.0202811,-0.037490856,0.098249786,0.051510334
0.036,-0.3987862,-0.1562227,-1.1068946,-0.03335181,0.09704117,0.03815096
0.038,-0.4242418,-0.15930223,-1.1976842,-0.031839155,0.086726785,0.022864282
0.04,-0.4537084,-0.15873003,-1.2914605,-0.032298286,0.06858793,0.0059818733
0.042,-0.4872456,-0.1543105,-1.386906,-0.03389433,0.04442846,-0.011994409
0.044,-0.5249337,-0.14602843,-1.4828643,-0.03575821,0.0162872,-0.030433916
0.046,-0.56643236,-0.13375992,-1.5780731,-0.03713105,-0.0139205,-0.048689395
0.048,-0.6115183,-0.11754951,-1.6712751,-0.037515394,-0.04469075,-0.066176966
0.05,-0.6595843,-0.09761447,-1.7609323,-0.03670586,-0.075092725,-0.08241702
0.052,-0.7101245,-0.074177474,-1.8456105,-0.034806907,-0.10481434,-0.09708756
0.054,-0.7623296,-0.04757899,-1.9236859,-0.03217814,-0.13412702,-0.10994897
0.056,-0.8154456,-0.019006163,-1.993969,-0.029320285,-0.1636964,-0.12085432
0.058,-0.8685051,0.012008041,-2.0551941,-0.026701733,-0.19425914,-0.12990831
0.06,-0.920267,0.0450598,-2.1062205,-0.024733797,-0.22636682,-0.13725619
0.062,-0.969686,0.07955739,-2.1457872,-0.023746401,-0.2602762,-0.1428364
0.064,-1.0150963,0.11479232,-2.172702,-0.023882836,-0.2958355,-0.14649911
0.066,-1.0551404,0.14993235,-2.1858702,-0.025032267,-0.33251837,-0.14816241
0.068,-1.0884184,0.18421635,-2.184811,-0.026954845,-0.36948836,-0.147778
0.07,-1.1135296,0.21688628,-2.1695364,-0.029315367,-0.40572754,-0.14530236
0.072,-1.1293564,0.24736804,-2.140368,-0.031732976,-0.44011286,-0.14075917
0.074,-1.1348102,0.2751589,-2.0979004,-0.03385067,-0.47158736,-0.13424292
0.076,-1.1290352,0.29992327,-2.0425515,-0.035343766,-0.4992584,-0.12591499
0.078,-1.1122575,0.32207742,-1.9749922,-0.035955936,-0.52253795,-0.11601286
0.08,-1.0836635,0.34122798,-1.8955178,-0.035535008,-0.5411721,-0.10482421
0.082,-1.0413834,0.35661304,-1.8060797,-0.033989027,-0.55518913,-0.092659846
0.084,-0.98627365,0.36931974,-1.7074262,-0.03129953,-0.5648673,-0.07985851
0.086,-0.9204733,0.38050187,-1.5985231,-0.027481973,-0.5706454,-0.06673884
0.088,-0.8449934,0.38998723,-1.4788641,-0.0225631,-0.5730549,-0.05353083
0.09,-0.7605146,0.39777496,-1.3502414,-0.01655224,-0.57268846,-0.040410716
0.092,-0.6678672,0.4044714,-1.215723,-0.009431183,-0.57013583,-0.027519751
0.094,-0.56838214,0.4107461,-1.0781398,-0.0011661947,-0.56593955,-0.014984288
0.096,-0.46319684,0.41780487,-0.93954855,0.0082938075,-0.5605694,-0.0029432196
0.098,-0.35416013,0.42705935,-0.8012225,0.01901868,-0.5544116,0.008457481
0.1,-0.2429065,0.43971273,-0.66381186,0.031062722,-0.54774153,0.019040838
0.102,-0.13143946,0.4567934,-0.5277088,0.044507593,-0.54072505,0.028630387
0.104,-0.021588802,0.4792797,-0.39344692,0.059410006,-0.5334509,0.037053037
0.106,0.084793866,0.50791013,-0.26160207,0.075818315,-0.52588373,0.044147577
0.108,0.18621288,0.5432221,-0.13239452,0.09378454,-0.517892,0.049763873
0.11,0.2812634,0.5854916,-0.005865842,0.113367766,-0.50930166,0.053776525
0.112,0.36844647,0.63495326,0.11774674,0.1346308,-0.49992126,0.05612525
0.114,0.44672582,0.6916753,0.2379425,0.1576292,-0.48961484,0.056813926
0.116,0.5153172,0.75580823,0.35408992,0.18236217,-0.4783324,0.05591915
0.118,0.57299054,0.82768387,0.4668388,0.20877077,-0.4661653,0.05356493
0.12,0.61960214,0.9075589,0.5753314,0.23669542,-0.45335132,0.04991831
0.122,0.6544826,0.9953649,0.6792479,0.26591265,-0.440269,0.045246363
0.124,0.6775398,1.090652,0.7785152,0.29611456,-0.42734736,0.039877653
0.126,0.68907356,1.1926705,0.8729672,0.32694006,-0.41499853,0.034175444
0.128,0.68939185,1.3008236,0.96298265,0.35800177,-0.4035305,0.02852019
0.13,0.6791625,1.4143467,1.049019,0.38893658,-0.39302897,0.023295665
0.132,0.6591269,1.5321634,1.1313375,0.41945317,-0.3833077,0.01886502
0.134,0.63068104,1.653263,1.2096107,0.4493563,-0.3739203,0.0155469645
0.136,0.5949792,1.7764822,1.2835637,0.4785204,-0.36419314,0.013596046
0.138,0.5533545,1.9006251,1.3532021,0.5069277,-0.3532878,0.01320027
0.14,0.5069724,2.024716,1.4182719,0.53460515,-0.34029508,0.014453349
0.142,0.4572733,2.1477716,1.4783046,0.561622,-0.32435846,0.017350996
0.144,0.40513366,2.2690334,1.5326427,0.58805066,-0.3047676,0.021783886
0.146,0.35186636,2.387404,1.5803747,0.61394095,-0.28105038,0.02755746
0.148,0.29841715,2.5019822,1.6203024,0.63932896,-0.25293875,0.034351487
0.15,0.24582613,2.6121602,1.6514559,0.66419184,-0.22036175,0.041718908
0.152,0.19445515,2.7173758,1.6730686,0.68850815,-0.18344045,0.049136333
0.154,0.14508402,2.817392,1.6846846,0.7123115,-0.14236389,0.056063447
0.156,0.09749973,2.9118457,1.6857992,0.7356756,-0.09735179,0.06195579
0.158,0.051697135,3.000758,1.6759102,0.7587229,-0.04867336,0.06629298
0.16,0.0074305534,3.0841355,1.6542535,0.7815859,0.0033169985,0.068673626
0.162,-0.035353303,3.1621544,1.6203977,0.80437005,0.058210164,0.06882893
0.164,-0.07707143,3.2351394,1.5739017,0.8271185,0.11550745,0.06659751
0.166,-0.118193865,3.3035047,1.5144658,0.8497779,0.1745094,0.06191016
0.168,-0.15931964,3.3679585,1.4421499,0.8721671,0.23429579,0.054822654
0.17,-0.20106041,3.4288087,1.3574294,0.893991,0.29377317,0.045512635
0.172,-0.24381304,3.48674,1.2606959,0.914846,0.3516955,0.034252044
0.174,-0.28821468,3.5422745,1.1527201,0.93427026,0.40672433,0.02132732
0.176,-0.33439338,3.596256,1.0342463,0.9517963,0.4575528,0.007022213
0.178,-0.3825723,3.6491792,0.9064331,0.96701133,0.50298876,-0.008368589
0.18,-0.43290472,3.7014909,0.77040267,0.9795713,0.5420364,-0.024638232
0.182,-0.48489213,3.7534597,0.6277577,0.9892642,0.5739887,-0.041704267
0.184,-0.5380124,3.8054242,0.48026574,0.9960261,0.5984625,-0.059641488
0.186,-0.5917586,3.857562,0.3294142,0.9999362,0.6154713,-0.07868275
0.188,-0.64543855,3.909749,0.17633851,1.0012153,0.6253618,-0.099188596
0.19,-0.6981989,3.962195,0.021726862,1.0001732,0.6287668,-0.12160869
0.192,-0.74920547,4.015271,-0.13352963,0.9971802,0.6265362,-0.14641118
0.194,-0.79745567,4.0690627,-0.28838563,0.9926255,0.6196294,-0.17403165
0.196,-0.8422878,4.123501,-0.44181484,0.9868635,0.6090336,-0.20486444
0.198,-0.8826045,4.178651,-0.592497,0.98020923,0.5957176,-0.23918036
0.2,-0.91753805,4.234422,-0.7389397,0.9729185,0.58061284,-0.27713898
0.202,-0.9461628,4.290499,-0.8799021,0.9652018,0.56452215,-0.31873035
0.204,-0.9677144,4.346571,-1.0145265,0.957264,0.5481623,-0.36378372
0.206,-0.9813925,4.4020767,-1.1419452,0.9492488,0.5322085,-0.41203398
0.208,-0.98633265,4.4567275,-1.2611703,0.9413035,0.51720846,-0.46313655
0.21,-0.9821987,4.510298,-1.3715574,0.9335716,0.50362647,-0.5166694
0.212,-0.9682276,4.5623217,-1.4725927,0.92623514,0.49187097,-0.57213634
0.214,-0.9441012,4.6124763,-1.5638627,0.91953105,0.48224607,-0.62903285
0.216,-0.9098381,4.660598,-1.6448821,0.91367203,0.47488025,-0.68683946
0.218,-0.86487603,4.7063007,-1.7151456,0.908846,0.46974173,-0.745
0.22,-0.8090713,4.749547,-1.7741696,0.90519506,0.46671832,-0.8029915
0.222,-0.7423713,4.790206,-1.8215346,0.90281856,0.465578,-0.86043346
0.224,-0.6650977,4.828087,-1.8570371,0.9017443,0.465961,-0.9170264
0.226,-0.5773523,4.863273,-1.8801167,0.90196174,0.4674849,-0.97250146
0.228,-0.47891498,4.895581,-1.8915491,0.90336645,0.46976972,-1.0265622
0.23,-0.37076807,4.92507,-1.8905108,0.9057847,0.4724236,-1.0789284
0.232,-0.25296664,4.951864,-1.877285,0.90898144,0.47506496,-1.1293677
0.234,-0.12618661,4.97633,-1.8528278,0.91267145,0.47732452,-1.1776098
0.236,0.008936405,4.9989014,-1.8180822,0.91649735,0.47885567,-1.2233909
0.238,0.15134978,5.020389,-1.7741089,0.9200582,0.47934797,-1.2664771
0.24,0.30026317,5.0413947,-1.7215173,0.92295945,0.47851276,-1.3067243
0.242,0.45448446,5.0628104,-1.6606065,0.92482567,0.47613183,-1.344069
0.244,0.6123817,5.085439,-1.5915539,0.92533517,0.47206992,-1.3785042
0.246,0.7728572,5.110008,-1.5151482,0.9242561,0.46630242,-1.410096
0.248,0.9347024,5.1372895,-1.4323654,0.921448,0.45894438,-1.4389485
0.25,1.0967218,5.168024,-1.3441771,0.91687804,0.45023456,-1.4651492
0.252,1.2573214,5.20288,-1.2511262,0.9106104,0.440499,-1.4888046
0.254,1.4152067,5.242508,-1.153836,0.9027856,0.43013293,-1.509989
0.256,1.5686324,5.287715,-1.0526248,0.8936088,0.41957957,-1.5287682
0.258,1.7160504,5.338862,-0.94765234,0.88332534,0.40928817,-1.545212
0.26,1.8557088,5.396269,-0.8392173,0.87220645,0.3996911,-1.5593785
0.262,1.9865105,5.4601994,-0.72798765,0.8605156,0.39116776,-1.5713326
0.264,2.1069233,5.5306487,-0.6144691,0.8485129,0.38403144,-1.5811636
0.266,2.2159853,5.607654,-0.49927217,0.8364186,0.3785011,-1.5890166
0.268,2.3124123,5.6910443,-0.38286555,0.8244252,0.37470657,-1.5951145
0.27,2.3952897,5.780698,-0.26538786,0.8127389,0.3727274,-1.5997273
0.272,2.464091,5.875877,-0.14748695,0.8015181,0.3725587,-1.6031656
0.274,2.5182505,5.975932,-0.029714227,0.7908771,0.37410155,-1.6057245
0.276,2.557904,6.080174,0.08766723,0.78086114,0.3771898,-1.6076548
0.278,2.5832396,6.187909,0.20421207,0.77146554,0.38157058,-1.6092232
0.28,2.5944605,6.2983875,0.3191685,0.7626176,0.38689128,-1.6107081
0.282,2.5917945,6.4105935,0.43196738,0.75421274,0.3927702,-1.6123623
0.284,2.5758345,6.5236344,0.5417377,0.7461009,0.39883,-1.6144116
0.286,2.5468454,6.636668,0.64735997,0.7381221,0.40472722,-1.6170387
0.288,2.5058494,6.7487044,0.7478195,0.73013306,0.41021338,-1.620445
0.29,2.4551742,6.8584895,0.8417096,0.72204244,0.41513994,-1.6248062
0.292,2.3958955,6.966072,0.9273257,0.7137874,0.4194711,-1.6303524
0.294,2.329674,7.070827,1.0042278,0.70535475,0.42329136,-1.6373086
0.296,2.2586157,7.171624,1.0726165,0.696792,0.42677182,-1.6459167
0.298,2.1846235,7.267617,1.1326294,0.68815684,0.4300889,-1.6564229
0.3,2.1087198,7.3581524,1.1840914,0.6794814,0.43341553,-1.6690468
0.302,2.0323572,7.44273,1.2261695,0.6707965,0.4368556,-1.6839616
0.304,1.9571811,7.521038,1.2576966,0.6620577,0.44036484,-1.7012733
0.306,1.8849138,7.592825,1.2782192,0.6531576,0.44372442,-1.721006
0.308,1.817391,7.657693,1.287398,0.6439065,0.44654444,-1.7431492
0.31,1.7565134,7.7154336,1.2850819,0.6340388,0.44826177,-1.7676892
0.312,1.7042079,7.7656827,1.2713528,0.6232432,0.44815665,-1.7945569
0.314,1.6615729,7.8088045,1.2473066,0.61118877,0.44542563,-1.8236512
0.316,1.6301081,7.8445525,1.2146465,0.5975342,0.43922472,-1.854854
0.318,1.6113696,7.8718367,1.1744409,0.5819327,0.4285974,-1.8880055
0.32,1.606369,7.890096,1.1280981,0.5640813,0.41267923,-1.9228828
0.322,1.6160293,7.899279,1.077184,0.5437221,0.39070886,-1.9593171
0.324,1.6415805,7.8990307,1.0230501,0.5206787,0.36206418,-1.9972236
0.326,1.6838868,7.8891087,0.96732736,0.49488214,0.32636383,-2.036514
0.328,1.7433406,7.869436,0.9119665,0.4663619,0.28347796,-2.0770829
0.33,1.820082,7.8396463,0.858913,0.4352614,0.2335383,-2.118818
0.332,1.9139092,7.799762,0.80994374,0.40176618,0.17690453,-2.1615767
0.334,2.0245855,7.7496943,0.7668093,0.36611766,0.114144355,-2.205184
0.336,2.1513772,7.6894565,0.73078746,0.32861552,0.046025664,-2.249439
0.338,2.293541,7.6191196,0.7030532,0.28965878,-0.026438057,-2.2941034
0.34,2.4498396,7.5390973,0.68431836,0.24974364,-0.10200001,-2.338879
0.342,2.618322,7.4503064,0.6759475,0.20944601,-0.1792054,-2.3834167
0.344,2.7974005,7.3529835,0.6791972,0.16939616,-0.2564265,-2.4274101
0.346,2.9846864,7.247729,0.6946017,0.13032351,-0.3318021,-2.4705563
0.348,3.1780212,7.1352262,0.7223428,0.092952326,-0.40337145,-2.5125637
0.35,3.3750799,7.016479,0.7615607,0.057926554,-0.46929508,-2.5531886
0.352,3.573838,6.892721,0.81109065,0.025789574,-0.52791286,-2.5922227
0.354,3.772523,6.7649765,0.8699129,-0.0031573027,-0.57798696,-2.6295383
0.356,3.969152,6.634357,0.9370496,-0.028940663,-0.61887586,-2.6651337
0.358,4.1625357,6.501739,1.0106387,-0.0518647,-0.6505006,-2.6991148
0.36,4.3512683,6.3681755,1.0891368,-0.0724965,-0.67338896,-2.7316573
0.362,4.5341783,6.234546,1.1712408,-0.09160827,-0.6886096,-2.7629461
0.364,4.710627,6.1017084,1.2560332,-0.11009142,-0.6975804,-2.7931437
0.366,4.8787394,5.971102,1.342686,-0.1288351,-0.7018912,-2.8224027
0.368,5.038888,5.8428187,1.4284897,-0.1486613,-0.70314944,-2.8508265
0.37,5.190339,5.7179604,1.511394,-0.17024994,-0.70281386,-2.8784146
0.372,5.332747,5.597254,1.5909779,-0.19407208,-0.70203805,-2.905121
0.374,5.4661293,5.4813657,1.667444,-0.2204615,-0.70173997,-2.9307933
0.376,5.590143,5.3710084,1.7418306,-0.24964537,-0.70262885,-2.955124
0.378,5.7049675,5.2663217,1.8142914,-0.28174794,-0.70523655,-2.97779
0.38,5.810621,5.1675324,1.8844321,-0.31686038,-0.7100298,-2.998595
0.382,5.906968,5.0750046,1.952307,-0.35507262,-0.7174376,-3.0174973
0.384,5.9946404,4.9885883,2.0177188,-0.39647263,-0.72785866,-3.0345988
0.386,6.0734773,4.908153,2.0810804,-0.4411137,-0.74163306,-3.0501413
0.388,6.143172,4.8339458,2.143908,-0.4890418,-0.7589961,-3.064474
0.39,6.203781,4.766235,2.2081501,-0.5402786,-0.7800551,-3.0780344
0.392,6.2554235,4.704915,2.275622,-0.59480786,-0.80468464,-3.0912788
0.394,6.298321,4.649591,2.347487,-0.65253,-0.83245796,-3.1046245
0.396,6.333177,4.599417,2.4246967,-0.7132569,-0.86267567,-3.1184075
0.398,6.3605123,4.554133,2.5078998,-0.7767181,-0.8944149,-3.132738
0.4,6.3798857,4.5137377,2.5980527,-0.84264284,-0.9267949,-3.1476316
0.402,6.3922186,4.477151,2.6961205,-0.9107307,-0.9589369,-3.1631198
0.404,6.397913,4.443984,2.8024783,-0.98071826,-0.98997635,-3.1791499
0.406,6.3979087,4.4141192,2.917371,-1.0524411,-1.0192888,-3.195682
0.408,6.3928194,4.387499,3.0415504,-1.1257597,-1.046468,-3.2126234
0.41,6.384432,4.3632493,3.1759872,-1.20054,-1.071303,-3.2298949
0.412,6.3740616,4.340411,3.3214078,-1.2766907,-1.0937465,-3.2474704
0.414,6.3627276,4.31834,3.4779112,-1.3541216,-1.1138579,-3.2653909
0.416,6.35177,4.2966347,3.6451557,-1.4327313,-1.1316781,-3.2837071
0.418,6.342022,4.274823,3.8227406,-1.5123401,-1.1471293,-3.3024662
0.42,6.334115,4.2526274,4.0099235,-1.5926871,-1.1599106,-3.3216999
0.422,6.3283834,4.229962,4.2060595,-1.673388,-1.1694969,-3.3414085
0.424,6.326002,4.2062173,4.409455,-1.7539611,-1.1752017,-3.3615313
0.426,6.326659,4.181664,4.6179414,-1.8338499,-1.1763022,-3.3819463
0.428,6.3301225,4.1571493,4.8299675,-1.9124504,-1.1721464,-3.4025524
0.43,6.3363314,4.1330633,5.043578,-1.9891756,-1.1621486,-3.4233124
0.432,6.3445582,4.1095033,5.256912,-2.0635173,-1.1458708,-3.4442139
0.434,6.3537273,4.086951,5.468168,-2.1350594,-1.1229985,-3.4652355
0.436,6.3627825,4.0656185,5.6750946,-2.2034855,-1.0933502,-3.4863064
0.438,6.370608,4.04597,5.8748345,-2.2685733,-1.0569049,-3.5073438
0.44,6.375845,4.028548,6.0645967,-2.33027,-1.0137687,-3.5282683
0.442,6.3774652,4.0138097,6.2418756,-2.3886778,-0.9641393,-3.5489051
0.444,6.37409,4.002289,6.404435,-2.4439952,-0.908322,-3.5689907
0.446,6.364725,3.9945226,6.5501237,-2.4964724,-0.8467666,-3.588208
0.448,6.3483753,3.9909992,6.676683,-2.5464263,-0.7800064,-3.6062577
0.45,6.3244505,3.9918814,6.782148,-2.5941875,-0.7085886,-3.6228209
0.452,6.292966,3.9968786,6.8641553,-2.6400852,-0.633058,-3.6376982
0.454,6.253557,4.0062466,6.920884,-2.6843994,-0.55385923,-3.6506977
0.456,6.2066545,4.0199866,6.951224,-2.727397,-0.4714188,-3.6616824
0.458,6.152897,4.0377336,6.954345,-2.769274,-0.3861228,-3.6706727
0.46,6.0931273,4.0589128,6.9303007,-2.8101895,-0.29828238,-3.6777925
0.462,6.0281506,4.0828905,6.879444,-2.850307,-0.20814961,-3.6833262
0.464,5.9589434,4.109112,6.8021874,-2.8897889,-0.11592528,-3.6875918
0.466,5.8869605,4.137034,6.699482,-2.9287484,-0.02182272,-3.6909337
0.468,5.813525,4.1659775,6.5727963,-2.967269,0.07393488,-3.6936994
0.47,5.74079,4.195015,6.4237895,-3.0053728,0.17110349,-3.6962352
0.472,5.6710696,4.2233486,6.2540894,-3.0430617,0.26936573,-3.6988277
0.474,5.606315,4.250125,6.0656204,-3.0803304,0.36834425,-3.7017074
0.476,5.5496607,4.273917,5.8607755,-3.1171842,0.4676811,-3.705028
0.478,5.5019236,4.294689,5.643689,-3.1536365,0.5670466,-3.7089114
0.48,5.465268,4.311071,5.4174795,-3.1897316,0.6661334,-3.7134395
0.482,5.4414153,4.3222423,5.1842575,-3.2255344,0.7646295,-3.7186344
0.484,5.4316883,4.3276105,4.94618,-3.261142,0.8622233,-3.7244518
0.486,5.437841,4.3266177,4.705568,-3.296701,0.95854694,-3.7308526
0.488,5.4610076,4.319203,4.4658046,-3.3323853,1.0532038,-3.7378337
0.49,5.501883,4.305042,4.2303867,-3.3684034,1.1457838,-3.7454085
0.492,5.561071,4.2840157,4.002402,-3.4049785,1.2359195,-3.753557
0.494,5.638592,4.2562184,3.7846591,-3.4422724,1.3232741,-3.762251
0.496,5.7348137,4.2216425,3.5789318,-3.4803853,1.4075366,-3.7715058
0.498,5.8499603,4.1801753,3.3858042,-3.5194027,1.4884713,-3.7813268
0.5,5.983603,4.131946,3.2056768,-3.5593696,1.5658737,-3.7917147
0.502,6.13474,4.077776,3.0390902,-3.6002283,1.6395664,-3.802642
0.504,6.3021054,4.018713,2.8870595,-3.6418767,1.7093691,-3.8141274
0.506,6.484105,3.955821,2.750309,-3.6841736,1.7750776,-3.8262153
0.508,6.678822,3.890119,2.628958,-3.7269528,1.8365176,-3.8389986
0.51,6.8844194,3.822257,2.5224006,-3.7700315,1.8935205,-3.8525844
0.512,7.09906,3.7530231,2.4294338,-3.8132334,1.9459603,-3.8670874
0.514,7.32077,3.6834276,2.3476963,-3.8563812,1.9937935,-3.8825915
0.516,7.5469317,3.6145542,2.2749438,-3.8992996,2.037073,-3.8991394
0.518,7.7756586,3.5472057,2.2092514,-3.941824,2.0759268,-3.9167538
0.52,8.004077,3.4827282,2.1490238,-3.9838352,2.1105719,-3.9354217
0.522,8.229624,3.4224706,2.0928984,-4.0252013,2.141326,-3.955091
0.524,8.44974,3.3672352,2.0395122,-4.0657887,2.1685941,-3.9756882
0.526,8.661682,3.3176155,1.9868518,-4.1054783,2.192901,-3.9971333
0.528,8.862851,3.2742562,1.9328349,-4.1441145,2.2148442,-4.0193357
0.53,9.051253,3.237598,1.8756778,-4.181533,2.2350702,-4.04223
0.532,9.225172,3.20818,1.8138648,-4.217556,2.254274,-4.0657206
0.534,9.382672,3.1865,1.7460657,-4.2519917,2.273188,-4.0897207
0.536,9.522696,3.1726956,1.6711422,-4.284644,2.2925336,-4.114169
0.538,9.643997,3.1667995,1.5882261,-4.315301,2.3129563,-4.1390457
0.54,9.745885,3.1685817,1.4968815,-4.343769,2.3350573,-4.164322
0.542,9.827783,3.1780078,1.3965945,-4.3698673,2.3593402,-4.1899514
0.544,9.889688,3.1948738,1.2870197,-4.393441,2.386221,-4.2159166
0.546,9.931775,3.2192101,1.1681757,-4.4143796,2.4159915,-4.2422266
0.548,9.954741,3.2505312,1.0404837,-4.432628,2.4488032,-4.268872
0.55,9.959719,3.2884426,0.90430236,-4.4482007,2.484697,-4.295835
0.552,9.947951,3.332492,0.75994915,-4.4612255,2.5235736,-4.3231044
0.554,9.921129,3.3823445,0.60802275,-4.47191,2.5652065,-4.350651
0.556,9.880979,3.4373066,0.44944188,-4.480569,2.6091857,-4.378454
0.558,9.829658,3.4967532,0.28570467,-4.487598,2.6549397,-4.4064746
0.56,9.76953,3.5600643,0.11816387,-4.4934726,2.7016873,-4.434661
0.562,9.702725,3.6266854,-0.05201547,-4.4987793,2.748488,-4.462954
0.564,9.631684,3.6960049,-0.22372252,-4.5041404,2.794299,-4.4913177
0.566,9.558825,3.767343,-0.3955066,-4.5101953,2.8379855,-4.519711
0.568,9.486639,3.8401423,-0.5658506,-4.5175824,2.878388,-4.5480537
0.57,9.417697,3.913883,-0.7331491,-4.526884,2.9144473,-4.57623
0.572,9.354605,3.987915,-0.8955638,-4.538561,2.9452643,-4.604088
0.574,9.299964,4.061597,-1.0512198,-4.552967,2.9701881,-4.6314507
0.576,9.255912,4.1342683,-1.1986538,-4.5702996,2.9888227,-4.658157
0.578,9.224523,4.2053795,-1.3366232,-4.5906076,3.0010839,-4.6840925
0.58,9.207048,4.274383,-1.4644601,-4.6137695,3.0071788,-4.7091794
0.582,9.2045,4.3411436,-1.581208,-4.6395383,3.0076122,-4.7334414
0.584,9.217562,4.4055333,-1.685854,-4.667527,3.003138,-4.7569876
0.586,9.246745,4.4676347,-1.7772722,-4.6972475,2.994693,-4.7800603
0.588,9.292221,4.5275016,-1.8549945,-4.728164,2.9833038,-4.802961
0.59,9.3536005,4.58519,-1.9189973,-4.759717,2.9700494,-4.8260107
0.592,9.4299755,4.640774,-1.9696472,-4.7913423,2.955964,-4.8495173
0.594,9.520105,4.6945934,-2.00734,-4.8225155,2.941966,-4.873753
0.596,9.622149,4.7470336,-2.0325096,-4.852798,2.928823,-4.8989615
0.598,9.733875,4.7987237,-2.0456648,-4.881832,2.9171002,-4.92527
0.6,9.852718,4.850234,-2.0477157,-4.909341,2.9071622,-4.952721
0.602,9.975866,4.902012,-2.0399942,-4.935133,2.899191,-4.9812865
0.604,10.100354,4.9546156,-2.0242648,-4.959092,2.893177,-5.010892
0.606,10.223062,5.008687,-2.0023527,-4.9811487,2.8889732,-5.041413
0.608,10.340739,5.064838,-1.9761457,-5.001293,2.8863773,-5.0726986
0.61,10.450372,5.123662,-1.9473976,-5.0195475,2.8851476,-5.10455
0.612,10.54902,5.18565,-1.9177588,-5.0359144,2.8851132,-5.13677
0.614,10.633509,5.2511873,-1.88913,-5.050384,2.8862216,-5.1691637
0.616,10.701052,5.320636,-1.8633759,-5.0629125,2.8885226,-5.201536
0.618,10.749161,5.3941755,-1.8421675,-5.073426,2.8921676,-5.233667
0.62,10.775959,5.4720182,-1.8270867,-5.081836,2.8974254,-5.265361
0.622,10.779818,5.554412,-1.8196512,-5.088022,2.9046502,-5.2964377
0.624,10.7596245,5.641271,-1.8210503,-5.0918837,2.9142263,-5.326742
0.626,10.714789,5.732666,-1.8324212,-5.093354,2.9265604,-5.3560977
0.628,10.645035,5.82861,-1.8547343,-5.092396,2.9420354,-5.3843555
0.63,10.550908,5.9288387,-1.8889583,-5.089059,2.9609668,-5.411351
0.632,10.433609,6.032799,-1.9355807,-5.0834374,2.9835749,-5.4369087
0.634,10.294657,6.1402035,-1.9950311,-5.0756764,3.0099862,-5.460851
0.636,10.136303,6.250654,-2.0672922,-5.0659537,3.040223,-5.4829807
0.638,9.960747,6.3639603,-2.1522098,-5.054485,3.074184,-5.5031214
0.64,9.77064,6.4797783,-2.24947,-5.0414667,3.1117063,-5.5211425
0.642,9.568668,6.597578,-2.3586407,-5.0270786,3.1525445,-5.5369606
0.644,9.358206,6.716938,-2.4789338,-5.011463,3.196373,-5.5505505
0.646,9.142467,6.8375416,-2.6092653,-4.994766,3.2427921,-5.562002
0.648,8.924931,6.958855,-2.7480075,-4.977122,3.2913074,-5.571454
0.65,8.708999,7.080473,-2.8936865,-4.9586787,3.3413405,-5.5790977
0.652,8.498182,7.201759,-3.0444274,-4.9396267,3.3922584,-5.5851917
0.654,8.295546,7.322161,-3.198357,-4.9201994,3.4433613,-5.5900087
0.656,8.1043,7.440961,-3.3537512,-4.900656,3.493878,-5.5938387
0.658,7.927052,7.5578604,-3.5087206,-4.881305,3.5430248,-5.596959
0.66,7.766208,7.672428,-3.6611311,-4.8624344,3.5900748,-5.599633
0.662,7.6238403,7.7844477,-3.8089895,-4.844323,3.634387,-5.6021075
0.664,7.501716,7.893409,-3.950441,-4.827191,3.6754634,-5.604579
0.666,7.401041,7.999069,-4.0837216,-4.8112173,3.7129264,-5.6071877
0.668,7.322406,8.101195,-4.2077317,-4.796483,3.7465422,-5.610029
0.67,7.265993,8.199833,-4.3215,-4.7830105,3.7762396,-5.61314
0.672,7.2316003,8.294924,-4.424133,-4.7707458,3.8020878,-5.616553
0.674,7.218168,8.3866205,-4.514827,-4.7595983,3.824247,-5.620271
0.676,7.224351,8.47494,-4.5933948,-4.7494106,3.842892,-5.624285
0.678,7.248007,8.560137,-4.6601596,-4.739991,3.858165,-5.6285768
0.68,7.286727,8.642402,-4.715891,-4.7311277,3.870153,-5.6331244
0.682,7.3371677,8.722502,-4.761265,-4.722584,3.878823,-5.6378975
0.684,7.3969574,8.800174,-4.797529,-4.714122,3.8840332,-5.64284
0.686,7.4623785,8.876027,-4.825998,-4.705529,3.8855486,-5.6479263
0.688,7.5299196,8.950576,-4.8480005,-4.6966014,3.8830707,-5.6531353
0.69,7.5963907,9.02412,-4.865107,-4.6871266,3.8762898,-5.6584473
0.692,7.658131,9.096758,-4.8798413,-4.67689,3.8649418,-5.6638393
0.694,7.711713,9.168604,-4.8946733,-4.6656466,3.8488421,-5.6693144
0.696,7.753535,9.240096,-4.9121265,-4.653139,3.8279428,-5.67489
0.698,7.7805166,9.311371,-4.9344296,-4.6390886,3.8023963,-5.680579
0.7,7.7898006,9.3831215,-4.9634075,-4.623178,3.7725618,-5.686393
0.702,7.779303,9.455266,-5.0009904,-4.6050863,3.7389975,-5.6923256
0.704,7.7471027,9.52772,-5.0493546,-4.584491,3.702414,-5.6983485
0.706,7.691974,9.600336,-5.110756,-4.561096,3.663637,-5.70437
0.708,7.613165,9.672917,-5.1868973,-4.5347013,3.6234944,-5.71025
0.71,7.510635,9.745521,-5.2787457,-4.5051813,3.5828304,-5.7157826
0.712,7.384732,9.81794,-5.387183,-4.4724965,3.5423877,-5.7207522
0.714,7.2363567,9.889974,-5.5125675,-4.4367743,3.5027146,-5.724866
0.716,7.066552,9.96129,-5.6552377,-4.398231,3.4641693,-5.7277956
0.718,6.8772817,10.031366,-5.81497,-4.357193,3.4269278,-5.729233
0.72,6.670706,10.099873,-5.99127,-4.314066,3.3909564,-5.728921
0.722,6.449585,10.166228,-6.183326,-4.2693195,3.3560605,-5.7266097
0.724,6.216978,10.230006,-6.389676,-4.2234406,3.3219159,-5.7221026
0.726,5.976179,10.290634,-6.6084776,-4.1769056,3.2881467,-5.7152677
0.728,5.730585,10.347477,-6.837708,-4.1301336,3.2543266,-5.7060423
0.73,5.4834766,10.400107,-7.0749674,-4.0834846,3.2201188,-5.694441
0.732,5.238227,10.447776,-7.317684,-4.0372314,3.185234,-5.680581
0.734,4.99853,10.490043,-7.5631523,-3.9915574,3.1494536,-5.664596
0.736,4.7675705,10.526342,-7.8082085,-3.946569,3.1126893,-5.6466484
0.738,4.547951,10.556273,-8.050192,-3.9022965,3.0749354,-5.626932
0.74,4.3420453,10.579124,-8.287918,-3.8587666,3.0362885,-5.6056466
0.742,4.1526995,10.594445,-8.518861,-3.8159552,2.9968944,-5.582962
0.744,3.9813015,10.602775,-8.739038,-3.7738585,2.9568932,-5.5590363
0.746,3.8290877,10.6038685,-8.945179,-3.7324743,2.9164178,-5.534021
0.748,3.697721,10.596583,-9.135223,-3.6918173,2.8755577,-5.508052
0.75,3.5873885,10.580564,-9.307703,-3.6519256,2.8343432,-5.4813213
0.752,3.4982328,10.556151,-9.461801,-3.6128223,2.7927208,-5.4540358
0.754,3.4296985,10.523834,-9.596814,-3.574545,2.7505438,-5.4264045
0.756,3.3805819,10.4840355,-9.711785,-3.5370898,2.707624,-5.3986564
0.758,3.3489413,10.437305,-9.80611,-3.5004163,2.6636841,-5.3710465
0.76,3.3324347,10.384284,-9.879801,-3.4644141,2.618471,-5.3438253
0.762,3.3284464,10.325811,-9.933716,-3.4289148,2.5717752,-5.3172164
0.764,3.3342133,10.262846,-9.968865,-3.3937068,2.5234094,-5.2914314
0.766,3.3467822,10.196398,-9.986573,-3.3585033,2.4732544,-5.266629
0.768,3.362934,10.127625,-9.988288,-3.322947,2.4213328,-5.2430058
0.77,3.379611,10.057778,-9.975898,-3.2866693,2.3677132,-5.2207108
0.772,3.393556,9.987753,-9.95152,-3.249318,2.3125525,-5.1998286
0.774,3.4015436,9.918793,-9.917523,-3.210528,2.2561843,-5.1804986
0.776,3.400702,9.852181,-9.876869,-3.1699579,2.1990361,-5.162887
0.778,3.3883796,9.789408,-9.832138,-3.1273355,2.1415553,-5.1470885
0.78,3.3624063,9.7316065,-9.786141,-3.0824475,2.0841897,-5.13314
0.782,3.3208003,9.679878,-9.741797,-3.0351717,2.0274234,-5.121073
0.784,3.2622423,9.635194,-9.702236,-2.9854941,1.9717038,-5.110897
0.786,3.1856413,9.598189,-9.670339,-2.9334972,1.9174889,-5.1025896
0.788,3.0906057,9.569719,-9.648709,-2.879334,1.8652703,-5.096083
0.79,2.9770727,9.5504265,-9.639612,-2.8232017,1.8155535,-5.091244
0.792,2.8460302,9.540299,-9.645444,-2.7653425,1.7688472,-5.087872
0.794,2.6980228,9.540102,-9.668104,-2.705975,1.7256136,-5.0857496
0.796,2.534937,9.549359,-9.709258,-2.6453147,1.686301,-5.0846806
0.798,2.3585486,9.567893,-9.770418,-2.5835495,1.6512918,-5.0844526
0.8,2.1709075,9.595484,-9.853017,-2.5207913,1.6209393,-5.08489
0.802,1.9749103,9.6316185,-9.957487,-2.4571207,1.5954709,-5.0858397
0.804,1.7734575,9.675463,-10.084094,-2.3925304,1.5750204,-5.0871515
0.806,1.5696168,9.725671,-10.232634,-2.3270023,1.5596447,-5.0887
0.808,1.3661728,9.781332,-10.402417,-2.2604976,1.5493414,-5.0903654
0.81,1.166143,9.840862,-10.592796,-2.1929913,1.5440115,-5.0920434
0.812,0.97228146,9.903244,-10.802728,-2.1244564,1.5435476,-5.093577
0.814,0.7876377,9.967002,-11.030595,-2.0548558,1.5477773,-5.0948367
0.816,0.61510277,10.03041,-11.274591,-1.9841572,1.5565146,-5.095667
0.818,0.457232,10.091751,-11.532859,-1.9123495,1.5694956,-5.0959067
0.82,0.31620693,10.149285,-11.803442,-1.8394408,1.586405,-5.0954046
0.822,0.19397163,10.201595,-12.0838785,-1.7654425,1.6068292,-5.0940185
0.824,0.09197855,10.247195,-12.371853,-1.6903659,1.6302618,-5.091696
0.826,0.011788368,10.284607,-12.665051,-1.6142201,1.6560148,-5.0884113
0.828,-0.045819283,10.312502,-12.961427,-1.5370866,1.6832143,-5.0841017
0.83,-0.080476284,10.329675,-13.259065,-1.4590456,1.7109084,-5.078773
0.832,-0.092045784,10.334946,-13.555943,-1.3802059,1.7381094,-5.072555
0.834,-0.08084297,10.327606,-13.849804,-1.3006879,1.7638457,-5.0655675
0.836,-0.04815674,10.307133,-14.138919,-1.220586,1.7871633,-5.057896
0.838,0.004532337,10.273163,-14.422171,-1.1399654,1.8071492,-5.049552
0.84,0.07558012,10.225647,-14.69901,-1.058888,1.8229586,-5.0405383
0.842,0.16272926,10.1651325,-14.968757,-0.9774054,1.8338006,-5.0308743
0.844,0.26338816,10.092232,-15.230827,-0.8955314,1.8389626,-5.020589
0.846,0.37472725,10.007788,-15.485213,-0.8132584,1.8377957,-5.009678
0.848,0.4939537,9.91273,-15.731993,-0.730557,1.8296943,-4.998076
0.85,0.6178565,9.808629,-15.970274,-0.64741284,1.8140819,-4.985703
0.852,0.742218,9.697307,-16.201548,-0.5638107,1.7904353,-4.9724593
0.854,0.86418056,9.579838,-16.428362,-0.47976965,1.7582666,-4.958223
0.856,0.98011184,9.4586,-16.65237,-0.39531612,1.7172031,-4.9428787
0.858,1.0864124,9.336439,-16.874346,-0.31052744,1.6669369,-4.926301
0.86,1.1798832,9.215802,-17.094915,-0.22547287,1.6072787,-4.9083323
0.862,1.2577116,9.098285,-17.315273,-0.14024746,1.5382042,-4.8888106
0.864,1.3169475,8.986134,-17.536547,-0.05494231,1.4598553,-4.8675547
0.866,1.3556662,8.881562,-17.760437,0.030320883,1.3724937,-4.8443894
0.868,1.3721466,8.786779,-17.988623,0.11541402,1.2765168,-4.8191037
0.87,1.365468,8.703626,-18.2217,0.20022732,1.1724117,-4.7915235
0.872,1.335084,8.63369,-18.45957,0.28466624,1.0607735,-4.7614965
0.874,1.2809987,8.578206,-18.702099,0.36865896,0.9422562,-4.7289095
0.876,1.2035804,8.538289,-18.94886,0.45214385,0.8175941,-4.693692
0.878,1.1041555,8.514454,-19.19974,0.5350907,0.68759406,-4.6557827
0.88,0.98432803,8.507086,-19.454016,0.61750484,0.5531211,-4.615173
0.882,0.8464472,8.516263,-19.710619,0.69944036,0.4150471,-4.57189
0.884,0.69304895,8.541925,-19.968273,0.7809566,0.2742367,-4.526002
0.886,0.5271704,8.583357,-20.225857,0.8621336,0.13155466,-4.477605
0.888,0.35273218,8.639245,-20.482088,0.9430474,-0.012227267,-4.4268646
0.89,0.1735897,8.708784,-20.73425,1.0237796,-0.15636814,-4.373989
0.892,-0.00658226,8.790804,-20.979288,1.104431,-0.3001672,-4.319241
0.894,-0.18363237,8.883305,-21.214666,1.1851118,-0.44302434,-4.2629113
0.896,-0.3536365,8.984441,-21.438442,1.265912,-0.58440244,-4.205285
0.898,-0.51246786,9.092079,-21.6488,1.3468821,-0.723848,-4.1466455
0.9,-0.65633345,9.204611,-21.843931,1.4280645,-0.860983,-4.0872707
0.902,-0.7817023,9.320137,-22.02176,1.5094646,-0.9954808,-4.027426
0.904,-0.88596296,9.436938,-22.18016,1.5910484,-1.1270995,-3.9673362
0.906,-0.966521,9.553395,-22.317184,1.672742,-1.2556951,-3.9071646
0.908,-1.0213869,9.667875,-22.431593,1.7544029,-1.3811965,-3.8470695
0.91,-1.0488431,9.779017,-22.522678,1.8358836,-1.5035766,-3.7871673
0.912,-1.0480084,9.885871,-22.59036,1.9170206,-1.6228181,-3.727584
0.914,-1.0185189,9.987981,-22.634825,1.9976525,-1.7389154,-3.6684608
0.916,-0.9603901,10.085187,-22.656517,2.0776577,-1.8518717,-3.6099474
0.918,-0.87422943,10.17748,-22.656061,2.156951,-1.9616508,-3.5522237
0.92,-0.76124144,10.26487,-22.634289,2.2355382,-2.0681477,-3.4955697
0.922,-0.6232996,10.347757,-22.592419,2.313489,-2.171193,-3.440372
0.924,-0.46301365,10.426633,-22.532495,2.390881,-2.2706225,-3.387023
0.926,-0.28317165,10.502464,-22.45649,2.4677992,-2.3663378,-3.335889
0.928,-0.08671999,10.576422,-22.366665,2.5442772,-2.4583278,-3.2873356
0.93,0.12320471,10.649733,-22.265457,2.6202977,-2.546735,-3.241738
0.932,0.34309244,10.723642,-22.155117,2.6956882,-2.6318717,-3.1994634
0.934,0.56937075,10.799303,-22.037975,2.770173,-2.7141848,-3.160798
0.936,0.79825974,10.878065,-21.916248,2.8433607,-2.7942443,-3.1259286
0.938,1.0262995,10.961245,-21.792046,2.9148,-2.8727112,-3.0949693
0.94,1.2500062,11.050041,-21.667377,2.9840047,-2.9502804,-3.0679977
0.942,1.4660044,11.145764,-21.544264,3.0505078,-3.0276327,-3.0450542
0.944,1.6717887,11.249363,-21.42465,3.1138933,-3.1053662,-3.0261667
0.946,1.8654795,11.361655,-21.30968,3.1738093,-3.1839838,-3.011384
0.948,2.0450406,11.4833145,-21.19969,3.2300363,-3.2638283,-3.0007648
0.95,2.2090087,11.61467,-21.094938,3.2824535,-3.3451152,-2.9943988
0.952,2.3563476,11.755944,-20.995893,3.3310425,-3.427898,-2.992358
0.954,2.4865484,11.907433,-20.90285,3.3758485,-3.512098,-2.9946768
0.956,2.5998225,12.069181,-20.815865,3.4169765,-3.5975132,-3.001361
0.958,2.6966171,12.241135,-20.734436,3.4545774,-3.6837988,-3.0123634
0.96,2.7782092,12.423311,-20.657902,3.4888644,-3.7704635,-3.0276084
0.962,2.8462243,12.615261,-20.585005,3.520101,-3.8568697,-3.0469637
0.964,2.9025826,12.816439,-20.514269,3.5485673,-3.9422612,-3.070269
0.966,2.9497218,13.026181,-20.444288,3.5745752,-4.02578,-3.0973442
0.968,2.990222,13.243663,-20.373447,3.5984578,-4.106526,-3.12798
0.97,3.0266147,13.467867,-20.300316,3.62056,-4.183548,-3.161984
0.972,3.0610504,13.698215,-20.223133,3.641222,-4.2559357,-3.1991658
0.974,3.096342,13.933641,-20.140799,3.6607444,-4.3228683,-3.2392888
0.976,3.1348271,14.173325,-20.052,3.6793861,-4.383642,-3.282116
0.978,3.1793628,14.416223,-19.955254,3.6973603,-4.4376507,-3.3274646
0.98,3.231862,14.6613245,-19.84929,3.7148235,-4.484409,-3.375144
0.982,3.2946978,14.9073715,-19.73323,3.7318735,-4.5236053,-3.424952
0.984,3.3695126,15.153255,-19.605959,3.7485335,-4.5550823,-3.4767003
0.986,3.4578433,15.39784,-19.465721,3.7647984,-4.578804,-3.5302382
0.988,3.560389,15.6401825,-19.310776,3.7806332,-4.5948544,-3.5854764
0.99,3.678042,15.878811,-19.140133,3.7960136,-4.603392,-3.642402
0.992,3.8109913,16.112516,-18.953075,3.8109026,-4.604613,-3.7010438
0.994,3.9596975,16.339867,-18.749348,3.825314,-4.598711,-3.7615008
0.996,4.1241903,16.55991,-18.52837,3.8393228,-4.58584,-3.8239083
0.998,4.3034,16.771732,-18.28974,3.8530707,-4.566119,-3.8884645
1,4.4962587,16.974075,-18.033924,3.866783,-4.5396223,-3.955357
1.002,4.7017155,17.16634,-17.761965,3.880736,-4.5063415,-4.0247445
1.004,4.917843,17.348396,-17.474663,3.8952477,-4.4662347,-4.096791
1.006,5.1428843,17.519928,-17.172634,3.910689,-4.419234,-4.171657
1.008,5.3747263,17.6807,-16.856722,3.9274328,-4.365278,-4.2495074
1.01,5.611409,17.830437,-16.528042,3.9458427,-4.3043456,-4.330474
1.012,5.8507204,17.969414,-16.18806,3.966225,-4.236511,-4.41468
1.014,6.0907936,18.0979,-15.838266,3.9888086,-4.161931,-4.502195
1.016,6.3297124,18.216234,-15.480428,4.013716,-4.0808945,-4.5930767
1.018,6.565725,18.325111,-15.11589,4.0409503,-3.9937625,-4.687368
1.02,6.7968783,18.42528,-14.746033,4.0703835,-3.9010348,-4.785066
1.022,7.0214987,18.517584,-14.372904,4.1017013,-3.8032646,-4.8860893
1.024,7.238279,18.603132,-13.998489,4.134471,-3.7010007,-4.990282
1.026,7.445982,18.683153,-13.624776,4.168129,-3.5947177,-5.097433
1.028,7.643811,18.759161,-13.253617,4.202068,-3.4847317,-5.2072735
1.03,7.831648,18.832895,-12.886482,4.235698,-3.3711104,-5.3194747
1.032,8.00994,18.90597,-12.52419,4.268485,-3.2536595,-5.4336677
1.034,8.179289,18.980093,-12.167824,4.300007,-3.1318905,-5.549505
1.036,8.340843,19.056726,-11.818435,4.3299737,-3.0050585,-5.666634
1.038,8.496085,19.137222,-11.4767475,4.3582625,-2.872213,-5.784748
1.04,8.646685,19.223135,-11.1433735,4.3848534,-2.7322898,-5.903627
1.042,8.794841,19.315954,-10.819119,4.409799,-2.5842195,-6.0231495
1.044,8.943265,19.41712,-10.504158,4.4332027,-2.426973,-6.143248
1.046,9.094815,19.528082,-10.198322,4.4551806,-2.2596536,-6.263901
1.048,9.252617,19.649809,-9.90114,4.4758263,-2.081544,-6.3850975
1.05,9.419956,19.783398,-9.612137,4.4951954,-1.8920741,-6.506835
1.052,9.600284,19.929398,-9.330571,4.5133057,-1.6908587,-6.6290913
1.054,9.796694,20.088202,-9.055511,4.530152,-1.4776185,-6.7518015
1.056,10.012188,20.260124,-8.786257,4.545758,-1.2521411,-6.8748665
1.058,10.249904,20.445492,-8.522372,4.5601883,-1.0142406,-6.99809
1.06,10.512442,20.644241,-8.263117,4.573557,-0.76374674,-7.1211996
1.062,10.802341,20.855942,-8.008022,4.586053,-0.5004468,-7.2439013
1.064,11.121732,21.079819,-7.756591,4.5979853,-0.22417879,-7.3659
1.066,11.472414,21.315197,-7.508525,4.609728,0.0651238,-7.4869156
1.068,11.855875,21.561195,-7.2641163,4.6216965,0.3673756,-7.6066847
1.07,12.273222,21.816357,-7.023634,4.6343384,0.68233633,-7.724959
1.072,12.724843,22.07908,-6.7879405,4.648101,1.0095475,-7.841543
1.074,13.211058,22.347704,-6.558477,4.663418,1.3483937,-7.956287
1.076,13.731388,22.620525,-6.3365946,4.68069,1.6980395,-8.069073
1.078,14.28492,22.895786,-6.1242905,4.7002635,2.0574665,-8.179796
1.08,14.870875,23.171343,-5.923687,4.722412,2.4255428,-8.288332
1.082,15.487965,23.444935,-5.7368875,4.747335,2.8010893,-8.394536
1.084,16.134518,23.714254,-5.566085,4.775142,3.1829026,-8.498214
1.086,16.808134,23.976908,-5.4138465,4.8059072,3.5698318,-8.599104
1.088,17.506088,24.23053,-5.2828145,4.8396235,3.9608216,-8.696833
1.09,18.225521,24.472956,-5.1755557,4.8762407,4.35496,-8.790915
1.092,18.963018,24.702095,-5.0945525,4.91566,4.751519,-8.88077
1.094,19.715412,24.915768,-5.042274,4.957778,5.149888,-8.965685
1.096,20.479303,25.111881,-5.021654,5.002472,5.5496097,-9.044932
1.098,21.251472,25.288692,-5.0345535,5.0495996,5.9503446,-9.117796
1.1,22.027985,25.445303,-5.0817504,5.0990148,6.351865,-9.183615
1.102,22.805552,25.580498,-5.1632175,5.150565,6.754035,-9.241812
1.104,23.580568,25.693542,-5.2789364,5.2040787,7.1567574,-9.2919035
1.106,24.349594,25.783623,-5.428403,5.2593756,7.559992,-9.3335285
1.108,25.109737,25.85049,-5.611359,5.3162117,7.9636908,-9.366438
1.11,25.858906,25.894272,-5.826211,5.3742476,8.367754,-9.390457
1.112,26.595636,25.915417,-6.0707397,5.433079,8.772099,-9.405469
1.114,27.31893,25.914507,-6.3420234,5.492196,9.176628,-9.411359
1.116,28.028448,25.892593,-6.6373024,5.5510197,9.581236,-9.407977
1.118,28.723867,25.850992,-6.9538345,5.6088743,9.985847,-9.395111
1.12,29.40535,25.79137,-7.288916,5.665062,10.390423,-9.372505
1.122,30.074541,25.715523,-7.639929,5.718874,10.794888,-9.33989
1.124,30.733046,25.625807,-8.00438,5.7695913,11.199129,-9.296981
1.126,31.383514,25.524727,-8.378554,5.816527,11.602993,-9.2435055
1.128,32.02893,25.414326,-8.759161,5.8589993,12.006193,-9.17927
1.13,32.672813,25.297152,-9.142805,5.8963575,12.408337,-9.104173
1.132,33.319843,25.174976,-9.525795,5.927941,12.80891,-9.01823
1.134,33.974552,25.04939,-9.905104,5.953127,13.207216,-8.921577
1.136,34.64218,24.922148,-10.278742,5.971283,13.602422,-8.814485
1.138,35.328636,24.79429,-10.64498,5.981752,13.993521,-8.697279
1.14,36.039246,24.667347,-11.0027685,5.983844,14.379465,-8.570301
1.142,36.778877,24.542768,-11.351771,5.97695,14.759244,-8.433918
1.144,37.55264,24.421747,-11.690822,5.9604564,15.131689,-8.288529
1.146,38.365967,24.304838,-12.019408,5.93375,15.495569,-8.134462
1.148,39.224056,24.191969,-12.337639,5.8962927,15.849649,-7.9720287
1.15,40.132355,24.082502,-12.646181,5.847575,16.19269,-7.8015013
1.152,41.096405,23.975403,-12.945846,5.787144,16.523506,-7.623102
1.154,42.121635,23.86892,-13.237724,5.7145667,16.840988,-7.4370856
1.156,43.213684,23.76086,-13.522997,5.6294627,17.144089,-7.2437105
1.158,44.37874,23.648264,-13.802822,5.5314813,17.43201,-7.043257
1.16,45.62339,23.527506,-14.078104,5.420322,17.70412,-6.836025
1.162,46.95351,23.395138,-14.350272,5.2957077,17.959993,-6.622347
1.164,48.375206,23.2472,-14.620561,5.1574097,18.199493,-6.40247
1.166,49.894726,23.079704,-14.890415,5.0051737,18.422655,-6.1766067
1.168,51.518326,22.887856,-15.161611,4.838745,18.629719,-5.9449334
1.17,53.25285,22.666786,-15.435423,4.6578565,18.821136,-5.707565
1.172,55.105682,22.411156,-15.713787,4.4623346,18.997555,-5.464533
1.174,57.084404,22.115849,-15.998405,4.251948,19.159864,-5.215948
1.176,59.19679,21.776018,-16.29075,4.026432,19.309252,-4.961904
1.178,61.449203,21.38834,-16.5923,3.7855058,19.447094,-4.70245
1.18,63.84783,20.95102,-16.904016,3.5288923,19.574903,-4.437542
1.182,66.39853,20.464249,-17.226887,3.2563088,19.694254,-4.1671047
1.184,69.10671,19.928947,-17.56162,2.9675097,19.806637,-3.89103
1.186,71.978455,19.347065,-17.90645,2.6622267,19.913326,-3.609208
1.188,75.01874,18.725597,-18.262312,2.340168,20.015266,-3.3215163
1.19,78.23109,18.07388,-18.629166,2.0009806,20.113058,-3.0277486
1.192,81.61865,17.403755,-19.011063,1.6442506,20.206871,-2.7276618
1.194,85.17842,16.731735,-19.415016,1.269454,20.29657,-2.4209993
1.196,88.901566,16.083303,-19.844315,0.87595224,20.381819,-2.1073575
1.198,92.77326,15.494674,-20.30209,0.46304703,20.462416,-1.7861457
1.2,96.778786,15.006478,-20.784573,0.029978275,20.538546,-1.4563822
1.202,100.899635,14.637792,-21.290386,-0.4239576,20.61117,-1.1164622
1.204,105.11755,14.406956,-21.823467,-0.8993552,20.682028,-0.7639097
1.206,109.41622,14.354419,-22.38931,-1.3966498,20.753433,-0.3953368
1.208,113.77682,14.528052,-22.992054,-1.9159172,20.828392,-0.0063766837
1.21,118.18882,14.969577,-23.630709,-2.4567764,20.910484,0.40831256
1.212,122.62782,15.752247,-24.315779,-3.0184927,21.003325,0.85489416
1.214,127.07985,16.92859,-25.060696,-3.6000767,21.110088,1.3401415
1.216,131.50854,18.569202,-25.871416,-4.2003617,21.233097,1.8713655
1.218,135.90785,20.668802,-26.741858,-4.8179417,21.37295,2.455689
1.22,140.29057,23.199581,-27.704504,-5.4514494,21.528078,3.0989685
1.222,144.63748,26.202728,-28.793144,-6.0997005,21.6941,3.8049965
1.224,148.88995,29.73663,-30.040052,-6.7619214,21.862663,4.5744777
1.226,153.00175,33.814617,-31.407799,-7.438032,22.021051,5.4047236
1.228,156.96425,38.467762,-32.864525,-8.127829,22.153595,6.28926
1.23,160.77693,43.721153,-34.410866,-8.83266,22.241278,7.217348
1.232,164.4507,49.601696,-35.992374,-9.555908,22.262232,8.175742
1.234,167.9979,56.09644,-37.621754,-10.301716,22.193218,9.150868
1.236,171.41579,63.097893,-39.32833,-11.076235,22.006523,10.12952
1.238,174.7124,70.48617,-40.990814,-11.886841,21.672146,11.100557
1.24,177.91289,78.152176,-42.58082,-12.742936,21.160486,12.058326
1.242,181.06665,86.02783,-44.013786,-13.654855,20.443531,13.004635
1.244,184.21967,93.991974,-45.257126,-14.633638,19.493874,13.949525
1.246,187.38036,101.96165,-46.28518,-15.690021,18.286598,14.913972
1.248,190.58195,109.83152,-47.047638,-16.832373,16.80231,15.93399
1.25,193.82004,117.49869,-47.47698,-18.066164,15.030005,17.06113
1.252,197.14499,124.84506,-47.499275,-19.3876,12.981543,18.335575
1.254,200.59024,131.70107,-47.05354,-20.788208,10.6749525,19.810993
1.256,204.15454,137.93149,-46.085125,-22.26409,8.140536,21.533926
1.258,207.86526,143.4296,-44.543247,-23.816069,5.415037,23.53375
1.26,211.71497,148.09589,-42.351803,-25.433754,2.5397263,25.81875
1.262,215.70183,151.85558,-39.419376,-27.098904,-0.429286,28.37827
1.264,219.79352,154.69261,-35.698994,-28.80157,-3.4286928,31.175459
1.266,223.90349,156.61366,-31.165058,-30.529758,-6.404462,34.127182
1.268,227.92343,157.63144,-25.813437,-32.262905,-9.289252,37.09029
1.27,231.72887,157.77734,-19.653913,-34.00053,-12.053652,39.94396
1.272,235.22028,157.09691,-12.708417,-35.73575,-14.684528,42.538315
1.274,238.2797,155.6592,-5.03259,-37.441906,-17.177366,44.70741
1.276,240.77534,153.53288,3.3094664,-39.06775,-19.542181,46.28286
1.278,242.58069,150.78967,12.220753,-40.54299,-21.810238,47.109478
1.28,243.57982,147.5107,21.576332,-41.7764,-24.022392,47.05725
1.282,243.67125,143.78152,31.221008,-42.650066,-26.205578,46.03818
1.284,242.77322,139.70158,40.970303,-43.031487,-28.360458,44.015953
1.286,240.83043,135.36601,50.625847,-42.791344,-30.456347,41.009735
1.288,237.8265,130.86465,59.98098,-41.816807,-32.431915,37.10488
1.29,233.77489,126.288055,68.82893,-40.027027,-34.192783,32.459114
1.292,228.72287,121.72221,76.97278,-37.388676,-35.610996,27.291775
1.294,222.75479,117.2433,84.23382,-33.9256,-36.553253,21.856438
1.296,215.98473,112.918365,90.45622,-29.721024,-36.902542,16.42255
1.298,208.55008,108.803955,95.5156,-24.911777,-36.569,11.261707
1.3,200.6058,104.95412,99.31802,-19.68,-35.506393,6.6221237
1.302,192.3164,101.41733,101.811806,-14.239603,-33.727386,2.7090864
1.304,183.85468,98.22313,102.9885,-8.814295,-31.307842,-0.3216858
1.306,175.39906,95.38047,102.8687,-3.6201973,-28.380516,-2.3563557
1.308,167.11653,92.884735,101.506065,1.1566305,-25.100807,-3.3625517
1.31,159.15157,90.72478,98.98104,5.378922,-21.643532,-3.373417
1.312,151.626,88.90077,95.40722,8.9625225,-18.180866,-2.4903064
1.314,144.63437,87.39585,90.92548,11.866861,-14.869206,-0.8854841
1.316,138.24358,86.16343,85.69141,14.101488,-11.84584,1.2048928
1.318,132.49542,85.15265,79.86645,15.731265,-9.210307,3.5085464
1.32,127.39821,84.319275,73.60878,16.853092,-7.012041,5.7536764
1.322,122.94941,83.592064,67.08115,17.582296,-5.2739987,7.6941223
1.324,119.11333,82.92641,60.434326,18.061487,-3.9563584,9.077143
1.326,115.85518,82.26407,53.793568,18.416649,-2.9996061,9.745092
1.328,113.095146,81.613,47.257008,18.747456,-2.332446,9.634921
1.33,110.73637,80.974686,40.936504,19.128181,-1.8671899,8.774523
1.332,108.71466,80.274155,34.9137,19.61373,-1.5018978,7.272086
1.334,106.99293,79.438156,29.239204,20.233618,-1.1392059,5.3008127
1.336,105.508835,78.45009,23.886724,20.984598,-0.7055416,3.0727031
1.338,104.16901,77.28189,18.842773,21.842552,-0.15162468,0.81384265
1.34,102.89143,75.92271,14.121925,22.769701,0.5486584,-1.2605917
1.342,101.60497,74.37059,9.685045,23.715307,1.3983994,-2.9751987
1.344,100.26032,72.665215,5.5586367,24.622847,2.3746414,-4.2103863
1.346,98.838,70.912605,1.7647243,25.436592,3.4250007,-4.903005
1.348,97.31993,69.187454,-1.8072968,26.107494,4.4897995,-5.0390406
1.35,95.68513,67.522835,-5.146948,26.595272,5.509834,-4.65502
1.352,93.90864,65.90358,-8.288325,26.871035,6.4270964,-3.8348682
1.354,91.98859,64.36228,-11.20375,26.920568,7.1934185,-2.6920683
1.356,89.96212,62.888565,-13.8664,26.744453,7.779152,-1.3551478
1.358,87.83689,61.498096,-16.278397,26.353348,8.174637,0.04359883
1.36,85.65022,60.20269,-18.45366,25.765842,8.383021,1.3849336
1.362,83.37952,59.0279,-20.405321,25.007675,8.418842,2.577132
1.364,81.02336,58.034397,-22.132898,24.107983,8.309046,3.5637746
1.366,78.60348,57.232582,-23.635546,23.095753,8.086923,4.3259816
1.368,76.10521,56.60705,-24.918995,21.999142,7.7875524,4.878748
1.37,73.54059,56.145622,-26.018398,20.84603,7.4439316,5.2607737
1.372,70.90537,55.825127,-26.979767,19.662374,7.0837755,5.5221815
1.374,68.21602,55.59182,-27.809072,18.470055,6.7282076,5.71537
1.376,65.518585,55.406532,-28.509924,17.286945,6.39126,5.887557
1.378,62.849792,55.255386,-29.08809,16.127794,6.080737,6.075037
1.38,60.235554,55.13,-29.559002,15.00453,5.7987247,6.3004923
1.382,57.665512,55.027855,-29.946014,13.925983,5.542208,6.5732017
1.384,55.145657,54.94223,-30.260454,12.898061,5.3049927,6.891473
1.386,52.692497,54.88079,-30.525112,11.923625,5.079422,7.24525
1.388,50.316917,54.854553,-30.748047,11.003462,4.8571095,7.6186423
1.39,48.025448,54.867073,-30.93108,10.1375885,4.6305385,7.99294
1.392,45.82389,54.917717,-31.066326,9.325187,4.394247,8.349663
1.394,43.716263,54.99322,-31.139889,8.564672,4.144908,8.672825
1.396,41.703457,55.08459,-31.142895,7.854097,3.8811746,8.950049
1.398,39.77728,55.18413,-31.070152,7.1915803,3.603459,9.172995
1.4,37.931362,55.279636,-30.921112,6.5755467,3.3140497,9.337989
1.402,36.157715,55.359516,-30.700377,6.0047817,3.0168462,9.446195
1.404,34.44342,55.417778,-30.41708,5.4784822,2.7169304,9.502685
1.406,32.77695,55.450783,-30.082563,4.9962673,2.4202242,9.515127
1.408,31.15075,55.454662,-29.70705,4.5580745,2.133109,9.492544
1.41,29.560587,55.422413,-29.29871,4.163875,1.8619777,9.4441185
1.412,28.004517,55.348213,-28.867762,3.8135471,1.6128982,9.378266
1.414,26.481543,55.23675,-28.425869,3.5066693,1.3911362,9.301854
1.416,24.986202,55.09848,-27.978783,3.242269,1.2007776,9.219716
1.418,23.517015,54.941704,-27.529041,3.0186257,1.0444567,9.134554
1.42,22.075453,54.77295,-27.07911,2.8330493,0.9231047,9.047353
1.422,20.663391,54.598698,-26.632141,2.6818192,0.8358587,8.957912
1.424,19.281527,54.425194,-26.191206,2.560214,0.77992797,8.865334
1.426,17.92856,54.255226,-25.758562,2.462645,0.75068986,8.7683735
1.428,16.60321,54.08641,-25.336779,2.3829432,0.7418946,8.665829
1.43,15.304574,53.91508,-24.927425,2.314568,0.7459625,8.556772
1.432,14.032417,53.738583,-24.530603,2.250953,0.7544702,8.440754
1.434,12.787901,53.554604,-24.144997,2.185808,0.7585366,8.317876
1.436,11.573363,53.361603,-23.76821,2.1134067,0.7493424,8.188679
1.438,10.391846,53.15843,-23.396902,2.0288372,0.7185861,8.053996
1.44,9.247625,52.943714,-23.02694,1.9281456,0.6589254,7.9148226
1.442,8.145208,52.71646,-22.653357,1.808451,0.5642634,7.772166
1.444,7.088508,52.474907,-22.270163,1.6679816,0.43000102,7.6268663
1.446,6.0812993,52.216553,-21.870317,1.5060662,0.25311634,7.4795218
1.448,5.127285,51.938107,-21.446156,1.3230045,0.032178164,7.3304224
1.45,4.2296953,51.63681,-20.989702,1.1199582,-0.23268709,7.179627
1.452,3.3913755,51.310265,-20.49306,0.8988085,-0.5399676,7.0270543
1.454,2.6149454,50.95672,-19.949196,0.66199344,-0.8869727,6.8726254
1.456,1.902504,50.574715,-19.351908,0.41239488,-1.2700226,6.7163625
1.458,1.255311,50.16304,-18.69613,0.15320677,-1.6846579,6.5584626
1.46,0.67398167,49.720745,-17.977856,-0.112158716,-2.1258237,6.3993273
1.462,0.15752411,49.247406,-17.194199,-0.38015175,-2.5880067,6.2395535
1.464,-0.2956686,48.74232,-16.343248,-0.64711714,-3.0653527,6.0799327
1.466,-0.68775177,48.204666,-15.424567,-0.90937686,-3.5518343,5.9214067
1.468,-1.0213919,47.63363,-14.43884,-1.1632972,-4.0413737,5.7649894
1.47,-1.2999802,47.02897,-13.388097,-1.4053674,-4.5279126,5.6117406
1.472,-1.5270481,46.39058,-12.275448,-1.6322613,-5.0055094,5.4627223
1.474,-1.7065773,45.718582,-11.104747,-1.8409034,-5.468458,5.318875
1.476,-1.8427238,45.01363,-9.880756,-2.028568,-5.9114246,5.1809316
1.478,-1.9401588,44.276478,-8.608979,-2.192968,-6.329516,5.049493
1.48,-2.0029736,43.50804,-7.2957096,-2.332311,-6.718384,4.924957
1.482,-2.0356436,42.709396,-5.947972,-2.4452817,-7.074221,4.8074226
1.484,-2.0422487,41.882,-4.5732255,-2.5310433,-7.3937864,4.6967187
1.486,-2.0272923,41.02765,-3.17963,-2.5891542,-7.6743665,4.5924516
1.488,-1.9950504,40.1484,-1.7758222,-2.61951,-7.913625,4.494016
1.49,-1.9498272,39.246124,-0.3708501,-2.622322,-8.109659,4.400624
1.492,-1.8954372,38.323166,1.025903,-2.5981355,-8.261029,4.3114424
1.494,-1.8355513,37.381897,2.405067,-2.5477378,-8.366677,4.2256474
1.496,-1.773282,36.42431,3.7572708,-2.472207,-8.425963,4.142494
1.498,-1.7115374,35.45272,5.0733852,-2.3729208,-8.438746,4.061385
1.5,-1.6524267,34.46921,6.344686,-2.251566,-8.405421,3.9818392
1.502,-1.5983438,33.476437,7.562913,-2.110138,-8.32696,3.9034526
1.504,-1.5511074,32.477066,8.720501,-1.9509465,-8.204954,3.8258817
1.506,-1.5121784,31.474081,9.810433,-1.7766327,-8.041602,3.7487655
1.508,-1.4828119,30.470345,10.826699,-1.590056,-7.8396883,3.671667
1.51,-1.4637127,29.468655,11.764041,-1.3943263,-7.602581,3.5941072
1.512,-1.4550209,28.471561,12.618519,-1.1927129,-7.334158,3.515598
1.514,-1.4566555,27.481646,13.3870125,-0.9885806,-7.038722,3.4356923
1.516,-1.4681883,26.501154,14.06757,-0.78531027,-6.7209473,3.3540273
1.518,-1.4892616,25.532194,14.659353,-0.58624077,-6.3857374,3.270349
1.52,-1.519249,24.576553,15.162673,-0.39453793,-6.0381045,3.1844714
1.522,-1.5572624,23.636047,15.578835,-0.2130996,-5.6829906,3.096263
1.524,-1.6026363,22.712013,15.910097,-0.044474483,-5.3251724,3.0056562
1.526,-1.6542263,21.805649,16.15979,0.10917926,-4.9691377,2.9125962
1.528,-1.7107258,20.91777,16.331907,0.2461617,-4.618894,2.8170595
1.53,-1.770998,20.049137,16.431007,0.3652768,-4.2778893,2.7190208
1.532,-1.8336124,19.200108,16.462276,0.4658844,-3.9489553,2.6183822
1.534,-1.8974009,18.3712,16.431276,0.54778546,-3.634237,2.5150568
1.536,-1.9612627,17.562496,16.344032,0.6112106,-3.3352726,2.4090445
1.538,-2.0241756,16.773928,16.206743,0.65674114,-3.0530055,2.3004308
1.54,-2.085044,16.00527,16.02594,0.68520343,-2.7879186,2.1893816
1.542,-2.1428566,15.256237,15.807957,0.6975716,-2.540137,2.0761878
1.544,-2.1967916,14.526647,15.559046,0.69496083,-2.3094373,1.9613129
1.546,-2.2461433,13.816526,15.285165,0.67854404,-2.095352,1.8453228
1.548,-2.2900171,13.125544,14.991738,0.64947593,-1.8973155,1.728832
1.55,-2.3277216,12.4535475,14.684067,0.608865,-1.7147398,1.6124629
1.552,-2.3586254,11.800238,14.366424,0.55775136,-1.5470126,1.496824
1.554,-2.382402,11.165483,14.042942,0.49710438,-1.3935686,1.3825026
1.556,-2.3986316,10.549023,13.717129,0.4277949,-1.2539154,1.2700344
1.558,-2.4070182,9.950937,13.392075,0.35061574,-1.1276159,1.1598527
1.56,-2.4074569,9.370904,13.070604,0.26629162,-1.014272,1.0523093
1.562,-2.399693,8.8085785,12.75552,0.17545576,-0.9135001,0.9476529
1.564,-2.383953,8.264005,12.449379,0.078715935,-0.82489246,0.84598124
1.566,-2.36054,7.7370553,12.154244,-0.023386627,-0.7480021,0.7472748
1.568,-2.3296556,7.2277374,11.871904,-0.13036506,-0.6823206,0.6514314
1.57,-2.2912297,6.735881,11.603638,-0.24177809,-0.627236,0.55828637
1.572,-2.2452626,6.261343,11.35049,-0.35722527,-0.5820435,0.46763036
1.574,-2.192038,5.8041315,11.1130705,-0.47634748,-0.5459457,0.3792326
1.576,-2.1321297,5.3642955,10.891809,-0.59884566,-0.5180922,0.29286647
1.578,-2.065915,4.941555,10.686958,-0.7244664,-0.4975731,0.20832625
1.58,-1.9934859,4.5355163,10.498333,-0.85296756,-0.4834569,0.12541325
1.582,-1.9153397,4.145854,10.325552,-0.9841306,-0.4748119,0.04396434
1.584,-1.8317294,3.7721398,10.167999,-1.117762,-0.47074464,-0.03615901
1.586,-1.7429805,3.413929,10.024788,-1.2536952,-0.47042695,-0.115064025
1.588,-1.649409,3.0709553,9.8949795,-1.3917623,-0.47315872,-0.19282943
1.59,-1.5513844,2.74299,9.777485,-1.5318177,-0.4783501,-0.26948503
1.592,-1.4488342,2.429793,9.671119,-1.6737044,-0.48554757,-0.34503305
1.594,-1.3420284,2.1311402,9.574516,-1.8172787,-0.4943934,-0.41945952
1.596,-1.231189,1.8468974,9.4862585,-1.9623889,-0.50463516,-0.49272114
1.598,-1.1165702,1.576936,9.404958,-2.1088839,-0.5160796,-0.56477976
1.6,-0.9982083,1.321279,9.329007,-2.2565968,-0.52858645,-0.63557017
1.602,-0.8761382,1.0797703,9.256896,-2.4053547,-0.5420243,-0.7050128
1.604,-0.7502868,0.8524096,9.186994,-2.5549688,-0.5562323,-0.77302814
1.606,-0.62072754,0.63949966,9.117677,-2.7052515,-0.5710022,-0.8395358
1.608,-0.4872539,0.441118,9.047291,-2.8560445,-0.58609647,-0.9044475
1.61,-0.3499415,0.25755548,8.973923,-3.0071936,-0.601205,-0.9676636
1.612,-0.20866108,0.08893561,8.895695,-3.158596,-0.6160047,-1.029074
1.614,-0.06324935,-0.06457138,8.810521,-3.310198,-0.6301889,-1.088552
1.616,0.08634639,-0.20282245,8.716684,-3.4620128,-0.6434695,-1.1459577
1.618,0.24045038,-0.32557964,8.6121025,-3.6141121,-0.6556355,-1.2011418
1.62,0.39900994,-0.4325366,8.495052,-3.766616,-0.66656774,-1.2539792
1.622,0.56212044,-0.52350545,8.363716,-3.9196784,-0.6762276,-1.3043876
1.624,0.7299087,-0.59840345,8.216378,-4.0734715,-0.68467414,-1.3523425
1.626,0.90236115,-0.65731716,8.051218,-4.228164,-0.69204545,-1.3979013
1.628,1.0798571,-0.7004317,7.866602,-4.383912,-0.6985248,-1.4411917
1.63,1.2632668,-0.72852004,7.6608634,-4.5408473,-0.70436555,-1.4824347
1.632,1.451271,-0.7416084,7.4325466,-4.69909,-0.70992357,-1.5219324
1.634,1.6429837,-0.7395245,7.180076,-4.858766,-0.7156349,-1.5599891
1.636,1.8393452,-0.7237102,6.9038177,-5.02,-0.72204494,-1.596919
1.638,2.0404367,-0.69442844,6.6026716,-5.182955,-0.7298211,-1.6330553
1.64,2.245636,-0.6521085,6.2751384,-5.3478427,-0.7398094,-1.6686748
1.642,2.4541526,-0.5974342,5.920444,-5.5149517,-0.75302243,-1.7039783
1.644,2.6651013,-0.53136206,5.538034,-5.6846347,-0.7706938,-1.739055
1.646,2.8777118,-0.45474017,5.1281886,-5.8573456,-0.79425406,-1.7738848
1.648,3.0910006,-0.3683309,4.691635,-6.0335474,-0.8252922,-1.8083422
1.65,3.3041215,-0.2729491,4.229531,-6.213726,-0.86547446,-1.842222
1.652,3.5161421,-0.16939396,3.7435553,-6.398373,-0.9164361,-1.8752534
1.654,3.725947,-0.05826781,3.235709,-6.5879035,-0.9796685,-1.9071264
1.656,3.9325075,0.059600502,2.708409,-6.782612,-1.056405,-1.9375199
1.658,4.134588,0.18371686,2.1644347,-6.982601,-1.1474817,-1.966054
1.66,4.331028,0.31343955,1.6066767,-7.1876388,-1.2530687,-1.9922843
1.662,4.52063,0.44841266,1.0387402,-7.3971434,-1.372665,-2.0157917
1.664,4.7025757,0.5881027,0.46427894,-7.610398,-1.5056244,-2.0361328
1.666,4.8757987,0.7323041,-0.11273897,-7.8263607,-1.6506314,-2.0525756
1.668,5.039432,0.88066924,-0.6881654,-8.043653,-1.8056096,-2.0643437
1.67,5.1928635,1.0329381,-1.2577183,-8.260639,-1.968028,-2.0707083
1.672,5.3356667,1.1887465,-1.8172797,-8.475457,-2.1349154,-2.0709336
1.674,5.4674864,1.3477259,-2.3625765,-8.686095,-2.303009,-2.0642438
1.676,5.5882072,1.5094966,-2.8894742,-8.890507,-2.4689643,-2.0499065
1.678,5.697976,1.6736258,-3.3940618,-9.086718,-2.6294875,-2.027265
1.68,5.797098,1.839532,-3.8727217,-9.272928,-2.781489,-1.9958284
1.682,5.8861914,2.0065503,-4.3222127,-9.447561,-2.922196,-1.9553077
1.684,5.9659963,2.1738944,-4.739561,-9.609287,-3.0492096,-1.9056721
1.686,6.0376215,2.340774,-5.1222634,-9.757023,-3.1605241,-1.8471584
1.688,6.1021023,2.5063734,-5.4683685,-9.889912,-3.2545304,-1.7802827
1.69,6.1604786,2.670003,-5.7760205,-10.007256,-3.3299613,-1.7057552
1.692,6.2142076,2.830944,-6.043912,-10.108455,-3.3857942,-1.6244473
1.694,6.264636,2.9885674,-6.27135,-10.192948,-3.4211257,-1.5373282
1.696,6.313424,3.1422517,-6.4579363,-10.26022,-3.435159,-1.4454317
1.698,6.362032,3.2914772,-6.603606,-10.309795,-3.4271448,-1.3498123
1.7,6.4118977,3.4358053,-6.708827,-10.341259,-3.3964045,-1.251421
1.702,6.464384,3.5750227,-6.774418,-10.354322,-3.3423483,-1.1511247
1.704,6.520682,3.709059,-6.8016577,-10.348833,-3.2645166,-1.0496893
1.706,6.582135,3.8379512,-6.792002,-10.324792,-3.1626215,-0.947814
1.708,6.649869,3.9618108,-6.747334,-10.282395,-3.0365505,-0.84613895
1.71,6.7248073,4.080971,-6.669766,-10.222006,-2.8863943,-0.74532795
1.712,6.80757,4.195798,-6.5619307,-10.144121,-2.7124565,-0.6460986
1.714,6.8987217,4.3068075,-6.4265757,-10.049418,-2.5153034,-0.54922485
1.716,6.99862,4.414576,-6.2668476,-9.938631,-2.2955918,-0.45547104
1.718,7.107822,4.519626,-6.0858507,-9.812408,-2.0537856,-0.36565447
1.72,7.2262526,4.6226816,-5.8869286,-9.671547,-1.7907853,-0.28076696
1.722,7.354128,4.724483,-5.673665,-9.517004,-1.5078559,-0.20165873
1.724,7.491352,4.8258452,-5.4496007,-9.349807,-1.2063498,-0.12898064
1.726,7.6378245,4.927362,-5.218513,-9.171142,-0.88785106,-0.063326836
1.728,7.793455,5.029614,-4.9840527,-8.982299,-0.55413556,-0.005214691
1.73,7.9580464,5.1329985,-4.749725,-8.78466,-0.20713818,0.04501438
1.732,8.131353,5.237911,-4.5190783,-8.579683,0.15101427,0.08720064
1.734,8.312957,5.34476,-4.295018,-8.368893,0.51806843,0.12138438
1.736,8.502632,5.453848,-4.080246,-8.153832,0.8916572,0.14776564
1.738,8.69989,5.5654635,-3.877136,-7.936089,1.2693492,0.16670203
1.74,8.903959,5.6801243,-3.6875098,-7.7172117,1.6487372,0.1786797
1.742,9.1159115,5.797291,-3.5128548,-7.498685,2.027476,0.18420792
1.744,9.33606,5.916334,-3.3540192,-7.2818804,2.4033556,0.18380308
1.746,9.56272,6.0380163,-3.213212,-7.0680027,2.7743573,0.1779306
1.748,9.795708,6.1615944,-3.0899167,-6.8580637,3.1387086,0.16699934
1.75,10.0353565,6.2865195,-2.9830847,-6.652811,3.4949431,0.15132761
1.752,10.282021,6.4125376,-2.8921795,-6.4527516,3.8419166,0.13113713
1.754,10.535759,6.5394287,-2.816453,-6.2581286,4.1788597,0.10653257
1.756,10.79641,6.6667976,-2.7555528,-6.0689363,4.505341,0.07753265
1.758,11.064075,6.7939377,-2.7087526,-5.884949,4.821269,0.04410374
1.76,11.338382,6.9203167,-2.675261,-5.705763,5.126856,0.0061855316
1.762,11.619125,7.045398,-2.6541438,-5.530867,5.4225693,-0.036280274
1.764,11.906256,7.1684966,-2.6443477,-5.359666,5.7090344,-0.08331925
1.766,12.199727,7.2889633,-2.6448073,-5.191567,5.9869843,-0.13489413
1.768,12.499546,7.406103,-2.6544428,-5.026008,6.257193,-0.19092453
1.77,12.805666,7.5191536,-2.6721716,-4.862475,6.5203996,-0.25127232
1.772,13.117885,7.6273813,-2.697228,-4.700537,6.777247,-0.3157518
1.774,13.43614,7.730064,-2.7287989,-4.539843,7.0282607,-0.3841304
1.776,13.760163,7.8264227,-2.7663612,-4.3801527,7.273786,-0.4561564
1.778,14.089788,7.9157195,-2.809328,-4.221305,7.513986,-0.5315846
1.78,14.424677,7.997304,-2.8573623,-4.0632124,7.7488537,-0.61018085
1.782,14.764233,8.07071,-2.9099598,-3.90585,7.978242,-0.69173354
1.784,15.10808,8.1352,-2.9667764,-3.749238,8.201898,-0.7760716
1.786,15.45568,8.190553,-3.0274568,-3.59342,8.419493,-0.86305654
1.788,15.806397,8.236287,-3.0917554,-3.438438,8.630655,-0.9525642
1.79,16.159294,8.27232,-3.159289,-3.2843475,8.83507,-1.0444682
1.792,16.51369,8.298292,-3.2297254,-3.1311722,9.032497,-1.1386726
1.794,16.868504,8.31432,-3.30269,-2.9788947,9.222774,-1.2351034
1.796,17.222765,8.320172,-3.3777118,-2.827445,9.405886,-1.3336843
1.798,17.575487,8.315799,-3.4544358,-2.6767178,9.58194,-1.4343418
1.8,17.925732,8.301194,-3.5325656,-2.5265536,9.751169,-1.5369501
1.802,18.272224,8.276353,-3.6117496,-2.3767588,9.913902,-1.6413968
1.804,18.613802,8.241354,-3.6914716,-2.227125,10.070541,-1.7475178
1.806,18.949242,8.1961975,-3.7714515,-2.0774293,10.22151,-1.8550973
1.808,19.277262,8.141034,-3.8513436,-1.9274569,10.367229,-1.9638942
1.81,19.59668,8.075895,-3.9308145,-1.7770212,10.50807,-2.073629
1.812,19.90617,8.000851,-4.0095177,-1.6259828,10.6443405,-2.1840174
1.814,20.204819,7.915921,-4.08714,-1.4742317,10.776259,-2.294755
1.816,20.491362,7.821101,-4.163559,-1.321691,10.90393,-2.4055467
1.818,20.764809,7.716404,-4.2386084,-1.1683159,11.027393,-2.51609
1.82,21.024199,7.6017876,-4.312153,-1.0141048,11.146576,-2.626081
1.822,21.268549,7.477338,-4.3838954,-0.85906315,11.261307,-2.7351937
1.824,21.497175,7.343012,-4.4535885,-0.7032504,11.371324,-2.8430414
1.826,21.709438,7.1986556,-4.520994,-0.54675436,11.476318,-2.9491897
1.828,21.90453,7.044301,-4.5859485,-0.38969755,11.575908,-3.0531375
1.83,22.082119,6.879772,-4.6480503,-0.23226166,11.669672,-3.1543126
1.832,22.241692,6.7051244,-4.706994,-0.07466936,11.757151,-3.2520857
1.834,22.383055,6.5203137,-4.7623625,0.08280182,11.837883,-3.3457804
1.836,22.505985,6.325594,-4.8138313,0.23983812,11.911365,-3.434681
1.838,22.610292,6.1210103,-4.86086,0.39610243,11.977126,-3.5180612
1.84,22.695942,5.9067917,-4.9030805,0.55125284,12.034695,-3.5952063
1.842,22.762987,5.6833563,-4.9399652,0.70495653,12.083626,-3.6654944
1.844,22.81167,5.451071,-4.971217,0.85689545,12.123491,-3.728383
1.846,22.842098,5.2104645,-4.9964495,1.0067701,12.153912,-3.783403
1.848,22.85457,4.962187,-5.0152426,1.1543088,12.174528,-3.8302128
1.85,22.849228,4.706926,-5.027328,1.299262,12.185016,-3.8685813
1.852,22.826649,4.4455647,-5.032475,1.4413934,12.185073,-3.8984308
1.854,22.786922,4.179142,-5.0304027,1.580471,12.174445,-3.9198198
1.856,22.730467,3.9086924,-5.0206947,1.7162685,12.152924,-3.9329534
1.858,22.657518,3.6354961,-5.0033746,1.8485417,12.120343,-3.9381583
1.86,22.56849,3.3607407,-4.978363,1.9770036,12.076586,-3.9358354
1.862,22.463778,3.0855494,-4.94571,2.1013193,12.021566,-3.9264739
1.864,22.343685,2.811182,-4.9054337,2.22114,11.955279,-3.91062
1.866,22.208345,2.53895,-4.857568,2.3360868,11.877777,-3.8888578
1.868,22.05812,2.2705317,-4.802457,2.445733,11.789142,-3.8617802
1.87,21.893358,2.007369,-4.7404156,2.549645,11.689524,-3.829947
1.872,21.714176,1.7509232,-4.671668,2.647369,11.579119,-3.7938547
1.874,21.520864,1.502595,-4.5965686,2.7384691,11.458176,-3.7539406
1.876,21.313541,1.2638378,-4.51554,2.8225162,11.32699,-3.7105584
1.878,21.09238,1.0360212,-4.4290023,2.8991246,11.185949,-3.6639698
1.88,20.857624,0.82050514,-4.3374977,2.967957,11.03547,-3.6143374
1.882,20.609772,0.6184263,-4.2414956,3.028719,10.876038,-3.561735
1.884,20.348932,0.43101215,-4.141575,3.0812154,10.708222,-3.5061336
1.886,20.075672,0.25925064,-4.0383177,3.1253076,10.532648,-3.4474802
1.888,19.790363,0.10400581,-3.9323537,3.1609635,10.349997,-3.3856683
1.89,19.493782,-0.0339756,-3.8242762,3.188226,10.161013,-3.3206134
1.892,19.186678,-0.15427971,-3.7147374,3.2072046,9.9664,-3.252231
1.894,18.869652,-0.2563572,-3.6043713,3.218093,9.7668915,-3.180464
1.896,18.543716,-0.34010792,-3.4937444,3.221169,9.5632105,-3.1052454
1.898,18.209717,-0.40544605,-3.3833606,3.2167702,9.356005,-3.0265877
1.9,17.868805,-0.4525752,-3.2736645,3.2052903,9.145873,-2.9446018
1.902,17.522135,-0.48175144,-3.165261,3.1871428,8.933315,-2.8594565
1.904,17.171032,-0.49357462,-3.0585597,3.1627486,8.718719,-2.7713666
1.906,16.816692,-0.48861504,-2.954053,3.1325202,8.502308,-2.6805816
1.908,16.460405,-0.46766615,-2.8520555,3.096829,8.284166,-2.5873485
1.91,16.103447,-0.4316516,-2.7528486,3.0559835,8.06419,-2.4918902
1.912,15.747259,-0.38153505,-2.65664,3.0102437,7.8421593,-2.394432
1.914,15.393091,-0.31851482,-2.5635045,2.9597962,7.6177287,-2.2952092
1.916,15.0422735,-0.24360323,-2.473525,2.9047456,7.39047,-2.1944587
1.918,14.6961155,-0.15804577,-2.3867,2.845137,7.159931,-2.0924475
1.92,14.355799,-0.063102245,-2.3027995,2.780962,6.925686,-1.9894903
1.922,14.022538,0.040058136,-2.221768,2.7121716,6.687372,-1.8860037
1.924,13.697235,0.15015173,-2.1433673,2.6387305,6.4447446,-1.7824769
1.926,13.380965,0.2659607,-2.0671709,2.560616,6.197656,-1.6794667
1.928,13.074527,0.38634348,-1.9928613,2.4778254,5.946081,-1.5775445
1.93,12.778959,0.5099077,-1.9200034,2.3903985,5.690103,-1.4772942
1.932,12.494857,0.63565874,-1.848326,2.2984295,5.429888,-1.3792169
1.934,12.22287,0.76241994,-1.7774403,2.2020526,5.165646,-1.283768
1.936,11.963659,0.8890538,-1.7068205,2.1014605,4.89763,-1.1913097
1.938,11.7177515,1.0143611,-1.636025,1.9968401,4.626109,-1.102102
1.94,11.485638,1.1373339,-1.5645511,1.8884416,4.3513556,-1.0162913
1.942,11.267692,1.2568386,-1.4919169,1.7765173,4.0736837,-0.93401873
1.944,11.064079,1.3717885,-1.4177871,1.6613472,3.7933974,-0.85538566
1.946,10.875137,1.4810693,-1.341687,1.5432241,3.5108657,-0.7805023
1.948,10.701036,1.5839248,-1.2631938,1.4224527,3.2264671,-0.7094759
1.95,10.5419235,1.6794946,-1.1819477,1.299372,2.9406123,-0.6424619
1.952,10.397746,1.7668827,-1.0974977,1.1743488,2.6537569,-0.57957786
1.954,10.268347,1.8454428,-1.0094185,1.0477953,2.3664021,-0.5208937
1.956,10.153544,1.9145327,-0.9174764,0.92017996,2.0791204,-0.4664517
1.958,10.053042,1.9735351,-0.82134485,0.79201275,1.7925544,-0.4162712
1.96,9.966536,2.0221438,-0.72081256,0.6638375,1.5074126,-0.37026936
1.962,9.893279,2.0600102,-0.61572456,0.5362514,1.2244339,-0.3283094
1.964,9.832981,2.0869884,-0.50600314,0.409881,0.9444224,-0.29023916
1.966,9.784797,2.1030848,-0.39162588,0.28535703,0.66821826,-0.25582105
1.968,9.748078,2.1083317,-0.2726717,0.1632783,0.396685,-0.22475256
1.97,9.721899,2.1030643,-0.14935279,0.044200882,0.13064077,-0.19667856
1.972,9.705253,2.0877666,-0.021839142,-0.07135256,-0.1291085,-0.17122295
1.974,9.697414,2.0629754,0.10952926,-0.18293199,-0.38182467,-0.14801139
1.976,9.697423,2.0293474,0.24434733,-0.290173,-0.6268549,-0.12665948
1.978,9.704202,1.9874172,0.38222265,-0.3927909,-0.8636359,-0.106818646
1.98,9.716805,1.9379308,0.52268624,-0.49059007,-1.0916934,-0.08817968
1.982,9.734337,1.8816662,0.66513705,-0.58343107,-1.3106637,-0.07049495
1.984,9.755641,1.8196228,0.80902505,-0.67125773,-1.5202954,-0.053577006
1.986,9.7799425,1.752708,0.95380497,-0.7540785,-1.7204232,-0.037304163
1.988,9.806394,1.6818728,1.0988262,-0.83193743,-1.9109507,-0.021609902
1.99,9.834032,1.6081228,1.2436461,-0.9049283,-2.091879,-0.0064682364
1.992,9.862211,1.5323687,1.3876369,-0.9731605,-2.2632723,0.008114338
1.994,9.890043,1.4554582,1.5303218,-1.0367906,-2.4252365,0.022106767
1.996,9.916896,1.3782744,1.6713934,-1.0959741,-2.577929,0.035493016
1.998,9.942293,1.3015885,1.8104191,-1.1508738,-2.7215235,0.04825902
2,9.965553,1.2260187,1.9471965,-1.2016456,-2.8562002,0.06039226
2.002,9.986258,1.1523194,2.0813847,-1.2484558,-2.9821506,0.07188535
2.004,10.004152,1.0810051,2.212809,-1.2914615,-3.0995522,0.08276439
2.006,10.018707,1.0125244,2.3413036,-1.330787,-3.2085583,0.09303892
2.008,10.029787,0.94732714,2.46679,-1.3665519,-3.3093023,0.10272658
2.01,10.0372505,0.8856158,2.5892224,-1.3988605,-3.4019074,0.11185491
2.012,10.040752,0.82783556,2.7085803,-1.4278083,-3.486505,0.12044644
2.014,10.040238,0.7741585,2.8249042,-1.4534745,-3.5631812,0.12850904
2.016,10.035682,0.7246785,2.9382045,-1.4759479,-3.6320236,0.13609004
2.018,10.027154,0.6794915,3.0485625,-1.4953194,-3.6931248,0.14328706
2.02,10.014576,0.63857317,3.1559408,-1.511663,-3.7465754,0.15019572
2.022,9.99799,0.6018729,3.2603562,-1.5250411,-3.792465,0.15689468
2.024,9.977518,0.5694647,3.3618636,-1.5355303,-3.8308654,0.16346931
2.026,9.953217,0.5411949,3.4605203,-1.5432167,-3.8618574,0.17003286
2.028,9.925273,0.5169635,3.5562663,-1.5481702,-3.8855033,0.17666721
2.03,9.893908,0.4966421,3.6491513,-1.5504465,-3.901867,0.18343556
2.032,9.859213,0.48004055,3.739119,-1.5501196,-3.9110262,0.19039762
2.034,9.821468,0.46694803,3.8263037,-1.5472425,-3.913027,0.19758177
2.036,9.780843,0.45713282,3.9106922,-1.5418682,-3.9079497,0.20500636
2.038,9.737578,0.45045185,3.9923615,-1.5340383,-3.8958611,0.21268404
2.04,9.691664,0.4466958,4.0713463,-1.5238019,-3.8768482,0.22061348
2.042,9.64364,0.44550037,4.1477523,-1.5112123,-3.8510299,0.22879326
2.044,9.59366,0.4465828,4.2215867,-1.496325,-3.8185263,0.23720336
2.046,9.541933,0.44969654,4.292878,-1.4792118,-3.779483,0.2458322
2.048,9.488584,0.45464516,4.3616867,-1.4599475,-3.7340646,0.25465155
2.05,9.433904,0.46109772,4.4280195,-1.438625,-3.6824555,0.2636311
2.052,9.378169,0.46859074,4.4920263,-1.4153492,-3.6248538,0.27270234
2.054,9.321638,0.47694874,4.553785,-1.3902249,-3.5614772,0.2817875
2.056,9.264353,0.48580647,4.6133194,-1.3633579,-3.492528,0.2907586
2.058,9.206623,0.49478722,4.670679,-1.334852,-3.4182117,0.29948878
2.06,9.1486225,0.50358534,4.725972,-1.3048165,-3.338744,0.30783975
2.062,9.090719,0.5119462,4.7792583,-1.2733407,-3.2543266,0.31568408
2.064,9.032953,0.5195446,4.830555,-1.2405167,-3.1651587,0.32290804
2.066,8.975528,0.52618456,4.880044,-1.2064176,-3.0714166,0.32943916
2.068,8.918773,0.53165483,4.9277096,-1.1711268,-2.9732783,0.33523118
2.07,8.862708,0.53575754,4.973629,-1.1347346,-2.8708892,0.34028995
2.072,8.807572,0.5383935,5.017874,-1.0973165,-2.7643864,0.3446465
2.074,8.753593,0.53944683,5.0604987,-1.0589746,-2.6538923,0.34836727
2.076,8.700901,0.53885984,5.1014166,-1.0198075,-2.5395083,0.3515635
2.078,8.649574,0.53669786,5.140686,-0.97991633,-2.4213347,0.3543511
2.08,8.599819,0.5329733,5.178336,-0.9394117,-2.2994537,0.35684162
2.082,8.551863,0.52770185,5.214384,-0.89840865,-2.1739717,0.3591441
2.084,8.505687,0.5210352,5.2487774,-0.8570072,-2.0449705,0.36134887
2.086,8.461653,0.51306534,5.2814474,-0.81530976,-1.9125503,0.36351198
2.088,8.419716,0.5038419,5.312282,-0.77340204,-1.7768383,0.36566353
2.09,8.380056,0.49357748,5.3412323,-0.731375,-1.6379614,0.36780447
2.092,8.342769,0.4824171,5.3681855,-0.6892957,-1.4960493,0.36990437
2.094,8.307966,0.47059965,5.3930473,-0.64721835,-1.3512676,0.3719188
2.096,8.275695,0.4582739,5.415746,-0.60519254,-1.2037804,0.3738034
2.098,8.245971,0.44572067,5.4362926,-0.5632541,-1.0537727,0.3755186
2.1,8.219015,0.43301105,5.454438,-0.5214455,-0.9014367,0.3770112
2.102,8.194729,0.42041922,5.470208,-0.47980797,-0.7469842,0.3782431
2.104,8.173324,0.40804815,5.483526,-0.43840206,-0.59061533,0.37918782
2.106,8.154745,0.3960538,5.494301,-0.3972872,-0.43254542,0.37983516
2.108,8.139042,0.38455153,5.5024633,-0.35653263,-0.27298826,0.38015255
2.11,8.126174,0.373734,5.5079494,-0.31620803,-0.11218392,0.38012514
2.112,8.11622,0.36367035,5.51074,-0.27639934,0.04963947,0.37971362
2.114,8.109074,0.35447407,5.510892,-0.23718593,0.21222696,0.3788855
2.116,8.104724,0.34619427,5.5083895,-0.19865713,0.3753258,0.37759143
2.118,8.103098,0.33894348,5.503222,-0.16089594,0.53865826,0.3757813
2.12,8.104019,0.33283043,5.495451,-0.123996824,0.7019328,0.37339967
2.122,8.107686,0.32763767,5.485259,-0.08803901,0.8648381,0.37039256
2.124,8.1138115,0.32360935,5.4726267,-0.053119183,1.027046,0.36669853
2.126,8.122236,0.32077026,5.4576936,-0.019334793,1.1882043,0.36229128
2.128,8.13286,0.31907082,5.4406614,0.013220489,1.3479466,0.35713166
2.13,8.145575,0.31862688,5.4217005,0.044445038,1.5059004,0.35119247
2.132,8.160319,0.31939888,5.4010687,0.07423544,1.6616898,0.34445313
2.134,8.176895,0.32129526,5.378954,0.10250187,1.8149385,0.33691043
2.136,8.195217,0.32432556,5.355592,0.12914383,1.9653146,0.32855475
2.138,8.215118,0.32850266,5.3313437,0.15407848,2.112516,0.31938058
2.14,8.236502,0.33376265,5.3063993,0.17725646,2.2562985,0.3093542
2.142,8.259161,0.34003162,5.281171,0.19863236,2.3964767,0.29844406
2.144,8.283009,0.34737587,5.2559023,0.21820652,2.5329413,0.28661007
2.146,8.307931,0.35579634,5.2308393,0.23598891,2.6656232,0.27379197
2.148,8.333889,0.36502504,5.2062397,0.2520156,2.7945418,0.25992382
2.15,8.36075,0.37520885,5.182391,0.26634336,2.9197524,0.24494416
2.152,8.388314,0.3861146,5.159502,0.2790581,3.0413465,0.22879243
2.154,8.41645,0.3977933,5.137765,0.29025674,3.1594434,0.21142834
2.156,8.445089,0.41028643,5.117338,0.3000431,3.2741733,0.19282848
2.158,8.474114,0.4235034,5.098338,0.3085302,3.3856683,0.1729815
2.16,8.503483,0.43741083,5.080833,0.31582153,3.4940672,0.15190464
2.162,8.533037,0.45206833,5.0648136,0.3220122,3.5995045,0.12963426
2.164,8.562682,0.46738434,5.050362,0.3271935,3.7020957,0.10621989
2.166,8.592334,0.48341656,5.0374894,0.33145297,3.8019557,0.081738114
2.168,8.6217785,0.5001769,5.0260067,0.33485436,3.8991961,0.056286573
2.17,8.650997,0.517684,5.015885,0.33744335,3.9939017,0.029967904
2.172,8.679843,0.5360913,5.0069513,0.33924615,4.0861526,0.0029200315
2.174,8.708254,0.5554347,4.999131,0.34027815,4.1759977,-0.024709105
2.176,8.736177,0.5757804,4.9922953,0.34051633,4.2634788,-0.052761078
2.178,8.763531,0.59724283,4.9862556,0.33993542,4.348633,-0.08108544
2.18,8.790281,0.6198354,4.980922,0.33848214,4.4314766,-0.109544754
2.182,8.816276,0.64354277,4.9760494,0.3361075,4.5120068,-0.13802564
2.184,8.8414,0.668468,4.9715867,0.3327639,4.590212,-0.16642618
2.186,8.865727,0.69454527,4.9674935,0.32839632,4.66607,-0.19467294
2.188,8.889174,0.7218213,4.963634,0.32296646,4.739546,-0.22274637
2.19,8.911613,0.75024223,4.959884,0.31646502,4.8106127,-0.2506423
2.192,8.93305,0.7799039,4.956152,0.30888438,4.8792324,-0.2783842
2.194,8.953474,0.81075954,4.9524207,0.30023885,4.945389,-0.30601168
2.196,8.972849,0.8427768,4.9487,0.29055774,5.00908,-0.3335719
2.198,8.991226,0.876081,4.945038,0.27988958,5.070321,-0.36112523
2.2,9.008524,0.9105449,4.94127,0.2682917,5.1291695,-0.38870835
2.202,9.024905,0.94619226,4.937481,0.2558354,5.1857004,-0.41636157
2.204,9.040295,0.98293257,4.9335957,0.2425884,5.240013,-0.44408512
2.206,9.0546255,1.0209141,4.929576,0.2286067,5.2922397,-0.4718666
2.208,9.068064,1.0600595,4.9253216,0.21395421,5.3425198,-0.49965155
2.21,9.080439,1.1005163,4.9209137,0.19867969,5.3910227,-0.5273664
2.212,9.091864,1.1423168,4.9162583,0.18281353,5.437891,-0.55491424
2.214,9.102412,1.1856618,4.9113264,0.16637278,5.4832644,-0.5821724
2.216,9.111988,1.2306304,4.9060097,0.14936113,5.527273,-0.6090052
2.218,9.12063,1.2774591,4.90016,0.13177896,5.5700426,-0.6352825
2.22,9.128488,1.326335,4.893754,0.11360967,5.6116385,-0.6608925
2.222,9.135327,1.3774233,4.886734,0.094837904,5.652141,-0.685735
2.224,9.141331,1.430948,4.878845,0.07546008,5.6915817,-0.70971656
2.226,9.146509,1.4871233,4.8700457,0.05545938,5.7299848,-0.7327714
2.228,9.150954,1.546062,4.8602886,0.034831047,5.7673607,-0.7548487
2.23,9.1545515,1.6079361,4.8493814,0.013581157,5.803684,-0.77589417
2.232,9.157141,1.6729238,4.8372226,-0.008290529,5.8389277,-0.7958591
2.234,9.158886,1.7408547,4.823742,-0.030783296,5.8730583,-0.81469584
2.236,9.159683,1.8118525,4.8088164,-0.05390191,5.906037,-0.8323703
2.238,9.1594925,1.8857386,4.792304,-0.07764506,5.937819,-0.84887815
2.24,9.158368,1.9622343,4.774167,-0.102024674,5.968377,-0.8642447
2.242,9.155977,2.0411825,4.754342,-0.12703764,5.997678,-0.8785243
2.244,9.15242,2.1223276,4.7326994,-0.15266931,6.025695,-0.89182806
2.246,9.147564,2.205271,4.709264,-0.1788969,6.0524173,-0.9043281
2.248,9.141245,2.2896059,4.6839466,-0.20567548,6.0778337,-0.91623664
2.25,9.133369,2.3749545,4.656745,-0.2329557,6.1019373,-0.9277787
2.252,9.123829,2.4609544,4.6275907,-0.26066554,6.124714,-0.9391825
2.254,9.11245,2.5471,4.596465,-0.28872645,6.14614,-0.950655
2.256,9.099036,2.6330273,4.5633416,-0.31708932,6.1661787,-0.9623375
2.258,9.083466,2.7184503,4.5282516,-0.34571373,6.184786,-0.974324
2.26,9.065584,2.8029785,4.491118,-0.37459552,6.201911,-0.9866023
2.262,9.045313,2.8864117,4.4520016,-0.40375322,6.2174845,-0.99911094
2.264,9.022449,2.9685647,4.4108315,-0.43324727,6.2314324,-1.0117025
2.266,8.996871,3.0492122,4.3676014,-0.4631644,6.243684,-1.0241823
2.268,8.968551,3.1283703,4.3222337,-0.49360996,6.2541523,-1.0363417
2.27,8.937218,3.2061324,4.2747498,-0.5247039,6.2627563,-1.0479436
2.272,8.902772,3.2825825,4.2251725,-0.55657524,6.269402,-1.0587647
2.274,8.865253,3.3578806,4.1733828,-0.5893368,6.2740026,-1.0686166
2.276,8.824598,3.4322433,4.119339,-0.6230932,6.276457,-1.0773342
2.278,8.780799,3.5059576,4.0631995,-0.65794194,6.276679,-1.0847974
2.28,8.733815,3.5792446,4.004857,-0.69395024,6.274579,-1.0909204
2.282,8.683564,3.6523533,3.944357,-0.7311685,6.2700977,-1.0956621
2.284,8.630188,3.7255356,3.8817222,-0.7696147,6.2631693,-1.0990095
2.286,8.573689,3.7990048,3.8167934,-0.8092953,6.253747,-1.1009879
2.288,8.514025,3.8730636,3.7497416,-0.8501966,6.2417994,-1.1016526
2.29,8.451288,3.9478965,3.680399,-0.8922691,6.227307,-1.1010501
2.292,8.38562,4.023731,3.6089022,-0.9354683,6.2102594,-1.0992341
2.294,8.317065,4.100644,3.5353076,-0.9797157,6.1906548,-1.096273
2.296,8.245719,4.178794,3.4594874,-1.0249476,6.1684885,-1.0922208
2.298,8.171627,4.258188,3.3815937,-1.0710953,6.143771,-1.0871158
2.3,8.095032,4.3388376,3.3017263,-1.1180735,6.1164865,-1.0809786
2.302,8.015794,4.4205966,3.219812,-1.1658331,6.0866175,-1.0738077
2.304,7.9341335,4.503332,3.1359437,-1.2143189,6.054147,-1.0655892
2.306,7.850201,4.586897,3.0502203,-1.2635018,6.01904,-1.0562844
2.308,7.763877,4.67114,2.9627423,-1.3133557,5.98125,-1.0458581
2.31,7.6753945,4.7557774,2.8737597,-1.3638523,5.940732,-1.0342472
2.312,7.5849147,4.840553,2.7832506,-1.4149841,5.897422,-1.021389
2.314,7.4925447,4.9252014,2.6914334,-1.4667342,5.851229,-1.0072258
2.316,7.3985415,5.009288,2.5985336,-1.5191015,5.802078,-0.99170804
2.318,7.3028646,5.092473,2.5047102,-1.5720608,5.7498765,-0.9748137
2.32,7.2058334,5.1743217,2.4102213,-1.625593,5.6945543,-0.9565525
2.322,7.107506,5.254413,2.315127,-1.6796652,5.6360455,-0.93696356
2.324,7.008115,5.332155,2.219647,-1.7342175,5.574293,-0.916142
2.326,6.907972,5.4071984,2.1240888,-1.7891886,5.5092907,-0.8942244
2.328,6.8071637,5.478946,2.0287194,-1.8444911,5.4410357,-0.87137914
2.33,6.705873,5.546893,1.9336997,-1.900017,5.3695564,-0.8477943
2.332,6.604534,5.6104593,1.8392642,-1.9556515,5.2949066,-0.82365346
2.334,6.5032077,5.6692343,1.7457287,-2.0112743,5.2171516,-0.7991216
2.336,6.4021635,5.722643,1.6532035,-2.0667706,5.136377,-0.7743368
2.338,6.301589,5.77034,1.561796,-2.1220336,5.0527005,-0.74939084
2.34,6.2018795,5.8118486,1.4717573,-2.1769454,4.9662414,-0.7243173
2.342,6.1031384,5.846919,1.3831679,-2.231412,4.8771343,-0.6991129
2.344,6.005551,5.875289,1.2961541,-2.285349,4.785532,-0.6737497
2.346,5.909485,5.8966517,1.2108727,-2.338668,4.6916103,-0.6481874
2.348,5.8148856,5.910905,1.127237,-2.391289,4.595541,-0.6223557
2.35,5.721959,5.917946,1.0453634,-2.4431248,4.497533,-0.59620523
2.352,5.6308765,5.9178576,0.96520376,-2.4940927,4.3977895,-0.56968427
2.354,5.5416565,5.9105844,0.88672733,-2.544086,4.2965274,-0.54275537
2.356,5.454421,5.8962603,0.809927,-2.5929892,4.193976,-0.5154128
2.358,5.3693657,5.8750777,0.7346455,-2.640689,4.09035,-0.4876535
2.36,5.286348,5.847292,0.6607816,-2.6870806,3.9858594,-0.459476
2.362,5.2055106,5.813023,0.5882809,-2.7320573,3.880699,-0.43088007
2.364,5.1267624,5.7726316,0.51698375,-2.7755315,3.7750435,-0.40189195
2.366,5.050123,5.72627,0.4468783,-2.8174257,3.6690686,-0.3725232
2.368,4.975561,5.674373,0.3776934,-2.8576875,3.5629158,-0.34280515
2.37,4.9029436,5.617299,0.3093834,-2.8962708,3.456714,-0.3127569
2.372,4.83224,5.5553675,0.24174345,-2.93314,3.350564,-0.2824154
2.374,4.763413,5.488885,0.17468584,-2.9682636,3.2445388,-0.25182045
2.376,4.6962223,5.418261,0.108080626,-3.0016193,3.1386886,-0.22101247
2.378,4.630609,5.343765,0.041867375,-3.0331972,3.0330565,-0.19002116
2.38,4.5664225,5.2656493,-0.024189472,-3.062973,2.927638,-0.15887666
2.382,4.5035915,5.184391,-0.090106964,-3.0909479,2.8224254,-0.12759686
2.384,4.4417996,5.100367,-0.15593004,-3.1171236,2.7174134,-0.09621537
2.386,4.3810177,5.0138383,-0.22168541,-3.1415164,2.6125617,-0.06476128
2.388,4.3210106,4.9252453,-0.28751206,-3.1641412,2.507852,-0.03326559
2.39,4.2616634,4.8349295,-0.35347867,-3.1850224,2.4032652,-0.0017534494
2.392,4.2029104,4.7432456,-0.41956252,-3.2041922,2.2987962,0.02975297
2.394,4.1445646,4.6505365,-0.48581648,-3.221675,2.1944485,0.061221004
2.396,4.086478,4.55728,-0.5521237,-3.2374978,2.0902493,0.092641234
2.398,4.028618,4.4637656,-0.61853576,-3.251703,1.9862256,0.12402332
2.4,3.970847,4.3703985,-0.6849288,-3.2643085,1.8824286,0.15536511
2.402,3.9130619,4.277507,-0.7513646,-3.2753363,1.7789109,0.1866548
2.404,3.855059,4.1854315,-0.8178258,-3.2847884,1.6757143,0.21790755
2.406,3.796685,4.094483,-0.884084,-3.2926824,1.572893,0.24913716
2.408,3.737979,4.0048842,-0.95019156,-3.2990456,1.4705002,0.28036487
2.41,3.6789181,3.9170134,-1.0159708,-3.3038914,1.3685803,0.31162095
2.412,3.6194685,3.8310485,-1.0812596,-3.3072443,1.2671816,0.34291768
2.414,3.5594854,3.7472773,-1.1459675,-3.3091264,1.1663641,0.37426364
2.416,3.4989145,3.6657608,-1.2099676,-3.3095877,1.0661906,0.40566456
2.418,3.4379768,3.5865495,-1.2730203,-3.308652,0.9667194,0.43711066
2.42,3.3766,3.50977,-1.3349161,-3.3063526,0.868019,0.46857393
2.422,3.314576,3.4354892,-1.3954113,-3.302714,0.77015334,0.5000363
2.424,3.2521622,3.3636115,-1.4542999,-3.2977667,0.6731771,0.53143644
2.426,3.189282,3.2939832,-1.5113616,-3.2915235,0.57714456,0.5627213
2.428,3.1261802,3.226495,-1.5661504,-3.283997,0.482119,0.59381443
2.43,3.062732,3.160933,-1.6185656,-3.2751813,0.3881557,0.62462646
2.432,2.999096,3.0970547,-1.6681974,-3.26505,0.2953148,0.65504843
2.434,2.9354146,3.0346336,-1.7147294,-3.2535663,0.20369971,0.6849806
2.436,2.8716636,2.9732637,-1.7579504,-3.2406685,0.11342591,0.7143185
2.438,2.8079846,2.91282,-1.7975795,-3.2262936,0.02461505,0.74297094
2.44,2.7444777,2.8529747,-1.8333089,-3.2103667,-0.06257546,0.77086353
2.442,2.68108,2.7935028,-1.8650167,-3.1928136,-0.14797771,0.79794514
2.444,2.6180296,2.7341332,-1.8924475,-3.1735663,-0.23140001,0.8241779
2.446,2.5551767,2.6748047,-1.9154892,-3.1525686,-0.31264204,0.8495445
2.448,2.4925268,2.6152153,-1.9339461,-3.129775,-0.39148217,0.8740315
2.45,2.4299397,2.5553336,-1.9479918,-3.1051602,-0.46771228,0.8976284
2.452,2.367501,2.4950914,-1.9574543,-3.0787108,-0.5411177,0.9203157
2.454,2.304882,2.4346168,-1.9624162,-3.0504599,-0.6115,0.9420921
2.456,2.2419863,2.374104,-1.9632215,-3.0204473,-0.6786717,0.96294016
2.458,2.1787145,2.3137286,-1.9598078,-2.9887297,-0.7424519,0.9828226
2.46,2.1148176,2.2538378,-1.9525366,-2.9553723,-0.80268747,1.0017188
2.462,2.0501184,2.1946895,-1.9416436,-2.9204407,-0.8592617,1.019608
2.464,1.9844311,2.1366897,-1.9273485,-2.8840082,-0.9120852,1.036484
2.466,1.9175868,2.0802567,-1.9101726,-2.846127,-0.9611035,1.0523632
2.468,1.8491251,2.025587,-1.8903053,-2.8068595,-1.0062897,1.06729
2.47,1.7785937,1.9731321,-1.86817,-2.7662532,-1.0476661,1.0813285
2.472,1.7058622,1.9232992,-1.8442653,-2.7243605,-1.085263,1.0945563
2.474,1.6306378,1.8766627,-1.818891,-2.681218,-1.1191498,1.1070728
2.476,1.5524594,1.8337595,-1.7924442,-2.6368496,-1.1494006,1.1189755
2.478,1.4711405,1.7948678,-1.7651184,-2.5912743,-1.1761285,1.1303865
2.48,1.3865206,1.7604628,-1.7372417,-2.544509,-1.1994563,1.1414292
2.482,1.298268,1.7307423,-1.708957,-2.4965792,-1.2195246,1.1522572
2.484,1.2063714,1.7060208,-1.6805322,-2.4475038,-1.2364955,1.1630068
2.486,1.1107125,1.6864437,-1.651917,-2.3973117,-1.2505518,1.1738185
2.488,1.0114045,1.6722338,-1.6232374,-2.3460488,-1.2618853,1.1848235
2.49,0.9084679,1.663317,-1.5942688,-2.2937639,-1.2706996,1.1961291
2.492,0.8021309,1.6595947,-1.5650111,-2.24052,-1.2771897,1.2077992
2.494,0.69258976,1.6608067,-1.5352128,-2.1863847,-1.2815292,1.2198619
2.496,0.5802195,1.6668141,-1.5046034,-2.131448,-1.2838758,1.2322706
2.498,0.46549225,1.6771245,-1.4728874,-2.0757852,-1.2843616,1.2449074
2.5,0.34894627,1.6912471,-1.4396003,-2.0194826,-1.2830459,1.2575855
2.502,0.23113999,1.7085769,-1.4044707,-1.9626175,-1.2798873,1.2700475
2.504,0.1126696,1.7284942,-1.3670621,-1.9052308,-1.274753,1.2819154
2.506,-0.0056975484,1.7501307,-1.3270698,-1.8473203,-1.267416,1.2927091
2.508,-0.123527005,1.772784,-1.2841868,-1.7888397,-1.2575527,1.3018773
2.51,-0.23974867,1.7955279,-1.2381045,-1.7296813,-1.2447588,1.30885
2.512,-0.3539057,1.817539,-1.188559,-1.6697086,-1.2286069,1.3130853
2.514,-0.46520865,1.8380897,-1.1355608,-1.6087388,-1.2086558,1.3141364
2.516,-0.5730733,1.856388,-1.0790457,-1.5465716,-1.18448,1.3116949
2.518,-0.6770563,1.8718333,-1.0190898,-1.4830267,-1.1557031,1.3056396
2.52,-0.7767923,1.8837858,-0.955947,-1.417953,-1.1220219,1.2960377
2.522,-0.8718739,1.891935,-0.88999707,-1.3512349,-1.0832157,1.2831417
2.524,-0.96182877,1.895777,-0.8215206,-1.2828189,-1.0391223,1.2673626
2.526,-1.0465548,1.8952276,-0.751034,-1.2127248,-0.9896813,1.2492371
2.528,-1.1257547,1.8902209,-0.6792399,-1.141026,-0.9349009,1.2293577
2.53,-1.1993959,1.8808117,-0.6070098,-1.0678558,-0.87485814,1.2083361
2.532,-1.2673573,1.8670301,-0.53492653,-0.993388,-0.80970836,1.1867522
2.534,-1.3298948,1.849174,-0.46387872,-0.9178308,-0.7396854,1.1651095
2.536,-1.3869896,1.8276504,-0.3947091,-0.8413838,-0.6651012,1.1438179
2.538,-1.4387466,1.80269,-0.32835105,-0.7642858,-0.58635616,1.1231768
2.54,-1.4852455,1.774801,-0.2654147,-0.68680245,-0.5039513,1.1033676
2.542,-1.5269394,1.7444826,-0.20659858,-0.6091863,-0.4184711,1.0844803
2.544,-1.5640056,1.7122599,-0.15242141,-0.5317234,-0.3305626,1.0664927
2.546,-1.5966454,1.6785865,-0.103349924,-0.45471317,-0.24093604,1.0492996
2.548,-1.6250112,1.6437525,-0.059798717,-0.37846115,-0.15038636,1.0327045
2.55,-1.6492733,1.6082722,-0.022007048,-0.3032862,-0.059725165,1.0164627
2.552,-1.6695585,1.5725267,0.009919763,-0.2295187,0.030227453,1.0003109
2.554,-1.6863459,1.5369347,0.035869718,-0.15748283,0.118616104,0.98393506
2.556,-1.6998647,1.5019096,0.055640757,-0.08749809,0.20458265,0.9670394
2.558,-1.7104638,1.4678156,0.06926167,-0.019868076,0.28733736,0.94938076
2.56,-1.7184036,1.4347966,0.07691342,0.04511042,0.36614916,0.9307618
2.562,-1.724086,1.4030553,0.07871145,0.10717617,0.4403543,0.9109997
2.564,-1.7276678,1.3727866,0.07494092,0.16611837,0.50939226,0.8899263
2.566,-1.7296627,1.3440663,0.06603092,0.22180451,0.57284266,0.8674185
2.568,-1.7303252,1.3173724,0.05215317,0.27417392,0.63041437,0.8433757
2.57,-1.7301576,1.2927976,0.033497512,0.32324106,0.6819154,0.81772876
2.572,-1.7291417,1.2704887,0.010370076,0.3691219,0.7272861,0.7904303
2.574,-1.7273738,1.25072,-0.017094791,0.41199148,0.766603,0.7614437
2.576,-1.7250297,1.2335722,-0.0486843,0.45207626,0.80003214,0.73078465
2.578,-1.7220861,1.2194289,-0.08458227,0.48964715,0.82782125,0.6985091
2.58,-1.7186536,1.2086848,-0.124874234,0.52499616,0.8503252,0.66473395
2.582,-1.7153583,1.2016108,-0.16984022,0.5584099,0.867984,0.6296337
2.584,-1.712271,1.198208,-0.2195788,0.59017015,0.88130486,0.59342194
2.586,-1.7094584,1.1986542,-0.27410886,0.62055874,0.8908673,0.5563482
2.588,-1.7071877,1.2031646,-0.3335106,0.6498606,0.8972921,0.51866853
2.59,-1.7056016,1.2117101,-0.39777747,0.67833936,0.9012574,0.4806474
2.592,-1.7047046,1.2245276,-0.4669101,0.7063018,0.90350145,0.44255346
2.594,-1.7045699,1.2415279,-0.5407913,0.7340953,0.90483826,0.4045717
2.596,-1.7052332,1.2626338,-0.61966085,0.7620654,0.90610087,0.3667828
2.598,-1.7066326,1.287586,-0.7034027,0.7905963,0.9080603,0.32913426
2.6,-1.7084512,1.3161472,-0.79201984,0.820099,0.91138494,0.29141364
2.602,-1.7107145,1.3478035,-0.88565356,0.85101914,0.916609,0.253243
2.604,-1.7131273,1.3820437,-0.98421085,0.8838196,0.9240475,0.21412781
2.606,-1.7155956,1.4182938,-1.0875113,0.91894865,0.93378526,0.17349973
2.608,-1.7179437,1.4559095,-1.1950861,0.95681643,0.9456661,0.13079485
2.61,-1.7199888,1.4942704,-1.3065162,0.9977546,0.95931053,0.08546348
2.612,-1.7216778,1.5327785,-1.4210539,1.0419831,0.97407633,0.037029237
2.614,-1.722657,1.5708011,-1.5379591,1.0895938,0.9891241,-0.014812723
2.616,-1.7231019,1.6078827,-1.6562325,1.1404961,1.0034562,-0.07016988
2.618,-1.7227103,1.6434398,-1.7750456,1.1943799,1.0158267,-0.12902053
2.62,-1.721647,1.6771615,-1.893374,1.2508668,1.0252993,-0.190946
2.622,-1.7196469,1.7086887,-2.0102482,1.3093339,1.0306628,-0.2555399
2.624,-1.7168342,1.7377787,-2.1243672,1.3690686,1.0309153,-0.322213
2.626,-1.7133784,1.7645301,-2.2349534,1.4292731,1.0251732,-0.39031348
2.628,-1.7094539,1.7888889,-2.3411188,1.4891431,1.0127867,-0.4591634
2.63,-1.705127,1.810958,-2.4419022,1.5478952,0.993377,-0.5281142
2.632,-1.700563,1.8308662,-2.5363412,1.6048214,0.96686584,-0.59657717
2.634,-1.6958387,1.848921,-2.6235385,1.6593379,0.9334363,-0.6640444
2.636,-1.6912218,1.8654199,-2.7024927,1.7110146,0.89355636,-0.7300705
2.638,-1.6870474,1.8807657,-2.772789,1.7595885,0.8479294,-0.79427004
2.64,-1.683501,1.8954451,-2.8343534,1.804974,0.7974327,-0.85633963
2.642,-1.6808249,1.9099917,-2.8872166,1.8472449,0.743042,-0.91606474
2.644,-1.6790329,1.9248071,-2.931043,1.886602,0.6857046,-0.97334045
2.646,-1.6783285,1.9405075,-2.9657347,1.9233277,0.62625575,-1.028156
2.648,-1.678673,1.9575872,-2.9911735,1.9577394,0.5653259,-1.0805506
2.65,-1.6793612,1.9761219,-3.0074854,1.9901758,0.5033463,-1.1305847
2.652,-1.6805224,1.996557,-3.0150762,2.0209348,0.4405508,-1.1782956
2.654,-1.6828325,2.0195005,-3.01402,2.05026,0.37698144,-1.2237056
2.656,-1.6856736,2.0448935,-3.0046954,2.0783253,0.31253397,-1.2668103
2.658,-1.687849,2.071951,-2.9876294,2.1052716,0.24702841,-1.3075875
2.66,-1.6891792,2.100635,-2.9632602,2.13118,0.18024325,-1.3459623
2.662,-1.6896956,2.131273,-2.9320478,2.156115,0.11200911,-1.3818095
2.664,-1.6889853,2.1636689,-2.894536,2.1800952,0.042280793,-1.4149377
2.666,-1.6865306,2.197495,-2.8510633,2.203143,-0.028721511,-1.4451582
2.668,-1.6816751,2.232331,-2.8020544,2.2252874,-0.10052931,-1.4723449
2.67,-1.6739619,2.2679422,-2.7477686,2.2465675,-0.17253983,-1.4964086
2.672,-1.6630435,2.3041453,-2.6885333,2.2670186,-0.24399555,-1.5172917
2.674,-1.6487468,2.3407593,-2.6248546,2.2865257,-0.31442702,-1.535164
2.676,-1.6306988,2.3773704,-2.5571709,2.305029,-0.38303137,-1.5500115
2.678,-1.608832,2.4137979,-2.4857578,2.322361,-0.44923925,-1.5619223
2.68,-1.582905,2.449966,-2.41076,2.3383422,-0.51257384,-1.5709543
2.682,-1.5530523,2.4860294,-2.3322828,2.3527539,-0.5727335,-1.5771555
2.684,-1.519489,2.5219326,-2.250205,2.3653708,-0.62967867,-1.5806042
2.686,-1.4821322,2.5577383,-2.164569,2.375995,-0.68347126,-1.5813366
2.688,-1.4409317,2.593472,-2.075157,2.3844624,-0.7342546,-1.5792565
2.69,-1.3958032,2.6289117,-1.9817939,2.3906431,-0.78238094,-1.5742033
2.692,-1.3465129,2.664057,-1.8841078,2.394479,-0.82827055,-1.566079
2.694,-1.2933953,2.698997,-1.7823291,2.3959615,-0.8723038,-1.5548987
2.696,-1.236602,2.7338,-1.6765399,2.3951046,-0.9148298,-1.540752
2.698,-1.1764616,2.7685316,-1.5667591,2.3919647,-0.9561501,-1.5238023
2.7,-1.1132644,2.8033862,-1.4529128,2.3866646,-0.9964741,-1.5043079
2.702,-1.0476049,2.8383918,-1.3349684,2.3794084,-1.0358747,-1.4826522
2.704,-0.97985506,2.8735323,-1.2129381,2.3704755,-1.0742747,-1.4593033
2.706,-0.9104643,2.9088926,-1.0867382,2.3602037,-1.1115105,-1.4347304
2.708,-0.84033895,2.9444385,-0.9563712,2.348939,-1.1473532,-1.4093533
2.71,-0.77005064,2.9801323,-0.82144225,2.3370414,-1.1815488,-1.3835416
2.712,-0.7003237,3.0163846,-0.6816044,2.3248663,-1.2138457,-1.3576379
2.714,-0.6316657,3.0534096,-0.53708035,2.3127673,-1.2439467,-1.3319218
2.716,-0.5647196,3.0912683,-0.38820612,2.301081,-1.2715904,-1.3065944
2.718,-0.500155,3.1301315,-0.23575985,2.290133,-1.2965668,-1.2817969
2.72,-0.43850255,3.1700556,-0.08026731,2.2802317,-1.3187035,-1.2576013
2.722,-0.38026872,3.2109277,0.077479124,2.271677,-1.3377634,-1.2340508
2.724,-0.32607687,3.2526164,0.23681581,2.2648172,-1.3533794,-1.2111638
2.726,-0.2761389,3.2949257,0.39697134,2.2600756,-1.3650894,-1.1889516
2.728,-0.23091286,3.3377967,0.55714333,2.2579556,-1.3723402,-1.1674384
2.73,-0.19060841,3.381081,0.71634567,2.259014,-1.3745248,-1.1466749
2.732,-0.15522724,3.424553,0.8735231,2.263853,-1.3709732,-1.1267312
2.734,-0.12472552,3.4680123,1.027722,2.2730532,-1.3610034,-1.1076949
2.736,-0.09878147,3.5112066,1.1781744,2.2871742,-1.3439175,-1.0896175
2.738,-0.07698351,3.5540104,1.3238113,2.3066788,-1.3190482,-1.072506
2.74,-0.05899608,3.5962718,1.4633772,2.3318603,-1.2859688,-1.0563173
2.742,-0.044272542,3.6377213,1.5957036,2.3628275,-1.2444254,-1.0410306
2.744,-0.032406032,3.6781104,1.7198285,2.3994963,-1.1943274,-1.0265691
2.746,-0.022550046,3.7171226,1.8349257,2.4415245,-1.1359123,-1.0127149
2.748,-0.0140762925,3.754508,1.9405866,2.4883518,-1.0697944,-0.9991689
2.75,-0.00602901,3.7899578,2.0367866,2.5392547,-0.996857,-0.9856609
2.752,0.0022099018,3.8232884,2.1233027,2.593355,-0.91818917,-0.9719897
2.754,0.01113832,3.8543398,2.1998901,2.6496475,-0.83506763,-0.9579631
2.756,0.02128452,3.882829,2.2661366,2.7070856,-0.74890333,-0.9433758
2.758,0.032960713,3.9086866,2.3219838,2.764685,-0.66110456,-0.9280492
2.76,0.046069145,3.9319286,2.3677723,2.821618,-0.5729469,-0.9118777
2.762,0.061463475,3.9523263,2.4043627,2.8772402,-0.48555404,-0.894779
2.764,0.07971895,3.9697707,2.4323435,2.931093,-0.39990216,-0.8766881
2.766,0.1003443,3.9848738,2.452921,2.982906,-0.31671888,-0.85753
2.768,0.12226999,3.9987216,2.467237,3.0325747,-0.23654544,-0.83730567
2.77,0.14593673,4.0111485,2.4760408,3.0800943,-0.15971011,-0.8160768
2.772,0.17149663,4.0218387,2.480242,3.12556,-0.08639687,-0.79394734
2.774,0.1984427,4.031105,2.4809217,3.169091,-0.01670134,-0.7710403
2.776,0.22598588,4.039397,2.4791417,3.2108042,0.04930687,-0.7474495
2.778,0.25370407,4.047093,2.4757886,3.2508056,0.11162126,-0.72325784
2.78,0.28090715,4.0544443,2.4715607,3.2891555,0.17023838,-0.69852626
2.782,0.30708885,4.0616503,2.4671419,3.325892,0.22509104,-0.67325336
2.784,0.33196294,4.0688667,2.4633164,3.361048,0.2761106,-0.6473914
2.786,0.35492873,4.076603,2.4607866,3.394682,0.32320327,-0.6208581
2.788,0.37558246,4.0849113,2.45995,3.4269044,0.36624587,-0.593593
2.79,0.39350104,4.094123,2.4610238,3.4578788,0.40511888,-0.5655816
2.792,0.40814233,4.10445,2.4641652,3.4878376,0.43976974,-0.53683907
2.794,0.41936326,4.1162148,2.469369,3.5170527,0.47015882,-0.5074571
2.796,0.42682672,4.129694,2.4767914,3.5458062,0.496262,-0.47755194
2.798,0.43046856,4.145127,2.4861846,3.5743616,0.51815933,-0.44725388
2.8,0.4301231,4.1629095,2.4972908,3.6029978,0.53603405,-0.4167186
2.802,0.42580807,4.1832166,2.5096846,3.6319888,0.5501825,-0.3861053
2.804,0.41763508,4.2063637,2.5231059,3.6615825,0.5610152,-0.35555255
2.806,0.40589178,4.232419,2.5372124,3.691992,0.5690621,-0.3251543
2.808,0.39092374,4.261564,2.5516777,3.723405,0.5750015,-0.2949775
2.81,0.37327933,4.2937775,2.566014,3.755986,0.579622,-0.26502275
2.812,0.35351765,4.329123,2.579859,3.7898827,0.58377594,-0.23521847
2.814,0.33223462,4.3676176,2.5928538,3.8251896,0.58835346,-0.2054112
2.816,0.3100438,4.4092803,2.6046681,3.8619945,0.59425,-0.17538506
2.818,0.28789937,4.4540486,2.6149192,3.9003363,0.602311,-0.14489415
2.82,0.26636362,4.5018053,2.6229994,3.9401567,0.6131968,-0.1136843
2.822,0.24645185,4.552112,2.628648,3.9813032,0.62737525,-0.081505746
2.824,0.22880292,4.6046267,2.6319373,4.0235095,0.64508045,-0.048135906
2.826,0.2143699,4.659131,2.6330156,4.066388,0.66633356,-0.013406485
2.828,0.20361555,4.7154074,2.6321845,4.1094403,0.69092596,0.022785634
2.83,0.19721532,4.773063,2.6294062,4.152084,0.7184541,0.0604676
2.832,0.19570923,4.831993,2.6248224,4.193679,0.74831784,0.09960377
2.834,0.19952476,4.8919253,2.6187434,4.2335835,0.7798153,0.14012387
2.836,0.20924842,4.9524307,2.6113963,4.2711735,0.8121853,0.18191221
2.838,0.22543979,5.012949,2.6036384,4.3058586,0.8445991,0.224814
2.84,0.24825227,5.0730925,2.5964289,4.337096,0.8762227,0.26865482
2.842,0.27772725,5.1325593,2.5908778,4.36443,0.90626216,0.3132416
2.844,0.31400836,5.191178,2.5876975,4.3875074,0.93397623,0.3583582
2.846,0.3568535,5.2485223,2.5875022,4.4060907,0.95869297,0.40375558
2.848,0.40591705,5.304222,2.5907857,4.420069,0.97986394,0.44913423
2.85,0.46082783,5.357875,2.5983424,4.42946,0.9970633,0.49418104
2.852,0.52099705,5.409308,2.6107495,4.4343905,1.0099802,0.5385704
2.854,0.5856757,5.4584484,2.6282754,4.435083,1.0184641,0.5819876
2.856,0.6542361,5.505267,2.6511402,4.431853,1.0225044,0.62412006
2.858,0.7261013,5.5496206,2.6796708,4.425147,1.0223012,0.66465837
2.86,0.8002013,5.591612,2.713771,4.41549,1.0181843,0.70333815
2.862,0.87576497,5.631344,2.7529004,4.4034953,1.0106434,0.73992604
2.864,0.95186806,5.6689854,2.7965755,4.3898277,1.0003307,0.7742275
2.866,1.0274879,5.7046866,2.8444316,4.375142,0.98800623,0.8061096
2.868,1.1018522,5.7386565,2.8953428,4.3600826,0.97448707,0.83552444
2.87,1.1745034,5.771003,2.948408,4.345208,0.9605985,0.8625122
2.872,1.2445399,5.8023844,3.002651,4.3309727,0.9470942,0.8872459
2.874,1.311057,5.8333282,3.05684,4.31777,0.93464214,0.9099866
2.876,1.3734236,5.864308,3.1093438,4.305938,0.9238286,0.93107027
2.878,1.4311116,5.8954625,3.1588113,4.295703,0.91507983,0.9509046
2.88,1.483307,5.9269676,3.2042975,4.28718,0.9086073,0.9699626
2.882,1.5296007,5.9592733,3.2447379,4.2803874,0.9044329,0.98876625
2.884,1.5696272,5.992791,3.2787476,4.2752657,0.9023669,1.0077931
2.886,1.6029335,6.028013,3.3050284,4.2716775,0.9020217,1.0273639
2.888,1.6290019,6.065336,3.3225055,4.2694454,0.9028457,1.0475864
2.89,1.6478021,6.105102,3.3306637,4.2683764,0.90422595,1.0683024
2.892,1.6589084,6.1475368,3.3287778,4.2682734,0.9055125,1.0890682
2.894,1.6623757,6.192608,3.3164392,4.2689543,0.9060787,1.109199
2.896,1.6582142,6.2402477,3.2934873,4.270267,0.90544266,1.1278973
2.898,1.6466187,6.290243,3.259726,4.27207,0.9032868,1.1443589
2.9,1.6277703,6.342232,3.2157395,4.274168,0.89945024,1.157932
2.902,1.6019936,6.395757,3.16237,4.27634,0.893966,1.1682655
2.904,1.5696628,6.4505663,3.1007583,4.278359,0.8870869,1.1752696
2.906,1.5315253,6.506288,3.0318615,4.2799206,0.8791578,1.1791755
2.908,1.4881233,6.56213,2.9566786,4.280585,0.87049365,1.1805799
2.91,1.440337,6.617287,2.8768985,4.2797823,0.8613497,1.1804061
2.912,1.388771,6.670992,2.7946458,4.2768216,0.85181606,1.1798115
2.914,1.3343158,6.7225466,2.7121139,4.2709517,0.84188837,1.1800115
2.916,1.2779036,6.7713985,2.6311061,4.261392,0.83141994,1.1821195
2.918,1.2205932,6.8169203,2.5533524,4.2474017,0.82009816,1.1870668
2.92,1.1633425,6.8582754,2.4804637,4.2283907,0.8075705,1.1955098
2.922,1.1070889,6.8947124,2.4139762,4.2040143,0.7935396,1.2077702
2.924,1.0527713,6.92566,2.3553822,4.1741853,0.7777194,1.2237937
2.926,1.0010865,6.9506803,2.3062234,4.139118,0.7599739,1.2432177
2.928,0.95271087,6.9697847,2.2678354,4.0992928,0.74028623,1.2654086
2.93,0.90836203,6.983003,2.2412865,4.0553737,0.7186707,1.2895632
2.932,0.86796284,6.990723,2.227333,4.0082192,0.69522476,1.3147496
2.934,0.8316963,6.993321,2.2261937,3.958825,0.67013556,1.3399549
2.936,0.79923904,6.991183,2.2376137,3.9082744,0.6436465,1.3641117
2.938,0.770828,6.984714,2.2609997,3.857609,0.6160007,1.3862011
2.94,0.7457775,6.974536,2.295326,3.8077853,0.5873849,1.4053841
2.942,0.7238171,6.9609795,2.3395157,3.7596097,0.5578777,1.4210751
2.944,0.7046503,6.9446063,2.3922095,3.7137773,0.527478,1.4328885
2.946,0.68763924,6.9261236,2.4521844,3.6708846,0.49620104,1.4406091
2.948,0.6722802,6.9062967,2.5176032,3.6314528,0.46411002,1.4441258
2.95,0.6582066,6.8858433,2.5863395,3.5959551,0.4313392,1.443472
2.952,0.6452153,6.865059,2.656407,3.5648403,0.39817548,1.4388925
2.954,0.6331686,6.8441076,2.7259984,3.5385551,0.36515284,1.4308513
2.956,0.62206507,6.823121,2.7937083,3.517432,0.33296257,1.42005
2.958,0.6120863,6.8024693,2.8584745,3.501607,0.30240119,1.4074864
2.96,0.6036303,6.782279,2.9188294,3.491027,0.27436936,1.3943691
2.962,0.59733033,6.7625995,2.9732685,3.4854288,0.24979344,1.3819928
2.964,0.5937246,6.7432795,3.020575,3.4842868,0.2294325,1.371655
2.966,0.5935446,6.7241254,3.0598068,3.4868577,0.21382797,1.3646055
2.968,0.5972967,6.704994,3.0902228,3.4922264,0.20318425,1.3620094
2.97,0.60589373,6.685537,3.1114912,3.4994352,0.1974442,1.3648553
2.972,0.6202556,6.665401,3.1239166,3.5075793,0.19633043,1.3738616
2.974,0.6412282,6.6444125,3.127672,3.515806,0.19932136,1.3894027
2.976,0.66931725,6.622842,3.1230392,3.5234115,0.20574215,1.4115338
2.978,0.7049135,6.600649,3.110903,3.529893,0.21497953,1.4399583
2.98,0.7478254,6.5782003,3.0916288,3.5348957,0.22642598,1.4740038
2.982,0.7995721,6.554165,3.0677013,3.538168,0.23956326,1.51271
2.984,0.8593358,6.5293612,3.038006,3.5395303,0.25399995,1.5549111
2.986,0.9264647,6.5040693,3.0034924,3.538773,0.26940438,1.5993392
2.988,1.0001575,6.478994,2.9649472,3.5355916,0.28540775,1.644706
2.99,1.0794426,6.454875,2.9227762,3.529594,0.30157846,1.6897594
2.992,1.1630573,6.4321012,2.8774595,3.520393,0.31741527,1.7332383
2.994,1.2496831,6.411013,2.8295994,3.507654,0.33234444,1.7738509
2.996,1.3378513,6.3918934,2.7796383,3.491164,0.34571517,1.8102446
2.998,1.4258053,6.3751864,2.727883,3.4708276,0.35676637,1.841126
3,1.5119135,6.3611894,2.674382,3.4467485,0.36465126,1.8653255
3.002,1.5949564,6.350138,2.619548,3.419178,0.36851263,1.8818479
3.004,1.673255,6.342427,2.5636747,3.388548,0.36753547,1.8898646
3.006,1.7457212,6.338189,2.5068877,3.3554506,0.36098778,1.8887416
3.008,1.8113074,6.3375425,2.4495902,3.3205597,0.3482558,1.8781317
3.01,1.8692827,6.3404884,2.3917031,3.2856166,0.33096302,1.8598331
3.012,1.919157,6.346963,2.3330383,3.250747,0.30811208,1.8336277
3.014,1.960526,6.3565865,2.2735796,3.2167232,0.28016365,1.8007481
3.016,1.9931064,6.36906,2.2137794,3.1842186,0.24785389,1.7627665
3.018,2.0170517,6.3843336,2.154288,3.1537535,0.21214768,1.7214491
3.02,2.0325418,6.4021974,2.0949984,3.1256957,0.17413142,1.6785727
3.022,2.040088,6.4224873,2.0355825,3.1002474,0.13494131,1.6357405
3.024,2.0402546,6.4446874,1.9758861,3.0774639,0.09562418,1.5942806
3.026,2.0334568,6.468353,1.9162936,3.05728,0.05708769,1.5551677
3.028,2.0201192,6.4931226,1.857208,3.039595,0.020080656,1.5190272
3.03,2.0007708,6.519141,1.7991655,3.0242338,-0.014857888,1.4861628
3.032,1.9761012,6.5464253,1.7424994,3.0109665,-0.047433704,1.4566493
