Time_s_,Acc_x_m_s_2_,Acc_y_m_s_2_,Acc_z_m_s_2_,Gyro_x_1_s_,Gyro_y_1_s_,Gyro_z_1_s_
0,0.03150524,-0.018298373,0.014470483,0.045609437,-0.20338616,0.13604619
0.002,0.030423123,-0.02643894,0.02584366,0.04627908,-0.20424129,0.13591579
0.004,0.029284598,-0.034919925,0.037224576,0.04716833,-0.20480768,0.13580285
0.006,0.027991638,-0.043659694,0.04879862,0.048330635,-0.20496781,0.13571961
0.008,0.026745131,-0.052707143,0.060401894,0.049816363,-0.20460021,0.13565603
0.01,0.025245246,-0.06204694,0.071919784,0.051665746,-0.20357138,0.13562402
0.012,0.023622392,-0.071620695,0.08325677,0.053910293,-0.20175517,0.13561758
0.014,0.02186254,-0.081480935,0.0943153,0.056569085,-0.19904003,0.13564798
0.016,0.019979345,-0.09160723,0.104956694,0.059629865,-0.1953528,0.13573043
0.018,0.017949272,-0.10194974,0.11502627,0.06304115,-0.19068047,0.13588305
0.02,0.015755925,-0.112591855,0.12448047,0.06672079,-0.18507986,0.13613078
0.022,0.013524473,-0.12336924,0.13326979,0.070553854,-0.17868704,0.1364955
0.024,0.011136491,-0.1342991,0.14137681,0.0743957,-0.17171127,0.13699803
0.026,0.008671977,-0.14532274,0.1487817,0.07808854,-0.16440976,0.13765578
0.028,0.0060193613,-0.15632743,0.15536118,0.08154459,-0.15704884,0.13848068
0.03,0.0032188296,-0.16734335,0.16109753,0.084544905,-0.14994764,0.13947186
0.032,0.00017984211,-0.17825007,0.1660493,0.086974375,-0.14340816,0.14063121
0.034,-0.0030323938,-0.18906167,0.1701216,0.08874827,-0.13767941,0.14193957
0.036,-0.0065468103,-0.19966197,0.17341773,0.08981928,-0.13293576,0.1433733
0.038,-0.010388985,-0.2099562,0.17595652,0.09018052,-0.12928316,0.14489119
0.04,-0.014748231,-0.21984777,0.17770272,0.08984742,-0.12675051,0.14644964
0.042,-0.019619927,-0.2292781,0.17877117,0.08888108,-0.12526862,0.14801298
0.044,-0.025033295,-0.23816016,0.1791296,0.087374374,-0.124706,0.14954233
0.046,-0.031137116,-0.24647602,0.17880403,0.08544974,-0.124870405,0.1510102
0.048,-0.038050413,-0.2541204,0.17776357,0.08324413,-0.12553984,0.1523753
0.05,-0.0459186,-0.26104787,0.17600249,0.08092473,-0.12646438,0.15359634
0.052,-0.054834418,-0.26721525,0.17345655,0.07867577,-0.12739326,0.15465192
0.054,-0.06486799,-0.27246106,0.17015144,0.0766623,-0.12807935,0.15554482
0.056,-0.07612158,-0.27716368,0.16622475,0.07505545,-0.12830861,0.15628856
0.058,-0.0886351,-0.2807881,0.16136898,0.07398467,-0.12792347,0.15691736
0.06,-0.10247719,-0.28327823,0.15566117,0.07354875,-0.12682873,0.15748565
0.062,-0.11763193,-0.2847565,0.14910427,0.07379811,-0.12499536,0.15807033
0.064,-0.13388354,-0.28528786,0.14171556,0.0747479,-0.12245866,0.15873697
0.066,-0.15121907,-0.28491244,0.13338238,0.07635349,-0.11930366,0.15956415
0.068,-0.1694783,-0.28378856,0.12428337,0.078524806,-0.11568444,0.16061634
0.07,-0.18848485,-0.2819711,0.11446212,0.08113723,-0.11178681,0.1619148
0.072,-0.20817885,-0.27953458,0.103901446,0.084045045,-0.10780716,0.1634637
0.074,-0.228091,-0.27655262,0.092691794,0.087082595,-0.10394653,0.16522454
0.076,-0.24799147,-0.27317473,0.080958754,0.09008417,-0.10037408,0.16713567
0.078,-0.26747313,-0.26951852,0.06880362,0.09291045,-0.09722931,0.16911913
0.08,-0.28620124,-0.26580942,0.056524817,0.09543534,-0.094615474,0.17107497
0.082,-0.30388114,-0.26216862,0.044192906,0.09756927,-0.09256918,0.17290446
0.084,-0.3199589,-0.25891453,0.032008834,0.09927882,-0.09108567,0.17453137
0.086,-0.3343456,-0.25613448,0.020149868,0.100561395,-0.09011472,0.17586838
0.088,-0.34646007,-0.2540614,0.008766532,0.101471364,-0.08955533,0.17686294
0.09,-0.35612753,-0.25278458,-0.0020922981,0.10207155,-0.089288704,0.1774834
0.092,-0.36294687,-0.2524848,-0.012333456,0.102452815,-0.08916925,0.17771502
0.094,-0.36671942,-0.2530652,-0.02184965,0.10273121,-0.08905238,0.17755052
0.096,-0.36729664,-0.25463483,-0.03068269,0.10302891,-0.08879754,0.17701551
0.098,-0.3645029,-0.25709385,-0.038808998,0.10345957,-0.08826759,0.17612182
0.1,-0.35818076,-0.26045877,-0.04635773,0.10413877,-0.087342925,0.1748856
0.102,-0.348275,-0.26475817,-0.05318511,0.105171725,-0.085904285,0.1733271
0.104,-0.33496913,-0.26978493,-0.05931432,0.10663736,-0.083866425,0.17146142
0.106,-0.31820717,-0.27544656,-0.06497058,0.10858317,-0.08117116,0.16930738
0.108,-0.2982733,-0.28173018,-0.07016603,0.11105093,-0.07777824,0.1668984
0.11,-0.27540118,-0.2882763,-0.07495633,0.11404165,-0.0736583,0.1642807
0.112,-0.24971282,-0.2949045,-0.079482466,0.117533706,-0.068812825,0.16152573
0.114,-0.22141707,-0.3013983,-0.08369652,0.12148662,-0.063269034,0.15873234
0.116,-0.19065021,-0.30762482,-0.08769545,0.12584457,-0.057094034,0.15600473
0.118,-0.15793487,-0.3133589,-0.09133706,0.13054392,-0.05040762,0.15346925
0.12,-0.123400554,-0.31836814,-0.09445095,0.13552512,-0.043369133,0.1512485
0.122,-0.08750428,-0.32251835,-0.09703308,0.14073543,-0.036149144,0.14943923
0.124,-0.05058632,-0.32555437,-0.09906753,0.14613077,-0.028938532,0.14814655
0.126,-0.013008282,-0.32732964,-0.10044633,0.15170301,-0.021930464,0.1474418
0.128,0.024912849,-0.327698,-0.101028174,0.15745269,-0.0153148025,0.14735991
0.13,0.06268124,-0.32637185,-0.100748464,0.16340533,-0.009258449,0.14790404
0.132,0.099974744,-0.32342887,-0.09945961,0.16959772,-0.0038801506,0.149054
0.134,0.13658309,-0.31869704,-0.09715266,0.1760755,0.0007402748,0.1507743
0.136,0.17199507,-0.31207436,-0.09375575,0.18287885,0.004571669,0.1530213
0.138,0.20597361,-0.30356666,-0.08912991,0.19004607,0.007636048,0.15574066
0.14,0.23813376,-0.29306054,-0.083325036,0.19762833,0.009982921,0.15887831
0.142,0.2682529,-0.2805339,-0.076397054,0.20563671,0.011697695,0.16238572
0.144,0.29586956,-0.2658118,-0.06836998,0.21409985,0.012890242,0.16619079
0.146,0.32075578,-0.24896616,-0.059334792,0.22302666,0.013662338,0.17022435
0.148,0.34263638,-0.22990453,-0.049467996,0.23238587,0.014107391,0.17441331
0.15,0.36123297,-0.20868511,-0.038943987,0.24212982,0.014281854,0.17867969
0.152,0.37631205,-0.18529728,-0.028090337,0.25217608,0.014223933,0.18295743
0.154,0.3876454,-0.15982899,-0.016930062,0.2623985,0.013923943,0.18719308
0.156,0.39518782,-0.13222884,-0.0057992646,0.27266985,0.013333842,0.19133748
0.158,0.3988136,-0.10262881,0.005181426,0.28283957,0.012369156,0.19536352
0.16,0.39826453,-0.07088408,0.015909225,0.29274526,0.010905847,0.19925076
0.162,0.39342165,-0.03699769,0.0262168,0.30222732,0.00879249,0.20300615
0.164,0.3845942,-0.0013226271,0.035715297,0.31111276,0.0058623254,0.20665173
0.166,0.37162608,0.03597486,0.044499055,0.31923786,0.0019394308,0.21021031
0.168,0.35478365,0.07455644,0.052321505,0.326455,-0.0031487346,0.21369685
0.17,0.3343979,0.11429548,0.05893232,0.3326478,-0.009557247,0.21712525
0.172,0.31069985,0.15515886,0.064047456,0.337726,-0.017399117,0.22049221
0.174,0.28386807,0.19703719,0.06779117,0.34165448,-0.026756793,0.22376104
0.176,0.25414813,0.23973396,0.070361316,0.3444425,-0.037623778,0.22688086
0.178,0.22194476,0.28303212,0.07201019,0.34617937,-0.049927324,0.22976588
0.18,0.18768632,0.32637277,0.07302483,0.3469752,-0.06349993,0.23232116
0.182,0.15183768,0.36940312,0.073682316,0.3470146,-0.07806523,0.23444875
0.184,0.1147012,0.411577,0.0740325,0.34653062,-0.093253925,0.23605552
0.186,0.07696362,0.45289418,0.07409187,0.3457862,-0.10862248,0.23706195
0.188,0.038955048,0.4931346,0.07374856,0.34506258,-0.12365158,0.23742107
0.19,0.0012203455,0.5321647,0.07289781,0.3446301,-0.13778266,0.2370932
0.192,-0.035612613,0.56984997,0.07154687,0.34474754,-0.15041599,0.23606306
0.194,-0.0711191,0.60596883,0.06970233,0.34563324,-0.16094433,0.23436101
0.196,-0.104729,0.6401633,0.06723365,0.34745273,-0.16886368,0.23204531
0.198,-0.13577244,0.67230916,0.06403594,0.35031208,-0.17373192,0.22922267
0.2,-0.16369736,0.7022008,0.060027067,0.3542707,-0.17518309,0.22600919
0.202,-0.18793178,0.7297056,0.054996748,0.35935637,-0.17299394,0.22250478
0.204,-0.20799717,0.7546192,0.04876796,0.3655347,-0.16705619,0.21878074
0.206,-0.22353584,0.776886,0.0412024,0.37274918,-0.1574125,0.21490324
0.208,-0.23401308,0.79623294,0.032042477,0.3809092,-0.14423802,0.21091224
0.21,-0.23908323,0.81259716,0.021304782,0.38986027,-0.12784788,0.20683397
0.212,-0.23845619,0.82602787,0.0086821765,0.39941663,-0.108699426,0.20271137
0.214,-0.23203614,0.83662426,-0.006021142,0.40936303,-0.08738439,0.19857712
0.216,-0.21983951,0.84454787,-0.02261275,0.4194268,-0.06460786,0.19446358
0.218,-0.20168784,0.8500779,-0.041564573,0.42933917,-0.0411772,0.19040191
0.22,-0.17769587,0.8530229,-0.06279662,0.4388188,-0.017931506,0.18638684
0.222,-0.14823425,0.8537767,-0.08568598,0.4475906,0.0042891353,0.18241072
0.224,-0.11337128,0.852476,-0.11001438,0.455429,0.024698645,0.17846657
0.226,-0.07367107,0.8492194,-0.13529313,0.46217018,0.042621836,0.17453124
0.228,-0.029491782,0.84418863,-0.16100717,0.4677242,0.057548866,0.17062181
0.23,0.018723309,0.83770293,-0.18674625,0.47208655,0.06913501,0.16677196
0.232,0.07032403,0.83020496,-0.21180777,0.47531742,0.07723409,0.16305281
0.234,0.12490854,0.82199526,-0.23569126,0.47756237,0.08187449,0.15954691
0.236,0.18172368,0.81334984,-0.25780803,0.47899094,0.08322306,0.15635584
0.238,0.24031404,0.8044335,-0.27768394,0.4798034,0.081563324,0.15359429
0.24,0.30030182,0.79534197,-0.29482427,0.48020637,0.07724121,0.15136619
0.242,0.36090538,0.78649086,-0.3088017,0.48040807,0.07064988,0.14977354
0.244,0.42160547,0.77815306,-0.31913927,0.4806037,0.062185526,0.14889832
0.246,0.48182932,0.77064604,-0.32559204,0.4809864,0.052242965,0.14878553
0.248,0.54122996,0.7641782,-0.328336,0.4817291,0.041229427,0.14943178
0.25,0.5993244,0.75907737,-0.3271837,0.48301065,0.029558122,0.1508168
0.252,0.6555034,0.755729,-0.32200366,0.48501694,0.017653093,0.15293
0.254,0.70958096,0.75425225,-0.31301773,0.48791716,0.0058817267,0.1557758
0.256,0.7612864,0.7547393,-0.3002608,0.491849,-0.005449891,0.1593835
0.258,0.8103355,0.75725764,-0.2838005,0.4969201,-0.016125366,0.16382663
0.26,0.8565815,0.76188225,-0.26403546,0.5031725,-0.026020378,0.1691557
0.262,0.8998524,0.7687579,-0.24144778,0.51057917,-0.035122693,0.17535697
0.264,0.9399783,0.7780012,-0.21681216,0.5190584,-0.04355423,0.182361
0.266,0.9769928,0.7896567,-0.19064847,0.5284732,-0.051523402,0.19001675
0.268,1.010795,0.80380476,-0.16371399,0.53864515,-0.059308067,0.1981341
0.27,1.0415525,0.8202963,-0.13660908,0.5493742,-0.06722328,0.20647226
0.272,1.0690346,0.83929944,-0.1097263,0.560436,-0.07555191,0.21479276
0.274,1.0930666,0.8609303,-0.08319549,0.5716299,-0.08452393,0.22285613
0.276,1.1144255,0.88494813,-0.05764187,0.5827695,-0.09432216,0.23042758
0.278,1.1331949,0.91107816,-0.03326246,0.59368837,-0.10503124,0.23730077
0.28,1.1493154,0.9390898,-0.010203853,0.60423917,-0.11668526,0.2433291
0.282,1.163041,0.9688555,0.011382349,0.6143276,-0.1292204,0.24841094
0.284,1.1745605,1.0002908,0.03086663,0.6238867,-0.14251697,0.25249815
0.286,1.1844946,1.0331877,0.047601677,0.63287675,-0.15642457,0.2556108
0.288,1.1931585,1.0673369,0.061224677,0.64128375,-0.17078924,0.25784257
0.29,1.2008362,1.1028289,0.071329355,0.64911944,-0.18544595,0.25934434
0.292,1.2081076,1.1394402,0.07786565,0.6563925,-0.2002255,0.26026693
0.294,1.2154129,1.1769196,0.08094083,0.6631264,-0.21492888,0.26078033
0.296,1.2231444,1.2145739,0.080890104,0.6693653,-0.22934586,0.2610227
0.298,1.2320272,1.2519106,0.07798096,0.67516255,-0.24323732,0.26111633
0.3,1.2422965,1.2884545,0.07259451,0.6805764,-0.25632915,0.26117867
0.302,1.2541159,1.3240341,0.06487697,0.685699,-0.26833045,0.26130307
0.304,1.2679628,1.3583068,0.05491882,0.690626,-0.27889854,0.261553
0.306,1.2842331,1.3911642,0.042903088,0.695452,-0.287714,0.26200178
0.308,1.3028696,1.4223994,0.029098693,0.70028293,-0.2945088,0.2627543
0.31,1.3244786,1.4516922,0.013845842,0.7052213,-0.29909,0.26393598
0.312,1.3493567,1.4787885,-0.0027484074,0.7103582,-0.30135673,0.2656664
0.314,1.3780146,1.5035006,-0.020570237,0.71577287,-0.30130988,0.26806593
0.316,1.41105,1.5256933,-0.03939099,0.7215252,-0.29903603,0.27123368
0.318,1.4485717,1.5457034,-0.058821376,0.7276312,-0.29468632,0.27523497
0.32,1.4905179,1.5639677,-0.078683674,0.7340863,-0.28842995,0.2801186
0.322,1.536691,1.5808553,-0.09846228,0.74085295,-0.28040993,0.2858664
0.324,1.5872556,1.5962297,-0.117393576,0.74791175,-0.2707183,0.2924388
0.326,1.6415542,1.6106688,-0.13477999,0.7552224,-0.25938636,0.2997937
0.328,1.6979436,1.6254578,-0.15007019,0.76273984,-0.246409,0.30791906
0.33,1.7553972,1.6412548,-0.16284999,0.7704221,-0.23170678,0.31680778
0.332,1.8141742,1.6579103,-0.17279577,0.77822685,-0.2152183,0.32647115
0.334,1.8741517,1.6753843,-0.18001784,0.786121,-0.19691125,0.3368955
0.336,1.934859,1.6939245,-0.18493947,0.79404724,-0.17684281,0.34807506
0.338,1.9953201,1.7141392,-0.18789986,0.80197406,-0.15510029,0.3599599
0.34,2.0545943,1.7369448,-0.1889316,0.80988526,-0.1318048,0.37246647
0.342,2.111938,1.7634223,-0.18835822,0.8177716,-0.10711256,0.3854751
0.344,2.1659398,1.7946534,-0.18609367,0.8256533,-0.081213,0.39887795
0.346,2.2155373,1.8313184,-0.18204388,0.83352077,-0.05433455,0.41258052
0.348,2.2591214,1.874016,-0.17587176,0.8413421,-0.02673006,0.42649278
0.35,2.2949781,1.9233416,-0.16771407,0.8490224,0.0012714863,0.44051105
0.352,2.3215907,1.9796785,-0.15801546,0.85636395,0.029223412,0.4544709
0.354,2.3371494,2.0433517,-0.14738442,0.86304563,0.056436688,0.46814376
0.356,2.340169,2.1146023,-0.13584636,0.86865807,0.08204475,0.4811751
0.358,2.3287373,2.1937344,-0.122924134,0.8726645,0.10491094,0.4929692
0.36,2.3014295,2.280419,-0.1084553,0.8744105,0.123606324,0.5026876
0.362,2.2571661,2.3740926,-0.092112094,0.8732059,0.13665819,0.5093611
0.364,2.1948771,2.4740517,-0.073233485,0.86837864,0.1425429,0.51181674
0.366,2.1138942,2.5796325,-0.051662266,0.8593334,0.13974395,0.5087411
0.368,2.0140877,2.689713,-0.027207116,0.84560645,0.12699783,0.49885094
0.37,1.8957562,2.8032465,0.0006223838,0.8269494,0.10354468,0.4810187
0.372,1.7596067,2.918981,0.031999934,0.8033989,0.0692552,0.45434836
0.374,1.6070566,3.035433,0.06700423,0.77531874,0.024611771,0.41832304
0.376,1.4400171,3.151137,0.10515172,0.7433989,-0.029248,0.37304664
0.378,1.2611227,3.2645986,0.14565334,0.7085794,-0.09056291,0.31930432
0.38,1.0731797,3.3744178,0.18715791,0.67201674,-0.1570034,0.2585655
0.382,0.8795054,3.47917,0.22800496,0.63495857,-0.22587925,0.19289795
0.384,0.6831986,3.5779757,0.2665299,0.59864986,-0.29435694,0.12484026
0.386,0.48728776,3.6702213,0.301119,0.5642203,-0.3596828,0.057149302
0.388,0.29545546,3.7551448,0.330198,0.5326175,-0.4193739,-0.007440973
0.39,0.11120665,3.8322008,0.35255894,0.50451803,-0.47140947,-0.066524364
0.392,-0.06252897,3.9007816,0.3673577,0.48029304,-0.5143843,-0.11815784
0.394,-0.22292554,3.9607124,0.37398142,0.4600172,-0.5475735,-0.16104797
0.396,-0.36792314,4.012089,0.3722179,0.4434973,-0.5709929,-0.19459504
0.398,-0.49586225,4.055328,0.36173224,0.43029383,-0.58538526,-0.21889094
0.4,-0.6054759,4.090653,0.3426049,0.41983235,-0.59213775,-0.23463799
0.402,-0.6960156,4.118689,0.31485492,0.41142958,-0.59317446,-0.24300788
0.404,-0.7672713,4.1399436,0.2787975,0.40434697,-0.5907146,-0.24546167
0.406,-0.8193282,4.1552634,0.23476909,0.3978557,-0.587057,-0.24359968
0.408,-0.853114,4.1653514,0.18365538,0.39126658,-0.58431786,-0.239062
0.41,-0.86957407,4.1711764,0.12619883,0.383984,-0.5842601,-0.23332036
0.412,-0.8702047,4.1733055,0.06348739,0.3756106,-0.5880185,-0.2275515
0.414,-0.85637355,4.1723623,-0.0032437593,0.3659718,-0.5959582,-0.22264877
0.416,-0.8288615,4.168088,-0.07255401,0.35509074,-0.60771435,-0.21922025
0.418,-0.7889981,4.160535,-0.14268504,0.34318542,-0.6221851,-0.21742928
0.42,-0.7385349,4.149871,-0.21205059,0.33064637,-0.63766074,-0.21703741
0.422,-0.67897725,4.1362934,-0.2789257,0.31800002,-0.65215474,-0.21750686
0.424,-0.6114954,4.119667,-0.34208247,0.30581394,-0.66372454,-0.2180788
0.426,-0.53770936,4.1000357,-0.40113124,0.29460266,-0.6707144,-0.21786186
0.428,-0.45912886,4.0777245,-0.4558727,0.28475255,-0.67192435,-0.21599303
0.43,-0.37673163,4.0528693,-0.50647396,0.2764675,-0.6667801,-0.21180655
0.432,-0.29168332,4.0261803,-0.5530199,0.26978117,-0.65540576,-0.20492965
0.434,-0.20528615,3.9986062,-0.5961622,0.26454037,-0.63860923,-0.19530362
0.436,-0.11841726,3.9705076,-0.63703436,0.2604586,-0.6176301,-0.18316133
0.438,-0.03217244,3.9423864,-0.67534864,0.25719106,-0.5939191,-0.16901247
0.44,0.05246997,3.9149523,-0.7113016,0.25439328,-0.5689371,-0.15355173
0.442,0.13280523,3.8895211,-0.7451279,0.2517649,-0.54399455,-0.13755435
0.444,0.2060597,3.8671587,-0.7761906,0.2491239,-0.5201125,-0.12174688
0.446,0.27037585,3.8487096,-0.80340916,0.2464141,-0.49800634,-0.10675247
0.448,0.3242848,3.834659,-0.8260735,0.24374351,-0.47807133,-0.09305245
0.45,0.36589825,3.82494,-0.844077,0.2413382,-0.46047348,-0.08099881
0.452,0.39302444,3.8194885,-0.8574116,0.23947114,-0.44525975,-0.070816666
0.454,0.40408623,3.818877,-0.8662611,0.23835558,-0.43256336,-0.062554054
0.456,0.39725876,3.824216,-0.87068385,0.23808624,-0.42269033,-0.056143098
0.458,0.3730209,3.8357897,-0.87129486,0.23861492,-0.41618657,-0.051494785
0.46,0.3303615,3.8542798,-0.8688083,0.23972552,-0.41378033,-0.04851232
0.462,0.2690283,3.8798938,-0.8618555,0.24104357,-0.41625977,-0.047158074
0.464,0.18898928,3.9130433,-0.8493979,0.24201868,-0.42434496,-0.047408856
0.466,0.09081268,3.953467,-0.832299,0.24194974,-0.43856835,-0.049202736
0.468,-0.0250386,4.000927,-0.81025124,0.24011166,-0.45909852,-0.052435264
0.47,-0.15731502,4.055327,-0.7831173,0.23589195,-0.48553598,-0.056954645
0.472,-0.30421197,4.115961,-0.751927,0.22884656,-0.5169033,-0.062534794
0.474,-0.46402574,4.182452,-0.7174256,0.21873502,-0.55180883,-0.06885528
0.476,-0.63438046,4.254223,-0.6811236,0.20550855,-0.5885019,-0.07549174
0.478,-0.81225955,4.33077,-0.6440072,0.18932612,-0.6250552,-0.082010545
0.48,-0.9958302,4.4117603,-0.6032293,0.1705279,-0.6596172,-0.08801483
0.482,-1.1817542,4.49607,-0.5590386,0.1495302,-0.690626,-0.09321065
0.484,-1.3669842,4.582122,-0.5137154,0.12680742,-0.71691406,-0.09745829
0.486,-1.5479745,4.6676598,-0.46783608,0.10283023,-0.7377245,-0.1007969
0.488,-1.720973,4.75095,-0.4217773,0.07805005,-0.7526474,-0.10342247
0.49,-1.8827333,4.830839,-0.37546682,0.052832723,-0.76176786,-0.10568003
0.492,-2.0300345,4.906123,-0.3280999,0.02744314,-0.76546,-0.1079873
0.494,-2.1594257,4.975178,-0.2788412,0.0021286309,-0.7640003,-0.11072451
0.496,-2.2681088,5.0363164,-0.22661434,-0.022917897,-0.7576561,-0.1142105
0.498,-2.353199,5.088009,-0.17055796,-0.047543198,-0.7467412,-0.11863073
0.5,-2.4118767,5.128243,-0.10990435,-0.07154715,-0.73138654,-0.123959675
0.502,-2.4418569,5.1553087,-0.04356435,-0.09478375,-0.7116869,-0.12996283
0.504,-2.441596,5.167669,0.030087456,-0.1171619,-0.6878216,-0.1362898
0.506,-2.4102063,5.1641865,0.11262116,-0.13861564,-0.6599367,-0.14252758
0.508,-2.3471775,5.1439514,0.20545731,-0.15912472,-0.6282462,-0.14836454
0.51,-2.252671,5.1066484,0.3090393,-0.17869568,-0.5933309,-0.15370221
0.512,-2.1275716,5.051997,0.42373782,-0.1972334,-0.55547476,-0.15857577
0.514,-1.9731361,4.980339,0.54946727,-0.21471263,-0.5149404,-0.16326481
0.516,-1.7914093,4.892517,0.6858245,-0.23112585,-0.47193694,-0.16807069
0.518,-1.5844412,4.789784,0.8317801,-0.24633291,-0.42647213,-0.17311473
0.52,-1.3549218,4.6736417,0.98582804,-0.26006126,-0.37846607,-0.17843619
0.522,-1.1059697,4.546054,1.1460012,-0.27198315,-0.32782173,-0.18396962
0.524,-0.84149516,4.409477,1.3098929,-0.28184786,-0.27462566,-0.18951853
0.526,-0.5659243,4.267068,1.4749137,-0.28950125,-0.21924108,-0.19480778
0.528,-0.28332078,4.121656,1.6382476,-0.29495123,-0.16241144,-0.19955786
0.53,0.0026080608,3.9757943,1.7970258,-0.29840004,-0.105525546,-0.20355585
0.532,0.28755915,3.8320384,1.9481242,-0.30032912,-0.05069557,-0.20665577
0.534,0.5667535,3.693228,2.0896146,-0.3015117,-0.0006377548,-0.2088656
0.536,0.8362813,3.5626721,2.2230792,-0.30295673,0.04144229,-0.2103886
0.538,1.0937082,3.4414897,2.3473053,-0.30585262,0.0721546,-0.21163881
0.54,1.3365686,3.330437,2.461794,-0.31144807,0.08823156,-0.21319918
0.542,1.5617101,3.229885,2.5672603,-0.32084435,0.086921245,-0.2157634
0.544,1.7676373,3.1402779,2.663784,-0.3347624,0.06655445,-0.21997212
0.546,1.9532547,3.061934,2.7522697,-0.3534062,0.026670799,-0.22634165
0.548,2.117713,2.9947991,2.8322632,-0.37644583,-0.031901598,-0.23522715
0.55,2.2593622,2.9392548,2.9029675,-0.40295833,-0.10679434,-0.24671705
0.552,2.3787231,2.8946667,2.9640622,-0.43150222,-0.19419043,-0.26063344
0.554,2.4771457,2.8602674,3.015029,-0.46032488,-0.2893523,-0.27658224
0.556,2.554887,2.8356733,3.0551977,-0.48744953,-0.38689616,-0.2939492
0.558,2.6127424,2.8200579,3.0844872,-0.51089764,-0.48121572,-0.31193483
0.56,2.6529195,2.8122406,3.1022751,-0.52894706,-0.56719667,-0.3297071
0.562,2.6774664,2.8116121,3.107348,-0.5403209,-0.6406123,-0.34645325
0.564,2.686788,2.8182018,3.0999463,-0.5443654,-0.69836396,-0.3615071
0.566,2.6825476,2.8311374,3.0808082,-0.54107225,-0.7390922,-0.37459394
0.568,2.6650481,2.8499608,3.0502834,-0.5308495,-0.76278925,-0.3858488
0.57,2.6349716,2.8738942,3.0089467,-0.5146024,-0.77106845,-0.3959415
0.572,2.593326,2.901621,2.9559686,-0.49369112,-0.7668245,-0.40602088
0.574,2.541583,2.9313912,2.890153,-0.4697605,-0.75371635,-0.41737404
0.576,2.4809365,2.962505,2.8097744,-0.4445669,-0.7360091,-0.4314928
0.578,2.4134717,2.9944692,2.7126722,-0.41976792,-0.7180818,-0.45006084
0.58,2.3401177,3.0271602,2.5977552,-0.39680558,-0.7039202,-0.47482744
0.582,2.2618694,3.0613909,2.4654803,-0.3768357,-0.69675946,-0.5074019
0.584,2.1800225,3.0982316,2.3170588,-0.360645,-0.6988246,-0.5490464
0.586,2.09509,3.139014,2.1551561,-0.34857208,-0.71122855,-0.6004868
0.588,2.0073967,3.1849809,1.9819561,-0.340549,-0.7339464,-0.66169333
0.59,1.9182267,3.2369447,1.7972176,-0.33620983,-0.7659055,-0.73164386
0.592,1.8267856,3.29626,1.6054984,-0.33497828,-0.80535674,-0.80832064
0.594,1.7326767,3.3637533,1.4125122,-0.3362089,-0.8501171,-0.8888818
0.596,1.6355574,3.4394257,1.2201135,-0.3393578,-0.897781,-0.96984917
0.598,1.5337533,3.5227585,1.0302321,-0.34411007,-0.9460252,-1.0474079
0.6,1.4267673,3.612318,0.84169495,-0.35037115,-0.9929158,-1.1178706
0.602,1.3139,3.7069886,0.65208423,-0.3581609,-1.0368906,-1.177961
0.604,1.1934072,3.8063424,0.46015114,-0.36739162,-1.0765902,-1.2250421
0.606,1.0641401,3.9101696,0.26473933,-0.37773567,-1.1108547,-1.2575052
0.608,0.92431855,4.0183797,0.06555165,-0.38847438,-1.1385648,-1.2749897
0.61,0.7726376,4.1306195,-0.13703093,-0.3984202,-1.1583805,-1.2783155
0.612,0.608559,4.246063,-0.34283695,-0.40597722,-1.1686753,-1.2693367
0.614,0.4321066,4.3632736,-0.5521514,-0.40925205,-1.1675342,-1.2507021
0.616,0.24393678,4.4803457,-0.76527405,-0.40627053,-1.1528678,-1.2255287
0.618,0.04487562,4.595304,-0.9822948,-0.3953017,-1.1228364,-1.1969924
0.62,-0.16329598,4.7060995,-1.2025034,-0.37527296,-1.0764303,-1.1679274
0.622,-0.37835073,4.8107576,-1.4252566,-0.34596416,-1.0137643,-1.1406063
0.624,-0.5974314,4.9072986,-1.6494951,-0.30812562,-0.9360832,-1.1166443
0.626,-0.81672096,4.9936743,-1.873498,-0.2634775,-0.84619915,-1.0970136
0.628,-1.0317287,5.0680656,-2.0949464,-0.214502,-0.74840844,-1.0821444
0.63,-1.237802,5.128981,-2.3108592,-0.16417319,-0.6478832,-1.0719559
0.632,-1.4299784,5.175262,-2.5181904,-0.11557004,-0.55020386,-1.0661486
0.634,-1.6032004,5.206153,-2.7139406,-0.07146126,-0.4607148,-1.0644685
0.636,-1.7531258,5.2212543,-2.8951273,-0.033909395,-0.383776,-1.06686
0.638,-1.8754828,5.2204394,-3.0588474,-0.004114464,-0.32218987,-1.073506
0.64,-1.9663895,5.203892,-3.2022166,0.017683744,-0.2769172,-1.0847303
0.642,-2.0220814,5.171885,-3.322843,0.032183416,-0.24712294,-1.1008427
0.644,-2.0393696,5.1247196,-3.4197176,0.04088731,-0.23048554,-1.1220214
0.646,-2.0165439,5.0623827,-3.4944417,0.0457455,-0.22365376,-1.1480994
0.648,-1.9540355,4.9871664,-3.5456476,0.048850954,-0.22284853,-1.1784121
0.65,-1.8527448,4.901251,-3.5732827,0.052163437,-0.22455725,-1.2118973
0.652,-1.7132863,4.806525,-3.5785103,0.05728366,-0.22595194,-1.2472578
0.654,-1.5381516,4.7046337,-3.5623186,0.06533916,-0.22503406,-1.2830065
0.656,-1.330765,4.597026,-3.5273085,0.07692672,-0.22081213,-1.3177469
0.658,-1.0940207,4.4850006,-3.4751909,0.09210346,-0.21321674,-1.3503819
0.66,-0.83204305,4.370184,-3.4078808,0.110544376,-0.20275237,-1.3800311
0.662,-0.55020213,4.2545176,-3.3275223,0.13170409,-0.19021505,-1.4060408
0.664,-0.25305486,4.1393433,-3.2367787,0.15495245,-0.17660935,-1.4280908
0.666,0.055788994,4.0252004,-3.139529,0.17969942,-0.16294375,-1.4461732
0.668,0.37249494,3.9128432,-3.0391195,0.20536715,-0.15017709,-1.4604856
0.67,0.69261765,3.8031363,-2.9377785,0.2313809,-0.13917264,-1.4713432
0.672,1.0135963,3.695528,-2.8358903,0.25721115,-0.13068053,-1.4791461
0.674,1.3328424,3.5894408,-2.7320085,0.28236204,-0.12534991,-1.4843903
0.676,1.647691,3.4849508,-2.629886,0.306388,-0.12371394,-1.4876056
0.678,1.9599901,3.380089,-2.5372622,0.3289211,-0.1262004,-1.4893132
0.68,2.2687676,3.2741747,-2.4514897,0.34967828,-0.13300823,-1.4899929
0.682,2.5702431,3.1680617,-2.3687906,0.36848986,-0.14399949,-1.4899577
0.684,2.8647757,3.0611315,-2.287147,0.38533726,-0.15872137,-1.4893544
0.686,3.1522832,2.9528487,-2.202475,0.40038016,-0.17641477,-1.4881476
0.688,3.4309115,2.8424332,-2.1112275,0.41392836,-0.19609925,-1.4861282
0.69,3.7013097,2.726828,-2.0137746,0.42639607,-0.21670343,-1.4829848
0.692,3.9643655,2.603169,-1.9109493,0.43828663,-0.23719594,-1.4783359
0.694,4.2194233,2.4705524,-1.8022931,0.45013264,-0.25666657,-1.4717815
0.696,4.4661913,2.328877,-1.6883162,0.4624157,-0.27446944,-1.46303
0.698,4.7042284,2.1781297,-1.5694878,0.47549322,-0.29030117,-1.4519386
0.7,4.932566,2.0197415,-1.4456657,0.4896044,-0.3041212,-1.4384658
0.702,5.149884,1.8559839,-1.3169613,0.5048644,-0.31613126,-1.4226946
0.704,5.354418,1.6898605,-1.1835799,0.5212905,-0.3267172,-1.4048837
0.706,5.5435314,1.5251195,-1.0442128,0.5388892,-0.33618727,-1.3853629
0.708,5.7158365,1.365022,-0.8989557,0.5576465,-0.34475484,-1.364479
0.71,5.868999,1.2127542,-0.7465955,0.57748157,-0.3528954,-1.3427391
0.712,6.0008307,1.0711563,-0.5870823,0.59833795,-0.36074245,-1.3206002
0.714,6.1098843,0.9421954,-0.422949,0.6201111,-0.3680337,-1.298424
0.716,6.1944504,0.8280895,-0.25710565,0.64266974,-0.37441906,-1.2767211
0.718,6.253085,0.73092794,-0.09295955,0.6659689,-0.379367,-1.256226
0.72,6.284004,0.65315676,0.06666103,0.69005466,-0.38207975,-1.2375777
0.722,6.285946,0.59709096,0.21958992,0.714914,-0.3818243,-1.2212001
0.724,6.2579813,0.5645213,0.36450276,0.74041486,-0.37799495,-1.2074374
0.726,6.2002673,0.5566418,0.5005851,0.76624906,-0.3700451,-1.1966364
0.728,6.113805,0.57362366,0.6273769,0.7918473,-0.35766086,-1.189061
0.73,6.0002265,0.6149099,0.7447549,0.8163774,-0.340867,-1.1849139
0.732,5.8619566,0.67916083,0.85263944,0.8388454,-0.3199908,-1.1844107
0.734,5.701952,0.7644491,0.9509121,0.85815364,-0.29577023,-1.1878034
0.736,5.523557,0.86796355,1.0392442,0.87316656,-0.26935267,-1.1953691
0.738,5.330319,0.9865887,1.1171839,0.8828263,-0.24224314,-1.20743
0.74,5.126389,1.1164222,1.1848356,0.8862103,-0.2162154,-1.2243646
0.742,4.915786,1.2535586,1.2429224,0.88261336,-0.19312635,-1.2465588
0.744,4.702653,1.3938067,1.292198,0.87166595,-0.17477223,-1.2743027
0.746,4.491016,1.5330946,1.3332273,0.8533657,-0.1626575,-1.3077016
0.748,4.2846894,1.6674829,1.36645,0.82808167,-0.15785521,-1.3466595
0.75,4.08679,1.7936976,1.3925999,0.79657614,-0.16079792,-1.3907901
0.752,3.900157,1.9086871,1.412431,0.7600042,-0.17119497,-1.4394609
0.754,3.7270274,2.0097866,1.4266341,0.7198518,-0.1881417,-1.4918454
0.756,3.569058,2.0946226,1.4352764,0.6778829,-0.21022862,-1.5469551
0.758,3.427433,2.1611567,1.4378473,0.63600945,-0.2356731,-1.6036474
0.76,3.302682,2.2084694,1.4339197,0.59611166,-0.2626503,-1.6607741
0.762,3.194448,2.2364697,1.4233413,0.5599118,-0.28941065,-1.7173308
0.764,3.1017132,2.2455702,1.4067296,0.52890664,-0.3141792,-1.7723733
0.766,3.0237367,2.236299,1.3855771,0.50419235,-0.33586314,-1.8253117
0.768,2.95887,2.2094345,1.3607848,0.486443,-0.35389346,-1.8759288
0.77,2.9056873,2.1660376,1.3332664,0.47587568,-0.36792868,-1.9241703
0.772,2.8620377,2.107753,1.303297,0.47219676,-0.3779354,-1.9701992
0.774,2.8248773,2.036958,1.2715116,0.47479036,-0.38419536,-2.0146365
0.776,2.791221,1.9563754,1.2389629,0.48293868,-0.38693637,-2.0584416
0.778,2.7583191,1.868918,1.206193,0.495883,-0.38643557,-2.1025674
0.78,2.723907,1.7776747,1.1734164,0.5128613,-0.3830189,-2.1478224
0.782,2.6853395,1.685992,1.140279,0.5332118,-0.37693155,-2.194904
0.784,2.642184,1.5958654,1.1046132,0.5562858,-0.368339,-2.2443032
0.786,2.593437,1.5094452,1.0704656,0.58139503,-0.3574102,-2.2961524
0.788,2.5352688,1.4300402,1.0450678,0.6078316,-0.34423983,-2.3502183
0.79,2.4699984,1.3582672,1.024881,0.63486344,-0.32889807,-2.4059837
0.792,2.4007962,1.2937292,1.0073171,0.66169214,-0.31147793,-2.4626713
0.794,2.3271499,1.2369778,0.99343693,0.68744934,-0.29210448,-2.5193028
0.796,2.250091,1.1876035,0.98362714,0.7112508,-0.27102804,-2.5748475
0.798,2.1728618,1.1449983,0.9774321,0.73217183,-0.24864304,-2.6283069
0.8,2.0969996,1.1101092,0.97703075,0.74928,-0.22552496,-2.6788137
0.802,2.024406,1.0826175,0.98354554,0.7616458,-0.20247987,-2.7256768
0.804,1.9587357,1.060088,0.9954674,0.76837754,-0.18054205,-2.7684395
0.806,1.9034142,1.0398707,1.012329,0.7686431,-0.16095108,-2.8068924
0.808,1.8610951,1.0202211,1.0343112,0.7617561,-0.14503005,-2.841044
0.81,1.8348292,0.9987172,1.0610088,0.74722654,-0.13404068,-2.8711014
0.812,1.8274813,0.9728579,1.0922172,0.7248345,-0.12901917,-2.897403
0.814,1.8411996,0.94042975,1.1280847,0.69472367,-0.13060081,-2.9203064
0.816,1.8772244,0.8994568,1.1683096,0.6574434,-0.13884792,-2.9400864
0.818,1.9360757,0.84808964,1.2126913,0.61393857,-0.15322098,-2.9569275
0.82,2.0176778,0.7848395,1.2610215,0.5654881,-0.17257878,-2.9708467
0.822,2.121057,0.7090645,1.3130976,0.51364547,-0.19527853,-2.9816995
0.824,2.2447188,0.62064,1.3686965,0.46010715,-0.21936476,-2.989232
0.826,2.3868742,0.519387,1.4275715,0.40658772,-0.24278638,-2.9931564
0.828,2.545725,0.4050851,1.4896777,0.35468566,-0.26360157,-2.9932249
0.83,2.719265,0.27773124,1.5539938,0.30581957,-0.2801785,-2.9892857
0.832,2.904807,0.13777322,1.6201912,0.26110134,-0.29131997,-2.9813552
0.834,3.0995903,-0.013603032,1.687789,0.22131538,-0.29634416,-2.969631
0.836,3.2999175,-0.17483091,1.7567494,0.18689822,-0.29499382,-2.9545116
0.838,3.5018787,-0.344049,1.8273244,0.15801917,-0.28741252,-2.9365375
0.84,3.7013447,-0.5193118,1.8998022,0.13462028,-0.274002,-2.9163916
0.842,3.8946118,-0.6984536,1.9750367,0.116446316,-0.25538057,-2.89481
0.844,4.0778217,-0.8794268,2.0539331,0.10307018,-0.23230338,-2.872468
0.846,4.2477508,-1.0601976,2.1374938,0.09391329,-0.20565388,-2.8499362
0.848,4.4020696,-1.2391127,2.2268891,0.0882751,-0.17641681,-2.8276446
0.85,4.5381,-1.4141078,2.3234696,0.08530125,-0.14565247,-2.8058732
0.852,4.6558027,-1.584244,2.4272528,0.08405105,-0.11445999,-2.784811
0.854,4.754901,-1.748486,2.5389495,0.083542995,-0.083896995,-2.764578
0.856,4.8354535,-1.9063518,2.6593122,0.08284346,-0.054846883,-2.745216
0.858,4.8978057,-2.0574243,2.7885687,0.08109001,-0.027934968,-2.726704
0.86,4.9421754,-2.2015777,2.9262197,0.077558205,-0.0035090148,-2.708893
0.862,4.9690084,-2.3386865,3.0717897,0.07167295,0.018418193,-2.6915166
0.864,4.979168,-2.4685085,3.2241359,0.0629828,0.038139433,-2.6742356
0.866,4.974631,-2.5907326,3.3820407,0.0511588,0.0561665,-2.6566827
0.868,4.957528,-2.7054577,3.5440874,0.035965733,0.07313424,-2.6385283
0.87,4.9300537,-2.8131933,3.7085583,0.017246857,0.089708656,-2.6194925
0.872,4.894777,-2.9149861,3.8729,-0.005104542,0.1065582,-2.5994115
0.874,4.853643,-3.0117276,4.0342994,-0.031095222,0.12428853,-2.578309
0.876,4.808105,-3.1039052,4.189537,-0.060650595,0.1434288,-2.5563338
0.878,4.7596188,-3.1917593,4.334856,-0.0935735,0.16445339,-2.5337527
0.88,4.7097793,-3.2755322,4.4672604,-0.12953417,0.18782881,-2.5109508
0.882,4.660011,-3.3556523,4.5841722,-0.16797908,0.21407214,-2.4882374
0.884,4.611466,-3.4327583,4.683791,-0.20826025,0.24354309,-2.4659302
0.886,4.5648165,-3.5072541,4.764514,-0.24965903,0.27651876,-2.4442039
0.888,4.5202613,-3.5792553,4.8246922,-0.2914156,0.31318805,-2.423045
0.89,4.4776244,-3.6488142,4.8628726,-0.33284527,0.35355031,-2.4022791
0.892,4.436737,-3.715888,4.877399,-0.373415,0.3973896,-2.3816242
0.894,4.3970933,-3.7800775,4.867081,-0.41277385,0.4442958,-2.3606985
0.896,4.3581495,-3.8411117,4.8308825,-0.45076197,0.49371022,-2.3391397
0.898,4.319212,-3.898437,4.768341,-0.48735392,0.54490036,-2.316715
0.9,4.279307,-3.951718,4.6792994,-0.5226071,0.5970371,-2.2933698
0.902,4.237432,-4.000386,4.5640965,-0.55664283,0.649191,-2.269233
0.904,4.192431,-4.04391,4.423569,-0.5895929,0.70034444,-2.2445974
0.906,4.143431,-4.0821347,4.258374,-0.6215852,0.74943113,-2.219843
0.908,4.089518,-4.1148863,4.0697227,-0.65269697,0.795383,-2.1954367
0.91,4.0303097,-4.1422296,3.8591108,-0.6829351,0.8371841,-2.1719258
0.912,3.9651322,-4.1644926,3.628273,-0.7121928,0.873917,-2.1499436
0.914,3.8937502,-4.18226,3.379377,-0.7402523,0.90487015,-2.1301942
0.916,3.8159068,-4.1961393,3.1141903,-0.76682687,0.9295664,-2.1133723
0.918,3.7317939,-4.206895,2.8343215,-0.79157835,0.9478239,-2.1001039
0.92,3.641677,-4.2154717,2.5417657,-0.81413794,0.95982444,-2.090942
0.922,3.546051,-4.22282,2.238999,-0.8341478,0.9660478,-2.0863087
0.924,3.4454443,-4.229806,1.9285882,-0.85130996,0.9672104,-2.0864902
0.926,3.3407378,-4.2377434,1.613364,-0.8653991,0.9641897,-2.0915222
0.928,3.2326772,-4.2477794,1.296294,-0.8763093,0.9579634,-2.1012356
0.93,3.122242,-4.2607937,0.9800575,-0.8840362,0.94950736,-2.1153123
0.932,3.0107055,-4.277921,0.66703355,-0.8886834,0.9397491,-2.1332786
0.934,2.8993666,-4.2999783,0.35948646,-0.89043254,0.9294753,-2.1545355
0.936,2.7890606,-4.327456,0.059104264,-0.88957065,0.919358,-2.1785767
0.938,2.6803555,-4.359877,-0.23291665,-0.88633054,0.91006327,-2.2048895
0.94,2.574746,-4.397455,-0.51533824,-0.88090014,0.90214086,-2.2331066
0.942,2.4735374,-4.440161,-0.7870058,-0.87346035,0.8960179,-2.2630618
0.944,2.3781984,-4.4877977,-1.0463257,-0.8641486,0.89204484,-2.2947545
0.946,2.2906969,-4.5404625,-1.2923033,-0.85312235,0.8905337,-2.3283007
0.948,2.2130384,-4.5982246,-1.523864,-0.8405858,0.891672,-2.363919
0.95,2.1470575,-4.6613393,-1.7400331,-0.8268197,0.89553106,-2.4018047
0.952,2.0942824,-4.7299237,-1.9404635,-0.8122125,0.9020432,-2.4421048
0.954,2.0566318,-4.8041673,-2.1249695,-0.79725957,0.9109454,-2.4848714
0.956,2.0350745,-4.8841386,-2.2933311,-0.7825311,0.9217441,-2.530092
0.958,2.0303042,-4.969919,-2.4452589,-0.7686096,0.93373793,-2.5776293
0.96,2.0435085,-5.0618615,-2.580871,-0.7560874,0.94603145,-2.6272235
0.962,2.0737064,-5.1595907,-2.6992085,-0.7454964,0.9575418,-2.6784549
0.964,2.1204245,-5.2628646,-2.7998595,-0.7373005,0.96708155,-2.7307498
0.966,2.1832778,-5.371444,-2.8825479,-0.7318418,0.97345597,-2.783379
0.968,2.2613313,-5.4851213,-2.946702,-0.7292967,0.9756437,-2.8355615
0.97,2.3536286,-5.603661,-2.9918559,-0.7296969,0.9727303,-2.8865485
0.972,2.458541,-5.7266107,-3.0178404,-0.732911,0.96401834,-2.9355116
0.974,2.5739188,-5.8535213,-3.024623,-0.7386582,0.94911027,-2.9816337
0.976,2.6966324,-5.9836,-3.0123324,-0.7465509,0.9279155,-3.024204
0.978,2.8233821,-6.1156774,-2.9813313,-0.75615805,0.9006095,-3.0626059
0.98,2.9509294,-6.248221,-2.9324186,-0.76704276,0.86762047,-3.0963492
0.982,3.075873,-6.3793974,-2.8663363,-0.7787937,0.82955325,-3.1250625
0.984,3.1955438,-6.5074773,-2.7839403,-0.7910669,0.78717804,-3.1485186
0.986,3.3075209,-6.6310735,-2.6861508,-0.80360204,0.7413401,-3.1666803
0.988,3.4092216,-6.7488885,-2.5737774,-0.816249,0.6929269,-3.1796188
0.99,3.4981163,-6.8599234,-2.4484043,-0.82895833,0.6428625,-3.1875162
0.992,3.5721214,-6.962899,-2.3119702,-0.84177136,0.5920738,-3.190651
0.994,3.6295104,-7.056697,-2.167028,-0.85478795,0.541451,-3.1893935
0.996,3.6686094,-7.1404963,-2.0157197,-0.8681181,0.49185687,-3.184144
0.998,3.6884918,-7.2137966,-1.8608782,-0.88182753,0.4441365,-3.1753254
1,3.6885228,-7.275971,-1.7055538,-0.8959259,0.39907798,-3.1633646
1.002,3.6683319,-7.3266454,-1.5523689,-0.9103255,0.3574329,-3.1486328
1.004,3.6280804,-7.3654594,-1.4040685,-0.9248392,0.3199161,-3.1314535
1.006,3.568406,-7.3926167,-1.2634645,-0.9391924,0.2871661,-3.112113
1.008,3.4903324,-7.408679,-1.1331547,-0.9530455,0.25972307,-3.0908499
1.01,3.3949935,-7.4142456,-1.0153859,-0.96603113,0.2380228,-3.0678852
1.012,3.2839189,-7.4103217,-0.9123617,-0.97777396,0.22237632,-3.0434754
1.014,3.1590023,-7.3977575,-0.8258365,-0.98792654,0.21292427,-3.0179052
1.016,3.02209,-7.377702,-0.75713336,-0.9962087,0.20963386,-2.9914773
1.018,2.8751593,-7.3511424,-0.7074779,-1.0024297,0.21228719,-2.9645364
1.02,2.720071,-7.3194113,-0.67779124,-1.0065217,0.22047114,-2.9374337
1.022,2.5592833,-7.2837787,-0.66879284,-1.0085605,0.23352891,-2.9105172
1.024,2.3952718,-7.245656,-0.6808606,-1.0086722,0.2507051,-2.8841312
1.026,2.230389,-7.2062416,-0.71381885,-1.0070779,0.2711493,-2.858661
1.028,2.0673048,-7.166843,-0.7673196,-1.0040907,0.29391426,-2.8344579
1.03,1.9087112,-7.1287274,-0.84078485,-1.0000231,0.31803548,-2.8118467
1.032,1.7574136,-7.0935016,-0.9330217,-0.9951867,0.34255126,-2.791148
1.034,1.6161373,-7.0623994,-1.0421658,-0.98984975,0.36655015,-2.772694
1.036,1.4876764,-7.0366564,-1.1662769,-0.9842552,0.3892321,-2.7568176
1.038,1.3744583,-7.0173583,-1.3035065,-0.9785759,0.40987563,-2.7438128
1.04,1.2786039,-7.005618,-1.4516661,-0.97293025,0.42788437,-2.733916
1.042,1.2019104,-7.0021,-1.6085182,-0.96738315,0.44276524,-2.7272763
1.044,1.1458806,-7.0073624,-1.7716672,-0.96197605,0.4540946,-2.7239141
1.046,1.1118994,-7.021765,-1.9386033,-0.95671505,0.46155834,-2.7237294
1.048,1.100799,-7.0456324,-2.1071172,-0.95160604,0.46487114,-2.726458
1.05,1.1123898,-7.078388,-2.274314,-0.94665164,0.46381634,-2.731708
1.052,1.146559,-7.119461,-2.437507,-0.9418614,0.45821565,-2.7389143
1.054,1.202365,-7.168289,-2.5942814,-0.937235,0.44794422,-2.7474265
1.056,1.2786486,-7.2239428,-2.7421286,-0.93280137,0.43293494,-2.7565143
1.058,1.3735387,-7.285366,-2.8792017,-0.928596,0.41319332,-2.7654283
1.06,1.485231,-7.351349,-3.0038583,-0.924664,0.38882422,-2.7734044
1.062,1.6115948,-7.4207277,-3.1143017,-0.92103064,0.35999286,-2.779733
1.064,1.7498413,-7.4920254,-3.2089043,-0.91769004,0.32698148,-2.7837648
1.066,1.8973606,-7.5636115,-3.2865005,-0.91462624,0.29014152,-2.7849183
1.068,2.0510516,-7.6340785,-3.346559,-0.91179585,0.24989003,-2.7827358
1.07,2.2079923,-7.701989,-3.388943,-0.9091323,0.20671904,-2.7768986
1.072,2.3652701,-7.766355,-3.4136744,-0.9065375,0.16116762,-2.767268
1.074,2.520106,-7.826416,-3.4211688,-0.9038925,0.11380127,-2.7539012
1.076,2.6698976,-7.881339,-3.4122798,-0.90107715,0.06521082,-2.7369766
1.078,2.8121724,-7.9303775,-3.3880463,-0.89797354,0.016014159,-2.716803
1.08,2.9446504,-7.97296,-3.3497176,-0.8944596,-0.033148706,-2.693825
1.082,3.065844,-8.008906,-3.299043,-0.89037424,-0.081567705,-2.668555
1.084,3.174571,-8.038316,-3.2377732,-0.8855586,-0.12847325,-2.6415434
1.086,3.2700403,-8.061585,-3.1681552,-0.8798317,-0.17304532,-2.6133494
1.088,3.3517346,-8.079217,-3.0929873,-0.8730192,-0.2144968,-2.584494
1.09,3.4190483,-8.091804,-3.0142295,-0.86495286,-0.25210267,-2.5554264
1.092,3.4719167,-8.10002,-2.9336014,-0.855525,-0.2851948,-2.5265002
1.094,3.510428,-8.104561,-2.8535097,-0.8446783,-0.3132303,-2.4979918
1.096,3.534956,-8.106134,-2.7763205,-0.83238095,-0.33582065,-2.4701438
1.098,3.546475,-8.105571,-2.7044055,-0.81862897,-0.3527554,-2.4431484
1.1,3.5456486,-8.103599,-2.639553,-0.80346054,-0.36398038,-2.4171565
1.102,3.533618,-8.101071,-2.5831156,-0.7869286,-0.3695949,-2.3923113
1.104,3.511769,-8.098629,-2.5361757,-0.7691081,-0.36985785,-2.3687053
1.106,3.4820132,-8.096987,-2.5002337,-0.7500921,-0.36517215,-2.3464303
1.108,3.4453151,-8.096591,-2.4758668,-0.7299936,-0.35607553,-2.3255398
1.11,3.4031186,-8.098178,-2.4630907,-0.7089348,-0.34324425,-2.306066
1.112,3.357017,-8.102383,-2.4619906,-0.6870674,-0.32749537,-2.2879956
1.114,3.3081708,-8.109821,-2.4724767,-0.664556,-0.3097743,-2.2713203
1.116,3.2572813,-8.120268,-2.4943202,-0.64161104,-0.29109564,-2.256023
1.118,3.2052922,-8.133611,-2.5262008,-0.61846066,-0.27256376,-2.2420847
1.12,3.1536245,-8.1501045,-2.5667179,-0.59534764,-0.25529736,-2.2295206
1.122,3.1033633,-8.17006,-2.6148121,-0.5724819,-0.24029253,-2.2183669
1.124,3.0550594,-8.19368,-2.6691544,-0.5500498,-0.22844455,-2.2086687
1.126,3.009761,-8.220689,-2.7283595,-0.52822673,-0.22049592,-2.2004468
1.128,2.9675627,-8.250713,-2.7914634,-0.50715214,-0.21697783,-2.1937099
1.13,2.9279284,-8.282761,-2.8565269,-0.4869335,-0.21822818,-2.1884046
1.132,2.8908656,-8.316101,-2.9214525,-0.46768904,-0.22437105,-2.184352
1.134,2.8560038,-8.350257,-2.9848068,-0.44952798,-0.23536204,-2.1812596
1.136,2.8226588,-8.384743,-3.0448892,-0.43258247,-0.25106528,-2.1787105
1.138,2.7899995,-8.418933,-3.0997334,-0.41700464,-0.2713001,-2.1762002
1.14,2.7569494,-8.452096,-3.1477003,-0.4029585,-0.29587626,-2.1731768
1.142,2.7224183,-8.483209,-3.1873083,-0.3906242,-0.32463852,-2.169092
1.144,2.6851501,-8.51149,-3.216972,-0.38018787,-0.3574966,-2.1634133
1.146,2.6442204,-8.535979,-3.235115,-0.37182996,-0.3944723,-2.1557457
1.148,2.5988727,-8.556063,-3.24028,-0.3657465,-0.43568912,-2.145876
1.15,2.5482798,-8.571264,-3.2314079,-0.3621081,-0.4812538,-2.1337874
1.152,2.4917617,-8.581309,-3.207685,-0.36108792,-0.53130746,-2.1196294
1.154,2.4293437,-8.585855,-3.1684601,-0.3628236,-0.5859628,-2.1037383
1.156,2.3606744,-8.584645,-3.1140435,-0.3674276,-0.6452004,-2.0866206
1.158,2.2846684,-8.5773535,-3.0421877,-0.3749807,-0.70890963,-2.0689645
1.16,2.2026954,-8.564654,-2.9511452,-0.3855272,-0.7768173,-2.051546
1.162,2.1152463,-8.547478,-2.8415165,-0.3990399,-0.8483741,-2.0351667
1.164,2.0227861,-8.526498,-2.7134943,-0.41546142,-0.92289484,-2.0205677
1.166,1.9265392,-8.502408,-2.5678484,-0.43468326,-0.9995467,-2.008382
1.168,1.8290036,-8.475988,-2.4052267,-0.4565655,-1.0773722,-1.9990759
1.17,1.7314072,-8.448109,-2.2256603,-0.48095334,-1.1553972,-1.992957
1.172,1.6353531,-8.419935,-2.0295885,-0.5076977,-1.232681,-1.9901298
1.174,1.542733,-8.392413,-1.8180243,-0.5366516,-1.3083727,-1.9904962
1.176,1.4550838,-8.366603,-1.5925007,-0.5676927,-1.3817829,-1.9937634
1.178,1.3743196,-8.343239,-1.3546808,-0.6007323,-1.452342,-1.9994806
1.18,1.3019147,-8.322899,-1.1060617,-0.63567585,-1.5196253,-2.0070322
1.182,1.2396541,-8.305775,-0.84846234,-0.6724643,-1.5833693,-2.0156865
1.184,1.1884964,-8.291807,-0.58376235,-0.71104217,-1.6434047,-2.0246701
1.186,1.149282,-8.280769,-0.312977,-0.75137633,-1.6997082,-2.0332355
1.188,1.1226258,-8.272511,-0.03713709,-0.79347557,-1.7523699,-2.0407073
1.19,1.1088512,-8.266806,0.24256739,-0.83733535,-1.8013291,-2.0464842
1.192,1.107686,-8.263214,0.5251925,-0.8830575,-1.8467221,-2.0500722
1.194,1.1186361,-8.261187,0.80964106,-0.9308657,-1.888884,-2.051099
1.196,1.1413732,-8.259932,1.094983,-0.9810829,-1.9282722,-2.0493703
1.198,1.1752751,-8.258522,1.3806171,-1.0341315,-1.9655457,-2.0449615
1.2,1.2198584,-8.255884,1.6656027,-1.0905395,-2.0015516,-2.038107
1.202,1.2742202,-8.250747,1.949048,-1.150902,-2.0372891,-2.0290627
1.204,1.3374362,-8.241896,2.2312877,-1.2158461,-2.073923,-2.0180945
1.206,1.408653,-8.228217,2.5129678,-1.2859366,-2.1126122,-2.0054762
1.208,1.4869881,-8.20865,2.7947989,-1.3616269,-2.1544511,-1.9913691
1.21,1.5715528,-8.181959,3.0773182,-1.443239,-2.2003856,-1.9757366
1.212,1.6611564,-8.146918,3.3609343,-1.5308857,-2.251053,-1.9583061
1.214,1.7542181,-8.102221,3.6462684,-1.6244777,-2.3067877,-1.9385989
1.216,1.8492267,-8.046401,3.9341817,-1.7237384,-2.3676229,-1.9159861
1.218,1.9448311,-7.9780645,4.2253523,-1.8281777,-2.4331422,-1.8897326
1.22,2.0392466,-7.895537,4.5205297,-1.9371558,-2.502588,-1.8590922
1.222,2.1306214,-7.796896,4.8202963,-2.0499187,-2.5749073,-1.823398
1.224,2.2170691,-7.680627,5.125348,-2.1656346,-2.6487403,-1.7821431
1.226,2.2967806,-7.5453863,5.4362593,-2.2834404,-2.722476,-1.7350475
1.228,2.3674178,-7.389636,5.752472,-2.4025004,-2.7943168,-1.6820701
1.23,2.4263008,-7.211724,6.0733404,-2.5220208,-2.8623624,-1.6234186
1.232,2.471028,-7.009881,6.398498,-2.6412709,-2.92463,-1.5595433
1.234,2.4992986,-6.7828064,6.726859,-2.759607,-2.9791012,-1.4911469
1.236,2.508419,-6.5296474,7.0571675,-2.8764546,-3.0238125,-1.4190825
1.238,2.4968042,-6.2499113,7.387937,-2.9913495,-3.0569985,-1.344293
1.24,2.4632623,-5.9431124,7.7164307,-3.1039503,-3.0771396,-1.2677116
1.242,2.4062986,-5.6088724,8.03959,-3.2140355,-3.0830853,-1.1902477
1.244,2.3249047,-5.246708,8.354961,-3.32157,-3.0742488,-1.1127878
1.246,2.2189505,-4.8567486,8.659633,-3.426591,-3.0503342,-1.0361049
1.248,2.0887365,-4.43968,8.950631,-3.52922,-3.0114965,-0.96084297
1.25,1.9350815,-3.9964447,9.224846,-3.6297088,-2.9583926,-0.8874687
1.252,1.7596118,-3.5285947,9.47879,-3.728347,-2.89204,-0.8162441
1.254,1.564305,-3.0374677,9.709128,-3.8254266,-2.813748,-0.7473111
1.256,1.3513396,-2.5248477,9.91255,-3.9212346,-2.7250326,-0.68077004
1.258,1.1234736,-1.9927346,10.086437,-4.0160327,-2.6275082,-0.6166748
1.26,0.88398015,-1.442866,10.228963,-4.1100435,-2.5227835,-0.5549761
1.262,0.6363406,-0.8772845,10.33879,-4.2034492,-2.412416,-0.4955984
1.264,0.3840078,-0.29806113,10.415308,-4.2963734,-2.2978334,-0.43849385
1.266,0.13134766,0.29244423,10.459054,-4.3888974,-2.1803167,-0.38364413
1.268,-0.11694431,0.89186203,10.468746,-4.481081,-2.06096,-0.3310654
1.27,-0.3585317,1.4988111,10.444527,-4.572983,-1.9406723,-0.280783
1.272,-0.58997035,2.111824,10.388902,-4.6646466,-1.8202039,-0.2328617
1.274,-0.80755234,2.7292585,10.303514,-4.756104,-1.7001313,-0.18737996
1.276,-1.0090871,3.3501134,10.191503,-4.847362,-1.5808814,-0.144422
1.278,-1.1926212,3.97326,10.05522,-4.9383945,-1.4627686,-0.1040954
1.28,-1.3556905,4.59785,9.896467,-5.029172,-1.3460313,-0.06651974
1.282,-1.496371,5.223087,9.717698,-5.119668,-1.2308679,-0.031830788
1.284,-1.6132667,5.848362,9.522104,-5.2098827,-1.1174353,-0.00012940168
1.286,-1.7054462,6.4734435,9.31336,-5.2998295,-1.0058715,0.028461576
1.288,-1.7725201,7.0982294,9.094768,-5.3895493,-0.8962902,0.053862214
1.29,-1.8141284,7.7223983,8.868721,-5.479076,-0.7887615,0.07604587
1.292,-1.8309469,8.345931,8.637236,-5.5684223,-0.68328166,0.09499264
1.294,-1.8230433,8.968631,8.401796,-5.657567,-0.579798,0.1106962
1.296,-1.791399,9.590588,8.16265,-5.7464476,-0.47821808,0.12320256
1.298,-1.7374401,10.212112,7.9198503,-5.8349476,-0.3784356,0.13258481
1.3,-1.6625795,10.833655,7.673622,-5.92291,-0.28035927,0.13894391
1.302,-1.5688171,11.4555645,7.4238777,-6.010195,-0.183954,0.14240229
1.304,-1.4579525,12.078037,7.1704226,-6.0966644,-0.08933592,0.14310932
1.306,-1.3321581,12.7009535,6.9128437,-6.1821604,0.0033237934,0.14124751
1.308,-1.1937227,13.323984,6.650243,-6.266492,0.093850374,0.13694501
1.31,-1.0450611,13.946593,6.381485,-6.3494864,0.18199086,0.13027656
1.312,-0.8886862,14.568175,6.105355,-6.430951,0.26747513,0.12127733
1.314,-0.72708845,15.188346,5.8204556,-6.510689,0.35009718,0.109892845
1.316,-0.5627842,15.806608,5.5250444,-6.588482,0.42969465,0.09600592
1.318,-0.3986044,16.422691,5.217702,-6.6641483,0.5061307,0.079429865
1.32,-0.23660469,17.035881,4.8968706,-6.7375784,0.57927275,0.059937716
1.322,-0.078663826,17.644918,4.5612297,-6.808736,0.6489481,0.037269354
1.324,0.07363129,18.248623,4.210002,-6.877672,0.71493196,0.011154175
1.326,0.21878815,18.845583,3.8428051,-6.944606,0.77693343,-0.018633842
1.328,0.35562658,19.434313,3.4596922,-7.009822,0.834617,-0.052248716
1.33,0.48295832,20.013292,3.0608487,-7.0736957,0.88766944,-0.08974743
1.332,0.5998626,20.580662,2.6469536,-7.1366415,0.9358133,-0.13108659
1.334,0.70570374,21.134731,2.218615,-7.199034,0.9788741,-0.17612243
1.336,0.8000369,21.673801,1.7769666,-7.261207,1.0168146,-0.22464013
1.338,0.88279724,22.195995,1.323555,-7.3234396,1.0496761,-0.2763803
1.34,0.9539647,22.699478,0.8602996,-7.385951,1.0775564,-0.33102274
1.342,1.0134311,23.18249,0.38951778,-7.448941,1.1006386,-0.38823104
1.344,1.0614548,23.643112,-0.086257935,-7.512621,1.1191195,-0.4476869
1.346,1.0982103,24.080025,-0.5645671,-7.577175,1.1332014,-0.5090635
1.348,1.1238456,24.491875,-1.0429049,-7.642788,1.1430956,-0.57206035
1.35,1.1384401,24.877146,-1.5183835,-7.709622,1.1490529,-0.63641596
1.352,1.1419616,25.234737,-1.987937,-7.77779,1.1513588,-0.70192075
1.354,1.1345434,25.563522,-2.4490108,-7.847294,1.150387,-0.7684109
1.356,1.1160946,25.862686,-2.898683,-7.9180202,1.1466215,-0.8357434
1.358,1.0864553,26.13168,-3.3345041,-7.989732,1.140676,-0.903842
1.36,1.0452647,26.370253,-3.7536168,-8.062107,1.133174,-0.9726498
1.362,0.9914894,26.578651,-4.152845,-8.134735,1.1247071,-1.0421262
1.364,0.92578244,26.756662,-4.530308,-8.207151,1.1158689,-1.112263
1.366,0.8473077,26.9049,-4.8840013,-8.278898,1.1071343,-1.1830947
1.368,0.7560034,27.024076,-5.2124195,-8.349569,1.0988317,-1.2546539
1.37,0.65156054,27.114943,-5.5147753,-8.418805,1.091186,-1.3269551
1.372,0.5339055,27.17847,-5.790672,-8.486323,1.0843265,-1.3999503
1.374,0.40262437,27.215982,-6.0404615,-8.551894,1.0783267,-1.473537
1.376,0.25752473,27.229248,-6.2649307,-8.615336,1.0732828,-1.547545
1.378,0.09887874,27.21982,-6.465153,-8.676486,1.0693083,-1.6217616
1.38,-0.072882295,27.189312,-6.642335,-8.735139,1.0666039,-1.6959572
1.382,-0.25719762,27.13922,-6.7978005,-8.791103,1.0654851,-1.7698817
1.384,-0.45357418,27.070833,-6.9327908,-8.844155,1.0663638,-1.8433206
1.386,-0.6611299,26.985216,-7.049816,-8.894026,1.0697662,-1.9160562
1.388,-0.8793445,26.883884,-7.1512804,-8.940414,1.076345,-1.9878907
1.39,-1.1072413,26.768288,-7.2399163,-8.983033,1.086808,-2.058689
1.392,-1.3439935,26.63989,-7.3189564,-9.02153,1.101999,-2.128284
1.394,-1.5889874,26.50002,-7.3917522,-9.055551,1.1227807,-2.196541
1.396,-1.8408897,26.349646,-7.4618545,-9.084741,1.1499383,-2.2633984
1.398,-2.0984473,26.189754,-7.5322723,-9.108705,1.1842821,-2.3288176
1.4,-2.360564,26.021164,-7.6056,-9.127064,1.2265675,-2.3928168
1.402,-2.6256478,25.844284,-7.6841416,-9.139437,1.2774842,-2.4554765
1.404,-2.8923988,25.65957,-7.769932,-9.145451,1.3376467,-2.5169673
1.406,-3.1592383,25.46711,-7.8646917,-9.144708,1.4075916,-2.577517
1.408,-3.424384,25.267002,-7.9699426,-9.136863,1.4877675,-2.6374848
1.41,-3.6862948,25.059027,-8.08696,-9.121572,1.5785165,-2.6972883
1.412,-3.942766,24.842886,-8.216813,-9.098532,1.68008,-2.7573597
1.414,-4.192152,24.618387,-8.360107,-9.067529,1.7925949,-2.81809
1.416,-4.4325776,24.385319,-8.517106,-9.028376,1.9160676,-2.879822
1.418,-4.6621785,24.143635,-8.68774,-8.980922,2.0504,-2.9428325
1.42,-4.8790174,23.892994,-8.871827,-8.925084,2.1953192,-3.007354
1.422,-5.081006,23.633099,-9.068892,-8.8608465,2.3503172,-3.0735576
1.424,-5.2664204,23.363272,-9.277776,-8.788249,2.514636,-3.1416104
1.426,-5.4332676,23.083157,-9.4967785,-8.707386,2.6872327,-3.211713
1.428,-5.5796137,22.791924,-9.724285,-8.618388,2.8667595,-3.2841117
1.43,-5.704094,22.489233,-9.958611,-8.521452,3.05157,-3.359114
1.432,-5.8054314,22.175062,-10.198065,-8.416853,3.239764,-3.437079
1.434,-5.8824754,21.849522,-10.440942,-8.304968,3.4291766,-3.5183823
1.436,-5.9348326,21.51289,-10.685922,-8.1891365,3.6183207,-3.6033604
1.438,-5.9620767,21.165455,-10.932063,-8.066064,3.8036232,-3.6922636
1.44,-5.963964,20.807589,-11.178345,-7.938308,3.9832544,-3.7852402
1.442,-5.94065,20.440178,-11.424118,-7.8068433,4.155033,-3.8822782
1.444,-5.8927236,20.063929,-11.668477,-7.672589,4.317035,-3.9831495
1.446,-5.8211584,19.679518,-11.91074,-7.536386,4.467589,-4.0874567
1.448,-5.7273655,19.287918,-12.150462,-7.3988543,4.6054425,-4.1946177
1.45,-5.6130834,18.890358,-12.3873825,-7.260277,4.7297378,-4.3038926
1.452,-5.4802165,18.487913,-12.6216545,-7.120591,4.8399463,-4.4144726
1.454,-5.331099,18.081818,-12.853812,-6.979357,4.935861,-4.525494
1.456,-5.1679664,17.672798,-13.0841255,-6.8358235,5.0175853,-4.6360674
1.458,-4.9934516,17.261868,-13.312593,-6.689125,5.0854187,-4.7453322
1.46,-4.8099856,16.85004,-13.539567,-6.538425,5.13982,-4.8524404
1.462,-4.6201487,16.43829,-13.765308,-6.383101,5.181353,-4.956536
1.464,-4.4264145,16.027323,-13.989609,-6.2228565,5.210622,-5.05684
1.466,-4.231099,15.617749,-14.21233,-6.0578046,5.228251,-5.152633
1.468,-4.036618,15.209983,-14.432922,-5.8884897,5.2347975,-5.2432365
1.47,-3.8448992,14.804287,-14.650623,-5.7157598,5.2307615,-5.3280115
1.472,-3.657453,14.400595,-14.8648,-5.5406394,5.2165594,-5.406374
1.474,-3.476571,13.998993,-15.073706,-5.36414,5.1925306,-5.4778066
1.476,-3.303094,13.59912,-15.275555,-5.1871605,5.158984,-5.541869
1.478,-3.138215,13.20085,-15.468788,-5.010379,5.116218,-5.5981827
1.48,-2.982438,12.8038845,-15.651611,-4.834241,5.064559,-5.646438
1.482,-2.835969,12.407942,-15.821961,-4.658961,5.004346,-5.686425
1.484,-2.6983647,12.012608,-15.97773,-4.4846077,4.935961,-5.718036
1.486,-2.5690985,11.617312,-16.116951,-4.3111324,4.8598056,-5.741262
1.488,-2.4471889,11.221903,-16.237932,-4.1384554,4.7763295,-5.756196
1.49,-2.3318048,10.826277,-16.33923,-3.964867,4.685479,-5.763017
1.492,-2.2213807,10.430424,-16.419783,-3.794433,4.5888953,-5.7619705
1.494,-2.1143622,10.034444,-16.478354,-3.6245518,4.486147,-5.7533827
1.496,-2.00946,9.638603,-16.513794,-3.4555433,4.377585,-5.7376394
1.498,-1.9047933,9.24302,-16.525764,-3.287787,4.2634783,-5.7151575
1.5,-1.7986369,8.848005,-16.514217,-3.1216965,4.144086,-5.6863966
1.502,-1.6894164,8.454073,-16.479376,-2.9576902,4.019623,-5.6518717
1.504,-1.5753279,8.061784,-16.42225,-2.796228,3.8902984,-5.6121035
1.506,-1.455502,7.672147,-16.34408,-2.6377692,3.7563696,-5.5676126
1.508,-1.3293715,7.2861023,-16.246347,-2.4827414,3.6181173,-5.5189085
1.51,-1.1960421,6.904811,-16.130772,-2.331493,3.4758897,-5.4665413
1.512,-1.0552049,6.5294333,-15.999602,-2.1843016,3.3300502,-5.4110093
1.514,-0.90680885,6.1614547,-15.855465,-2.0413647,3.1810343,-5.352789
1.516,-0.7508769,5.802328,-15.701055,-1.902776,3.02931,-5.2923126
1.518,-0.587832,5.453326,-15.539448,-1.7685587,2.875348,-5.2299542
1.52,-0.4184432,5.1158915,-15.373898,-1.6386327,2.7195737,-5.1660423
1.522,-0.24420881,4.791519,-15.207553,-1.5128601,2.5623875,-5.1008973
1.524,-0.06658363,4.481878,-15.043708,-1.3910851,2.4040275,-5.0347943
1.526,0.11278939,4.188738,-14.885674,-1.2731863,2.244584,-4.9679456
1.528,0.29243803,3.913592,-14.736366,-1.1590666,2.0839682,-4.9005156
1.53,0.47051477,3.658139,-14.598671,-1.0487087,1.9218146,-4.83264
1.532,0.6450496,3.4238708,-14.475089,-0.94220954,1.7575254,-4.7643843
1.534,0.8142698,3.212631,-14.3680935,-0.83973485,1.5902866,-4.695714
1.536,0.976316,3.0260916,-14.280384,-0.7415503,1.4190992,-4.626527
1.538,1.1295514,2.865969,-14.214056,-0.6479585,1.2428697,-4.556646
1.54,1.272825,2.7337487,-14.170352,-0.559306,1.0604639,-4.4858418
1.542,1.4051487,2.6310136,-14.150292,-0.4759406,0.8708011,-4.4138703
1.544,1.525703,2.5588648,-14.154732,-0.39819103,0.67291987,-4.3405447
1.546,1.6342909,2.5185258,-14.183394,-0.32633346,0.46606082,-4.265748
1.548,1.730814,2.510996,-14.235579,-0.26054913,0.24974307,-4.1894426
1.55,1.8152871,2.5372274,-14.3101845,-0.20090467,0.023785532,-4.111728
1.552,1.8881104,2.5978277,-14.40552,-0.14734891,-0.21163052,-4.0328293
1.554,1.9501677,2.6932151,-14.51952,-0.09969277,-0.4560023,-3.9530644
1.556,2.0023255,2.823825,-14.649574,-0.05764447,-0.7084905,-3.8728259
1.558,2.0458555,2.9896915,-14.792575,-0.02076587,-0.9679855,-3.7926226
1.56,2.0820653,3.1904867,-14.945152,0.011475593,-1.2331687,-3.7130294
1.562,2.112575,3.4255452,-15.103511,0.03969875,-1.5025432,-3.634615
1.564,2.1389308,3.6937935,-15.263529,0.06452221,-1.7745439,-3.5579188
1.566,2.162594,3.9940593,-15.421303,0.0866155,-2.0475624,-3.4834735
1.568,2.1850705,4.324621,-15.572648,0.10663605,-2.320088,-3.4117799
1.57,2.207647,4.683561,-15.713411,0.1251722,-2.5906882,-3.3432884
1.572,2.2312508,5.068528,-15.839651,0.14275998,-2.8580093,-3.278378
1.574,2.2565765,5.477039,-15.947645,0.15984106,-3.1208193,-3.217372
1.576,2.284236,5.9062295,-16.034027,0.17681861,-3.378004,-3.1605318
1.578,2.3145452,6.353055,-16.095581,0.19402933,-3.628501,-3.1080968
1.58,2.347478,6.8142414,-16.129728,0.2117573,-3.8713484,-3.0603054
1.582,2.3829165,7.286454,-16.134264,0.23023987,-4.1056347,-3.017392
1.584,2.4202952,7.7663827,-16.107435,0.24970365,-4.3304667,-2.9795837
1.586,2.4584508,8.250175,-16.049732,0.27036655,-4.54502,-2.9471219
1.588,2.497005,8.734129,-15.9598255,0.29243088,-4.748527,-2.920238
1.59,2.5343375,9.215233,-15.837763,0.31611574,-4.94028,-2.8991258
1.592,2.5685453,9.689886,-15.6846895,0.34161603,-5.1196713,-2.8839371
1.594,2.5983188,10.15472,-15.501543,0.36914945,-5.286177,-2.8748071
1.596,2.6215174,10.607333,-15.290475,0.3989234,-5.4393783,-2.8717937
1.598,2.6363325,11.044767,-15.053648,0.431144,-5.5789714,-2.8748794
1.6,2.641079,11.4647255,-14.793726,0.46599543,-5.704781,-2.8839827
1.602,2.633566,11.865057,-14.513156,0.50359,-5.8167677,-2.8990042
1.604,2.6119463,12.244129,-14.215036,0.5439975,-5.9150205,-2.9198413
1.606,2.5748549,12.600655,-13.902723,0.58721375,-5.9997888,-2.9464462
1.608,2.520565,12.933692,-13.579062,0.63313997,-6.071416,-2.9787974
1.61,2.448083,13.242403,-13.246834,0.68161154,-6.1303096,-3.0169144
1.612,2.3566542,13.526435,-12.908873,0.7323818,-6.176884,-3.060824
1.614,2.2458863,13.785655,-12.567747,0.785136,-6.211552,-3.1106105
1.616,2.116107,14.020209,-12.22584,0.8394666,-6.2346306,-3.1663518
1.618,1.9678261,14.230629,-11.885743,0.89494324,-6.2463746,-3.2280767
1.62,1.8018513,14.417608,-11.549604,0.95115376,-6.2467995,-3.2958093
1.622,1.6196518,14.582096,-11.219004,1.0075871,-6.235835,-3.3694994
1.624,1.4228096,14.724869,-10.895075,1.0637617,-6.213271,-3.4489913
1.626,1.2134104,14.846974,-10.578768,1.1192129,-6.178829,-3.5341182
1.628,0.99341154,14.949778,-10.270718,1.1734473,-6.13217,-3.624692
1.63,0.76535034,15.0348425,-9.971309,1.2259599,-6.072917,-3.720517
1.632,0.5325546,15.103733,-9.6807785,1.2762681,-6.000699,-3.8213704
1.634,0.29801464,15.157815,-9.399187,1.3239121,-5.91516,-3.9269764
1.636,0.06482887,15.198265,-9.126186,1.3685017,-5.8160324,-4.037074
1.638,-0.16389513,15.226819,-8.861668,1.4096907,-5.7031255,-4.1514435
1.64,-0.38493156,15.244973,-8.605451,1.4472117,-5.576354,-4.2698803
1.642,-0.5950985,15.2544365,-8.357354,1.4808784,-5.435748,-4.3922167
1.644,-0.7915559,15.256664,-8.117266,1.5105659,-5.28146,-4.5183153
1.646,-0.97153306,15.252932,-7.8846526,1.5362313,-5.1137543,-4.6480846
1.648,-1.1326942,15.244528,-7.6592436,1.5578564,-4.9330072,-4.78147
1.65,-1.2731996,15.232619,-7.4410625,1.5754554,-4.739671,-4.918502
1.652,-1.3911691,15.218471,-7.2299824,1.5890559,-4.5342474,-5.0592623
1.654,-1.4850857,15.20348,-7.02589,1.5986891,-4.31725,-5.2038317
1.656,-1.5538895,15.188899,-6.8291774,1.604391,-4.089197,-5.352256
1.658,-1.5968256,15.175871,-6.6397605,1.6061795,-3.8505902,-5.5045033
1.66,-1.6130772,15.165622,-6.4580884,1.6040949,-3.6018732,-5.6604443
1.662,-1.6022365,15.159353,-6.2848372,1.5982106,-3.3434644,-5.8198514
1.664,-1.5641848,15.158381,-6.1204824,1.5886339,-3.0757842,-5.982402
1.666,-1.4983763,15.163958,-5.965563,1.57555,-2.7992556,-6.1476674
1.668,-1.4047881,15.177132,-5.820841,1.5592215,-2.5143194,-6.315156
1.67,-1.2828493,15.198985,-5.686872,1.5400035,-2.2214499,-6.4843884
1.672,-1.1324589,15.230818,-5.5644636,1.5182968,-1.9211096,-6.6549096
1.674,-0.9531929,15.273908,-5.4544826,1.4944881,-1.6138572,-6.8262653
1.676,-0.7443357,15.329405,-5.3576612,1.4690557,-1.3001621,-6.9981036
1.678,-0.5051979,15.398358,-5.274736,1.4424382,-0.98050845,-7.170161
1.68,-0.23478758,15.481717,-5.2063675,1.4150229,-0.65530324,-7.3421707
1.682,0.06848216,15.580388,-5.1529365,1.3871937,-0.32486033,-7.5138607
1.684,0.40620357,15.695268,-5.114742,1.3592861,0.010556698,-7.6850133
1.686,0.7797952,15.827208,-5.091917,1.3316164,0.35074162,-7.855415
1.688,1.1913137,15.976803,-5.084749,1.3044827,0.6955168,-8.024862
1.69,1.6425186,16.144659,-5.093384,1.278216,1.0448043,-8.193113
1.692,2.1348598,16.331211,-5.1179733,1.2531853,1.3984847,-8.359919
1.694,2.6695256,16.536972,-5.1586866,1.2298123,1.7564316,-8.52508
1.696,3.2482266,16.76295,-5.213668,1.2085788,2.118502,-8.688465
1.698,3.8716908,17.009235,-5.2841654,1.190037,2.4845335,-8.849998
1.7,4.541363,17.275053,-5.3697014,1.174747,2.8543358,-9.009632
1.702,5.2583036,17.560709,-5.468804,1.1632802,3.227699,-9.167402
1.704,6.0224953,17.866335,-5.5813036,1.1561687,3.6044095,-9.323355
1.706,6.8349915,18.19148,-5.705896,1.1538821,3.9842737,-9.477547
1.708,7.6954355,18.536003,-5.842103,1.1568277,4.367157,-9.6300535
1.71,8.603472,18.899359,-5.9902024,1.1653055,4.7529764,-9.7809105
1.712,9.5586405,19.281067,-6.1506,1.1795316,5.1417117,-9.930154
1.714,10.559679,19.680887,-6.323326,1.1996315,5.5333853,-10.0777645
1.716,11.604125,20.098513,-6.50825,1.225637,5.9281044,-10.223673
1.718,12.689386,20.533747,-6.705263,1.2575328,6.3260784,-10.367756
1.72,13.811937,20.986198,-6.914556,1.2952542,6.727564,-10.509859
1.722,14.968208,21.455265,-7.135785,1.3387561,7.1327972,-10.649754
1.724,16.15407,21.94047,-7.3683295,1.38799,7.5419827,-10.787132
1.726,17.364803,22.441221,-7.6118484,1.4429488,7.9553366,-10.921609
1.728,18.595802,22.956833,-7.8658404,1.5036905,8.373159,-11.052757
1.73,19.842068,23.486538,-8.129501,1.5703025,8.795607,-11.180062
1.732,21.098608,24.02952,-8.401753,1.6429245,9.222773,-11.302824
1.734,22.360464,24.584724,-8.682164,1.7217612,9.654646,-11.420219
1.736,23.623203,25.15078,-8.969891,1.8070607,10.090992,-11.531336
1.738,24.88219,25.72649,-9.26315,1.8990922,10.531343,-11.635142
1.74,26.13304,26.310287,-9.560267,1.9981203,10.975061,-11.730545
1.742,27.371716,26.900213,-9.860253,2.1043591,11.421297,-11.816387
1.744,28.595114,27.494133,-10.161473,2.2179317,11.86907,-11.891447
1.746,29.800903,28.089935,-10.461769,2.3388677,12.317407,-11.954504
1.748,30.986591,28.685677,-10.758471,2.467082,12.765365,-12.004323
1.75,32.150948,29.278833,-11.048761,2.6023397,13.212065,-12.039747
1.752,33.294174,29.866688,-11.33036,2.744254,13.656745,-12.059652
1.754,34.415905,30.446949,-11.601033,2.8923044,14.098768,-12.063036
1.756,35.516712,31.017078,-11.858753,3.045837,14.537541,-12.049004
1.758,36.598152,31.574905,-12.101858,3.2040443,14.9725065,-12.016857
1.76,37.661808,32.11849,-12.328623,3.3659878,15.403011,-11.966103
1.762,38.710144,32.64574,-12.53764,3.5306144,15.828358,-11.896511
1.764,39.74594,33.154938,-12.727685,3.6968117,16.247787,-11.808124
1.766,40.77233,33.644646,-12.897116,3.863379,16.660446,-11.701265
1.768,41.792606,34.1135,-13.044696,4.02903,17.065525,-11.576514
1.77,42.81077,34.559654,-13.169396,4.192501,17.46226,-11.434662
1.772,43.82994,34.981926,-13.270371,4.352486,17.849964,-11.276781
1.774,44.853733,35.3793,-13.347378,4.5076733,18.228058,-11.104025
1.776,45.885544,35.750607,-13.4006,4.6567755,18.596075,-10.9175
1.778,46.928986,36.094917,-13.4300995,4.798559,18.953747,-10.718323
1.78,47.986732,36.41092,-13.436001,4.9318094,19.300724,-10.507573
1.782,49.06218,36.697243,-13.418407,5.0553026,19.63652,-10.286173
1.784,50.158524,36.952106,-13.3776245,5.1678486,19.960588,-10.054895
1.786,51.278095,37.17364,-13.314204,5.2682858,20.272202,-9.814378
1.788,52.424362,37.359463,-13.228611,5.355394,20.570408,-9.565023
1.79,53.601135,37.506283,-13.121587,5.427986,20.854097,-9.30699
1.792,54.811867,37.610806,-12.9945965,5.484883,21.122005,-9.040258
1.794,56.060417,37.66901,-12.848875,5.5249705,21.372774,-8.764673
1.796,57.349728,37.677418,-12.685835,5.547142,21.60505,-8.479944
1.798,58.68375,37.632088,-12.507487,5.550345,21.817581,-8.18573
1.8,60.067852,37.528065,-12.316298,5.533658,22.009426,-7.8815484
1.802,61.507774,37.360252,-12.114616,5.496153,22.17991,-7.566832
1.804,63.009808,37.12342,-11.904655,5.436979,22.328781,-7.2409577
1.806,64.58076,36.81239,-11.689003,5.355299,22.456266,-6.9033823
1.808,66.22595,36.42422,-11.469215,5.2502956,22.56306,-6.5536313
1.81,67.951775,35.95662,-11.247143,5.121108,22.650366,-6.191288
1.812,69.7646,35.408478,-11.02556,4.966884,22.719841,-5.8161306
1.814,71.67215,34.779922,-10.80736,4.786739,22.773617,-5.4281983
1.816,73.681175,34.07277,-10.596542,4.579723,22.814137,-5.027818
1.818,75.80058,33.29251,-10.397892,4.3447886,22.844181,-4.6155863
1.82,78.03929,32.448917,-10.219364,4.080813,22.866854,-4.192377
1.822,80.40232,31.56073,-10.0708275,3.786559,22.88522,-3.759262
1.824,82.89883,30.640554,-9.955006,3.4606452,22.902079,-3.3172884
1.826,85.54437,29.69355,-9.875462,3.1015115,22.920124,-2.867529
1.828,88.34666,28.736696,-9.840664,2.7074385,22.94167,-2.410952
1.83,91.31183,27.797468,-9.858616,2.2766304,22.968729,-1.9482455
1.832,94.44078,26.91233,-9.9348755,1.8073215,23.002907,-1.4795041
1.834,97.73049,26.120895,-10.065685,1.2978163,23.045513,-1.0041318
1.836,101.18173,25.466805,-10.24424,0.74664736,23.097572,-0.5208945
1.838,104.7976,24.99679,-10.48177,0.15271282,23.159782,-0.027863503
1.84,108.57428,24.750341,-10.794205,-0.48471832,23.232315,0.47756624
1.842,112.50569,24.77358,-11.19548,-1.165905,23.314898,0.9986923
1.844,116.58883,25.117939,-11.6935005,-1.8905387,23.406754,1.539515
1.846,120.84003,25.813206,-12.299301,-2.65791,23.506262,2.1045265
1.848,125.245865,26.928204,-13.004753,-3.4668489,23.61076,2.6986547
1.85,129.82037,28.518192,-13.794289,-4.315638,23.716444,3.3266966
1.852,134.58745,30.590115,-14.657173,-5.2025332,23.816977,3.9922767
1.854,139.53615,33.23523,-15.660433,-6.126276,23.903578,4.697929
1.856,144.60439,36.500557,-16.842657,-7.0855837,23.965803,5.445262
1.858,149.77379,40.405067,-18.15641,-8.078691,23.990715,6.234465
1.86,155.04868,45.03524,-19.568602,-9.104507,23.9616,7.0636563
1.862,160.4108,50.38574,-21.095064,-10.163261,23.85782,7.9290023
1.864,165.84093,56.421844,-22.641224,-11.255551,23.65604,8.825304
1.866,171.32852,63.114388,-24.141027,-12.382133,23.331089,9.746372
1.868,176.86989,70.42886,-25.540699,-13.543419,22.8539,10.68648
1.87,182.46387,78.306564,-26.767435,-14.739674,22.192322,11.641584
1.872,188.12476,86.712296,-27.813726,-15.971422,21.312439,12.609404
1.874,193.86745,95.579765,-28.642147,-17.238438,20.18012,13.59198
1.876,199.71022,104.827705,-29.212973,-18.5378,18.764555,14.597658
1.878,205.66943,114.34479,-29.456087,-19.862427,17.039804,15.640883
1.88,211.76128,124.00494,-29.294228,-21.203415,14.983408,16.74493
1.882,217.90097,133.69836,-28.645088,-22.543972,12.59498,17.924194
1.884,223.97389,143.30432,-27.426262,-23.86391,9.881123,19.19967
1.886,229.81131,152.43527,-25.707579,-25.14804,6.8528137,20.59387
1.888,235.79382,160.87213,-23.367302,-26.388597,3.5369883,22.12853
1.89,241.70798,168.68884,-20.278332,-27.590027,-0.031974792,23.815786
1.892,247.4919,175.76292,-16.433237,-28.76593,-3.8263063,25.6472
1.894,253.10196,181.9018,-11.753525,-29.925316,-7.817196,27.59752
1.896,258.4876,186.9411,-6.1954994,-31.07102,-11.961078,29.621675
1.898,263.55643,190.74341,0.25636196,-32.212395,-16.18084,31.633646
1.9,268.17926,193.21387,7.5965996,-33.38169,-20.4224,33.544132
1.902,272.20276,194.29881,15.793723,-34.606136,-24.636768,35.232937
1.904,275.47687,193.98247,24.789078,-35.894295,-28.77942,36.555813
1.906,277.865,192.28487,34.499634,-37.236397,-32.80769,37.354168
1.908,279.25967,189.25684,44.80581,-38.594532,-36.683273,37.469612
1.91,279.5983,184.91585,55.562614,-39.897617,-40.37113,36.75894
1.912,278.78668,179.32323,66.63244,-41.04008,-43.83326,35.10499
1.914,276.69574,172.6385,77.876785,-41.884113,-47.005653,32.42317
1.916,273.28986,165.00177,89.08923,-42.26863,-49.790466,28.750826
1.918,268.5643,156.5708,100.02843,-42.023922,-52.115036,24.193104
1.92,262.53342,147.5214,110.472,-41.002087,-53.884434,18.83797
1.922,255.2461,138.04248,120.2117,-39.096287,-54.989628,12.849922
1.924,246.78867,128.33926,129.04367,-36.261486,-55.33136,6.463543
1.926,237.28217,118.616516,136.77553,-32.523346,-54.825867,-0.033241272
1.928,226.88304,109.076965,143.23857,-27.978771,-53.414948,-6.313492
1.93,215.77664,99.93374,148.29625,-22.793024,-51.080498,-12.040436
1.932,204.15631,91.38834,151.84624,-17.184376,-47.84825,-16.899555
1.934,192.22238,83.604195,153.81363,-11.3993845,-43.785343,-20.632648
1.936,180.17648,76.712326,154.1641,-5.695176,-39.00979,-23.055098
1.938,168.22061,70.80531,152.91031,-0.31217384,-33.66726,-24.095636
1.94,156.54425,65.94786,150.10678,4.5470657,-27.932198,-23.79491
1.942,145.3219,62.171856,145.84381,8.729141,-22.009487,-22.305286
1.944,134.70494,59.47999,140.24184,12.145388,-16.097023,-19.878202
1.946,124.81151,57.846027,133.45158,14.767468,-10.366908,-16.830063
1.948,115.72634,57.21685,125.662674,16.611137,-4.9815717,-13.508391
1.95,107.508316,57.520718,117.078835,17.73973,-0.09038329,-10.247875
1.952,100.183945,58.65533,107.90511,18.269634,4.178035,-7.3226924
1.954,93.74588,60.495476,98.33872,18.36027,7.7672353,-4.95513
1.956,88.14429,62.921394,88.57281,18.16745,10.656559,-3.266437
1.958,83.338196,65.76698,78.77203,17.829756,12.858078,-2.2874756
1.96,79.24109,68.8839,69.08699,17.46819,14.412288,-1.9785824
1.962,75.75355,72.16574,59.660236,17.17399,15.387099,-2.2535272
1.964,72.80467,75.42732,50.67527,17.004002,15.872857,-2.9950147
1.966,70.35486,78.55988,42.234756,16.980806,15.972527,-4.0658956
1.968,68.298035,81.47818,34.34716,17.095947,15.782412,-5.320766
1.97,66.521835,84.04843,27.034912,17.317274,15.392037,-6.668225
1.972,64.944214,86.25021,20.347141,17.597986,14.919255,-7.995135
1.974,63.492104,88.08171,14.223429,17.894579,14.440089,-9.135281
1.976,62.096046,89.526726,8.646004,18.168934,14.000919,-9.995692
1.978,60.694897,90.57477,3.6078281,18.394194,13.630548,-10.533485
1.98,59.24073,91.23816,-0.9175205,18.553116,13.333054,-10.73853
1.982,57.68783,91.50882,-4.9029636,18.636318,13.093293,-10.630541
1.984,56.00917,91.41483,-8.370947,18.644167,12.887215,-10.24698
1.986,54.18866,90.99652,-11.352925,18.583282,12.685713,-9.635458
1.988,52.223274,90.31462,-13.907981,18.462496,12.458839,-8.849541
1.99,50.11676,89.42972,-16.090324,18.291931,12.181524,-7.944663
1.992,47.9544,88.37766,-17.94849,18.082153,11.838455,-6.974202
1.994,45.802074,87.20333,-19.52101,17.84402,11.428196,-5.986025
1.996,43.724693,86.151566,-20.724405,17.586239,10.95919,-5.0135293
1.998,41.31556,85.2283,-21.680359,17.31018,10.434465,-4.069502
2,38.81203,84.206604,-22.478418,17.01634,9.858796,-3.1544924
2.002,36.231895,83.1266,-23.087732,16.709826,9.248458,-2.2659464
2.004,33.567085,82.08818,-23.560099,16.395947,8.621828,-1.4013155
2.006,30.81673,81.1441,-23.911644,16.077765,7.995308,-0.55827355
2.008,28.01366,80.317406,-24.144402,15.757614,7.384423,0.26407123
2.01,25.206884,79.60238,-24.259537,15.4377575,6.801799,1.0638341
2.012,22.4453,78.97808,-24.256222,15.1202545,6.256027,1.8372617
2.014,19.754864,78.42129,-24.134418,14.806892,5.7527895,2.582169
2.016,17.143288,77.91141,-23.898129,14.499099,5.2952414,3.2979836
2.018,14.597872,77.43634,-23.54506,14.198057,4.8839016,3.9817564
2.02,12.090147,77.03859,-23.078796,13.904795,4.5180197,4.627891
2.022,9.6492605,76.72667,-22.5312,13.620243,4.196359,5.230399
2.024,7.3438854,76.44388,-21.938652,13.344773,3.9170158,5.7845616
2.026,5.163624,76.187546,-21.282448,13.078222,3.677558,6.287649
2.028,3.105814,75.95428,-20.535767,12.820081,3.475832,6.738745
2.03,1.181572,75.73667,-19.707525,12.569461,3.3098965,7.1382785
2.032,-0.6013069,75.52431,-18.817827,12.32538,3.1781936,7.487934
2.034,-2.2417812,75.29903,-17.879501,12.087043,3.0796506,7.790163
2.036,-3.741335,75.04765,-16.900558,11.853966,3.0132825,8.047718
2.038,-5.1079807,74.75711,-15.890383,11.625944,2.978152,8.263486
2.04,-6.350807,74.40076,-14.859738,11.402969,2.9733787,8.440481
2.042,-7.466116,73.95927,-13.818708,11.18515,2.9979677,8.581839
2.044,-8.453312,73.44631,-12.774307,10.972649,3.0507596,8.690714
2.046,-9.3156185,72.88466,-11.731737,10.765575,3.1303525,8.770353
2.048,-10.05485,72.28786,-10.698568,10.563887,3.2350333,8.823999
2.05,-10.674086,71.65849,-9.684845,10.367398,3.362503,8.855378
2.052,-11.179295,70.997986,-8.700577,10.17595,3.5109591,8.868164
2.054,-11.579304,70.31007,-7.756109,9.988969,3.6773868,8.865134
2.056,-11.884171,69.59825,-6.8595734,9.805711,3.8585403,8.84904
2.058,-12.103739,68.86659,-6.0162773,9.625356,4.0511074,8.822726
2.06,-12.248453,68.12036,-5.231037,9.446832,4.251178,8.788718
2.062,-12.328129,67.36634,-4.5077305,9.26902,4.4546547,8.749301
2.064,-12.353104,66.61194,-3.8481255,9.090746,4.657356,8.706469
2.066,-12.3330345,65.863716,-3.2529478,8.91077,4.854826,8.661821
2.068,-12.277384,65.12791,-2.7221956,8.727879,5.0425267,8.616537
2.07,-12.195375,64.41046,-2.2556753,8.54098,5.2159786,8.571499
2.072,-12.09536,63.715763,-1.8517408,8.3491,5.3707542,8.527214
2.074,-11.984966,63.049713,-1.5100918,8.151482,5.5025754,8.483882
2.076,-11.873821,62.408382,-1.2262182,7.9476056,5.607381,8.441556
2.078,-11.763616,61.798,-1.000144,7.7372007,5.681418,8.400138
2.08,-11.663975,61.224056,-0.8276987,7.520244,5.721253,8.359482
2.082,-11.579506,60.685417,-0.7002096,7.2969766,5.723889,8.31959
2.084,-11.513125,60.18075,-0.6133356,7.0678964,5.6868143,8.280729
2.086,-11.469267,59.709084,-0.5620098,6.8337374,5.6080923,8.243478
2.088,-11.451547,59.268253,-0.5393634,6.595438,5.486396,8.208751
2.09,-11.460794,58.855305,-0.539906,6.354068,5.321118,8.177794
2.092,-11.497123,58.46679,-0.5588696,6.1107874,5.112275,8.152044
2.094,-11.560192,58.09898,-0.5901432,5.8667207,4.860529,8.133129
2.096,-11.648479,57.7468,-0.6276617,5.622872,4.567125,8.122637
2.098,-11.759028,57.404854,-0.66577053,5.3800683,4.233838,8.121882
2.1,-11.888291,57.06684,-0.6987084,5.1389055,3.8629189,8.131601
2.102,-12.031086,56.725677,-0.7206811,4.8997264,3.4570613,8.151845
2.104,-12.181038,56.374317,-0.72625935,4.662571,3.019245,8.181791
2.106,-12.331912,56.005352,-0.70997083,4.42721,2.5526536,8.2196455
2.108,-12.476717,55.611057,-0.666116,4.1932306,2.060489,8.262646
2.11,-12.609093,55.183548,-0.5893948,3.9601116,1.5459304,8.307167
2.112,-12.72217,54.715126,-0.47442675,3.7272258,1.0122559,8.348877
2.114,-12.809633,54.19855,-0.31565046,3.493908,0.46274498,8.38272
2.116,-12.865457,53.627045,-0.10805607,3.2595623,-0.099354014,8.403301
2.118,-12.884479,52.994667,0.15300941,3.0237632,-0.67064166,8.405281
2.12,-12.862469,52.29571,0.4718027,2.7862206,-1.2475171,8.383554
2.122,-12.796661,51.52569,0.8523445,2.5468566,-1.8262542,8.333497
2.124,-12.685051,50.680496,1.297698,2.3058589,-2.4028473,8.251276
2.126,-12.527154,49.757442,1.810441,2.0637345,-2.9728699,8.134039
2.128,-12.323987,48.7548,2.3923588,1.8212914,-3.5314732,7.9800606
2.13,-12.078155,47.671997,3.0439577,1.5796108,-4.0734386,7.788788
2.132,-11.792762,46.509754,3.7645502,1.3400996,-4.593189,7.560833
2.134,-11.472465,45.27,4.551463,1.1044099,-5.0848575,7.2978535
2.136,-11.122549,43.956215,5.400942,0.8743911,-5.542494,7.0024495
2.138,-10.748908,42.57268,6.3076925,0.65203094,-5.96025,6.678022
2.14,-10.357677,41.12519,7.265277,0.4393618,-6.332651,6.3285522
2.142,-9.954901,39.62052,8.265564,0.23839259,-6.654799,5.9585505
2.144,-9.546554,38.06619,9.299098,0.051028013,-6.9225435,5.5729127
2.146,-9.138176,36.470436,10.355416,-0.12100315,-7.1326156,5.176759
2.148,-8.735107,34.842323,11.423093,-0.2762022,-7.282847,4.7752314
2.15,-8.341841,33.191444,12.490293,-0.41338396,-7.3722377,4.3734093
2.152,-7.961869,31.527351,13.544539,-0.5317645,-7.400968,3.9762595
2.154,-7.598404,29.860134,14.57357,-0.6310011,-7.370376,3.588474
2.156,-7.25386,28.1997,15.565517,-0.7111744,-7.282898,3.2142148
2.158,-6.9297214,26.555622,16.509453,-0.77279645,-7.1419168,2.8569844
2.16,-6.626378,24.936802,17.39566,-0.8167613,-6.951495,2.5194933
2.162,-6.3439875,23.351725,18.21531,-0.8443573,-6.7162743,2.2035844
2.164,-6.0814524,21.808065,18.960524,-0.8571583,-6.441308,1.9101675
2.166,-5.837553,20.313076,19.624819,-0.85693014,-6.1320267,1.6393983
2.168,-5.611061,18.873245,20.20312,-0.8455462,-5.7939067,1.3908601
2.17,-5.39993,17.494629,20.691795,-0.82498455,-5.432245,1.1635561
2.172,-5.2019825,16.182348,21.08857,-0.79725945,-5.0522213,0.95606756
2.174,-5.014945,14.940819,21.39249,-0.7643098,-4.6586685,0.7668227
2.176,-4.836323,13.77339,21.6042,-0.7280014,-4.2559743,0.5942209
2.178,-4.663556,12.682324,21.725586,-0.6901474,-3.848143,0.43664703
2.18,-4.493985,11.668899,21.75986,-0.6524565,-3.438825,0.29262152
2.182,-4.326127,10.733908,21.710793,-0.61647767,-3.0312035,0.16077702
2.184,-4.158164,9.877385,21.5836,-0.5835981,-2.6280127,0.03987813
2.186,-3.987959,9.099001,21.3844,-0.55506504,-2.2316134,-0.071165204
2.188,-3.8131905,8.397935,21.11877,-0.53190494,-1.8439941,-0.17331466
2.19,-3.6318512,7.772521,20.791842,-0.51493156,-1.4667448,-0.26748663
2.192,-3.4424987,7.219768,20.40873,-0.50475204,-1.1010627,-0.35456923
2.194,-3.244574,6.7364655,19.975445,-0.50176454,-0.74778134,-0.43542615
2.196,-3.0373735,6.319435,19.498186,-0.506183,-0.40744263,-0.5109898
2.198,-2.8198366,5.964925,18.9827,-0.5180561,-0.08035919,-0.5822347
2.2,-2.59196,5.6691785,18.435293,-0.5373001,0.23334125,-0.6501055
2.202,-2.3540053,5.4284973,17.862572,-0.5637084,0.5337018,-0.71551555
2.204,-2.1058326,5.2386737,17.270002,-0.5969956,0.82082653,-0.7793848
2.206,-1.8476505,5.095695,16.663105,-0.63680744,1.0948085,-0.8426329
2.208,-1.5802636,4.9954195,16.047253,-0.6827873,1.3556975,-0.90611655
2.21,-1.3044386,4.9338946,15.427587,-0.7345897,1.6035082,-0.97061867
2.212,-1.0212083,4.9072704,14.808464,-0.7919336,1.8381683,-1.0368402
2.214,-0.73173,4.9113584,14.1939945,-0.8546056,2.05953,-1.1053864
2.216,-0.436965,4.94246,13.587765,-0.9225062,2.2674005,-1.1767594
2.218,-0.13775492,4.996929,12.992731,-0.9956499,2.4615748,-1.2513303
2.22,0.16571188,5.071105,12.411559,-1.0741566,2.6418421,-1.3293742
2.222,0.47230434,5.161877,11.846423,-1.1582025,2.8080027,-1.4110093
2.224,0.78125334,5.26616,11.299083,-1.2479932,2.9598482,-1.4962333
2.226,1.0920982,5.381192,10.771155,-1.3437339,3.0972126,-1.5849179
2.228,1.4039869,5.504554,10.2638855,-1.4455523,3.2199223,-1.6768215
2.23,1.7166262,5.6340084,9.778122,-1.5534308,3.3278515,-1.771592
2.232,2.029935,5.767504,9.31428,-1.6671875,3.420947,-1.8688253
2.234,2.3435202,5.9033575,8.872799,-1.7864909,3.4992523,-1.9680891
2.236,2.657346,6.039832,8.45363,-1.910826,3.5629134,-2.0689468
2.238,2.9711933,6.175493,8.056454,-2.0395103,3.6122208,-2.1709862
2.24,3.2851763,6.3089275,7.6811247,-2.1717038,3.6476703,-2.2738125
2.242,3.5990183,6.4391623,7.327037,-2.3064814,3.6699214,-2.3770669
2.244,3.912647,6.565227,6.9936314,-2.442819,3.679773,-2.480418
2.246,4.225876,6.686316,6.680071,-2.5796666,3.6781476,-2.5835586
2.248,4.538583,6.80178,6.385551,-2.7159524,3.66609,-2.6862316
2.25,4.850638,6.910987,6.109064,-2.850638,3.6447563,-2.7882094
2.252,5.161675,7.0136013,5.8495893,-2.9827704,3.6153727,-2.8893352
2.254,5.471586,7.109329,5.6062307,-3.1115026,3.5792441,-2.9895215
2.256,5.7800074,7.197902,5.37786,-3.2361212,3.537726,-3.088737
2.258,6.0866723,7.279285,5.163658,-3.3560586,3.4921777,-3.1869729
2.26,6.3910723,7.3535733,4.9626117,-3.4709194,3.443931,-3.2842155
2.262,6.6927047,7.420928,4.774083,-3.5804434,3.394231,-3.380476
2.264,6.9913664,7.481352,4.597439,-3.6845078,3.344193,-3.475699
2.266,7.286934,7.535213,4.4318805,-3.783081,3.2947967,-3.5697908
2.268,7.578992,7.5828886,4.2767973,-3.8762302,3.2468822,-3.662556
2.27,7.867256,7.624737,4.1314425,-3.9640572,3.2011306,-3.7537322
2.272,8.151424,7.661038,3.9952483,-4.0466924,3.1580803,-3.8430092
2.274,8.431441,7.692164,3.86757,-4.1242614,3.1181393,-3.9300404
2.276,8.706902,7.7183795,3.7481036,-4.196916,3.081635,-4.0144873
2.278,8.977624,7.7403,3.6362972,-4.264768,3.04885,-4.0960207
2.28,9.243302,7.758179,3.5318391,-4.3278847,3.0200408,-4.174368
2.282,9.503811,7.7724667,3.4345832,-4.386297,2.9954922,-4.2492995
2.284,9.759185,7.7835145,3.3439677,-4.4399905,2.9754977,-4.320653
2.286,10.00938,7.7916985,3.259479,-4.4888973,2.9603705,-4.388307
2.288,10.254162,7.7975426,3.1805005,-4.5329022,2.9504569,-4.452203
2.29,10.493509,7.801393,3.1064253,-4.57188,2.9461303,-4.5123053
2.292,10.727393,7.80364,3.036644,-4.605701,2.9477904,-4.5685987
2.294,10.955734,7.8047338,2.9705753,-4.634256,2.955779,-4.6210732
2.296,11.178761,7.805004,2.9074883,-4.6574826,2.970436,-4.669718
2.298,11.396381,7.8048863,2.8465977,-4.675386,2.9920344,-4.7145205
2.3,11.6086235,7.8049846,2.7871418,-4.688007,3.0207796,-4.7554693
2.302,11.815609,7.8056564,2.7282143,-4.6954474,3.0567822,-4.7925286
2.304,12.017319,7.8072147,2.6690502,-4.69785,3.1000562,-4.825663
2.306,12.213847,7.810177,2.608951,-4.6953707,3.1505334,-4.854827
2.308,12.405127,7.814705,2.5470343,-4.6881757,3.2080033,-4.8799696
2.31,12.591148,7.8210573,2.4826818,-4.676424,3.2721584,-4.901075
2.312,12.772171,7.8293457,2.4151654,-4.6602354,3.3425813,-4.9181747
2.314,12.948072,7.839776,2.3440485,-4.639708,3.418754,-4.931345
2.316,13.119104,7.852398,2.2687788,-4.614911,3.5000656,-4.9407167
2.318,13.285341,7.8674,2.1889625,-4.5859194,3.5858245,-4.946476
2.32,13.446886,7.8847256,2.1042256,-4.55282,3.6752803,-4.948847
2.322,13.603844,7.904194,2.014473,-4.5157185,3.767629,-4.948088
2.324,13.756297,7.9257436,1.9195509,-4.4747825,3.8620496,-4.9444547
2.326,13.904673,7.9490633,1.8194962,-4.430243,3.957723,-4.9381747
2.328,14.048946,7.973813,1.7144399,-4.3823705,4.053882,-4.9294515
2.33,14.189345,7.9994845,1.6045308,-4.3314767,4.149785,-4.918455
2.332,14.326176,8.025661,1.4900131,-4.2779064,4.244743,-4.90532
2.334,14.459679,8.051594,1.371263,-4.2220254,4.3381376,-4.8901467
2.336,14.589995,8.076666,1.2485948,-4.1641912,4.429431,-4.873017
2.338,14.71747,8.1001835,1.1224313,-4.1047506,4.5181665,-4.8540063
2.34,14.842249,8.121458,0.9933772,-4.043996,4.6039767,-4.8331976
2.342,14.964506,8.139661,0.86180496,-3.9821618,4.68656,-4.8106823
2.344,15.084553,8.154066,0.72817755,-3.919418,4.765698,-4.786568
2.346,15.202365,8.163981,0.5928397,-3.855888,4.8412066,-4.7609777
2.348,15.318224,8.168658,0.4563117,-3.7916546,4.9129624,-4.734058
2.35,15.432118,8.167504,0.31881237,-3.726748,4.980847,-4.705967
2.352,15.544187,8.159759,0.18074083,-3.66117,5.0447807,-4.676837
2.354,15.654448,8.144993,0.042454243,-3.5949323,5.1046596,-4.6467886
2.356,15.762828,8.122713,-0.09570646,-3.528053,5.1603756,-4.6159153
2.358,15.869354,8.092612,-0.23344946,-3.4605556,5.211786,-4.584276
2.36,15.9739065,8.054489,-0.3704524,-3.3925056,5.2587147,-4.551896
2.362,16.076424,8.008101,-0.50656843,-3.3240056,5.300969,-4.51877
2.364,16.176697,7.9533105,-0.64175177,-3.2551742,5.3382983,-4.484848
2.366,16.274406,7.8901305,-0.7756629,-3.1861663,5.3704004,-4.4500704
2.368,16.36932,7.818632,-0.9082937,-3.1171336,5.396906,-4.414368
2.37,16.461277,7.738818,-1.0393629,-3.0482404,5.417405,-4.3776803
2.372,16.55008,7.650879,-1.168818,-2.979599,5.431444,-4.3400173
2.374,16.63515,7.555349,-1.2964756,-2.9113119,5.438535,-4.30144
2.376,16.716179,7.4526863,-1.4219589,-2.8434646,5.438225,-4.262099
2.378,16.79295,7.3434134,-1.545084,-2.7761045,5.430077,-4.2222424
2.38,16.865213,7.2282257,-1.6655257,-2.70929,5.4136934,-4.1821904
2.382,16.932827,7.1078157,-1.7829628,-2.6430733,5.3887815,-4.1423035
2.384,16.995438,6.9829063,-1.8970225,-2.5775392,5.355157,-4.1029644
2.386,17.053152,6.854351,-2.0073848,-2.5128176,5.3127303,-4.0645604
2.388,17.105793,6.7230544,-2.1136038,-2.449042,5.261527,-4.027427
2.39,17.15342,6.5900435,-2.2153523,-2.3863845,5.201692,-3.9918108
2.392,17.19624,6.4561687,-2.31221,-2.3250384,5.133457,-3.957852
2.394,17.234276,6.3225565,-2.4037251,-2.265194,5.057095,-3.9255586
2.396,17.267796,6.190327,-2.489553,-2.2070434,4.9729214,-3.8948042
2.398,17.29709,6.0605516,-2.569365,-2.1507707,4.881303,-3.8653626
2.4,17.322433,5.934601,-2.642855,-2.096513,4.7826333,-3.8369265
2.402,17.344486,5.813837,-2.7098277,-2.0443797,4.6773243,-3.8091137
2.404,17.363684,5.6995115,-2.76998,-1.9944541,4.5658274,-3.7814782
2.406,17.380505,5.592999,-2.823213,-1.9467373,4.448636,-3.7536395
2.408,17.395569,5.495678,-2.8692682,-1.9011827,4.3263125,-3.7252643
2.41,17.409462,5.4089346,-2.9079072,-1.8577142,4.199416,-3.6960638
2.412,17.42279,5.334196,-2.9391398,-1.816197,4.0685024,-3.6657715
2.414,17.436283,5.2729254,-2.9630427,-1.7764864,3.934126,-3.6341424
2.416,17.4507,5.226432,-2.9797378,-1.7384073,3.7968109,-3.6009579
2.418,17.466625,5.195953,-2.9891691,-1.7017856,3.657047,-3.566022
2.42,17.484884,5.182417,-2.9914308,-1.6664625,3.5152802,-3.529184
2.422,17.50597,5.1866975,-2.9865708,-1.6322826,3.3719254,-3.4903755
2.424,17.530607,5.2095,-2.9746108,-1.5991201,3.2273731,-3.4496083
2.426,17.559238,5.251326,-2.9555168,-1.5668954,3.0820122,-3.4069972
2.428,17.592348,5.31256,-2.9292018,-1.5355453,2.9362335,-3.362779
2.43,17.63052,5.393469,-2.8956099,-1.5050209,2.7904062,-3.3172925
2.432,17.67423,5.4940357,-2.8547277,-1.4752953,2.6449018,-3.2709894
2.434,17.72387,5.61386,-2.8065085,-1.4463173,2.5000854,-3.2244115
2.436,17.779633,5.7526217,-2.7508686,-1.4180232,2.3563063,-3.1781285
2.438,17.841862,5.9095154,-2.6876528,-1.3903165,2.2138638,-3.132711
2.44,17.91077,6.083614,-2.6166985,-1.3630909,2.0730405,-3.088703
2.442,17.986423,6.273586,-2.5378854,-1.3362435,1.9340904,-3.046608
2.444,18.068638,6.478315,-2.4512587,-1.3096349,1.797231,-3.0068944
2.446,18.1574,6.6962347,-2.3567412,-1.2831173,1.6627042,-2.96997
2.448,18.25235,6.9257526,-2.2541208,-1.25653,1.5307637,-2.9361973
2.45,18.353218,7.165187,-2.1434913,-1.2297138,1.4016778,-2.9058943
2.452,18.459637,7.41278,-2.0247896,-1.2024897,1.2757555,-2.8793218
2.454,18.571056,7.666726,-1.898087,-1.1746778,1.1533477,-2.8566728
2.456,18.687021,7.9251385,-1.7635382,-1.1461002,1.0348537,-2.8380702
2.458,18.806965,8.186236,-1.6212499,-1.1165618,0.9206846,-2.8235664
2.46,18.930317,8.4482765,-1.471499,-1.0859076,0.8112507,-2.8130598
2.462,19.056446,8.709583,-1.3145252,-1.0539427,0.7069938,-2.806376
2.464,19.184772,8.968593,-1.150801,-1.0204633,0.6083898,-2.8032794
2.466,19.314743,9.2237835,-0.9808867,-0.98529166,0.51592886,-2.8034365
2.468,19.44566,9.47373,-0.80529237,-0.9482929,0.43007678,-2.8064408
2.47,19.57679,9.717118,-0.62476504,-0.9093907,0.3512995,-2.8117838
2.472,19.707726,9.952669,-0.44003916,-0.8685725,0.28003836,-2.8188815
2.474,19.837852,10.179192,-0.25189066,-0.82590055,0.2167168,-2.8270977
2.476,19.966759,10.39555,-0.06125009,-0.7815063,0.16169977,-2.8357759
2.478,20.093939,10.600608,0.13085914,-0.7355503,0.11531204,-2.8443086
2.48,20.218838,10.793406,0.3234203,-0.6882272,0.07780141,-2.8521645
2.482,20.34074,10.972792,0.5154216,-0.639737,0.04937336,-2.8589435
2.484,20.459408,11.137444,0.7057127,-0.59024966,0.030166894,-2.8644047
2.486,20.57426,11.286144,0.8931638,-0.53987044,0.020244092,-2.8684556
2.488,20.684582,11.417639,1.076629,-0.48866725,0.01956755,-2.8711753
2.49,20.78963,11.530734,1.2550962,-0.4366376,0.028005272,-2.8727894
2.492,20.888714,11.624285,1.4274689,-0.38371193,0.0453673,-2.8736277
2.494,20.981085,11.697111,1.5927168,-0.32977152,0.071352184,-2.874049
2.496,21.0657,11.748102,1.7499369,-0.27468836,0.10558176,-2.8743703
2.498,21.1418,11.77604,1.8981937,-0.21832803,0.14761777,-2.8748398
2.5,21.208466,11.779978,2.0368185,-0.16055258,0.19696094,-2.875571
2.502,21.264772,11.759195,2.1649895,-0.101264715,0.25308856,-2.8765173
2.504,21.309855,11.712962,2.2822552,-0.040381122,0.31543007,-2.877486
2.506,21.342701,11.641014,2.3881047,0.022158083,0.38338068,-2.8781161
2.508,21.362587,11.5432825,2.4822621,0.08637426,0.45632964,-2.877916
2.51,21.368774,11.419879,2.5646436,0.15228471,0.5336362,-2.876321
2.512,21.360546,11.271282,2.6351523,0.21985458,0.6146562,-2.872688
2.514,21.33739,11.098356,2.6939278,0.289002,0.6987609,-2.8663578
2.516,21.298773,10.902271,2.7412095,0.35958245,0.78529406,-2.85665
2.518,21.24455,10.684368,2.7771378,0.4313654,0.87362075,-2.8429046
2.52,21.174667,10.446373,2.802259,0.50405645,0.9631337,-2.8245156
2.522,21.089155,10.19013,2.8171313,0.57729113,1.0532706,-2.8009305
2.524,20.988308,9.917904,2.822412,0.65062964,1.143506,-2.7716663
2.526,20.872536,9.6319275,2.8188186,0.7235634,1.2333757,-2.7363067
2.528,20.742485,9.334699,2.8070784,0.79554063,1.3224652,-2.6945195
2.53,20.598722,9.028931,2.787964,0.8659859,1.4104047,-2.646074
2.532,20.442175,8.71718,2.762292,0.93432426,1.4968628,-2.5908659
2.534,20.273989,8.401984,2.7310443,1.0000331,1.5815302,-2.5289388
2.536,20.095242,8.085764,2.69518,1.0626714,1.6641023,-2.4604836
2.538,19.907223,7.7707715,2.6555183,1.1218517,1.7442843,-2.3858588
2.54,19.71115,7.459095,2.6130018,1.177289,1.8217807,-2.3055685
2.542,19.508266,7.152741,2.5685973,1.2288129,1.8963175,-2.2202466
2.544,19.300024,6.8536096,2.5233107,1.2763414,1.9676313,-2.1306207
2.546,19.087776,6.563032,2.4779334,1.3198843,2.0354831,-2.037473
2.548,18.872791,6.2825646,2.4333057,1.3595101,2.0996714,-1.9415996
2.55,18.656357,6.0133457,2.3901317,1.3953748,2.160035,-1.8437934
2.552,18.439754,5.7562914,2.34911,1.4276538,2.216461,-1.7447829
2.554,18.224306,5.5120625,2.310935,1.4565578,2.2689059,-1.6452271
2.556,18.010937,5.281223,2.2760663,1.4823446,2.3173733,-1.5457147
2.558,17.80074,5.064128,2.2446785,1.5052769,2.36193,-1.4467322
2.56,17.594633,4.8608637,2.217093,1.5256125,2.4026701,-1.34871
2.562,17.393291,4.6714797,2.1934662,1.5436074,2.4397137,-1.252021
2.564,17.197542,4.4957848,2.1737032,1.5594928,2.4732134,-1.1569601
2.566,17.007828,4.333548,2.1579144,1.573475,2.503309,-1.0637977
2.568,16.824514,4.1844273,2.1456623,1.5857058,2.5300796,-0.9727743
2.57,16.647955,4.0478754,2.1369138,1.5962803,2.553598,-0.8840893
2.572,16.478338,3.923489,2.1312242,1.6052548,2.5738697,-0.7979278
2.574,16.315811,3.8105783,2.1283777,1.612619,2.5908365,-0.71446145
2.576,16.160156,3.708603,2.12807,1.6183153,2.604398,-0.63381946
2.578,16.01153,3.6168952,2.129826,1.6222458,2.6143982,-0.5561198
2.58,15.869838,3.5347476,2.133346,1.6242962,2.620667,-0.4814513
2.582,15.734751,3.461533,2.1382747,1.6243312,2.6230195,-0.40987408
2.584,15.606026,3.3966012,2.1441894,1.6222317,2.6212919,-0.34141767
2.586,15.4832735,3.3392444,2.150715,1.6178904,2.615352,-0.27608958
2.588,15.36609,3.2887187,2.1577137,1.6112362,2.6051078,-0.21387167
2.59,15.254116,3.2442412,2.1649456,1.602232,2.5905113,-0.15473624
2.592,15.146861,3.2052221,2.1722538,1.5908843,2.5715666,-0.098637834
2.594,15.044042,3.1708565,2.1796741,1.5772183,2.5483263,-0.045524955
2.596,14.944974,3.1405282,2.1870914,1.5612848,2.5208871,0.0046666414
2.598,14.849316,3.1137238,2.194622,1.54316,2.4893568,0.0519996
2.6,14.7566395,3.0897026,2.2022843,1.522932,2.453907,0.09651694
2.602,14.666421,3.0679526,2.2102826,1.5007019,2.4147284,0.13824606
2.604,14.578156,3.0480099,2.2187855,1.4765569,2.3720396,0.17720708
2.606,14.4916,3.0292392,2.2279024,1.4506063,2.3260827,0.21339987
2.608,14.4061775,3.011219,2.2379904,1.4229639,2.2771096,0.24681409
2.61,14.321634,2.9936385,2.2491095,1.3937201,2.225385,0.277443
2.612,14.237473,2.9760332,2.261565,1.3629899,2.1711683,0.3052933
2.614,14.153618,2.9581175,2.2755737,1.330883,2.1147106,0.33037835
2.616,14.069571,2.9397416,2.291434,1.2975032,2.0562515,0.3527612
2.618,13.985228,2.9205923,2.3093374,1.2629426,1.9960151,0.37253422
2.62,13.900222,2.9005337,2.3294024,1.2272896,1.9342101,0.3898418
2.622,13.814438,2.879499,2.3518772,1.1906284,1.8710492,0.4048626
2.624,13.727808,2.8574967,2.3768146,1.153027,1.8067291,0.41778946
2.626,13.640293,2.8344297,2.4043422,1.1145378,1.7414474,0.4288389
2.628,13.551831,2.8102956,2.4347396,1.0751989,1.6754057,0.43826282
2.63,13.462357,2.7849436,2.467799,1.0350482,1.6087985,0.44628325
2.632,13.37198,2.758645,2.5036483,0.99412066,1.5418332,0.45312423
2.634,13.280673,2.731134,2.5423198,0.9524514,1.4747052,0.4589743
2.636,13.188611,2.702516,2.583923,0.91009724,1.4076071,0.46398628
2.638,13.095902,2.6728454,2.6282136,0.8671081,1.3407367,0.4682865
2.64,13.002766,2.6419487,2.6752615,0.82355595,1.2742698,0.4719572
2.642,12.909398,2.6097593,2.7249618,0.77952874,1.2083946,0.47502697
2.644,12.815858,2.576232,2.7771158,0.73512065,1.1432905,0.4774916
2.646,12.722532,2.541172,2.8316684,0.6904666,1.0791329,0.47930616
2.648,12.62958,2.5045166,2.888575,0.64570105,1.0161039,0.4804141
2.65,12.537088,2.4663086,2.9476664,0.6009707,0.9543853,0.48074213
2.652,12.445428,2.4264674,3.008823,0.5564222,0.89418304,0.4802338
2.654,12.354746,2.3849006,3.071682,0.5121791,0.83567774,0.47888148
2.656,12.265335,2.34173,3.136142,0.46835828,0.77905905,0.4767217
2.658,12.177574,2.2968209,3.2019343,0.42503196,0.72452986,0.4738589
2.66,12.091497,2.2503426,3.2688816,0.38223928,0.6722924,0.4704764
2.662,12.0072975,2.2024124,3.33673,0.339991,0.6225557,0.4668085
2.664,11.925173,2.1529913,3.4052994,0.29827493,0.57552314,0.4631379
2.666,11.845364,2.1021655,3.4742966,0.2570315,0.5313984,0.4597506
2.668,11.768016,2.0500998,3.543499,0.21621262,0.49037135,0.45693362
2.67,11.693108,1.9969847,3.6127145,0.17576557,0.45259884,0.4549284
2.672,11.620791,1.9429212,3.681641,0.13565378,0.41820794,0.45390815
2.674,11.551018,1.8882375,3.7501142,0.09586012,0.38728726,0.45396814
2.676,11.48381,1.8331294,3.8178217,0.056409836,0.35988408,0.45515674
2.678,11.419228,1.7778049,3.8846455,0.017340705,0.3360108,0.45744792
2.68,11.357169,1.7226813,3.9501488,-0.021282442,0.31564006,0.46074614
2.682,11.297604,1.6678197,4.0142093,-0.059367314,0.2987263,0.464922
2.684,11.240467,1.613487,4.076497,-0.09681536,0.28520116,0.46983796
2.686,11.18576,1.5599232,4.136781,-0.13352078,0.27498525,0.47535834
2.688,11.133301,1.5073657,4.1948724,-0.1693767,0.2679991,0.4813735
2.69,11.083058,1.4560497,4.2504687,-0.20430952,0.2641711,0.48783252
2.692,11.034954,1.4061663,4.3034725,-0.2382688,0.26340532,0.49471986
2.694,10.988972,1.3579116,4.3537,-0.27124313,0.26562497,0.5020823
2.696,10.945177,1.3115804,4.4010777,-0.30327517,0.270741,0.5100215
2.698,10.903606,1.2673762,4.4455023,-0.33443928,0.27864504,0.51865804
2.7,10.864025,1.2256553,4.4868193,-0.36484957,0.28920847,0.52813464
2.702,10.826461,1.1867528,4.5248404,-0.3946259,0.3022671,0.538573
2.704,10.790712,1.1509767,4.559268,-0.42389703,0.3176324,0.5500616
2.706,10.757049,1.1184003,4.5901103,-0.45278326,0.33508945,0.56262654
2.708,10.725488,1.0890243,4.61731,-0.48137552,0.35441214,0.57623994
2.71,10.6959,1.0631073,4.640731,-0.50972474,0.3753469,0.5908239
2.712,10.668331,1.0408044,4.6603527,-0.5378514,0.39762694,0.60623515
2.714,10.642942,1.0221467,4.676151,-0.5657446,0.42097938,0.6222976
2.716,10.61967,1.007488,4.688223,-0.5933763,0.4451372,0.63882625
2.718,10.598499,0.9970162,4.696397,-0.62069654,0.4698483,0.65564746
2.72,10.579263,0.9907081,4.70068,-0.6476416,0.49487758,0.672614
2.722,10.561979,0.9887247,4.700874,-0.67417014,0.5200277,0.68961114
2.724,10.546201,0.99101853,4.696976,-0.7002379,0.5451177,0.70655745
2.726,10.532072,0.9975319,4.6887393,-0.72580945,0.5700136,0.7234117
2.728,10.519125,1.0082002,4.676066,-0.75087565,0.59462273,0.7401736
2.73,10.507114,1.0230675,4.6588683,-0.77545047,0.61889416,0.7568414
2.732,10.495491,1.0420766,4.6368623,-0.7995417,0.64278466,0.77343273
2.734,10.483662,1.0653982,4.6097198,-0.82317036,0.6662979,0.78996176
2.736,10.471187,1.093225,4.577385,-0.8463682,0.68945473,0.8064542
2.738,10.457602,1.1255407,4.539638,-0.8691962,0.7122956,0.8229664
2.74,10.442356,1.162488,4.496401,-0.8917276,0.73486257,0.83954453
2.742,10.424793,1.2040424,4.447587,-0.91405416,0.75720024,0.85621554
2.744,10.404284,1.2503777,4.393098,-0.93626094,0.77934706,0.8729387
2.746,10.380188,1.3013887,4.3327613,-0.95842606,0.80132425,0.8896097
2.748,10.351769,1.3568392,4.2667255,-0.98062736,0.8231051,0.90605426
2.75,10.318323,1.4166303,4.194962,-1.0029222,0.8446127,0.92201495
2.752,10.278991,1.4806328,4.1175303,-1.0253505,0.8656939,0.93720376
2.754,10.233071,1.5485861,4.03471,-1.0479454,0.88612527,0.95129716
2.756,10.179529,1.6205149,3.9468305,-1.070728,0.9056093,0.9639761
2.758,10.11791,1.6960073,3.8542938,-1.0937357,0.92379236,0.9750028
2.76,10.047645,1.774751,3.757651,-1.1170309,0.9402732,0.9842198
2.762,9.968048,1.8564594,3.6576371,-1.1407108,0.9546114,0.9915719
2.764,9.878802,1.940733,3.555193,-1.1649088,0.96635616,0.99709105
2.766,9.779457,2.0271912,3.4513035,-1.1897845,0.97499573,1.0009073
2.768,9.669708,2.1154199,3.3469753,-1.2155132,0.97997713,1.003207
2.77,9.54949,2.2050798,3.2433488,-1.2422872,0.98063767,1.004232
2.772,9.418737,2.295632,3.1419094,-1.270319,0.9762336,1.0042505
2.774,9.277441,2.3867383,3.0440845,-1.2997873,0.96590936,1.0035201
2.776,9.125906,2.4777763,2.9515278,-1.3308221,0.94875765,1.0022345
2.778,8.964312,2.5682497,2.8658533,-1.3635013,0.92385256,1.0005116
2.78,8.793067,2.657712,2.788548,-1.39785,0.89032245,0.9983654
2.782,8.612769,2.745538,2.7212396,-1.4337974,0.8474242,0.9956676
2.784,8.423975,2.8310847,2.6651711,-1.4711924,0.79461384,0.992107
2.786,8.227271,2.913831,2.6214595,-1.5097828,0.7316698,0.987166
2.788,8.023419,2.9932265,2.5909002,-1.5492145,0.6587229,0.98013645
2.79,7.8123503,3.0685146,2.5742064,-1.589023,0.5762241,0.97011435
2.792,7.594466,3.139475,2.571559,-1.6286081,0.48497584,0.95611763
2.794,7.37017,3.2057185,2.5829403,-1.6672547,0.3860941,0.93717027
2.796,7.1396523,3.2670813,2.6080456,-1.7041683,0.28093168,0.91243577
2.798,6.902684,3.3236134,2.6460915,-1.7385076,0.17102605,0.88128954
2.8,6.658873,3.3753917,2.6961553,-1.7694216,0.058037102,0.84342027
2.802,6.4079537,3.4228203,2.7567213,-1.7960732,-0.056320727,0.79882276
2.804,6.1492677,3.4664268,2.8261437,-1.8177075,-0.17029017,0.7478176
2.806,5.882368,3.5067754,2.9025645,-1.833678,-0.28212863,0.691
2.808,5.606509,3.5444455,2.9840188,-1.8434665,-0.39017516,0.62919796
2.81,5.3210716,3.5802715,3.0684905,-1.8467076,-0.49284995,0.56340176
2.812,5.025434,3.615177,3.1538978,-1.8431869,-0.58870447,0.49467754
2.814,4.7185974,3.650359,3.2379792,-1.8328536,-0.6764485,0.42410898
2.816,4.3998337,3.6870904,3.3186193,-1.8158034,-0.7549847,0.3527303
2.818,4.0681944,3.7266612,3.3938246,-1.7922645,-0.82345486,0.28147766
2.82,3.7231865,3.770288,3.462185,-1.7625873,-0.88134146,0.21115914
2.822,3.3645046,3.8188806,3.5223212,-1.7272612,-0.92838866,0.14247042
2.824,2.9916747,3.8736432,3.573256,-1.6868784,-0.9646058,0.075917095
2.826,2.6045344,3.9354262,3.6142735,-1.6421297,-0.99033976,0.011819035
2.828,2.203284,4.00516,3.6455698,-1.5938056,-1.0061939,-0.049678892
2.83,1.7884505,4.083596,3.6674523,-1.5427827,-1.0130234,-0.10860205
2.832,1.3604438,4.171355,3.6808558,-1.4899845,-1.0118597,-0.1651324
2.834,0.9204887,4.2688503,3.6868613,-1.4363272,-1.0038519,-0.21954498
2.836,0.4695642,4.3764462,3.6869752,-1.3826956,-0.99017966,-0.27216205
2.838,0.008970737,4.494567,3.6830015,-1.3298959,-0.97200584,-0.32326606
2.84,-0.45974922,4.6233788,3.676834,-1.2786114,-0.9503938,-0.37305942
2.842,-0.93506813,4.7630067,3.6706328,-1.2293565,-0.9261882,-0.42165095
2.844,-1.4152591,4.9134502,3.6665096,-1.182456,-0.8999343,-0.46904486
2.846,-1.8985686,5.074692,3.6661634,-1.1380339,-0.8718095,-0.5152035
2.848,-2.383303,5.24704,3.6710794,-1.0959915,-0.8416371,-0.5600327
2.85,-2.8675704,5.430731,3.6825318,-1.0560509,-0.80884767,-0.60341835
2.852,-3.34945,5.625911,3.7014518,-1.017761,-0.77250427,-0.64522606
2.854,-3.827005,5.8329506,3.7282646,-0.98055565,-0.7313431,-0.68536633
2.856,-4.298539,6.0524015,3.7630465,-0.9438299,-0.68386805,-0.723774
2.858,-4.7621202,6.284848,3.8051414,-0.90696234,-0.6284976,-0.7604388
2.86,-5.216059,6.5309234,3.8538191,-0.86941594,-0.56367886,-0.79538125
2.862,-5.6586347,6.7910085,3.9077296,-0.8308068,-0.48811743,-0.82866013
2.864,-6.0882,7.065584,3.9649982,-0.7909628,-0.40091527,-0.8603162
2.866,-6.503149,7.354747,4.0235558,-0.74992216,-0.30168772,-0.8903789
2.868,-6.902294,7.6586757,4.081072,-0.7079645,-0.19063455,-0.91888905
2.87,-7.284499,7.97736,4.1351433,-0.6655647,-0.06857365,-0.9458955
2.872,-7.648423,8.310457,4.183309,-0.623371,0.063117355,-0.9714842
2.874,-7.993305,8.657581,4.223093,-0.5820995,0.20265287,-0.99583113
2.876,-8.318017,9.017973,4.252146,-0.54246587,0.3478223,-1.0192467
2.878,-8.621786,9.390647,4.268597,-0.5051337,0.49617496,-1.0421269
2.88,-8.903932,9.774351,4.270627,-0.47065583,0.6452207,-1.0649762
2.882,-9.163681,10.168091,4.2568436,-0.43944028,0.792529,-1.0883783
2.884,-9.400747,10.569879,4.2258463,-0.41172236,0.9358691,-1.1129893
2.886,-9.614825,10.978407,4.177106,-0.38759,1.0733182,-1.139504
2.888,-9.805602,11.391956,4.1102905,-0.36703938,1.2033057,-1.1686069
2.89,-9.973123,11.808805,4.0256524,-0.3499863,1.3246614,-1.2009089
2.892,-10.117357,12.22739,3.9238157,-0.33630928,1.4366802,-1.236893
2.894,-10.238553,12.646103,3.8056703,-0.32587802,1.5390794,-1.276861
2.896,-10.336875,13.063408,3.6722822,-0.31855378,1.6319791,-1.3208798
2.898,-10.412779,13.477961,3.5250835,-0.31418794,1.7159036,-1.3687626
2.9,-10.466161,13.88876,3.365422,-0.31261536,1.7916883,-1.420062
2.902,-10.497755,14.294674,3.194999,-0.3136609,1.8604755,-1.4741129
2.904,-10.508275,14.695101,3.0152411,-0.31706938,1.9235997,-1.530102
2.906,-10.498431,15.089365,2.8275597,-0.322564,1.9824753,-1.5871181
2.908,-10.468728,15.47699,2.633456,-0.32980672,2.0384936,-1.6441953
2.91,-10.419815,15.857844,2.4340363,-0.33843166,2.092969,-1.700383
2.912,-10.352737,16.231562,2.2304122,-0.3480467,2.1470344,-1.7547933
2.914,-10.268318,16.598122,2.023572,-0.35825393,2.2016406,-1.8066641
2.916,-10.167809,16.957537,1.8140466,-0.3686188,2.2575235,-1.8553544
2.918,-10.052181,17.309813,1.6023319,-0.3787086,2.3151808,-1.9004071
2.92,-9.922556,17.654774,1.388819,-0.38810354,2.3748636,-1.9414984
2.922,-9.780161,17.992058,1.173846,-0.39639533,2.436585,-1.978421
2.924,-9.626257,18.321352,0.95782137,-0.40320998,2.5001402,-2.0110836
2.926,-9.462212,18.642109,0.7409129,-0.40821302,2.5650797,-2.0395038
2.928,-9.289376,18.953657,0.52310467,-0.411102,2.6307502,-2.0637693
2.93,-9.10927,19.255154,0.30431652,-0.41162443,2.6963286,-2.0840535
2.932,-8.9235,19.545681,0.0847044,-0.40958953,2.7608356,-2.1006198
2.934,-8.733705,19.823921,-0.1355648,-0.40487796,2.8231444,-2.1138182
2.936,-8.541521,20.088787,-0.35622978,-0.3974597,2.881999,-2.124094
2.938,-8.348466,20.33892,-0.5771475,-0.3873853,2.9360304,-2.1319666
2.94,-8.156483,20.573023,-0.7979822,-0.37474453,2.9838388,-2.1380138
2.942,-7.967169,20.79007,-1.0182991,-0.35967582,3.0240173,-2.14285
2.944,-7.7822356,20.988941,-1.2376404,-0.34235823,3.05521,-2.1470873
2.946,-7.6030517,21.168633,-1.4552021,-0.3229605,3.076168,-2.1513011
2.948,-7.4310064,21.328264,-1.6704612,-0.30166316,3.0858045,-2.1560135
2.95,-7.2671027,21.467045,-1.882554,-0.27862114,3.0832624,-2.1616635
2.952,-7.1121793,21.584558,-2.0905967,-0.25396585,3.0679495,-2.1685739
2.954,-6.9669366,21.680435,-2.2935634,-0.22780842,3.0395412,-2.1769595
2.956,-6.831888,21.754797,-2.4903479,-0.20022696,2.99797,-2.1869602
2.958,-6.707133,21.80775,-2.6797996,-0.17129707,2.9434197,-2.198633
2.96,-6.5926213,21.839836,-2.8607044,-0.14108485,2.8762708,-2.2120016
2.962,-6.4878473,21.85186,-3.0321665,-0.109660655,2.7970734,-2.2270622
2.964,-6.392264,21.844782,-3.1930685,-0.07710418,2.7064946,-2.2437978
2.966,-6.3050046,21.819813,-3.3423562,-0.04351747,2.6052806,-2.2622151
2.968,-6.225166,21.778307,-3.4789553,-0.008995563,2.4942057,-2.2823381
2.97,-6.1513844,21.721632,-3.6019602,0.026371568,2.3740885,-2.3042254
2.972,-6.082362,21.65152,-3.7102947,0.06250909,2.2457376,-2.3279395
2.974,-6.0167246,21.569649,-3.8030348,0.09938452,2.110012,-2.3535805
2.976,-5.9530873,21.478031,-3.8794193,0.13704465,1.9678485,-2.381236
2.978,-5.889842,21.378464,-3.9386616,0.1756,1.8202499,-2.410997
2.98,-5.825358,21.27275,-3.9801416,0.21522778,1.6683047,-2.4429471
2.982,-5.758451,21.16276,-4.00345,0.2561643,1.5131799,-2.4771767
2.984,-5.6874523,21.050026,-4.008306,0.29870284,1.3561077,-2.5137157
2.986,-5.6112394,20.936268,-3.9946756,0.34317112,1.1984042,-2.5525358
2.988,-5.528419,20.82285,-3.9628696,0.3899373,1.041427,-2.5935361
2.99,-5.437771,20.71102,-3.9131951,0.43938482,0.88660187,-2.6365488
2.992,-5.338558,20.6016,-3.8463488,0.49187967,0.73537457,-2.6813164
2.994,-5.2295938,20.49594,-3.7629175,0.5477289,0.58911455,-2.7275558
2.996,-5.1103473,20.394386,-3.6639009,0.60718924,0.44915572,-2.7749515
2.998,-4.9801536,20.297295,-3.5502744,0.67041767,0.31671554,-2.823162
3,-4.8384495,20.204834,-3.4232993,0.73744947,0.19283503,-2.871864
3.002,-4.685426,20.116957,-3.284297,0.8081821,0.07833159,-2.9207454
3.004,-4.5207233,20.03347,-3.134437,0.88235253,-0.026253045,-2.969548
3.006,-4.3444853,19.953955,-2.974853,0.95954746,-0.12069589,-3.0180757
3.008,-4.156821,19.877922,-2.8069777,1.0392097,-0.20510042,-3.0662117
3.01,-3.9579303,19.80456,-2.6321702,1.1206752,-0.27988076,-3.1138985
3.012,-3.7483354,19.733147,-2.4518647,1.2032145,-0.34574533,-3.1611648
3.014,-3.5285256,19.662676,-2.267253,1.286042,-0.40362358,-3.2080865
3.016,-3.299067,19.592281,-2.0794897,1.3683876,-0.45460474,-3.2548127
3.018,-3.0608153,19.520964,-1.8897681,1.449552,-0.49983668,-3.3015091
3.02,-2.8145885,19.447758,-1.6989594,1.5289208,-0.54040235,-3.3483248
3.022,-2.5611782,19.371937,-1.5078707,1.6059841,-0.57725847,-3.3953664
3.024,-2.3015733,19.292639,-1.3173237,1.6803486,-0.6111728,-3.442675
3.026,-2.0367498,19.20915,-1.127914,1.7517715,-0.6426496,-3.4901779
3.028,-1.7677803,19.12109,-0.94028807,1.8201131,-0.6719734,-3.5376663
3.03,-1.4955344,19.028059,-0.75507593,1.8853234,-0.69922215,-3.5848184
3.032,-1.221007,18.929863,-0.5730119,1.9474447,-0.7243095,-3.6311827
3.034,-0.94503057,18.82647,-0.3946519,2.006581,-0.74705625,-3.6762185
3.036,-0.6686419,18.718014,-0.22079039,2.062846,-0.7672433,-3.7193193
3.038,-0.39263284,18.604797,-0.05192995,2.1163807,-0.78467876,-3.7598639
3.04,-0.1178056,18.487474,0.11122608,2.1673172,-0.79926467,-3.797251
3.042,0.1548791,18.366646,0.26805544,2.2157571,-0.8110138,-3.8309417
3.044,0.4249925,18.24316,0.4179082,2.2617779,-0.82007396,-3.8604784
3.046,0.69190246,18.11772,0.56011295,2.3054428,-0.82669824,-3.8855276
3.048,0.95488906,17.991241,0.6939826,2.3467867,-0.83121616,-3.9058557
3.05,1.2137859,17.864637,0.8192158,2.3858166,-0.8340852,-3.9213753
3.052,1.4682624,17.73869,0.9352393,2.422504,-0.8358172,-3.932116
3.054,1.7179968,17.614374,1.0418224,2.456773,-0.8370117,-3.938189
3.056,1.9626797,17.492414,1.1386476,2.488536,-0.83831483,-3.9398272
3.058,2.2023585,17.373564,1.2258947,2.5176554,-0.84040767,-3.9372962
3.06,2.4370344,17.25856,1.3037605,2.5439901,-0.8440141,-3.9309485
3.062,2.6668158,17.148075,1.3724589,2.5673773,-0.8498708,-3.9211643
3.064,2.8919194,17.0427,1.4325259,2.5876424,-0.8587317,-3.9083743
3.066,3.1125903,16.942741,1.4845679,2.6046197,-0.8713275,-3.8930306
3.068,3.32927,16.848585,1.5294166,2.6181846,-0.8883174,-3.8756142
3.07,3.5422869,16.760273,1.56811,2.6282213,-0.910296,-3.8566222
3.072,3.752047,16.677814,1.6018751,2.6346426,-0.9377463,-3.8365703
3.074,3.9592683,16.601046,1.6318736,2.637405,-0.97098887,-3.8159678
3.076,4.164571,16.529713,1.6593034,2.6365006,-1.0101788,-3.7953086
3.078,4.368807,16.463537,1.6854203,2.631964,-1.0552924,-3.775059
3.08,4.57251,16.402172,1.7113619,2.6238582,-1.1061196,-3.755665
3.082,4.776329,16.345201,1.7384307,2.6122766,-1.1622682,-3.7375276
3.084,4.9809065,16.292019,1.767678,2.597354,-1.2231965,-3.7210202
3.086,5.186946,16.242046,1.800339,2.5792608,-1.2882054,-3.7064798
3.088,5.3948636,16.194654,1.8374507,2.5582044,-1.3564923,-3.6942239
3.09,5.6049547,16.149084,1.8800094,2.5344326,-1.427213,-3.6845667
3.092,5.8175025,16.104622,1.9288993,2.5082111,-1.4994698,-3.6777897
3.094,6.03273,16.060453,1.9849672,2.4798217,-1.5723644,-3.6741796
3.096,6.25064,16.015675,2.0489655,2.449567,-1.6450276,-3.6740043
3.098,6.471181,15.969481,2.1213787,2.4177139,-1.7166868,-3.6774538
3.1,6.694068,15.920942,2.202491,2.384544,-1.7866685,-3.68469
3.102,6.9188957,15.869268,2.2924592,2.3503227,-1.8543985,-3.695807
3.104,7.1452703,15.813586,2.3913581,2.315283,-1.9194031,-3.7108245
3.106,7.3727207,15.753213,2.4987805,2.2796433,-1.9813492,-3.729693
3.108,7.6005106,15.687658,2.6145043,2.2436266,-2.039992,-3.752314
3.11,7.828143,15.6163435,2.7380178,2.207418,-2.0951762,-3.7785149
3.112,8.0550585,15.538948,2.868648,2.1712227,-2.1468205,-3.8081186
3.114,8.280362,15.455156,3.0056703,2.1352115,-2.1948655,-3.8409057
3.116,8.503355,15.364874,3.1480978,2.0995746,-2.239285,-3.8766623
3.118,8.72327,15.268024,3.2950459,2.06449,-2.2800393,-3.9151614
3.12,8.939444,15.164602,3.4455454,2.0301373,-2.3170843,-3.956204
3.122,9.151386,15.054716,3.598469,1.996667,-2.3503513,-3.9995565
3.124,9.358258,14.93863,3.7526703,1.9642375,-2.3797214,-4.044961
3.126,9.559393,14.816773,3.9070392,1.9329827,-2.4050665,-4.0921364
3.128,9.754274,14.689611,4.060445,1.9030277,-2.42623,-4.1407695
3.13,9.942354,14.557552,4.2116256,1.8744937,-2.443057,-4.190539
3.132,10.12301,14.421255,4.3594213,1.8474805,-2.4553947,-4.2410846
3.134,10.295801,14.28126,4.502714,1.8221023,-2.4631329,-4.2920527
3.136,10.460265,14.138256,4.640414,1.7984781,-2.4661856,-4.343121
3.138,10.616091,13.992745,4.771447,1.7766914,-2.46451,-4.393982
3.14,10.7628,13.845357,4.8949094,1.7568185,-2.4581316,-4.4443736
3.142,10.900077,13.696802,5.009932,1.7388995,-2.447112,-4.4940763
3.144,11.0278,13.547647,5.1157074,1.7229453,-2.431588,-4.5429106
3.146,11.1457,13.398573,5.211482,1.7089086,-2.4117723,-4.5907583
3.148,11.253696,13.250193,5.296476,1.6966834,-2.3879378,-4.6374607
3.15,11.351536,13.102881,5.370187,1.6861076,-2.3604248,-4.6828823
3.152,11.439305,12.957243,5.4320664,1.6769416,-2.3296313,-4.726892
3.154,11.5167055,12.813656,5.481859,1.6688629,-2.296052,-4.769303
3.156,11.583887,12.672602,5.51929,1.6614976,-2.2602634,-4.8099117
3.158,11.64091,12.534395,5.544295,1.6544297,-2.2229106,-4.848508
3.16,11.687648,12.399428,5.556847,1.6471894,-2.1847124,-4.8848805
3.162,11.724357,12.267766,5.55736,1.6392673,-2.146449,-4.9188414
3.164,11.751112,12.139424,5.5460434,1.630174,-2.1089435,-4.950244
3.166,11.768401,12.014429,5.523454,1.6194161,-2.0730162,-4.979009
3.168,11.776274,11.892633,5.490111,1.6065613,-2.0394845,-5.0051217
3.17,11.774795,11.773809,5.4466867,1.5912366,-2.009088,-5.028641
3.172,11.764316,11.657536,5.3939767,1.5731449,-1.9824629,-5.0496926
3.174,11.745005,11.543423,5.332859,1.5520842,-1.9601125,-5.0684342
3.176,11.717054,11.431004,5.2644453,1.5279375,-1.9423835,-5.0851026
3.178,11.680501,11.3196745,5.1897554,1.5006528,-1.9294597,-5.099946
3.18,11.635619,11.208843,5.109859,1.470243,-1.9213567,-5.1132135
3.182,11.5824795,11.09787,5.0258455,1.4367398,-1.917948,-5.125107
3.184,11.521089,10.985919,4.9388795,1.4002167,-1.9189584,-5.1357846
3.186,11.451278,10.872164,4.8501577,1.360739,-1.9240029,-5.1453476
3.188,11.372921,10.755694,4.7608657,1.3183719,-1.9326545,-5.15385
3.19,11.285911,10.635632,4.6722407,1.2732008,-1.9444771,-5.161279
3.192,11.1902275,10.510923,4.5852976,1.2253116,-1.9590609,-5.167568
3.194,11.085409,10.380798,4.5013285,1.174801,-1.9760586,-5.1726236
3.196,10.971011,10.244187,4.4212146,1.1217887,-1.9952145,-5.176354
3.198,10.846643,10.100395,4.345982,1.0664123,-2.016344,-5.178643
3.2,10.712145,9.948583,4.276603,1.0088431,-2.0393515,-5.179388
3.202,10.567125,9.788043,4.21393,0.94929564,-2.0642095,-5.1785192
3.204,10.411037,9.618232,4.158697,0.8879987,-2.0909474,-5.1759686
3.206,10.243598,9.438587,4.1116123,0.8252145,-2.1195607,-5.1716537
3.208,10.064459,9.248676,4.0734215,0.76122177,-2.1500068,-5.165481
3.21,9.873366,9.048115,4.044647,0.6963054,-2.182139,-5.1573462
3.212,9.670175,8.836704,4.025573,0.63074875,-2.2156959,-5.147125
3.214,9.454671,8.61425,4.016525,0.5648588,-2.2502618,-5.1346574
3.216,9.226824,8.380756,4.0176415,0.49893475,-2.285283,-5.119759
3.218,8.986688,8.136218,4.0288987,0.43327296,-2.3200696,-5.1022334
3.22,8.734322,7.8809834,4.050093,0.36816466,-2.3538165,-5.081862
3.222,8.470111,7.615323,4.0812507,0.3038944,-2.3856213,-5.05845
3.224,8.194533,7.339794,4.121882,0.2407589,-2.4145446,-5.0318246
3.226,7.908201,7.0548806,4.171767,0.17905211,-2.4396522,-5.0018477
3.228,7.6117196,6.761132,4.230333,0.119087815,-2.4600239,-4.9684367
3.23,7.305901,6.459405,4.297146,0.061172724,-2.4747915,-4.931541
3.232,6.9917264,6.150316,4.371728,0.005617738,-2.4831862,-4.8911667
3.234,6.670162,5.834656,4.453421,-0.047283888,-2.4845383,-4.8473887
3.236,6.3423743,5.5131164,4.541487,-0.0972718,-2.4783442,-4.800363
3.238,6.0093894,5.1864934,4.6352973,-0.14413786,-2.464273,-4.7502985
3.24,5.6724534,4.8556395,4.734145,-0.18773389,-2.4421637,-4.6974306
3.242,5.3330173,4.521157,4.83725,-0.22800636,-2.4120235,-4.642032
3.244,4.992347,4.1837645,4.9439144,-0.26497066,-2.3740122,-4.5844436
3.246,4.651584,3.8442023,5.0533867,-0.29868722,-2.328416,-4.525042
3.248,4.312134,3.5029404,5.165085,-0.3292681,-2.2755964,-4.464255
3.25,3.9752274,3.1604326,5.2783237,-0.35684502,-2.215957,-4.4025307
3.252,3.6420178,2.816938,5.3926244,-0.38157594,-2.1499367,-4.3403788
3.254,3.3135345,2.472916,5.50734,-0.40361023,-2.0779352,-4.2783327
3.256,2.991027,2.1286373,5.6218853,-0.4230882,-2.000356,-4.2168913
3.258,2.6754506,1.784405,5.7356997,-0.44010758,-1.9175706,-4.1565247
3.26,2.3676484,1.4405401,5.84802,-0.45476747,-1.8299865,-4.097627
3.262,2.06819,1.0973914,5.9582205,-0.46717465,-1.7379911,-4.040478
3.264,1.7778145,0.7555049,6.0654373,-0.47744262,-1.641978,-3.9852448
3.266,1.4968469,0.41536295,6.1690145,-0.48568833,-1.542331,-3.9319751
3.268,1.2256732,0.07765648,6.2680655,-0.49205738,-1.4394025,-3.880586
3.27,0.96448934,-0.25704023,6.361703,-0.49671328,-1.3335695,-3.830855
3.272,0.71319544,-0.58771074,6.4490004,-0.49985743,-1.2252402,-3.7824688
3.274,0.4717098,-0.9133556,6.529163,-0.5017316,-1.1148922,-3.7350404
3.276,0.23967801,-1.2328538,6.6011305,-0.50262284,-1.0030553,-3.6881173
3.278,0.016709998,-1.5449603,6.6639986,-0.5028776,-0.8903633,-3.6412005
3.28,-0.19746453,-1.8482157,6.716601,-0.5028778,-0.77757394,-3.5937886
3.282,-0.403513,-2.141138,6.7580075,-0.50306433,-0.6655679,-3.545359
3.284,-0.601995,-2.4220817,6.787172,-0.5038924,-0.55531216,-3.4954324
3.286,-0.7935711,-2.689334,6.8032527,-0.50584507,-0.44782513,-3.443585
3.288,-0.9786726,-2.9411557,6.8055463,-0.50940037,-0.344128,-3.3894582
3.29,-1.1581414,-3.175573,6.7932677,-0.5150087,-0.24518411,-3.3327816
3.292,-1.3323464,-3.39063,6.7659774,-0.52306217,-0.15183036,-3.2733665
3.294,-1.5018041,-3.5843081,6.723325,-0.5338807,-0.064755216,-3.2111359
3.296,-1.6666837,-3.754444,6.6650996,-0.54772353,0.015578143,-3.1460845
3.298,-1.8272922,-3.8991923,6.591311,-0.5647893,0.08889048,-3.0782518
3.3,-1.9837425,-4.0167713,6.501963,-0.5852492,0.15508595,-3.0077085
3.302,-2.1359591,-4.1052713,6.3975816,-0.6092203,0.2142258,-2.9345071
3.304,-2.2835956,-4.1633296,6.278614,-0.6368249,0.2665094,-2.858667
3.306,-2.425997,-4.1894145,6.145876,-0.6681419,0.31225705,-2.7801428
3.308,-2.5627134,-4.1824303,6.000354,-0.70326006,0.35185286,-2.698874
3.31,-2.6932178,-4.1412516,5.8431997,-0.7422669,0.38577205,-2.614798
3.312,-2.8165317,-4.065271,5.6757603,-0.78524053,0.41453418,-2.5278797
3.314,-2.9317386,-3.9540796,5.499653,-0.8322114,0.4386956,-2.438137
3.316,-3.03791,-3.8075027,5.31635,-0.8831459,0.4588171,-2.3456836
3.318,-3.1339407,-3.6257522,5.127438,-0.93795824,0.47548044,-2.2507424
3.32,-3.2186794,-3.4092498,4.9346757,-0.9964869,0.48923773,-2.1536837
3.322,-3.2909088,-3.1587553,4.7397413,-1.0584764,0.50060695,-2.0550058
3.324,-3.3495543,-2.8753505,4.544519,-1.1235796,0.5100944,-1.9553456
3.326,-3.3935795,-2.5604403,4.3508186,-1.1913514,0.5181471,-1.8553884
3.328,-3.421982,-2.2156215,4.160326,-1.2612879,0.5251269,-1.7558504
3.33,-3.4339454,-1.842817,3.9747396,-1.3328518,0.53126717,-1.6574175
3.332,-3.4288065,-1.4441351,3.7953038,-1.4054477,0.5367319,-1.5606967
3.334,-3.4059377,-1.0218425,3.6234703,-1.4784694,0.54162383,-1.4661685
3.336,-3.3650575,-0.57822967,3.4603648,-1.5512884,0.54596764,-1.3741925
3.338,-3.3059723,-0.11556327,3.3070269,-1.62331,0.5497301,-1.2849737
3.34,-3.2286642,0.3635006,3.1643133,-1.693935,0.5528712,-1.1986003
3.342,-3.1337903,0.8566459,3.0328164,-1.7626086,0.55536383,-1.1150503
3.344,-3.0214643,1.3613411,2.9131932,-1.8288045,0.55720305,-1.0342587
3.346,-2.8924398,1.8752232,2.8057342,-1.8920574,0.5584172,-0.9561467
3.348,-2.7475,2.3959877,2.710421,-1.9519476,0.5590618,-0.8806367
3.35,-2.587763,2.9214544,2.6272693,-2.0080874,0.55923116,-0.8076612
3.352,-2.414429,3.4496543,2.556085,-2.060111,0.5590762,-0.7372062
3.354,-2.2291374,3.9788885,2.496103,-2.1076612,0.55879414,-0.6693088
3.356,-2.0333166,4.5073433,2.446662,-2.150404,0.55863714,-0.6040424
3.358,-1.8287879,5.033456,2.4068055,-2.187988,0.5589073,-0.5415237
3.36,-1.6172724,5.555865,2.3754897,-2.2200909,0.5599433,-0.48187718
3.362,-1.4005587,6.0733557,2.3515058,-2.2463818,0.56212467,-0.42521673
3.364,-1.1804471,6.5848513,2.3335485,-2.2665298,0.5658652,-0.37164488
3.366,-0.9588673,7.089427,2.3203154,-2.280216,0.5716213,-0.3212311
3.368,-0.7375629,7.5863724,2.3101802,-2.2871404,0.5798907,-0.27400166
3.37,-0.5181241,8.074997,2.3014395,-2.287056,0.59115726,-0.22992057
3.372,-0.3020413,8.554752,2.2920578,-2.2797554,0.6058233,-0.18888208
3.374,-0.091101885,9.025081,2.2802343,-2.2651389,0.6242224,-0.15069366
3.376,0.11344576,9.485363,2.2639875,-2.2431986,0.64654124,-0.115088195
3.378,0.31040144,9.935075,2.2415652,-2.2140431,0.67279077,-0.08171055
3.38,0.4988227,10.373852,2.211248,-2.177894,0.7028205,-0.050151736
3.382,0.67802143,10.800938,2.1714506,-2.1350605,0.73629373,-0.019973963
3.384,0.8472667,11.215835,2.1207595,-2.0859523,0.7726549,0.009206772
3.386,1.0061517,11.617805,2.0581002,-2.0311003,0.8111007,0.037700474
3.388,1.154468,12.006062,1.9826118,-1.9711161,0.85063064,0.0657039
3.39,1.2921739,12.379612,1.8938994,-1.9066652,0.8901118,0.09328979
3.392,1.4193034,12.737461,1.7917889,-1.8384547,0.9283299,0.120372534
3.394,1.5360923,13.078507,1.6765652,-1.7672219,0.9640323,0.14666227
3.396,1.6427369,13.40166,1.54871,-1.6936947,0.9960061,0.17166302
3.398,1.7395115,13.705757,1.4092133,-1.618558,1.0231473,0.19470507
3.4,1.8270593,13.989542,1.2594186,-1.542413,1.0444956,0.21493322
3.402,1.9057217,14.251841,1.1010981,-1.4657611,1.0592805,0.2313745
3.404,1.9762216,14.491621,0.93636835,-1.3890045,1.0668936,0.24301717
3.406,2.0390773,14.707718,0.76765966,-1.312433,1.0668947,0.24890044
3.408,2.0949626,14.899449,0.59758914,-1.2362365,1.0590098,0.24817571
3.41,2.1443973,15.066263,0.4290769,-1.1605247,1.0431159,0.24017453
3.412,2.1879663,15.20771,0.2648046,-1.0853668,1.019235,0.22446841
3.414,2.2262855,15.323853,0.10778165,-1.0107716,0.9875446,0.20084152
3.416,2.2598681,15.414614,-0.039186716,-0.93674177,0.9483402,0.16930676
3.418,2.2894907,15.480334,-0.17348015,-0.8632936,0.90203303,0.13008419
3.42,2.3159146,15.521384,-0.29283643,-0.7904157,0.8491272,0.08355963
3.422,2.3397677,15.538665,-0.3952248,-0.71806216,0.79024756,0.030222446
3.424,2.361643,15.53324,-0.47897696,-0.6461147,0.7261747,-0.029381767
3.426,2.3821824,15.506338,-0.5427498,-0.57436883,0.65783846,-0.094681844
3.428,2.4018173,15.459646,-0.58559996,-0.5024892,0.5862888,-0.16511339
3.43,2.421105,15.394764,-0.6071612,-0.4300286,0.5127091,-0.240127
3.432,2.4403534,15.313505,-0.6075071,-0.3564455,0.4383795,-0.31919175
3.434,2.4597976,15.217903,-0.58761626,-0.2811126,0.36462957,-0.40175077
3.436,2.4797173,15.109895,-0.5486886,-0.20338157,0.29282,-0.48722216
3.438,2.5002892,14.99163,-0.49216044,-0.12263187,0.22431047,-0.5749399
3.44,2.5215468,14.865256,-0.419995,-0.038295195,0.16039595,-0.6641797
3.442,2.5435045,14.732966,-0.33441144,0.050074875,0.10222039,-0.75415844
3.444,2.5658305,14.597025,-0.23790371,0.14277732,0.05071745,-0.8440607
3.446,2.588471,14.459544,-0.13324308,0.23995277,0.006592855,-0.93302894
3.448,2.6109715,14.3225355,-0.023153186,0.34155732,-0.029692903,-1.020174
