Time_s_,Acc_x_m_s_2_,Acc_y_m_s_2_,Acc_z_m_s_2_,Gyro_x_1_s_,Gyro_y_1_s_,Gyro_z_1_s_
0,-0.22298786,-0.020667337,-0.4289416,-0.24329852,-0.18467629,0.4764991
0.002,-0.2525896,0.006864121,-0.44409525,-0.24447525,-0.19564255,0.48055923
0.004,-0.28419614,0.03574699,-0.45988357,-0.24595432,-0.20816107,0.48522416
0.006,-0.3178921,0.06620597,-0.47593924,-0.247778,-0.22241305,0.4906476
0.008,-0.35365385,0.098212086,-0.49215266,-0.24997607,-0.2385831,0.49700874
0.01,-0.39155734,0.1318094,-0.5085026,-0.2525702,-0.2568444,0.5045246
0.012,-0.43169376,0.16720276,-0.52482796,-0.25558305,-0.27734414,0.51342344
0.014,-0.47365025,0.20416787,-0.54093933,-0.25900817,-0.30016887,0.5239167
0.016,-0.517256,0.2424025,-0.5567061,-0.26279235,-0.32535678,0.5361826
0.018,-0.5624768,0.28163823,-0.5718205,-0.2668544,-0.35284692,0.5503467
0.02,-0.60999095,0.32206312,-0.58571476,-0.2710905,-0.3824616,0.56641823
0.022,-0.6606257,0.36428842,-0.59637356,-0.27541244,-0.41391262,0.5842544
0.024,-0.7114148,0.4071517,-0.6058998,-0.27977479,-0.44684437,0.6035667
0.026,-0.7622294,0.4509541,-0.61502916,-0.28418696,-0.4808623,0.62395895
0.028,-0.813094,0.4952351,-0.62127554,-0.28879085,-0.51620746,0.6453216
0.03,-0.8634242,0.5394646,-0.6246219,-0.2936052,-0.55153525,0.6667405
0.032,-0.9130874,0.58376986,-0.6254446,-0.29879725,-0.5865356,0.687855
0.034,-0.96215683,0.6277555,-0.6236006,-0.30456257,-0.62092626,0.70840734
0.036,-1.0100976,0.67062414,-0.61897326,-0.3110674,-0.65447724,0.72824967
0.038,-1.0566705,0.7120693,-0.611591,-0.31841454,-0.686983,0.74735856
0.04,-1.1017123,0.7522443,-0.6014101,-0.3266452,-0.7182947,0.7658272
0.042,-1.1453905,0.7916285,-0.58839864,-0.33569705,-0.74825835,0.783779
0.044,-1.1877629,0.830703,-0.5725978,-0.34541714,-0.77675563,0.80136865
0.046,-1.228832,0.8700368,-0.5539771,-0.35559967,-0.80366975,0.818772
0.048,-1.2686297,0.9101197,-0.53282297,-0.36598954,-0.8288766,0.83614767
0.05,-1.3072376,0.9513002,-0.5097096,-0.3762981,-0.8523262,0.8536738
0.052,-1.3446736,0.9937513,-0.48512506,-0.38619667,-0.87384593,0.87153643
0.054,-1.3809221,1.0378338,-0.45988145,-0.39526826,-0.8929148,0.8900707
0.056,-1.4170947,1.0848898,-0.43485767,-0.40306422,-0.90918195,0.9095566
0.058,-1.4515848,1.133457,-0.41073927,-0.40911156,-0.92241305,0.9302335
0.06,-1.4843848,1.1835773,-0.3885461,-0.41290337,-0.9321372,0.9524789
0.062,-1.5151721,1.2351701,-0.3693411,-0.4139184,-0.9377464,0.97659564
0.064,-1.5435896,1.2879233,-0.35421315,-0.41159356,-0.9385475,1.0027878
0.066,-1.5691713,1.3414294,-0.34411818,-0.40529975,-0.93380356,1.0312911
0.068,-1.5914385,1.3952799,-0.34012526,-0.39437017,-0.9227634,1.0624455
0.07,-1.6096902,1.4487231,-0.34342772,-0.3781002,-0.90468466,1.0966508
0.072,-1.6231971,1.501201,-0.35512543,-0.3557984,-0.8789352,1.1342853
0.074,-1.6313944,1.5520093,-0.37600225,-0.3269199,-0.84508985,1.1757286
0.076,-1.6335852,1.6007736,-0.40683064,-0.29115903,-0.80302167,1.2212734
0.078,-1.629288,1.6469215,-0.4486127,-0.24858743,-0.75297385,1.2710596
0.08,-1.617802,1.6899614,-0.50134313,-0.19979388,-0.6957045,1.3249714
0.082,-1.5993843,1.7301822,-0.5642389,-0.14593199,-0.63258445,1.3826482
0.084,-1.5735021,1.767315,-0.6373715,-0.08871597,-0.5655879,1.4434369
0.086,-1.5401495,1.8014741,-0.71993965,-0.03034094,-0.4972816,1.5064493
0.088,-1.4995644,1.8328496,-0.8104147,0.026698023,-0.4307624,1.5705886
0.09,-1.4521585,1.861625,-0.90682364,0.07980806,-0.3695011,1.6346548
0.092,-1.3986268,1.8881389,-1.0068457,0.12652755,-0.3171839,1.6974212
0.094,-1.3402042,1.9129196,-1.1082555,0.1647534,-0.27747867,1.7577152
0.096,-1.2777328,1.9365605,-1.2085676,0.19293714,-0.25381982,1.8145291
0.098,-1.2127169,1.9597018,-1.3052969,0.21017984,-0.2491144,1.8669884
0.1,-1.1462998,1.9828137,-1.3959225,0.21626365,-0.26556778,1.91437
0.102,-1.0798584,2.0062547,-1.4778409,0.21161222,-0.3045102,1.9561889
0.104,-1.015039,2.0306664,-1.5484524,0.19720545,-0.3662368,1.9921839
0.106,-0.9537122,2.0566635,-1.6055248,0.17439798,-0.4500893,2.0223014
0.108,-0.89795196,2.0850554,-1.646832,0.14476109,-0.5545106,2.0466306
0.11,-0.8492569,2.1157875,-1.6711649,0.11001825,-0.67673165,2.0656085
0.112,-0.8089368,2.1490076,-1.676916,0.071977496,-0.81312287,2.079928
0.114,-0.7778403,2.184873,-1.6626946,0.032363772,-0.9596755,2.0903559
0.116,-0.7570622,2.2236567,-1.6281631,-0.0072598457,-1.1121005,2.0979128
0.118,-0.748282,2.2657003,-1.5735064,-0.045541644,-1.266029,2.1037374
0.12,-0.7512665,2.3104963,-1.4989214,-0.08140993,-1.4172968,2.108901
0.122,-0.76686656,2.358396,-1.4054377,-0.11411971,-1.5622535,2.1143198
0.124,-0.7959049,2.4095802,-1.2941895,-0.1433016,-1.697978,2.1207244
0.126,-0.83833325,2.4640784,-1.1668732,-0.1689328,-1.8224213,2.1286392
0.128,-0.89371806,2.5217981,-1.0254472,-0.19125986,-1.934434,2.138265
0.13,-0.9609581,2.5820718,-0.87194145,-0.21074593,-2.0337548,2.1494389
0.132,-1.038604,2.6440048,-0.7092128,-0.22799933,-2.1209326,2.161662
0.134,-1.1278605,2.7081006,-0.53659195,-0.24370646,-2.197143,2.1741438
0.136,-1.226526,2.7733793,-0.35522926,-0.25856125,-2.2640302,2.1857681
0.138,-1.3322058,2.8393743,-0.16846654,-0.27320313,-2.323535,2.1952448
0.14,-1.442945,2.9052956,0.023110002,-0.28818178,-2.3776765,2.2012494
0.142,-1.5564201,2.9694898,0.21911171,-0.30393815,-2.4284558,2.2025392
0.144,-1.6697378,3.0307126,0.41871166,-0.3207494,-2.4776387,2.1979918
0.146,-1.7809318,3.0878184,0.621408,-0.33873868,-2.5267837,2.1865845
0.148,-1.8873792,3.1387725,0.8269564,-0.35790527,-2.5771506,2.1674511
0.15,-1.9864745,3.1812444,1.034945,-0.3781289,-2.629595,2.1399784
0.152,-2.075615,3.212732,1.2452664,-0.39911246,-2.684557,2.1037498
0.154,-2.1521637,3.2308614,1.4578999,-0.42039406,-2.7419298,2.0585306
0.156,-2.2143118,3.2334678,1.672945,-0.4413284,-2.8009562,2.0043473
0.158,-2.2597327,3.2184825,1.8906572,-0.46103084,-2.860273,1.9415231
0.16,-2.2866008,3.1842349,2.1112354,-0.47833967,-2.9178958,1.8707793
0.162,-2.2933834,3.1293063,2.334305,-0.49187672,-2.971273,1.7932161
0.164,-2.279179,3.052379,2.559194,-0.5000992,-3.0173676,1.7102427
0.166,-2.243316,2.9524765,2.784851,-0.50143695,-3.0529735,1.6235338
0.168,-2.1854727,2.8290033,3.0099697,-0.49439812,-3.0749266,1.5348773
0.17,-2.1056476,2.6817842,3.2326632,-0.47768044,-3.0802956,1.4460673
0.172,-2.0046039,2.5112605,3.450646,-0.4503988,-3.066681,1.3587629
0.174,-1.883424,2.318552,3.6616697,-0.41215968,-3.032423,1.2743553
0.176,-1.7432128,2.104825,3.8635519,-0.36311913,-2.976746,1.1939281
0.178,-1.5849643,1.8710037,4.054595,-0.3039353,-2.8997817,1.1182206
0.18,-1.4091737,1.6178325,4.23429,-0.23577034,-2.8025668,1.0475895
0.182,-1.2187953,1.3474591,4.402371,-0.16020334,-2.686964,0.9820561
0.184,-1.0168939,1.0628797,4.5554433,-0.07914138,-2.5555,0.92135274
0.186,-0.80648696,0.76641345,4.689184,0.0053310394,-2.4112597,0.864943
0.188,-0.5864543,0.45858848,4.8045,0.09107244,-2.257758,0.81212765
0.19,-0.35824645,0.1405505,4.898635,0.17593575,-2.0988345,0.7621529
0.192,-0.1252619,-0.18482816,4.96702,0.25783408,-1.9385419,0.71417534
0.194,0.1086154,-0.5134405,5.00957,0.33478445,-1.7810388,0.6672449
0.196,0.34144604,-0.84164,5.026933,0.4049039,-1.6304578,0.6203822
0.198,0.5708498,-1.1659323,5.0188355,0.46641052,-1.490831,0.57269925
0.2,0.79340065,-1.4832155,4.9862375,0.51770693,-1.3658189,0.52353776
0.202,1.006254,-1.7910715,4.932189,0.5574888,-1.2586164,0.47246534
0.204,1.2077203,-2.087214,4.860429,0.58487236,-1.1718082,0.4192403
0.206,1.3955799,-2.3691392,4.7736692,0.59945047,-1.1071484,0.36390987
0.208,1.5680549,-2.6344385,4.674107,0.60140043,-1.0654702,0.30686337
0.21,1.7224346,-2.880033,4.5620556,0.59155047,-1.0466056,0.24885999
0.212,1.8547037,-3.1015067,4.437684,0.5713573,-1.0492032,0.1910289
0.214,1.9625843,-3.2958832,4.300136,0.5429242,-1.0706462,0.13469729
0.216,2.0466943,-3.4616027,4.1480074,0.5087985,-1.1072999,0.081357166
0.218,2.1074042,-3.5965555,3.9800618,0.47176525,-1.1548369,0.032699987
0.22,2.1437054,-3.6973906,3.7954974,0.4349331,-1.2079866,-0.009212673
0.222,2.1540403,-3.7611632,3.59302,0.40161702,-1.2608508,-0.042116508
0.224,2.1382732,-3.7860498,3.3726654,0.37510362,-1.3072051,-0.06380382
0.226,2.098343,-3.771657,3.1350052,0.3584618,-1.3406372,-0.07224053
0.228,2.0380244,-3.7178712,2.880643,0.35427994,-1.3549166,-0.065665126
0.23,1.9594105,-3.6239147,2.6105206,0.3645121,-1.3445263,-0.04265423
0.232,1.8651223,-3.4895132,2.3267417,0.3903751,-1.3050412,-0.002035305
0.234,1.7560722,-3.3130202,2.0314646,0.43227997,-1.2334957,0.05712065
0.236,1.6309065,-3.092723,1.7247528,0.48971295,-1.1289139,0.13522184
0.238,1.491895,-2.8300006,1.406532,0.56129324,-0.99240696,0.23198661
0.24,1.3456995,-2.529544,1.0779233,0.6448999,-0.82705295,0.3462651
0.242,1.195874,-2.1952226,0.74184155,0.73776996,-0.63776094,0.47576794
0.244,1.0437667,-1.8297656,0.40096968,0.83668333,-0.43072304,0.6170829
0.246,0.8915287,-1.4371428,0.053057,0.9382307,-0.21283895,0.76588404
0.248,0.73992413,-1.0224655,-0.3045695,1.039217,0.008997485,0.9170611
0.25,0.5892595,-0.5925218,-0.6689307,1.1369214,0.22850421,1.0648534
0.252,0.43983322,-0.15490422,-1.033491,1.229215,0.44039539,1.2031821
0.254,0.2913633,0.2826416,-1.3928344,1.3146355,0.640603,1.3261797
0.256,0.14587468,0.7121216,-1.7441676,1.392371,0.82622397,1.4286995
0.258,0.0056717396,1.1260382,-2.0864081,1.4621284,0.99505764,1.5066417
0.26,-0.12712777,1.5170399,-2.4181478,1.5239198,1.1451595,1.5571741
0.262,-0.24985695,1.8781314,-2.7371187,1.577838,1.2744863,1.5787821
0.264,-0.36059415,2.2036474,-3.0408278,1.6238999,1.3807731,1.5711343
0.266,-0.45696676,2.4894974,-3.3269994,1.6619174,1.4613643,1.5350944
0.268,-0.53671646,2.7332249,-3.5934143,1.6915145,1.5134028,1.472831
0.27,-0.59744334,2.9336104,-3.838306,1.7124496,1.5345323,1.3878412
0.272,-0.6375911,3.0908408,-4.060274,1.7246542,1.5234365,1.2846622
0.274,-0.65695286,3.2065072,-4.258791,1.7280922,1.4802487,1.1683266
0.276,-0.6561129,3.2833695,-4.4339666,1.7230492,1.4073484,1.04434
0.278,-0.6372464,3.3258734,-4.586465,1.7104461,1.3092045,0.9185492
0.28,-0.60258484,3.3391855,-4.7163095,1.6919944,1.1921182,0.7968364
0.282,-0.55450416,3.329279,-4.823374,1.6699862,1.0640068,0.6848122
0.284,-0.4957075,3.301999,-4.907387,1.6468273,0.93364716,0.5873543
0.286,-0.42960024,3.263495,-4.968108,1.624752,0.8094789,0.50808185
0.288,-0.3596518,3.2197995,-5.0053916,1.6056993,0.6985295,0.44894552
0.29,-0.2897997,3.1767013,-5.019823,1.5911189,0.60561836,0.41014457
0.292,-0.2218039,3.1376176,-5.0119157,1.581643,0.5326896,0.39011693
0.294,-0.15740848,3.104953,-4.9793077,1.5768628,0.47869062,0.3856601
0.296,-0.09878087,3.081112,-4.9196835,1.57542,0.43998644,0.3922754
0.298,-0.050351143,3.0690622,-4.8353276,1.5751562,0.41094694,0.40450025
0.3,-0.012862444,3.069738,-4.724876,1.5733774,0.3848902,0.41643742
0.302,0.016780138,3.080658,-4.585841,1.5671083,0.3550308,0.42252257
0.304,0.040961266,3.0984647,-4.419064,1.5535321,0.31550115,0.41831738
0.306,0.061407566,3.120173,-4.22631,1.5304359,0.26213402,0.4009677
0.308,0.081118345,3.142807,-4.0078397,1.4964702,0.19293216,0.36937356
0.31,0.1043911,3.1635132,-3.7650163,1.4512817,0.10820234,0.32424915
0.312,0.13482952,3.1798563,-3.5006287,1.3955848,0.010525465,0.2679933
0.314,0.175004,3.1897411,-3.2171707,1.3311341,-0.0957208,0.20425981
0.316,0.22775245,3.191083,-2.916058,1.2605007,-0.20506158,0.13741985
0.318,0.2959106,3.182457,-2.598279,1.1867003,-0.3117155,0.07203695
0.32,0.38225508,3.1626422,-2.264393,1.1128974,-0.41009533,0.012275934
0.322,0.48971796,3.130481,-1.9163206,1.0420032,-0.4954687,-0.03869231
0.324,0.61817026,3.0871234,-1.556083,0.9763273,-0.5644367,-0.07895538
0.326,0.7645699,3.035411,-1.1864389,0.9175309,-0.6150743,-0.107698455
0.328,0.9263156,2.977787,-0.811085,0.8666278,-0.6471956,-0.124972254
0.33,1.1007696,2.9165764,-0.43387955,0.8239134,-0.6621185,-0.13154759
0.332,1.285126,2.8543363,-0.05893612,0.7890181,-0.6619465,-0.12873234
0.334,1.4747794,2.7947893,0.308609,0.7610638,-0.6493396,-0.118143916
0.336,1.6636243,2.7420266,0.6643983,0.7390147,-0.6272965,-0.10147473
0.338,1.8452342,2.699607,1.0054636,0.72191983,-0.59866077,-0.080235735
0.34,2.0142388,2.6700912,1.3294209,0.70883775,-0.56574553,-0.055517882
0.342,2.166575,2.654776,1.6347194,0.6988038,-0.53018093,-0.027925901
0.344,2.3000517,2.654015,1.9208927,0.69089496,-0.49291247,0.002283141
0.346,2.4135787,2.6680944,2.1901948,0.6843525,-0.45440963,0.034966595
0.348,2.5025272,2.6991649,2.4448156,0.67862225,-0.41483122,0.069994256
0.35,2.560553,2.750514,2.6855304,0.67329997,-0.37416488,0.10715461
0.352,2.5861402,2.8225229,2.911825,0.66810316,-0.33231136,0.14608921
0.354,2.5807476,2.9131012,3.1241887,0.6628696,-0.28907463,0.18628871
0.356,2.5455508,3.020596,3.3270657,0.6576382,-0.24409458,0.22715342
0.358,2.483459,3.1439753,3.5227842,0.65269375,-0.19674213,0.26802164
0.36,2.3979015,3.28264,3.7074316,0.64859354,-0.14608905,0.30827063
0.362,2.2920024,3.4358668,3.8753705,0.64618146,-0.09082574,0.34740743
0.364,2.1689339,3.6021068,4.022998,0.6464908,-0.029271439,0.38516974
0.366,2.0302265,3.780035,4.148053,0.6506583,0.040519632,0.42154807
0.368,1.8778427,3.9680247,4.2487473,0.65983737,0.12068653,0.45674533
0.37,1.7148467,4.1639705,4.3230176,0.67510176,0.21338151,0.49114174
0.372,1.5441139,4.365244,4.368167,0.6973179,0.32059294,0.5252223
0.374,1.3694583,4.569088,4.3816605,0.72706735,0.4439156,0.5595138
0.376,1.1948736,4.772453,4.3605413,0.7645954,0.584383,0.59451497
0.378,1.0235603,4.972538,4.3021407,0.80975354,0.7423021,0.6306181
0.38,0.8584906,5.167054,4.204072,0.8620008,0.9170812,0.66806895
0.382,0.703164,5.3538847,4.0644417,0.9203551,1.107128,0.70698464
0.384,0.5614804,5.530909,3.8826206,0.9834733,1.3098562,0.7472857
0.386,0.43603903,5.6963634,3.6582325,1.0497093,1.5217171,0.78873914
0.388,0.33036906,5.8475714,3.3915057,1.1172019,1.7383788,0.83096236
0.39,0.24669969,5.982155,3.0827928,1.1840112,1.9549992,0.8734501
0.392,0.18649817,6.098095,2.7335339,1.248265,2.166465,0.9156272
0.394,0.15068746,6.1942606,2.3459027,1.3082463,2.3676004,0.9568462
0.396,0.1396935,6.2698503,1.923051,1.3623624,2.5533547,0.9964991
0.398,0.15333462,6.324218,1.4684125,1.4091371,2.7189367,1.0340451
0.4,0.19173193,6.3561125,0.98660636,1.4472331,2.8599696,1.0690088
0.402,0.2548797,6.3639836,0.48429024,1.4754751,2.9725208,1.1009877
0.404,0.34150815,6.3462324,-0.030806541,1.4928024,3.0531893,1.1297666
0.406,0.45130897,6.30102,-0.5500592,1.4982014,3.0989988,1.1552849
0.408,0.58284116,6.2272577,-1.0640969,1.4906182,3.107274,1.1776118
0.41,0.7348573,6.1244564,-1.5641586,1.4689741,3.0756438,1.196904
0.412,0.90601015,5.992669,-2.0419092,1.4322227,3.0020616,1.2133265
0.414,1.0949306,5.832412,-2.4893765,1.379485,2.8850448,1.2270634
0.416,1.2990966,5.64438,-2.8985248,1.3101667,2.7238932,1.2382727
0.418,1.515636,5.4295087,-3.2624347,1.2241428,2.5190685,1.2470876
0.42,1.7389822,5.1903086,-3.574613,1.1218522,2.2724514,1.2536756
0.422,1.9658246,4.9278316,-3.8254063,1.0044315,1.9875293,1.2582661
0.424,2.1943781,4.6429625,-4.008966,0.8737704,1.669509,1.261025
0.426,2.4161325,4.340483,-4.1239147,0.7325083,1.32524,1.262061
0.428,2.625596,4.0246735,-4.1658125,0.58393717,0.9629327,1.261402
0.43,2.8231666,3.6973267,-4.1321325,0.43177637,0.5917201,1.2590767
0.432,3.004681,3.3638442,-4.0273633,0.27995962,0.2210002,1.2551553
0.434,3.1674428,3.0282328,-3.8554873,0.1323812,-0.14002235,1.2497536
0.436,3.310574,2.6923451,-3.6183786,-0.007387519,-0.4829707,1.2429832
0.438,3.4334788,2.35742,-3.3176246,-0.13632601,-0.8008938,1.2348379
0.44,3.5338435,2.027063,-2.9595134,-0.25213963,-1.0885907,1.2250257
0.442,3.6115923,1.7031796,-2.554471,-0.3533545,-1.3429279,1.212873
0.444,3.667178,1.3858064,-2.1135151,-0.4393595,-1.562927,1.1972771
0.446,3.7002943,1.075335,-1.6470495,-0.51037,-1.7496114,1.1767002
0.448,3.7073398,0.77576005,-1.1619513,-0.567242,-1.9054862,1.1492926
0.45,3.6809437,0.4954059,-0.66136473,-0.6113051,-2.0340848,1.1129366
0.452,3.6168785,0.24170148,-0.14528,-0.64430696,-2.1395354,1.065557
0.454,3.5161784,0.018979073,0.38436854,-0.6680914,-2.225778,1.0057068
0.456,3.3853045,-0.17070216,0.9171098,-0.6844339,-2.296352,0.93245035
0.458,3.2308016,-0.32631028,1.4404256,-0.6949804,-2.354124,0.8455011
0.46,3.0569177,-0.4471811,1.943577,-0.7009671,-2.40034,0.74569696
0.462,2.8674743,-0.53273094,2.411448,-0.70304406,-2.4346592,0.6345979
0.464,2.6653836,-0.58132815,2.8281384,-0.70135987,-2.455552,0.51420534
0.466,2.454166,-0.59152925,3.183973,-0.6956181,-2.4605489,0.3871768
0.468,2.2371225,-0.5617896,3.4728677,-0.6852072,-2.4465044,0.25692773
0.47,2.0164807,-0.48965973,3.6897883,-0.66933525,-2.4101806,0.12728661
0.472,1.7958065,-0.37396908,3.8318453,-0.64713395,-2.348982,0.0019741058
0.474,1.575392,-0.21268642,3.8954794,-0.6178768,-2.261732,-0.11543
0.476,1.3608127,-0.007070303,3.8759549,-0.58129513,-2.1495175,-0.22137517
0.478,1.1531017,0.24369794,3.775508,-0.5377234,-2.015837,-0.3124801
0.48,0.95301753,0.5399077,3.5954552,-0.48808807,-1.8660591,-0.38630587
0.482,0.76233304,0.87999654,3.3327875,-0.43365812,-1.7066764,-0.44189793
0.484,0.58024174,1.2606235,2.9886172,-0.37579316,-1.5448215,-0.47967234
0.486,0.40436682,1.6768911,2.567707,-0.31576145,-1.3876377,-0.50089127
0.488,0.23172924,2.1229002,2.0749135,-0.2544163,-1.2419175,-0.5075274
0.49,0.060199857,2.5911632,1.5171663,-0.1916573,-1.1128154,-0.50203246
0.492,-0.11183661,3.0729783,0.9036114,-0.12644795,-1.0027874,-0.4869161
0.494,-0.2856896,3.5593543,0.2442022,-0.05734901,-0.9114653,-0.46469057
0.496,-0.46211314,4.041169,-0.4500295,0.016983427,-0.83558345,-0.43779868
0.498,-0.6422566,4.5097065,-1.167172,0.09744075,-0.7691567,-0.4086183
0.5,-0.8259618,4.9566545,-1.8958713,0.18416932,-0.704362,-0.37981614
0.502,-1.0127532,5.373904,-2.6251297,0.2764568,-0.6329458,-0.35455167
0.504,-1.2006302,5.753973,-3.3435352,0.372742,-0.5478026,-0.33627602
0.506,-1.386349,6.0902915,-4.0404553,0.47069177,-0.44471496,-0.32845587
0.508,-1.5662801,6.378035,-4.7049994,0.5672873,-0.32371458,-0.33462787
0.51,-1.7370245,6.6143055,-5.326599,0.65912426,-0.18905604,-0.35764456
0.512,-1.8932242,6.7972784,-5.89571,0.7427754,-0.04917991,-0.3990644
0.514,-2.027033,6.925499,-6.4053187,0.8151034,0.083782494,-0.45905697
0.516,-2.1364422,7.00101,-6.8459444,0.8735392,0.19632956,-0.53569424
0.518,-2.218103,7.0263205,-7.209572,0.91624546,0.27584004,-0.6250592
0.52,-2.261993,7.0012693,-7.4978952,0.94216335,0.31239927,-0.72202635
0.522,-2.2664766,6.9298277,-7.708501,0.95110524,0.30032563,-0.8208896
0.524,-2.2344635,6.8185205,-7.833746,0.94376516,0.2391603,-0.9157646
0.526,-2.1644497,6.6727724,-7.8692284,0.9216583,0.13373852,-1.0012138
0.528,-2.053405,6.4980345,-7.8133388,0.8870707,-0.0065309405,-1.07316
0.53,-1.8993406,6.29987,-7.66739,0.84297013,-0.16907546,-1.1295378
0.532,-1.7053587,6.0846214,-7.438674,0.7927276,-0.3403425,-1.1702837
0.534,-1.4752548,5.85582,-7.1324654,0.7397177,-0.5080107,-1.196725
0.536,-1.2065902,5.6126537,-6.75375,0.68687534,-0.6623101,-1.2112172
0.538,-0.90412164,5.3572493,-6.3116026,0.63654304,-0.79636765,-1.2171327
0.54,-0.5788119,5.0945683,-5.813946,0.59033024,-0.9062481,-1.218546
0.542,-0.23526907,4.8248405,-5.2653027,0.54894495,-0.990507,-1.2191764
0.544,0.12144899,4.549656,-4.674114,0.51221776,-1.0499223,-1.2217118
0.546,0.48508763,4.272508,-4.052306,0.47951904,-1.0870271,-1.2279122
0.548,0.8503051,3.996164,-3.4122005,0.45022815,-1.1048695,-1.2383274
0.55,1.2151283,3.7196145,-2.7617111,0.4240613,-1.1061759,-1.252161
0.552,1.5765507,3.4425883,-2.1071956,0.4010054,-1.0938799,-1.2679918
0.554,1.9316592,3.165934,-1.4583745,0.38134736,-1.0701497,-1.283849
0.556,2.2794893,2.889769,-0.82730293,0.36561513,-1.0360029,-1.297269
0.558,2.620985,2.6122112,-0.22958839,0.3546454,-0.9916461,-1.3057163
0.56,2.9579523,2.3312132,0.31882584,0.34979615,-0.936385,-1.3071958
0.562,3.2869062,2.0498633,0.8040452,0.35284626,-0.86900604,-1.3002012
0.564,3.5987992,1.7760015,1.2186021,0.36573595,-0.78839386,-1.2834345
0.566,3.8821273,1.5195262,1.5649995,0.39017695,-0.69363,-1.2557579
0.568,4.129136,1.2895589,1.8463771,0.42718184,-0.5842881,-1.2163452
0.57,4.336259,1.0935156,2.0637436,0.47689885,-0.46071368,-1.1649266
0.572,4.5021,0.93670154,2.221877,0.53858626,-0.32416317,-1.1017717
0.574,4.6260705,0.82224023,2.3247063,0.61052907,-0.17699522,-1.0276489
0.576,4.7071486,0.7518775,2.3714414,0.6900169,-0.022873342,-0.9439979
0.578,4.7453957,0.72570914,2.361195,0.7734293,0.13323241,-0.85305893
0.58,4.7423162,0.7421384,2.2961855,0.8563787,0.28512233,-0.7578312
0.582,4.6989737,0.7992194,2.1800795,0.9339216,0.4256131,-0.66195256
0.584,4.6198606,0.8923818,2.0207388,1.0008833,0.5469233,-0.5694738
0.586,4.504267,1.0183816,1.8293653,1.0522331,0.6412497,-0.4846292
0.588,4.3567104,1.1705133,1.6115793,1.0834882,0.7014739,-0.41152754
0.59,4.181783,1.3421133,1.3757457,1.0911279,0.7218994,-0.35375282
0.592,3.9834948,1.5277029,1.1342071,1.0729053,0.69903505,-0.314023
0.594,3.7676387,1.7214986,0.8954513,1.0281999,0.63213587,-0.2940114
0.596,3.5408015,1.9176748,0.6662781,0.95820695,0.5234673,-0.29421455
0.598,3.309348,2.1102698,0.45363736,0.8658407,0.37816423,-0.31376773
0.6,3.0780606,2.2941995,0.26219606,0.7555894,0.2040073,-0.35016486
0.602,2.8506713,2.465191,0.094329715,0.63321376,0.010594249,-0.39960852
0.604,2.6304004,2.6192925,-0.048825026,0.50505626,-0.1917338,-0.45761338
0.606,2.4199717,2.7530813,-0.16746926,0.37750128,-0.39225656,-0.51898
0.608,2.2214386,2.864245,-0.26304424,0.25642315,-0.581594,-0.57843596
0.61,2.0355432,2.951477,-0.337098,0.14674428,-0.75238943,-0.63147944
0.612,1.8628526,3.0142097,-0.39119375,0.052088723,-0.8992884,-0.67466086
0.614,1.703049,3.05295,-0.42785466,-0.025499813,-1.0193276,-0.7056053
0.616,1.5556674,3.0693972,-0.448946,-0.08544886,-1.1118904,-0.7232769
0.618,1.4201038,3.065581,-0.45650804,-0.1282776,-1.1782753,-0.7283366
0.62,1.2959806,3.0439074,-0.45294058,-0.1552608,-1.2212181,-0.72295153
0.622,1.1817935,3.0074053,-0.4406923,-0.16820832,-1.2443908,-0.71006846
0.624,1.0753856,2.9595602,-0.42040217,-0.16928604,-1.2520308,-0.69289386
0.626,0.97932017,2.9017034,-0.39501154,-0.16075696,-1.248359,-0.6746244
0.628,0.8948843,2.8354132,-0.3654949,-0.14480302,-1.2371582,-0.65815306
0.63,0.8172251,2.764917,-0.32419527,-0.12340869,-1.2216072,-0.6458143
0.632,0.75066435,2.6902664,-0.2703262,-0.09827308,-1.2041453,-0.63918734
0.634,0.7017249,2.6099339,-0.20834994,-0.07073106,-1.1864923,-0.6391474
0.636,0.67180794,2.5239797,-0.13897604,-0.041750252,-1.1697192,-0.6460506
0.638,0.6605041,2.4323723,-0.06062901,-0.012037456,-1.1543229,-0.65979683
0.64,0.66980845,2.3337836,0.029448032,0.01790426,-1.1403753,-0.6799853
0.642,0.7025437,2.2273965,0.13454813,0.04769347,-1.1276222,-0.7059935
0.644,0.7600301,2.1142998,0.25667292,0.0770376,-1.1156076,-0.73700887
0.646,0.84272647,1.9953486,0.39669847,0.105697915,-1.1038318,-0.7720504
0.648,0.9527259,1.8694649,0.55269015,0.13339922,-1.0917594,-0.8099852
0.65,1.092137,1.7351578,0.72160196,0.15982538,-1.0789294,-0.84958106
0.652,1.2607564,1.5926924,0.8998751,0.18460514,-1.0650104,-0.8896241
0.654,1.4569004,1.442972,1.0833082,0.20732144,-1.0498097,-0.9289479
0.656,1.6788142,1.2873487,1.2681055,0.22757916,-1.0332685,-0.96649456
0.658,1.9234161,1.1280725,1.4506366,0.24505605,-1.0154074,-1.001262
0.66,2.1851084,0.96888757,1.6280901,0.2595513,-0.9963082,-1.0323639
0.662,2.4603853,0.8133778,1.797157,0.27100867,-0.9760594,-1.0590923
0.664,2.7445974,0.6652314,1.9535725,0.2795085,-0.95470726,-1.0808566
0.666,3.0320554,0.5276532,2.095762,0.28528684,-0.93220305,-1.0972004
0.668,3.3186312,0.40237325,2.2229202,0.28875157,-0.90840006,-1.1078808
0.67,3.5999587,0.29088122,2.332499,0.29042804,-0.88307464,-1.1129055
0.672,3.8712227,0.19422024,2.421094,0.2909082,-0.85595703,-1.1124558
0.674,4.127987,0.11334252,2.4852567,0.29080975,-0.82679784,-1.1068628
0.676,4.365866,0.04973054,2.5220234,0.2907406,-0.7954539,-1.0966207
0.678,4.5799527,0.00611645,2.5291426,0.29120633,-0.76195574,-1.0824015
0.68,4.7653847,-0.014423549,2.5046005,0.29257378,-0.7265747,-1.0649643
0.682,4.91779,-0.009019911,2.4469213,0.29503462,-0.689842,-1.0451314
0.684,5.0338435,0.024403572,2.3555584,0.29862937,-0.6524782,-1.0236824
0.686,5.1115294,0.08699542,2.2305932,0.30330673,-0.61535835,-1.0013502
0.688,5.1491814,0.1789118,2.0728772,0.30889165,-0.57939094,-0.97887343
0.69,5.145961,0.29957205,1.8840518,0.31505963,-0.5455724,-0.95688474
0.692,5.102024,0.44744915,1.6669005,0.3213418,-0.5148959,-0.9358304
0.694,5.018567,0.6208226,1.4251431,0.32724237,-0.4882949,-0.91602945
0.696,4.8985715,0.8168939,1.1633501,0.3322743,-0.46679223,-0.8978637
0.698,4.7460313,1.0319631,0.88704586,0.33590737,-0.451294,-0.881656
0.7,4.565759,1.2618364,0.60175955,0.33752346,-0.44261503,-0.86778015
0.702,4.362917,1.5019207,0.31369114,0.33655047,-0.4414847,-0.85684526
0.704,4.1434183,1.7473121,0.029400826,0.3324948,-0.4484554,-0.84972596
0.706,3.9135864,1.9932914,-0.2449925,0.32502252,-0.46391034,-0.8474748
0.708,3.679827,2.235092,-0.50373125,0.31401384,-0.48797846,-0.85129344
0.71,3.4479961,2.4682257,-0.74084675,0.29958373,-0.5204622,-0.8623933
0.712,3.2239451,2.6886048,-0.9509134,0.2821084,-0.5607707,-0.8819243
0.714,3.0130959,2.8925364,-1.1294688,0.26225418,-0.6078497,-0.91082835
0.716,2.8207154,3.0768912,-1.2728248,0.24094209,-0.66016126,-0.9496167
0.718,2.6513073,3.2390602,-1.3782339,0.21931262,-0.7156931,-0.9982531
0.72,2.5090473,3.3770723,-1.4436959,0.19867563,-0.7720604,-1.0561144
0.722,2.3975368,3.4897234,-1.4683504,0.18036713,-0.8266331,-1.1219941
0.724,2.319071,3.5764773,-1.4520955,0.16564049,-0.8767443,-1.1942177
0.726,2.2748783,3.6371734,-1.3957119,0.15553378,-0.9199227,-1.2708402
0.728,2.2659001,3.672309,-1.3002961,0.1507933,-0.9541014,-1.3498101
0.73,2.2922542,3.6831784,-1.1677382,0.15179956,-0.9777473,-1.4291141
0.732,2.353427,3.6715884,-1.0006789,0.15862167,-0.98995537,-1.506959
0.734,2.4481552,3.6396348,-0.8019619,0.17098847,-0.9904833,-1.5819414
0.736,2.5744367,3.5896144,-0.57539403,0.18834797,-0.979671,-1.6531214
0.738,2.7293587,3.5241847,-0.32614446,0.20994154,-0.95834035,-1.7200288
0.74,2.9097202,3.445868,-0.058921814,0.23487139,-0.92766106,-1.7826157
0.742,3.1127992,3.3573222,0.22109532,0.26225886,-0.8889506,-1.841048
0.744,3.3355405,3.261344,0.5093868,0.29132023,-0.8433932,-1.8956606
0.746,3.5747576,3.1605165,0.8017001,0.3214562,-0.79198647,-1.9469212
0.748,3.8266497,3.057084,1.0939873,0.3521947,-0.7354069,-1.995148
0.75,4.0871944,2.953164,1.3820853,0.3832512,-0.6739397,-2.0404491
0.752,4.352418,2.8510158,1.661892,0.41456515,-0.6077224,-2.082886
0.754,4.617917,2.7523525,1.9297155,0.44626814,-0.5367452,-2.1223083
0.756,4.878538,2.6587052,2.1822577,0.4785352,-0.46094877,-2.1583116
0.758,5.1300135,2.57142,2.415459,0.51154816,-0.38032824,-2.1904552
0.76,5.367661,2.4922395,2.6261804,0.5454594,-0.29501075,-2.2183952
0.762,5.5868835,2.4228585,2.811976,0.58032537,-0.20537263,-2.2419093
0.764,5.7824697,2.3649383,2.9708652,0.6160475,-0.11209285,-2.2609046
0.766,5.9489117,2.319847,3.100719,0.65231436,-0.016165674,-2.2753844
0.768,6.0819035,2.2885337,3.200066,0.68855375,0.08104867,-2.285421
0.77,6.178606,2.2717452,3.2674491,0.7239398,0.17785984,-2.2911325
0.772,6.234241,2.2708712,3.3038254,0.757445,0.2722857,-2.2925887
0.774,6.246398,2.286272,3.313016,0.78791463,0.3621866,-2.289781
0.776,6.2139006,2.3178446,3.2959833,0.81412035,0.44534612,-2.2825706
0.778,6.1352873,2.3656945,3.2535257,0.8348039,0.51956123,-2.2706213
0.78,6.010692,2.4286885,3.1883643,0.8487526,0.5827708,-2.2534602
0.782,5.8413124,2.5053778,3.1040995,0.85483253,0.63314056,-2.2305825
0.784,5.6292043,2.5943232,3.0049963,0.85202825,0.669142,-2.2015653
0.786,5.3772817,2.693619,2.8957744,0.8394472,0.689625,-2.166193
0.788,5.089412,2.8006132,2.7809572,0.81643885,0.69391954,-2.1246161
0.79,4.770564,2.9122715,2.6650105,0.7826298,0.681911,-2.0774386
0.792,4.425651,3.025515,2.5518246,0.7379582,0.654109,-2.0257373
0.794,4.0600986,3.1374187,2.444563,0.6827573,0.6117047,-1.9710734
0.796,3.6798415,3.245451,2.3453546,0.61778206,0.55656934,-1.9154185
0.798,3.2911663,3.347186,2.2562923,0.5442444,0.49126664,-1.860954
0.8,2.900634,3.440034,2.1786463,0.4637423,0.41896164,-1.809896
0.802,2.5148954,3.5218534,2.1131096,0.3782239,0.34326804,-1.7643015
0.804,2.1400917,3.5905638,2.0600383,0.28984886,0.2680347,-1.7258904
0.806,1.7821357,3.6446104,2.0191107,0.20085949,0.19707114,-1.6959469
0.808,1.4466414,3.6828313,1.989292,0.11342621,0.13391256,-1.6752875
0.81,1.1384875,3.7042964,1.9694927,0.029496789,0.081581,-1.664289
0.812,0.86238676,3.708037,1.9582036,-0.049304903,0.042417765,-1.6629343
0.814,0.62228024,3.6933289,1.9534115,-0.1217078,0.018037558,-1.6708549
0.816,0.4211831,3.6594808,1.9530549,-0.18676117,0.009358168,-1.6874417
0.818,0.261293,3.6062446,1.9551868,-0.24377847,0.016700566,-1.7119029
0.82,0.14494705,3.5333724,1.9574609,-0.29228672,0.03988135,-1.7433606
0.822,0.073094755,3.4408956,1.9573696,-0.33195436,0.07838556,-1.78088
0.824,0.046219617,3.3289282,1.9530578,-0.36257058,0.13148132,-1.8235538
0.826,0.06375128,3.197831,1.9428893,-0.38401073,0.19823787,-1.8705356
0.828,0.12427142,3.0480404,1.925581,-0.3962652,0.27748758,-1.9209713
0.83,0.22556588,2.8801079,1.8996766,-0.39943486,0.367841,-1.9740894
0.832,0.36456436,2.6950643,1.8639927,-0.393798,0.46763122,-2.029263
0.834,0.538097,2.4941697,1.8189368,-0.37989527,0.5748547,-2.0859804
0.836,0.74265593,2.278747,1.7650077,-0.35859895,0.687215,-2.143867
0.838,0.9742533,2.0500367,1.7026306,-0.33111316,0.8021259,-2.2026994
0.84,1.2287607,1.809027,1.6327806,-0.2989937,0.9167707,-2.2623951
0.842,1.5011032,1.5567579,1.556941,-0.26409698,1.028198,-2.3229022
0.844,1.7858965,1.2945507,1.476447,-0.22847056,1.1334466,-2.3841667
0.846,2.0777473,1.0241601,1.3933403,-0.19423366,1.2297074,-2.4460688
0.848,2.3709126,0.7476796,1.3105743,-0.16345882,1.3144612,-2.508346
0.85,2.6596918,0.46766648,1.230063,-0.13801384,1.385632,-2.5706024
0.852,2.9376915,0.18682164,1.1542003,-0.119458914,1.4416671,-2.6322904
0.854,3.1994026,-0.09233838,1.0850263,-0.10897136,1.4816502,-2.6926594
0.856,3.439125,-0.3669116,1.0244275,-0.10731685,1.5053406,-2.75075
0.858,3.6522136,-0.63387126,0.9739717,-0.11485052,1.5131744,-2.8054347
0.86,3.8343182,-0.8902824,0.93486536,-0.1315862,1.5062044,-2.8554485
0.862,3.9815886,-1.1333205,0.9084842,-0.1572659,1.4859635,-2.8994384
0.864,4.0908546,-1.3603845,0.8957977,-0.19141996,1.4543381,-2.936036
0.866,4.160094,-1.5691662,0.8978699,-0.23346627,1.4133997,-2.9640079
0.868,4.186764,-1.7575581,0.91594553,-0.2827592,1.3652254,-2.9823759
0.87,4.1695895,-1.9241108,0.95005417,-0.3386408,1.3117394,-2.9904428
0.872,4.108814,-2.0682309,0.9999782,-0.40048206,1.2546408,-2.987854
0.874,4.0058007,-2.1897507,1.0649058,-0.46764386,1.1953884,-2.9746127
0.876,3.8622112,-2.2887335,1.1434114,-0.5394949,1.1351957,-2.9511237
0.878,3.6801903,-2.3655505,1.233744,-0.6153385,1.0750597,-2.9181566
0.88,3.462309,-2.4209862,1.3340454,-0.6944414,1.0158477,-2.876894
0.882,3.211531,-2.4563842,1.4419347,-0.77600163,0.95837235,-2.8289738
0.884,2.9318953,-2.4734604,1.5544934,-0.8591351,0.9034066,-2.7763996
0.886,2.6282086,-2.474585,1.6688739,-0.942899,0.8517373,-2.721482
0.888,2.3058531,-2.4626014,1.7825677,-1.0263398,0.804139,-2.6666873
0.89,1.9704344,-2.4407191,1.8930836,-1.108529,0.7613291,-2.6144667
0.892,1.6274679,-2.4121258,1.9981897,-1.1886213,0.7239882,-2.5671093
0.894,1.282588,-2.3800638,2.0956924,-1.2658821,0.6926987,-2.5265937
0.896,0.9416791,-2.347858,2.1832936,-1.3397224,0.66793466,-2.4944968
0.898,0.6106994,-2.3190196,2.2592134,-1.4097188,0.65005875,-2.4719067
0.9,0.29506993,-2.2969697,2.322097,-1.4755852,0.63931036,-2.4594176
0.902,0.0004580021,-2.2852182,2.371155,-1.5371659,0.6357986,-2.4571543
0.904,-0.26811564,-2.2870624,2.4055657,-1.594425,0.6394735,-2.4647632
0.906,-0.5067721,-2.3053615,2.4248633,-1.647405,0.65012616,-2.481517
0.908,-0.7117561,-2.3426957,2.4284132,-1.6961869,0.6673647,-2.506474
0.91,-0.8797624,-2.4012585,2.4164488,-1.7408835,0.6906141,-2.5386255
0.912,-1.008532,-2.482657,2.3895197,-1.7816131,0.7191178,-2.5769289
0.914,-1.096489,-2.5880132,2.3485036,-1.8185143,0.75195205,-2.6203706
0.916,-1.1429162,-2.717994,2.2947893,-1.851736,0.78803337,-2.6680422
0.918,-1.1478004,-2.8729832,2.2297254,-1.8814704,0.826126,-2.7190938
0.92,-1.111758,-3.052919,2.1548843,-1.9079123,0.8649082,-2.772699
0.922,-1.0362725,-3.2570822,2.071954,-1.9312674,0.9031257,-2.8280728
0.924,-0.9239143,-3.4839232,1.9825048,-1.9517169,0.9396658,-2.8844793
0.926,-0.77866036,-3.7313137,1.8893223,-1.9694145,0.9735603,-2.9412017
0.928,-0.6045952,-3.9969287,1.7947497,-1.9845351,1.0040102,-2.997507
0.93,-0.40655124,-4.2778034,1.7004541,-1.9972427,1.0303898,-3.0526042
0.932,-0.18949115,-4.570791,1.6077096,-2.0077214,1.0522515,-3.1056354
0.934,0.040296435,-4.871998,1.5184076,-2.016206,1.0692725,-3.1556587
0.936,0.2770387,-5.1778965,1.435128,-2.0229578,1.0812155,-3.2016668
0.938,0.5145352,-5.484673,1.3592304,-2.0282826,1.0879313,-3.2426658
0.94,0.7459351,-5.78823,1.2921944,-2.0324898,1.0893334,-3.2777498
0.942,0.9655677,-6.0849137,1.2352486,-2.0358977,1.085366,-3.306232
0.944,1.1676203,-6.371179,1.188013,-2.0388272,1.0760357,-3.327673
0.946,1.3461171,-6.643197,1.1511297,-2.041576,1.0614059,-3.3419514
0.948,1.4957212,-6.8973007,1.124844,-2.0444117,1.0416257,-3.349291
0.95,1.6117188,-7.130251,1.1085193,-2.0475671,1.0169022,-3.350245
0.952,1.6908035,-7.3392878,1.1014686,-2.0512257,0.98748136,-3.345651
0.954,1.7304301,-7.5222445,1.1025624,-2.0555549,0.95361763,-3.3365011
0.956,1.7292802,-7.678175,1.1106576,-2.0606945,0.9156345,-3.3239627
0.958,1.6871147,-7.8065763,1.125175,-2.0667596,0.87394935,-3.3092425
0.96,1.6040728,-7.9077206,1.1446339,-2.073825,0.8290511,-3.2934759
0.962,1.4812405,-7.982242,1.1669112,-2.081943,0.78147167,-3.2776623
0.964,1.3208089,-8.031172,1.1892872,-2.091121,0.7317397,-3.262609
0.966,1.1262455,-8.056214,1.2094557,-2.101295,0.6804806,-3.2489564
0.968,0.9016111,-8.059695,1.2257164,-2.1123154,0.6283368,-3.2371244
0.97,0.65180373,-8.044474,1.236741,-2.123974,0.5759579,-3.227411
0.972,0.382401,-8.01421,1.2410977,-2.1359675,0.52405965,-3.2200766
0.974,0.09922218,-7.972618,1.2374816,-2.147947,0.47332716,-3.2153559
0.976,-0.1921494,-7.9235115,1.2239568,-2.1595268,0.42435133,-3.2135048
0.978,-0.48490524,-7.870913,1.199064,-2.1702647,0.3777662,-3.2148218
0.98,-0.77245724,-7.818596,1.1617804,-2.179721,0.33420128,-3.219639
0.982,-1.0490211,-7.769858,1.1114439,-2.1874464,0.29428065,-3.228278
0.984,-1.3092343,-7.7276897,1.0477971,-2.1930354,0.25868118,-3.2410147
0.986,-1.547726,-7.695112,0.9708464,-2.1961186,0.22806501,-3.2580214
0.988,-1.7600652,-7.674757,0.8808117,-2.1963215,0.2031287,-3.2792997
0.99,-1.942565,-7.6685996,0.7778847,-2.1933753,0.18451679,-3.3046246
0.992,-2.092203,-7.6779346,0.66262794,-2.1870844,0.17273772,-3.3335392
0.994,-2.2069383,-7.7034636,0.5358968,-2.1773524,0.16808403,-3.3653808
0.996,-2.2858007,-7.74526,0.39868522,-2.1641889,0.17049694,-3.3993342
0.998,-2.3288987,-7.802697,0.25173998,-2.1477008,0.17955083,-3.434526
1,-2.337249,-7.8744316,0.09612775,-2.12809,0.19441408,-3.4700415
1.002,-2.3124704,-7.958721,-0.067203045,-2.1056461,0.21388537,-3.50502
1.004,-2.257478,-8.0534935,-0.2367847,-2.080738,0.23644304,-3.5387194
1.006,-2.1759868,-8.156179,-0.41107798,-2.0537753,0.26029146,-3.5705225
1.008,-2.0722995,-8.263844,-0.5888653,-2.0251887,0.28352612,-3.5999637
1.01,-1.9510692,-8.373395,-0.7685907,-1.9954053,0.30414933,-3.626697
1.012,-1.8174579,-8.481756,-0.9487498,-1.9648685,0.32016551,-3.6505706
1.014,-1.6767143,-8.585716,-1.1277139,-1.9340141,0.32979393,-3.6715748
1.016,-1.5339156,-8.682295,-1.3038483,-1.9032546,0.33154434,-3.6898022
1.018,-1.394012,-8.76881,-1.4754488,-1.8729743,0.32429475,-3.7054284
1.02,-1.2619225,-8.8428545,-1.6412661,-1.8435359,0.30726874,-3.7186887
1.022,-1.1420105,-8.902678,-1.8001609,-1.8152785,0.2801342,-3.7298925
1.024,-1.0378835,-8.947077,-1.951427,-1.7885019,0.24301696,-3.739296
1.026,-0.952514,-8.975235,-2.0939164,-1.7634782,0.19643867,-3.7471068
1.028,-0.88829887,-8.986766,-2.2258527,-1.7403946,0.14134073,-3.753496
1.03,-0.84697616,-8.981613,-2.3457596,-1.7193462,0.07903552,-3.7585835
1.032,-0.82943255,-8.960184,-2.45231,-1.7003882,0.011009157,-3.762437
1.034,-0.83520883,-8.9238,-2.5445023,-1.6834674,-0.061088026,-3.7651076
1.036,-0.86294,-8.874065,-2.6225903,-1.668506,-0.13557851,-3.7666488
1.038,-0.91111165,-8.812796,-2.686448,-1.6553974,-0.21093833,-3.7671418
1.04,-0.977429,-8.742263,-2.7356982,-1.6440288,-0.2858395,-3.7667222
1.042,-1.0592492,-8.664632,-2.769776,-1.6343248,-0.3592592,-3.7655752
1.044,-1.1527632,-8.582617,-2.789273,-1.6262028,-0.43046653,-3.763957
1.046,-1.25442,-8.49847,-2.7952836,-1.6196183,-0.49901885,-3.7621496
1.048,-1.3599297,-8.414589,-2.7877073,-1.6145765,-0.5647357,-3.7604275
1.05,-1.464848,-8.333494,-2.766826,-1.6111106,-0.62759703,-3.7590482
1.052,-1.5654893,-8.257331,-2.7334805,-1.6092981,-0.6877483,-3.7582312
1.054,-1.6578863,-8.18825,-2.6875124,-1.6092267,-0.74544245,-3.7581835
1.056,-1.7377595,-8.128588,-2.6293006,-1.6109909,-0.80099094,-3.7590528
1.058,-1.8011819,-8.080514,-2.558723,-1.614687,-0.85468507,-3.7609072
1.06,-1.8443881,-8.0457325,-2.4752054,-1.620422,-0.9068016,-3.763757
1.062,-1.864261,-8.0258255,-2.3786895,-1.6283071,-0.9576254,-3.7675524
1.064,-1.8579404,-8.022083,-2.2688148,-1.6384726,-1.0074712,-3.7721887
1.066,-1.8234103,-8.035107,-2.1458611,-1.6510347,-1.0566723,-3.7775397
1.068,-1.7593015,-8.065599,-2.0104754,-1.6661346,-1.1056108,-3.7834573
1.07,-1.6644969,-8.113695,-1.8623335,-1.6838659,-1.1546708,-3.7897966
1.072,-1.5387752,-8.179222,-1.7007811,-1.7042824,-1.2041767,-3.796418
1.074,-1.382729,-8.261752,-1.525024,-1.7273514,-1.2543442,-3.8031583
1.076,-1.1976068,-8.360363,-1.3350185,-1.752941,-1.3052531,-3.8098128
1.078,-0.98501456,-8.473848,-1.1313796,-1.7808887,-1.3568761,-3.8161244
1.08,-0.7472074,-8.60052,-0.91482246,-1.8109939,-1.409087,-3.8217902
1.082,-0.48734868,-8.738434,-0.6859435,-1.8430703,-1.4616827,-3.8264978
1.084,-0.20909661,-8.885415,-0.44547272,-1.8769532,-1.5144751,-3.8299096
1.086,0.083693504,-9.03908,-0.19398713,-1.9125137,-1.5672975,-3.831674
1.088,0.38584775,-9.196845,0.06760001,-1.9496654,-1.6200472,-3.8314397
1.09,0.6923315,-9.356118,0.33776796,-1.9883509,-1.672694,-3.8288486
1.092,0.99798465,-9.514297,0.6144409,-2.028579,-1.7252815,-3.8235455
1.094,1.2977898,-9.668678,0.8958914,-2.0703936,-1.7778692,-3.8151722
1.096,1.5868785,-9.816709,1.1805731,-2.1138315,-1.8304949,-3.8034182
1.098,1.860021,-9.955617,1.466402,-2.1589234,-1.883163,-3.7879653
1.1,2.1123948,-10.082954,1.7509449,-2.2056756,-1.9358025,-3.7684789
1.102,2.3399332,-10.196493,2.0313601,-2.2540364,-1.9881872,-3.7446723
1.104,2.53753,-10.293868,2.307044,-2.3039155,-2.0399747,-3.7163355
1.106,2.7016263,-10.373078,2.5767946,-2.3551686,-2.0907197,-3.683367
1.108,2.8295324,-10.43297,2.838757,-2.4076376,-2.1398692,-3.6457536
1.11,2.9191928,-10.472445,3.0910947,-2.4611278,-2.1867833,-3.6036108
1.112,2.969437,-10.490509,3.3318367,-2.5154254,-2.2307749,-3.5571795
1.114,2.9800835,-10.486665,3.5591629,-2.5702932,-2.2710762,-3.5067935
1.116,2.951724,-10.460627,3.772379,-2.6254609,-2.3068514,-3.4528284
1.118,2.8850465,-10.41237,3.9711983,-2.6806364,-2.337211,-3.3956544
1.12,2.7815099,-10.34213,4.1549864,-2.735537,-2.3612418,-3.335638
1.122,2.6434917,-10.250134,4.3235474,-2.78987,-2.3781004,-3.273138
1.124,2.474069,-10.137092,4.4768076,-2.843414,-2.387033,-3.208477
1.126,2.276839,-10.003979,4.6154737,-2.8959882,-2.387428,-3.1419299
1.128,2.0560083,-9.851833,4.7406263,-2.9475136,-2.378915,-3.0737386
1.13,1.816197,-9.681772,4.8541327,-2.9979734,-2.3613312,-3.004136
1.132,1.5622516,-9.494944,4.958261,-3.0473938,-2.3347611,-2.933382
1.134,1.2992024,-9.292622,5.0553045,-3.0958953,-2.299543,-2.8617918
1.136,1.0317131,-9.076267,5.146911,-3.1436758,-2.2561035,-2.7896667
1.138,0.7645507,-8.847018,5.2343845,-3.1910343,-2.2050507,-2.7173743
1.14,0.5027859,-8.606198,5.319408,-3.238307,-2.1470926,-2.6453323
1.142,0.25126123,-8.355053,5.403866,-3.2858634,-2.082959,-2.5739913
1.144,0.014074326,-8.094761,5.4896984,-3.3341067,-2.0134046,-2.5038462
1.146,-0.20478058,-7.8262315,5.578773,-3.3834186,-1.9391586,-2.4353917
1.148,-0.40158916,-7.5502677,5.673029,-3.4341736,-1.8609315,-2.3690677
1.15,-0.5737786,-7.267366,5.773305,-3.4867446,-1.7794031,-2.305213
1.152,-0.7187526,-6.9781322,5.879653,-3.5414178,-1.6951638,-2.2440953
1.154,-0.83468294,-6.6830378,5.991485,-3.598406,-1.6087725,-2.1859188
1.156,-0.9207127,-6.3826385,6.107844,-3.6578481,-1.5207832,-2.1307428
1.158,-0.976545,-6.0773106,6.2272797,-3.7197647,-1.4316932,-2.0784845
1.16,-1.0022925,-5.7672586,6.3480687,-3.7840607,-1.3419499,-2.0289774
1.162,-0.99926066,-5.45247,6.4682183,-3.850528,-1.2519894,-1.9820132
1.164,-0.96945226,-5.1328955,6.585327,-3.9188828,-1.162247,-1.9373304
1.166,-0.91538596,-4.8083305,6.6964455,-3.9887824,-1.0732204,-1.8946725
1.168,-0.84049225,-4.4784155,6.798229,-4.059875,-0.98542726,-1.8538008
1.17,-0.7487564,-4.142844,6.8874893,-4.1317925,-0.89935875,-1.8145342
1.172,-0.6446966,-3.8010397,6.9607706,-4.2041306,-0.8154185,-1.7767808
1.174,-0.5328907,-3.4527876,7.0148516,-4.276443,-0.7339092,-1.7405353
1.176,-0.41775942,-3.0978255,7.0472493,-4.348292,-0.65500253,-1.7058451
1.178,-0.30481797,-2.735587,7.0547147,-4.419204,-0.57870495,-1.6728241
1.18,-0.19859982,-2.3660057,7.0352654,-4.488723,-0.5049219,-1.6416708
1.182,-0.104008496,-1.9892803,6.9875293,-4.556442,-0.43341804,-1.6126409
1.184,-0.025847852,-1.6050143,6.909756,-4.6220317,-0.36392355,-1.5859871
1.186,0.031926244,-1.2132224,6.800644,-4.685268,-0.29618204,-1.5618849
1.188,0.06549474,-0.8139044,6.6594987,-4.7460566,-0.23001945,-1.5404115
1.19,0.071839646,-0.40730637,6.4869256,-4.80447,-0.16547406,-1.5215429
1.192,0.049251676,0.006280303,6.283702,-4.860731,-0.10265207,-1.5051295
1.194,-0.0031324625,0.42612964,6.051322,-4.915184,-0.04180622,-1.4908892
1.196,-0.084985614,0.8510815,5.7920647,-4.968268,0.016685963,-1.4784107
1.198,-0.19500542,1.280056,5.508641,-5.0204353,0.07235265,-1.4671955
1.2,-0.33111572,1.7117856,5.204352,-5.07213,0.124696255,-1.4567106
1.202,-0.49052417,2.1451027,4.8827705,-5.123723,0.17323661,-1.446451
1.204,-0.6695838,2.578845,4.5476093,-5.1754756,0.21754754,-1.4359989
1.206,-0.8642539,3.0119514,4.2029877,-5.22761,0.25733662,-1.4249698
1.208,-1.068815,3.4430385,3.8537514,-5.2802925,0.2923962,-1.4130155
1.21,-1.2776704,3.8709352,3.505635,-5.3336,0.32275617,-1.3999021
1.212,-1.484806,4.2944736,3.1646686,-5.3875575,0.3486172,-1.3854568
1.214,-1.6833004,4.712419,2.8352563,-5.442218,0.3703556,-1.3694954
1.216,-1.867308,5.123836,2.5193396,-5.497653,0.38853335,-1.3519061
1.218,-2.0302625,5.5279922,2.2214143,-5.5539427,0.40384114,-1.3326097
1.22,-2.1674109,5.9249797,1.94928,-5.611192,0.4171158,-1.3115118
1.222,-2.2747118,6.3151045,1.7081869,-5.669466,0.4292829,-1.2885884
1.224,-2.348055,6.6983585,1.5012052,-5.728843,0.44122756,-1.2638743
1.226,-2.383858,7.074736,1.330043,-5.789361,0.4537617,-1.2374601
1.228,-2.379356,7.4453425,1.1951073,-5.8510146,0.46764565,-1.2095182
1.23,-2.3330703,7.8115635,1.0973475,-5.9137273,0.48349166,-1.180365
1.232,-2.244762,8.174723,1.0380895,-5.977382,0.5016769,-1.1504151
1.234,-2.1152987,8.536345,1.0176387,-6.0418043,0.5223789,-1.1201164
1.236,-1.9469991,8.897778,1.0339246,-6.1067867,0.54557395,-1.0899493
1.238,-1.7424843,9.260511,1.0837889,-6.1721134,0.5710393,-1.0604011
1.24,-1.5057106,9.626158,1.1632743,-6.2375135,0.5983887,-1.0319895
1.242,-1.2413592,9.996354,1.2681191,-6.3026648,0.62715983,-1.0052264
1.244,-0.95472884,10.372772,1.393852,-6.367158,0.65683174,-0.9806031
1.246,-0.6515379,10.756758,1.5358224,-6.4305115,0.68687654,-0.95857203
1.248,-0.33796406,11.149359,1.6886249,-6.4922276,0.71676016,-0.9395617
1.25,-0.020611763,11.551585,1.8460264,-6.5517406,0.74612105,-0.9239539
1.252,0.29420376,11.963873,2.001855,-6.608452,0.77488375,-0.9120487
1.254,0.60003376,12.386622,2.1499684,-6.661766,0.8030764,-0.9041821
1.256,0.890892,12.819741,2.2844453,-6.7111235,0.8307991,-0.9006113
1.258,1.1610236,13.26288,2.3990185,-6.756006,0.8583634,-0.9014952
1.26,1.4053607,13.715496,2.487643,-6.795978,0.8862256,-0.9070066
1.262,1.6194139,14.176725,2.5455947,-6.8307695,0.91501594,-0.91728485
1.264,1.8013129,14.644618,2.5699677,-6.860322,0.9454038,-0.9323522
1.266,1.9478998,15.118687,2.557626,-6.8848095,0.97809863,-0.95221007
1.268,2.0575366,15.597571,2.504113,-6.9045925,1.0137548,-0.9767761
1.27,2.1298165,16.078976,2.4064498,-6.9202366,1.0528744,-1.005794
1.272,2.1646667,16.561,2.2633884,-6.9324894,1.0957394,-1.0389614
1.274,2.1630592,17.041927,2.0740836,-6.9422846,1.1422799,-1.0759424
1.276,2.126696,17.519594,1.838223,-6.950691,1.192042,-1.1163405
1.278,2.0580711,17.99166,1.5573139,-6.958839,1.244273,-1.1597145
1.28,1.9601326,18.45589,1.2337322,-6.967857,1.297975,-1.2056522
1.282,1.8367548,18.90993,0.870687,-6.97877,1.3519385,-1.2537701
1.284,1.6917439,19.351547,0.4725113,-6.99247,1.4048854,-1.3036699
1.286,1.5291119,19.778286,0.04432583,-7.0096717,1.45562,-1.3549516
1.288,1.3535805,20.187672,-0.40744734,-7.030899,1.5030721,-1.4072306
1.29,1.169105,20.577995,-0.87703896,-7.056489,1.546267,-1.4601347
1.292,0.97993565,20.947765,-1.3580031,-7.0866766,1.584399,-1.5132995
1.294,0.79055166,21.295317,-1.8428664,-7.121609,1.6169279,-1.5662885
1.296,0.60452604,21.619675,-2.3238273,-7.161381,1.6434667,-1.6186669
1.298,0.42617846,21.919786,-2.7926335,-7.2060175,1.6637849,-1.670135
1.3,0.259161,22.194904,-3.24187,-7.255541,1.6777769,-1.720469
1.302,0.10668039,22.444649,-3.6637983,-7.3099165,1.685589,-1.769491
1.304,-0.02859068,22.669209,-4.051201,-7.369087,1.6875391,-1.8171473
1.306,-0.14457273,22.869108,-4.3970037,-7.4329405,1.684061,-1.8634968
1.308,-0.24030018,23.045513,-4.6975603,-7.5012665,1.6758354,-1.9086165
1.31,-0.31335688,23.19801,-4.950647,-7.573743,1.6637555,-1.9526527
1.312,-0.36354446,23.329388,-5.1479483,-7.6499524,1.6486802,-1.9958584
1.314,-0.39215803,23.441532,-5.2857685,-7.729327,1.6313705,-2.0385082
1.316,-0.39924526,23.535603,-5.3636622,-7.8111725,1.6124817,-2.0809486
1.318,-0.3864169,23.614058,-5.382889,-7.8947144,1.5924616,-2.123566
1.32,-0.35573912,23.680012,-5.346836,-7.9790993,1.5715632,-2.1667469
1.322,-0.30978203,23.736597,-5.259799,-8.0634775,1.549916,-2.2108915
1.324,-0.25174856,23.786335,-5.125574,-8.146964,1.5275697,-2.2563648
1.326,-0.18576694,23.832035,-4.946008,-8.228654,1.5045936,-2.303444
1.328,-0.11699724,23.876596,-4.727535,-8.307605,1.4812207,-2.3523114
1.33,-0.04910612,23.921947,-4.4816394,-8.382853,1.4579192,-2.4030614
1.332,0.013594627,23.969954,-4.217168,-8.453429,1.4354212,-2.4557261
1.334,0.06612992,24.023155,-3.9420838,-8.518391,1.4147254,-2.5102954
1.336,0.10373926,24.083488,-3.6648946,-8.576817,1.3970723,-2.5667925
1.338,0.12232876,24.15149,-3.3930902,-8.627814,1.3840225,-2.6252823
1.34,0.11828637,24.227343,-3.135731,-8.670647,1.377072,-2.6858428
1.342,0.08853388,24.311365,-2.903057,-8.704698,1.3778186,-2.7486331
1.344,0.02996087,24.40375,-2.703115,-8.729465,1.3880728,-2.813799
1.346,-0.057366848,24.50359,-2.5438287,-8.744637,1.4094977,-2.8813877
1.348,-0.17519236,24.610132,-2.4317763,-8.750028,1.4434628,-2.951424
1.35,-0.3229015,24.721891,-2.373005,-8.745583,1.4912624,-3.0238798
1.352,-0.49932528,24.836931,-2.3728905,-8.731433,1.5541301,-3.0986602
1.354,-0.7022817,24.952814,-2.4351392,-8.707816,1.6331832,-3.1756914
1.356,-0.92890525,25.066927,-2.5616553,-8.675053,1.7293401,-3.2548597
1.358,-1.1754411,25.176554,-2.7525625,-8.633578,1.8432655,-3.335948
1.36,-1.4376129,25.278818,-3.0067372,-8.583944,1.9753304,-3.418678
1.362,-1.7109058,25.371052,-3.3221476,-8.526832,2.1255476,-3.5027802
1.364,-1.9899719,25.450455,-3.695641,-8.46299,2.2934654,-3.588026
1.366,-2.2699506,25.514551,-4.122846,-8.39321,2.4781475,-3.6741672
1.368,-2.5455892,25.560995,-4.5985756,-8.318271,2.6782494,-3.7609425
1.37,-2.8117404,25.587152,-5.116077,-8.238852,2.892051,-3.8480968
1.372,-3.0634856,25.591019,-5.6685605,-8.1555195,3.1174815,-3.9354098
1.374,-3.297488,25.571632,-6.2493815,-8.068591,3.35233,-4.0227747
1.376,-3.508327,25.52663,-6.8507724,-7.978125,3.594243,-4.1101093
1.378,-3.6923468,25.454699,-7.4629517,-7.884017,3.840794,-4.1973906
1.38,-3.8464653,25.355103,-8.077486,-7.785948,4.089597,-4.2846107
1.382,-3.9674892,25.22682,-8.687014,-7.6834497,4.3383255,-4.3718038
1.384,-4.0533266,25.06927,-9.284569,-7.5760007,4.5846806,-4.459032
1.386,-4.1024356,24.882385,-9.863144,-7.463031,4.826426,-4.5463367
1.388,-4.1142616,24.666506,-10.41826,-7.3440266,5.0613475,-4.633698
1.39,-4.087787,24.421833,-10.944801,-7.2185874,5.2872386,-4.7210517
1.392,-4.023698,24.149416,-11.438279,-7.086445,5.50178,-4.8082933
1.394,-3.923214,23.850111,-11.896172,-6.947416,5.702696,-4.8952885
1.396,-3.7875285,23.524958,-12.317097,-6.80153,5.8875737,-4.981795
1.398,-3.618269,23.175453,-12.700359,-6.648998,6.0538716,-5.0675416
1.4,-3.417622,22.803024,-13.04581,-6.4900856,6.1992674,-5.152278
1.402,-3.1882062,22.409098,-13.354256,-6.325238,6.3216953,-5.235677
1.404,-2.9333744,21.995344,-13.627071,-6.1549587,6.419337,-5.3173366
1.406,-2.6566563,21.563728,-13.866706,-5.9797325,6.490716,-5.3967953
1.408,-2.3623867,21.11671,-14.076867,-5.8000283,6.5348744,-5.4736676
1.41,-2.054801,20.656786,-14.261873,-5.6162868,6.5513945,-5.547687
1.412,-1.7386456,20.186666,-14.426264,-5.428912,6.540502,-5.618636
1.414,-1.4182787,19.709005,-14.574304,-5.238233,6.503063,-5.686297
1.416,-1.0982828,19.226553,-14.710872,-5.0445247,6.4405003,-5.750446
1.418,-0.782403,18.741552,-14.838211,-4.8480763,6.354617,-5.8108034
1.42,-0.47609806,18.257942,-14.958719,-4.6492214,6.2475376,-5.86707
1.422,-0.18241787,17.77666,-15.080955,-4.448305,6.121642,-5.9189253
1.424,0.09598446,17.300024,-15.208408,-4.2457743,5.9793763,-5.9660597
1.426,0.35534477,16.830761,-15.3421,-4.042123,5.823253,-6.0080843
1.428,0.5933571,16.370378,-15.48292,-3.837927,5.655722,-6.0445647
1.43,0.8082428,15.919552,-15.631568,-3.6337874,5.479196,-6.075154
1.432,0.998744,15.479168,-15.788807,-3.4302769,5.2959867,-6.0996017
1.434,1.164628,15.050304,-15.956442,-3.2279658,5.1082106,-6.117749
1.436,1.3065481,14.633564,-16.135288,-3.027369,4.9178133,-6.12955
1.438,1.4255829,14.229195,-16.324219,-2.8289342,4.7264957,-6.135076
1.44,1.5228176,13.8368,-16.52095,-2.6330457,4.5357056,-6.1345425
1.442,1.6005545,13.455652,-16.72314,-2.4399972,4.346633,-6.1282663
1.444,1.6613302,13.084684,-16.92828,-2.2500272,4.160184,-6.116611
1.446,1.7078314,12.723015,-17.133942,-2.063304,3.9770331,-6.0999784
1.448,1.7433739,12.369444,-17.338224,-1.8799231,3.7975855,-6.0787387
1.45,1.7713909,12.022609,-17.53857,-1.6999769,3.6219625,-6.053222
1.452,1.7952251,11.680796,-17.732103,-1.523529,3.4500222,-6.0236998
1.454,1.8189135,11.3421755,-17.916712,-1.350718,3.2813525,-5.990387
1.456,1.8444929,11.005915,-18.089096,-1.1817017,3.1152973,-5.9534245
1.458,1.8760166,10.670277,-18.24685,-1.0167205,2.9509883,-5.91291
1.46,1.9159851,10.334047,-18.387701,-0.8560848,2.7874293,-5.8688855
1.462,1.9672174,9.996294,-18.509893,-0.700156,2.623539,-5.8213468
1.464,2.0315838,9.656578,-18.612555,-0.5493486,2.458242,-5.770297
1.466,2.1108885,9.314703,-18.695374,-0.4040649,2.2905245,-5.7157655
1.468,2.2060738,8.970766,-18.75819,-0.26472592,2.1194844,-5.6578646
1.47,2.317752,8.625158,-18.800884,-0.13172865,1.9443873,-5.596794
1.472,2.4459558,8.278595,-18.823519,-0.005359769,1.7647377,-5.532876
1.474,2.5901594,7.932235,-18.826622,0.11417687,1.5802523,-5.466516
1.476,2.7495775,7.5876517,-18.811129,0.22677183,1.3908236,-5.3981957
1.478,2.9224682,7.246995,-18.777826,0.33243835,1.1965544,-5.3284855
1.48,3.1068592,6.912661,-18.728199,0.4312929,0.9977255,-5.258022
1.482,3.3003316,6.587225,-18.66388,0.5235301,0.79474974,-5.1874175
1.484,3.500023,6.2733803,-18.586658,0.60942423,0.58811474,-5.117211
1.486,3.7028918,5.974086,-18.498158,0.6892929,0.37837148,-5.0478435
1.488,3.9059525,5.6924806,-18.400322,0.7634615,0.1660533,-4.9796624
1.49,4.1060514,5.4316454,-18.295279,0.832245,-0.048350334,-4.912874
1.492,4.300155,5.1945243,-18.185154,0.8959173,-0.26437414,-4.8475437
1.494,4.485278,4.9838767,-18.071936,0.9546995,-0.48167133,-4.783603
1.496,4.6584773,4.802414,-17.957851,1.0087664,-0.6999887,-4.7208834
1.498,4.817762,4.65236,-17.8439,1.05825,-0.91919404,-4.6591597
1.5,4.9604883,4.5355253,-17.732342,1.1032202,-1.1392944,-4.5982194
1.502,5.085449,4.452925,-17.62547,1.1437311,-1.3603562,-4.5378895
1.504,5.1917706,4.4055133,-17.524446,1.1798441,-1.5824833,-4.478089
1.506,5.278243,4.39412,-17.430336,1.2115979,-1.8058069,-4.4188013
1.508,5.3444157,4.4185534,-17.343893,1.2390975,-2.030391,-4.360138
1.51,5.3902297,4.4780564,-17.26574,1.2624825,-2.256198,-4.302302
1.512,5.4160357,4.5719347,-17.196104,1.2819752,-2.4830415,-4.245539
1.514,5.4229727,4.6988378,-17.13505,1.2978462,-2.7105129,-4.1901174
1.516,5.412487,4.856724,-17.082127,1.3104379,-2.9380052,-4.1362853
1.518,5.386305,5.0433407,-17.036654,1.3201644,-3.1647027,-4.084279
1.52,5.346512,5.255955,-16.997343,1.3275125,-3.3895977,-4.034292
1.522,5.295448,5.491618,-16.962774,1.333008,-3.6115327,-3.9864492
1.524,5.2354183,5.747324,-16.931484,1.3371927,-3.8292332,-3.9408267
1.526,5.1693745,6.0199165,-16.90184,1.3405887,-4.0413933,-3.8974805
1.528,5.099905,6.3060846,-16.872274,1.3436978,-4.246711,-3.856501
1.53,5.0296617,6.6026316,-16.8409,1.3469625,-4.443915,-3.8179934
1.532,4.9609814,6.906381,-16.805489,1.3507923,-4.6317816,-3.7820628
1.534,4.896148,7.2144127,-16.764015,1.355514,-4.809227,-3.7488298
1.536,4.83685,7.5242357,-16.714762,1.3613662,-4.9752884,-3.718472
1.538,4.7845054,7.8332186,-16.655994,1.3685321,-5.129188,-3.6912131
1.54,4.740493,8.139369,-16.586248,1.3771234,-5.270294,-3.6673431
1.542,4.7056546,8.440878,-16.504461,1.3871797,-5.3981423,-3.6472147
1.544,4.680956,8.736024,-16.409561,1.3986818,-5.5124326,-3.6312141
1.546,4.666522,9.023339,-16.300823,1.4115669,-5.6130376,-3.619742
1.548,4.661999,9.301585,-16.178017,1.4257344,-5.6999846,-3.6131904
1.55,4.6668816,9.57002,-16.041103,1.4410586,-5.773452,-3.6119075
1.552,4.6797643,9.828244,-15.890276,1.4573965,-5.8337507,-3.6161642
1.554,4.698992,10.075931,-15.726131,1.4745666,-5.881282,-3.6261344
1.556,4.722699,10.312824,-15.549018,1.4923468,-5.916591,-3.6419148
1.558,4.7488565,10.539082,-15.359104,1.5104786,-5.940319,-3.663526
1.56,4.774995,10.75489,-15.157183,1.5286994,-5.9531593,-3.6909275
1.562,4.7988534,10.960489,-14.943984,1.5467267,-5.9558516,-3.7240276
1.564,4.818045,11.156149,-14.720564,1.5642498,-5.9491596,-3.7627196
1.566,4.8301954,11.342094,-14.487787,1.5809925,-5.933822,-3.8069458
1.568,4.833187,11.518667,-14.246683,1.5967262,-5.910528,-3.8566523
1.57,4.8254423,11.686203,-13.99851,1.6112552,-5.8798475,-3.9118009
1.572,4.805409,11.844822,-13.74407,1.6244289,-5.842231,-3.9723635
1.574,4.77187,11.9948,-13.484485,1.636142,-5.7980137,-4.038318
1.576,4.723828,12.136534,-13.221188,1.6463237,-5.74736,-4.109639
1.578,4.6611123,12.270163,-12.955301,1.6549137,-5.6902966,-4.186265
1.58,4.5839505,12.395953,-12.687393,1.6618447,-5.626683,-4.268093
1.582,4.4932375,12.514202,-12.4182415,1.6670365,-5.5562334,-4.354996
1.584,4.3903046,12.625199,-12.148469,1.670376,-5.4785314,-4.4468484
1.586,4.2767563,12.728997,-11.878927,1.671724,-5.393041,-4.543531
1.588,4.1548543,12.8257065,-11.610383,1.6709471,-5.299054,-4.644951
1.59,4.026978,12.915929,-11.343256,1.6679226,-5.1957364,-4.751021
1.592,3.8958108,13.000341,-11.078194,1.6625571,-5.082141,-4.861672
1.594,3.764554,13.07976,-10.815824,1.6548355,-4.957224,-4.976869
1.596,3.6363022,13.155057,-10.556219,1.6448306,-4.819859,-5.0965967
1.598,3.5142164,13.227407,-10.299696,1.632689,-4.6688795,-5.2208724
1.6,3.4014468,13.29831,-10.046469,1.6186477,-4.503091,-5.349718
1.602,3.3011546,13.369281,-9.796835,1.6029977,-4.3213234,-5.483133
1.604,3.216662,13.441751,-9.551003,1.5860617,-4.122478,-5.6210966
1.606,3.1511574,13.51731,-9.309339,1.5681841,-3.905556,-5.763566
1.608,3.1076677,13.597839,-9.072335,1.5497097,-3.669693,-5.910483
1.61,3.0890307,13.68534,-8.840593,1.5309898,-3.414133,-6.061714
1.612,3.098191,13.781842,-8.614162,1.512354,-3.1382809,-6.2170615
1.614,3.1379993,13.889354,-8.3935585,1.4940958,-2.8417845,-6.376324
1.616,3.21131,14.0095415,-8.179463,1.4765053,-2.5245116,-6.53928
1.618,3.3208525,14.143967,-7.972804,1.4598601,-2.1865804,-6.7056847
1.62,3.4691348,14.294523,-7.7748256,1.4444283,-1.8283439,-6.8752804
1.622,3.658807,14.462452,-7.5868273,1.4304658,-1.4503961,-7.047827
1.624,3.8920212,14.649135,-7.4102516,1.4182314,-1.0535736,-7.223094
1.626,4.1710424,14.85572,-7.2464366,1.407969,-0.638922,-7.4008245
1.628,4.497529,15.082997,-7.097004,1.3999505,-0.2076416,-7.58076
1.63,4.8729763,15.331724,-6.96388,1.3944442,0.23891234,-7.762644
1.632,5.2990646,15.602548,-6.848095,1.3917736,0.6992395,-7.946203
1.634,5.777375,15.895636,-6.7509627,1.3922703,1.171736,-8.131129
1.636,6.308686,16.210947,-6.673832,1.3962904,1.6546943,-8.317041
1.638,6.8940487,16.548128,-6.616925,1.4042258,2.146317,-8.503549
1.64,7.533983,16.906773,-6.580838,1.4165021,2.644739,-8.690231
1.642,8.228484,17.28647,-6.5666513,1.4335476,3.1479793,-8.8766365
1.644,8.977378,17.686615,-6.5753675,1.4557531,3.6540082,-9.062356
1.646,9.780332,18.106262,-6.6078973,1.4834563,4.160783,-9.246941
1.648,10.636799,18.54464,-6.6647635,1.5169019,4.666285,-9.429929
1.65,11.54578,19.000988,-6.746079,1.5562396,5.1685805,-9.610834
1.652,12.505575,19.474674,-6.8518853,1.6014934,5.6658645,-9.789133
1.654,13.5139885,19.965082,-6.9816427,1.6525706,6.156604,-9.964237
1.656,14.568528,20.471504,-7.1345663,1.7092822,6.6395655,-10.135511
1.658,15.665743,20.99337,-7.309439,1.7713447,7.113819,-10.30222
1.66,16.802286,21.52988,-7.505047,1.8384061,7.5786653,-10.46354
1.662,17.97398,22.080078,-7.720218,1.9100409,8.033664,-10.618534
1.664,19.176426,22.643066,-7.953574,1.9858131,8.478815,-10.76625
1.666,20.404974,23.21799,-8.203897,2.0652828,8.914318,-10.905758
1.668,21.654192,23.803955,-8.469634,2.1480303,9.340517,-11.036039
1.67,22.918652,24.399708,-8.748832,2.2337184,9.7579155,-11.15604
1.672,24.19244,25.00401,-9.039467,2.3221076,10.167038,-11.264737
1.674,25.46966,25.615263,-9.339409,2.4130392,10.568394,-11.361151
1.676,26.744516,26.231602,-9.646671,2.506447,10.962498,-11.444371
1.678,28.010849,26.851288,-9.959032,2.6023993,11.349921,-11.513569
1.68,29.263193,27.472227,-10.273954,2.7010531,11.731318,-11.567966
1.682,30.496183,28.092434,-10.589106,2.8026395,12.107447,-11.606891
1.684,31.7054,28.708937,-10.90239,2.9074435,12.47919,-11.629734
1.686,32.88703,29.319138,-11.210746,3.015728,12.847614,-11.635941
1.688,34.036858,29.92125,-11.511962,3.1277297,13.213873,-11.625012
1.69,35.152775,30.512241,-11.804597,3.2435458,13.5791,-11.596545
1.692,36.232822,31.089577,-12.086176,3.3630621,13.944298,-11.550133
1.694,37.27567,31.65128,-12.354274,3.4859283,14.310186,-11.485458
1.696,38.281727,32.194935,-12.606996,3.61155,14.677166,-11.402338
1.698,39.2522,32.718502,-12.842802,3.7390673,15.045206,-11.300717
1.7,40.18897,33.220074,-13.060137,3.867419,15.413866,-11.180726
1.702,41.095016,33.697945,-13.257913,3.9953907,15.782361,-11.042711
1.704,41.97455,34.150482,-13.435334,4.1216574,16.149673,-10.887218
1.706,42.832054,34.57655,-13.591533,4.244885,16.514694,-10.714994
1.708,43.672928,34.974945,-13.726044,4.363748,16.876274,-10.526928
1.71,44.50328,35.34463,-13.838728,4.4769497,17.233395,-10.324053
1.712,45.329857,35.684708,-13.930164,4.583275,17.585163,-10.107489
1.714,46.159645,35.994717,-14.001019,4.6815796,17.930962,-9.878445
1.716,46.999855,36.274475,-14.051985,4.7707257,18.270252,-9.638045
1.718,47.8584,36.523407,-14.084097,4.849642,18.602404,-9.387365
1.72,48.742718,36.741077,-14.0984335,4.917333,18.926962,-9.127508
1.722,49.660004,36.92677,-14.0962105,4.972714,19.24344,-8.859525
1.724,50.61699,37.07996,-14.078514,5.0147433,19.551256,-8.584499
1.726,51.620277,37.200237,-14.04681,5.042407,19.84981,-8.303439
1.728,52.676205,37.287148,-14.003082,5.0547304,20.138445,-8.017313
1.73,53.791283,37.339302,-13.949265,5.0507507,20.416307,-7.7269745
1.732,54.971157,37.355682,-13.887165,5.02956,20.682514,-7.433202
1.734,56.220623,37.33513,-13.818064,4.9902678,20.936071,-7.1366687
1.736,57.544273,37.276352,-13.742929,4.9320397,21.17585,-6.8379064
1.738,58.947304,37.177406,-13.662537,4.854081,21.40064,-6.53726
1.74,60.435257,37.036438,-13.577822,4.755687,21.609217,-6.234915
1.742,62.01297,36.851555,-13.490326,4.6361656,21.800299,-5.9307966
1.744,63.685745,36.621147,-13.400869,4.494885,21.972668,-5.624597
1.746,65.460075,36.344006,-13.3099575,4.331209,22.125345,-5.3158746
1.748,67.341095,36.020493,-13.219185,4.1444917,22.257555,-5.004041
1.75,69.33536,35.652386,-13.129971,3.9340506,22.369087,-4.6884193
1.752,71.44891,35.243397,-13.042503,3.6991549,22.460297,-4.368243
1.754,73.68684,34.799454,-12.956448,3.4389334,22.532227,-4.0427327
1.756,76.05409,34.328064,-12.871124,3.15237,22.586666,-3.711114
1.758,78.55635,33.837124,-12.7883835,2.8383045,22.626188,-3.3726492
1.76,81.199135,33.336536,-12.712322,2.4954004,22.654041,-3.0265937
1.762,83.990654,32.84256,-12.652222,2.1221738,22.673996,-2.6721144
1.764,86.91942,32.392616,-12.613426,1.7171097,22.690256,-2.3082843
1.766,89.9848,32.00635,-12.584087,1.2787523,22.707306,-1.934133
1.768,93.18593,31.680605,-12.558792,0.8058095,22.72967,-1.5486465
1.77,96.52617,31.440235,-12.548851,0.29721355,22.76162,-1.150672
1.772,100.001595,31.332754,-12.558018,-0.24797821,22.806948,-0.7388046
1.774,103.60527,31.399305,-12.584084,-0.83029175,22.868658,-0.31123877
1.776,107.33319,31.68414,-12.636089,-1.449727,22.948872,0.13417268
1.778,111.172554,32.237312,-12.724236,-2.105823,23.048706,0.59996486
1.78,115.1151,33.099773,-12.8587,-2.7976356,23.16807,1.0888844
1.782,119.162964,34.295845,-13.043774,-3.5237265,23.305637,1.6036829
1.784,123.279144,35.924103,-13.28117,-4.282136,23.458733,2.1469026
1.786,127.477295,37.958893,-13.5385685,-5.0704317,23.623476,2.720693
1.788,131.75633,40.41143,-13.850435,-5.8858824,23.794817,3.3267386
1.79,136.1357,43.281628,-14.2900505,-6.72561,23.966148,3.966041
1.792,140.54205,46.69312,-14.90575,-7.5867424,24.128983,4.638646
1.794,144.95561,50.65075,-15.642159,-8.467499,24.270933,5.3420625
1.796,149.37798,55.21192,-16.49031,-9.368127,24.377172,6.0727153
1.798,153.8041,60.38262,-17.401146,-10.289347,24.432238,6.82762
1.8,158.235,66.16586,-18.346075,-11.232464,24.418161,7.604595
1.802,162.66301,72.49806,-19.323841,-12.202141,24.31126,8.401711
1.804,167.09836,79.33902,-20.299465,-13.204993,24.08491,9.217851
1.806,171.5615,86.64883,-21.256397,-14.248638,23.710815,10.054001
1.808,176.0737,94.35359,-22.138088,-15.342119,23.158026,10.913624
1.81,180.66864,102.385864,-22.918842,-16.495434,22.394672,11.804731
1.812,185.38138,110.65648,-23.551159,-17.717701,21.390284,12.742956
1.814,190.25368,119.07711,-24.003555,-19.015154,20.11538,13.7480955
1.816,195.28613,127.5718,-24.25454,-20.393072,18.540358,14.845861
1.818,200.45566,136.03818,-24.235523,-21.849087,16.643848,16.074516
1.82,205.73416,144.3682,-23.8704,-23.371708,14.425539,17.452396
1.822,211.1188,152.43521,-23.067844,-24.947823,11.889607,19.006107
1.824,216.62431,160.00291,-21.768871,-26.569908,9.061098,20.76031
1.826,222.1852,166.9027,-19.908077,-28.242737,5.9702024,22.722586
1.828,227.85034,172.9961,-17.406223,-29.962955,2.6377063,24.875668
1.83,233.56049,178.27106,-14.2085,-31.711058,-0.89589405,27.193851
1.832,239.22145,182.66438,-10.264931,-33.470028,-4.572173,29.639343
1.834,244.72871,186.09155,-5.527152,-35.227753,-8.319542,32.13101
1.836,249.97696,188.4856,0.036819935,-36.988018,-12.0767,34.571724
1.838,254.84639,189.8065,6.4273615,-38.759216,-15.797568,36.85573
1.84,259.1911,190.05661,13.605047,-40.533745,-19.443571,38.853878
1.842,262.8659,189.27504,21.497385,-42.28233,-22.985365,40.425064
1.844,265.75525,187.51093,30.021513,-43.956802,-26.410887,41.425533
1.846,267.7499,184.817,39.09691,-45.48199,-29.724468,41.719074
1.848,268.72372,181.2742,48.629494,-46.753548,-32.934334,41.19577
1.85,268.56274,176.9725,58.494606,-47.640846,-36.036777,39.775578
1.852,267.19592,172.00134,68.51016,-47.997086,-39.002335,37.41678
1.854,264.5698,166.48074,78.472145,-47.678925,-41.77124,34.134125
1.856,260.67175,160.53618,88.175995,-46.5593,-44.25449,30.018158
1.858,255.53601,154.29701,97.4153,-44.54679,-46.337368,25.22979
1.86,249.2253,147.89821,105.9906,-41.60545,-47.887672,19.954737
1.862,241.83539,141.47458,113.705826,-37.763554,-48.776524,14.404602
1.864,233.49742,135.15681,120.377335,-33.114582,-48.895844,8.822203
1.866,224.37201,129.06813,125.85237,-27.811514,-48.17478,3.4654217
1.868,214.6341,123.32428,130.02202,-22.05258,-46.58991,-1.4063091
1.87,204.469,118.02501,132.81744,-16.059292,-44.169533,-5.553482
1.872,194.06662,113.24605,134.21024,-10.06294,-41.00247,-8.782265
1.874,183.6319,109.02757,134.20374,-4.2879925,-37.240303,-10.941906
1.876,173.34416,105.4129,132.82764,1.0707989,-33.063904,-11.973691
1.878,163.36414,102.44236,130.16232,5.8667336,-28.676193,-11.903896
1.88,153.82565,100.105896,126.33772,10.004161,-24.269539,-10.836852
1.882,144.8442,98.3611,121.49985,13.417894,-20.015991,-8.949515
1.884,136.509,97.16332,115.80795,16.076845,-16.086662,-6.4950194
1.886,128.87755,96.45514,109.44515,18.0014,-12.626671,-3.7700858
1.888,121.984856,96.16647,102.59854,19.253023,-9.741362,-1.0633848
1.89,115.83157,96.22868,95.45031,19.93011,-7.4773674,1.3411062
1.892,110.385956,96.577194,88.167946,20.144794,-5.8305078,3.1970143
1.894,105.62874,97.07829,80.90203,20.005386,-4.761626,4.3373084
1.896,101.47155,97.7154,73.75913,19.618801,-4.197795,4.675858
1.898,97.8367,98.410095,66.888565,19.094185,-4.0296164,4.2093587
1.9,94.62611,99.086685,60.427406,18.53207,-4.1208873,3.0132737
1.902,91.82069,99.57049,54.440063,18.01839,-4.3276844,1.2256017
1.904,89.331665,99.83133,48.877617,17.61945,-4.516405,-0.965158
1.906,87.05876,99.79447,43.739067,17.379244,-4.5744805,-3.344603
1.908,84.92413,99.44777,38.98256,17.323284,-4.4131856,-5.704031
1.91,82.85747,98.78328,34.588333,17.454565,-3.9735832,-7.866226
1.912,80.81169,97.84644,30.55272,17.756098,-3.2368698,-9.688925
1.914,78.736404,96.643776,26.833355,18.1984,-2.224329,-11.050526
1.916,76.58971,95.18025,23.407969,18.742128,-0.98595715,-11.885702
1.918,74.34663,93.48893,20.222683,19.341368,0.40458202,-12.20126
1.92,71.98588,91.58939,17.263315,19.948158,1.8598318,-12.058371
1.922,69.49836,89.51675,14.501179,20.516106,3.2901516,-11.553398
1.924,66.8795,87.29943,11.931095,21.003899,4.6135683,-10.7988825
1.926,64.16559,84.95453,9.557541,21.379787,5.766346,-9.904763
1.928,61.397697,82.52547,7.3472595,21.625551,6.709684,-8.964642
1.93,58.600353,80.05634,5.2780533,21.733074,7.425127,-8.049747
1.932,55.75997,77.60101,3.330555,21.698132,7.9075255,-7.206409
1.934,52.847965,75.287186,1.5243568,21.522865,8.165695,-6.456165
1.936,49.902893,73.13936,-0.13131714,21.217333,8.225315,-5.800619
1.938,46.85006,71.14938,-1.6417503,20.796528,8.12295,-5.224466
1.94,43.729668,69.219444,-2.994648,20.278465,7.8980885,-4.701762
1.942,40.590023,67.3477,-4.186857,19.682201,7.5909214,-4.204197
1.944,37.463326,65.56901,-5.227371,19.025984,7.2383804,-3.706164
1.946,34.36503,63.907562,-6.1235332,18.326939,6.8710966,-3.1886983
1.948,31.313692,62.37356,-6.8736267,17.60122,6.5144625,-2.641755
1.95,28.341297,60.957466,-7.4692135,16.86428,6.189028,-2.063128
1.952,25.469524,59.642685,-7.9080753,16.129753,5.9087276,-1.4571338
1.954,22.694935,58.430637,-8.211987,15.408633,5.680545,-0.83380127
1.956,20.022385,57.337433,-8.426064,14.709726,5.506696,-0.2067709
1.958,17.484858,56.365562,-8.592529,14.039925,5.3861885,0.40967035
1.96,15.110251,55.52112,-8.733711,13.403919,5.3155575,1.0025964
1.962,12.903022,54.815495,-8.835091,12.804384,5.289536,1.5614543
1.964,10.874515,54.234093,-8.886518,12.242321,5.3016477,2.078239
1.966,9.020299,53.764923,-8.893949,11.717445,5.344822,2.547243
1.968,7.326441,53.39435,-8.86673,11.228646,5.4124727,2.964902
1.97,5.7851334,53.10467,-8.817857,10.774304,5.499213,3.3297668
1.972,4.3887825,52.878235,-8.7532625,10.352471,5.60081,3.6423488
1.974,3.1252155,52.6989,-8.67652,9.961052,5.7141953,3.90484
1.976,1.9803724,52.55359,-8.598337,9.597944,5.8372717,4.1207466
1.978,0.94547844,52.430275,-8.537067,9.261103,5.968705,4.2945642
1.98,0.0143013,52.322353,-8.508192,8.948584,6.1077075,4.4312224
1.982,-0.82088184,52.22932,-8.520788,8.658585,6.2537255,4.5356116
1.984,-1.569315,52.154007,-8.579047,8.389331,6.4060965,4.612338
1.986,-2.2392006,52.098602,-8.684834,8.138987,6.563632,4.6657
1.988,-2.838025,52.062782,-8.8390465,7.905468,6.7243032,4.699729
1.99,-3.3733397,52.04459,-9.041586,7.6864405,6.8851004,4.7181883
1.992,-3.8548317,52.040474,-9.289062,7.47929,7.042046,4.7244473
1.994,-4.293947,52.046024,-9.574829,7.2812324,7.1901402,4.721371
1.996,-4.704962,52.057053,-9.892164,7.0892687,7.323369,4.7112436
1.998,-5.1020045,52.068317,-10.234667,6.9002466,7.43511,4.6960077
2,-5.498205,52.074295,-10.595543,6.711003,7.5184464,4.6774387
2.002,-5.9056716,52.070755,-10.967358,6.518387,7.566345,4.657227
2.004,-6.334012,52.053497,-11.341366,6.319396,7.5719156,4.637143
2.006,-6.790457,52.019352,-11.708109,6.1112595,7.5286684,4.619208
2.008,-7.279985,51.9667,-12.057721,5.891543,7.4308195,4.60588
2.01,-7.8052816,51.894623,-12.380774,5.6582203,7.273556,4.599988
2.012,-8.367427,51.801445,-12.668149,5.4096913,7.05317,4.6046143
2.014,-8.965412,51.684677,-12.91065,5.144721,6.7672305,4.6232057
2.016,-9.596593,51.540558,-13.098572,4.862462,6.4147267,4.659474
2.018,-10.255527,51.364525,-13.223017,4.5624123,5.9959598,4.717216
2.02,-10.936035,51.151684,-13.274769,4.244356,5.5124435,4.7999625
2.022,-11.630096,50.89706,-13.244547,3.9084272,4.966815,4.910551
2.024,-12.327713,50.595356,-13.124536,3.555076,4.362643,5.0507755
2.026,-13.018395,50.24162,-12.907995,3.1851301,3.704321,5.2209783
2.028,-13.690787,49.831207,-12.589592,2.7999568,2.9969223,5.419479
2.03,-14.332536,49.35965,-12.165003,2.4014366,2.2460182,5.642458
2.032,-14.931802,48.82369,-11.630894,1.9920961,1.4575903,5.8838167
2.034,-15.476918,48.22032,-10.985483,1.5751259,0.6380732,6.135355
2.036,-15.957892,47.54765,-10.228518,1.1543336,-0.20564595,6.387261
2.038,-16.365702,46.80478,-9.361415,0.7341027,-1.066016,6.628665
2.04,-16.693163,45.991665,-8.387051,0.31921792,-1.9346946,6.8483973
2.042,-16.93388,45.109554,-7.3098383,-0.08538842,-2.8025594,7.035875
2.044,-17.0835,44.16055,-6.135751,-0.47494888,-3.659755,7.1819353
2.046,-17.139336,43.14796,-4.8723974,-0.845176,-4.495761,7.279565
2.048,-17.100777,42.07635,-3.5288153,-1.1924993,-5.2994604,7.324339
2.05,-16.96965,40.951534,-2.114869,-1.514183,-6.059301,7.3145556
2.052,-16.749142,39.779827,-0.6418438,-1.8085291,-6.763814,7.250984
2.054,-16.443817,38.56881,0.8775015,-2.074923,-7.402022,7.1366854
2.056,-16.0599,37.32661,2.4296207,-2.3137603,-7.963713,6.976763
2.058,-15.604378,36.061695,4.0002747,-2.52618,-8.439755,6.777649
2.06,-15.085039,34.782764,5.5747986,-2.7138197,-8.822473,6.5464406
2.062,-14.510464,33.49832,7.138424,-2.8785691,-9.106019,6.2903085
2.064,-13.889356,32.216934,8.676457,-3.0222774,-9.286593,6.0161242
2.066,-13.230003,30.946615,10.174093,-3.146494,-9.36245,5.730093
2.068,-12.541112,29.694632,11.617058,-3.2522666,-9.333971,5.4373302
2.07,-11.831127,28.467457,12.991541,-3.3401005,-9.203679,5.141713
2.072,-11.108117,27.270668,14.285158,-3.4099512,-8.975931,4.845892
2.074,-10.379735,26.109642,15.486363,-3.461339,-8.656803,4.5515623
2.076,-9.650713,24.987766,16.58486,-3.493601,-8.253917,4.259661
2.078,-8.926622,23.908108,17.57246,-3.506053,-7.776159,3.9705133
2.08,-8.212647,22.872896,18.442476,-3.4982758,-7.233438,3.684132
2.082,-7.5132046,21.883854,19.189621,-3.4703536,-6.6364455,3.4005704
2.084,-6.8324566,20.942337,19.81073,-3.422898,-5.996278,3.119905
2.086,-6.1743097,20.049118,20.303944,-3.3572202,-5.3241963,2.842357
2.088,-5.541486,19.2043,20.669428,-3.2752945,-4.631336,2.5683727
2.09,-4.9367323,18.407324,20.909056,-3.1796541,-3.9283984,2.2985055
2.092,-4.3619957,17.65744,21.026564,-3.0733166,-3.225428,2.033409
2.094,-3.818594,16.953974,21.027645,-2.9595454,-2.5315142,1.7737634
2.096,-3.3074017,16.29671,20.91954,-2.8416562,-1.8545433,1.5201486
2.098,-2.828127,15.685083,20.710041,-2.722895,-1.2011092,1.2730131
2.1,-2.379898,15.117472,20.408129,-2.6062999,-0.5764794,1.0327191
2.102,-1.9614553,14.592733,20.023209,-2.494635,0.015444577,0.7995597
2.104,-1.5716887,14.109989,19.565039,-2.3903337,0.5720612,0.57382476
2.106,-1.2084665,13.667427,19.044102,-2.2954302,1.0918949,0.35581934
2.108,-0.8690014,13.263502,18.471153,-2.211578,1.5745304,0.14574456
2.11,-0.5509167,12.897118,17.856762,-2.1400304,2.0203974,-0.056347013
2.112,-0.25160217,12.566423,17.210745,-2.0817719,2.4305067,-0.2504635
2.114,0.031227112,12.270167,16.54251,-2.0374599,2.8062809,-0.4366883
2.116,0.30054474,12.007145,15.860781,-2.00744,3.1494608,-0.6152415
2.118,0.55914116,11.775726,15.173546,-1.9918046,3.4619164,-0.7864473
2.12,0.80984306,11.5743885,14.488449,-1.9903793,3.7455688,-0.95072234
2.122,1.0556211,11.4017935,13.811899,-2.0027845,4.0023375,-1.108544
2.124,1.2991138,11.256448,13.149149,-2.028457,4.2341046,-1.2603899
2.126,1.5430975,11.136733,12.504236,-2.0666904,4.44267,-1.4066933
2.128,1.7898579,11.040813,11.881043,-2.1166859,4.629733,-1.5478196
2.13,2.042583,10.966773,11.282293,-2.1775434,4.796938,-1.6840785
2.132,2.303846,10.912768,10.709753,-2.2483375,4.9458637,-1.8156981
2.134,2.575399,10.876998,10.165055,-2.3280735,5.0780272,-1.9428849
2.136,2.859301,10.857672,9.64896,-2.4157467,5.194927,-2.0658507
2.138,3.156908,10.85285,9.162017,-2.5103345,5.298022,-2.1848247
2.14,3.469064,10.860861,8.704446,-2.6108096,5.388744,-2.3001046
2.142,3.7966094,10.879694,8.276154,-2.716148,5.468492,-2.4120617
2.144,4.1395283,10.907511,7.876708,-2.8253205,5.53863,-2.5211544
2.146,4.497609,10.942566,7.5056973,-2.9373083,5.6004744,-2.6278992
2.148,4.8700542,10.983332,7.1622295,-3.0511308,5.6552286,-2.73284
2.15,5.2560744,11.028024,6.8454666,-3.16584,5.7039957,-2.8365397
2.152,5.6542387,11.075456,6.554364,-3.2805333,5.7478004,-2.939538
2.154,6.062875,11.124598,6.287652,-3.3943663,5.787514,-3.0423698
2.156,6.480512,11.174487,6.044221,-3.5065827,5.823869,-3.1455085
2.158,6.905358,11.224485,5.82291,-3.6165,5.8574405,-3.249371
2.16,7.335608,11.274148,5.622547,-3.7235136,5.888662,-3.3542776
2.162,7.769122,11.323585,5.4420195,-3.8270879,5.917858,-3.4604137
2.164,8.203667,11.372658,5.2802567,-3.926738,5.945288,-3.5678635
2.166,8.637425,11.42134,5.1360354,-4.0220056,5.971146,-3.676597
2.168,9.068422,11.469978,5.0081263,-4.112456,5.995648,-3.7864969
2.17,9.49465,11.5186615,4.895316,-4.197658,6.0190387,-3.8973503
2.172,9.914282,11.567864,4.7963963,-4.2771707,6.041653,-4.0088615
2.174,10.3258705,11.617907,4.7103834,-4.3505526,6.0639215,-4.1206594
2.176,10.727564,11.66934,4.6361485,-4.4173656,6.086396,-4.232281
2.178,11.118486,11.722804,4.572439,-4.47717,6.1097255,-4.3432174
2.18,11.497746,11.778823,4.518118,-4.529571,6.134645,-4.4529085
2.182,11.8646145,11.838237,4.4719067,-4.5742292,6.1619315,-4.5607643
2.184,12.218712,11.901478,4.432571,-4.6108947,6.19232,-4.6661563
2.186,12.559833,11.969136,4.3991513,-4.639393,6.226502,-4.7684374
2.188,12.888301,12.04148,4.3704667,-4.659681,6.265063,-4.866954
2.19,13.204599,12.118684,4.345539,-4.6718,6.3084674,-4.961088
2.192,13.509655,12.200853,4.323584,-4.675915,6.3569865,-5.0502877
2.194,13.80463,12.287775,4.303682,-4.6722927,6.410756,-5.1340923
2.196,14.090554,12.379233,4.2850456,-4.6612606,6.4696975,-5.2121286
2.198,14.368359,12.474995,4.2666216,-4.6432195,6.533601,-5.2841434
2.2,14.640106,12.574457,4.247995,-4.6185875,6.6021075,-5.3500247
2.202,14.907396,12.676827,4.2288117,-4.587765,6.674782,-5.409813
2.204,15.172023,12.7812605,4.208677,-4.5511417,6.751095,-5.4637156
2.206,15.4361725,12.886564,4.187385,-4.5090632,6.830484,-5.5121017
2.208,15.701453,12.99127,4.1647863,-4.4618554,6.912408,-5.55549
2.21,15.969766,13.093922,4.1406894,-4.409779,6.996365,-5.594544
2.212,16.242756,13.192536,4.1151595,-4.3530583,7.0819,-5.6300125
2.214,16.521801,13.285285,4.0884914,-4.291866,7.168619,-5.6627007
2.216,16.807781,13.370327,4.060865,-4.226323,7.2561803,-5.693409
2.218,17.101664,13.445488,4.0324345,-4.1564984,7.344268,-5.7228746
2.22,17.403913,13.50873,4.00363,-4.0824275,7.4325914,-5.751731
2.222,17.714546,13.558017,3.9748554,-4.0040746,7.520895,-5.7804446
2.224,18.033218,13.591365,3.9463825,-3.9213684,7.6088934,-5.809326
2.226,18.359356,13.606757,3.9185722,-3.8341794,7.696328,-5.838564
2.228,18.69193,13.602528,3.891709,-3.7423642,7.7828927,-5.8681674
2.23,19.029198,13.577135,3.8658726,-3.6457481,7.868329,-5.8980103
2.232,19.369278,13.529264,3.8413804,-3.5441084,7.9524527,-5.927884
2.234,19.710197,13.45793,3.8183172,-3.437192,8.035153,-5.957536
2.236,20.049776,13.362097,3.7967486,-3.3247695,8.116403,-5.986685
2.238,20.385406,13.240893,3.7765841,-3.2066052,8.196303,-6.015039
2.24,20.714077,13.093808,3.7577639,-3.0824862,8.275019,-6.042356
2.242,21.032997,12.9207945,3.7400243,-2.9522502,8.3527565,-6.0683722
2.244,21.339264,12.722069,3.7229652,-2.8157983,8.42977,-6.0928054
2.246,21.630062,12.498066,3.7061796,-2.6730795,8.506344,-6.115375
2.248,21.902578,12.249483,3.6891584,-2.52414,8.582752,-6.1358137
2.25,22.154081,11.977179,3.6712065,-2.3691015,8.659213,-6.153851
2.252,22.382147,11.68238,3.6515985,-2.2081606,8.735851,-6.169218
2.254,22.584314,11.366474,3.6298406,-2.0415998,8.812711,-6.1816363
2.256,22.758883,11.030954,3.6050143,-1.8697624,8.8896475,-6.1907763
2.258,22.904154,10.677313,3.5765529,-1.6930735,8.966367,-6.19625
2.26,23.018894,10.307524,3.5436497,-1.5119905,9.04233,-6.1976132
2.262,23.10215,9.923334,3.505669,-1.327013,9.11684,-6.19439
2.264,23.15324,9.526657,3.4620342,-1.138695,9.1889925,-6.1860847
2.266,23.171633,9.119455,3.412187,-0.94762564,9.257696,-6.172187
2.268,23.15758,8.703739,3.3556604,-0.7544229,9.321711,-6.152223
2.27,23.11118,8.28159,3.2920697,-0.5597491,9.37966,-6.1257644
2.272,23.033178,7.8548026,3.2213507,-0.36431336,9.430131,-6.0924625
2.274,22.924572,7.4253626,3.1434665,-0.16884637,9.471714,-6.052118
2.276,22.78631,6.995347,3.0587358,0.025898218,9.503044,-6.004694
2.278,22.61961,6.5667152,2.9675968,0.21914935,9.5228195,-5.95024
2.28,22.425951,6.14143,2.8704515,0.41011715,9.529842,-5.8889055
2.282,22.206964,5.7213044,2.767967,0.59801006,9.523048,-5.820912
2.284,21.964191,5.3081684,2.660575,0.7820382,9.501474,-5.7464924
2.286,21.699596,4.903819,2.5490227,0.9613724,9.464256,-5.665813
2.288,21.414606,4.510005,2.434181,1.135196,9.410686,-5.578991
2.29,21.111145,4.12846,2.3168323,1.3027275,9.340196,-5.486079
2.292,20.790958,3.7609262,2.1979375,1.4632106,9.252392,-5.387116
2.294,20.455784,3.4090738,2.078431,1.6159009,9.147086,-5.282135
2.296,20.107504,3.074307,1.9590046,1.7601165,9.024319,-5.1712637
2.298,19.747816,2.758071,1.8406024,1.8952359,8.884348,-5.0547442
2.3,19.378666,2.4616394,1.723918,2.0206845,8.727682,-4.9329805
2.302,19.001726,2.1861057,1.6096134,2.135972,8.555033,-4.8065386
2.304,18.618721,1.9325209,1.4982994,2.2406564,8.367336,-4.6761665
2.306,18.232048,1.7013512,1.3905804,2.334375,8.165697,-4.542774
2.308,17.843754,1.493012,1.287046,2.4168477,7.951361,-4.407384
2.31,17.455357,1.3077583,1.1878779,2.4878964,7.7256637,-4.2710896
2.312,17.068727,1.1456399,1.0933387,2.5474634,7.489957,-4.135002
2.314,16.6856,1.0064907,1.0037167,2.5956035,7.245579,-4.0001597
2.316,16.307732,0.8900485,0.9192116,2.6325336,6.993802,-3.8675125
2.318,15.936882,0.79584837,0.8401234,2.6586285,6.735805,-3.7378933
2.32,15.574644,0.72329664,0.76673675,2.6743941,6.472703,-3.612051
2.322,15.222681,0.67178917,0.6992259,2.6804662,6.2054815,-3.4906034
2.324,14.882488,0.6402774,0.63770485,2.6775775,5.93499,-3.3740659
2.326,14.555695,0.6277828,0.58240056,2.6665373,5.661969,-3.262803
2.328,14.243364,0.63329315,0.53346825,2.6481562,5.387034,-3.1570575
2.33,13.946436,0.6557121,0.49111557,2.6232128,5.11073,-3.0569468
2.332,13.666052,0.69393635,0.45557356,2.5924327,4.8335514,-2.9625201
2.334,13.402848,0.7469125,0.4270184,2.5564852,4.5559616,-2.8737288
2.336,13.157349,0.8137102,0.40585756,2.515957,4.278404,-2.7904806
2.338,12.930038,0.89325714,0.39237595,2.4713306,4.001312,-2.7126374
2.34,12.721286,0.98464537,0.38694358,2.4230342,3.725119,-2.640042
2.342,12.531015,1.0870321,0.38986158,2.3714356,3.4502585,-2.572528
2.344,12.35914,1.1997082,0.40146708,2.3168488,3.1771603,-2.5099516
2.346,12.205351,1.3222091,0.4220271,2.2595515,2.9062316,-2.4522052
2.348,12.069297,1.4542644,0.45181012,2.1997921,2.637841,-2.399207
2.35,11.950926,1.5952635,0.4911275,2.137801,2.372294,-2.35093
2.352,11.849677,1.7445498,0.5402031,2.0737782,2.1098447,-2.3073792
2.354,11.7649555,1.9015863,0.59920406,2.0079005,1.8506575,-2.2685623
2.356,11.696098,2.06576,0.66826653,1.9403396,1.5948642,-2.2345078
2.358,11.642514,2.2365818,0.74746823,1.8712374,1.3425422,-2.205241
2.36,11.603472,2.4133534,0.8369975,1.8007171,1.0937431,-2.1807637
2.362,11.578245,2.595337,0.93683004,1.728899,0.8485289,-2.161073
2.364,11.566253,2.7818,1.0469394,1.6559054,0.606989,-2.1461596
2.366,11.566509,2.9719293,1.1673243,1.5818801,0.36926317,-2.136042
2.368,11.578271,3.1648784,1.2979617,1.5069836,0.13554248,-2.1307392
2.37,11.600633,3.3596058,1.4387252,1.4314095,-0.09391379,-2.1302977
2.372,11.632877,3.5552185,1.5894914,1.3554082,-0.31876194,-2.134776
2.374,11.674321,3.7506268,1.7500372,1.2792635,-0.53859794,-2.1442347
2.376,11.724113,3.9448166,1.9199412,1.203324,-0.7529204,-2.1587262
2.378,11.781203,4.1367035,2.0990007,1.1279765,-0.96119106,-2.1782765
2.38,11.845012,4.3252215,2.2868118,1.0536401,-1.1628537,-2.2028267
2.382,11.914671,4.5094957,2.4828808,0.98072207,-1.35733,-2.2321954
2.384,11.989473,4.6886144,2.6866663,0.90962905,-1.5440642,-2.2660832
2.386,12.068819,4.8617096,2.8973987,0.8407068,-1.7225258,-2.3040423
2.388,12.152047,5.027999,3.1143768,0.77422756,-1.8922409,-2.345502
2.39,12.238542,5.1869483,3.336872,0.7103876,-2.0528061,-2.389768
2.392,12.32776,5.338084,3.5640428,0.6493025,-2.2038858,-2.4361174
2.394,12.419271,5.481151,3.7950273,0.5909813,-2.3452034,-2.4837937
2.396,12.512558,5.6157484,4.028945,0.53534865,-2.476551,-2.5320826
2.398,12.607381,5.74185,4.264878,0.4822852,-2.597808,-2.5803375
2.4,12.703293,5.8595,4.5020766,0.4316489,-2.7088764,-2.628017
2.402,12.800032,5.968733,4.739568,0.38328004,-2.8097186,-2.6747267
2.404,12.897353,6.0698504,4.9765787,0.33703494,-2.9003308,-2.7201672
2.406,12.994947,6.163063,5.2125106,0.2928077,-2.980735,-2.7641437
2.408,13.092607,6.248722,5.446557,0.25055408,-3.0509696,-2.806542
2.41,13.190117,6.327112,5.678256,0.21026969,-3.111085,-2.8472848
2.412,13.287192,6.398598,5.9071035,0.17204821,-3.16113,-2.8863297
2.414,13.383736,6.4634733,6.1326246,0.13604045,-3.2011328,-2.9236357
2.416,13.479342,6.5221295,6.3544903,0.10245216,-3.2311113,-2.9591541
2.418,13.574015,6.574905,6.5724216,0.07153916,-3.2510366,-2.992813
2.42,13.667264,6.622065,6.7861342,0.04359734,-3.2608323,-3.0245228
2.422,13.758905,6.6638894,6.995368,0.01894486,-3.2603753,-3.0541854
2.424,13.84863,6.700549,7.1997514,-0.0020899773,-3.2495303,-3.0816855
2.426,13.936094,6.7322693,7.399213,-0.019212484,-3.2281182,-3.1068783
2.428,14.020979,6.759306,7.593444,-0.032135725,-3.1959555,-3.129605
2.43,14.102787,6.78167,7.782181,-0.04062867,-3.1528702,-3.1496825
2.432,14.181144,6.7994194,7.9652905,-0.044496477,-3.0987024,-3.1669035
2.434,14.255624,6.8127575,8.142431,-0.04361397,-3.0333242,-3.1810665
2.436,14.325768,6.821669,8.313389,-0.03788197,-2.9566748,-3.1919534
2.438,14.390961,6.8263288,8.477837,-0.027261078,-2.8687644,-3.1993299
2.44,14.451093,6.8268585,8.63538,-0.011743724,-2.769686,-3.2029862
2.442,14.505563,6.823402,8.785721,0.008633792,-2.659613,-3.2027252
2.444,14.553869,6.8161287,8.928513,0.033800364,-2.538814,-3.1983955
2.446,14.595781,6.805054,9.063271,0.06366068,-2.407658,-3.1898632
2.448,14.630894,6.790369,9.189488,0.09809524,-2.266605,-3.1770875
2.45,14.658942,6.772059,9.306932,0.13698798,-2.1161942,-3.1600797
2.452,14.679715,6.7502055,9.415137,0.1802026,-1.9570223,-3.1389158
2.454,14.69285,6.7248263,9.513873,0.22759652,-1.7897506,-3.1137233
2.456,14.698023,6.6959934,9.602972,0.27903563,-1.615092,-3.0846772
2.458,14.6953,6.6634336,9.682122,0.3343667,-1.4337784,-3.0519826
2.46,14.684304,6.6272955,9.751228,0.3934302,-1.246589,-3.015852
2.462,14.664963,6.5874705,9.8101635,0.4560292,-1.0543058,-2.9764986
2.464,14.637287,6.543762,9.859034,0.5219384,-0.85772026,-2.9341063
2.466,14.601105,6.496268,9.897808,0.5908823,-0.6576428,-2.888829
2.468,14.556587,6.4448247,9.926556,0.66254675,-0.4548849,-2.8407993
2.47,14.503748,6.3895917,9.9454155,0.73657423,-0.2502756,-2.7901113
2.472,14.442558,6.330525,9.954677,0.8125737,-0.04464221,-2.7368584
2.474,14.373175,6.26767,9.954483,0.89014137,0.16118544,-2.68112
2.476,14.295681,6.201084,9.945221,0.9688508,0.3663895,-2.6229815
2.478,14.210407,6.1309905,9.92707,1.0482821,0.57018995,-2.5625222
2.48,14.117417,6.0575533,9.900505,1.1280352,0.7718026,-2.4998043
2.482,14.016983,5.9809537,9.86581,1.2077132,0.9704988,-2.43488
2.484,13.909386,5.901479,9.823411,1.2869371,1.1655911,-2.367787
2.486,13.795106,5.8194475,9.773861,1.365349,1.3564563,-2.2985551
2.488,13.6743965,5.7352734,9.717518,1.4426243,1.5425246,-2.2272117
2.49,13.547692,5.6492977,9.654825,1.518449,1.7233261,-2.1537917
2.492,13.415452,5.5621176,9.586347,1.5925379,1.8984792,-2.0783553
2.494,13.278067,5.4741316,9.512615,1.6646495,2.067686,-2.0010047
2.496,13.136002,5.385993,9.434168,1.7345699,2.2307434,-1.9219012
2.498,12.989772,5.298271,9.351511,1.802132,2.3875525,-1.841265
2.5,12.840014,5.2114496,9.265136,1.8672009,2.5380945,-1.7593722
2.502,12.68717,5.126055,9.175579,1.929684,2.6824164,-1.6765335
2.504,12.531758,5.042509,9.083306,1.989498,2.8206174,-1.5930774
2.506,12.374369,4.961382,8.988811,2.0465891,2.9528158,-1.5093346
2.508,12.215384,4.883003,8.892613,2.1009233,3.0791397,-1.425619
2.51,12.055415,4.8077326,8.7950325,2.1524527,3.1997156,-1.3421919
2.512,11.894845,4.7357216,8.696541,2.2011418,3.3146143,-1.2592745
2.514,11.734156,4.6673203,8.5976,2.2469313,3.423875,-1.1770542
2.516,11.573726,4.60271,8.4986,2.2897663,3.5274692,-1.0956795
2.518,11.413999,4.5418463,8.399849,2.3295825,3.6253262,-1.0152822
2.52,11.255203,4.4847636,8.301778,2.3663087,3.7173398,-0.9360011
2.522,11.097772,4.431361,8.204664,2.399861,3.8033412,-0.85797954
2.524,10.941884,4.3815346,8.108751,2.4301744,3.8831701,-0.7813965
2.526,10.787863,4.335162,8.014277,2.4571726,3.956627,-0.7064409
2.528,10.635763,4.291855,7.9215693,2.4807804,4.0235043,-0.6333035
2.53,10.485801,4.251476,7.830845,2.500955,4.083613,-0.5621674
2.532,10.338018,4.213694,7.7422247,2.517639,4.1367674,-0.49317777
2.534,10.192502,4.1782722,7.6560287,2.5307906,4.1828394,-0.42644417
2.536,10.049148,4.1449575,7.57228,2.5403824,4.221733,-0.3620082
2.538,9.908118,4.1135154,7.491214,2.5463893,4.2534084,-0.29984856
2.54,9.76935,4.08383,7.4130282,2.5487998,4.2778897,-0.23988771
2.542,9.632671,4.05582,7.3376355,2.5476174,4.295261,-0.18198508
2.544,9.497954,4.029387,7.265171,2.5428665,4.305658,-0.12599254
2.546,9.365171,4.004443,7.195604,2.534587,4.309268,-0.07174581
2.548,9.2342005,3.980965,7.1289124,2.5228384,4.3063087,-0.019103646
2.55,9.10476,3.9589674,7.0651045,2.507703,4.2970138,0.03203827
2.552,8.976788,3.9384003,7.004044,2.489268,4.281604,0.081754565
2.554,8.85027,3.9191546,6.945703,2.4676478,4.2602997,0.13005579
2.556,8.724929,3.901393,6.890004,2.4429603,4.233311,0.17690855
2.558,8.600631,3.8849874,6.83688,2.4153385,4.200815,0.22222966
2.56,8.477246,3.8700469,6.7861176,2.3849125,4.1629634,0.26589328
2.562,8.354778,3.8565166,6.73772,2.3518047,4.1198726,0.307758
2.564,8.233217,3.84421,6.691489,2.3161464,4.0716586,0.3476622
2.566,8.112492,3.8331437,6.647254,2.2780478,4.0184236,0.38544932
2.568,7.9925175,3.8234017,6.6050725,2.2376137,3.9602535,0.4209868
2.57,7.873379,3.8146844,6.5647793,2.1949375,3.8972385,0.4541534
2.572,7.75515,3.8069837,6.526496,2.1500914,3.829461,0.4848547
2.574,7.6378655,3.800125,6.4900723,2.103151,3.7570093,0.5130571
2.576,7.521726,3.7938626,6.4556403,2.054174,3.679998,0.53874946
2.578,7.406748,3.7880535,6.423346,2.0032146,3.5985224,0.5619794
2.58,7.2930217,3.782474,6.3931723,1.9503181,3.512727,0.58282614
2.582,7.180845,3.7768626,6.3653874,1.8955265,3.4227707,0.6013893
2.584,7.0702677,3.7711608,6.3401966,1.8388829,3.3288329,0.6177888
2.586,6.961616,3.7652264,6.3178053,1.7804339,3.2311275,0.63214874
2.588,6.8549943,3.7587976,6.298472,1.7202293,3.1298723,0.6446066
2.59,6.7506313,3.7518551,6.28232,1.6583315,3.0253298,0.65529406
2.592,6.64866,3.7443814,6.2695665,1.5948135,2.9177945,0.6643269
2.594,6.5492387,3.7363565,6.260378,1.5297647,2.807573,0.67181444
2.596,6.452551,3.7276278,6.2549253,1.4632875,2.6949904,0.67784226
2.598,6.358633,3.7182667,6.25322,1.3955028,2.580387,0.68249774
2.6,6.267686,3.7081995,6.255537,1.3265542,2.4641278,0.6858631
2.602,6.1796923,3.6974573,6.261797,1.2565684,2.346578,0.688032
2.604,6.094733,3.6860456,6.2721252,1.1856928,2.2281127,0.68911135
2.606,6.0129232,3.6739705,6.2865367,1.1140717,2.1091237,0.68920505
2.608,5.934203,3.6612778,6.305015,1.0418459,1.9899995,0.6884403
2.61,5.858649,3.6480675,6.327569,0.9691576,1.871147,0.68695724
2.612,5.786149,3.6344056,6.3541408,0.8961325,1.7529681,0.6848794
2.614,5.716753,3.6202557,6.3846574,0.8228981,1.6358553,0.6823585
2.616,5.6502905,3.6058054,6.418993,0.74957645,1.5202068,0.6795126
2.618,5.5869927,3.5910287,6.4569902,0.6762951,1.4063994,0.67645174
2.62,5.5264926,3.5759084,6.4985323,0.60318005,1.2947998,0.67326736
2.622,5.4688144,3.560554,6.5434875,0.53037024,1.1857631,0.6700202
2.624,5.413851,3.5448408,6.5916357,0.45800206,1.0796201,0.66677696
2.626,5.361508,3.5288715,6.642635,0.3862189,0.9766639,0.6635639
2.628,5.3116264,3.51257,6.6963973,0.31515807,0.8771437,0.66040784
2.63,5.2641034,3.495885,6.752626,0.24494311,0.781249,0.657331
2.632,5.218752,3.4788253,6.81108,0.17567044,0.68913347,0.65436184
2.634,5.1755204,3.461298,6.8715487,0.107424125,0.60087085,0.6515184
2.636,5.1342096,3.4432395,6.9338617,0.040249452,0.5164957,0.6488287
2.638,5.0947127,3.4247112,6.9976473,-0.025844378,0.43598992,0.64632034
2.64,5.0570245,3.4055681,7.0626187,-0.090868525,0.35930085,0.64402217
2.642,5.0209646,3.3859274,7.1287513,-0.15485682,0.28635716,0.6419617
2.644,4.986375,3.3658438,7.1956763,-0.21786697,0.21705198,0.6401701
2.646,4.953211,3.3454046,7.263227,-0.2799721,0.15128379,0.63869536
2.648,4.9212747,3.3245337,7.3311925,-0.34124324,0.08895605,0.6375849
2.65,4.8905454,3.3035407,7.399301,-0.40176874,0.02997315,0.6369081
2.652,4.8609724,3.2825484,7.4674044,-0.46162257,-0.02573867,0.63675094
2.654,4.8325834,3.2618065,7.535445,-0.52088815,-0.07824153,0.6371973
2.656,4.805222,3.2415655,7.6032887,-0.57962567,-0.12757936,0.63834673
2.658,4.778996,3.2220483,7.670747,-0.6379031,-0.17378576,0.64029825
2.66,4.7537093,3.2035055,7.737711,-0.6957645,-0.21688987,0.6431419
2.662,4.729372,3.1863544,7.804161,-0.7532446,-0.2568974,0.64694804
2.664,4.705916,3.1709342,7.8700175,-0.8103667,-0.2938194,0.6517584
2.666,4.683527,3.1573515,7.9351006,-0.86712164,-0.32763687,0.6575964
2.668,4.662062,3.1460524,7.9995046,-0.92349476,-0.35831887,0.6644449
2.67,4.641553,3.137303,8.063068,-0.97945756,-0.3858445,0.67228544
2.672,4.621922,3.131271,8.125736,-1.034962,-0.41018203,0.6810844
2.674,4.6031923,3.1283622,8.187449,-1.0899622,-0.43131194,0.69079524
2.676,4.5852785,3.1286225,8.248172,-1.1444137,-0.44921073,0.70137626
2.678,4.568275,3.1323075,8.307859,-1.1982812,-0.4638672,0.71278256
2.68,4.5520544,3.139527,8.366354,-1.251528,-0.4752834,0.7250001
2.682,4.5366373,3.1503425,8.423617,-1.3041446,-0.48345792,0.73801047
2.684,4.521992,3.1648562,8.479644,-1.356127,-0.48839426,0.75179935
2.686,4.507989,3.1830916,8.534331,-1.4074849,-0.4901209,0.76635754
2.688,4.494665,3.2050395,8.587593,-1.4582489,-0.48865566,0.7816928
2.69,4.4820065,3.2306046,8.639441,-1.5084574,-0.48404512,0.7977918
2.692,4.4699016,3.2598124,8.689644,-1.5581487,-0.47632292,0.8146461
2.694,4.4583154,3.292461,8.738217,-1.6073775,-0.46553156,0.8322319
2.696,4.447201,3.328404,8.785077,-1.6561925,-0.451712,0.8505189
2.698,4.436457,3.3675838,8.830189,-1.7046146,-0.43492392,0.8694709
2.7,4.426077,3.409735,8.8735285,-1.752669,-0.41521564,0.88903546
2.702,4.4159718,3.4545884,8.915122,-1.800367,-0.39263642,0.90915227
2.704,4.4061284,3.5019054,8.954923,-1.8477033,-0.36723033,0.92974573
2.706,4.3964047,3.5515802,8.992861,-1.8946595,-0.33905393,0.950744
2.708,4.387,3.603293,9.029003,-1.941216,-0.30814606,0.9720848
2.71,4.3775864,3.6568599,9.0631695,-1.9873481,-0.27454686,0.9937049
2.712,4.368358,3.7120657,9.095441,-2.033034,-0.23828267,1.0155605
2.714,4.359041,3.7688239,9.125647,-2.0782704,-0.19936764,1.0376276
2.716,4.349665,3.826906,9.15378,-2.1230412,-0.15783043,1.0598859
2.718,4.3401403,3.8861399,9.179782,-2.1673417,-0.11369084,1.0823318
2.72,4.330309,3.9464276,9.203589,-2.211182,-0.0669698,1.1049721
2.722,4.3203783,4.0076675,9.225017,-2.2545664,-0.017697329,1.1278124
2.724,4.3100805,4.0698576,9.243972,-2.2975118,0.03409154,1.1508598
2.726,4.2994776,4.132838,9.260288,-2.3400364,0.08833757,1.1741124
2.728,4.288363,4.196828,9.273874,-2.3821616,0.14499244,1.1975688
2.73,4.2768683,4.2617917,9.284692,-2.4239216,0.20397305,1.2212281
2.732,4.264908,4.3278646,9.292437,-2.4653563,0.2651984,1.2450848
2.734,4.252499,4.3952045,9.297054,-2.506514,0.32857645,1.2691087
2.736,4.239514,4.4638968,9.29852,-2.5474432,0.3939906,1.293289
2.738,4.225972,4.5341005,9.296528,-2.5881991,0.46131343,1.3176199
2.74,4.2119274,4.6060543,9.290846,-2.628831,0.53040296,1.3420706
2.742,4.19724,4.679886,9.281492,-2.6693785,0.60110533,1.3666139
2.744,4.1818686,4.7559395,9.268245,-2.709887,0.67325944,1.3912165
2.746,4.166008,4.834443,9.251109,-2.7503896,0.7466724,1.4158269
2.748,4.149579,4.91547,9.229982,-2.7909162,0.82114846,1.4403942
2.75,4.1324825,4.9991846,9.204768,-2.8315036,0.89649606,1.4648675
2.752,4.115015,5.085628,9.175406,-2.8721895,0.9725001,1.4891953
2.754,4.097045,5.1748967,9.141904,-2.9129927,1.0489273,1.5133098
2.756,4.0787597,5.2669973,9.104233,-2.9539504,1.1255562,1.5371554
2.758,4.060117,5.3620386,9.062447,-2.995099,1.2021387,1.5606667
2.76,4.0412626,5.4598994,9.016716,-3.0364819,1.2784344,1.5837446
2.762,4.022371,5.5605507,8.9671,-3.0781124,1.35419,1.6062791
2.764,4.0033417,5.663946,8.913641,-3.1200285,1.4291501,1.6281385
2.766,3.9843974,5.769967,8.8565445,-3.1622381,1.5030324,1.6491811
2.768,3.96564,5.878482,8.7960205,-3.2047286,1.5755589,1.6692585
2.77,3.9473395,5.989489,8.732381,-3.2474937,1.646467,1.6882546
2.772,3.9295611,6.1027446,8.665762,-3.290488,1.7155066,1.7060494
2.774,3.9125552,6.2181544,8.596516,-3.3336623,1.7824454,1.7225509
2.776,3.8963346,6.335607,8.524961,-3.3769672,1.8470786,1.7376767
2.778,3.8812697,6.4549007,8.451401,-3.420341,1.9092532,1.7513814
2.78,3.8674812,6.576012,8.376189,-3.4637375,1.9688535,1.7636466
2.782,3.8552153,6.6988554,8.299639,-3.5071182,2.0258229,1.7744683
2.784,3.8445263,6.8232875,8.2220335,-3.5504324,2.0801558,1.7838564
2.786,3.835824,6.949357,8.14371,-3.5936399,2.131877,1.791811
2.788,3.8291261,7.0769196,8.064955,-3.6367092,2.1810617,1.7983382
2.79,3.8247313,7.206121,7.986119,-3.6796188,2.227827,1.8034399
2.792,3.822722,7.3369913,7.907324,-3.7223327,2.272297,1.8071035
2.794,3.8232193,7.4696655,7.828795,-3.764826,2.3146234,1.809322
2.796,3.826615,7.604085,7.750852,-3.8070512,2.3549433,1.8100913
2.798,3.8328912,7.740348,7.673563,-3.8489501,2.393391,1.8094387
2.8,3.8423233,7.878495,7.5970435,-3.8904727,2.4300995,1.8074174
2.802,3.8549573,8.018589,7.5214643,-3.9315329,2.465174,1.8040981
2.804,3.871026,8.160499,7.4468827,-3.972049,2.4986978,1.7995838
2.806,3.8904738,8.304186,7.3732567,-4.011935,2.5307827,1.794012
2.808,3.9134915,8.449541,7.300608,-4.0511093,2.5615067,1.7875286
2.81,3.9401548,8.59639,7.2289376,-4.0894613,2.5909624,1.7802702
2.812,3.9703693,8.744538,7.158076,-4.1268907,2.6192608,1.772367
2.814,4.0038805,8.893755,7.087925,-4.1632867,2.646518,1.7639319
2.816,4.040801,9.043594,7.018355,-4.1985383,2.6728628,1.7550278
2.818,4.0808372,9.193588,6.949225,-4.2325063,2.6984487,1.7456849
2.82,4.1237674,9.343387,6.880281,-4.26508,2.7234473,1.735897
2.822,4.169287,9.492263,6.8112807,-4.296113,2.7480183,1.7256275
2.824,4.217284,9.63967,6.7420044,-4.3254614,2.7723193,1.7148006
2.826,4.26726,9.785055,6.6721187,-4.352983,2.796493,1.7033572
2.828,4.318898,9.927685,6.6013064,-4.378535,2.820665,1.6912401
2.83,4.371582,10.066864,6.529231,-4.4019685,2.8449361,1.6784159
2.832,4.424802,10.201782,6.455512,-4.423141,2.8693964,1.6648495
2.834,4.4781504,10.331751,6.379777,-4.4419184,2.894113,1.6505355
2.836,4.531009,10.455974,6.30173,-4.4581823,2.919107,1.6354833
2.838,4.582675,10.573524,6.220913,-4.4718137,2.9443977,1.619705
2.84,4.6325245,10.683692,6.136761,-4.4827137,2.9699972,1.6032172
2.842,4.679847,10.785715,6.0489817,-4.4907775,2.9958875,1.5860351
2.844,4.72386,10.878947,5.9570613,-4.4959197,3.0220256,1.5681555
2.846,4.76402,10.962662,5.8605747,-4.4980764,3.0483594,1.5496043
2.848,4.7994313,11.036417,5.7592964,-4.4971676,3.0748088,1.5303952
2.85,4.8294673,11.099578,5.652809,-4.493149,3.1012769,1.5105349
2.852,4.853427,11.151717,5.54056,-4.485976,3.1276536,1.4900444
2.854,4.8704643,11.192354,5.4223623,-4.475626,3.1537971,1.4689705
2.856,4.879925,11.221211,5.2977014,-4.462114,3.1795642,1.4474089
2.858,4.881174,11.238186,5.1663237,-4.4454737,3.204772,1.4255024
2.86,4.87366,11.243263,5.0280843,-4.4257493,3.2292292,1.4034446
2.862,4.856711,11.23648,4.882641,-4.403017,3.2527428,1.3814962
2.864,4.829738,11.217892,4.729885,-4.377396,3.2750883,1.3599497
2.866,4.792298,11.187849,4.569618,-4.3490148,3.29603,1.3391384
2.868,4.74407,11.146534,4.401718,-4.3180203,3.3153026,1.3194083
2.87,4.684559,11.094388,4.226144,-4.2845764,3.3326416,1.3011122
2.872,4.6135426,11.03189,4.043043,-4.2488627,3.3477387,1.2845701
2.874,4.5308266,10.959521,3.8524818,-4.2110524,3.3602798,1.2700552
2.876,4.436327,10.877968,3.6546197,-4.17135,3.3699183,1.257793
2.878,4.329999,10.787875,3.4498153,-4.1299343,3.3762841,1.247964
2.88,4.2117233,10.689861,3.2383103,-4.08699,3.3789887,1.2406782
2.882,4.081787,10.58469,3.0207129,-4.0427094,3.377631,1.2359848
2.884,3.9403477,10.473049,2.7974138,-3.9972785,3.3717613,1.2338842
2.886,3.7876058,10.35561,2.5691986,-3.9508703,3.3609314,1.234329
2.888,3.6239538,10.233257,2.3368464,-3.9036522,3.3446736,1.2372214
2.89,3.4498918,10.106451,2.1012163,-3.8557732,3.322546,1.2424332
2.892,3.2659483,9.975994,1.8632951,-3.8074076,3.2940917,1.2498068
2.894,3.0728188,9.8425045,1.6243005,-3.7586884,3.2588863,1.2591629
2.896,2.8711386,9.706518,1.3853178,-3.709744,3.2165418,1.2702813
2.898,2.661744,9.568506,1.1474829,-3.6606867,3.1667254,1.2829342
2.9,2.4452767,9.428935,0.9122572,-3.6116073,3.1091523,1.296875
2.902,2.2230356,9.288059,0.6809931,-3.5625927,3.0436149,1.3118849
2.904,1.9958293,9.146313,0.4549966,-3.5136976,2.9699912,1.3277766
2.906,1.7644935,9.004193,0.23569822,-3.464959,2.8882356,1.3443768
2.908,1.5303133,8.861902,0.024415016,-3.4163752,2.7983932,1.3615633
2.91,1.294263,8.719633,-0.17744684,-3.3679235,2.700613,1.3792337
2.912,1.0576429,8.577544,-0.36871147,-3.3195765,2.5951557,1.3973408
2.914,0.8214395,8.435967,-0.5482898,-3.2712944,2.482367,1.4158444
2.916,0.5868981,8.295038,-0.71511984,-3.2230098,2.3626907,1.4347339
2.918,0.35517082,8.154938,-0.8681383,-3.1746802,2.2366855,1.4540219
2.92,0.12741476,8.015881,-1.006623,-3.1262379,2.1049736,1.4736923
2.922,-0.09520608,7.878007,-1.1298609,-3.0776324,1.9682524,1.4937251
2.924,-0.31164962,7.7415624,-1.2371538,-3.0288029,1.82727,1.514091
2.926,-0.5209681,7.6066685,-1.3282831,-2.9797034,1.6828079,1.5347446
2.928,-0.72227085,7.473498,-1.4029953,-2.9302776,1.5356627,1.5556209
2.93,-0.91453034,7.3421383,-1.4611573,-2.8804631,1.3866546,1.5766251
2.932,-1.0971651,7.2128477,-1.5028905,-2.8302453,1.2365744,1.5977058
2.934,-1.2695189,7.0857053,-1.5284181,-2.7795584,1.0861868,1.6187953
2.936,-1.4310939,6.9607773,-1.5380877,-2.7283192,0.9362633,1.6397691
2.938,-1.5814638,6.838211,-1.5324624,-2.6764688,0.7875615,1.6604719
2.94,-1.7201641,6.718161,-1.512149,-2.6239429,0.6407969,1.6807477
2.942,-1.8471253,6.600836,-1.4778378,-2.570647,0.49666142,1.7004168
2.944,-1.9624001,6.4861956,-1.430393,-2.5164893,0.35581988,1.7192779
2.946,-2.065978,6.374382,-1.3708363,-2.461347,0.21889323,1.7371233
2.948,-2.1579995,6.26546,-1.300093,-2.4051337,0.08645761,1.7537297
2.95,-2.2387671,6.159578,-1.2191807,-2.3477347,-0.040952086,1.7688915
2.952,-2.308521,6.0567045,-1.1291919,-2.289065,-0.16289675,1.7824202
2.954,-2.3677824,5.95693,-1.0312392,-2.229063,-0.2789805,1.7941196
2.956,-2.4171333,5.8600554,-0.92636704,-2.1676974,-0.38890046,1.8038353
2.958,-2.4571257,5.7658477,-0.8157629,-2.1049771,-0.49244744,1.8114543
2.96,-2.488621,5.6744194,-0.70024896,-2.040941,-0.58949804,1.8169
2.962,-2.5123,5.585855,-0.58079684,-1.9756715,-0.68001074,1.8200985
2.964,-2.5287545,5.500224,-0.45841694,-1.9092785,-0.7640385,1.8210273
2.966,-2.539146,5.4173126,-0.3338747,-1.8418877,-0.8416947,1.8196716
2.968,-2.5441911,5.337248,-0.20791793,-1.7736379,-0.9131348,1.8160619
2.97,-2.5448117,5.259968,-0.081475616,-1.7046949,-0.9785681,1.810216
2.972,-2.5418918,5.1855493,0.044967294,-1.6351956,-1.0382146,1.8021529
2.974,-2.5362682,5.11408,0.17081332,-1.5653015,-1.0922728,1.7919275
2.976,-2.5287375,5.045558,0.29561746,-1.4951701,-1.1409494,1.7796278
2.978,-2.5202475,4.9803214,0.4189242,-1.4249496,-1.184433,1.7653594
2.98,-2.511473,4.9182463,0.54031944,-1.3547797,-1.2228769,1.7492605
2.982,-2.5032172,4.8594475,0.65941286,-1.2848265,-1.256439,1.7315028
2.984,-2.4960594,4.8040624,0.7759384,-1.2152556,-1.2852539,1.7122858
2.986,-2.49078,4.752173,0.8897333,-1.1462387,-1.3094571,1.6917651
2.988,-2.488031,4.7038374,1.0004671,-1.0780014,-1.3291948,1.6701682
2.99,-2.4882126,4.6591763,1.1080794,-1.0107799,-1.3446298,1.6477637
2.992,-2.4919868,4.6183434,1.2123455,-0.94479364,-1.355917,1.6247386
2.994,-2.499626,4.5814743,1.3132037,-0.8802619,-1.3632376,1.6011808
2.996,-2.511364,4.5486374,1.4105351,-0.8174037,-1.3667742,1.577118
2.998,-2.527558,4.5197225,1.5041367,-0.7564117,-1.3667154,1.5525374
3,-2.5483925,4.4948807,1.5940237,-0.69744974,-1.363232,1.5273818
3.002,-2.574128,4.4739966,1.6800554,-0.64062303,-1.3564961,1.5015814
3.004,-2.6047125,4.4570107,1.762166,-0.5859988,-1.3466635,1.4750576
3.006,-2.640266,4.4437895,1.8403913,-0.53358823,-1.3338447,1.4477415
3.008,-2.680725,4.4342256,1.9146233,-0.48334867,-1.3181461,1.4196118
3.01,-2.7258265,4.4281206,1.9847586,-0.4352122,-1.2996619,1.3906605
3.012,-2.775881,4.4253626,2.0509121,-0.38907003,-1.2784405,1.3609054
3.014,-2.8305016,4.4254627,2.1130946,-0.34481242,-1.2545357,1.3304057
3.016,-2.889495,4.427955,2.17117,-0.3023044,-1.2279946,1.299216
3.018,-2.9526987,4.4326286,2.2253675,-0.26142585,-1.1988508,1.2673934
3.02,-3.019936,4.439069,2.2757242,-0.22203603,-1.1671311,1.2349702
3.022,-3.0908988,4.4467535,2.3223498,-0.18400249,-1.13288,1.2019211
3.024,-3.1652632,4.4551773,2.365415,-0.14717162,-1.096124,1.1682153
3.026,-3.242816,4.4637413,2.4050143,-0.111393094,-1.0569004,1.13379
3.028,-3.3231716,4.4718537,2.4411852,-0.07649081,-1.015268,1.0985675
3.03,-3.40594,4.478775,2.4740522,-0.042275444,-0.97127175,1.0624611
3.032,-3.4908104,4.4840155,2.5037332,-0.00857567,-0.92497957,1.0254141
3.034,-3.5773795,4.4867973,2.530272,0.024796508,-0.8764764,0.9874129
3.036,-3.6654112,4.486655,2.5539823,0.05801771,-0.8258453,0.94848824
3.038,-3.7543788,4.4830265,2.5749283,0.091254495,-0.7731916,0.90869164
3.04,-3.8440056,4.4752836,2.593306,0.12464834,-0.7186032,0.86812854
3.042,-3.9338489,4.462961,2.6092315,0.15831718,-0.66216844,0.8268744
3.044,-4.023557,4.4455843,2.6229067,0.19236007,-0.6039812,0.78503
3.046,-4.1127605,4.422835,2.6345003,0.22684705,-0.5441306,0.74272907
3.048,-4.2009354,4.3944263,2.64425,0.26183057,-0.48268723,0.7001179
3.05,-4.287856,4.3601303,2.6522193,0.29734993,-0.4197203,0.65731895
3.052,-4.3731,4.319846,2.6586132,0.33344272,-0.35531634,0.6144545
3.054,-4.4562435,4.273664,2.6637335,0.3701335,-0.28958517,0.57165045
3.056,-4.537055,4.2217026,2.6676667,0.40743044,-0.22266072,0.529054
3.058,-4.6150994,4.164211,2.670496,0.44531584,-0.15471838,0.48684502
3.06,-4.690102,4.1013412,2.672449,0.48375857,-0.08596818,0.4452163
3.062,-4.76192,4.0337005,2.6736517,0.52268845,-0.0166495,0.4043863
3.064,-4.830143,3.96161,2.6741872,0.5620308,0.052986965,0.3645676
3.066,-4.8945346,3.8859224,2.6741977,0.6016734,0.12264058,0.32596067
3.068,-4.9547896,3.8073525,2.6738598,0.64149576,0.19202796,0.2887439
3.07,-5.01078,3.726509,2.6732125,0.68135303,0.26086584,0.25308377
3.072,-5.0623035,3.643913,2.6723795,0.7211207,0.32887053,0.21910006
3.074,-5.109211,3.5603962,2.6715527,0.7606588,0.3957613,0.18689053
3.076,-5.1512456,3.4768574,2.6708076,0.7998527,0.46129477,0.15654328
3.078,-5.188294,3.3940153,2.6702433,0.8386059,0.525246,0.12809789
3.08,-5.220291,3.3125405,2.6701798,0.87685704,0.5874195,0.10156411
3.082,-5.2472553,3.2330978,2.6705408,0.9145662,0.64766634,0.076901406
3.084,-5.26884,3.1564336,2.6714072,0.9517156,0.70585746,0.054041415
3.086,-5.285138,3.0830529,2.6728477,0.9883318,0.76191676,0.03289184
3.088,-5.2961755,3.0135221,2.6749492,1.0244334,0.8158045,0.013321906
3.09,-5.3017673,2.948409,2.6777406,1.0600548,0.8675109,-0.0048211217
3.092,-5.302017,2.8881867,2.681403,1.0952322,0.91705817,-0.021689415
3.094,-5.2969522,2.8332543,2.6859019,1.1300044,0.9644831,-0.03744614
3.096,-5.2864995,2.7839134,2.6912813,1.164406,1.0098467,-0.052266717
3.098,-5.270696,2.7405012,2.6974561,1.1984506,1.0532264,-0.06632358
3.1,-5.2495503,2.703199,2.7044823,1.2321469,1.0947149,-0.079788566
3.102,-5.2230773,2.6720717,2.7122655,1.2654978,1.134394,-0.09284383
3.104,-5.191579,2.647285,2.7207747,1.2985017,1.1723392,-0.10563761
3.106,-5.154972,2.628954,2.7299247,1.3311311,1.2086347,-0.118332565
3.108,-5.113403,2.6171598,2.73972,1.3633597,1.2433573,-0.13104504
3.11,-5.0670214,2.6119175,2.7499669,1.3951565,1.2765583,-0.14386207
3.112,-5.0158362,2.6132846,2.7605839,1.426486,1.3083127,-0.15685534
3.114,-4.9601583,2.6214166,2.7714877,1.4573138,1.3386838,-0.17004311
3.116,-4.900246,2.6363404,2.7824082,1.4875937,1.3677335,-0.18339956
3.118,-4.8360486,2.6580672,2.7934039,1.5172473,1.3955073,-0.19687349
3.12,-4.7680182,2.6866517,2.8041244,1.5461905,1.4220585,-0.21037805
3.122,-4.6963334,2.7221131,2.8144498,1.5743247,1.4474242,-0.22379315
3.124,-4.621113,2.7645547,2.824236,1.601534,1.4716328,-0.23698175
3.126,-4.5428,2.814067,2.833306,1.6276788,1.4946992,-0.24981743
3.128,-4.461633,2.870562,2.841321,1.6525991,1.5166292,-0.26218003
3.13,-4.378026,2.9340696,2.8481612,1.6761291,1.5374147,-0.27396953
3.132,-4.292248,3.0045571,2.853648,1.6981006,1.5570116,-0.28509736
3.134,-4.2047095,3.081964,2.8575695,1.7183349,1.5753704,-0.29550713
3.136,-4.115619,3.1660726,2.8597744,1.7366748,1.5924314,-0.30516928
3.138,-4.025543,3.2566495,2.8600626,1.7529863,1.6081281,-0.31409156
3.14,-3.93487,3.3534284,2.8582528,1.7671659,1.62237,-0.32235026
3.142,-3.843937,3.4558775,2.8541956,1.7791505,1.6351032,-0.33007097
3.144,-3.7531207,3.5636506,2.8476543,1.7889298,1.6462698,-0.33742422
3.146,-3.6628222,3.6759892,2.8384318,1.7965477,1.6558363,-0.34464413
3.148,-3.5735629,3.7922742,2.8265047,1.8020961,1.6637912,-0.35199857
3.15,-3.4856699,3.9117484,2.811683,1.8057127,1.6701392,-0.35977125
3.152,-3.3995714,4.0334883,2.79394,1.8075912,1.6748953,-0.36825264
3.154,-3.31575,4.156696,2.7731292,1.8079487,1.6780826,-0.37771535
3.156,-3.234465,4.280326,2.7491815,1.807013,1.679734,-0.38837332
3.158,-3.1563983,4.4034224,2.7220554,1.8050165,1.6798755,-0.40040195
3.16,-3.0816972,4.524899,2.6918287,1.8021874,1.6785071,-0.41388738
3.162,-3.0109096,4.643742,2.6584735,1.798709,1.6756314,-0.4288541
3.164,-2.9442024,4.758967,2.622004,1.794735,1.6712348,-0.44525397
3.166,-2.882089,4.8696136,2.5826037,1.7903994,1.6652601,-0.462968
3.168,-2.8248281,4.9747553,2.5403595,1.7857767,1.6576617,-0.4818158
3.17,-2.7727594,5.073547,2.4954033,1.780911,1.6483767,-0.5015954
3.172,-2.726038,5.1650996,2.447866,1.7758381,1.6373439,-0.5220673
3.174,-2.6850038,5.248839,2.3980193,1.7705547,1.6244907,-0.5429859
3.176,-2.6498363,5.3241487,2.345986,1.7650471,1.6097325,-0.564124
3.178,-2.6207192,5.390402,2.2920084,1.7592889,1.5929961,-0.5852606
3.18,-2.5976415,5.447141,2.2362218,1.7532557,1.5742319,-0.6061926
3.182,-2.580731,5.4941487,2.1790154,1.7469245,1.5533707,-0.6267482
3.184,-2.5701149,5.5311203,2.120598,1.7402811,1.530366,-0.64678687
3.186,-2.565684,5.558037,2.0612953,1.733318,1.5051956,-0.66620886
3.188,-2.567401,5.5748606,2.0014153,1.7260305,1.4778329,-0.6849313
3.19,-2.5752432,5.581787,1.9411906,1.7184324,1.448275,-0.7028812
3.192,-2.588905,5.5790353,1.8810463,1.7105261,1.4165465,-0.7200104
3.194,-2.6083639,5.5668163,1.8213108,1.7023132,1.3826885,-0.73624325
3.196,-2.6333454,5.5456524,1.7622566,1.6938123,1.3467299,-0.7515003
3.198,-2.6635401,5.515941,1.7042801,1.6850103,1.3087395,-0.7656908
3.2,-2.6987944,5.4782734,1.6476917,1.6758986,1.2687851,-0.7787129
3.202,-2.7387354,5.4332395,1.5927156,1.666469,1.2269342,-0.7904577
3.204,-2.7829607,5.381447,1.5396879,1.6567131,1.183267,-0.8008151
3.206,-2.8311396,5.323677,1.4888427,1.6466122,1.1378726,-0.8096887
3.208,-2.882819,5.260697,1.4405701,1.6361722,1.0908387,-0.8170079
3.21,-2.9376392,5.1932116,1.3950272,1.6254002,1.0422512,-0.8227285
3.212,-2.9950728,5.1220407,1.3526043,1.614313,0.992202,-0.8268219
3.214,-3.054682,5.0479703,1.313515,1.6029495,0.9407744,-0.8292921
3.216,-3.116119,4.9717546,1.2779058,1.591363,0.88803995,-0.83014894
3.218,-3.1788027,4.8941927,1.2461587,1.5796076,0.8340684,-0.8294228
3.22,-3.2422194,4.816069,1.2185004,1.5677443,0.77894425,-0.8271517
3.222,-3.3059573,4.738098,1.1951551,1.5558537,0.72270405,-0.8233955
3.224,-3.3693786,4.6608696,1.1763765,1.5440111,0.6653951,-0.8181986
3.226,-3.4319384,4.5850387,1.1625072,1.5322797,0.60704166,-0.81160766
3.228,-3.493282,4.5112147,1.153786,1.5207251,0.54765594,-0.8036877
3.23,-3.5527225,4.43987,1.1504526,1.5093961,0.48723763,-0.7944927
3.232,-3.6097536,4.371427,1.1526866,1.4983437,0.4257688,-0.78408736
3.234,-3.6640956,4.306221,1.1606977,1.4875957,0.36320964,-0.77254593
3.236,-3.715168,4.24462,1.1748103,1.4771924,0.29954106,-0.75994086
3.238,-3.7625449,4.1868343,1.19521,1.467143,0.23474157,-0.74636596
3.24,-3.8057785,4.1330347,1.222079,1.4574602,0.16879782,-0.73192155
3.242,-3.8445318,4.083355,1.2554023,1.448162,0.10172093,-0.71673083
3.244,-3.878414,4.0377784,1.2954103,1.4392498,0.033526182,-0.7009448
3.246,-3.9071918,3.9964712,1.3421174,1.4307362,-0.035737097,-0.6847042
3.248,-3.9305098,3.9593496,1.3954599,1.4226279,-0.10598305,-0.66816616
3.25,-3.948119,3.9263248,1.4554987,1.4149383,-0.17709437,-0.65149295
3.252,-3.9597883,3.8973167,1.5220808,1.4076948,-0.24892625,-0.6348519
3.254,-3.9654834,3.8720994,1.5950354,1.4009264,-0.32129127,-0.6184027
3.256,-3.965014,3.8506474,1.6742498,1.3946716,-0.39397615,-0.60228693
3.258,-3.9583507,3.8327065,1.7593968,1.3889767,-0.4667376,-0.5866472
3.26,-3.9455078,3.8181593,1.850175,1.3838849,-0.53930855,-0.571602
3.262,-3.9265113,3.8067393,1.9463205,1.3794345,-0.6113945,-0.5572474
3.264,-3.9014165,3.798204,2.0474358,1.3756824,-0.68268645,-0.543673
3.266,-3.8704157,3.7924483,2.1531382,1.3726763,-0.75286394,-0.53095347
3.268,-3.8337681,3.7891712,2.2629313,1.3704638,-0.8215897,-0.5191632
3.27,-3.791609,3.788253,2.376376,1.369095,-0.8885391,-0.5083761
3.272,-3.7441795,3.7895396,2.492978,1.3686107,-0.95338506,-0.49864417
3.274,-3.6919653,3.7927635,2.6122131,1.3690355,-1.0158331,-0.49002498
3.276,-3.6350646,3.79781,2.7336013,1.3703978,-1.0755942,-0.48256248
3.278,-3.5740583,3.8045301,2.8567457,1.3727086,-1.1324213,-0.47630203
3.28,-3.5091598,3.8127937,2.9811215,1.3759693,-1.1861019,-0.47126967
3.282,-3.4409387,3.8224976,3.106267,1.3801599,-1.2364635,-0.4674719
3.284,-3.3696544,3.8334658,3.2318568,1.3852326,-1.2833977,-0.46489665
3.286,-3.2958133,3.8455405,3.3574607,1.3911287,-1.3268373,-0.46350172
3.288,-3.2198071,3.8585856,3.4828143,1.3977741,-1.3667465,-0.46322522
3.29,-3.1419756,3.8723824,3.6076808,1.4050657,-1.4031389,-0.46400872
3.292,-3.0627968,3.8868294,3.7316368,1.4129015,-1.4360671,-0.46576932
3.294,-2.982746,3.9017572,3.8545716,1.4211755,-1.4655821,-0.46843314
3.296,-2.902089,3.9169574,3.9762816,1.4297934,-1.4917445,-0.47192258
3.298,-2.821276,3.9322839,4.0965805,1.4386669,-1.5146079,-0.47619206
3.3,-2.7405195,3.947523,4.2154264,1.4477235,-1.5342292,-0.48122406
3.302,-2.6601372,3.9624693,4.332634,1.4569225,-1.5506356,-0.48701537
3.304,-2.5805132,3.9768739,4.4481735,1.4662356,-1.5638386,-0.49357218
3.306,-2.5019805,3.9906516,4.5619345,1.475675,-1.5738418,-0.50088793
3.308,-2.424631,4.0035524,4.6738677,1.4852562,-1.5806316,-0.50897104
3.31,-2.3488033,4.015358,4.7838545,1.4950202,-1.5841756,-0.51782686
3.312,-2.2746305,4.02595,4.891807,1.5050135,-1.584437,-0.52742726
3.314,-2.2023683,4.0352106,4.9976892,1.5152899,-1.581385,-0.53774375
3.316,-2.1322544,4.042976,5.101375,1.5258894,-1.5749885,-0.548722
3.318,-2.064407,4.0491447,5.202808,1.5368345,-1.5652292,-0.5602951
3.32,-1.9989207,4.0538535,5.301781,1.5481335,-1.5521183,-0.57239044
3.322,-1.936066,4.0571027,5.3982167,1.5597746,-1.5356758,-0.5848989
3.324,-1.8756286,4.058774,5.4920173,1.5717356,-1.5159554,-0.59769446
3.326,-1.8178928,4.059115,5.5830927,1.5839766,-1.4930335,-0.6106665
3.328,-1.7628154,4.058067,5.6711845,1.5964469,-1.467017,-0.62368387
3.33,-1.710408,4.055853,5.7561316,1.6090828,-1.4380286,-0.63662004
3.332,-1.6606455,4.0525208,5.837858,1.6218318,-1.406206,-0.6493288
3.334,-1.6134957,4.048133,5.9161806,1.6346312,-1.3717136,-0.66169375
3.336,-1.5689387,4.04294,5.990916,1.6474174,-1.3347344,-0.6735959
3.338,-1.5270154,4.0370493,6.061893,1.6601357,-1.2954309,-0.68494827
3.34,-1.4875413,4.0305095,6.1291513,1.6727266,-1.2539892,-0.6957027
3.342,-1.4504067,4.0234976,6.1924467,1.6851382,-1.210614,-0.7058346
3.344,-1.415517,4.016165,6.251782,1.6973139,-1.1655015,-0.7153437
3.346,-1.3827344,4.0084596,6.3070083,1.709211,-1.1188694,-0.72425985
3.348,-1.3520341,4.0005503,6.3580933,1.7207761,-1.0709517,-0.73264873
3.35,-1.323288,3.99234,6.404912,1.7319676,-1.0219959,-0.7405844
3.352,-1.2962961,3.9838479,6.4476633,1.7427542,-0.972256,-0.7481241
3.354,-1.2709286,3.975006,6.486281,1.753091,-0.92200625,-0.7553333
3.356,-1.2472372,3.9658155,6.5208063,1.7629485,-0.8715346,-0.7622502
3.358,-1.2249943,3.956141,6.551389,1.7722895,-0.82112134,-0.7689052
3.36,-1.2041211,3.9459572,6.578082,1.7810555,-0.7710309,-0.77530384
3.362,-1.1845243,3.9350994,6.601014,1.7892137,-0.72151035,-0.7814057
3.364,-1.166002,3.9235806,6.6203866,1.7967192,-0.6727958,-0.78719103
3.366,-1.1486572,3.9111347,6.63623,1.8035346,-0.6250756,-0.7926234
3.368,-1.1322486,3.897645,6.64874,1.8096346,-0.5784948,-0.7976781
3.37,-1.1168022,3.883051,6.6581755,1.8150014,-0.53316754,-0.80234456
3.372,-1.1022412,3.867249,6.6646786,1.8196367,-0.4891544,-0.8066218
3.374,-1.0884849,3.85015,6.668449,1.8235842,-0.44648015,-0.81051743
3.376,-1.0755126,3.8315878,6.669724,1.8268708,-0.40514722,-0.8140794
3.378,-1.0630883,3.811656,6.6687574,1.8295617,-0.36513975,-0.81736404
3.38,-1.0513625,3.7902277,6.665694,1.8317153,-0.32643384,-0.8203934
3.382,-1.0403395,3.7672234,6.660707,1.8333973,-0.28898752,-0.8232014
3.384,-1.029848,3.7426906,6.6540527,1.8346517,-0.2527785,-0.8257973
3.386,-1.0199606,3.7167146,6.645891,1.8354979,-0.2177907,-0.82817245
3.388,-1.0106446,3.6893368,6.636327,1.8359429,-0.18402061,-0.8302754
3.39,-1.0019357,3.6607718,6.6255393,1.8359777,-0.15147668,-0.8320478
3.392,-0.9937249,3.6309638,6.6136236,1.8355552,-0.12020093,-0.8333999
3.394,-0.9861542,3.6001506,6.6005473,1.8346057,-0.09023827,-0.8342312
3.396,-0.9792223,3.568532,6.5866146,1.8330487,-0.06163907,-0.83443797
3.398,-0.9729115,3.5363646,6.5718107,1.8308043,-0.034475535,-0.8339231
3.4,-0.9672587,3.5037727,6.556205,1.8277752,-0.008812159,-0.83259964
3.402,-0.9622416,3.4709785,6.539919,1.8238777,0.015272737,-0.8303865
3.404,-0.95795375,3.4384184,6.5229273,1.8190272,0.037727922,-0.82723814
3.406,-0.9542479,3.4062705,6.505359,1.8131635,0.05849108,-0.82311976
3.408,-0.9512754,3.3747406,6.487254,1.8062338,0.077528864,-0.8180205
3.41,-0.9490267,3.3441412,6.468582,1.7981919,0.094817996,-0.8119552
3.412,-0.947479,3.3147635,6.449481,1.7890152,0.11033821,-0.80495584
3.414,-0.94662154,3.2868457,6.42997,1.7786963,0.124084085,-0.79707247
3.416,-0.94642574,3.2604816,6.4102173,1.7672304,0.13605365,-0.7883753
3.418,-0.94680107,3.2358804,6.390133,1.7546166,0.14625643,-0.7789327
3.42,-0.94776237,3.2132988,6.3699064,1.7408819,0.154701,-0.7688316
3.422,-0.9491964,3.1927085,6.3496146,1.7260534,0.16139804,-0.7581653
3.424,-0.95114,3.174195,6.3293114,1.7101634,0.16636403,-0.74702793
3.426,-0.95338535,3.157741,6.309067,1.6932492,0.16961826,-0.7355
3.428,-0.9559507,3.143328,6.2889657,1.6753445,0.17117815,-0.7236735
3.43,-0.9588232,3.1307473,6.2691317,1.6565076,0.17108044,-0.7116047
3.432,-0.9617686,3.1199663,6.2495627,1.6367697,0.16936977,-0.69936013
3.434,-0.9651764,3.1110435,6.2304287,1.6161896,0.1660982,-0.6870102
3.436,-0.9686063,3.1035817,6.2116466,1.5948029,0.1613145,-0.67459613
3.438,-0.97216576,3.0976257,6.1934958,1.5726613,0.15507352,-0.66215694
3.44,-0.9759221,3.092966,6.175981,1.5498211,0.14743504,-0.6497072
3.442,-0.97966653,3.089565,6.159146,1.5263194,0.1384697,-0.6372469
3.444,-0.9835563,3.0872622,6.1429367,1.5022001,0.1282318,-0.6247566
3.446,-0.98732847,3.0858874,6.1275744,1.477494,0.11678222,-0.61220837
3.448,-0.99104863,3.0853786,6.113062,1.4522353,0.10417189,-0.5995515
3.45,-0.99477756,3.085648,6.0994177,1.4264312,0.09044808,-0.58673525
3.452,-0.99857765,3.0865788,6.0867214,1.400084,0.075664654,-0.5737172
3.454,-1.0023158,3.0881484,6.074936,1.3731893,0.059869483,-0.5604582
3.456,-1.0059448,3.0903206,6.064103,1.3457279,0.043110803,-0.5469351
3.458,-1.0094856,3.0930424,6.054238,1.3176749,0.025414422,-0.5331304
3.46,-1.012916,3.0963836,6.045412,1.2890134,0.006830305,-0.5190511
3.462,-1.0163617,3.1003127,6.0375547,1.259731,-0.012611419,-0.5047052
3.464,-1.0196486,3.1048188,6.03065,1.2298144,-0.032874405,-0.49011433
3.466,-1.0226845,3.109795,6.0247087,1.1992632,-0.053924218,-0.47528604
3.468,-1.0256841,3.1154633,6.0197353,1.1680931,-0.07571824,-0.4602581
3.47,-1.0283498,3.1217747,6.015712,1.1363235,-0.09821844,-0.44505054
3.472,-1.030674,3.1286798,6.012692,1.1039852,-0.1213727,-0.42967206
3.474,-1.0326872,3.1362016,6.0106206,1.0711007,-0.1451419,-0.41414723
3.476,-1.0341462,3.1443086,6.009508,1.0377082,-0.1694671,-0.39848453
3.478,-1.0352166,3.1529536,6.0093155,1.0038517,-0.1942886,-0.38269943
3.48,-1.0356301,3.1621003,6.0100317,0.9695632,-0.21955732,-0.366829
3.482,-1.0354245,3.1717203,6.0116625,0.93488306,-0.24520208,-0.3508827
3.484,-1.0344795,3.1816792,6.0142264,0.89985055,-0.27115673,-0.33490074
3.486,-1.032743,3.1919425,6.017783,0.8645007,-0.29736203,-0.31890523
3.488,-1.0302441,3.2023754,6.022266,0.8288741,-0.32375756,-0.30292466
3.49,-1.0269238,3.212861,6.0277376,0.7930149,-0.35026902,-0.28699088
3.492,-1.0224912,3.2233837,6.0342307,0.75698227,-0.37681538,-0.27114552
3.494,-1.0171912,3.2337985,6.0416994,0.7208241,-0.40332952,-0.25542897
3.496,-1.0108949,3.243864,6.050151,0.6846028,-0.42974496,-0.23988168
