Time_s_,Acc_x_m_s_2_,Acc_y_m_s_2_,Acc_z_m_s_2_,Gyro_x_1_s_,Gyro_y_1_s_,Gyro_z_1_s_
0,-0.44444752,1.7666371,-1.8434237,0.861796,-1.0659063,-0.9370271
0.002,-0.31506273,1.8097953,-1.7444547,0.8626782,-1.0723251,-0.9345857
0.004,-0.19335705,1.8583281,-1.6344783,0.86270344,-1.080894,-0.93068486
0.006,-0.07964605,1.9115137,-1.5113279,0.86146486,-1.0919558,-0.9249588
0.008,0.025508761,1.9684217,-1.374313,0.85857546,-1.1058556,-0.91719717
0.01,0.121108174,2.028131,-1.2231009,0.85368025,-1.1228852,-0.9076259
0.012,0.20648348,2.0899024,-1.057825,0.8464712,-1.143226,-0.89697963
0.014,0.28104782,2.1529443,-0.8793824,0.836674,-1.1668448,-0.8864192
0.016,0.34438276,2.2165778,-0.68868494,0.8241174,-1.1934026,-0.87747115
0.018,0.39597917,2.2801178,-0.4861646,0.8087261,-1.2223701,-0.8719811
0.02,0.43599164,2.3426733,-0.2719694,0.79047483,-1.2530897,-0.87185997
0.022,0.46487772,2.4035308,-0.04623606,0.7693125,-1.2848911,-0.8787933
0.024,0.48337454,2.4616416,0.1906851,0.7450993,-1.3172009,-0.8939796
0.026,0.49244392,2.5162587,0.4379812,0.7175943,-1.3496054,-0.9178928
0.028,0.4931488,2.5666304,0.69440854,0.6862918,-1.382207,-0.950244
0.03,0.4866463,2.612327,0.9581476,0.65130126,-1.4142263,-0.98975235
0.032,0.47421885,2.6531014,1.2269434,0.61269486,-1.4451435,-1.0344296
0.034,0.45705175,2.6889951,1.4982249,0.57090545,-1.4741341,-1.0817516
0.036,0.43667424,2.7203624,1.7691672,0.5268733,-1.4997133,-1.128967
0.038,0.4143541,2.7477827,2.03703,0.48219517,-1.5197327,-1.1735117
0.04,0.39108795,2.7717788,2.2992795,0.4387623,-1.5320574,-1.213436
0.042,0.36759263,2.7933977,2.553461,0.39863688,-1.5338221,-1.2470529
0.044,0.34408224,2.8137097,2.7970629,0.3638486,-1.5224794,-1.2732009
0.046,0.32039678,2.8337896,3.0274136,0.33614478,-1.496493,-1.2918246
0.048,0.29640293,2.8544858,3.2419593,0.31674522,-1.4548535,-1.3034698
0.05,0.2716859,2.8767016,3.4380856,0.3062142,-1.397365,-1.3089639
0.052,0.24572259,2.9011528,3.6132684,0.3045521,-1.3250405,-1.3095742
0.054,0.21794724,2.9283998,3.7650127,0.3113476,-1.2398865,-1.3069637
0.056,0.19051218,2.959524,3.8948674,0.3258759,-1.144454,-1.3028916
0.058,0.15899235,2.9938285,3.9966776,0.3471727,-1.0415716,-1.2990307
0.06,0.12379855,3.0302703,4.0695724,0.3740541,-0.9341584,-1.296805
0.062,0.089042425,3.0660465,4.1141205,0.40517184,-0.82503635,-1.2972741
0.064,0.05274892,3.1018095,4.126517,0.43906638,-0.7168253,-1.3010323
0.066,0.0072378516,3.1403937,4.1080556,0.47425184,-0.61190426,-1.3083725
0.068,-0.04423541,3.178204,4.0624633,0.50926757,-0.5124545,-1.3194919
0.07,-0.097832024,3.2113717,3.9873502,0.5426743,-0.42044747,-1.3345234
0.072,-0.15429449,3.2381709,3.8849185,0.5731537,-0.3375002,-1.3535218
0.074,-0.21249032,3.2556121,3.758712,0.5996122,-0.2648341,-1.376493
0.076,-0.2683316,3.260224,3.607808,0.621264,-0.20321912,-1.4034065
0.078,-0.31746542,3.2494519,3.4310858,0.63770187,-0.15294042,-1.4341193
0.08,-0.35684657,3.2219985,3.2309608,0.6488761,-0.113780946,-1.4683602
0.082,-0.38508844,3.1774971,3.0109046,0.65506256,-0.08509427,-1.5057487
0.084,-0.40273792,3.116376,2.7730913,0.656806,-0.06582716,-1.5458517
0.086,-0.41109192,3.0388315,2.51984,0.6548642,-0.054628998,-1.5881864
0.088,-0.4108644,2.9437518,2.2540998,0.6501575,-0.04990363,-1.6322691
0.09,-0.40310854,2.8298814,1.9773226,0.64370465,-0.049971968,-1.677609
0.092,-0.38996387,2.6972485,1.6895055,0.63660014,-0.05306989,-1.7237761
0.094,-0.37295055,2.5465236,1.3903449,0.63000304,-0.057334214,-1.7703726
0.096,-0.3531565,2.3784094,1.0794767,0.62512815,-0.06092474,-1.8170326
0.098,-0.3318522,2.1938987,0.75726086,0.6231504,-0.062114477,-1.8633989
0.1,-0.30972272,1.9940081,0.4249568,0.62516034,-0.05936697,-1.9090879
0.102,-0.2875485,1.7799726,0.0852235,0.6320994,-0.051510334,-1.953781
0.104,-0.26559815,1.5526675,-0.25899714,0.6446897,-0.037849277,-1.997271
0.106,-0.24457172,1.3132455,-0.60474336,0.6633998,-0.018259019,-2.0394487
0.108,-0.22619942,1.0632994,-0.9489635,0.6884171,0.0068384707,-2.0803256
0.11,-0.21212858,0.8045679,-1.2885121,0.7196708,0.03648445,-2.1200535
0.112,-0.20471239,0.53938425,-1.6203622,0.75684583,0.06935856,-2.1588962
0.114,-0.20564519,0.26981437,-1.941096,0.79946136,0.103885114,-2.1972337
0.116,-0.21635583,-0.001943782,-2.2472236,0.8468942,0.1383729,-2.235488
0.118,-0.23810725,-0.27347088,-2.5340877,0.89841634,0.17111897,-2.274073
0.12,-0.2713224,-0.5429791,-2.7961082,0.95317775,0.20043969,-2.3133647
0.122,-0.3160817,-0.8088659,-3.0280192,1.0102286,0.22478437,-2.3537047
0.124,-0.37282795,-1.0696019,-3.2238896,1.0685422,0.24275768,-2.3953283
0.126,-0.44096816,-1.3238777,-3.3785565,1.1270324,0.25304306,-2.4383533
0.128,-0.51951385,-1.5703917,-3.4883828,1.1845855,0.25439835,-2.4827857
0.13,-0.60791373,-1.8077796,-3.5506191,1.2400806,0.24576694,-2.5284805
0.132,-0.70556176,-2.03474,-3.562753,1.2923894,0.22633964,-2.5752022
0.134,-0.81172496,-2.2497673,-3.5235732,1.3404421,0.19567192,-2.6226506
0.136,-0.92549723,-2.4511487,-3.432942,1.3832934,0.15379447,-2.6705093
0.138,-1.0456231,-2.6370134,-3.2910776,1.4201971,0.10128707,-2.7184272
0.14,-1.1704699,-2.8061762,-3.0983434,1.4506555,0.039320648,-2.766007
0.142,-1.2983589,-2.957519,-2.8562486,1.474432,-0.030379772,-2.812833
0.144,-1.4273471,-3.0902998,-2.5675247,1.4915676,-0.105572045,-2.8584814
0.146,-1.5563676,-3.2039828,-2.235908,1.5023334,-0.18362069,-2.902473
0.148,-1.6845119,-3.2980657,-1.8661427,1.5072193,-0.26164997,-2.9443345
0.15,-1.810702,-3.3719163,-1.4645867,1.5068649,-0.33669227,-2.9835334
0.152,-1.9341028,-3.4250631,-1.0390813,1.5020585,-0.4058311,-3.019466
0.154,-2.0537534,-3.4570754,-0.598046,1.493649,-0.46640712,-3.0515413
0.156,-2.168642,-3.4675002,-0.14996845,1.4824686,-0.5160935,-3.0791757
0.158,-2.2783136,-3.456001,0.29680166,1.4693096,-0.55301625,-3.101855
0.16,-2.3822474,-3.422669,0.73466104,1.4548864,-0.5758655,-3.1192322
0.162,-2.4803176,-3.367958,1.1568012,1.4398091,-0.5839731,-3.1311264
0.164,-2.5724115,-3.292419,1.5572892,1.4245309,-0.5773598,-3.1374903
0.166,-2.6585577,-3.19703,1.9307487,1.4093778,-0.5567419,-3.1384478
0.168,-2.738706,-3.0831614,2.2726855,1.3945312,-0.52349305,-3.1343298
0.17,-2.8127973,-2.952207,2.579209,1.3799978,-0.47964364,-3.1255922
0.172,-2.8807278,-2.8059392,2.8474214,1.3656151,-0.4277835,-3.112762
0.174,-2.9421246,-2.6462953,3.075468,1.3510686,-0.37098044,-3.096399
0.176,-2.9966986,-2.475431,3.2629333,1.3358985,-0.3127309,-3.0770462
0.178,-3.044293,-2.2956953,3.410562,1.3194861,-0.25681925,-3.0552466
0.18,-3.084657,-2.1095724,3.5205977,1.3010426,-0.20703572,-3.0314977
0.182,-3.1174521,-1.9197545,3.5962012,1.2797062,-0.16702026,-3.006314
0.184,-3.142778,-1.7287014,3.6415992,1.2546246,-0.14005786,-2.980271
0.186,-3.1600006,-1.5388763,3.6616373,1.2251078,-0.1287902,-2.9539921
0.188,-3.16814,-1.3528464,3.6615226,1.1906965,-0.13498878,-2.928085
0.19,-3.166152,-1.173434,3.6472588,1.1512393,-0.15929562,-2.9030793
0.192,-3.1534307,-1.0032163,3.6250567,1.1069897,-0.20107222,-2.8794045
0.194,-3.1294615,-0.84484124,3.6003072,1.0585921,-0.25843185,-2.8572948
0.196,-3.09418,-0.7004961,3.5772882,1.0070682,-0.32837623,-2.8366652
0.198,-3.0476987,-0.5721313,3.5598927,0.95368713,-0.40711743,-2.8171122
0.2,-2.9896874,-0.46121418,3.551337,0.8997996,-0.49047798,-2.7979805
0.202,-2.9192636,-0.36928284,3.5542655,0.8466619,-0.57430726,-2.7783933
0.204,-2.8361022,-0.29731274,3.5714045,0.7952761,-0.654862,-2.7574265
0.206,-2.7403002,-0.24606228,3.6054418,0.7462926,-0.7290797,-2.7342749
0.208,-2.6318777,-0.2162168,3.6577208,0.699996,-0.79469275,-2.7083125
0.21,-2.5108018,-0.20823908,3.7279797,0.6563838,-0.8502726,-2.6792104
0.212,-2.3769078,-0.2223134,3.8145902,0.6152408,-0.8950827,-2.6469665
0.214,-2.230772,-0.2579795,3.9168372,0.576274,-0.92886674,-2.6118324
0.216,-2.07236,-0.3146801,4.0325255,0.53920996,-0.95167005,-2.5743475
0.218,-1.9022241,-0.3911705,4.159543,0.5039065,-0.96362776,-2.5352657
0.22,-1.7207527,-0.48625958,4.2950625,0.4703734,-0.9648713,-2.4953513
0.222,-1.5279775,-0.5987853,4.436089,0.4388067,-0.955408,-2.455385
0.224,-1.3239484,-0.7272749,4.578372,0.4096194,-0.9350554,-2.4161391
0.226,-1.1100739,-0.86953443,4.7176914,0.3833554,-0.9035356,-2.378347
0.228,-0.8872901,-1.0235071,4.8505683,0.3606316,-0.86056197,-2.342618
0.23,-0.65616894,-1.1867306,4.973092,0.34206635,-0.8059746,-2.3094764
0.232,-0.41742206,-1.3565733,5.082701,0.3282283,-0.7398362,-2.2794156
0.234,-0.17100608,-1.5303239,5.1767373,0.3196151,-0.6625578,-2.2528346
0.236,0.08277738,-1.7055744,5.2534266,0.31656054,-0.57496315,-2.2299855
0.238,0.34350204,-1.8802379,5.311824,0.31920236,-0.47840917,-2.2110002
0.24,0.6105069,-2.0524857,5.351001,0.32740566,-0.37482795,-2.195874
0.242,0.8824817,-2.2203264,5.369945,0.34079266,-0.266703,-2.1845155
0.244,1.1575868,-2.3813732,5.3689284,0.3586635,-0.15703872,-2.1767879
0.246,1.433332,-2.5334601,5.348901,0.38002533,-0.04936999,-2.1724925
0.248,1.706391,-2.6744106,5.3106117,0.40368283,0.05247587,-2.1714313
0.25,1.973126,-2.8015928,5.2547417,0.42830813,0.14462835,-2.1734364
0.252,2.2295966,-2.9122918,5.18291,0.4525314,0.22337794,-2.1783576
0.254,2.4722362,-3.003827,5.0975685,0.47506464,0.28548527,-2.1860476
0.256,2.6985812,-3.074289,5.0015993,0.49477828,0.32836938,-2.1963768
0.258,2.9057431,-3.1223664,4.898555,0.51073384,0.35026217,-2.2091892
0.26,3.0905106,-3.1472676,4.792733,0.52220166,0.35034674,-2.2241366
0.262,3.2493327,-3.1486125,4.6891346,0.5286786,0.32871747,-2.2407308
0.264,3.3787885,-3.126148,4.5923157,0.5298389,0.2863587,-2.2584283
0.266,3.4757395,-3.0800786,4.506263,0.5254362,0.22496712,-2.276643
0.268,3.5381224,-3.0109534,4.434469,0.5152423,0.14678895,-2.2947774
0.27,3.5646539,-2.9197469,4.3798685,0.4989891,0.054445922,-2.312156
0.272,3.5547535,-2.807468,4.344734,0.4763127,-0.049253285,-2.3280823
0.274,3.5088947,-2.6757724,4.3309374,0.4468061,-0.16137266,-2.3419356
0.276,3.4286776,-2.5265357,4.339609,0.41005233,-0.27895492,-2.353227
0.278,3.3162074,-2.3620849,4.3718266,0.36569703,-0.399123,-2.3616676
0.28,3.173945,-2.1852705,4.4298587,0.3135383,-0.5190989,-2.3671458
0.282,3.0050077,-1.998974,4.5151973,0.2536291,-0.636189,-2.369779
0.284,2.8127038,-1.8057741,4.6281686,0.186313,-0.74779516,-2.3698676
0.286,2.601198,-1.6082588,4.7681594,0.1122524,-0.851517,-2.3678894
0.288,2.3751545,-1.4090142,4.9332156,0.032338455,-0.94524205,-2.3644297
0.29,2.1396484,-1.2106605,5.1208677,-0.052361377,-1.0271802,-2.3601062
0.292,1.8998659,-1.0153892,5.3285894,-0.1407039,-1.0958726,-2.3555272
0.294,1.6612105,-0.82499486,5.5539784,-0.23156324,-1.150212,-2.351337
0.296,1.4289666,-0.64136523,5.7943735,-0.32393432,-1.1894685,-2.348209
0.298,1.2084701,-0.4662078,6.0467887,-0.4169387,-1.2132902,-2.3468456
0.3,1.0050606,-0.3011362,6.307872,-0.50988173,-1.2215905,-2.3480852
0.302,0.82403266,-0.14771402,6.57398,-0.6022086,-1.2145964,-2.3528895
0.304,0.67046255,-0.007287979,6.84183,-0.6935191,-1.1928253,-2.3623483
0.306,0.5491842,0.11872995,7.108643,-0.7835828,-1.1569997,-2.3777506
0.308,0.46399713,0.2292887,7.3715568,-0.87225217,-1.1081476,-2.400491
0.31,0.41836238,0.32318282,7.627796,-0.95938843,-1.0474299,-2.4318345
0.312,0.41522968,0.399323,7.87455,-1.0448706,-0.97614217,-2.472872
0.314,0.4567656,0.45697606,8.1089735,-1.1286201,-0.89575446,-2.5244596
0.316,0.54457766,0.4953804,8.328564,-1.2106102,-0.80777246,-2.587047
0.318,0.6801168,0.51396203,8.531405,-1.2908934,-0.71376747,-2.660524
0.32,0.8640443,0.5121877,8.716085,-1.369529,-0.6153459,-2.7442164
0.322,1.0964655,0.48953557,8.881343,-1.4465665,-0.5141051,-2.836968
0.324,1.3770938,0.44550705,9.024462,-1.5220511,-0.41156724,-2.9372387
0.326,1.7037971,0.3800323,9.144768,-1.5959935,-0.30917558,-3.043191
0.328,2.0738852,0.29362023,9.243584,-1.6684114,-0.20834741,-3.1527195
0.33,2.4837074,0.1869905,9.321261,-1.7393097,-0.1104059,-3.2635238
0.332,2.9289536,0.06110555,9.377293,-1.8086785,-0.016530603,-3.373254
0.334,3.404861,-0.08236647,9.412664,-1.8764896,0.072234675,-3.4796968
0.336,3.9064567,-0.24134177,9.427706,-1.9427652,0.15495409,-3.58082
0.338,4.427838,-0.4132619,9.422056,-2.007564,0.23082258,-3.674891
0.34,4.962112,-0.59511656,9.395918,-2.0710201,0.29914725,-3.7605526
0.342,5.5017633,-0.7836604,9.349441,-2.1333475,0.35940456,-3.8369453
0.344,6.039347,-0.9752149,9.282819,-2.1948075,0.4112232,-3.9037468
0.346,6.56753,-1.1660131,9.196215,-2.2556953,0.45438498,-3.961062
0.348,7.0795083,-1.3519875,9.089844,-2.3163288,0.4888554,-4.0093265
0.35,7.5686197,-1.5289428,8.9647665,-2.377,0.51484823,-4.0492516
0.352,8.030033,-1.6937251,8.822655,-2.4379647,0.53283465,-4.0817437
0.354,8.459823,-1.8442292,8.663996,-2.4994354,0.54344463,-4.107753
0.356,8.854623,-1.9785416,8.489563,-2.5616775,0.5472965,-4.1282573
0.358,9.210933,-2.0940542,8.301087,-2.624866,0.54512006,-4.1442504
0.36,9.525234,-2.1885848,8.099575,-2.689024,0.5378572,-4.156613
0.362,9.796608,-2.2613404,7.8857245,-2.7542422,0.5262921,-4.1661363
0.364,10.023544,-2.3116982,7.66023,-2.8206968,0.510914,-4.1736493
0.366,10.205078,-2.338728,7.4247904,-2.8885598,0.4920071,-4.1799183
0.368,10.342503,-2.3422878,7.1804266,-2.9579923,0.46961385,-4.1856327
0.37,10.438075,-2.3232722,6.928393,-3.029194,0.4434575,-4.191439
0.372,10.495263,-2.2833931,6.6699505,-3.1023355,0.41309863,-4.197939
0.374,10.517504,-2.224375,6.4063478,-3.1775084,0.37806427,-4.2056994
0.376,10.508543,-2.1476831,6.139059,-3.2547202,0.33793658,-4.2152314
0.378,10.47243,-2.0550773,5.869451,-3.3338325,0.2924257,-4.2269187
0.38,10.413572,-1.9489135,5.5988283,-3.414547,0.24143864,-4.2409563
0.382,10.336856,-1.8318778,5.32885,-3.4964118,0.18522741,-4.257375
0.384,10.247318,-1.7065688,5.06121,-3.5788603,0.12430774,-4.2760057
0.386,10.150047,-1.5755713,4.7976966,-3.6613533,0.05923298,-4.2964883
0.388,10.050683,-1.4414583,4.5400167,-3.743379,-0.009318382,-4.3183184
0.39,9.955318,-1.3067665,4.2885814,-3.8245227,-0.080655694,-4.340902
0.392,9.869472,-1.1740859,4.04501,-3.9046152,-0.15439817,-4.3635497
0.394,9.798466,-1.0465299,3.8117745,-3.983789,-0.23053372,-4.385534
0.396,9.74691,-0.92662346,3.591245,-4.062429,-0.30938947,-4.406109
0.398,9.718229,-0.8163763,3.3864145,-4.141198,-0.39154243,-4.4246016
0.4,9.715217,-0.71732956,3.199794,-4.2209163,-0.4777706,-4.4404793
0.402,9.73999,-0.6309189,3.0339732,-4.302452,-0.5688411,-4.4532676
0.404,9.793704,-0.558254,2.8910356,-4.3866134,-0.66532326,-4.462503
0.406,9.876512,-0.4997462,2.7730277,-4.474023,-0.7673618,-4.4678035
0.408,9.987449,-0.4552654,2.6816928,-4.5649576,-0.8744491,-4.468975
0.41,10.124646,-0.4241346,2.618202,-4.6592364,-0.9853125,-4.4659357
0.412,10.28544,-0.405384,2.5837362,-4.756286,-1.0981197,-4.4586697
0.414,10.466497,-0.39765894,2.5787587,-4.855159,-1.2105503,-4.447307
0.416,10.66351,-0.39928406,2.6029115,-4.9544945,-1.3195922,-4.432143
0.418,10.87193,-0.40834945,2.6557317,-5.0526705,-1.4218743,-4.413602
0.42,11.086389,-0.42268205,2.7358987,-5.1479764,-1.5139874,-4.3922343
0.422,11.301591,-0.4397334,2.8413942,-5.2387486,-1.5926284,-4.368727
0.424,11.512261,-0.4570703,2.9694605,-5.3234553,-1.6547854,-4.3438506
0.426,11.71323,-0.47206336,3.116559,-5.4008884,-1.6979697,-4.318413
0.428,11.899469,-0.48211426,3.2786167,-5.4702625,-1.7204003,-4.293274
0.43,12.066515,-0.4847834,3.4515011,-5.531209,-1.7210011,-4.2693105
0.432,12.209934,-0.47737738,3.630648,-5.583762,-1.6993996,-4.247418
0.434,12.326176,-0.4574021,3.8116472,-5.628316,-1.6558727,-4.228453
0.436,12.412683,-0.4226793,3.9888496,-5.6655326,-1.591342,-4.2131753
0.438,12.467812,-0.37158754,4.1548176,-5.6962547,-1.5072225,-4.2022605
0.44,12.490552,-0.30225542,4.3046584,-5.7213593,-1.4051805,-4.196224
0.442,12.480332,-0.2127899,4.434624,-5.7417717,-1.2872628,-4.195405
0.444,12.437706,-0.10230625,4.5400825,-5.7583556,-1.1556733,-4.199997
0.446,12.363951,0.029636502,4.617432,-5.771842,-1.0125091,-4.21007
0.448,12.260799,0.18320292,4.6637626,-5.7828074,-0.8597397,-4.2255936
0.45,12.130432,0.358644,4.676493,-5.7917047,-0.6992867,-4.2464185
0.452,11.97563,0.5556016,4.653594,-5.7988925,-0.5329256,-4.272319
0.454,11.799636,0.77321476,4.5936275,-5.804602,-0.36219758,-4.3030066
0.456,11.605585,1.0108635,4.496114,-5.8089795,-0.18846923,-4.3382344
0.458,11.397208,1.2671971,4.361781,-5.812048,-0.012966573,-4.377785
0.46,11.178742,1.5405599,4.1914253,-5.813778,0.16320267,-4.421358
0.462,10.953415,1.8293172,3.9857829,-5.814129,0.33901083,-4.468595
0.464,10.724269,2.1319878,3.7476387,-5.8130655,0.5134544,-4.5191555
0.466,10.494514,2.446436,3.4799013,-5.8105645,0.6855298,-4.572706
0.468,10.268279,2.7695222,3.1852534,-5.806674,0.8541991,-4.6289206
0.47,10.049345,3.0982666,2.8675513,-5.8014684,1.0184002,-4.687432
0.472,9.839699,3.4304152,2.5308268,-5.795105,1.17703,-4.7478685
0.474,9.642026,3.7635424,2.1790516,-5.7878385,1.3289473,-4.809855
0.476,9.458667,4.094841,1.8157399,-5.7799754,1.4730008,-4.873018
0.478,9.291454,4.4218063,1.4453326,-5.7718973,1.6080825,-4.936995
0.48,9.142184,4.7423387,1.0723093,-5.763975,1.7331583,-5.001458
0.482,9.012621,5.0541306,0.70112944,-5.756631,1.8473673,-5.066101
0.484,8.904747,5.354454,0.3361659,-5.7502575,1.9500003,-5.1306496
0.486,8.82002,5.6405377,-0.018688202,-5.745216,2.0405645,-5.1949
0.488,8.75944,5.910166,-0.3600582,-5.741815,2.1188512,-5.258726
0.49,8.723464,6.1620183,-0.6849133,-5.7402673,2.1849642,-5.322067
0.492,8.712436,6.3951335,-0.9910289,-5.7407107,2.2392797,-5.3848863
0.494,8.72629,6.6085806,-1.2763482,-5.7432127,2.2824435,-5.447222
0.496,8.764602,6.801939,-1.5391513,-5.7477555,2.3154168,-5.5091352
0.498,8.8263855,6.9750586,-1.7786647,-5.7542706,2.3393679,-5.5707073
0.5,8.910467,7.1282754,-1.9945171,-5.7626104,2.3556356,-5.632012
0.502,9.015371,7.262211,-2.187253,-5.7726054,2.3657117,-5.693071
0.504,9.139024,7.378294,-2.3579717,-5.7840395,2.3711686,-5.7538524
0.506,9.278982,7.47801,-2.508064,-5.7966194,2.3735871,-5.814244
0.508,9.432704,7.5632763,-2.639551,-5.810043,2.374539,-5.8740773
0.51,9.597028,7.636204,-2.7545803,-5.8239512,2.3754942,-5.9331117
0.512,9.768741,7.6995277,-2.8563259,-5.837999,2.3777943,-5.9910727
0.514,9.944134,7.755996,-2.9482253,-5.8518167,2.3825803,-6.047695
0.516,10.119508,7.808506,-3.0338786,-5.8650217,2.3907723,-6.10274
0.518,10.291251,7.860064,-3.1165977,-5.877272,2.403037,-6.1559916
0.52,10.455564,7.913621,-3.1995351,-5.888282,2.419811,-6.2073317
0.522,10.608884,7.9720893,-3.2860794,-5.8978124,2.441297,-6.2567096
0.524,10.747595,8.038167,-3.379727,-5.9057393,2.4674456,-6.304184
0.526,10.868784,8.114547,-3.4836063,-5.9119725,2.4980714,-6.3498287
0.528,10.969647,8.203852,-3.6006584,-5.916453,2.5328953,-6.393718
0.53,11.048251,8.308265,-3.73321,-5.919142,2.5716317,-6.435883
0.532,11.103282,8.429407,-3.8833265,-5.9199853,2.6140037,-6.4763417
0.534,11.133746,8.568627,-4.05216,-5.918874,2.659803,-6.515027
0.536,11.139697,8.72666,-4.240345,-5.915657,2.7089005,-6.5518303
0.538,11.121934,8.903669,-4.448079,-5.9101696,2.7612138,-6.5865955
0.54,11.081755,9.09959,-4.6753063,-5.902224,2.8167186,-6.619177
0.542,11.021827,9.313594,-4.9214196,-5.8916574,2.8753574,-6.649506
0.544,10.944849,9.544579,-5.185339,-5.8783073,2.937005,-6.6775928
0.546,10.85422,9.791045,-5.465227,-5.861994,3.00148,-6.703578
0.548,10.753937,10.051151,-5.759267,-5.842576,3.068498,-6.727662
0.55,10.648046,10.322594,-6.06526,-5.8199387,3.1375854,-6.7501073
0.552,10.541067,10.602652,-6.3806562,-5.7939963,3.208126,-6.7711945
0.554,10.437132,10.888872,-6.7022476,-5.764695,3.2793798,-6.7912064
0.556,10.340722,11.178274,-7.027693,-5.7320213,3.3504078,-6.8104024
0.558,10.255827,11.467919,-7.3541765,-5.6960096,3.4201226,-6.8289604
0.56,10.186157,11.754896,-7.6790743,-5.656783,3.4873343,-6.8470154
0.562,10.13485,12.036449,-8.00019,-5.614482,3.550724,-6.864671
0.564,10.104233,12.309893,-8.314947,-5.5693264,3.6088989,-6.882007
0.566,10.096023,12.572596,-8.621552,-5.5215726,3.6604488,-6.899048
0.568,10.111089,12.822424,-8.91884,-5.4714856,3.70398,-6.915812
0.57,10.149527,13.057404,-9.205841,-5.4193974,3.7381542,-6.932298
0.572,10.210699,13.275881,-9.4818,-5.3656244,3.7617524,-6.9485145
0.574,10.293192,13.47625,-9.746909,-5.3104835,3.7737064,-6.964443
0.576,10.394895,13.657568,-10.0018635,-5.2542267,3.773154,-6.9800367
0.578,10.512733,13.819089,-10.247722,-5.197041,3.7595332,-6.995217
0.58,10.643067,13.960477,-10.48547,-5.1390743,3.7325294,-7.0098825
0.582,10.781616,14.081878,-10.716209,-5.0803876,3.6920915,-7.0239224
0.584,10.92387,14.183211,-10.941124,-5.020961,3.6384766,-7.037231
0.586,11.064836,14.264873,-11.161779,-4.960743,3.572166,-7.049687
0.588,11.199326,14.327609,-11.380178,-4.8996677,3.493814,-7.0611258
0.59,11.322449,14.372271,-11.59783,-4.8376503,3.4042943,-7.0713377
0.592,11.4293995,14.400097,-11.816332,-4.774623,3.304587,-7.080135
0.594,11.515796,14.412317,-12.036808,-4.7105875,3.1957724,-7.087325
0.596,11.577635,14.410145,-12.260445,-4.645605,3.0790095,-7.0926943
0.598,11.611448,14.394976,-12.488099,-4.579822,2.9555035,-7.0960426
0.6,11.614214,14.368261,-12.7202835,-4.513456,2.8264923,-7.0971737
0.602,11.584633,14.330846,-12.9577055,-4.4467664,2.693252,-7.0958986
0.604,11.520612,14.284718,-13.200257,-4.3800416,2.5570545,-7.092053
0.606,11.421919,14.231177,-13.447659,-4.3136115,2.4191558,-7.0854774
0.608,11.288893,14.171587,-13.698906,-4.247801,2.2807665,-7.0760117
0.61,11.122866,14.10685,-13.953014,-4.182911,2.1430788,-7.06347
0.612,10.926061,14.037946,-14.208889,-4.1192026,2.007205,-7.04768
0.614,10.7014675,13.965609,-14.465154,-4.0569196,1.8741057,-7.0284224
0.616,10.452448,13.890584,-14.720482,-3.9963067,1.7445774,-7.005467
0.618,10.183128,13.813432,-14.973812,-3.9375737,1.6192448,-6.9785905
0.62,9.89793,13.734786,-15.224152,-3.8809087,1.4985102,-6.9476194
0.622,9.601476,13.6548815,-15.470347,-3.8264918,1.3825407,-6.9124207
0.624,9.298767,13.574368,-15.711092,-3.7744474,1.2713091,-6.872914
0.626,8.994825,13.493535,-15.945414,-3.7248971,1.1645614,-6.8290586
0.628,8.69455,13.41254,-16.17252,-3.6779318,1.0618627,-6.7808957
0.63,8.402776,13.331678,-16.391665,-3.6336486,0.96262664,-6.728557
0.632,8.124061,13.250993,-16.601898,-3.5921192,0.8661264,-6.6722326
0.634,7.8623896,13.17058,-16.80212,-3.5533848,0.7715229,-6.612182
0.636,7.620879,13.090668,-16.991766,-3.517497,0.6779771,-6.548746
0.638,7.402325,13.011217,-17.170694,-3.4845057,0.5845906,-6.4822955
0.64,7.208424,12.932489,-17.338917,-3.4544497,0.49052092,-6.413258
0.642,7.040214,12.854958,-17.496395,-3.4273272,0.39500445,-6.342147
0.644,6.8983464,12.779144,-17.643427,-3.4031205,0.29729486,-6.2694607
0.646,6.782639,12.705917,-17.780354,-3.3817954,0.19675447,-6.195681
0.648,6.692029,12.636074,-17.90781,-3.3632514,0.092847675,-6.121304
0.65,6.6253233,12.570352,-18.026602,-3.347312,-0.014804065,-6.046795
0.652,6.5802584,12.509564,-18.13719,-3.3337464,-0.12640381,-5.972597
0.654,6.5545425,12.454514,-18.240189,-3.3222456,-0.24195513,-5.8991055
0.656,6.5453157,12.406294,-18.336731,-3.312429,-0.36123407,-5.82666
0.658,6.549197,12.366155,-18.427979,-3.303866,-0.4837677,-5.755538
0.66,6.5625515,12.335482,-18.51553,-3.296061,-0.6088975,-5.6860003
0.662,6.5818834,12.315369,-18.601028,-3.2885203,-0.7358133,-5.6182456
0.664,6.6037703,12.306806,-18.686317,-3.2807777,-0.86363155,-5.5524416
0.666,6.624489,12.311329,-18.772415,-3.2723937,-0.9914335,-5.488695
0.668,6.6408615,12.330134,-18.860909,-3.2630048,-1.1183065,-5.4271073
0.67,6.6496687,12.363941,-18.953325,-3.2523055,-1.2434063,-5.367763
0.672,6.6484623,12.413498,-19.051004,-3.2400298,-1.3659859,-5.3107214
0.674,6.634843,12.479529,-19.155605,-3.2259715,-1.4853857,-5.255995
0.676,6.6069117,12.562314,-19.268446,-3.2099752,-1.6010463,-5.2036037
0.678,6.563363,12.661943,-19.390839,-3.1918762,-1.7124928,-5.1535554
0.68,6.5034895,12.778265,-19.523987,-3.1715176,-1.8192966,-5.105888
0.682,6.4268503,12.910843,-19.668774,-3.1487489,-1.921058,-5.0606704
0.684,6.3335924,13.05896,-19.825798,-3.1234019,-2.0174007,-5.017968
0.686,6.2246714,13.221556,-19.995117,-3.0953255,-2.1079595,-4.977845
0.688,6.101205,13.397333,-20.176668,-3.0644023,-2.1923845,-4.9403596
0.69,5.965087,13.584658,-20.370554,-3.0305405,-2.2704017,-4.9055643
0.692,5.8185062,13.781544,-20.57684,-2.9936666,-2.3417974,-4.8735065
0.694,5.66374,13.986585,-20.795578,-2.9537659,-2.4064374,-4.8441796
0.696,5.503869,14.19771,-21.026535,-2.9108996,-2.464289,-4.8175564
0.698,5.3419857,14.412584,-21.269123,-2.865189,-2.5154014,-4.7935705
0.7,5.181185,14.62908,-21.522537,-2.8167725,-2.5599275,-4.772087
0.702,5.0247517,14.844819,-21.78574,-2.7658346,-2.598135,-4.7529297
0.704,4.875657,15.057746,-22.057747,-2.7126112,-2.6304364,-4.735891
0.706,4.7371855,15.265619,-22.33714,-2.6573298,-2.657344,-4.720705
0.708,4.612273,15.466281,-22.622673,-2.6002603,-2.6794677,-4.7070837
0.71,4.503745,15.657796,-22.913254,-2.5416856,-2.6975594,-4.694737
0.712,4.4130898,15.838797,-23.20693,-2.4819083,-2.7124364,-4.6833534
0.714,4.3428116,16.00764,-23.502472,-2.4212654,-2.7250042,-4.672608
0.716,4.2941656,16.163368,-23.798393,-2.3601143,-2.7362268,-4.662189
0.718,4.2682104,16.305256,-24.093685,-2.298789,-2.7470708,-4.6518264
0.72,4.2654753,16.433022,-24.387278,-2.237627,-2.7585201,-4.6412582
0.722,4.2862997,16.546516,-24.677958,-2.1769383,-2.7715063,-4.6302266
0.724,4.33043,16.645815,-24.964945,-2.1169748,-2.7869298,-4.6185083
0.726,4.3972597,16.731031,-25.247238,-2.057956,-2.8055785,-4.6059484
0.728,4.485855,16.802979,-25.52364,-2.0000086,-2.8281364,-4.59243
0.73,4.594863,16.862354,-25.793423,-1.9431384,-2.8551245,-4.5778503
0.732,4.722337,16.91041,-26.055986,-1.8872683,-2.8869205,-4.562142
0.734,4.8661776,16.948273,-26.311266,-1.8322327,-2.923809,-4.5452685
0.736,5.0238304,16.977468,-26.558796,-1.7777932,-2.9659705,-4.527213
0.738,5.192334,16.99983,-26.798386,-1.7236891,-3.013533,-4.507983
0.74,5.3687,17.016823,-27.03019,-1.6696615,-3.066618,-4.4875984
0.742,5.549856,17.03027,-27.254597,-1.6154482,-3.125359,-4.466056
0.744,5.7325907,17.041876,-27.47209,-1.5608432,-3.1899207,-4.4433107
0.746,5.9140778,17.053,-27.68327,-1.505676,-3.2605233,-4.4193254
0.748,6.0912457,17.065176,-27.8885,-1.4498258,-3.3374188,-4.3940344
0.75,6.261492,17.079926,-28.088419,-1.3932065,-3.420849,-4.3673406
0.752,6.4217844,17.098753,-28.283787,-1.335728,-3.5110145,-4.339149
0.754,6.5694513,17.123026,-28.475182,-1.2773074,-3.6079574,-4.30936
0.756,6.7021427,17.153824,-28.663052,-1.2178518,-3.7115529,-4.2778616
0.758,6.8177357,17.192179,-28.847813,-1.1572312,-3.8214498,-4.244578
0.76,6.9143677,17.238764,-29.029572,-1.0953072,-3.937069,-4.2094846
0.762,6.9906573,17.29428,-29.208656,-1.0319066,-4.057596,-4.1725965
0.764,7.04568,17.359312,-29.385403,-0.9668672,-4.1820455,-4.1339364
0.766,7.0790157,17.434237,-29.55983,-0.9000279,-4.3093057,-4.0935664
0.768,7.090584,17.519222,-29.731934,-0.83128285,-4.4381957,-4.0515857
0.77,7.081011,17.614426,-29.901516,-0.7605639,-4.5675664,-4.008117
0.772,7.0509186,17.720238,-30.068316,-0.6878683,-4.6963835,-3.9632957
0.774,7.001771,17.836544,-30.232044,-0.61322796,-4.8237567,-3.917293
0.776,6.935385,17.963112,-30.392376,-0.53672755,-4.948979,-3.870281
0.778,6.853712,18.099646,-30.549187,-0.4584843,-5.071502,-3.8224332
0.78,6.759208,18.245922,-30.701956,-0.37864625,-5.190977,-3.77391
0.782,6.6543484,18.401472,-30.850126,-0.2973836,-5.307217,-3.7248828
0.784,6.5420327,18.565731,-30.992805,-0.2148956,-5.4201617,-3.675517
0.786,6.425444,18.738146,-31.129261,-0.13138616,-5.529867,-3.6260004
0.788,6.3075433,18.918056,-31.258791,-0.047085106,-5.6364613,-3.576515
0.79,6.1913304,19.104633,-31.380896,0.037742615,-5.740161,-3.5272725
0.792,6.0800233,19.296907,-31.494902,0.12279707,-5.841223,-3.4785233
0.794,5.9766374,19.49412,-31.6003,0.2077443,-5.939929,-3.430564
0.796,5.8836784,19.694916,-31.696495,0.29220814,-6.0365944,-3.3837585
0.798,5.8036213,19.898306,-31.782928,0.37582135,-6.1315327,-3.338522
0.8,5.738641,20.103174,-31.859013,0.45819408,-6.225026,-3.2953165
0.802,5.6902785,20.308357,-31.923752,0.5389973,-6.3172665,-3.2546635
0.804,5.6598425,20.51224,-31.9761,0.6179614,-6.408351,-3.2171178
0.806,5.6478076,20.713692,-32.015144,0.69486976,-6.4982753,-3.1832328
0.808,5.654183,20.911888,-32.04003,0.7695638,-6.586933,-3.1535666
0.81,5.6785445,21.10577,-32.05018,0.841946,-6.674133,-3.1286685
0.812,5.7199545,21.294422,-32.04482,0.9119329,-6.759646,-3.109023
0.814,5.7770505,21.47676,-32.0231,0.9794446,-6.843237,-3.0950775
0.816,5.8480062,21.652132,-31.983955,1.0443547,-6.924714,-3.0872083
0.818,5.930295,21.820213,-31.92633,1.1064935,-7.003949,-3.0857568
0.82,6.021111,21.98077,-31.848957,1.1656626,-7.0809298,-3.0910034
0.822,6.117274,22.133694,-31.750977,1.2216212,-7.155753,-3.103153
0.824,6.215495,22.27882,-31.63162,1.2741021,-7.22855,-3.1223423
0.826,6.31189,22.416368,-31.490013,1.3228375,-7.299442,-3.1486163
0.828,6.402779,22.546696,-31.325262,1.3675826,-7.368491,-3.1819263
0.83,6.4844685,22.6701,-31.136417,1.4081308,-7.435651,-3.2221441
0.832,6.5532794,22.787178,-30.922623,1.4443264,-7.5006886,-3.269075
0.834,6.606002,22.898668,-30.683037,1.4761287,-7.56316,-3.3224218
0.836,6.6395917,23.005566,-30.417044,1.5035919,-7.6223445,-3.3818321
0.838,6.6513805,23.108362,-30.124464,1.5268846,-7.6772685,-3.446891
0.84,6.639559,23.208023,-29.804947,1.5462472,-7.7267637,-3.5171723
0.842,6.6024723,23.30537,-29.458385,1.5620255,-7.76947,-3.592269
0.844,6.539261,23.401276,-29.08479,1.5746934,-7.803939,-3.6717925
0.846,6.449752,23.496595,-28.684948,1.5847827,-7.828644,-3.7553952
0.848,6.3344517,23.592031,-28.259367,1.5928477,-7.8420706,-3.8427627
0.85,6.194425,23.688509,-27.808502,1.599495,-7.8427334,-3.9336352
0.852,6.030894,23.786896,-27.333307,1.605331,-7.8292446,-4.027832
0.854,5.8458858,23.888018,-26.834538,1.6109643,-7.800315,-4.12521
0.856,5.6415133,23.992931,-26.31313,1.6169319,-7.7548075,-4.2257023
0.858,5.4202485,24.10252,-25.770315,1.6237259,-7.691686,-4.329297
0.86,5.184956,24.217535,-25.207579,1.6318052,-7.610013,-4.4360175
0.862,4.9389944,24.338758,-24.626574,1.6415422,-7.5089574,-4.545911
0.864,4.6861877,24.467073,-24.029472,1.6532443,-7.387748,-4.659047
0.866,4.430421,24.603012,-23.418995,1.6671627,-7.245672,-4.775525
0.868,4.1757526,24.747341,-22.797806,1.6834966,-7.0820813,-4.895491
0.87,3.9260998,24.90103,-22.16864,1.7024055,-6.89638,-5.019103
0.872,3.6856632,25.064957,-21.534758,1.7240024,-6.688026,-5.1465244
0.874,3.4584723,25.239647,-20.899273,1.7483456,-6.4565406,-5.277933
0.876,3.248559,25.425608,-20.265587,1.7754489,-6.201559,-5.41356
0.878,3.0600214,25.622997,-19.637218,1.8053151,-5.922849,-5.55365
0.88,2.8966064,25.831944,-19.017681,1.8379107,-5.620324,-5.6984453
0.882,2.7621727,26.052473,-18.4107,1.8731986,-5.2940774,-5.8482056
0.884,2.659813,26.28466,-17.819967,1.9111438,-4.9443774,-6.0031924
0.886,2.5931416,26.527996,-17.249437,1.9516834,-4.571704,-6.16362
0.888,2.5651617,26.78204,-16.702793,1.9947765,-4.176715,-6.3297114
0.89,2.5786276,27.046114,-16.183428,2.0403895,-3.7602983,-6.501593
0.892,2.6360168,27.319439,-15.694595,2.0885148,-3.3235471,-6.6793413
0.894,2.739233,27.601227,-15.239229,2.1391754,-2.867711,-6.862891
0.896,2.8898392,27.890583,-14.819721,2.192422,-2.394254,-7.052055
0.898,3.0892372,28.186459,-14.437721,2.248312,-1.90484,-7.246521
0.9,3.3386354,28.48782,-14.094465,2.3069499,-1.4013091,-7.44586
0.902,3.6387825,28.793573,-13.790817,2.3684607,-0.88564765,-7.649556
0.904,3.9903812,29.102417,-13.527231,2.4329247,-0.35996342,-7.8570013
0.906,4.3936777,29.413593,-13.303951,2.5004017,0.17357683,-8.067537
0.908,4.849059,29.72605,-13.120549,2.5708904,0.712775,-8.280513
0.91,5.356475,30.03867,-12.975998,2.6443772,1.2554297,-8.495253
0.912,5.9159784,30.350452,-12.868898,2.7207873,1.7993889,-8.711089
0.914,6.527338,30.660511,-12.797882,2.7999818,2.342613,-8.927384
0.916,7.1898193,30.96784,-12.761703,2.8818102,2.8832018,-9.143538
0.918,7.9022055,31.272018,-12.757467,2.9661293,3.4194143,-9.358944
0.92,8.663998,31.5723,-12.782551,3.0527797,3.9497695,-9.573024
0.922,9.474235,31.867659,-12.836296,3.141635,4.4730263,-9.785189
0.924,10.331486,32.157166,-12.916029,3.232594,4.9882317,-9.99489
0.926,11.233948,32.440422,-13.01848,3.325603,5.4946914,-10.201582
0.928,12.1794815,32.716873,-13.141134,3.420659,5.9919634,-10.404707
0.93,13.165825,32.98574,-13.28182,3.5178108,6.4798217,-10.603741
0.932,14.190283,33.24629,-13.438723,3.617168,6.9582405,-10.798157
0.934,15.24968,33.497692,-13.610357,3.7188792,7.4273505,-10.987415
0.936,16.340715,33.739586,-13.794915,3.8231006,7.8873963,-11.170927
0.938,17.459383,33.97179,-13.990149,3.9300141,8.338742,-11.348047
0.94,18.601103,34.194176,-14.19399,4.0397983,8.781879,-11.518063
0.942,19.76129,34.406403,-14.404764,4.1526012,9.217457,-11.680136
0.944,20.935118,34.607925,-14.620686,4.2685547,9.646309,-11.833359
0.946,22.11819,34.798008,-14.840126,4.3877254,10.069246,-11.976694
0.948,23.305765,34.97649,-15.061377,4.5100865,10.487127,-12.108936
0.95,24.493732,35.142815,-15.283114,4.6355896,10.901227,-12.228808
0.952,25.678156,35.296463,-15.503477,4.7641563,11.312878,-12.33502
0.954,26.855673,35.436634,-15.720625,4.895631,11.723198,-12.426195
0.956,28.023424,35.56245,-15.9317465,5.0298433,12.13334,-12.500816
0.958,29.17942,35.673042,-16.13481,5.1665955,12.544338,-12.5573635
0.96,30.321627,35.767197,-16.328257,5.305603,12.956946,-12.594456
0.962,31.449993,35.843395,-16.510403,5.4465656,13.371661,-12.610865
0.964,32.565086,35.900043,-16.680286,5.589096,13.788782,-12.605576
0.966,33.66897,35.935226,-16.83609,5.7327356,14.208354,-12.577813
0.968,34.76378,35.9473,-16.975157,5.8769426,14.630302,-12.527096
0.97,35.85277,35.93422,-17.095224,6.021059,15.054479,-12.453214
0.972,36.940407,35.893795,-17.194225,6.164291,15.480696,-12.356278
0.974,38.031464,35.823612,-17.269682,6.3057303,15.908721,-12.236604
0.976,39.13157,35.721382,-17.319427,6.444327,16.338264,-12.0946865
0.978,40.24744,35.584576,-17.342402,6.578909,16.768951,-11.931093
0.98,41.386364,35.41096,-17.338326,6.7081614,17.200222,-11.746492
0.982,42.556065,35.19808,-17.306932,6.83067,17.631315,-11.541636
0.984,43.764904,34.943737,-17.248375,6.94491,18.061195,-11.317268
0.986,45.0215,34.64549,-17.162645,7.049282,18.488564,-11.07423
0.988,46.334103,34.301296,-17.050802,7.1421967,18.91188,-10.813474
0.99,47.71131,33.90926,-16.91511,7.22207,19.329355,-10.536087
0.992,49.160892,33.4679,-16.757263,7.287305,19.73899,-10.243227
0.994,50.690292,32.97538,-16.577791,7.3363934,20.13882,-9.936136
0.996,52.30606,32.430042,-16.377068,7.367895,20.52684,-9.616081
0.998,54.016262,31.82962,-16.1566,7.380484,20.901121,-9.284352
1,55.829224,31.171295,-15.919474,7.3730464,21.260046,-8.942247
1.002,57.753395,30.452602,-15.668577,7.344634,21.602087,-8.590965
1.004,59.79582,29.672352,-15.40706,7.2943373,21.92554,-8.2315235
1.006,61.96288,28.830912,-15.138198,7.22134,22.22905,-7.864717
1.008,64.2612,27.928406,-14.865254,7.12496,22.511663,-7.491273
1.01,66.69682,26.965855,-14.591791,7.0045276,22.772533,-7.1119103
1.012,69.27496,25.946192,-14.321079,6.859304,23.011044,-6.727198
1.014,72.0004,24.873692,-14.055563,6.6885395,23.226912,-6.3375826
1.016,74.876915,23.754194,-13.797993,6.4913726,23.420115,-5.9434204
1.018,77.908516,22.596272,-13.552652,6.26688,23.591068,-5.545039
1.02,81.09348,21.416035,-13.325432,6.0140867,23.740395,-5.1427665
1.022,84.43356,20.227222,-13.117527,5.7318044,23.868515,-4.736943
1.024,87.92735,19.04518,-12.928108,5.418643,23.975792,-4.327791
1.026,91.57271,17.888987,-12.764835,5.0731287,24.06279,-3.9152443
1.028,95.35928,16.795141,-12.639912,4.6937947,24.130325,-3.4989119
1.03,99.26166,15.807343,-12.551815,4.2791753,24.179272,-3.078094
1.032,103.27016,14.930433,-12.479712,3.8278694,24.210503,-2.6516018
1.034,107.37506,14.179939,-12.42873,3.338671,24.225077,-2.217794
1.036,111.565,13.612291,-12.417538,2.8107767,24.224579,-1.7748263
1.038,115.826744,13.272533,-12.436546,2.2439785,24.211443,-1.3205763
1.04,120.14193,13.21405,-12.490963,1.6386237,24.189157,-0.8523793
1.042,124.49013,13.489471,-12.594594,0.9955969,24.162298,-0.36693215
1.044,128.85521,14.14772,-12.759985,0.3164711,24.136517,0.13967729
1.046,133.21315,15.238995,-12.996303,-0.39638233,24.11849,0.6718591
1.048,137.54877,16.814747,-13.3062525,-1.1397281,24.115578,1.2344825
1.05,141.86105,18.859207,-13.686247,-1.9095273,24.134426,1.8321687
1.052,146.19888,21.34663,-14.170734,-2.7017937,24.17987,2.4690664
1.054,150.48407,24.32346,-14.807667,-3.5129952,24.25493,3.1488106
1.056,154.68506,27.862896,-15.671215,-4.33922,24.361294,3.874057
1.058,158.79024,31.971634,-16.656662,-5.177356,24.495678,4.644555
1.06,162.80386,36.684658,-17.713778,-6.0268173,24.6486,5.4557066
1.062,166.73291,42.012573,-18.844984,-6.8888535,24.808235,6.3015804
1.064,170.59052,47.951862,-20.032433,-7.765488,24.960506,7.176093
1.066,174.37204,54.40246,-21.30163,-8.661953,25.085373,8.071819
1.068,178.0817,61.2553,-22.645857,-9.587474,25.157335,8.980333
1.07,181.7312,68.38745,-24.035078,-10.553691,25.149006,9.8935
1.072,185.36984,75.77013,-25.350403,-11.574793,25.030918,10.805275
1.074,189.04704,83.344025,-26.521458,-12.66852,24.771404,11.713886
1.076,192.79988,90.98447,-27.535345,-13.8546505,24.340168,12.62582
1.078,196.67226,98.570724,-28.369442,-15.153284,23.708118,13.555907
1.08,200.71844,106.01209,-29.010698,-16.582672,22.848179,14.532427
1.082,204.97621,113.16781,-29.352821,-18.158901,21.73558,15.601879
1.084,209.41132,119.93695,-29.311897,-19.890059,20.36042,16.809284
1.086,214.00836,126.216354,-28.798182,-21.777222,18.726377,18.188124
1.088,218.78009,131.87703,-27.747734,-23.834093,16.83198,19.774576
1.09,223.71623,136.79831,-26.086,-26.07712,14.676696,21.591253
1.092,228.76076,140.90102,-23.718887,-28.497078,12.27276,23.653114
1.094,233.89172,144.10144,-20.581438,-31.085003,9.647459,25.95974
1.096,239.06091,146.32988,-16.615715,-33.826836,6.8150616,28.477903
1.098,244.21652,147.60052,-11.771943,-36.702194,3.8103347,31.111477
1.1,249.2499,147.96007,-6.034966,-39.693794,0.654418,33.77446
1.102,254.06482,147.43198,0.59936285,-42.77664,-2.634801,36.353874
1.104,258.54657,146.05473,8.110098,-45.906094,-6.0418563,38.71225
1.106,262.56097,143.89783,16.4444,-49.0126,-9.555847,40.696297
1.108,265.969,141.06004,25.517277,-52.006344,-13.170384,42.141193
1.11,268.64737,137.65022,35.211697,-54.77121,-16.88006,42.887947
1.112,270.4942,133.76819,45.399788,-57.172813,-20.679375,42.81185
1.114,271.40326,129.53322,55.952568,-59.066956,-24.551136,41.83353
1.116,271.27466,125.072296,66.73163,-60.307014,-28.45507,39.919907
1.118,270.03937,120.48154,77.570206,-60.757973,-32.32409,37.088135
1.12,267.654,115.84644,88.259834,-60.310432,-36.06127,33.40741
1.122,264.09415,111.25324,98.58518,-58.895382,-39.54074,28.99042
1.124,259.37088,106.795715,108.33675,-56.493958,-42.62394,23.991167
1.126,253.5342,102.55738,117.321434,-53.138565,-45.17244,18.603573
1.128,246.6599,98.612564,125.35614,-48.91351,-47.05439,13.02946
1.13,238.86005,95.01883,132.27124,-43.950165,-48.163887,7.45914
1.132,230.26886,91.8303,137.91504,-38.415226,-48.431927,2.0839777
1.134,221.0416,89.09422,142.17154,-32.49819,-47.83081,-2.90793
1.136,211.34457,86.846985,144.97696,-26.396275,-46.37695,-7.3401804
1.138,201.35368,85.09599,146.3086,-20.30371,-44.13585,-11.040675
1.14,191.25673,83.83208,146.16257,-14.397756,-41.209675,-13.85785
1.142,181.21442,83.07315,144.55998,-8.819759,-37.720016,-15.69636
1.144,171.37416,82.81131,141.58708,-3.6862154,-33.811905,-16.51776
1.146,161.86914,82.9927,137.37234,0.9007046,-29.649223,-16.357141
1.148,152.81413,83.57579,132.04468,4.886387,-25.399837,-15.316806
1.15,144.30507,84.50706,125.77197,8.249475,-21.210958,-13.555428
1.152,136.41275,85.7304,118.74209,10.997147,-17.238806,-11.268936
1.154,129.1767,87.1896,111.14511,13.168877,-13.6061535,-8.735161
1.156,122.61685,88.8226,103.16644,14.818377,-10.415606,-6.2309146
1.158,116.72056,90.56188,94.98132,16.00375,-7.7427044,-4.00997
1.16,111.44439,92.38752,86.75171,16.788641,-5.6274557,-2.2830393
1.162,106.696396,94.25756,78.65617,17.245308,-4.0723286,-1.1972303
1.164,102.49306,96.05133,70.84978,17.444397,-3.0434966,-0.8332343
1.166,98.77135,97.64436,63.4692,17.458654,-2.4685352,-1.2098985
1.168,95.44336,98.99014,56.468197,17.35935,-2.2489944,-2.2762756
1.17,92.411354,100.01936,49.87621,17.208216,-2.2737932,-3.9125905
1.172,89.58905,100.697464,43.75971,17.057142,-2.4241586,-5.9469194
1.174,86.89882,101.007706,38.141445,16.949377,-2.583577,-8.178022
1.176,84.292656,101.011345,33.05984,16.918732,-2.6523979,-10.397188
1.178,81.72321,100.744644,28.496529,16.986755,-2.5510237,-12.4158945
1.18,79.14949,100.232605,24.402878,17.161491,-2.226709,-14.085819
1.182,76.513885,99.412994,20.66351,17.441097,-1.6624641,-15.291265
1.184,73.785255,98.27941,17.237988,17.81419,-0.8708894,-15.960073
1.186,70.962105,96.892,14.137901,18.25988,0.11068797,-16.085287
1.188,68.04687,95.2965,11.350552,18.750824,1.2240119,-15.715217
1.19,65.04143,93.5126,8.864086,19.255777,2.3995388,-14.934271
1.192,61.968094,91.610405,6.5869293,19.741913,3.5643303,-13.8461895
1.194,58.90171,89.61903,4.477854,20.177837,4.649921,-12.558064
1.196,55.868748,87.57882,2.507206,20.536068,5.5994987,-11.165813
1.198,52.85653,85.55486,0.679039,20.792332,6.367578,-9.746575
1.2,49.868423,83.59736,-1.01227,20.925457,6.91927,-8.358822
1.202,46.932888,81.72048,-2.5857124,20.921534,7.233358,-7.043726
1.204,44.028076,79.952614,-4.030142,20.776834,7.307236,-5.824558
1.206,41.151283,78.31403,-5.337261,20.496845,7.1552095,-4.7108107
1.208,38.294838,76.76425,-6.501828,20.093359,6.803136,-3.7035332
1.21,35.490692,75.27096,-7.5035744,19.584705,6.2860084,-2.798623
1.212,32.74113,73.85199,-8.338726,18.994692,5.644825,-1.9892702
1.214,30.056423,72.52243,-9.00551,18.349667,4.9234056,-1.2684083
1.216,27.454659,71.28018,-9.50099,17.676931,4.1669106,-0.62839746
1.218,24.948452,70.11219,-9.823644,17.002686,3.4189749,-0.059825897
1.22,22.53438,69.01275,-9.976034,16.349855,2.7177281,0.44795275
1.222,20.200684,67.99192,-9.982492,15.737001,2.0927434,0.90452194
1.224,17.957142,67.04277,-9.886075,15.178275,1.5654856,1.317235
1.226,15.819296,66.15537,-9.729805,14.683322,1.1501067,1.69239
1.228,13.789137,65.34744,-9.536275,14.257048,0.85320306,2.036409
1.23,11.867056,64.63154,-9.30126,13.899916,0.6740329,2.3555293
1.232,10.059557,64.00425,-9.029095,13.608652,0.6054628,2.6550121
1.234,8.363886,63.446392,-8.734835,13.377043,0.6354587,2.9386964
1.236,6.768947,62.94324,-8.441375,13.196744,0.748472,3.2090497
1.238,5.2676277,62.48207,-8.163136,13.057938,0.9267893,3.4676518
1.24,3.8498735,62.055435,-7.906393,12.950033,1.1518395,3.7155714
1.242,2.505247,61.65619,-7.6750717,12.862362,1.4053643,3.953354
1.244,1.2272587,61.277287,-7.4762897,12.784844,1.6703181,4.1810646
1.246,0.013855934,60.913258,-7.3216653,12.708497,1.9317098,4.398459
1.248,-1.1334,60.567146,-7.218751,12.625826,2.177227,4.605225
1.25,-2.2158203,60.248196,-7.163726,12.530954,2.3974812,4.801162
1.252,-3.2322369,59.96177,-7.1481085,12.419667,2.5860078,4.986227
1.254,-4.178749,59.70623,-7.1641245,12.289349,2.738938,5.160552
1.256,-5.0528755,59.478798,-7.204961,12.138828,2.8547223,5.3244123
1.258,-5.8534794,59.27585,-7.2633934,11.9681635,2.9335601,5.478094
1.26,-6.58197,59.09401,-7.3315125,11.778366,2.9767962,5.6216493
1.262,-7.240259,58.929466,-7.401143,11.571098,2.9864595,5.7547007
1.264,-7.831209,58.776848,-7.464098,11.348431,2.964799,5.8764267
1.266,-8.357227,58.629684,-7.513032,11.112654,2.9140184,5.985619
1.268,-8.821299,58.48259,-7.5415564,10.866107,2.836071,6.0807266
1.27,-9.226021,58.3322,-7.543726,10.611095,2.7326293,6.160032
1.272,-9.5738735,58.17569,-7.5135717,10.349877,2.6051643,6.2218895
1.274,-9.866606,58.010628,-7.4458303,10.084617,2.4549992,6.2649536
1.276,-10.105877,57.834785,-7.3361835,9.817434,2.2834463,6.2883267
1.278,-10.29397,57.645874,-7.181674,9.550444,2.092007,6.2917004
1.28,-10.433037,57.441235,-6.980611,9.285737,1.8824186,6.2754526
1.282,-10.525673,57.2181,-6.732952,9.025402,1.6567152,6.2407074
1.284,-10.573769,56.974174,-6.43969,8.771459,1.4172382,6.189305
1.286,-10.579552,56.707794,-6.102564,8.525822,1.1665595,6.123672
1.288,-10.5451145,56.41794,-5.724032,8.290245,0.9074278,6.0467267
1.29,-10.473053,56.104355,-5.3068047,8.066267,0.64267945,5.961633
1.292,-10.36566,55.76683,-4.8543696,7.8551283,0.3750322,5.8716326
1.294,-10.225229,55.405483,-4.3706303,7.657736,0.107043505,5.7797947
1.296,-10.054714,55.020576,-3.859425,7.474654,-0.15901232,5.688873
1.298,-9.856934,54.612354,-3.324913,7.3060994,-0.421201,5.601122
1.3,-9.634842,54.181156,-2.7712812,7.151932,-0.67792463,5.518199
1.302,-9.391142,53.726807,-2.2022634,7.0117025,-0.92796135,5.4410796
1.304,-9.128574,53.249023,-1.6214225,6.8846836,-1.1705358,5.370093
1.306,-8.849955,52.747383,-1.0322512,6.7699094,-1.4052567,5.3050017
1.308,-8.558323,52.221508,-0.43816245,6.66626,-1.6320169,5.245095
1.31,-8.256731,51.670845,0.15776086,6.572493,-1.8509815,5.189284
1.312,-7.948414,51.094822,0.7527701,6.4872856,-2.0625634,5.1362348
1.314,-7.6364746,50.492855,1.3445082,6.409255,-2.267363,5.0845513
1.316,-7.3235435,49.86418,1.9313544,6.3369894,-2.4661193,5.032911
1.318,-7.0127983,49.208473,2.5118577,6.2690763,-2.6596634,4.9801726
1.32,-6.706669,48.52533,3.0852437,6.2040825,-2.8488379,4.9254317
1.322,-6.4077263,47.81445,3.6511118,6.140622,-3.03445,4.8680825
1.324,-6.118105,47.075897,4.2092547,6.0773582,-3.2172365,4.807774
1.326,-5.8393574,46.310074,4.7595115,6.0130663,-3.3977964,4.744433
1.328,-5.57251,45.51741,5.3015785,5.946665,-3.5765238,4.678188
1.33,-5.3180065,44.698742,5.834404,5.8772306,-3.7536168,4.6092954
1.332,-5.075884,43.855053,6.3573914,5.8040032,-3.9290442,4.5381174
1.334,-4.845766,42.987816,6.8696465,5.726392,-4.102536,4.4651127
1.336,-4.62698,42.098927,7.370521,5.643985,-4.2735877,4.3907247
1.338,-4.418517,41.190525,7.859379,5.556524,-4.4415255,4.3154182
1.34,-4.2192316,40.264915,8.33564,5.463893,-4.605548,4.239614
1.342,-4.0274906,39.32456,8.798843,5.36606,-4.7648153,4.163628
1.344,-3.8419695,38.37207,9.248634,5.2630672,-4.9184513,4.087668
1.346,-3.6610327,37.41021,9.684553,5.1550517,-5.065595,4.0117927
1.348,-3.4830208,36.441837,10.106343,5.0422025,-5.2054224,3.9359033
1.35,-3.306489,35.46978,10.513808,4.924716,-5.3371844,3.8598068
1.352,-3.1297808,34.49697,10.906816,4.8028436,-5.4601836,3.7832685
1.354,-2.951869,33.52628,11.285406,4.6768875,-5.573769,3.7060318
1.356,-2.7716331,32.56018,11.64968,4.5471954,-5.6773295,3.6278749
1.358,-2.587986,31.600952,11.999652,4.414174,-5.770275,3.5486493
1.36,-2.4006042,30.65052,12.335626,4.278294,-5.8520393,3.468299
1.362,-2.208624,29.71053,12.657896,4.140073,-5.922135,3.3868902
1.364,-2.0120382,28.782377,12.966581,4.000058,-5.9800873,3.3045745
1.366,-1.8111782,27.86718,13.261796,3.8588364,-6.025501,3.2216034
1.368,-1.6064434,26.966148,13.543655,3.717024,-6.058064,3.1382382
1.37,-1.3982382,26.080122,13.812237,3.575221,-6.077532,3.0547132
1.372,-1.1876011,25.20993,14.067646,3.4340086,-6.083741,2.9712262
1.374,-0.9750929,24.356157,14.309895,3.2939513,-6.076614,2.8879068
1.376,-0.7619333,23.519424,14.538851,3.1555595,-6.056123,2.8048296
1.378,-0.5493994,22.700108,14.754559,3.0193176,-6.0222692,2.722033
1.38,-0.33881235,21.898674,14.956866,2.8856328,-5.975068,2.6394901
1.382,-0.1316204,21.11559,15.1455965,2.7548866,-5.9145145,2.5571432
1.384,0.07082176,20.351185,15.320517,2.6274037,-5.840575,2.4749885
1.386,0.26724005,19.60553,15.481302,2.5034704,-5.7532682,2.393011
1.388,0.45610332,18.878878,15.627543,2.383296,-5.652675,2.3112547
1.39,0.6358032,18.171389,15.75881,2.2669756,-5.539008,2.2298832
1.392,0.80514765,17.483242,15.874905,2.1545196,-5.4126196,2.1491292
1.394,0.9627218,16.81464,15.975338,2.0458188,-5.274034,2.06932
1.396,1.1074343,16.165928,16.059748,1.9406681,-5.124001,1.9908156
1.398,1.2381749,15.5373745,16.12779,1.8387529,-4.9634976,1.9139535
1.4,1.3542352,14.929165,16.178925,1.7396591,-4.793681,1.8390064
1.402,1.4551725,14.341551,16.21281,1.6428964,-4.6159096,1.7661524
1.404,1.5404692,13.774662,16.229233,1.5478922,-4.431697,1.6954517
1.406,1.6098995,13.228899,16.227724,1.4540156,-4.242722,1.6268544
1.408,1.6635315,12.704304,16.208294,1.3605819,-4.050788,1.5602323
1.41,1.7017207,12.200901,16.171024,1.2668959,-3.8577378,1.4954154
1.412,1.7250268,11.718829,16.115986,1.1722517,-3.665442,1.4322202
1.414,1.7342815,11.258,16.043612,1.0759296,-3.4757712,1.3704911
1.416,1.7305465,10.818227,15.95444,0.9772224,-3.2905087,1.3101566
1.418,1.7149894,10.399152,15.849232,0.87546897,-3.1112916,1.2512515
1.42,1.689199,10.000343,15.728782,0.7700323,-2.9395936,1.193898
1.422,1.6548479,9.621212,15.59425,0.66031504,-2.7766805,1.1382761
1.424,1.6137407,9.261021,15.446729,0.5458088,-2.6235077,1.0845498
1.426,1.567481,8.919133,15.287472,0.42611074,-2.480677,1.0328201
1.428,1.5182424,8.594709,15.117952,0.30090344,-2.348391,0.9830792
1.43,1.4682112,8.286869,14.939612,0.16998559,-2.2265232,0.9351942
1.432,1.419488,7.9947834,14.754042,0.033257365,-2.1146178,0.88892245
1.434,1.3742337,7.7176285,14.562948,-0.109248996,-2.0119545,0.84393275
1.436,1.334456,7.4545054,14.367973,-0.2574275,-1.9176387,0.7998659
1.438,1.3021536,7.2047276,14.1705675,-0.4110719,-1.8306444,0.75636387
1.44,1.2793788,6.9674683,13.972507,-0.56991786,-1.7498677,0.71312225
1.442,1.2676493,6.74221,13.775019,-0.7336419,-1.6742078,0.6699177
1.444,1.2685732,6.528283,13.579645,-0.9018881,-1.6025946,0.6266242
1.446,1.2835472,6.325156,13.387399,-1.0742921,-1.534014,0.5832362
1.448,1.3134645,6.1324873,13.199159,-1.2504622,-1.4675367,0.5398883
1.45,1.3590614,5.9500666,13.015759,-1.430007,-1.4022844,0.4968111
1.452,1.4208611,5.777899,12.837795,-1.6125286,-1.337429,0.45431462
1.454,1.4991922,5.6160965,12.665611,-1.7975888,-1.2721597,0.41273314
1.456,1.5940051,5.464859,12.499416,-1.9847345,-1.2056789,0.37238032
1.458,1.7052197,5.3244014,12.338977,-2.1734927,-1.1371857,0.33351728
1.46,1.8324611,5.194928,12.18376,-2.363385,-1.0659007,0.29633918
1.462,1.9748627,5.0767508,12.033155,-2.553923,-0.9910866,0.26099494
1.464,2.1317744,4.970209,11.88615,-2.7446258,-0.91205347,0.22762361
1.466,2.3018985,4.8758764,11.741738,-2.9350202,-0.8282002,0.19632198
1.468,2.4837928,4.794154,11.598842,-3.1246336,-0.7390158,0.16716328
1.47,2.6761403,4.7255096,11.456241,-3.313028,-0.64414394,0.14016093
1.472,2.8772535,4.670204,11.312442,-3.4998193,-0.54344106,0.115269914
1.474,3.0856457,4.6283007,11.166056,-3.684647,-0.43694758,0.092384435
1.476,3.2996716,4.5996256,11.015521,-3.8671913,-0.32493103,0.07134223
1.478,3.517006,4.5841813,10.859069,-4.047187,-0.2079643,0.05191553
1.48,3.7359653,4.5817995,10.69576,-4.22443,-0.08690822,0.03378778
1.482,3.955079,4.591997,10.524771,-4.398743,0.037111044,0.016538069
1.484,4.172474,4.614309,10.344933,-4.57001,0.16274524,-0.00034750253
1.486,4.3867464,4.6477003,10.155266,-4.7381625,0.28844023,-0.017467976
1.488,4.5964336,4.691165,9.954753,-4.903207,0.4124602,-0.03546673
1.49,4.8000407,4.74333,9.742689,-5.065189,0.5329627,-0.05501674
1.492,4.996104,4.803044,9.518672,-5.2241864,0.6480696,-0.07676418
1.494,5.183525,4.8689423,9.282674,-5.3803186,0.75593615,-0.10127029
1.496,5.3611345,4.939976,9.034874,-5.5337076,0.8548231,-0.12899989
1.498,5.5281944,5.0149426,8.77578,-5.6844606,0.9431927,-0.16024241
1.5,5.6842775,5.0926247,8.505952,-5.8326936,1.019753,-0.19510028
1.502,5.828711,5.1719313,8.225996,-5.978493,1.0835621,-0.23349008
1.504,5.9613314,5.2518845,7.9367595,-6.121875,1.1340947,-0.27506906
1.506,6.0819426,5.331609,7.6392875,-6.2627907,1.1713295,-0.31929857
1.508,6.1906133,5.410472,7.334786,-6.401147,1.1956404,-0.36545634
1.51,6.287551,5.4878335,7.0246167,-6.5368233,1.2077589,-0.41265935
1.512,6.372862,5.563484,6.710298,-6.6696157,1.208914,-0.4598995
1.514,6.4471445,5.637249,6.3933215,-6.7992845,1.2007089,-0.50613546
1.516,6.5110025,5.709029,6.07516,-6.925579,1.1850379,-0.5503314
1.518,6.5652533,5.778854,5.7574315,-7.048199,1.1640499,-0.5915163
1.52,6.6108956,5.846895,5.441357,-7.166814,1.1400423,-0.62879723
1.522,6.6487503,5.9132814,5.128256,-7.281104,1.1153369,-0.6614252
1.524,6.680024,5.978073,4.819093,-7.390731,1.0922027,-0.6888213
1.526,6.7057576,6.0414705,4.5149155,-7.495394,1.0727658,-0.7105963
1.528,6.727231,6.1037073,4.216561,-7.594827,1.0588791,-0.7265785
1.53,6.745465,6.164798,3.9245982,-7.688811,1.0520594,-0.7368053
1.532,6.7618494,6.2247906,3.6392012,-7.7771816,1.0534327,-0.7414985
1.534,6.7773466,6.28378,3.3605554,-7.8598204,1.0637183,-0.74100924
1.536,6.793341,6.3416576,3.0885005,-7.936665,1.0832162,-0.7357645
1.538,6.810812,6.3982744,2.822777,-8.007688,1.1118522,-0.72623765
1.54,6.8306565,6.4535656,2.5628371,-8.072876,1.149231,-0.71287847
1.542,6.8537183,6.5075064,2.30811,-8.132232,1.1947091,-0.69609725
1.544,6.8806534,6.5599046,2.057922,-8.185727,1.2474365,-0.6762506
1.546,6.912051,6.610702,1.8116349,-8.233351,1.306452,-0.6536591
1.548,6.9483485,6.6597424,1.5687056,-8.275049,1.3707433,-0.62860775
1.55,6.98962,6.7068167,1.3284323,-8.310694,1.4393232,-0.60139894
1.552,7.036068,6.7516975,1.0902976,-8.340101,1.5112915,-0.57239616
1.554,7.087523,6.794257,0.85371035,-8.36301,1.5858674,-0.54207444
1.556,7.1436324,6.8342757,0.6183685,-8.379093,1.6624012,-0.5110135
1.558,7.20403,6.8714967,0.38397354,-8.38797,1.7403799,-0.4799347
1.56,7.2680874,6.905757,0.15021455,-8.389208,1.8194258,-0.44968605
1.562,7.3350906,6.936729,-0.083091915,-8.382324,1.8993819,-0.42118573
1.564,7.404361,6.963958,-0.3160773,-8.366817,1.9802815,-0.39541197
1.566,7.47472,6.987164,-0.54872406,-8.342266,2.0621357,-0.3733368
1.568,7.545234,7.005958,-0.78093326,-8.308332,2.144968,-0.35581923
1.57,7.6146584,7.01996,-1.0122461,-8.264834,2.2287507,-0.34355497
1.572,7.682104,7.028577,-1.2424923,-8.211804,2.313349,-0.3370378
1.574,7.7465515,7.031265,-1.4711637,-8.149498,2.3985188,-0.33648396
1.576,7.8070674,7.0274115,-1.6977865,-8.078384,2.483871,-0.34185982
1.578,7.862891,7.016281,-1.9217353,-7.999203,2.5688019,-0.35287356
1.58,7.9129953,6.997228,-2.1422768,-7.9128957,2.6525378,-0.3690033
1.582,7.9567504,6.969604,-2.358667,-7.8205957,2.7341194,-0.38957262
1.584,7.993372,6.932869,-2.569945,-7.7236004,2.81245,-0.41378188
1.586,8.022514,6.8864274,-2.7750063,-7.623295,2.8863385,-0.4408095
1.588,8.044263,6.829437,-2.9726572,-7.521084,2.9545279,-0.46987224
1.59,8.058125,6.7613406,-3.1619956,-7.4183536,3.015796,-0.5002887
1.592,8.063722,6.6817613,-3.3419542,-7.3163834,3.069007,-0.5315149
1.594,8.060926,6.5902414,-3.510917,-7.216324,3.1131527,-0.5631645
1.596,8.049867,6.4866676,-3.6671102,-7.1191473,3.147421,-0.59494805
1.598,8.030902,6.3709974,-3.8088245,-7.025607,3.1712492,-0.6267278
1.6,8.004338,6.2432604,-3.9344153,-6.9362383,3.184314,-0.6584656
1.602,7.970752,6.103506,-4.042221,-6.851381,3.1865635,-0.69015765
1.604,7.930704,5.9519157,-4.130901,-6.7712,3.1781917,-0.7218108
1.606,7.884738,5.7887664,-4.199029,-6.695712,3.159631,-0.75338626
1.608,7.833542,5.61446,-4.24539,-6.6247754,3.1315598,-0.78475904
1.61,7.777898,5.429571,-4.2688255,-6.558193,3.09487,-0.81576157
1.612,7.7187033,5.234869,-4.26836,-6.495685,3.050622,-0.84614277
1.614,7.656658,5.0311785,-4.2433662,-6.4369307,3.000023,-0.87556887
1.616,7.59273,4.819421,-4.1934433,-6.381588,2.9444065,-0.9036989
1.618,7.527746,4.600713,-4.1184187,-6.329284,2.8851488,-0.9301567
1.62,7.4627504,4.376272,-4.0185556,-6.2796307,2.8236601,-0.9545846
1.622,7.398564,4.147149,-3.8943484,-6.2322264,2.7613785,-0.9766953
1.624,7.3359528,3.9148517,-3.7464442,-6.1866584,2.6996758,-0.9962661
1.626,7.2757087,3.6806588,-3.5759902,-6.1425047,2.6398358,-1.0131397
1.628,7.218422,3.4462035,-3.3843904,-6.099348,2.5830169,-1.02722
1.63,7.1646805,3.212845,-3.1730227,-6.0567884,2.530234,-1.0384972
1.632,7.1152744,2.982238,-2.9436083,-6.0144424,2.482359,-1.0470202
1.634,7.0704927,2.7559123,-2.6978993,-5.971965,2.4400933,-1.0529106
1.636,7.0307856,2.5354123,-2.437859,-5.929064,2.4039774,-1.0563242
1.638,6.996499,2.3223252,-2.1655755,-5.8854904,2.3744226,-1.0574682
1.64,6.967876,2.1182232,-1.8830643,-5.841052,2.351735,-1.0565681
1.642,6.945015,1.9244877,-1.5923645,-5.7956133,2.3361402,-1.0538445
1.644,6.928233,1.742522,-1.295454,-5.7490983,2.327787,-1.049514
1.646,6.9173975,1.5737222,-0.99422765,-5.701476,2.3267813,-1.043745
1.648,6.9124837,1.4194392,-0.6905153,-5.6527715,2.33323,-1.0366874
1.65,6.913597,1.2809811,-0.38616467,-5.6030455,2.3472214,-1.0284793
1.652,6.920845,1.1593856,-0.08294773,-5.552415,2.3688333,-1.0191844
1.654,6.9340744,1.0558873,0.21747518,-5.501016,2.3981237,-1.0088222
1.656,6.953307,0.9714402,0.5134971,-5.4490147,2.4351368,-0.9974258
1.658,6.9784994,0.907081,0.80376434,-5.3966084,2.4799223,-0.9850161
1.66,7.0098906,0.8636997,1.0870717,-5.343967,2.5324883,-0.9716258
1.662,7.047352,0.84215194,1.3623164,-5.291292,2.5928001,-0.9573138
1.664,7.091325,0.84308857,1.6285377,-5.2387643,2.660762,-0.9421203
1.666,7.1418667,0.8670591,1.884995,-5.186556,2.7362072,-0.9261229
1.668,7.1993437,0.9145457,2.131138,-5.134837,2.8188903,-0.9094248
1.67,7.2640796,0.98569137,2.3664107,-5.083761,2.9084957,-0.89216304
1.672,7.336651,1.0805273,2.5904353,-5.0334854,3.0046287,-0.8745291
1.674,7.4173083,1.1990778,2.8029,-4.984151,3.1068442,-0.856755
1.676,7.5068035,1.3409209,3.003654,-4.935894,3.2146485,-0.83907366
1.678,7.6057196,1.5055659,3.1926608,-4.8888226,3.327517,-0.82176685
1.68,7.714509,1.6923609,3.369782,-4.8430443,3.4449162,-0.8051348
1.682,7.8336124,1.9006511,3.535246,-4.798634,3.566339,-0.7894833
1.684,7.9636955,2.1293929,3.6891217,-4.755635,3.691312,-0.7750912
1.686,8.105361,2.3775537,3.8315244,-4.714036,3.819424,-0.7622545
1.688,8.259256,2.64391,3.9627295,-4.6737647,3.950344,-0.7512708
1.69,8.425905,2.9272068,4.082808,-4.634697,4.083824,-0.7424407
1.692,8.605892,3.2262106,4.192127,-4.5966372,4.219686,-0.73604584
1.694,8.799874,3.5393553,4.2908897,-4.5593653,4.3578362,-0.7323785
1.696,9.008211,3.8652663,4.379318,-4.5225954,4.4982595,-0.73171735
1.698,9.231405,4.202495,4.4577374,-4.4860206,4.6410127,-0.73432565
1.7,9.469854,4.5496993,4.526269,-4.449323,4.7862005,-0.7404547
1.702,9.723942,4.9055495,4.5852294,-4.412205,4.9339795,-0.75031066
1.704,9.994064,5.2688265,4.634733,-4.374367,5.084549,-0.76403356
1.706,10.28035,5.638389,4.6747932,-4.3355513,5.238138,-0.7817092
1.708,10.582844,6.0131702,4.7056017,-4.2955265,5.395008,-0.8033521
1.71,10.90169,6.392247,4.727148,-4.2541256,5.555421,-0.8288746
1.712,11.236775,6.774677,4.7394366,-4.2111835,5.719655,-0.8581114
1.714,11.58789,7.1598186,4.7426333,-4.16657,5.88799,-0.8908318
1.716,11.954897,7.546997,4.7366953,-4.1201644,6.060702,-0.9267545
1.718,12.3376255,7.9356256,4.721759,-4.071817,6.238047,-0.9655745
1.72,12.73569,8.325234,4.697733,-4.0213947,6.4202805,-1.0069561
1.722,13.148682,8.715237,4.6646547,-3.9687443,6.6075974,-1.0505682
1.724,13.576359,9.105267,4.622535,-3.9136934,6.800108,-1.0961053
1.726,14.018106,9.494811,4.5712533,-3.8560658,6.997874,-1.1433005
1.728,14.473127,9.883208,4.5105534,-3.7956746,7.200821,-1.1919447
1.73,14.940605,10.269869,4.440491,-3.732356,7.408787,-1.241916
1.732,15.41977,10.654068,4.3609037,-3.6659622,7.6215096,-1.2931412
1.734,15.909468,11.035029,4.271544,-3.596367,7.8386016,-1.3456428
1.736,16.408611,11.411838,4.1726766,-3.5234525,8.059579,-1.3994856
1.738,16.91595,11.783489,4.0643024,-3.4471245,8.283888,-1.4547857
1.74,17.430332,12.14868,3.946404,-3.3672903,8.510908,-1.5116742
1.742,17.950285,12.505864,3.8190088,-3.2838664,8.739981,-1.5702815
1.744,18.474289,12.853406,3.682116,-3.1967747,8.970437,-1.6307073
1.746,19.000917,13.189385,3.5356379,-3.1059291,9.201627,-1.6930119
1.748,19.528439,13.511577,3.379417,-3.0112414,9.432901,-1.7571911
1.75,20.055134,13.817789,3.2134967,-2.9126582,9.663618,-1.8231709
1.752,20.579062,14.105624,3.037869,-2.8101244,9.893158,-1.8907969
1.754,21.098213,14.372503,2.8522453,-2.7036247,10.120886,-1.9598397
1.756,21.610588,14.615967,2.6566248,-2.593198,10.346152,-2.0299778
1.758,22.114065,14.833408,2.4507337,-2.4789467,10.568208,-2.1008322
1.76,22.606245,15.022298,2.2347517,-2.3610263,10.78623,-2.1719127
1.762,23.084757,15.1802225,2.008597,-2.2396595,10.999293,-2.2426639
1.764,23.547218,15.304886,1.7723479,-2.1151311,11.206349,-2.3125048
1.766,23.991064,15.394121,1.5262241,-1.9878067,11.406215,-2.3808904
1.768,24.413723,15.446155,1.2703829,-1.8581047,11.597572,-2.447321
1.77,24.812466,15.459503,1.0053079,-1.7265148,11.779008,-2.511386
1.772,25.18479,15.4332,0.73146176,-1.5936251,11.948974,-2.5727513
1.774,25.527729,15.366627,0.44971037,-1.4600916,12.105853,-2.631152
1.776,25.838718,15.259735,0.16084039,-1.3266351,12.248012,-2.6863782
1.778,26.11505,15.112921,-0.13418043,-1.1940691,12.373826,-2.738244
1.78,26.35427,14.927179,-0.43398386,-1.0632582,12.481798,-2.7865715
1.782,26.553839,14.703982,-0.7372115,-0.9350904,12.570587,-2.831159
1.784,26.71161,14.445171,-1.0422745,-0.81045604,12.639153,-2.8717763
1.786,26.825558,14.153199,-1.3474469,-0.6902004,12.686756,-2.9081652
1.788,26.893774,13.830826,-1.6510111,-0.5751236,12.713043,-2.9400249
1.79,26.914959,13.481252,-1.9511397,-0.465936,12.718033,-2.9670389
1.792,26.888056,13.107922,-2.246173,-0.36325854,12.702103,-2.9888916
1.794,26.8125,12.714451,-2.5343814,-0.26761472,12.665976,-3.0052512
1.796,26.688124,12.304525,-2.8140354,-0.1794641,12.610605,-3.0157862
1.798,26.515316,11.882191,-3.083849,-0.09921157,12.537132,-3.0201607
1.8,26.295074,11.451233,-3.3424225,-0.027227283,12.446767,-3.018038
1.802,26.028662,11.0154915,-3.5887046,0.036147594,12.340782,-3.009042
1.804,25.718176,10.578652,-3.8219466,0.090589404,12.2204,-2.9927924
1.806,25.366245,10.144188,-4.0414824,0.13579285,12.086758,-2.968912
1.808,24.975649,9.715395,-4.24709,0.17147636,11.94086,-2.9370258
1.81,24.54972,9.295199,-4.438564,0.19742548,11.783607,-2.8968184
1.812,24.091965,8.886287,-4.616114,0.21346259,11.615728,-2.8480372
1.814,23.606373,8.490904,-4.7801056,0.21949261,11.437825,-2.790565
1.816,23.096848,8.111105,-4.9309077,0.21550083,11.250334,-2.7243977
1.818,22.567657,7.7484174,-5.069439,0.2015835,11.053558,-2.6496732
1.82,22.022902,7.4040117,-5.196355,0.17791069,10.8476715,-2.5666656
1.822,21.46674,7.079003,-5.312607,0.14473373,10.632757,-2.4758463
1.824,20.903019,6.7738857,-5.419337,0.10239673,10.40882,-2.3778906
1.826,20.335419,6.489004,-5.5175896,0.051326275,10.175877,-2.2736797
1.828,19.767387,6.224187,-5.608536,-0.00798744,9.93394,-2.1643012
1.83,19.201967,5.979206,-5.6932187,-0.0750255,9.683041,-2.0510063
1.832,18.642117,5.7535806,-5.772788,-0.14921951,9.42329,-1.935179
1.834,18.089966,5.54652,-5.848303,-0.22999471,9.154885,-1.8182576
1.836,17.547718,5.3571224,-5.9207273,-0.31679612,8.87812,-1.7016965
1.838,17.017132,5.184402,-5.991034,-0.40908182,8.593385,-1.5868695
1.84,16.499828,5.0271044,-6.060307,-0.50637877,8.30119,-1.4750146
1.842,15.997099,4.883972,-6.1294036,-0.6082674,8.002177,-1.3671951
1.844,15.510091,4.753455,-6.1990976,-0.714408,7.697099,-1.2642593
1.846,15.039355,4.633937,-6.270362,-0.824527,7.3867903,-1.1668223
1.848,14.585378,4.5237365,-6.3437114,-0.938383,7.072161,-1.0752445
1.85,14.148192,4.421398,-6.419804,-1.0557736,6.754179,-0.98967254
1.852,13.727856,4.325431,-6.4989605,-1.1765103,6.433822,-0.9100834
1.854,13.324339,4.234486,-6.581507,-1.3004011,6.1120667,-0.8363363
1.856,12.937429,4.147212,-6.667603,-1.4272257,5.789823,-0.7682115
1.858,12.5669985,4.062394,-6.7572136,-1.5567155,5.467931,-0.70546174
1.86,12.212938,3.9788382,-6.8503213,-1.6885839,5.14712,-0.6478305
1.862,11.87509,3.8955247,-6.946721,-1.8224888,4.828027,-0.5950898
1.864,11.553297,3.8114371,-7.0459485,-1.9580696,4.511138,-0.5470394
1.866,11.247594,3.7255769,-7.1473284,-2.0949326,4.1968074,-0.50351995
1.868,10.957909,3.6371148,-7.25012,-2.2327032,3.8852713,-0.46441668
1.87,10.684348,3.5451121,-7.353367,-2.3710046,3.5766845,-0.4296556
1.872,10.426963,3.4489942,-7.4559617,-2.5094624,3.2711236,-0.3992207
1.874,10.185901,3.3478532,-7.5565844,-2.6477065,2.9686003,-0.37315887
1.876,9.961308,3.2410038,-7.6538653,-2.7853713,2.669084,-0.35154969
1.878,9.753288,3.127804,-7.7460318,-2.9221106,2.3725257,-0.33448356
1.88,9.56195,3.0076408,-7.8315415,-3.0575786,2.0788589,-0.32207894
1.882,9.38732,2.8798218,-7.9085197,-3.19141,1.7880871,-0.31448507
1.884,9.229556,2.743948,-7.975167,-3.3232093,1.500301,-0.31182683
1.886,9.088781,2.5994787,-8.029666,-3.4525445,1.2157277,-0.31423962
1.888,8.964702,2.4461043,-8.070276,-3.5789156,0.93472946,-0.3218478
1.89,8.856948,2.2835443,-8.09549,-3.7017193,0.65783274,-0.3347051
1.892,8.765007,2.1118097,-8.10387,-3.8202925,0.38574153,-0.35279822
1.894,8.688387,1.9312049,-8.094207,-3.9339027,0.11926502,-0.37596667
1.896,8.626373,1.7420231,-8.065731,-4.041787,-0.14071527,-0.40388358
1.898,8.578171,1.5448346,-8.01776,-4.1432033,-0.3932525,-0.4360119
1.9,8.542885,1.3402305,-7.9498014,-4.2375035,-0.6374248,-0.47162557
1.902,8.519378,1.1290082,-7.8618636,-4.324175,-0.8723607,-0.50984347
1.904,8.506284,0.91231406,-7.754242,-4.402872,-1.09728,-0.54965115
1.906,8.502257,0.69128543,-7.627574,-4.4734573,-1.3115023,-0.58996224
1.908,8.5056505,0.4671919,-7.482818,-4.536003,-1.5144588,-0.62969875
1.91,8.515101,0.24144974,-7.321246,-4.5907626,-1.7056955,-0.66788244
1.912,8.52905,0.015475314,-7.1442585,-4.638139,-1.8848606,-0.7036874
1.914,8.545689,-0.2089944,-6.9533916,-4.6786137,-2.051732,-0.7364924
1.916,8.563576,-0.4304456,-6.750491,-4.7127094,-2.2061949,-0.76589346
1.918,8.581321,-0.6473702,-6.5374365,-4.740922,-2.348257,-0.7917142
1.92,8.597644,-0.8583318,-6.31618,-4.7636957,-2.4780612,-0.81392026
1.922,8.611364,-1.0619552,-6.0886736,-4.7814074,-2.5958755,-0.83260655
1.924,8.621378,-1.25703,-5.8567038,-4.794364,-2.7020903,-0.8479736
1.926,8.6267,-1.4424856,-5.6221056,-4.802779,-2.7971876,-0.8603029
1.928,8.626442,-1.6172225,-5.386413,-4.8068066,-2.881669,-0.86990285
1.93,8.619923,-1.7804227,-5.1511626,-4.8065443,-2.9560664,-0.8771076
1.932,8.606463,-1.9314836,-4.9177413,-4.8020697,-3.0208745,-0.8822875
1.934,8.585605,-2.0698502,-4.6871424,-4.7934465,-3.0765257,-0.88579154
1.936,8.557075,-2.1951864,-4.4603653,-4.7807336,-3.123412,-0.8879659
1.938,8.520514,-2.3071108,-4.238041,-4.764014,-3.1618252,-0.8891442
1.94,8.475821,-2.4056902,-4.020833,-4.7433777,-3.1919835,-0.8896127
1.942,8.42268,-2.4908633,-3.8090875,-4.7189417,-3.214021,-0.88962376
1.944,8.361411,-2.5627363,-3.6031852,-4.6908345,-3.22799,-0.8894135
1.946,8.292017,-2.6214623,-3.4032292,-4.6591644,-3.2338972,-0.88915837
1.948,8.214642,-2.6673381,-3.2093306,-4.62403,-3.2317061,-0.88898957
1.95,8.129111,-2.7005525,-3.0213888,-4.585509,-3.2213545,-0.8889587
1.952,8.035804,-2.7215145,-2.8396175,-4.5436516,-3.2028103,-0.889019
1.954,7.934928,-2.7304595,-2.6638489,-4.4984827,-3.1760411,-0.88906014
1.956,7.8269415,-2.7276947,-2.494041,-4.4500084,-3.1410449,-0.8889034
1.958,7.7123966,-2.7134483,-2.3302464,-4.398213,-3.0978267,-0.88830864
1.96,7.591834,-2.6882472,-2.1723406,-4.343066,-3.0464065,-0.887043
1.962,7.4659286,-2.652543,-2.0203645,-4.2845554,-2.9868135,-0.88489985
1.964,7.335364,-2.6068432,-1.8742309,-4.222657,-2.9190543,-0.88171566
1.966,7.200761,-2.5517075,-1.7339296,-4.157362,-2.8431435,-0.87739456
1.968,7.0628586,-2.4876287,-1.5992615,-4.0886607,-2.759064,-0.8719126
1.97,6.922351,-2.41527,-1.4702709,-4.016555,-2.6668017,-0.86532915
1.972,6.7801905,-2.3352127,-1.3468685,-3.941043,-2.5663354,-0.8577516
1.974,6.6372457,-2.2481122,-1.2290943,-3.862131,-2.4576418,-0.8493415
1.976,6.4943256,-2.1546028,-1.1171911,-3.7798123,-2.3407338,-0.8402865
1.978,6.3523693,-2.055515,-1.0111625,-3.6941028,-2.2156615,-0.83075416
1.98,6.212261,-1.9515867,-0.911242,-3.6050518,-2.082501,-0.8208914
1.982,6.0749564,-1.8436844,-0.8175268,-3.5127182,-1.9413677,-0.8108337
1.984,5.941308,-1.7325257,-0.7302773,-3.4171658,-1.7923872,-0.800701
1.986,5.8122325,-1.6189554,-0.6496587,-3.3184848,-1.6357399,-0.79061306
1.988,5.688738,-1.5038853,-0.575979,-3.2167935,-1.4716158,-0.7806573
1.99,5.5715933,-1.3881801,-0.5094533,-3.1122286,-1.3002192,-0.77088606
1.992,5.4616485,-1.272583,-0.45033932,-3.0049355,-1.1217831,-0.761346
1.994,5.3596387,-1.1580961,-0.39902902,-2.8950963,-0.9365641,-0.75205106
1.996,5.266265,-1.0454268,-0.3557849,-2.7828968,-0.7448261,-0.7429757
1.998,5.182296,-0.9353286,-0.32085037,-2.6685433,-0.5468548,-0.73405004
2,5.108371,-0.82844687,-0.29447865,-2.5522606,-0.3429507,-0.7251702
2.002,5.045077,-0.7255141,-0.27696776,-2.4342887,-0.13343675,-0.7162071
2.004,4.9928,-0.62722546,-0.26857114,-2.3148649,0.08132532,-0.7070181
2.006,4.951892,-0.5339679,-0.26936746,-2.1942449,0.30096364,-0.6974664
2.008,4.92264,-0.44614708,-0.2795899,-2.0726857,0.525078,-0.68740535
2.01,4.9052706,-0.36395508,-0.29942703,-1.9504673,0.75324017,-0.6766858
2.012,4.9000034,-0.28771064,-0.32884812,-1.8278759,0.9849811,-0.665215
2.014,4.907053,-0.21754104,-0.36786842,-1.7051914,1.219799,-0.6529093
2.016,4.9265137,-0.1535328,-0.41635394,-1.5826927,1.457167,-0.6397444
2.018,4.9584775,-0.09584811,-0.47396803,-1.4606662,1.6965451,-0.6257513
2.02,5.002836,-0.044487298,-0.54050803,-1.3393798,1.9373819,-0.61103594
2.022,5.0596886,0.0004684925,-0.6155684,-1.2190789,2.1791384,-0.59576786
2.024,5.128934,0.038919628,-0.6988137,-1.099976,2.4212892,-0.5801718
2.026,5.2103844,0.070930004,-0.78965235,-0.98224,2.6633477,-0.5645385
2.028,5.3038006,0.096690536,-0.8873105,-0.86599505,2.9048731,-0.54920757
2.03,5.40889,0.11622152,-0.99115753,-0.7513393,3.1454494,-0.5345291
2.032,5.525428,0.12978867,-1.1003509,-0.638329,3.3847344,-0.5208611
2.034,5.6531134,0.13750699,-1.2139778,-0.5269808,3.6224124,-0.5085323
2.036,5.7915683,0.13966855,-1.3312733,-0.41730964,3.8582156,-0.49787074
2.038,5.9405107,0.13633972,-1.4512517,-0.3093294,4.0919147,-0.4891165
2.04,6.099453,0.12773421,-1.5730073,-0.203058,4.323315,-0.48243338
2.042,6.2680926,0.11405784,-1.6957049,-0.098528385,4.552224,-0.47792995
2.044,6.445738,0.09564021,-1.8184435,0.004202366,4.7784925,-0.47560436
2.046,6.6319256,0.07272464,-1.9403691,0.10506433,5.0019474,-0.47537774
2.048,6.8261685,0.04561305,-2.060879,0.20398003,5.22244,-0.47711104
2.05,7.02783,0.014723003,-2.1791148,0.30084178,5.439805,-0.48060572
2.052,7.236573,-0.019693762,-2.294542,0.3955491,5.6538563,-0.48562944
2.054,7.4514723,-0.05735615,-2.4065826,0.4880072,5.864399,-0.4919455
2.056,7.671994,-0.09785125,-2.5147767,0.5781222,6.0712166,-0.4993353
2.058,7.8974953,-0.1408296,-2.6187298,0.66582334,6.2740664,-0.5075994
2.06,8.127496,-0.18591428,-2.7182226,0.7510538,6.4726562,-0.5165959
2.062,8.361056,-0.23279041,-2.8128905,0.8337776,6.666663,-0.5262178
2.064,8.597595,-0.28122434,-2.9026272,0.9139884,6.8557353,-0.53641284
2.066,8.836585,-0.33083934,-2.9872975,0.9916934,7.0394893,-0.5471487
2.068,9.077313,-0.38156658,-3.0668423,1.0669192,7.217527,-0.55843455
2.07,9.319148,-0.43308148,-3.141089,1.1397165,7.3894377,-0.57028675
2.072,9.561464,-0.4853697,-3.2102177,1.2101505,7.5548005,-0.5827335
2.074,9.803531,-0.53835016,-3.2740505,1.2782905,7.713214,-0.59580386
2.076,10.04489,-0.59210575,-3.3326712,1.3442135,7.8643003,-0.60954964
2.078,10.284847,-0.64670557,-3.3862865,1.4080002,8.007751,-0.6240194
2.08,10.522881,-0.70218694,-3.4347317,1.4697317,8.143291,-0.6392957
2.082,10.75832,-0.75878346,-3.4781709,1.5295007,8.270726,-0.6554782
2.084,10.990614,-0.81656474,-3.5165486,1.5874094,8.389944,-0.6726879
2.086,11.219404,-0.8758236,-3.5498877,1.6435596,8.500906,-0.69106615
2.088,11.444231,-0.93665004,-3.5781293,1.6980572,8.603642,-0.7107662
2.09,11.664577,-0.9991882,-3.6013649,1.7510148,8.698239,-0.73191404
2.092,11.880257,-1.063827,-3.6196566,1.8025421,8.784839,-0.75462586
2.094,12.090943,-1.1306025,-3.6330714,1.852736,8.863643,-0.77896965
2.096,12.296126,-1.1995481,-3.6415868,1.9016901,8.934878,-0.8049319
2.098,12.495634,-1.2706722,-3.645328,1.9494698,8.998783,-0.8324542
2.1,12.689301,-1.3440107,-3.6443121,1.9961435,9.055644,-0.86137354
2.102,12.877028,-1.4194796,-3.63861,2.0417373,9.105704,-0.8914761
2.104,13.058527,-1.4968351,-3.6282754,2.086276,9.149241,-0.92248577
2.106,13.233595,-1.5758554,-3.61342,2.1297474,9.186519,-0.9540853
2.108,13.402209,-1.6562121,-3.5940452,2.1721334,9.217804,-0.98592633
2.11,13.56433,-1.7376854,-3.5703561,2.2134023,9.24334,-1.0176603
2.112,13.719766,-1.8197057,-3.5424116,2.253499,9.263382,-1.048952
2.114,13.868421,-1.9019388,-3.510341,2.2923858,9.278162,-1.0794953
2.116,14.01013,-1.9839879,-3.4744334,2.3300085,9.287893,-1.1090348
2.118,14.144788,-2.0652776,-3.4347882,2.3663123,9.292793,-1.137346
2.12,14.272386,-2.1453333,-3.3915844,2.4012492,9.2930565,-1.1642582
2.122,14.392665,-2.2236176,-3.3450284,2.434765,9.288859,-1.1896181
2.124,14.505261,-2.2994714,-3.2953784,2.466799,9.280341,-1.2133031
2.126,14.610207,-2.3725388,-3.2428868,2.4972887,9.267605,-1.2352166
2.128,14.707153,-2.4422607,-3.1878414,2.5261762,9.250713,-1.2552531
2.13,14.795818,-2.5081775,-3.130407,2.5533879,9.229707,-1.2733196
2.132,14.875824,-2.5697649,-3.070876,2.5788424,9.204559,-1.2893045
2.134,14.946917,-2.6265998,-3.0094235,2.6024652,9.175248,-1.3030822
2.136,15.008769,-2.6784034,-2.9462993,2.6241636,9.141708,-1.314517
2.138,15.06106,-2.7249517,-2.8819551,2.6438642,9.103872,-1.3234713
2.14,15.103428,-2.765885,-2.8165548,2.6614819,9.061659,-1.3298047
2.142,15.135607,-2.8012016,-2.7504363,2.6769304,9.015004,-1.3333852
2.144,15.15721,-2.830474,-2.6839232,2.6901305,8.963898,-1.3341304
2.146,15.168196,-2.8538377,-2.6173024,2.7009888,8.908316,-1.3319963
2.148,15.168055,-2.8710945,-2.550942,2.7094269,8.848297,-1.3269765
2.15,15.156641,-2.8823056,-2.4851665,2.715335,8.783922,-1.3191303
2.152,15.133866,-2.8875237,-2.420178,2.7186227,8.715329,-1.3085647
2.154,15.09976,-2.8869019,-2.3564434,2.7191951,8.642706,-1.2954452
2.156,15.054221,-2.8805046,-2.2942233,2.7169554,8.566289,-1.2799786
2.158,14.997377,-2.8686073,-2.233909,2.7117982,8.486333,-1.262389
2.16,14.929226,-2.8514307,-2.1759288,2.7036192,8.403131,-1.2429178
2.162,14.849899,-2.8292923,-2.1204593,2.6923087,8.316966,-1.221781
2.164,14.75982,-2.8026018,-2.0679312,2.6777432,8.228106,-1.1991909
2.166,14.659024,-2.7716348,-2.0186691,2.6598082,8.13679,-1.1753055
2.168,14.548069,-2.7369976,-1.9729302,2.6383686,8.043206,-1.1502575
2.17,14.427125,-2.6990664,-1.9309521,2.6133137,7.9474964,-1.1241221
2.172,14.296753,-2.6583164,-1.8929133,2.5845175,7.8497324,-1.0969536
2.174,14.157169,-2.6152012,-1.859077,2.5518734,7.7499337,-1.0687804
2.176,14.008767,-2.5702405,-1.8295174,2.5152855,7.648071,-1.039626
2.178,13.852028,-2.5238667,-1.8043504,2.4746559,7.544086,-1.0094951
2.18,13.687419,-2.4764888,-1.7835994,2.429919,7.437898,-0.97837234
2.182,13.515257,-2.4284525,-1.7671335,2.3810017,7.3294,-0.94624627
2.184,13.335983,-2.3801618,-1.7551494,2.327859,7.21848,-0.91309506
2.186,13.149908,-2.3317854,-1.747314,2.2704532,7.105047,-0.8789105
2.188,12.957403,-2.2836115,-1.7435164,2.2087615,6.9890103,-0.8436461
2.19,12.758849,-2.2358022,-1.7437081,2.1427684,6.8703003,-0.8072572
2.192,12.554599,-2.1884065,-1.7475405,2.0724761,6.748854,-0.76967573
2.194,12.344874,-2.1414886,-1.7548218,1.9979113,6.624663,-0.730809
2.196,12.129746,-2.0948544,-1.7653389,1.9191183,6.497724,-0.69056964
2.198,11.909607,-2.0484128,-1.7789073,1.8361709,6.3680663,-0.6488149
2.2,11.684622,-2.0018506,-1.7952366,1.7491494,6.2357507,-0.60541105
2.202,11.454987,-1.9549066,-1.8140311,1.658169,6.1008453,-0.5602264
2.204,11.221046,-1.9073774,-1.8350744,1.5633676,5.963445,-0.5131331
2.206,10.983048,-1.8588593,-1.8580952,1.4648952,5.8236384,-0.46401152
2.208,10.74106,-1.8090706,-1.8828697,1.3629274,5.6815186,-0.41276377
2.21,10.495446,-1.7576768,-1.9091444,1.25764,5.537175,-0.35932696
2.212,10.246376,-1.7043874,-1.9367003,1.1492466,5.3906775,-0.30369633
2.214,9.994234,-1.6489625,-1.9653296,1.0379484,5.242072,-0.24591738
2.216,9.739473,-1.5912123,-1.9948466,0.92395216,5.091388,-0.1860896
2.218,9.482408,-1.53086,-2.0252109,0.807468,4.938627,-0.12437302
2.22,9.223385,-1.4677194,-2.0561452,0.6886859,4.783762,-0.06096968
2.222,8.9629135,-1.4018005,-2.0874476,0.56778824,4.626746,0.0038873553
2.224,8.701654,-1.3330551,-2.1191673,0.4449306,4.4675016,0.0699324
2.226,8.440086,-1.2614789,-2.1508937,0.320268,4.305932,0.13690454
2.228,8.178961,-1.1872729,-2.182562,0.19393083,4.1419344,0.20455831
2.23,7.9189787,-1.110702,-2.214137,0.06603205,3.9753747,0.27267313
2.232,7.660816,-1.0319114,-2.2452693,-0.06331283,3.8060977,0.34104604
2.234,7.4056587,-0.9514829,-2.2757459,-0.1940161,3.6339686,0.40951025
2.236,7.154245,-0.869663,-2.305397,-0.32597858,3.4588497,0.47794592
2.238,6.9076977,-0.78695023,-2.3338327,-0.45910186,3.2806141,0.54626065
2.24,6.667018,-0.7038624,-2.3607807,-0.5932667,3.099172,0.6143825
2.242,6.4331026,-0.6209494,-2.3859043,-0.7283314,2.9144735,0.6822355
2.244,6.2072706,-0.5388527,-2.4087558,-0.86413705,2.7265244,0.74974334
2.246,5.9904747,-0.4579994,-2.4288907,-1.0005044,2.5353997,0.8168142
2.248,5.7836514,-0.37895554,-2.4457474,-1.1372219,2.3412442,0.8833079
2.25,5.588112,-0.30243927,-2.458931,-1.2740273,2.144332,0.9490607
2.252,5.404503,-0.2288096,-2.467954,-1.4106251,1.9450301,1.0138421
2.254,5.233681,-0.15868491,-2.4724355,-1.5466757,1.7438285,1.0773976
2.256,5.0764794,-0.092516184,-2.471898,-1.6818056,1.5413474,1.1394727
2.258,4.9335756,-0.030757487,-2.466076,-1.8155906,1.3382947,1.1998016
2.26,4.805481,0.026401043,-2.4547248,-1.9475801,1.1354834,1.2581493
2.262,4.6923294,0.0786798,-2.4377482,-2.0773206,0.9337895,1.3143203
2.264,4.594514,0.12590247,-2.4150612,-2.2043307,0.7341274,1.3681669
2.266,4.511816,0.16809243,-2.3867912,-2.32816,0.5374513,1.4196229
2.268,4.4441833,0.20531905,-2.3530762,-2.4483752,0.34468997,1.4686613
2.27,4.391239,0.23785597,-2.31434,-2.5646107,0.15673244,1.5153112
2.272,4.352536,0.2660709,-2.2711377,-2.676551,-0.025594354,1.559655
2.274,4.3272095,0.2904694,-2.2239518,-2.7839558,-0.20155066,1.6017926
2.276,4.31459,0.31139225,-2.1736789,-2.886663,-0.37051094,1.6418698
2.278,4.3134623,0.32962328,-2.1211128,-2.984577,-0.53195727,1.6800249
2.28,4.322628,0.34581465,-2.067254,-3.0776882,-0.6855139,1.716428
2.282,4.3407297,0.36091882,-2.0131605,-3.1660585,-0.8309244,1.7512628
2.284,4.366535,0.3758309,-1.9598389,-3.249798,-0.9680551,1.7847154
2.286,4.398582,0.3913771,-1.9083313,-3.3290815,-1.0968918,1.8169794
2.288,4.4354687,0.4085498,-1.8597225,-3.404113,-1.2175587,1.8482467
2.29,4.475706,0.42810136,-1.8151095,-3.4751544,-1.330277,1.8786931
2.292,4.5178185,0.45073152,-1.7752885,-3.5424972,-1.4353492,1.9084848
2.294,4.560339,0.47715163,-1.7409172,-3.6064572,-1.5331576,1.937768
2.296,4.601739,0.5079631,-1.7129033,-3.66738,-1.624147,1.9666429
2.298,4.6404834,0.54362947,-1.6916504,-3.7256029,-1.7088157,1.9951965
2.3,4.6748543,0.5846531,-1.6774083,-3.7814693,-1.7877009,2.0234957
2.302,4.703537,0.63149333,-1.6703734,-3.835299,-1.8613565,2.0516078
2.304,4.725314,0.6842875,-1.6706456,-3.887405,-1.930353,2.0795932
2.306,4.7390947,0.74310714,-1.6779258,-3.9380436,-1.9952378,2.1075296
2.308,4.7435646,0.80792814,-1.6918957,-3.9874206,-2.0565252,2.1355004
2.31,4.7374616,0.8785107,-1.7120572,-4.0356894,-2.114672,2.1636043
2.312,4.7198577,0.95472133,-1.7377348,-4.082938,-2.1700408,2.191941
2.314,4.6898994,1.036247,-1.7681599,-4.12919,-2.222922,2.2205834
2.316,4.647083,1.1227038,-1.8025057,-4.1744046,-2.2734873,2.2495995
2.318,4.590892,1.2136489,-1.8397403,-4.218484,-2.3217926,2.2790241
2.32,4.520959,1.3086243,-1.87886,-4.261308,-2.367805,2.3088562
2.322,4.4370375,1.4070425,-1.9187554,-4.3027153,-2.4113786,2.339085
2.324,4.3392463,1.5083721,-1.9582832,-4.342519,-2.4522772,2.3696613
2.326,4.2277427,1.6119066,-1.9964057,-4.38052,-2.4901688,2.4004965
2.328,4.103053,1.7170026,-2.0319252,-4.4164896,-2.5246809,2.4314725
2.33,3.9657836,1.8230076,-2.063836,-4.4502,-2.5553515,2.4624443
2.332,3.8168895,1.929214,-2.091261,-4.481385,-2.581628,2.4932327
2.334,3.6570334,2.0350492,-2.1131992,-4.509742,-2.6029007,2.52356
2.336,3.487443,2.1397986,-2.129013,-4.534929,-2.6185195,2.5531135
2.338,3.3092055,2.2429118,-2.1380382,-4.5565524,-2.6278174,2.5815735
2.34,3.1236773,2.3438818,-2.1397753,-4.57419,-2.6301515,2.6086404
2.342,2.9323664,2.4422297,-2.1341321,-4.587426,-2.6248982,2.634067
2.344,2.7364311,2.5376215,-2.1207657,-4.595827,-2.6115084,2.6576822
2.346,2.5374424,2.6297536,-2.0997772,-4.5989943,-2.589514,2.679389
2.348,2.3367205,2.7182922,-2.0714877,-4.596584,-2.5585349,2.699163
2.35,2.1356168,2.8031285,-2.0361805,-4.5883207,-2.518289,2.7170866
2.352,1.9355155,2.8841207,-1.9945236,-4.5740337,-2.4685864,2.7332768
2.354,1.7374249,2.9614148,-1.9471989,-4.5536256,-2.409343,2.7479177
2.356,1.5425562,3.034894,-1.8950982,-4.527108,-2.3405612,2.7612045
2.358,1.3520187,3.1048503,-1.8393425,-4.494564,-2.262327,2.773343
2.36,1.1664011,3.171615,-1.7809746,-4.4561486,-2.1748195,2.7845223
2.362,0.9866611,3.235278,-1.7211769,-4.4120665,-2.078296,2.7949405
2.364,0.8134091,3.2962759,-1.6612161,-4.3625402,-1.9731067,2.80476
2.366,0.6469337,3.355173,-1.602421,-4.307844,-1.8596885,2.8141265
2.368,0.4877931,3.4122088,-1.5462202,-4.24825,-1.7385453,2.8231556
2.37,0.33601165,3.4678586,-1.4938335,-4.1840544,-1.6102792,2.8319044
2.372,0.19181678,3.5224574,-1.4466951,-4.1155787,-1.4755665,2.8403692
2.374,0.05483812,3.5764718,-1.4060009,-4.043138,-1.3351331,2.8484762
2.376,-0.074833214,3.6302133,-1.3729396,-3.9670963,-1.1897653,2.8560648
2.378,-0.19766903,3.6841016,-1.3486229,-3.887846,-1.0403192,2.8629384
2.38,-0.31401235,3.7383955,-1.3339831,-3.805822,-0.8876868,2.8688674
2.382,-0.42450058,3.7934158,-1.3298389,-3.7214937,-0.7327943,2.8736093
2.384,-0.5295316,3.8493712,-1.3368161,-3.635355,-0.5766314,2.876939
2.386,-0.62975895,3.906475,-1.3553889,-3.5479305,-0.4202683,2.8786836
2.388,-0.7256945,3.9648483,-1.3860092,-3.459776,-0.26476467,2.878745
2.39,-0.81794685,4.0245433,-1.4286482,-3.3714173,-0.1111971,2.8770738
2.392,-0.90711814,4.085439,-1.483358,-3.2834017,0.03936565,2.8736396
2.394,-0.9940087,4.147483,-1.5499206,-3.1962395,0.1858818,2.8684206
2.396,-1.0792351,4.210555,-1.627969,-3.1103935,0.32735273,2.8614273
2.398,-1.163392,4.274391,-1.7169799,-3.026291,0.46284866,2.8526726
2.4,-1.2470844,4.339029,-1.8162239,-2.9443076,0.591532,2.8421698
2.402,-1.330466,4.4041877,-1.9250053,-2.8647447,0.71269214,2.829941
2.404,-1.4137937,4.4695873,-2.0424871,-2.7878304,0.82576275,2.8159845
2.406,-1.4972553,4.5349054,-2.1674492,-2.7137358,0.9303439,2.8002725
2.408,-1.5805827,4.5997825,-2.2989755,-2.6425385,1.0261979,2.7827473
2.41,-1.663712,4.663714,-2.4360108,-2.57425,1.1132712,2.7633562
2.412,-1.7464671,4.726084,-2.5774093,-2.5088153,1.1916728,2.7420244
2.414,-1.8287587,4.786627,-2.7220154,-2.4461195,1.2616622,2.7186723
2.416,-1.9101464,4.8448806,-2.8686807,-2.3859806,1.3236394,2.6932216
2.418,-1.9901196,4.9003673,-3.0164833,-2.3281794,1.3781109,2.665625
2.42,-2.0679777,4.9527817,-3.164378,-2.272438,1.4256945,2.6358442
2.422,-2.143293,5.0017037,-3.3114748,-2.2184644,1.4670479,2.6038861
2.424,-2.2155848,5.04677,-3.4570343,-2.1659536,1.5028722,2.569797
2.426,-2.284282,5.0874763,-3.6003995,-2.114592,1.5338955,2.5336564
2.428,-2.3489628,5.1235566,-3.741056,-2.0640793,1.5608178,2.4955723
2.43,-2.4091632,5.15484,-3.8785691,-2.0141406,1.5843357,2.4556766
2.432,-2.464325,5.181058,-4.0126696,-1.9645265,1.6051015,2.4140918
2.434,-2.5142365,5.202121,-4.1432657,-1.9150317,1.623698,2.3709621
2.436,-2.5586128,5.2179675,-4.2702675,-1.8654951,1.64066,2.3264253
2.438,-2.5973291,5.2284665,-4.3939705,-1.8158036,1.6564262,2.2806153
2.44,-2.6303372,5.2338696,-4.5145726,-1.765902,1.6713672,2.2336886
2.442,-2.6576471,5.234222,-4.6323586,-1.7157784,1.6857643,2.185793
2.444,-2.6792338,5.2296996,-4.7477603,-1.6654726,1.6998174,2.1370678
2.446,-2.6952307,5.2205024,-4.861344,-1.615042,1.7136455,2.0876799
2.448,-2.7058725,5.207059,-4.9736247,-1.5645736,1.727306,2.0377908
2.45,-2.7115798,5.18962,-5.0850277,-1.5141925,1.7407906,1.9875437
2.452,-2.7126012,5.1684623,-5.1960287,-1.4640191,1.7540431,1.937078
2.454,-2.709351,5.143978,-5.307276,-1.4141885,1.7669581,1.886508
2.456,-2.7022362,5.1165214,-5.4190884,-1.3648316,1.7793708,1.835902
2.458,-2.6914697,5.0865016,-5.5320024,-1.3161004,1.7910872,1.7853105
2.46,-2.6776147,5.0541716,-5.6463394,-1.2681313,1.8018751,1.73477
2.462,-2.6612296,5.020005,-5.762244,-1.2210557,1.8114897,1.6842889
2.464,-2.6426857,4.9842734,-5.8800006,-1.1750104,1.8196524,1.6338516
2.466,-2.6224902,4.947281,-5.999758,-1.1301079,1.8260827,1.5834266
2.468,-2.601056,4.9092994,-6.121381,-1.0864618,1.8305193,1.532982
2.47,-2.5789113,4.87055,-6.2448406,-1.0441707,1.8326918,1.4824929
2.472,-2.5563514,4.831381,-6.3699613,-1.0033135,1.8323581,1.4319335
2.474,-2.533752,4.791829,-6.4964724,-0.96396273,1.8293037,1.3813258
2.476,-2.5115516,4.7521195,-6.624083,-0.92615414,1.8233697,1.3307016
2.478,-2.4901807,4.7124906,-6.752221,-0.8898983,1.814439,1.280113
2.48,-2.4697866,4.673,-6.880493,-0.8552047,1.8024211,1.2296543
2.482,-2.4506407,4.633872,-7.008318,-0.8220644,1.7872665,1.1794511
2.484,-2.4327793,4.595038,-7.1351724,-0.79042995,1.7689645,1.1296579
2.486,-2.4164765,4.556465,-7.260329,-0.7602504,1.7475498,1.0804256
2.488,-2.4017813,4.5182137,-7.383166,-0.73144937,1.72308,1.0318766
2.49,-2.388606,4.480183,-7.502964,-0.70394266,1.6956377,0.9841361
2.492,-2.3768945,4.4423103,-7.6191025,-0.67763025,1.6653348,0.93729675
2.494,-2.3667126,4.4045496,-7.7309427,-0.6523831,1.6322949,0.8913918
2.496,-2.3578317,4.366726,-7.8376822,-0.6280604,1.5966681,0.84643894
2.498,-2.3501756,4.3286686,-7.9386625,-0.6045221,1.5586251,0.8023934
2.5,-2.3434336,4.2901654,-8.033373,-0.58160955,1.5183476,0.7591758
2.502,-2.33754,4.2511077,-8.12121,-0.559155,1.4760352,0.71667683
2.504,-2.331942,4.211187,-8.201643,-0.5370017,1.4319179,0.6747812
2.506,-2.3265688,4.1702733,-8.274351,-0.5149951,1.3862339,0.6333575
2.508,-2.3211224,4.1281724,-8.338844,-0.4929838,1.3392599,0.5923089
2.51,-2.3151867,4.0844917,-8.394876,-0.47081926,1.2912967,0.55154157
2.512,-2.308727,4.0391536,-8.442254,-0.448374,1.2426475,0.5109793
2.514,-2.3014822,3.9919915,-8.480946,-0.42552698,1.1936352,0.47058356
2.516,-2.2931879,3.9428942,-8.511,-0.4021967,1.1445829,0.43035722
2.518,-2.2838762,3.8917384,-8.532428,-0.37829718,1.0957965,0.39034465
2.52,-2.2731345,3.8385391,-8.545419,-0.35378826,1.0475755,0.35062855
2.522,-2.261103,3.783402,-8.550304,-0.32863694,1.0001872,0.31130445
2.524,-2.247577,3.726336,-8.547349,-0.30284703,0.95389014,0.27248475
2.526,-2.2325506,3.6673994,-8.537149,-0.2764472,0.9088899,0.23431449
2.528,-2.2161195,3.606903,-8.520074,-0.24946958,0.8653293,0.1969421
2.53,-2.198242,3.5450253,-8.496674,-0.22197087,0.8233204,0.16052932
2.532,-2.1790287,3.4820442,-8.467688,-0.19403544,0.78291637,0.12523939
2.534,-2.158498,3.4181724,-8.433589,-0.16573137,0.74414414,0.091227815
2.536,-2.1368728,3.3538563,-8.395079,-0.13714403,0.70698607,0.058622345
2.538,-2.1140914,3.2893753,-8.352788,-0.108356446,0.6713853,0.02753014
2.54,-2.0903556,3.2248769,-8.307302,-0.07944294,0.63727504,-0.0019786526
2.542,-2.0657506,3.160814,-8.25936,-0.050471574,0.60456926,-0.029871028
2.544,-2.040413,3.0972402,-8.209462,-0.021484025,0.57318157,-0.056162
2.546,-2.0144813,3.0345223,-8.158166,0.007486053,0.5430377,-0.080919765
2.548,-1.9879308,2.9728487,-8.105879,0.036417842,0.514071,-0.1042439
2.55,-1.9609203,2.9123483,-8.053137,0.06532138,0.48622346,-0.12626082
2.552,-1.9336772,2.8532367,-8.000307,0.094222575,0.45946065,-0.1471056
2.554,-1.9060595,2.795527,-7.947735,0.123158775,0.43377092,-0.166928
2.556,-1.8781748,2.739316,-7.8955975,0.15217575,0.40914962,-0.18585968
2.558,-1.8501441,2.684571,-7.844266,0.18133126,0.38559312,-0.20402305
2.56,-1.8218665,2.6312237,-7.793906,0.21067265,0.3631147,-0.2215144
2.562,-1.793541,2.5793526,-7.744808,0.2402366,0.34173447,-0.23840171
2.564,-1.7650537,2.5288684,-7.6970053,0.27005595,0.32147238,-0.25470942
2.566,-1.7365077,2.4797235,-7.650649,0.30016068,0.30234206,-0.27045283
2.568,-1.7081172,2.4318626,-7.6056433,0.3305548,0.28434572,-0.2856261
2.57,-1.6797647,2.3853214,-7.5621014,0.3612526,0.26748234,-0.30021632
2.572,-1.6514204,2.3400273,-7.5200634,0.39224502,0.25173998,-0.31419814
2.574,-1.6231892,2.2959619,-7.479433,0.42351717,0.23707184,-0.32753998
2.576,-1.595094,2.2531748,-7.4401,0.45505676,0.2234242,-0.3402083
2.578,-1.5671682,2.2115383,-7.4020348,0.4868377,0.21070619,-0.35216266
2.58,-1.5393391,2.1711562,-7.3651657,0.51883066,0.19882017,-0.36336607
2.582,-1.5116627,2.1319995,-7.329396,0.5509877,0.18764728,-0.37378496
2.584,-1.4841812,2.094036,-7.2944727,0.5832613,0.177042,-0.38337752
2.586,-1.4566498,2.057262,-7.2602644,0.6156111,0.16685584,-0.39210105
2.588,-1.4290655,2.0216546,-7.2266393,0.6479762,0.1569345,-0.39990997
2.59,-1.4013419,1.9870752,-7.193415,0.6802907,0.1471419,-0.4067756
2.592,-1.3734334,1.9534084,-7.1602626,0.7124853,0.13734253,-0.41269088
2.594,-1.3452084,1.9206176,-7.127,0.7445079,0.12743133,-0.41767663
2.596,-1.31638,1.8885018,-7.093484,0.77630293,0.11734009,-0.42179933
2.598,-1.2869141,1.8568457,-7.0594616,0.80783707,0.107021764,-0.42517874
2.6,-1.2567372,1.8254639,-7.024767,0.8391063,0.09647516,-0.42797533
2.602,-1.2257335,1.7941387,-6.9891768,0.8701312,0.08573424,-0.4303799
2.604,-1.1935766,1.7626512,-6.9525495,0.9009384,0.07485916,-0.43262714
2.606,-1.1603003,1.7307675,-6.914827,0.9315963,0.0639382,-0.43494436
2.608,-1.1257069,1.6982173,-6.8758802,0.96218586,0.053077213,-0.43753225
2.61,-1.0896993,1.6648498,-6.83556,0.9927932,0.04238584,-0.44055054
2.612,-1.0520926,1.6303884,-6.7938337,1.0235043,0.031985775,-0.44408694
2.614,-1.0130312,1.5947013,-6.7507315,1.0543735,0.021988869,-0.44816908
2.616,-0.9723654,1.5577114,-6.7063007,1.0854394,0.012476645,-0.45274726
2.618,-0.9301324,1.5192003,-6.660611,1.1167246,0.0035234094,-0.45772168
2.62,-0.88631654,1.4791459,-6.613804,1.1482005,-0.004820995,-0.46292257
2.622,-0.8409598,1.4375865,-6.5659094,1.1798179,-0.01254268,-0.46816444
2.624,-0.7942498,1.3946097,-6.5169907,1.2114996,-0.01966191,-0.47324815
2.626,-0.7462354,1.350239,-6.4673147,1.2431688,-0.026215196,-0.4779826
2.628,-0.6969569,1.3046876,-6.4170246,1.2747245,-0.032268822,-0.48220423
2.63,-0.6466739,1.2582588,-6.3662767,1.3060563,-0.037919596,-0.48577365
2.632,-0.595521,1.2111726,-6.3152466,1.337063,-0.043277673,-0.4885875
2.634,-0.5436342,1.1637405,-6.2641683,1.3676467,-0.04846832,-0.49057984
2.636,-0.4912882,1.1164007,-6.213119,1.3977282,-0.053605407,-0.49171406
2.638,-0.43853664,1.0693731,-6.16231,1.4272206,-0.058826447,-0.4919743
2.64,-0.3856578,1.0229483,-6.111907,1.4560568,-0.06425379,-0.49136406
2.642,-0.33277392,0.97752136,-6.0618587,1.484185,-0.07000899,-0.48990297
2.644,-0.28009653,0.93344045,-6.0124197,1.511555,-0.07619798,-0.48761022
2.646,-0.22757697,0.89094764,-5.9635854,1.5381275,-0.08289475,-0.48450774
2.648,-0.17566848,0.85037214,-5.915386,1.563864,-0.09017837,-0.48061985
2.65,-0.12430048,0.81189495,-5.8678465,1.5887353,-0.09812264,-0.47598886
2.652,-0.07371116,0.77558064,-5.820951,1.6127079,-0.106756896,-0.4706809
2.654,-0.023970604,0.7416698,-5.7747746,1.6357672,-0.116117574,-0.46476877
2.656,0.024941444,0.71013725,-5.729183,1.6578991,-0.12622334,-0.45835698
2.658,0.07281017,0.6809305,-5.684148,1.6791177,-0.13708171,-0.45156252
2.66,0.11966586,0.6540462,-5.6396623,1.6994357,-0.14867958,-0.44451928
2.662,0.16553235,0.6294328,-5.5956016,1.7188863,-0.16101503,-0.43737668
2.664,0.21014476,0.6069989,-5.5518694,1.7375145,-0.1740591,-0.43025655
2.666,0.25356698,0.586619,-5.5084476,1.75538,-0.18778911,-0.42327327
2.668,0.29596496,0.56817,-5.4651423,1.7725558,-0.20219031,-0.41649848
2.67,0.3370571,0.5516067,-5.422031,1.7890952,-0.21723002,-0.40997165
2.672,0.37713718,0.53671134,-5.3788066,1.8050317,-0.23289618,-0.40368974
2.674,0.4161179,0.52349687,-5.3355064,1.8204052,-0.24917015,-0.39761597
2.676,0.45393562,0.51174563,-5.2920218,1.8352304,-0.26603836,-0.3916933
2.678,0.49085665,0.5014136,-5.248306,1.8495,-0.2834914,-0.3858614
2.68,0.5269222,0.49237514,-5.204246,1.8632004,-0.3015183,-0.3800648
2.682,0.5621512,0.48455936,-5.15972,1.8763175,-0.3201031,-0.3742357
2.684,0.596725,0.47793698,-5.1146803,1.8888175,-0.3392219,-0.3683439
2.686,0.6306331,0.47252876,-5.069065,1.9006851,-0.35886207,-0.3623643
2.688,0.66409373,0.46836758,-5.0227823,1.9119006,-0.3789998,-0.35628414
2.69,0.69710684,0.46545473,-4.9758053,1.9224479,-0.3996243,-0.35009784
2.692,0.7297524,0.46387511,-4.928033,1.9323201,-0.42070585,-0.34379667
2.694,0.7621374,0.46373752,-4.879438,1.941519,-0.4422279,-0.3373782
2.696,0.79432714,0.46507803,-4.8299875,1.9500403,-0.4641757,-0.3308404
2.698,0.8264406,0.4680622,-4.7796226,1.9578902,-0.48652977,-0.32418185
2.7,0.8585508,0.4728852,-4.7283735,1.9650629,-0.5092679,-0.3173948
2.702,0.8907151,0.47967923,-4.676235,1.9715592,-0.5323686,-0.31047803
2.704,0.9228234,0.4885854,-4.6232166,1.9773757,-0.5557966,-0.3034203
2.706,0.954949,0.49975994,-4.569229,1.9825187,-0.5795345,-0.29620928
2.708,0.9872683,0.51327574,-4.5143003,1.9869862,-0.603541,-0.28884727
2.71,1.0197427,0.5292677,-4.458477,1.9907807,-0.6277904,-0.2813294
2.712,1.0524391,0.54778993,-4.401781,1.9939163,-0.6522529,-0.27364767
2.714,1.0852205,0.56890136,-4.344146,1.9964011,-0.67691034,-0.26579976
2.716,1.1180563,0.592739,-4.2855926,1.9982467,-0.7017439,-0.25778288
2.718,1.1509303,0.6192611,-4.2261844,1.999483,-0.7267482,-0.24959964
2.72,1.183812,0.6485342,-4.166008,2.0001225,-0.75190264,-0.2412709
2.722,1.2166126,0.6805392,-4.1050367,2.000186,-0.7771806,-0.23282164
2.724,1.2491338,0.7153379,-4.0433226,1.9997001,-0.8025595,-0.22430706
2.726,1.281393,0.752812,-3.9808817,1.9987017,-0.8279878,-0.21578181
2.728,1.3133011,0.7929242,-3.9178116,1.9972384,-0.85341126,-0.2073211
2.73,1.3446968,0.8356047,-3.854182,1.9953457,-0.8787748,-0.19898933
2.732,1.3754926,0.8805946,-3.7900672,1.993076,-0.9040121,-0.19084996
2.734,1.4057193,0.92779976,-3.7255049,1.99048,-0.9290578,-0.18294555
2.736,1.4351116,0.9771059,-3.6605346,1.9875964,-0.95384926,-0.17531681
2.738,1.4636467,1.0283357,-3.5951943,1.9844913,-0.9783384,-0.1679601
2.74,1.4908783,1.0798771,-3.5314026,1.9811931,-1.0024754,-0.16085994
2.742,1.5170535,1.1326008,-3.46779,1.9777341,-1.0262195,-0.15397125
2.744,1.5420437,1.1862553,-3.404508,1.9741458,-1.0495397,-0.1472491
2.746,1.5657847,1.2405732,-3.3417137,1.9704587,-1.0724083,-0.14064139
2.748,1.5882245,1.2953072,-3.279517,1.9666928,-1.0948045,-0.13410157
2.75,1.6093581,1.3502057,-3.21811,1.9628692,-1.1166984,-0.12758958
2.752,1.6291151,1.4049615,-3.1576886,1.9590261,-1.1380491,-0.121077836
2.754,1.6475286,1.4592916,-3.098311,1.9552053,-1.158816,-0.11458117
2.756,1.6644748,1.5129365,-3.0401711,1.951442,-1.1789498,-0.10810691
2.758,1.6802441,1.5655739,-2.9834387,1.9477937,-1.1984082,-0.10169011
2.76,1.6947169,1.6170665,-2.928258,1.9443102,-1.2171569,-0.09536284
2.762,1.7079656,1.6671975,-2.8746898,1.941042,-1.2351584,-0.089161396
2.764,1.7200413,1.7157211,-2.8228214,1.93803,-1.2523838,-0.08312839
2.766,1.7309334,1.7624644,-2.7728372,1.9353065,-1.2688286,-0.07730752
2.768,1.740779,1.807403,-2.7247968,1.9329188,-1.2840683,-0.07186425
2.77,1.7496624,1.850336,-2.6786585,1.9308517,-1.2983418,-0.06674528
2.772,1.7576382,1.8911961,-2.6345923,1.9290944,-1.3116169,-0.06199318
2.774,1.7648566,1.9300034,-2.5925512,1.9276345,-1.3238788,-0.057619333
2.776,1.7713102,1.9666828,-2.552531,1.9264507,-1.335115,-0.053644657
2.778,1.7770141,2.001199,-2.5145314,1.9255127,-1.3453312,-0.050070703
2.78,1.7822267,2.0336285,-2.4784143,1.924783,-1.3545519,-0.04688996
2.782,1.7868451,2.0639923,-2.444271,1.9242277,-1.3628188,-0.044085026
2.784,1.7909763,2.0922194,-2.4120183,1.9238209,-1.3701769,-0.04163313
2.786,1.7948327,2.1185298,-2.3815553,1.9235289,-1.3766919,-0.039492667
2.788,1.798254,2.1429687,-2.3528244,1.9233251,-1.3824489,-0.037632883
2.79,1.8013283,2.1656137,-2.3257582,1.9232001,-1.387525,-0.036019206
