Time_s_,Acc_x_m_s_2_,Acc_y_m_s_2_,Acc_z_m_s_2_,Gyro_x_1_s_,Gyro_y_1_s_,Gyro_z_1_s_
0,1.1897498,-0.22081615,1.2860321,0.30250168,-0.029081345,1.4749373
0.002,1.1945033,-0.18665357,1.2650944,0.3080786,-0.032761008,1.4900942
0.004,1.1987407,-0.15056966,1.242673,0.31427544,-0.036628425,1.5069255
0.006,1.2026753,-0.11191988,1.2190838,0.32113487,-0.040656358,1.5254648
0.008,1.206481,-0.070239395,1.1948199,0.32868266,-0.04484859,1.545687
0.01,1.2102541,-0.025322542,1.1701804,0.33693242,-0.049162626,1.5674709
0.012,1.2141201,0.022258244,1.145329,0.3458635,-0.053564847,1.5905962
0.014,1.2182641,0.07198897,1.1202346,0.35542887,-0.057985127,1.6147282
0.016,1.2226523,0.12368894,1.095236,0.36556947,-0.062296808,1.6394702
0.018,1.2270205,0.17761028,1.070747,0.37621295,-0.066281855,1.6644145
0.02,1.2309504,0.23424493,1.0469445,0.38730586,-0.069648206,1.6892139
0.022,1.2340125,0.29384857,1.0236732,0.39880717,-0.07198751,1.7136365
0.024,1.2358977,0.35660326,1.0004704,0.4107193,-0.07280341,1.7375995
0.026,1.2363626,0.42256284,0.97688556,0.42308807,-0.071578115,1.7612365
0.028,1.2349279,0.4916945,0.9524741,0.43631232,-0.0679726,1.7855672
0.03,1.2310954,0.5639614,0.92696536,0.45011657,-0.061267585,1.8101202
0.032,1.2244705,0.6395617,0.9001046,0.4646731,-0.051260233,1.8356303
0.034,1.2146528,0.7186059,0.8718396,0.48010153,-0.037980944,1.8627993
0.036,1.2010301,0.8013253,0.84221125,0.49647465,-0.021698624,1.8921796
0.038,1.1831603,0.8876322,0.81106055,0.5138135,-0.002910316,1.9241337
0.04,1.1605835,0.9775201,0.77849567,0.5321006,0.017639369,1.9587648
0.042,1.1330125,1.0708416,0.7444297,0.5512529,0.038988918,1.995976
0.044,1.1001774,1.1674997,0.7089714,0.5711334,0.060051322,2.0355198
0.046,1.0621319,1.2674066,0.6721729,0.59157574,0.07969153,2.0770283
0.048,1.0189536,1.3702962,0.63425493,0.6123749,0.09676239,2.1200283
0.05,0.9708464,1.4758971,0.5953792,0.6332852,0.11020094,2.1640358
0.052,0.9182104,1.5837891,0.5556395,0.65402484,0.11908141,2.2085495
0.054,0.86138165,1.693807,0.5151424,0.6743041,0.12272513,2.2531514
0.056,0.8006784,1.8074747,0.47373933,0.6938804,0.12075186,2.2975454
0.058,0.7368137,1.9221065,0.43158954,0.7125701,0.11311126,2.3416102
0.06,0.6706753,2.037313,0.38864785,0.73027855,0.100119084,2.3854265
0.062,0.60281205,2.1528277,0.34499604,0.74700147,0.08250204,2.4292667
0.064,0.5347831,2.2683835,0.3004678,0.7628205,0.061267078,2.4736073
0.066,0.4671958,2.3838196,0.25482804,0.77789855,0.037655413,2.519076
0.068,0.4006822,2.4988365,0.20777786,0.79242384,0.012924403,2.5663958
0.07,0.33575976,2.6134324,0.15903652,0.8065706,-0.011813223,2.6162622
0.072,0.27300692,2.7273748,0.1079973,0.82044387,-0.0357686,2.6692426
0.074,0.21285105,2.8405046,0.054209232,0.8340316,-0.058593154,2.725646
0.076,0.15518165,2.9531317,-0.002565682,0.8472098,-0.080509126,2.7854462
0.078,0.09986663,3.0652142,-0.06250143,0.8597074,-0.1022799,2.8482609
0.08,0.04668224,3.1773028,-0.12567717,0.8711448,-0.12507871,2.913334
0.082,-0.0046195984,3.2895052,-0.19236583,0.88105285,-0.15041342,2.979596
0.084,-0.054977298,3.402008,-0.2624247,0.8889539,-0.17996606,3.045694
0.086,-0.105389476,3.5152826,-0.3351438,0.89440095,-0.21538919,3.1102018
0.088,-0.15669155,3.6296277,-0.40956384,0.8970308,-0.25811973,3.1716914
0.09,-0.20989335,3.7453938,-0.4844858,0.896554,-0.3093337,3.2288988
0.092,-0.26620674,3.8627172,-0.5584429,0.8927789,-0.3698469,3.2807498
0.094,-0.32673585,3.9819264,-0.6298991,0.8856552,-0.440028,3.3263512
0.096,-0.39244854,4.103185,-0.6972724,0.87524873,-0.5199137,3.3649762
0.098,-0.4642594,4.2264996,-0.7590754,0.8617288,-0.6092771,3.3960948
0.1,-0.54333925,4.351944,-0.8137685,0.8453704,-0.7076155,3.41936
0.102,-0.6305702,4.47952,-0.85999656,0.8265776,-0.8141901,3.4346242
0.104,-0.72684133,4.609253,-0.89625835,0.80584306,-0.9281093,3.4418707
0.106,-0.8329356,4.741024,-0.92101026,0.78373694,-1.0483091,3.4412324
0.108,-0.94935954,4.8747525,-0.93275845,0.7608824,-1.1736162,3.432922
0.11,-1.0765296,5.0104065,-0.9297656,0.7379457,-1.302724,3.4172657
0.112,-1.2146331,5.1479445,-0.9104109,0.71565855,-1.4342223,3.3946354
0.114,-1.3635108,5.28687,-0.87384796,0.69476485,-1.566669,3.365446
0.116,-1.5228693,5.426569,-0.8196999,0.6759876,-1.6985438,3.3301902
0.118,-1.6924934,5.5665135,-0.7481235,0.66001666,-1.8282508,3.2894087
0.12,-1.8718086,5.7061524,-0.6594467,0.6474409,-1.9541461,3.2436447
0.122,-2.060185,5.845523,-0.5541812,0.6387576,-2.074563,3.1934729
0.124,-2.2567985,5.9844036,-0.43298626,0.6343459,-2.187818,3.1394603
0.126,-2.4605355,6.122134,-0.29705834,0.6344454,-2.2922378,3.0821483
0.128,-2.6696112,6.257495,-0.14789099,0.63916075,-2.3862162,3.0220711
0.13,-2.8824816,6.3892074,0.012743056,0.6484386,-2.468274,2.9597263
0.132,-3.097391,6.5161915,0.18345898,0.662138,-2.5371513,2.895566
0.134,-3.3125803,6.6373796,0.3626405,0.6800014,-2.5918994,2.8299828
0.136,-3.525968,6.7516117,0.5481549,0.70169413,-2.6319056,2.7633586
0.138,-3.7354145,6.8576207,0.7377115,0.72679186,-2.6569562,2.696069
0.14,-3.938305,6.9539127,0.9287883,0.7548249,-2.6672668,2.6284342
0.142,-4.1322145,7.0385747,1.1190487,0.7852535,-2.6635137,2.5607364
0.144,-4.3147,7.109784,1.3059355,0.81749225,-2.6467519,2.493187
0.146,-4.482889,7.165707,1.4873762,0.8508949,-2.6184378,2.425932
0.148,-4.634312,7.204793,1.6612729,0.88476384,-2.58035,2.3590515
0.15,-4.766171,7.225277,1.8255978,0.91838455,-2.5344524,2.2925096
0.152,-4.8761973,7.225546,1.9789354,0.9510212,-2.482841,2.2261174
0.154,-4.9618745,7.2041044,2.1203742,0.98191714,-2.4276671,2.1595664
0.156,-5.0211015,7.159585,2.249372,1.0102973,-2.3710184,2.0924585
0.158,-5.051834,7.0909395,2.3656785,1.0354449,-2.314786,2.0243535
0.16,-5.0522003,6.9972,2.469534,1.0567405,-2.2606936,1.9548445
0.162,-5.0206265,6.8777995,2.5615056,1.0736599,-2.2102108,1.8836131
0.164,-4.9557,6.732174,2.642335,1.0858169,-2.1645448,1.8104637
0.166,-4.856627,6.560385,2.713007,1.0929694,-2.1246345,1.7354031
0.168,-4.723526,6.363104,2.7747297,1.0950673,-2.0911713,1.6586176
0.17,-4.556958,6.141058,2.8291168,1.0922425,-2.064639,1.5804534
0.172,-4.357998,5.895591,2.8774316,1.084769,-2.0453167,1.5014482
0.174,-4.1291604,5.628761,2.9208078,1.0730782,-2.033278,1.4223006
0.176,-3.8722367,5.342239,2.960257,1.0577149,-2.0283508,1.3437431
0.178,-3.589724,5.0384684,2.996484,1.0392996,-2.0301213,1.2665069
0.18,-3.2847338,4.720387,3.0298698,1.0185297,-2.037955,1.1912613
0.182,-2.962962,4.392669,3.0612197,0.9961357,-2.051004,1.1185915
0.184,-2.6274247,4.0579643,3.0913029,0.97287834,-2.0681705,1.0489824
0.186,-2.2811625,3.717341,3.1192694,0.9494979,-2.0881574,0.98278594
0.188,-1.9284651,3.3727586,3.1456957,0.92671466,-2.1095405,0.920244
0.19,-1.5741487,3.027182,3.1710377,0.90519255,-2.130814,0.86147875
0.192,-1.2230115,2.6847508,3.1939692,0.88553804,-2.150451,0.8065394
0.194,-0.87952554,2.34927,3.2125373,0.86821914,-2.1670263,0.7554266
0.196,-0.54811543,2.023662,3.2249112,0.8535903,-2.1793199,0.7080839
0.198,-0.23327649,1.7102978,3.2294307,0.84184897,-2.1863267,0.6643706
0.2,0.0610559,1.4107349,3.2247183,0.8330285,-2.187297,0.6240875
0.202,0.33151394,1.1263518,3.2096455,0.8269727,-2.181796,0.586939
0.204,0.5752587,0.8581324,3.183064,0.8234882,-2.1695514,0.5523567
0.206,0.79013574,0.60678893,3.143696,0.822347,-2.150541,0.51959664
0.208,0.9745095,0.37251538,3.0910034,0.8231442,-2.125032,0.48797485
0.21,1.1276058,0.15542549,3.0241814,0.82532376,-2.0935495,0.4569096
0.212,1.2496094,-0.045464963,2.9422104,0.8282538,-2.056809,0.42577153
0.214,1.3413568,-0.23156768,2.8445349,0.8315056,-2.0152504,0.39387602
0.216,1.4040073,-0.40391538,2.7302535,0.8348304,-1.9692907,0.3606985
0.218,1.4392254,-0.5637398,2.5982196,0.83801204,-1.9195474,0.32602492
0.22,1.447375,-0.7115686,2.4470117,0.8408403,-1.8664433,0.29004392
0.222,1.424956,-0.8463144,2.2768993,0.8431146,-1.8102224,0.25321615
0.224,1.3801026,-0.97152376,2.0944014,0.8446417,-1.7511963,0.21612486
0.226,1.327251,-1.0932832,1.9011497,0.84531665,-1.6896898,0.17946166
0.228,1.2753989,-1.2093616,1.6997781,0.84511596,-1.6259801,0.14410412
0.23,1.2182916,-1.3079998,1.4848585,0.84406507,-1.5603563,0.111134425
0.232,1.1602913,-1.385592,1.2533177,0.84218025,-1.4931375,0.081793845
0.234,1.1067976,-1.4406486,1.0054944,0.83940166,-1.4246495,0.057397813
0.236,1.0585183,-1.4712703,0.7495157,0.8355872,-1.3553079,0.039150104
0.238,1.016634,-1.4788641,0.5018575,0.83054,-1.2857193,0.028051667
0.24,0.98226064,-1.4678998,0.27001554,0.8239982,-1.2166313,0.024673302
0.242,0.9588034,-1.44208,0.050511338,0.8156632,-1.148968,0.02901164
0.244,0.9490987,-1.4012644,-0.16277845,0.80523735,-1.0838248,0.04051624
0.246,0.9545602,-1.3405515,-0.37338528,0.7924675,-1.0223244,0.0580286
0.248,0.9767426,-1.2538432,-0.58013046,0.7772327,-0.9654625,0.07988371
0.25,1.015985,-1.1356612,-0.77897114,0.7596445,-0.9138143,0.10406765
0.252,1.0722544,-0.98069584,-0.96538144,0.74015075,-0.8672944,0.12831521
0.254,1.1445209,-0.78404,-1.1357651,0.7195089,-0.8249879,0.15064527
0.256,1.231024,-0.5425283,-1.289861,0.69870996,-0.78553665,0.17028984
0.258,1.3294039,-0.25534248,-1.4291489,0.6794341,-0.7468699,0.18759394
0.26,1.436449,0.07574153,-1.5566592,0.66432047,-0.7058197,0.20296325
0.262,1.5476185,0.44772714,-1.6767813,0.65628225,-0.6588761,0.21687731
0.264,1.6573647,0.8565442,-1.7950633,0.65837055,-0.60258794,0.23045255
0.266,1.760162,1.2972054,-1.917216,0.6736297,-0.53438,0.24520329
0.268,1.8501108,1.7642897,-2.0485675,0.70471185,-0.45228592,0.26228356
0.27,1.921213,2.2518172,-2.193061,0.7540139,-0.35431626,0.28199476
0.272,1.9683468,2.7521436,-2.3521576,0.82349944,-0.23990896,0.3038261
0.274,1.9870287,3.2563157,-2.525043,0.914381,-0.11075536,0.32644188
0.276,1.9748571,3.7543197,-2.7091184,1.0269285,0.029949263,0.34732294
0.278,1.9311334,4.236021,-2.8999472,1.160017,0.17805338,0.36269152
0.28,1.8570141,4.691816,-3.0916061,1.3104551,0.32859308,0.36790374
0.282,1.7552946,5.112294,-3.2777443,1.4727696,0.47606575,0.35808176
0.284,1.6302017,5.4885397,-3.4517171,1.63944,0.6147703,0.32878184
0.286,1.4869168,5.8132706,-3.6077385,1.8014529,0.73906565,0.27687132
0.288,1.3319921,6.080387,-3.7408216,1.9492002,0.8436466,0.20139492
0.29,1.1729472,6.2856655,-3.8468463,2.0734553,0.923852,0.10416484
0.292,1.0195103,6.426067,-3.922708,2.1662235,0.9758067,-0.01031208
0.294,0.8783922,6.5030217,-3.9658313,2.2215524,0.9965709,-0.1352911
0.296,0.75679064,6.5207615,-3.9729285,2.2361655,0.98447883,-0.26268113
0.298,0.66250134,6.4839535,-3.9425783,2.2098472,0.9394169,-0.38424438
0.3,0.60296774,6.397385,-3.8740304,2.145501,0.86316097,-0.49274516
0.302,0.5842972,6.266548,-3.7660298,2.0487916,0.7595999,-0.58289945
0.304,0.61077976,6.0986786,-3.6189084,1.9274637,0.63463765,-0.65181303
0.306,0.68483424,5.902537,-3.4352958,1.7904321,0.49584293,-0.69893867
0.308,0.807137,5.6876345,-3.220078,1.6469171,0.35179198,-0.72600496
0.31,0.97593033,5.463704,-2.9793453,1.5055685,0.21141481,-0.7366737
0.312,1.1878844,5.2397785,-2.7200465,1.3732815,0.08238116,-0.73516065
0.314,1.437863,5.024164,-2.449333,1.2548559,-0.029981732,-0.7249441
0.316,1.7192543,4.824329,-2.174038,1.15347,-0.12270233,-0.70895815
0.318,2.0242875,4.6465206,-1.9007444,1.0703255,-0.19547796,-0.6898345
0.32,2.34474,4.4957895,-1.6343222,1.0046725,-0.2502658,-0.6694192
0.322,2.6712675,4.376467,-1.3783047,0.95430535,-0.29128915,-0.64856094
0.324,2.9954317,4.2912946,-1.1354798,0.9160019,-0.32390139,-0.6274841
0.326,3.309502,4.2412004,-0.9076569,0.8862029,-0.35216722,-0.6062305
0.328,3.6064906,4.2259474,-0.6954589,0.86154926,-0.37835336,-0.58472556
0.33,3.881963,4.243632,-0.4985292,0.83917826,-0.40332115,-0.5623993
0.332,4.134926,4.290922,-0.31721544,0.8171445,-0.42657006,-0.538309
0.334,4.354597,4.368556,-0.15517306,0.7946373,-0.44648975,-0.5116262
0.336,4.529574,4.4774866,-0.009242535,0.7717006,-0.46095905,-0.48183388
0.338,4.6591835,4.609969,0.12331414,0.74873483,-0.46806842,-0.448734
0.34,4.7565155,4.753055,0.25140262,0.72610307,-0.46678776,-0.41258654
0.342,4.8216996,4.9052258,0.378783,0.7038578,-0.4573955,-0.37416953
0.344,4.854967,5.0672703,0.50493574,0.68172824,-0.44151467,-0.3347381
0.346,4.8611054,5.2393007,0.6234467,0.6593355,-0.42174405,-0.2957269
0.348,4.842964,5.4237065,0.7245281,0.6363481,-0.40109324,-0.25848755
0.35,4.803215,5.6237206,0.8112507,0.6125781,-0.38235497,-0.22409114
0.352,4.7417917,5.8394003,0.8949716,0.58793557,-0.3675581,-0.19314703
0.354,4.659875,6.0660644,0.98483086,0.5624198,-0.35770297,-0.16568671
0.356,4.559807,6.2959785,1.0835266,0.53613085,-0.35267326,-0.14120646
0.358,4.443679,6.5225105,1.1874108,0.5092498,-0.35142314,-0.11885537
0.36,4.3142138,6.741762,1.2908959,0.4820497,-0.35228607,-0.09762797
0.362,4.1740694,6.951318,1.3896239,0.45480788,-0.35333687,-0.076529115
0.364,4.0263824,7.1495824,1.481663,0.4277553,-0.35276252,-0.054720134
0.366,3.8740203,7.336741,1.5684192,0.40103942,-0.34912556,-0.03159962
0.368,3.7201233,7.514269,1.6527629,0.3747266,-0.34147143,-0.006896779
0.37,3.5679772,7.6842465,1.737592,0.3488441,-0.32929373,0.01929545
0.372,3.4214377,7.847924,1.8250463,0.32344607,-0.3123643,0.046596035
0.374,3.2836707,8.005747,1.9156353,0.29871082,-0.29047832,0.07448829
0.376,3.158247,8.157138,2.0086472,0.27495065,-0.2632833,0.10245372
0.378,3.0485644,8.301251,2.101311,0.2526455,-0.2301441,0.13010377
0.38,2.9570265,8.436715,2.1901453,0.23242272,-0.19006577,0.15723163
0.382,2.8851264,8.561545,2.2723134,0.21502155,-0.14179042,0.18387194
0.384,2.834555,8.674039,2.3452592,0.20121215,-0.08392471,0.21025853
0.386,2.805467,8.773999,2.4060292,0.19174092,-0.015135333,0.23678984
0.388,2.7973573,8.861683,2.4511874,0.18727605,0.06565212,0.2639726
0.39,2.8097532,8.937107,2.4769847,0.18835422,0.15906459,0.29236397
0.392,2.8421657,9,2.480725,0.19533972,0.26522192,0.32250237
0.394,2.8942726,9.050307,2.461109,0.20841004,0.3836877,0.35486716
0.396,2.9651768,9.088628,2.4178774,0.22753133,0.5134986,0.38980317
0.398,3.0542207,9.115328,2.351192,0.2524784,0.6532524,0.4275144
0.4,3.1607585,9.130694,2.2617154,0.28288618,0.8012128,0.46807224
0.402,3.2831829,9.13504,2.149247,0.3183112,0.9554212,0.5113247
0.404,3.419937,9.128798,2.0127642,0.3581407,1.1136351,0.55688393
0.406,3.5692759,9.112079,1.8516266,0.40152583,1.2732989,0.6042509
0.408,3.7290874,9.085456,1.6647081,0.44734567,1.4316133,0.65279174
0.41,3.8970575,9.049331,1.4514961,0.49429,1.58551,0.70152587
0.412,4.070464,9.0043125,1.2126937,0.54094005,1.7315353,0.7493121
0.414,4.2469344,8.950891,0.95060897,0.5856215,1.865828,0.79514587
0.416,4.424039,8.889475,0.6689129,0.6263262,1.9840826,0.83820474
0.418,4.599557,8.820593,0.37274218,0.6607309,2.081537,0.87771183
0.42,4.771009,8.744518,0.06801891,0.6863121,2.1530719,0.9128869
0.422,4.9360905,8.661384,-0.2386074,0.70045304,2.193418,0.94300467
0.424,5.093178,8.570862,-0.53973055,0.7006321,2.1975162,0.96750116
0.426,5.2401476,8.473005,-0.8279376,0.6846031,2.161025,0.98603743
0.428,5.375595,8.368172,-1.096189,0.65060514,2.0808249,0.998559
0.43,5.4992504,8.256104,-1.3381567,0.5976654,1.9555609,1.0052814
0.432,5.610333,8.137349,-1.5478878,0.5257252,1.7860707,1.0066524
0.434,5.7075577,8.01255,-1.720267,0.4357394,1.5755907,1.0033845
0.436,5.7901707,7.881919,-1.8505108,0.32964116,1.3297472,0.9964384
0.438,5.859193,7.745203,-1.9343839,0.21027374,1.0562816,0.98699343
0.44,5.915778,7.6028814,-1.9700866,0.08119337,0.7645779,0.9763225
0.442,5.9586916,7.4557934,-1.9559069,-0.0535962,0.4649749,0.9656317
0.444,5.988754,7.303104,-1.8906555,-0.18993032,0.16803417,0.9558644
0.446,6.005117,7.1446276,-1.7760966,-0.32377204,-0.11625388,0.94765127
0.448,6.009511,6.9790163,-1.6124263,-0.4514404,-0.37909147,0.94116807
0.45,6.003667,6.8051424,-1.4016223,-0.56981134,-0.6134144,0.93607265
0.452,5.987131,6.6235914,-1.1494775,-0.6764876,-0.81419134,0.9315479
0.454,5.959639,6.4359465,-0.8612671,-0.7698895,-0.9785682,0.92640424
0.456,5.923452,6.243662,-0.5418863,-0.8493035,-1.1058722,0.91929275
0.458,5.880206,6.047989,-0.19926357,-0.91479564,-1.1973269,0.908821
0.46,5.832163,5.847993,0.1588006,-0.9671302,-1.2558148,0.89362335
0.462,5.781207,5.6420455,0.52594423,-1.0077344,-1.2856916,0.87250924
0.464,5.729062,5.428708,0.89705944,-1.0386239,-1.2922702,0.8446311
0.466,5.674938,5.2088785,1.2674959,-1.0622557,-1.2813859,0.8093537
0.468,5.6180134,4.983798,1.6299264,-1.081153,-1.2589414,0.76618487
0.47,5.5580378,4.753872,1.976795,-1.0976218,-1.2304671,0.71483
0.472,5.4929657,4.521424,2.300142,-1.1137565,-1.2009628,0.65509003
0.474,5.420227,4.290439,2.5939977,-1.1311952,-1.17413,0.5869738
0.476,5.337749,4.0659795,2.8558006,-1.1510262,-1.1523097,0.5105455
0.478,5.242542,3.853436,3.0851116,-1.1738698,-1.1367074,0.42582762
0.48,5.133179,3.6569285,3.282787,-1.1997521,-1.1274285,0.33296138
0.482,5.0107684,3.4784753,3.4504724,-1.2280759,-1.1234756,0.23230451
0.484,4.8776054,3.3196158,3.5881953,-1.2579387,-1.1232253,0.12446153
0.486,4.734497,3.183267,3.693624,-1.2881304,-1.1244066,0.01028198
0.488,4.5823283,3.0726497,3.763308,-1.3171589,-1.1242517,-0.10928452
0.49,4.422575,2.991871,3.7918048,-1.3435161,-1.1199207,-0.23309124
0.492,4.256749,2.9458375,3.7721796,-1.3658448,-1.1088309,-0.35948938
0.494,4.086487,2.9376574,3.6994786,-1.382984,-1.0887603,-0.48620653
0.496,3.9149122,2.9671633,3.5715005,-1.3940823,-1.0580168,-0.6106534
0.498,3.7447648,3.0325618,3.3887863,-1.3987595,-1.015858,-0.7302252
0.5,3.5780234,3.1319084,3.1537857,-1.3972378,-0.9627619,-0.8424063
0.502,3.4162855,3.2634513,2.8708088,-1.390358,-0.90078557,-0.9448031
0.504,3.2605305,3.4253058,2.5449376,-1.3794873,-0.8335377,-1.0353316
0.506,3.1118877,3.6145234,2.1826108,-1.3662345,-0.7657262,-1.112668
0.508,2.9708424,3.828176,1.7904243,-1.351991,-0.70238274,-1.1765858
0.51,2.837727,4.062314,1.3744521,-1.3376387,-0.64846563,-1.2278863
0.512,2.7130377,4.311913,0.94109344,-1.3234308,-0.60832494,-1.2679098
0.514,2.5965185,4.57117,0.4969852,-1.308929,-0.58509374,-1.2980187
0.516,2.4870908,4.8342733,0.04861021,-1.2931198,-0.5801968,-1.3192499
0.518,2.3838005,5.094572,-0.39709282,-1.2747027,-0.5930506,-1.3321449
0.52,2.285443,5.3456373,-0.8337357,-1.2523472,-0.6207934,-1.3368344
0.522,2.1914139,5.5811214,-1.2551258,-1.2250555,-0.65838814,-1.3332443
0.524,2.1009905,5.795621,-1.6558051,-1.1924696,-0.69889027,-1.3212445
0.526,2.014131,5.984249,-2.030239,-1.1549078,-0.73386294,-1.3007778
0.528,1.9313271,6.1428833,-2.3736618,-1.1133126,-0.75464565,-1.2724484
0.53,1.8540083,6.268551,-2.6825023,-1.0689106,-0.7530355,-1.2377297
0.532,1.7834244,6.359273,-2.9543593,-1.0228789,-0.72216606,-1.1990234
0.534,1.7212088,6.414178,-3.1883721,-0.9763189,-0.65775317,-1.1596366
0.536,1.6699271,6.4330044,-3.3846118,-0.9302669,-0.55898964,-1.1233811
0.538,1.632227,6.41657,-3.5437474,-0.8855442,-0.42878395,-1.0940257
0.54,1.6112978,6.3661876,-3.6664543,-0.8430081,-0.27393436,-1.074825
0.542,1.6091962,6.2839336,-3.7518015,-0.8037328,-0.10448656,-1.0680263
0.544,1.6268232,6.1739616,-3.8029513,-0.76897645,0.06754498,-1.0746766
0.546,1.6700208,6.0383177,-3.8252265,-0.7401788,0.22968724,-1.0946848
0.548,1.7395194,5.8807306,-3.8192306,-0.71889055,0.37047845,-1.1267376
0.55,1.8332076,5.7057447,-3.7836614,-0.7064698,0.48097283,-1.1681542
0.552,1.9528661,5.517043,-3.7221599,-0.7036828,0.556039,-1.2152925
0.554,2.0998406,5.318384,-3.6386557,-0.71036816,0.5949349,-1.2642576
0.556,2.2735872,5.113942,-3.5316308,-0.72536457,0.6012517,-1.3115222
0.558,2.469014,4.9094377,-3.4039314,-0.74657667,0.58199966,-1.3542491
0.56,2.6816974,4.708844,-3.2594109,-0.77130497,0.54610384,-1.3903636
0.562,2.9112618,4.5122037,-3.0981202,-0.79669565,0.5028764,-1.4186491
0.564,3.1532526,4.320096,-2.924953,-0.82006466,0.46099484,-1.4389281
0.566,3.399613,4.134278,-2.7441635,-0.8391502,0.42748222,-1.4521446
0.568,3.6463957,3.9552426,-2.5568051,-0.85239637,0.4069604,-1.4601142
0.57,3.887877,3.7859178,-2.3672476,-0.8590361,0.4014758,-1.4649177
0.572,4.1175756,3.629845,-2.1800442,-0.8590026,0.4107151,-1.4685705
0.574,4.331973,3.48775,-1.9992164,-0.8529413,0.43254852,-1.4726686
0.576,4.53016,3.3578815,-1.83025,-0.8419738,0.46371448,-1.477919
0.578,4.7096605,3.2400203,-1.6746174,-0.82741433,0.5003458,-1.4843341
0.58,4.8692093,3.1336312,-1.5333521,-0.81044817,0.53894305,-1.4914916
0.582,5.0066333,3.037451,-1.4082003,-0.7921357,0.57709205,-1.4985263
0.584,5.1201315,2.9499714,-1.2976141,-0.77331257,0.6133568,-1.5042126
0.586,5.219036,2.865437,-1.211653,-0.75440216,0.64718944,-1.507169
0.588,5.3056808,2.7813993,-1.1582167,-0.7354131,0.67911124,-1.506068
0.59,5.3740873,2.700894,-1.1350656,-0.71608245,0.71016335,-1.4998319
0.592,5.417963,2.6290607,-1.1422701,-0.69600874,0.7415279,-1.487688
0.594,5.436392,2.5696893,-1.17805,-0.67468226,0.774337,-1.4692085
0.596,5.4325504,2.5242796,-1.2355907,-0.6518346,0.80910164,-1.4445522
0.598,5.409936,2.4929483,-1.3075635,-0.62749434,0.8458205,-1.4142685
0.6,5.370637,2.4746025,-1.3882282,-0.60200816,0.88383055,-1.3793161
0.602,5.31653,2.4677305,-1.4711535,-0.5760353,0.921627,-1.3412812
0.604,5.2500534,2.4711535,-1.551599,-0.5504875,0.95724344,-1.3021291
0.606,5.1745243,2.4834776,-1.6267027,-0.5265101,0.98834515,-1.2639409
0.608,5.0944867,2.502778,-1.6942922,-0.50540733,1.0122745,-1.2290341
0.61,5.014446,2.5268095,-1.7510266,-0.488379,1.0265083,-1.199672
0.612,4.9381733,2.5530965,-1.7932734,-0.47639388,1.0288231,-1.177849
0.614,4.868944,2.579404,-1.8180764,-0.47026604,1.0174439,-1.1651601
0.616,4.8091264,2.6037445,-1.8236289,-0.47009063,0.9921272,-1.1623743
0.618,4.759758,2.6243076,-1.8085551,-0.47533536,0.95305395,-1.1697516
0.62,4.720653,2.6402879,-1.7718198,-0.48487133,0.9015665,-1.1868867
0.622,4.691082,2.6521308,-1.7130368,-0.49699044,0.8409374,-1.2123351
0.624,4.669631,2.6612687,-1.6330005,-0.50958866,0.77550125,-1.2438562
0.626,4.655372,2.6693306,-1.5337232,-0.52008116,0.7104532,-1.2785715
0.628,4.646487,2.6782393,-1.4174014,-0.52533567,0.6516671,-1.313387
0.63,4.640955,2.6895657,-1.2865653,-0.5220888,0.60512,-1.3454552
0.632,4.636256,2.7048945,-1.1444538,-0.50752074,0.5763873,-1.3720889
0.634,4.629633,2.7252092,-0.9944432,-0.4797474,0.5698041,-1.3909658
0.636,4.6176515,2.751692,-0.8403952,-0.4380492,0.5878497,-1.4005852
0.638,4.597137,2.785417,-0.6853781,-0.3829937,0.6310837,-1.4005411
0.64,4.5657387,2.8269365,-0.53240204,-0.3165372,0.6978688,-1.3915217
0.642,4.521694,2.876642,-0.3843391,-0.24196261,0.78406924,-1.3753755
0.644,4.4641647,2.9337687,-0.2425108,-0.16355187,0.88367254,-1.3550007
0.646,4.3928804,2.9969602,-0.10724044,-0.086268425,0.9891991,-1.334177
0.648,4.307472,3.0642319,0.022648573,-0.015273988,1.0922285,-1.3171701
0.65,4.207855,3.133809,0.1487639,0.044766426,1.1844921,-1.3081205
0.652,4.0975842,3.2026377,0.27116203,0.090079606,1.2584318,-1.3107067
0.654,3.9803865,3.2664752,0.39419556,0.1180771,1.3080828,-1.3275181
0.656,3.8556905,3.3237748,0.52294683,0.12759471,1.3299041,-1.3595333
0.658,3.7281168,3.3710933,0.6561928,0.118940175,1.322899,-1.4062632
0.66,3.6038902,3.4041643,0.79315424,0.093792856,1.2888414,-1.4657722
0.662,3.486117,3.419764,0.9367851,0.054958522,1.2320428,-1.5346978
0.664,3.376111,3.4163067,1.0883207,0.0059218407,1.1585568,-1.6088822
0.666,3.2776527,3.3914502,1.2455633,-0.049493372,1.0754646,-1.6839651
0.668,3.1945677,3.342855,1.4084241,-0.107421994,0.9900019,-1.7559023
0.67,3.1287508,3.2698169,1.5787026,-0.1646936,0.9081874,-1.8216072
0.672,3.079545,3.173965,1.7557024,-0.21874201,0.83537334,-1.8788844
0.674,3.048365,3.0561132,1.9401916,-0.26770282,0.7749833,-1.926765
0.676,3.0363123,2.917361,2.1297903,-0.31047344,0.7281608,-1.9656341
0.678,3.0407457,2.760846,2.3213634,-0.3466621,0.69493556,-1.9967406
0.68,3.0596652,2.5892372,2.5140157,-0.3766706,0.6744145,-2.021732
0.682,3.0925744,2.4049978,2.7050853,-0.40149283,0.66509104,-2.042347
0.684,3.1362815,2.2124,2.8911157,-0.42227757,0.6653465,-2.0602746
0.686,3.1877704,2.0151668,3.0708961,-0.4400251,0.6737927,-2.077001
0.688,3.245274,1.8154476,3.2423859,-0.45550895,0.68931854,-2.0936885
0.69,3.305413,1.6164625,3.40421,-0.4692974,0.71117514,-2.1111352
0.692,3.367333,1.4204844,3.5564501,-0.48182112,0.7389536,-2.1297164
0.694,3.4293344,1.2296083,3.6958065,-0.49335456,0.7724786,-2.149492
0.696,3.4808834,1.0490887,3.828356,-0.50396913,0.81166136,-2.1703315
0.698,3.5220683,0.88055855,3.9559228,-0.5135915,0.85634696,-2.1919928
0.7,3.5586963,0.7221932,4.0728397,-0.522102,0.90637094,-2.2141337
0.702,3.593437,0.57257855,4.179489,-0.5294188,0.96154404,-2.2363758
0.704,3.6241126,0.43162462,4.2779408,-0.53553015,1.0216242,-2.2583416
0.706,3.6479795,0.29996356,4.3660226,-0.54051584,1.086257,-2.2796834
0.708,3.6645129,0.17851733,4.4414387,-0.5445649,1.1549348,-2.3000968
0.71,3.6749623,0.06852719,4.5032034,-0.54799885,1.2269592,-2.319365
0.712,3.6802895,-0.028882727,4.5490513,-0.55125684,1.3015143,-2.3372939
0.714,3.6799169,-0.112379044,4.577579,-0.5548674,1.3776133,-2.3538404
0.716,3.672648,-0.18112057,4.588885,-0.5593679,1.4542377,-2.3690763
0.718,3.6574645,-0.2353409,4.5827017,-0.5652293,1.5303845,-2.3831222
0.72,3.6348538,-0.27614492,4.5566516,-0.5727998,1.6051973,-2.3960707
0.722,3.6064641,-0.3054516,4.5075126,-0.5822407,1.6780818,-2.4079046
0.724,3.57312,-0.3261478,4.433817,-0.5935228,1.7487214,-2.4185138
0.726,3.5358672,-0.3409401,4.3353567,-0.606442,1.8170984,-2.4276714
0.728,3.496488,-0.35237983,4.212718,-0.62063897,1.8833842,-2.4350703
0.73,3.4569108,-0.3630381,4.0670824,-0.6356002,1.947911,-2.4404187
0.732,3.418635,-0.37557644,3.8995502,-0.6506747,2.0110474,-2.4434352
0.734,3.3829904,-0.39323083,3.7114067,-0.6651486,2.0731804,-2.4438615
0.736,3.3484497,-0.41536823,3.5009155,-0.67830086,2.1346755,-2.4414349
0.738,3.3166158,-0.4443674,3.269253,-0.6894555,2.1958945,-2.435929
0.74,3.2870636,-0.481269,3.0154252,-0.6979971,2.257133,-2.4271858
0.742,3.2591279,-0.5266759,2.740093,-0.70343554,2.3186586,-2.415034
0.744,3.2324998,-0.58112395,2.4442735,-0.7054516,2.3807447,-2.3992648
0.746,3.2073538,-0.6451453,2.129413,-0.70397854,2.4435103,-2.379723
0.748,3.183279,-0.7189918,1.797451,-0.6992731,2.506751,-2.3562555
0.75,3.1598172,-0.80256635,1.4514782,-0.69195664,2.56985,-2.3287416
0.752,3.1369863,-0.8957775,1.0954111,-0.682986,2.6315753,-2.2972808
0.754,3.1138036,-0.9978627,0.7328479,-0.6736518,2.6899538,-2.262218
0.756,3.089829,-1.1080762,0.36762533,-0.66553783,2.7423692,-2.2240427
0.758,3.065386,-1.2254986,0.0030156672,-0.66039145,2.7857156,-2.183426
0.76,3.0397608,-1.3491385,-0.35745242,-0.65996456,2.8166893,-2.14123
0.762,3.011623,-1.4780529,-0.7086691,-0.665776,2.8322575,-2.0983267
0.764,2.980589,-1.6110599,-1.0457616,-0.6789794,2.8299766,-2.0554438
0.766,2.9464726,-1.7471632,-1.3643069,-0.70041883,2.8077717,-2.0136192
0.768,2.908132,-1.885499,-1.6593707,-0.73030555,2.7651143,-1.9737144
0.77,2.8651924,-2.0253544,-1.9268546,-0.7683805,2.7025788,-1.936304
0.772,2.8174186,-2.1656404,-2.1634989,-0.81390953,2.6218894,-1.9018703
0.774,2.7639384,-2.305329,-2.3667812,-0.86569333,2.525853,-1.8707505
0.776,2.7036881,-2.4436865,-2.5354905,-0.9221717,2.4180586,-1.8431047
0.778,2.6361282,-2.5798304,-2.669005,-0.98154986,2.3026137,-1.8188999
0.78,2.5603547,-2.712841,-2.7670593,-1.0418833,2.1839128,-1.7979603
0.782,2.4751987,-2.8417923,-2.830932,-1.1011772,2.066381,-1.7799938
0.784,2.380081,-2.9663963,-2.8614814,-1.1574965,1.9541821,-1.7645885
0.786,2.2731664,-3.0856316,-2.8606796,-1.2090611,1.8511075,-1.7512438
0.788,2.1544218,-3.1992304,-2.8312602,-1.254287,1.7604129,-1.7394621
0.79,2.0228,-3.3070753,-2.7762926,-1.2918926,1.6846226,-1.7288274
0.792,1.8766773,-3.40844,-2.7007222,-1.3210459,1.6254792,-1.7189605
0.794,1.7150962,-3.502864,-2.6081767,-1.3414268,1.5839704,-1.7095499
0.796,1.5371903,-3.5897725,-2.5026343,-1.3531929,1.5601768,-1.7004604
0.798,1.3430569,-3.669074,-2.387215,-1.3569764,1.5532603,-1.6916273
0.8,1.1325369,-3.7404885,-2.266245,-1.353847,1.5616524,-1.6829638
0.802,0.9065446,-3.8039293,-2.1440873,-1.3452222,1.583186,-1.6743999
0.804,0.6664167,-3.8591037,-2.0244622,-1.3327572,1.6152606,-1.6658206
0.806,0.41210318,-3.9047925,-1.9125973,-1.3182505,1.655125,-1.6570396
0.808,0.1448797,-3.9417872,-1.8132095,-1.3034968,1.7000347,-1.6479101
0.81,-0.13193202,-3.9729748,-1.7276058,-1.290142,1.7473671,-1.638433
0.812,-0.4157459,-4.000842,-1.6559643,-1.2796547,1.7946985,-1.6286743
0.814,-0.70457166,-4.027827,-1.5980656,-1.2733209,1.8397737,-1.618772
0.816,-0.9950669,-4.056398,-1.5519977,-1.272213,1.8805733,-1.6090598
0.818,-1.2847698,-4.088174,-1.5172385,-1.2771847,1.9152546,-1.6001236
0.82,-1.5680355,-4.12668,-1.4918402,-1.2887101,1.9424953,-1.5924332
0.822,-1.840723,-4.174856,-1.474177,-1.3072176,1.9606812,-1.5867579
0.824,-2.0984013,-4.235668,-1.4639261,-1.3328869,1.9685417,-1.5840977
0.826,-2.3358445,-4.3122435,-1.4610629,-1.3656819,1.965134,-1.5853788
0.828,-2.5488653,-4.407554,-1.4643687,-1.4053962,1.9497749,-1.5914378
0.83,-2.7339416,-4.524644,-1.4728615,-1.4515414,1.9223187,-1.6028749
0.832,-2.8889742,-4.6659207,-1.4846141,-1.5034217,1.883108,-1.6199791
0.834,-3.0091152,-4.834553,-1.497006,-1.5601413,1.8329145,-1.6426836
0.836,-3.0919251,-5.0341578,-1.5079079,-1.6205833,1.7729725,-1.6706711
0.838,-3.135727,-5.2677393,-1.5125742,-1.683552,1.70488,-1.703496
0.84,-3.1363645,-5.5383005,-1.504872,-1.7476939,1.6304504,-1.7403964
0.842,-3.0958629,-5.8463283,-1.4865093,-1.8115311,1.5516224,-1.7804005
0.844,-3.0148582,-6.192403,-1.4682674,-1.8735275,1.470459,-1.8224508
0.846,-2.8865216,-6.579433,-1.4580954,-1.9321078,1.3890029,-1.8654962
0.848,-2.7130713,-6.9997535,-1.4619035,-1.9857851,1.30914,-1.9086989
0.85,-2.5039854,-7.4427347,-1.4723563,-2.033298,1.232482,-1.9515193
0.852,-2.268311,-7.8992796,-1.4795141,-2.0736856,1.1601392,-1.9937111
0.854,-2.0130157,-8.361192,-1.4806919,-2.1064157,1.0927204,-2.0352433
0.856,-1.7384088,-8.823238,-1.4782839,-2.1314344,1.0302196,-2.0762079
0.858,-1.4432304,-9.2816725,-1.4747736,-2.1492753,0.9719012,-2.1167119
0.86,-1.1284175,-9.732367,-1.4696217,-2.1610796,0.91635895,-2.1567519
0.862,-0.799489,-10.168368,-1.4676049,-2.1684234,0.86177015,-2.1960936
0.864,-0.4632566,-10.581686,-1.4760654,-2.1730886,0.8063547,-2.2341557
0.866,-0.12426615,-10.965131,-1.4970403,-2.1769397,0.748078,-2.270154
0.868,0.21198654,-11.311643,-1.5297203,-2.1819408,0.68484724,-2.3029583
0.87,0.5383096,-11.614875,-1.5752065,-2.1897597,0.6151248,-2.3310714
0.872,0.8474374,-11.868865,-1.6353254,-2.201372,0.5378592,-2.3533568
0.874,1.1327548,-12.067321,-1.7101493,-2.217501,0.45182928,-2.368871
0.876,1.387938,-12.202891,-1.7979794,-2.2390294,0.35513833,-2.3759427
0.878,1.6057625,-12.26739,-1.8969088,-2.2668114,0.24518502,-2.3724916
0.88,1.7783666,-12.253299,-2.0042295,-2.3009276,0.11929333,-2.35671
0.882,1.8974514,-12.154446,-2.1163094,-2.3403869,-0.023913592,-2.3268156
0.884,1.9546766,-11.965861,-2.2302673,-2.3838615,-0.1848498,-2.2812045
0.886,1.9429431,-11.684738,-2.344274,-2.4300756,-0.36310554,-2.218082
0.888,1.8556311,-11.31134,-2.4564755,-2.4777665,-0.5575122,-2.1352391
0.89,1.6871586,-10.849313,-2.5658197,-2.5255253,-0.76595885,-2.0304651
0.892,1.4335625,-10.305276,-2.6708708,-2.571423,-0.98453563,-1.9022892
0.894,1.0927203,-9.688304,-2.7709937,-2.6136112,-1.2079499,-1.7510064
0.896,0.6659231,-9.010792,-2.864765,-2.6508427,-1.4299079,-1.5790248
0.898,0.15559673,-8.286237,-2.9515853,-2.6823359,-1.6428539,-1.3912833
0.9,-0.43131614,-7.530095,-3.0319242,-2.7074218,-1.8382195,-1.195554
0.902,-1.0854951,-6.7595453,-3.1048431,-2.7253418,-2.0070844,-1.0018243
0.904,-1.7962149,-5.9919634,-3.1710343,-2.7352662,-2.140869,-0.8211613
0.906,-2.5507376,-5.2449055,-3.2312667,-2.7362676,-2.232236,-0.6646683
0.908,-3.3354805,-4.535006,-3.2872236,-2.7274513,-2.2762976,-0.54237515
0.91,-4.135187,-3.878648,-3.3401742,-2.708235,-2.2714133,-0.46193516
0.912,-4.934232,-3.290977,-3.390328,-2.678573,-2.219819,-0.4276542
0.914,-5.7183757,-2.7845407,-3.4377036,-2.6392183,-2.1277783,-0.44003946
0.916,-6.4699717,-2.3706088,-3.4838262,-2.5918722,-2.0051913,-0.4959927
0.918,-7.174049,-2.0542827,-3.5289626,-2.5391488,-1.864574,-0.5893514
0.92,-7.82003,-1.8358601,-3.57415,-2.4841409,-1.7189602,-0.7116453
0.922,-8.398634,-1.7147418,-3.622215,-2.4299722,-1.5805142,-0.85333467
0.924,-8.901406,-1.6876576,-3.674969,-2.3796024,-1.4595498,-1.0048814
0.926,-9.322649,-1.7485447,-3.7323332,-2.3353503,-1.3629386,-1.1572559
0.928,-9.658709,-1.8896058,-3.7922416,-2.2980185,-1.2932029,-1.3032475
0.93,-9.908643,-2.1002629,-3.8579895,-2.266531,-1.2486347,-1.4385453
0.932,-10.0724125,-2.3696423,-3.9323487,-2.2385783,-1.2243991,-1.5610297
0.934,-10.154012,-2.686656,-4.012408,-2.2113461,-1.214155,-1.6701276
0.936,-10.161406,-3.039952,-4.0928893,-2.1817155,-1.2115473,-1.767007
0.938,-10.104131,-3.4180353,-4.1701508,-2.1459346,-1.2100465,-1.8540832
0.94,-9.985339,-3.812461,-4.2481203,-2.1001153,-1.2032326,-1.934778
0.942,-9.809585,-4.2151837,-4.3356185,-2.0410955,-1.1853156,-2.012999
0.944,-9.587398,-4.6179686,-4.4370904,-1.9669577,-1.151704,-2.092222
0.946,-9.327141,-5.0132957,-4.554282,-1.8772955,-1.09961,-2.1746635
0.948,-9.03635,-5.3958507,-4.6915064,-1.7725127,-1.0273153,-2.261103
0.95,-8.72508,-5.761119,-4.8539195,-1.6533656,-0.9337576,-2.3511636
0.952,-8.39951,-6.106011,-5.039775,-1.5210743,-0.81873465,-2.4432554
0.954,-8.066866,-6.4278164,-5.2424574,-1.3773324,-0.6826788,-2.5347471
0.956,-7.7384934,-6.7254143,-5.459889,-1.223896,-0.5262946,-2.6225984
0.958,-7.4178886,-7.0029135,-5.6963973,-1.0621834,-0.35053256,-2.7039647
0.96,-7.1011286,-7.2638865,-5.9649205,-0.8931396,-0.15656406,-2.7762856
0.962,-6.788581,-7.5064807,-6.276851,-0.7171734,0.054100722,-2.8375232
0.964,-6.4840207,-7.727101,-6.6300178,-0.5342464,0.27953076,-2.8864079
0.966,-6.19763,-7.9191647,-7.015209,-0.3440715,0.5175642,-2.9223764
0.968,-5.9367657,-8.075632,-7.42436,-0.14653903,0.7655664,-2.9454963
0.97,-5.7030516,-8.191054,-7.852985,0.058119863,1.020443,-2.9562762
0.972,-5.493687,-8.262848,-8.291391,0.2695066,1.2784884,-2.955971
0.974,-5.305607,-8.289258,-8.728517,0.48689237,1.5350885,-2.9465997
0.976,-5.1391535,-8.26742,-9.159024,0.70901537,1.7852898,-2.9304342
0.978,-4.994136,-8.194599,-9.578794,0.9340286,2.0239637,-2.909785
0.98,-4.868725,-8.0684185,-9.979925,1.1596279,2.2458904,-2.8869345
0.982,-4.7617984,-7.8876925,-10.352336,1.3831276,2.4459426,-2.8639307
0.984,-4.672774,-7.6539316,-10.685827,1.601589,2.619365,-2.8424797
0.986,-4.6008487,-7.3711133,-10.970648,1.811975,2.7619493,-2.8239362
0.988,-4.5426817,-7.0453005,-11.196575,2.0110917,2.8701267,-2.8092413
0.99,-4.4937944,-6.6836157,-11.353625,2.1955886,2.9410477,-2.7989693
0.992,-4.4488325,-6.293907,-11.432062,2.3619587,2.9724622,-2.7935903
0.994,-4.4016914,-5.885112,-11.421636,2.5066814,2.9627013,-2.793599
0.996,-4.3465085,-5.4662704,-11.312408,2.626305,2.91086,-2.7994869
0.998,-4.2775197,-5.0459905,-11.097161,2.7176185,2.816914,-2.8117065
1,-4.188426,-4.6328483,-10.770721,2.7780051,2.681941,-2.8308043
1.002,-4.0735435,-4.235676,-10.33027,2.8056467,2.5081782,-2.8572557
1.004,-3.9278843,-3.8635216,-9.776059,2.799714,2.2990808,-2.8911867
1.006,-3.7472818,-3.5253248,-9.111577,2.7605586,2.0594063,-2.9323301
1.008,-3.528167,-3.2298536,-8.342733,2.689808,1.7953192,-2.9798536
1.01,-3.2677355,-2.9851341,-7.4783034,2.590338,1.5141792,-3.0321984
1.012,-2.9642236,-2.7977877,-6.529621,2.466156,1.2243841,-3.0869024
1.014,-2.6168451,-2.672575,-5.510245,2.3222044,0.93498653,-3.1406133
1.016,-2.2257962,-2.612204,-4.4353256,2.1640723,0.65531886,-3.1890364
1.018,-1.7922008,-2.6173189,-3.3213377,1.997668,0.39439547,-3.2272544
1.02,-1.3191116,-2.6863167,-2.1853483,1.8288451,0.16013402,-3.2503006
1.022,-0.81090355,-2.8155255,-1.0453358,1.6631266,-0.041061103,-3.2535553
1.024,-0.2721696,-3.000078,0.08076745,1.50516,-0.20478433,-3.2330794
1.026,0.28844473,-3.2327163,1.179092,1.3582293,-0.3289253,-3.1856792
1.028,0.86179864,-3.5060372,2.234559,1.2243385,-0.41362914,-3.1093278
1.03,1.4401278,-3.8119292,3.2320607,1.1043903,-0.4616062,-3.0036738
1.032,2.015128,-4.140891,4.1611156,0.99816054,-0.47768018,-2.869949
1.034,2.5767903,-4.4830317,5.0137863,0.9042913,-0.46811652,-2.710629
1.036,3.1142428,-4.82892,5.7822647,0.82055473,-0.4400347,-2.5291882
1.038,3.6179478,-5.1699014,6.4612217,0.74410653,-0.40085822,-2.3297324
1.04,4.077298,-5.4973216,7.0510364,0.67185456,-0.35771453,-2.116569
1.042,4.483393,-5.80358,7.553654,0.60082203,-0.31697518,-1.8938644
1.044,4.829686,-6.082159,7.9681854,0.5283958,-0.28394634,-1.6653117
1.046,5.1106043,-6.3274,8.295675,0.45245495,-0.2625232,-1.4338233
1.048,5.3225155,-6.5360518,8.539866,0.3713274,-0.2552253,-1.2015549
1.05,5.4555416,-6.704292,8.712885,0.28384086,-0.26339608,-0.9700657
1.052,5.5043797,-6.831093,8.826864,0.189312,-0.28725946,-0.7404186
1.054,5.4690886,-6.917183,8.887049,0.08752188,-0.32597566,-0.5132996
1.056,5.3497334,-6.964103,8.897677,-0.021314144,-0.37783352,-0.28918067
1.058,5.1462536,-6.9743166,8.863595,-0.13656099,-0.4404719,-0.06856571
1.06,4.860431,-6.9512568,8.790092,-0.25717232,-0.51103616,0.14786053
1.062,4.496386,-6.8999205,8.682807,-0.38174066,-0.5864035,0.3592735
1.064,4.0564227,-6.824185,8.545781,-0.50860304,-0.66331476,0.5647153
1.066,3.5429945,-6.726721,8.381622,-0.63590586,-0.73855376,0.76298845
1.068,2.958619,-6.610103,8.191114,-0.76175666,-0.80914503,0.9526857
1.07,2.307243,-6.478759,7.9797745,-0.8843045,-0.87249213,1.1323371
1.072,1.5938843,-6.336854,7.754517,-1.001835,-0.9264126,1.300602
1.074,0.82508016,-6.1881905,7.5134625,-1.1128563,-0.9691369,1.4563458
1.076,0.007115841,-6.0354443,7.2547927,-1.2161694,-0.9993411,1.5987396
1.078,-0.8543807,-5.882041,6.9767733,-1.3108618,-1.0161732,1.7272583
1.08,-1.7540095,-5.7305107,6.6776104,-1.3963059,-1.0192468,1.8416836
1.082,-2.6851332,-5.5832424,6.357372,-1.4721094,-1.0086118,1.9421027
1.084,-3.6395888,-5.443367,6.0192404,-1.538148,-0.98474514,2.0288289
1.086,-4.6081033,-5.3147283,5.6663647,-1.5945225,-0.94852805,2.1022744
1.088,-5.57958,-5.20187,5.30038,-1.641519,-0.9011757,2.1627765
1.09,-6.5432606,-5.1089673,4.9212008,-1.6796174,-0.8442795,2.2105412
1.092,-7.4890056,-5.0393324,4.5276384,-1.7093911,-0.7797223,2.2455742
1.094,-8.407556,-4.9946585,4.1198153,-1.7314906,-0.7095926,2.2676752
1.096,-9.289684,-4.9760284,3.699751,-1.7466063,-0.6360961,2.2764072
1.098,-10.126415,-4.984456,3.2710757,-1.7554938,-0.5614656,2.2711263
1.1,-10.908096,-5.021351,2.8369274,-1.7590122,-0.48811424,2.2509995
1.102,-11.625373,-5.087983,2.3984418,-1.7579938,-0.41816455,2.2152202
1.104,-12.268911,-5.185567,1.955758,-1.7532768,-0.353463,2.1630192
1.106,-12.830168,-5.314849,1.5088968,-1.7455777,-0.29574877,2.0935967
1.108,-13.301819,-5.4762936,1.0587864,-1.7354246,-0.2464217,2.0063748
1.11,-13.677878,-5.670287,0.6066052,-1.7231216,-0.2063708,1.9011494
1.112,-13.95311,-5.897131,0.15281653,-1.7086916,-0.17602494,1.7780085
1.114,-14.1231575,-6.1568174,-0.30207384,-1.6917907,-0.15518138,1.6374173
1.116,-14.184173,-6.449164,-0.75839186,-1.6716564,-0.14267617,1.480338
1.118,-14.134729,-6.773345,-1.2169095,-1.6470168,-0.13656285,1.3082771
1.12,-13.97577,-7.1271925,-1.6785842,-1.6160822,-0.13434827,1.123312
1.122,-13.710567,-7.507451,-2.1448417,-1.5766219,-0.13323739,0.9280867
1.124,-13.343666,-7.9097157,-2.617401,-1.5262053,-0.13043654,0.72568756
1.126,-12.882015,-8.328608,-3.0971584,-1.4624634,-0.12353405,0.5194136
1.128,-12.334689,-8.757556,-3.5844035,-1.3833449,-0.11083758,0.31266454
1.13,-11.712563,-9.188824,-4.079543,-1.2872714,-0.09152585,0.108809695
1.132,-11.028225,-9.613485,-4.5822544,-1.1732785,-0.065767065,-0.08888001
1.134,-10.294112,-10.023023,-5.090141,-1.0411129,-0.034648277,-0.27732208
1.136,-9.523172,-10.410089,-5.5990696,-0.89126754,-5.3614378e-05,-0.45362836
1.138,-8.728867,-10.767927,-6.103291,-0.7249871,0.03568704,-0.61516917
1.14,-7.92632,-11.088613,-6.5969243,-0.54423344,0.070136756,-0.75962806
1.142,-7.1304407,-11.363819,-7.074662,-0.35156143,0.10096543,-0.8849667
1.144,-6.3545046,-11.586582,-7.5324154,-0.1498912,0.1262927,-0.98956734
1.146,-5.6100984,-11.7520275,-7.9639077,0.05754323,0.14461039,-1.0723475
1.148,-4.9071417,-11.857145,-8.360214,0.267282,0.15472266,-1.1328363
1.15,-4.254267,-11.89977,-8.711692,0.4757384,0.15560709,-1.1711726
1.152,-3.65841,-11.878989,-9.010085,0.6793475,0.14626145,-1.1881772
1.154,-3.1243324,-11.796,-9.247716,0.87463135,0.1256851,-1.1854199
1.156,-2.6542134,-11.654106,-9.417571,1.0582174,0.09250966,-1.1652935
1.158,-2.2487295,-11.458148,-9.512214,1.2269897,0.04532665,-1.1307697
1.16,-1.9066347,-11.214371,-9.526459,1.3781396,-0.017091095,-1.0850986
1.162,-1.6247082,-10.930321,-9.456364,1.5092362,-0.095865935,-1.0318271
1.164,-1.3986645,-10.614481,-9.300415,1.6185097,-0.1916896,-0.9746022
1.166,-1.2231636,-10.276616,-9.059182,1.7050079,-0.3045484,-0.91671276
1.168,-1.0920815,-9.926476,-8.734234,1.768605,-0.4337919,-0.86077076
1.17,-0.99930674,-9.57357,-8.328451,1.8099298,-0.57819813,-0.8086274
1.172,-0.93862456,-9.226801,-7.846948,1.8302604,-0.73580855,-0.76141405
1.174,-0.9034479,-8.894345,-7.2962055,1.831494,-0.9039652,-0.7196978
1.176,-0.88807976,-8.583324,-6.6849875,1.8161273,-1.0795064,-0.68355167
1.178,-0.8875177,-8.299848,-6.0230417,1.787222,-1.2588849,-0.65246975
1.18,-0.8981059,-8.048065,-5.324747,1.7482603,-1.4381754,-0.62535346
1.182,-0.9169306,-7.831341,-4.6047516,1.7029486,-1.6130297,-0.6007425
1.184,-0.94266117,-7.6508055,-3.8711805,1.654988,-1.7788248,-0.5770471
1.186,-0.9729046,-7.507323,-3.134357,1.607864,-1.9307806,-0.5526536
1.188,-1.0062722,-7.4000454,-2.4051402,1.5647569,-2.064078,-0.52599686
1.19,-1.0420337,-7.3273897,-1.6937321,1.5284344,-2.1741621,-0.4957347
1.192,-1.0804527,-7.2866273,-1.0121186,1.5012004,-2.257111,-0.46081692
1.194,-1.1225059,-7.2733507,-0.3738308,1.4847928,-2.3099706,-0.4205968
1.196,-1.1696196,-7.282562,0.21011806,1.4802793,-2.331007,-0.37504968
1.198,-1.2243035,-7.3087673,0.73255396,1.4879954,-2.3198533,-0.32475132
1.2,-1.2878668,-7.346702,1.1889637,1.5077108,-2.277301,-0.2708358
1.202,-1.360414,-7.3921075,1.5762662,1.5386814,-2.2051964,-0.21494964
1.204,-1.4418517,-7.44206,1.8907547,1.5797004,-2.1062572,-0.15910605
1.206,-1.5322137,-7.4936547,2.1287453,1.6291156,-1.9838691,-0.10544801
1.208,-1.6309676,-7.5437727,2.2882204,1.6849064,-1.841935,-0.055972368
1.21,-1.7383132,-7.589303,2.3708792,1.7447147,-1.6847115,-0.0122971535
1.212,-1.8543481,-7.627878,2.3813202,1.8058887,-1.5167456,0.024414837
1.214,-1.9785708,-7.657991,2.3257494,1.8655821,-1.3428233,0.053518087
1.216,-2.1090004,-7.6796346,2.2109787,1.9208227,-1.1679434,0.07495028
1.218,-2.2421212,-7.6926875,2.0442834,1.9685073,-0.99737567,0.089215636
1.22,-2.375807,-7.6972065,1.8336736,2.0055707,-0.8364981,0.097121984
1.222,-2.5065374,-7.694272,1.588974,2.0292082,-0.69054,0.09951736
1.224,-2.6320295,-7.684947,1.3207312,2.037101,-0.5643088,0.09725749
1.226,-2.7510438,-7.669194,1.0407342,2.0275714,-0.46196252,0.091325976
1.228,-2.8615363,-7.64703,0.7606013,1.9995664,-0.38679197,0.08281867
1.23,-2.9610443,-7.618941,0.49173617,1.9526526,-0.34091234,0.072675176
1.232,-3.0466497,-7.585539,0.24429297,1.8870069,-0.3252571,0.061490383
1.234,-3.11624,-7.5469265,0.027360559,1.8033586,-0.33957976,0.049721435
1.236,-3.167376,-7.50266,-0.15160537,1.702882,-0.38247514,0.037771255
1.238,-3.1981475,-7.4521294,-0.2850474,1.587069,-0.451412,0.025916107
1.24,-3.2071629,-7.394603,-0.36525774,1.4576415,-0.54282254,0.014199913
1.242,-3.1932852,-7.3292894,-0.38695002,1.3163819,-0.65237534,0.0024810433
1.244,-3.1571126,-7.254126,-0.34785438,1.1649933,-0.7752707,-0.0095137805
1.246,-3.0971537,-7.1669793,-0.24680793,1.0050523,-0.90645677,-0.022175685
1.248,-3.011419,-7.0656824,-0.08394742,0.8380648,-1.0407271,-0.03596306
1.25,-2.8984964,-6.9490643,0.14017642,0.6652568,-1.1734986,-0.05145371
1.252,-2.7563438,-6.8164454,0.42656648,0.48765457,-1.3007802,-0.06929794
1.254,-2.5848181,-6.6665273,0.7771429,0.30598947,-1.4196552,-0.09009737
1.256,-2.3837998,-6.4976816,1.1911442,0.120745055,-1.5283325,-0.11434212
1.258,-2.152963,-6.3078413,1.6640446,-0.06778354,-1.6261237,-0.14248848
1.26,-1.8910122,-6.0956907,2.189707,-0.25949246,-1.7134053,-0.17490995
1.262,-1.5962201,-5.860195,2.7626905,-0.45441157,-1.7912862,-0.21188354
1.264,-1.2677495,-5.599715,3.378924,-0.65263784,-1.8613133,-0.25361112
1.266,-0.90493524,-5.312282,4.0341253,-0.8542186,-1.9249778,-0.3001572
1.268,-0.50786495,-4.995519,4.724392,-1.0591458,-1.9833922,-0.35138178
1.27,-0.076129094,-4.647459,5.4464936,-1.267305,-2.0369315,-0.40678364
1.272,0.3901831,-4.265969,6.196685,-1.4784057,-2.0848918,-0.46543872
1.274,0.89062333,-3.8485422,6.9710007,-1.6920519,-2.1256537,-0.5259593
1.276,1.4246122,-3.392448,7.7663736,-1.9077387,-2.1567736,-0.58657223
1.278,1.9913427,-2.8949342,8.580029,-2.124824,-2.1751063,-0.6452446
1.28,2.5899208,-2.3534427,9.408819,-2.3426356,-2.177223,-0.69984215
1.282,3.2188194,-1.7658,10.249645,-2.5605893,-2.1598601,-0.74834704
1.284,3.875508,-1.1297495,11.099869,-2.7782257,-2.1203556,-0.78899276
1.286,4.556555,-0.44360447,11.957243,-2.995314,-2.056899,-0.8203008
1.288,5.2583246,0.29487228,12.819327,-3.2118459,-1.9687669,-0.8413019
1.29,5.9779787,1.0870597,13.683848,-3.428025,-1.8564143,-0.8515364
1.292,6.708536,1.9331427,14.549762,-3.644307,-1.7214167,-0.851007
1.294,7.441264,2.8332374,15.412323,-3.8613584,-1.5662051,-0.84017456
1.296,8.173088,3.7876549,16.269405,-4.079979,-1.3937579,-0.8199609
1.298,8.896927,4.797644,17.118345,-4.3009434,-1.2071708,-0.79167056
1.3,9.606859,5.8606954,17.95602,-4.5249248,-1.0093881,-0.7568292
1.302,10.2968025,6.9730396,18.780083,-4.752443,-0.80307484,-0.71709377
1.304,10.960275,8.130493,19.587677,-4.983613,-0.59008074,-0.67413944
1.306,11.590621,9.329905,20.374758,-5.218192,-0.37182152,-0.6296768
1.308,12.181585,10.567419,21.136517,-5.455474,-0.1490198,-0.58548695
1.31,12.727191,11.838133,21.867785,-5.694301,0.0780455,-0.543362
1.312,13.2219,13.136658,22.563032,-5.9331803,0.3093546,-0.5049771
1.314,13.661345,14.457166,23.217115,-6.1703167,0.5450258,-0.4719471
1.316,14.042154,15.792625,23.825596,-6.4037857,0.7851194,-0.4458303
1.318,14.361502,17.135868,24.38321,-6.6317196,1.0295388,-0.4280704
1.32,14.617615,18.479946,24.884047,-6.85247,1.2778859,-0.4199183
1.322,14.809732,19.81856,25.32244,-7.064497,1.5295197,-0.422762
1.324,14.937471,21.1457,25.69293,-7.2665896,1.7835068,-0.43751857
1.326,15.000723,22.455387,25.990294,-7.458134,2.0385656,-0.4643463
1.328,14.999796,23.741133,26.209715,-7.6389995,2.293282,-0.5033841
1.33,14.937608,24.997297,26.34743,-7.8094463,2.5459776,-0.55459315
1.332,14.816219,26.21918,26.400469,-7.9700956,2.7948985,-0.61756796
1.334,14.639103,27.402294,26.367126,-8.121894,3.0383174,-0.6915385
1.336,14.410993,28.54143,26.246979,-8.26593,3.2746997,-0.7754077
1.338,14.136516,29.632332,26.041378,-8.403407,3.5027523,-0.8680099
1.34,13.820557,30.671227,25.753376,-8.5356045,3.7214973,-0.96821225
1.342,13.468048,31.654829,25.388195,-8.66379,3.9304683,-1.0748569
1.344,13.084121,32.580185,24.951801,-8.789168,4.129746,-1.1867695
1.346,12.673542,33.444927,24.450901,-8.912729,4.3199224,-1.3028126
1.348,12.241396,34.247612,23.891747,-9.035224,4.5019736,-1.4219097
1.35,11.792951,34.98742,23.28106,-9.157076,4.6771564,-1.5431697
1.352,11.332958,35.66363,22.62711,-9.278408,4.846787,-1.6658938
1.354,10.866088,36.276146,21.93887,-9.399087,5.0120773,-1.789661
1.356,10.395085,36.82618,21.224594,-9.518696,5.17401,-1.9142623
1.358,9.922927,37.314648,20.492847,-9.636595,5.333216,-2.039605
1.36,9.453427,37.742195,19.752068,-9.751951,5.4898744,-2.165701
1.362,8.989393,38.109814,19.008587,-9.863859,5.643596,-2.292611
1.364,8.533837,38.419018,18.26772,-9.971344,5.793549,-2.4204082
1.366,8.088519,38.672283,17.535,-10.073442,5.9385314,-2.5491867
1.368,7.6545196,38.87234,16.81643,-10.16927,6.0770574,-2.6790092
1.37,7.232817,39.021286,16.117569,-10.258042,6.207529,-2.8098834
1.372,6.8233514,39.12156,15.442795,-10.339092,6.328352,-2.9417331
1.374,6.4268503,39.175518,14.794904,-10.411891,6.438131,-3.0743287
1.376,6.0435576,39.18602,14.175171,-10.476229,6.5358067,-3.2070518
1.378,5.673699,39.155746,13.58375,-10.531959,6.620691,-3.3394833
1.38,5.3169775,39.087772,13.020729,-10.578926,6.692533,-3.4712412
1.382,4.9729996,38.985565,12.486264,-10.617111,6.751585,-3.601275
1.384,4.6411047,38.852386,11.979734,-10.6466055,6.798622,-3.728353
1.386,4.320835,38.691406,11.499073,-10.667587,6.8347125,-3.8514626
1.388,4.0116444,38.50568,11.041575,-10.6800995,6.861309,-3.9698725
1.39,3.7128887,38.2986,10.603935,-10.684147,6.880189,-4.0830784
1.392,3.4239388,38.073696,10.182682,-10.679679,6.893267,-4.190674
1.394,3.1453342,37.83413,9.774534,-10.666608,6.902555,-4.2925577
1.396,2.8769493,37.584152,9.375738,-10.644898,6.909932,-4.388955
1.398,2.6193352,37.325993,8.981573,-10.6146145,6.9170885,-4.4803944
1.4,2.3710337,37.063633,8.588702,-10.575921,6.925512,-4.567606
1.402,2.1361046,36.80047,8.191082,-10.5291195,6.936404,-4.6514807
1.404,1.9168224,36.539684,7.7861557,-10.474654,6.9505844,-4.732936
1.406,1.7107239,36.282894,7.368599,-10.4130745,6.9686317,-4.8129053
1.408,1.519433,36.030495,6.9341173,-10.344976,6.990824,-4.892308
1.41,1.3431845,35.785347,6.4783745,-10.271002,7.017297,-4.9720006
1.412,1.1827307,35.549843,5.996537,-10.191766,7.0481358,-5.052784
1.414,1.0387096,35.325203,5.4845467,-10.107845,7.083442,-5.135376
1.416,0.91166496,35.11103,4.940592,-10.019725,7.123437,-5.22035
1.418,0.8019943,34.90681,4.3633375,-9.92778,7.1685114,-5.3080873
1.42,0.7096386,34.711998,3.7517138,-9.832245,7.219239,-5.39875
1.422,0.6340666,34.526005,3.1045752,-9.7332535,7.2763815,-5.492331
1.424,0.5744219,34.348053,2.4211693,-9.630897,7.3407135,-5.5886292
1.426,0.5294962,34.177704,1.70189,-9.525192,7.413021,-5.687381
1.428,0.49752045,34.011696,0.9515753,-9.416119,7.49396,-5.7882986
1.43,0.47795773,33.84983,0.16811848,-9.303577,7.5839787,-5.891025
1.432,0.46888638,33.689663,-0.6436672,-9.187498,7.683239,-5.995176
1.434,0.46915913,33.52888,-1.4797258,-9.067867,7.7914605,-6.100402
1.436,0.47719193,33.366226,-2.3376484,-8.944718,7.9079895,-6.2063804
1.438,0.49170685,33.200287,-3.2134008,-8.818138,8.031817,-6.3128266
1.44,0.5113721,33.029316,-4.102351,-8.688263,8.16158,-6.419407
1.442,0.5348315,32.852398,-5.0001287,-8.5553,8.295605,-6.525731
1.444,0.56129503,32.66806,-5.9027495,-8.419473,8.431945,-6.6313286
1.446,0.58988047,32.475063,-6.8062954,-8.280969,8.568521,-6.735711
1.448,0.62030125,32.272198,-7.7070208,-8.1398535,8.703124,-6.838401
1.45,0.6524904,32.058598,-8.60173,-7.9960537,8.833455,-6.938961
1.452,0.6865945,31.833534,-9.487319,-7.849433,8.957147,-7.037016
1.454,0.7233331,31.59625,-10.360628,-7.6998615,9.07174,-7.13237
1.456,0.76354927,31.346035,-11.219182,-7.5473557,9.174362,-7.225178
1.458,0.8081889,31.082428,-12.06104,-7.3916264,9.263002,-7.315278
1.46,0.85820365,30.804785,-12.884459,-7.2325106,9.335372,-7.4026937
1.462,0.9143963,30.512964,-13.6877365,-7.0701885,9.388894,-7.4876924
1.464,0.9780302,30.206333,-14.469701,-6.904914,9.421605,-7.5702357
1.466,1.0496233,29.884918,-15.229429,-6.737116,9.43182,-7.6501727
1.468,1.1299992,29.548582,-15.966904,-6.567356,9.418084,-7.727286
1.47,1.2200494,29.19763,-16.682089,-6.3962564,9.379563,-7.801128
1.472,1.3200369,28.83235,-17.374954,-6.2244406,9.31596,-7.871091
1.474,1.4301939,28.452929,-18.045942,-6.0524893,9.227584,-7.9364634
1.476,1.5509009,28.059664,-18.695175,-5.8808794,9.115226,-7.9963603
1.478,1.6821995,27.652885,-19.323109,-5.709925,8.980242,-8.049867
1.48,1.8233547,27.233406,-19.930317,-5.53985,8.824279,-8.09604
1.482,1.9741087,26.802109,-20.517563,-5.370805,8.649214,-8.134002
1.484,2.1334648,26.359894,-21.085749,-5.202906,8.457022,-8.163075
1.486,2.3002386,25.90738,-21.635345,-5.036195,8.249558,-8.18274
1.488,2.47394,25.445488,-22.166252,-4.8706813,8.02858,-8.192623
1.49,2.6537933,24.974972,-22.678719,-4.706382,7.7954316,-8.192557
1.492,2.8390942,24.49624,-23.173231,-4.543332,7.5511947,-8.18252
1.494,3.0293217,24.010202,-23.650225,-4.381589,7.296605,-8.16259
1.496,3.2238903,23.517757,-24.110027,-4.221242,7.032087,-8.132934
1.498,3.4220915,23.019869,-24.552898,-4.062419,6.7577996,-8.093745
1.5,3.623746,22.517397,-24.97805,-3.9052835,6.473682,-8.045178
1.502,3.8279495,22.011385,-25.385235,-3.7500408,6.1795444,-7.9873905
1.504,4.0341063,21.502367,-25.775454,-3.596872,5.875144,-7.920555
1.506,4.2434483,20.991056,-26.148552,-3.445882,5.560305,-7.8448877
1.508,4.45502,20.479136,-26.504362,-3.2970636,5.2349844,-7.760642
1.51,4.669468,19.967216,-26.843891,-3.1502838,4.899545,-7.6680403
1.512,4.886114,19.456797,-27.166855,-3.0056171,4.553801,-7.567817
1.514,5.105384,18.948784,-27.473452,-2.8628676,4.1983438,-7.4605074
1.516,5.327215,18.44477,-27.764326,-2.7216294,3.8342695,-7.3465595
1.518,5.551733,17.946144,-28.039972,-2.581629,3.4622574,-7.226761
1.52,5.778553,17.454659,-28.30076,-2.442635,3.083278,-7.1018305
1.522,6.0072746,16.972172,-28.547573,-2.3044956,2.6985164,-6.972375
1.524,6.237258,16.500753,-28.781366,-2.167179,2.3090792,-6.8390627
1.526,6.4679384,16.042263,-29.003622,-2.0307586,1.9160495,-6.702554
1.528,6.698289,15.598488,-29.215992,-1.8954116,1.5205117,-6.563473
1.53,6.927537,15.17136,-29.41978,-1.76138,1.1235201,-6.4224534
1.532,7.155019,14.762625,-29.615894,-1.6289368,0.7261378,-6.2801642
1.534,7.3799553,14.373597,-29.80505,-1.4984056,0.32938263,-6.137201
1.536,7.601268,14.005156,-29.988752,-1.3700469,-0.06572811,-5.9942703
1.538,7.818096,13.659894,-30.17065,-1.2440696,-0.45821077,-5.8521247
1.54,8.0282,13.336833,-30.346539,-1.1206428,-0.84708434,-5.7114472
1.542,8.230774,13.037089,-30.518684,-0.99981195,-1.2313268,-5.5729485
1.544,8.42378,12.761552,-30.687014,-0.88157547,-1.6100045,-5.437295
1.546,8.605672,12.510059,-30.849194,-0.7659029,-1.9822917,-5.3051467
1.548,8.774452,12.282485,-31.004583,-0.6527288,-2.347444,-5.1771383
1.55,8.928555,12.078561,-31.152058,-0.54198647,-2.7048154,-5.053837
1.552,9.066401,11.897345,-31.289486,-0.43363267,-3.0539365,-4.9357333
1.554,9.186287,11.73849,-31.414036,-0.32762387,-3.3944867,-4.8232646
1.556,9.286725,11.601484,-31.522938,-0.22392255,-3.7262816,-4.716794
1.558,9.36641,11.485709,-31.613531,-0.12247151,-4.049243,-4.6166267
1.56,9.424453,11.390391,-31.682957,-0.023168743,-4.3634157,-4.5230236
1.562,9.460149,11.314781,-31.729029,0.0741235,-4.6688833,-4.436192
1.564,9.472943,11.258231,-31.749338,0.16956699,-4.9657445,-4.3563056
1.566,9.462729,11.22016,-31.7416,0.2633077,-5.2540665,-4.2835093
1.568,9.429789,11.199858,-31.7036,0.35545123,-5.533886,-4.2179046
1.57,9.374835,11.196882,-31.63379,0.44602644,-5.8051586,-4.1595635
1.572,9.299178,11.210777,-31.531189,0.5349672,-6.0677366,-4.108544
1.574,9.204086,11.241165,-31.394863,0.62209284,-6.321433,-4.064889
1.576,9.091544,11.287095,-31.224342,0.70710015,-6.565981,-4.0286455
1.578,8.963185,11.348112,-31.01898,0.78960097,-6.801048,-3.9998665
1.58,8.821054,11.423267,-30.778637,0.86918247,-7.0262694,-3.978612
1.582,8.667065,11.511926,-30.50362,0.9454633,-7.241232,-3.9649363
1.584,8.503241,11.613302,-30.194628,1.0181099,-7.445545,-3.9588962
1.586,8.331494,11.726257,-29.853,1.0868841,-7.6388597,-3.9605582
1.588,8.153364,11.849371,-29.48014,1.151687,-7.820792,-3.970067
1.59,7.9703407,11.981199,-29.077145,1.2124736,-7.9909906,-3.9875104
1.592,7.783554,12.120003,-28.645329,1.2693129,-8.149041,-4.0129914
1.594,7.5936623,12.264002,-28.186104,1.3223293,-8.294551,-4.04665
1.596,7.401182,12.411341,-27.70103,1.37166,-8.427127,-4.088529
1.598,7.206051,12.559683,-27.192062,1.4174728,-8.546337,-4.138619
1.6,7.0079393,12.706327,-26.660954,1.4599608,-8.651756,-4.196807
1.602,6.806326,12.848827,-26.108776,1.4992801,-8.74293,-4.2628956
1.604,6.600256,12.984777,-25.537327,1.5355582,-8.819405,-4.3366094
1.606,6.389118,13.111622,-24.948496,1.5688832,-8.880727,-4.4175935
1.608,6.172226,13.227185,-24.343832,1.5993099,-8.92641,-4.5053725
1.61,5.948479,13.329123,-23.72496,1.6268264,-8.956019,-4.599386
1.612,5.7177277,13.415296,-23.093304,1.6513593,-8.969158,-4.6990166
1.614,5.4790764,13.484001,-22.450298,1.6728069,-8.965352,-4.803642
1.616,5.2316566,13.533086,-21.798729,1.6910435,-8.9442005,-4.912683
1.618,4.975932,13.561485,-21.140785,1.7059721,-8.905222,-5.025584
1.62,4.712299,13.568386,-20.479198,1.7174929,-8.847878,-5.1417913
1.622,4.4414062,13.5532255,-19.816248,1.7255155,-8.771611,-5.260848
1.624,4.1651344,13.515982,-19.154537,1.7299691,-8.675827,-5.382402
1.626,3.8852115,13.45672,-18.496788,1.7307856,-8.559927,-5.5062137
1.628,3.6038156,13.376018,-17.845562,1.7279282,-8.4233055,-5.6321874
1.63,3.3238788,13.2747135,-17.204039,1.7213612,-8.265377,-5.7603154
1.632,3.0483499,13.153936,-16.575022,1.711046,-8.0856285,-5.890652
1.634,2.7806082,13.015308,-15.960927,1.696914,-7.8836465,-6.0233345
1.636,2.5243106,12.860862,-15.364057,1.6789055,-7.6591325,-6.1586065
1.638,2.283379,12.692968,-14.786656,1.6570052,-7.4119563,-6.2967916
1.64,2.061661,12.514128,-14.230918,1.631255,-7.142108,-6.438234
1.642,1.8630695,12.327169,-13.698988,1.6017334,-6.8497405,-6.583299
1.644,1.6916533,12.135383,-13.192547,1.568567,-6.53518,-6.7323575
1.646,1.5515265,11.942231,-12.712797,1.5319129,-6.198916,-6.8858027
1.648,1.4466152,11.751538,-12.2604885,1.491998,-5.8415504,-7.0439625
1.65,1.3811026,11.567285,-11.8364315,1.4491005,-5.4637866,-7.207085
1.652,1.3592372,11.393477,-11.441315,1.4035501,-5.0664067,-7.3752623
1.654,1.3854377,11.23414,-11.07536,1.3557181,-4.650297,-7.5484605
1.656,1.4637625,11.093381,-10.738649,1.3060107,-4.2164555,-7.7265034
1.658,1.5981787,10.975512,-10.430711,1.2548496,-3.7659523,-7.9090652
1.66,1.7926997,10.8848,-10.150924,1.2026701,-3.299931,-8.095691
1.662,2.051084,10.825479,-9.898836,1.1498847,-2.819645,-8.285866
1.664,2.3765697,10.801101,-9.674816,1.0968881,-2.3264134,-8.479044
1.666,2.7718167,10.816234,-9.478146,1.0440431,-1.821578,-8.674645
1.668,3.2405012,10.874647,-9.307836,0.991661,-1.3065622,-8.872096
1.67,3.7852495,10.979842,-9.164062,0.94001174,-0.78272533,-9.070878
1.672,4.4083586,11.135228,-9.046453,0.8893227,-0.25139952,-9.270527
1.674,5.1119056,11.3438,-8.954592,0.8398278,0.28620195,-9.470696
1.676,5.8975625,11.608347,-8.888171,0.79175484,0.82903814,-9.671128
1.678,6.7661796,11.931556,-8.847507,0.74537027,1.3763041,-9.871634
1.68,7.7184353,12.315458,-8.833256,0.70098305,1.9274778,-10.072036
1.682,8.753967,12.761839,-8.846479,0.6589695,2.48228,-10.2722225
1.684,9.872063,13.272241,-8.888539,0.61980724,3.0407012,-10.47217
1.686,11.071084,13.84785,-8.961223,0.5840881,3.6029923,-10.671889
1.688,12.348449,14.48938,-9.065929,0.552514,4.1696196,-10.871373
1.69,13.700437,15.197294,-9.203672,0.5258476,4.74125,-11.070517
1.692,15.122398,15.9714365,-9.375379,0.50488317,5.3187327,-11.269095
1.694,16.60809,16.811369,-9.58151,0.49042717,5.902869,-11.4667015
1.696,18.15038,17.716198,-9.822157,0.48327428,6.4942865,-11.662732
1.698,19.741379,18.684362,-10.097226,0.48417404,7.0935764,-11.856323
1.7,21.372328,19.713648,-10.406294,0.49385792,7.701207,-12.046411
1.702,23.033451,20.801327,-10.748227,0.5129582,8.317358,-12.231714
1.704,24.714697,21.943766,-11.121249,0.5420796,8.941928,-12.410649
1.706,26.406048,23.136608,-11.522663,0.5818091,9.574565,-12.581406
1.708,28.097404,24.374996,-11.9491415,0.6326979,10.214598,-12.741937
1.71,29.779202,25.65305,-12.396642,0.69525623,10.861073,-12.890051
1.712,31.442743,26.963545,-12.861041,0.769979,11.512851,-13.023441
1.714,33.07978,28.29885,-13.337397,0.857324,12.168649,-13.13972
1.716,34.68368,29.65042,-13.820442,0.9576703,12.827106,-13.236375
1.718,36.24803,31.008913,-14.304406,1.071305,13.486915,-13.310903
1.72,37.768066,32.36434,-14.783752,1.1983731,14.1468525,-13.360836
1.722,39.24126,33.705868,-15.252963,1.3389103,14.805854,-13.383855
1.724,40.665752,35.02311,-15.706173,1.4927762,15.462968,-13.377848
1.726,42.04084,36.30551,-16.13724,1.6596752,16.117199,-13.341015
1.728,43.367813,37.54227,-16.540508,1.8390518,16.767427,-13.271881
1.73,44.649853,38.722046,-16.910084,2.0300903,17.412352,-13.16946
1.732,45.890087,39.834835,-17.241583,2.2316542,18.050232,-13.033382
1.734,47.09452,40.87117,-17.528847,2.442225,18.678864,-12.863886
1.736,48.269672,41.82206,-17.770176,2.6598716,19.29556,-12.661829
1.738,49.41984,42.681366,-17.964102,2.8822727,19.897207,-12.428647
1.74,50.552204,43.44275,-18.110302,3.1067605,20.480309,-12.166359
1.742,51.675198,44.10015,-18.207233,3.3303645,21.041187,-11.877377
1.744,52.795975,44.64987,-18.25486,3.5499003,21.576162,-11.564398
1.746,53.922115,45.08962,-18.25558,3.762042,22.08175,-11.230263
1.748,55.061466,45.418602,-18.212727,3.9634128,22.55486,-10.877746
1.75,56.221592,45.637314,-18.13014,4.1508055,22.993053,-10.509455
1.752,57.4096,45.747105,-18.011547,4.321218,23.394337,-10.127685
1.754,58.63215,45.750793,-17.862257,4.471868,23.757236,-9.734406
1.756,59.895702,45.65235,-17.688581,4.600404,24.080997,-9.331209
1.758,61.206173,45.456356,-17.497776,4.704876,24.365417,-8.919466
1.76,62.568943,45.167843,-17.297314,4.783739,24.610767,-8.500194
1.762,63.98931,44.792843,-17.094656,4.8359566,24.817886,-8.074111
1.764,65.47177,44.337605,-16.897005,4.8608694,24.987907,-7.641674
1.766,67.02129,43.808403,-16.710575,4.85811,25.121986,-7.2033367
1.768,68.64187,43.212227,-16.54118,4.8276143,25.221767,-6.759718
1.77,70.33673,42.555965,-16.395512,4.769443,25.288933,-6.311451
1.772,72.11096,41.84665,-16.279062,4.6835966,25.325012,-5.859087
1.774,73.969986,41.09159,-16.19487,4.570019,25.331852,-5.4031076
1.776,75.91794,40.298634,-16.146767,4.428511,25.311646,-4.9441085
1.778,77.958855,39.47641,-16.13742,4.2585726,25.266708,-4.4828925
1.78,80.09743,38.634636,-16.167255,4.0593643,25.199532,-4.020222
1.782,82.33908,37.78346,-16.234854,3.829743,25.112892,-3.5567946
1.784,84.689644,36.935734,-16.338829,3.5683603,25.009901,-3.09309
1.786,87.15098,36.10788,-16.479967,3.273613,24.893873,-2.6293802
1.788,89.72774,35.31701,-16.659142,2.9437504,24.768276,-2.1655746
1.79,92.42107,34.58065,-16.870556,2.576994,24.636688,-1.7011452
1.792,95.2239,33.9202,-17.103785,2.17169,24.502703,-1.2350845
1.794,98.13626,33.355167,-17.3461,1.726407,24.369925,-0.7659793
1.796,101.15523,32.915367,-17.588963,1.2399778,24.241682,-0.29204988
1.798,104.281364,32.62247,-17.82954,0.71173954,24.121239,0.18876839
1.8,107.51356,32.51525,-18.06712,0.14166737,24.011765,0.6785803
1.802,110.85059,32.629833,-18.300299,-0.46969032,23.916096,1.1794825
1.804,114.289185,33.004753,-18.526394,-1.1214256,23.836239,1.6936028
1.806,117.829865,33.682518,-18.731527,-1.8122387,23.773493,2.223125
1.808,121.4786,34.727913,-18.92324,-2.540388,23.728298,2.7702556
1.81,125.209366,36.16582,-19.11888,-3.3037133,23.699972,3.3371754
1.812,128.99321,38.048378,-19.320396,-4.099673,23.68674,3.926148
1.814,132.8294,40.407722,-19.511663,-4.925424,23.685612,4.539251
1.816,136.79974,43.189423,-19.698936,-5.777752,23.692358,5.178098
1.818,140.85158,46.42027,-19.967808,-6.653382,23.701017,5.8435035
1.82,144.93253,50.15717,-20.32061,-7.549652,23.70343,6.535903
1.822,149.03333,54.436363,-20.75122,-8.463881,23.68974,7.255478
1.824,153.16092,59.31108,-21.146671,-9.393004,23.64999,8.002149
1.826,157.32007,64.8077,-21.520668,-10.33489,23.572617,8.775363
1.828,161.51382,70.9144,-21.86686,-11.288396,23.443537,9.575752
1.83,165.73041,77.54109,-22.18111,-12.253679,23.24605,10.405249
1.832,169.97433,84.62243,-22.409946,-13.232391,22.960573,11.267062
1.834,174.27669,92.14594,-22.616852,-14.227645,22.56601,12.16595
1.836,178.65604,100.0251,-22.755661,-15.244766,22.039408,13.110092
1.838,183.13428,108.157,-22.769966,-16.28985,21.356947,14.111425
1.84,187.74635,116.45842,-22.654892,-17.370718,20.494442,15.1821995
1.842,192.51157,124.83967,-22.397514,-18.493666,19.429148,16.332682
1.844,197.3837,133.19649,-21.93937,-19.666042,18.1391,17.578375
1.846,202.34857,141.40645,-21.206078,-20.898094,16.599514,18.952827
1.848,207.41049,149.33499,-20.114212,-22.194376,14.797035,20.482754
1.85,212.51868,156.82198,-18.582352,-23.556952,12.737952,22.175041
1.852,217.69675,163.63913,-16.568073,-25.007444,10.432465,24.039345
1.854,222.92444,169.61592,-13.967838,-26.583305,7.8819,26.062136
1.856,228.20642,174.68997,-10.701134,-28.302608,5.0837975,28.212904
1.858,233.44836,178.81618,-6.7118797,-30.159779,2.0542035,30.456562
1.86,238.57506,181.92278,-1.9420567,-32.149178,-1.1733971,32.750015
1.862,243.4912,183.94476,3.6602,-34.278316,-4.552241,35.01455
1.864,248.09947,184.83838,10.12442,-36.549267,-8.040638,37.150368
1.866,252.27586,184.59947,17.443386,-38.94543,-11.610679,39.061874
1.868,255.88284,183.26724,25.561691,-41.429096,-15.231646,40.64187
1.87,258.80753,180.90543,34.401165,-43.935207,-18.868887,41.774357
1.872,260.94812,177.58727,43.88286,-46.36571,-22.493906,42.34238
1.874,262.18494,173.4089,53.91603,-48.592133,-26.08864,42.236065
1.876,262.4152,168.44958,64.38281,-50.45527,-29.630516,41.3614
1.878,261.56104,162.82126,75.10027,-51.775948,-33.077003,39.652943
1.88,259.57242,156.66092,85.858025,-52.377056,-36.35898,37.083397
1.882,256.42508,150.10997,96.436104,-52.10212,-39.38713,33.683228
1.884,252.12868,143.31421,106.60047,-50.83005,-42.05116,29.556782
1.886,246.72641,136.41705,116.11774,-48.497307,-44.22022,24.851456
1.888,240.29707,129.55563,124.7663,-45.11358,-45.762135,19.740421
1.89,232.95007,122.85856,132.34668,-40.761417,-46.55743,14.433832
1.892,224.82045,116.444176,138.68867,-35.591446,-46.51638,9.171581
1.894,216.06392,110.418945,143.65836,-29.806389,-45.59209,4.207491
1.896,206.85269,104.875824,147.16245,-23.642502,-43.786427,-0.2100563
1.898,197.36353,99.89183,149.1471,-17.344034,-41.152855,-3.8668451
1.9,187.77841,95.52075,149.59537,-11.144568,-37.79978,-6.608195
1.902,178.27942,91.791084,148.5335,-5.2588625,-33.89519,-8.329776
1.904,169.02518,88.71369,146.03265,0.14088345,-29.642292,-8.99045
1.906,160.15651,86.27269,142.20998,4.9454727,-25.242214,-8.642021
1.908,151.78758,84.44727,137.21791,9.09091,-20.881075,-7.404128
1.91,144.0132,83.18756,131.23128,12.530565,-16.733562,-5.470791
1.912,136.90225,82.43919,124.439606,15.24877,-12.964975,-3.1018105
1.914,130.49759,82.13768,117.03909,17.281858,-9.708031,-0.5871788
1.916,124.81115,82.20834,109.21755,18.709743,-7.048541,1.8023311
1.918,119.8263,82.55563,101.17653,19.624619,-5.0117707,3.820761
1.92,115.530334,83.12165,93.106186,20.122044,-3.5698147,5.2596407
1.922,111.8827,83.81659,85.15708,20.302528,-2.6657248,5.992444
1.924,108.79721,84.5708,77.44329,20.266575,-2.2141647,5.980532
1.926,106.120026,85.37739,70.077484,20.10985,-2.097618,5.267235
1.928,103.833885,86.1332,63.202457,19.92087,-2.1771889,3.965544
1.93,101.89285,86.72499,56.83523,19.770634,-2.3193235,2.2399926
1.932,100.200516,87.08202,50.970806,19.711178,-2.4111423,0.28206587
1.934,98.65715,87.137245,45.512352,19.778706,-2.3633595,-1.7123635
1.936,97.18123,86.86798,40.49413,19.987915,-2.1100397,-3.572031
1.938,95.70961,86.29059,35.907032,20.329199,-1.6190758,-5.1661863
1.94,94.202866,85.47661,31.732208,20.777592,-0.89732647,-6.3872933
1.942,92.61519,84.44619,27.905737,21.298725,0.020654678,-7.16412
1.944,90.894,83.16874,24.468521,21.849482,1.0786924,-7.4887085
1.946,89.01777,81.68903,21.342909,22.383778,2.2082233,-7.4062767
1.948,86.972824,80.05029,18.465813,22.857204,3.3374844,-6.995791
1.95,84.74462,78.26735,15.836308,23.23053,4.397793,-6.353539
1.952,82.34212,76.36064,13.444309,23.473164,5.333544,-5.576834
1.954,79.823166,74.36344,11.244595,23.566572,6.111711,-4.7515097
1.956,77.19383,72.32209,9.202152,23.504488,6.719434,-3.9460917
1.958,74.44016,70.28429,7.2923584,23.286722,7.153848,-3.20896
1.96,71.58877,68.31127,5.507515,22.919209,7.4203453,-2.5681882
1.962,68.58946,66.5012,3.8756676,22.415714,7.536276,-2.031354
1.964,65.44477,64.86845,2.3653984,21.79483,7.528545,-1.5876894
1.966,62.134842,63.341316,0.9753456,21.077423,7.4262333,-1.2138605
1.968,58.725945,61.87783,-0.28223038,20.28526,7.2573524,-0.8816309
1.97,55.24007,60.494736,-1.413414,19.440325,7.047526,-0.56516457
1.972,51.704166,59.217743,-2.4328613,18.56319,6.8186707,-0.2455368
1.974,48.135086,58.065926,-3.3501072,17.671612,6.5887074,0.08773327
1.976,44.565807,57.039146,-4.164242,16.781013,6.3713107,0.43774605
1.978,41.030186,56.12349,-4.863802,15.904299,6.1761,0.8019967
1.98,37.534664,55.312157,-5.454973,15.051381,6.0087795,1.1748157
1.982,34.084793,54.612617,-5.972828,14.229462,5.872059,1.5495863
1.984,30.713772,54.027832,-6.4574757,13.443696,5.7670403,1.9199429
1.986,27.44504,53.585186,-6.9357777,12.697371,5.6938457,2.2804117
1.988,24.294083,53.280056,-7.3911076,11.991837,5.6516833,2.626361
1.99,21.270304,53.091866,-7.807845,11.326838,5.638977,2.9537377
1.992,18.3823,53.002785,-8.182654,10.701153,5.653633,3.259059
1.994,15.634136,52.993866,-8.511299,10.113381,5.69357,3.5396342
1.996,13.027496,53.04712,-8.794815,9.5621,5.7567706,3.7935998
1.998,10.560984,53.146416,-9.0409565,9.045948,5.841198,4.019639
2,8.228159,53.276886,-9.262848,8.563721,5.944899,4.2167335
2.002,6.0228252,53.425404,-9.476824,8.114344,6.0659933,4.3842354
2.004,3.9394789,53.57823,-9.697566,7.69672,6.2027597,4.5219707
2.006,1.9727888,53.7226,-9.93645,7.309604,6.3535466,4.630274
2.008,0.1181469,53.849205,-10.200676,6.9515142,6.5167108,4.7098274
2.01,-1.6325035,53.9571,-10.494162,6.620678,6.6903286,4.761587
2.012,-3.2881527,54.049263,-10.820227,6.31493,6.8719587,4.7867756
2.014,-4.857199,54.12898,-11.181842,6.031677,7.0585074,4.786976
2.016,-6.3457146,54.197826,-11.582557,5.767848,7.2460713,4.7641215
2.018,-7.761675,54.253494,-12.020824,5.519979,7.4299088,4.7204714
2.02,-9.119846,54.293137,-12.49155,5.2843485,7.6044974,4.658492
2.022,-10.431988,54.31141,-12.989129,5.0570774,7.763685,4.5807304
2.024,-11.710716,54.302563,-13.508621,4.8343296,7.9010634,4.4897976
2.026,-12.967435,54.262543,-14.044308,4.612542,8.010424,4.3883047
2.028,-14.215504,54.19009,-14.590152,4.388604,8.086,4.2788553
2.03,-15.462694,54.083633,-15.139377,4.159903,8.122622,4.164054
2.032,-16.715475,53.94165,-15.684212,3.9244,8.116148,4.0465717
2.034,-17.980515,53.76516,-16.217453,3.680689,8.063545,3.9291904
2.036,-19.262695,53.556087,-16.731081,3.427969,7.9628434,3.8146033
2.038,-20.565279,53.315727,-17.216896,3.1659365,7.812949,3.7054274
2.04,-21.889553,53.045013,-17.666662,2.8946772,7.613606,3.6044114
2.042,-23.234959,52.743877,-18.072283,2.6144814,7.365064,3.5145342
2.044,-24.598171,52.410797,-18.425825,2.3256226,7.0679016,3.4390426
2.046,-25.974255,52.044216,-18.720089,2.0282373,6.7230177,3.381288
2.048,-27.355873,51.642242,-18.947815,1.7222884,6.331458,3.3445237
2.05,-28.732922,51.202457,-19.102503,1.4075828,5.8944325,3.3315845
2.052,-30.093605,50.722626,-19.178478,1.0837379,5.4134297,3.3447359
2.054,-31.424026,50.200603,-19.170818,0.7502065,4.8902235,3.3855805
2.056,-32.708565,49.63442,-19.074173,0.40648288,4.3271947,3.454788
2.058,-33.930164,49.023067,-18.88422,0.052229285,3.7272916,3.5515926
2.06,-35.071167,48.36589,-18.597076,-0.3125702,3.0942867,3.6733274
2.062,-36.113678,47.662754,-18.209385,-0.6871923,2.4333425,3.815608
2.064,-37.040665,46.913933,-17.717937,-1.0702083,1.7506003,3.972353
2.066,-37.83547,46.119747,-17.120333,-1.4594266,1.0531188,4.1359625
2.068,-38.48379,45.281113,-16.414799,-1.851896,0.34877062,4.2976894
2.07,-38.973576,44.399563,-15.601273,-2.2439842,-0.35386565,4.448193
2.072,-39.29548,43.47736,-14.681351,-2.631602,-1.0456883,4.578172
2.074,-39.443134,42.51741,-13.658073,-3.0104568,-1.717221,4.679045
2.076,-39.413532,41.523827,-12.536498,-3.3762624,-2.3588028,4.743474
2.078,-39.20693,40.501644,-11.323965,-3.7249432,-2.960725,4.7657585
2.08,-38.8266,39.456413,-10.030305,-4.052765,-3.5133486,4.7421503
2.082,-38.27902,38.394123,-8.667571,-4.3563323,-4.0072584,4.670882
2.084,-37.573757,37.321056,-7.249689,-4.632489,-4.433359,4.5520644
2.086,-36.7233,36.243767,-5.792181,-4.8782597,-4.7833796,4.387252
2.088,-35.742607,35.168854,-4.3120146,-5.0908146,-5.050251,4.1789894
2.09,-34.647697,34.102592,-2.827139,-5.2674556,-5.2285175,3.9305954
2.092,-33.456413,33.051315,-1.3565264,-5.405641,-5.314662,3.6456869
2.094,-32.18659,32.020798,0.08094883,-5.5031576,-5.307572,3.3277323
2.096,-30.856585,31.016037,1.4672709,-5.5583076,-5.208679,2.9799256
2.098,-29.484123,30.041344,2.7854433,-5.570137,-5.0221014,2.605295
2.1,-28.085901,29.100218,4.019857,-5.538749,-4.7547307,2.206888
2.102,-26.677095,28.195208,5.1564937,-5.4655237,-4.4158473,1.7879667
2.104,-25.271614,27.32846,6.1834683,-5.353228,-4.016707,1.3521272
2.106,-23.88106,26.501385,7.0915337,-5.2058873,-3.5700216,0.90324926
2.108,-22.517067,25.71546,7.874699,-5.028613,-3.0892136,0.4453447
2.11,-21.185028,24.970581,8.529527,-4.827404,-2.587885,-0.017449021
2.112,-19.889393,24.265594,9.055788,-4.6087666,-2.078902,-0.48077476
2.114,-18.634445,23.599762,9.4552555,-4.3793316,-1.5739727,-0.9401828
2.116,-17.422424,22.972073,9.732684,-4.1456995,-1.083389,-1.3916485
2.118,-16.256077,22.383335,9.895515,-3.9138474,-0.6151128,-1.8316574
2.12,-15.135879,21.833977,9.95215,-3.68888,-0.17473936,-2.257227
2.122,-14.061289,21.324179,9.9121895,-3.4749444,0.23442146,-2.665929
2.124,-13.031092,20.853619,9.7866125,-3.2751405,0.6111176,-3.0558176
2.126,-12.044539,20.422289,9.587902,-3.091483,0.95585203,-3.4254057
2.128,-11.0994625,20.030308,9.327579,-2.924982,1.2704664,-3.7735562
2.13,-10.191778,19.677189,9.017288,-2.775794,1.557712,-4.099393
2.132,-9.319769,19.363413,8.668327,-2.6433823,1.8208278,-4.4022565
2.134,-8.479404,19.089708,8.292249,-2.526682,2.0631251,-4.6817675
2.136,-7.6662655,18.855862,7.8992977,-2.424289,2.2877607,-4.937848
2.138,-6.8730254,18.659765,7.4986067,-2.334593,2.497532,-5.170765
2.14,-6.0963182,18.501057,7.097421,-2.255925,2.6947434,-5.3811097
2.142,-5.3325286,18.380194,6.701508,-2.1866417,2.881291,-5.569811
2.144,-4.5767446,18.296518,6.3163586,-2.1252055,3.0586243,-5.738083
2.146,-3.8253295,18.249514,5.9457912,-2.0702612,3.2277641,-5.8873334
2.148,-3.0750911,18.238642,5.592789,-2.020672,3.389382,-6.0190616
2.15,-2.3238575,18.263386,5.2594337,-1.9755648,3.543832,-6.1347504
2.152,-1.5694745,18.322851,4.9477925,-1.9343319,3.691247,-6.2358303
2.154,-0.81006944,18.416473,4.6591697,-1.8966278,3.8315904,-6.323552
2.156,-0.043742895,18.543121,4.394644,-1.8623786,3.9646647,-6.3989844
2.158,0.73094326,18.701847,4.1548023,-1.8317325,4.090155,-6.4630094
2.16,1.5151945,18.891434,3.9403653,-1.8050323,4.207709,-6.5163555
2.162,2.3097808,19.110582,3.7518585,-1.7827531,4.316969,-6.5596323
2.164,3.1148689,19.357782,3.5896506,-1.7653997,4.417578,-6.5934043
2.166,3.930297,19.631147,3.4535027,-1.7534974,4.5092387,-6.618272
2.168,4.756135,19.928745,3.3431375,-1.7475004,4.591802,-6.634911
2.17,5.592108,20.248419,3.2574806,-1.747709,4.665262,-6.644092
2.172,6.43796,20.587944,3.1955404,-1.7542747,4.729796,-6.6466756
2.174,7.2935095,20.944818,3.1557567,-1.7671479,4.78575,-6.643594
2.176,8.157549,21.31673,3.1368623,-1.7860361,4.8336034,-6.635805
2.178,9.029204,21.701307,3.137374,-1.8103775,4.8739743,-6.6242943
2.18,9.907465,22.09568,3.1561816,-1.8393567,4.907607,-6.6100397
2.182,10.790609,22.497118,3.1920273,-1.8719305,4.9353127,-6.5940113
2.184,11.676804,22.902615,3.243481,-1.906822,4.9580083,-6.5772386
2.186,12.563913,23.308846,3.309321,-1.9425675,4.9767413,-6.560816
2.188,13.449983,23.712276,3.3882778,-1.977529,4.99269,-6.5458856
2.19,14.33271,24.109098,3.479097,-2.009951,5.007186,-6.533601
2.192,15.209669,24.495731,3.5807245,-2.0380113,5.0217195,-6.5251074
2.194,16.078428,24.868273,3.6918914,-2.059886,5.037924,-6.521511
2.196,16.936287,25.222971,3.811113,-2.0738575,5.057463,-6.5237274
2.198,17.780413,25.556055,3.937114,-2.0783124,5.0820575,-6.5323973
2.2,18.607988,25.863924,4.0683975,-2.071827,5.113411,-6.5478845
2.202,19.41647,26.142859,4.2038097,-2.0532131,5.1531224,-6.570186
2.204,20.20299,26.38956,4.342118,-2.021542,5.2025914,-6.59889
2.206,20.965189,26.601189,4.482278,-1.97616,5.262965,-6.633148
2.208,21.700583,26.775291,4.623291,-1.9166694,5.33506,-6.6717257
2.21,22.406807,26.90989,4.764468,-1.8429066,5.419405,-6.713097
2.212,23.081701,27.003544,4.904995,-1.7548852,5.5162196,-6.7555504
2.214,23.723408,27.055244,5.044294,-1.6527824,5.6254625,-6.79733
2.216,24.329947,27.064503,5.1817646,-1.5368885,5.7467732,-6.8366904
2.218,24.89944,27.031435,5.316725,-1.4075749,5.8795977,-6.8720565
2.22,25.43034,26.956593,5.4484353,-1.2652469,6.0231977,-6.902061
2.222,25.921284,26.84106,5.575897,-1.1103052,6.1766577,-6.9256506
2.224,26.371073,26.686558,5.6983833,-0.943153,6.338913,-6.942082
2.226,26.779083,26.49514,5.8146567,-0.76420784,6.5087385,-6.9508905
2.228,27.144789,26.26927,5.923584,-0.57391644,6.68472,-6.951827
2.23,27.467937,26.011793,6.0240593,-0.37278676,6.8652124,-6.944822
2.232,27.748373,25.725622,6.114877,-0.16145802,7.0483217,-6.929874
2.234,27.986403,25.413815,6.194964,0.05924487,7.2318754,-6.9070005
2.236,28.182245,25.079437,6.2632303,0.28831124,7.4134035,-6.87622
2.238,28.336359,24.725925,6.3188677,0.524482,7.5901265,-6.8374977
2.24,28.4494,24.35648,6.3610954,0.7662349,7.7589846,-6.7907486
2.242,28.522232,23.974356,6.3894243,1.0118067,7.916765,-6.7358866
2.244,28.555779,23.582512,6.4037156,1.2592678,8.060188,-6.6728587
2.246,28.55137,23.1838,6.4039154,1.5065975,8.186069,-6.601689
2.248,28.510159,22.781073,6.390099,1.7517557,8.291414,-6.5224733
2.25,28.433762,22.376745,6.3629193,1.9927812,8.373593,-6.435497
2.252,28.323837,21.973192,6.323121,2.2277887,8.430407,-6.3411603
2.254,28.182024,21.572369,6.2719,2.4550612,8.460139,-6.2399416
2.256,28.010157,21.176083,6.210471,2.6730614,8.461685,-6.132379
2.258,27.809765,20.786137,6.1404014,2.8804688,8.434494,-6.0190644
2.26,27.583035,20.403671,6.063283,3.076136,8.378576,-5.9006186
2.262,27.331936,20.02989,5.9804697,3.2590818,8.294455,-5.777647
2.264,27.05811,19.665709,5.893589,3.4285073,8.1830225,-5.650753
2.266,26.763577,19.311666,5.8042693,3.5837336,8.045517,-5.520545
2.268,26.45009,18.968052,5.7142773,3.7242289,7.883376,-5.387664
2.27,26.119219,18.635197,5.625203,3.8495831,7.6982727,-5.252791
2.272,25.77279,18.312975,5.5387053,3.959515,7.4919925,-5.116691
2.274,25.41279,18.000769,5.4561706,4.053877,7.2663755,-4.980222
2.276,25.040733,17.698044,5.378793,4.132654,7.023327,-4.8442793
2.278,24.657688,17.404219,5.307485,4.19597,6.764773,-4.7098265
2.28,24.264826,17.118652,5.243283,4.244133,6.4926853,-4.5778747
2.282,23.863369,16.840431,5.186764,4.2776027,6.2090487,-4.4494534
2.284,23.454245,16.56879,5.1384735,4.296989,5.9158835,-4.325587
2.286,23.03861,16.302738,5.0984607,4.3030615,5.615221,-4.207212
2.288,22.617317,16.041292,5.066779,4.2967134,5.309123,-4.0951853
2.29,22.191193,15.783655,5.0433106,4.2789426,4.9996414,-3.9902205
2.292,21.7612,15.528966,5.027713,4.250798,4.688794,-3.8928392
2.294,21.328226,15.276539,5.019781,4.2133923,4.378543,-3.8033977
2.296,20.893164,15.025691,5.0190706,4.1678133,4.070739,-3.7220168
2.298,20.456839,14.775811,5.0250416,4.1151075,3.7670484,-3.648562
2.3,20.019833,14.526752,5.037004,4.056276,3.4689393,-3.5827353
2.302,19.583076,14.278196,5.0542765,3.9922314,3.17762,-3.5240345
2.304,19.14705,14.030397,5.076128,3.9237587,2.8939943,-3.4717917
2.306,18.71277,13.78347,5.101787,3.851523,2.6186514,-3.425198
2.308,18.280863,13.537769,5.130575,3.7760835,2.3518474,-3.3833869
2.31,17.852213,13.293927,5.161866,3.697884,2.0935447,-3.3454714
2.312,17.427567,13.05274,5.1951094,3.6172252,1.8434304,-3.3106227
2.314,17.007914,12.814812,5.229824,3.5343232,1.60099,-3.2781262
2.316,16.594181,12.580988,5.2656326,3.449311,1.3655949,-3.2474184
2.318,16.18739,12.35211,5.3022833,3.3622599,1.136544,-3.2180846
2.32,15.788658,12.128941,5.3394556,3.2731915,0.9131384,-3.1898792
2.322,15.3990135,11.9122925,5.377258,3.1821313,0.69475895,-3.162703
2.324,15.019415,11.70273,5.4157553,3.0891066,0.48087835,-3.1365752
2.326,14.651016,11.500938,5.455104,2.9941595,0.2710718,-3.1115758
2.328,14.295116,11.307337,5.495742,2.8973868,0.065056145,-3.0878007
2.33,13.952675,11.122294,5.538014,2.7989388,-0.1373201,-3.06536
2.332,13.624701,10.946015,5.5824738,2.699044,-0.33609498,-3.0443382
2.334,13.312015,10.778676,5.629607,2.5979972,-0.5312192,-3.0247815
2.336,13.015463,10.620155,5.680129,2.4961393,-0.7225657,-3.0066855
2.338,12.735571,10.470286,5.7346983,2.3938806,-0.90995896,-2.9900386
2.34,12.47266,10.328675,5.793808,2.2916324,-1.0931861,-2.9748445
2.342,12.227385,10.194706,5.8581276,2.1898203,-1.2720103,-2.9610937
2.344,11.9993725,10.068043,5.9279284,2.0888386,-1.4461634,-2.9488065
2.346,11.788837,9.947939,6.003715,1.9890642,-1.6153388,-2.9380517
2.348,11.595667,9.8334875,6.0857244,1.8908342,-1.7792025,-2.928899
2.35,11.419481,9.72393,6.1740766,1.7944679,-1.9373736,-2.9214652
2.352,11.259617,9.618446,6.2688246,1.7002511,-2.0894072,-2.9159162
2.354,11.115633,9.516163,6.369894,1.6084356,-2.2348342,-2.912365
2.356,10.986446,9.416307,6.4771967,1.5192842,-2.3731675,-2.9109445
2.358,10.871477,9.317944,6.5904045,1.4330525,-2.5039005,-2.9117508
2.36,10.769508,9.220249,6.7092166,1.3500054,-2.6265497,-2.914868
2.362,10.67952,9.122535,6.8330827,1.2703716,-2.74067,-2.9203005
2.364,10.600216,9.024029,6.9614916,1.1943765,-2.8459003,-2.9279757
2.366,10.53056,8.9241085,7.0938454,1.1222239,-2.9419515,-2.9377348
2.368,10.469537,8.822091,7.2294064,1.0540807,-3.0286665,-2.9493349
2.37,10.415768,8.717608,7.367398,0.99006814,-3.106024,-2.9624572
2.372,10.368382,8.610183,7.507047,0.9302369,-3.1741025,-2.9767497
2.374,10.326193,8.499355,7.647505,0.8746159,-3.2331078,-2.9918077
2.376,10.288231,8.385021,7.787902,0.82317656,-3.2833247,-3.0072536
2.378,10.253672,8.26703,7.9274626,0.775867,-3.32512,-3.022738
2.38,10.221669,8.145051,8.065361,0.73263246,-3.3588717,-3.0379655
2.382,10.191423,8.019212,8.200776,0.6934018,-3.384953,-3.0527296
2.384,10.162213,7.889684,8.333087,0.6581263,-3.403723,-3.066903
2.386,10.133578,7.756657,8.461648,0.6267683,-3.4155028,-3.0804226
2.388,10.104764,7.6204734,8.586012,0.5992883,-3.4205542,-3.093271
2.39,10.075382,7.481438,8.705583,0.57567567,-3.4191198,-3.1054413
2.392,10.044947,7.3399734,8.819981,0.55589026,-3.4113846,-3.1168854
2.394,10.013091,7.1966143,8.92882,0.5398747,-3.3975244,-3.127527
2.396,9.979412,7.0520935,9.031849,0.52755207,-3.377699,-3.1372347
2.398,9.94364,6.907004,9.128818,0.51880586,-3.3520837,-3.14582
2.4,9.905573,6.762036,9.2195425,0.5134782,-3.320879,-3.1530473
2.402,9.865196,6.617873,9.303967,0.51136595,-3.2843075,-3.1586657
2.404,9.822248,6.475296,9.381908,0.5122383,-3.2426271,-3.1624284
2.406,9.7768955,6.33508,9.453344,0.5158409,-3.1961505,-3.164113
2.408,9.729001,6.197962,9.518209,0.52189183,-3.145213,-3.1635447
2.41,9.678956,6.064582,9.5766115,0.5300951,-3.0901818,-3.1606023
2.412,9.626787,5.935567,9.628521,0.54014313,-3.0314672,-3.155253
2.414,9.572863,5.8114285,9.674061,0.5517151,-2.9694986,-3.1475115
2.416,9.517315,5.6928053,9.713381,0.56449527,-2.904706,-3.1374972
2.418,9.460618,5.580036,9.74661,0.5781736,-2.8375013,-3.125389
2.42,9.403055,5.47342,9.774024,0.5924697,-2.7682831,-3.1114357
2.422,9.345012,5.3732433,9.795718,0.60711443,-2.6974125,-3.0959284
2.424,9.286896,5.2798076,9.812003,0.62189394,-2.6252003,-3.079191
2.426,9.229238,5.19295,9.823011,0.6366399,-2.5519161,-3.0615613
2.428,9.172344,5.1127005,9.829022,0.6512427,-2.4777763,-3.0433683
2.43,9.1166115,5.0389576,9.830348,0.6656258,-2.4029784,-3.024889
2.432,9.062475,4.971378,9.827159,0.67976034,-2.32768,-3.0063446
2.434,9.010264,4.9097624,9.819765,0.6936481,-2.2520525,-2.9879036
2.436,8.96032,4.853635,9.808464,0.7072995,-2.1762824,-2.9696622
2.438,8.912698,4.802536,9.79343,0.720706,-2.1005645,-2.9516375
2.44,8.8676,4.7559958,9.775015,0.733845,-2.0251336,-2.9338164
2.442,8.825167,4.713342,9.753493,0.7466539,-1.9502463,-2.9161565
2.444,8.785333,4.6741257,9.7292,0.7590179,-1.8761559,-2.89861
2.446,8.747915,4.637815,9.702462,0.77079344,-1.80315,-2.8811402
2.448,8.712896,4.603829,9.673586,0.7818161,-1.7315146,-2.8637168
2.45,8.680027,4.571693,9.642988,0.7919047,-1.6615117,-2.8463454
2.452,8.649024,4.540892,9.610995,0.80088395,-1.593386,-2.8290625
2.454,8.619775,4.510909,9.577995,0.8085963,-1.5273422,-2.8119376
2.456,8.591901,4.4812927,9.5444355,0.814946,-1.463537,-2.795063
2.458,8.564976,4.4515533,9.510672,0.81988907,-1.4020661,-2.77855
2.46,8.538853,4.4213605,9.476987,0.82341033,-1.3429611,-2.7625113
2.462,8.513134,4.390352,9.443829,0.825575,-1.2861806,-2.7470624
2.464,8.487464,4.3583574,9.411468,0.8264855,-1.231609,-2.7323005
2.466,8.461723,4.3251657,9.380275,0.82628685,-1.1790444,-2.7182798
2.468,8.43557,4.29068,9.350585,0.82511693,-1.1282306,-2.7050266
2.47,8.408883,4.254928,9.322537,0.82313186,-1.0788738,-2.6925037
2.472,8.381537,4.2180057,9.29646,0.82046425,-1.0306326,-2.6806333
2.474,8.353571,4.1800423,9.272436,0.8172194,-0.9831563,-2.6692984
2.476,8.324928,4.1412044,9.250479,0.81349283,-0.936096,-2.6583633
2.478,8.295454,4.101905,9.230666,0.8093284,-0.88914573,-2.6476734
2.48,8.265319,4.062472,9.21298,0.8047559,-0.84203136,-2.637076
2.482,8.234493,4.0232563,9.197373,0.79976904,-0.79453874,-2.626433
2.484,8.203359,3.9847145,9.183662,0.79435563,-0.74651337,-2.6156366
2.486,8.171732,3.9473333,9.171789,0.7884923,-0.69786996,-2.6046085
2.488,8.1398535,3.9115274,9.161576,0.7821568,-0.64857686,-2.5933073
2.49,8.107751,3.8779585,9.152848,0.7753184,-0.59865403,-2.5817218
2.492,8.075643,3.8469532,9.145441,0.76796544,-0.5481778,-2.5698943
2.494,8.043745,3.8189964,9.139135,0.76009893,-0.49725106,-2.557896
2.496,8.012029,3.794469,9.133855,0.7517283,-0.44601226,-2.5457969
2.498,7.9809227,3.7737057,9.129476,0.74287826,-0.39462394,-2.5337002
2.5,7.9504867,3.7569625,9.125908,0.7335713,-0.34324998,-2.521685
2.502,7.9208727,3.7445865,9.123109,0.7238327,-0.2920316,-2.5098295
2.504,7.892342,3.7367275,9.12102,0.7136788,-0.24110678,-2.4981906
2.506,7.865059,3.7334557,9.119711,0.70313793,-0.19058071,-2.4868116
2.508,7.839291,3.7348695,9.119175,0.6922417,-0.14051974,-2.475715
2.51,7.815211,3.7409134,9.119409,0.68100375,-0.09095679,-2.4649155
2.512,7.7927456,3.7515423,9.120479,0.6694425,-0.041891545,-2.4544213
2.514,7.7724147,3.7665565,9.12256,0.65759414,0.0067303926,-2.444232
2.516,7.7540836,3.7856817,9.125654,0.6454774,0.054976664,-2.4343653
2.518,7.7379794,3.8086739,9.129976,0.63312745,0.10295023,-2.4248364
2.52,7.7239923,3.8352008,9.1356945,0.6205898,0.15077141,-2.415685
2.522,7.712306,3.8649416,9.142859,0.60793084,0.19856313,-2.4069679
2.524,7.702802,3.8974242,9.151631,0.5952143,0.24646515,-2.3987603
2.526,7.6955643,3.9321473,9.162091,0.58253336,0.2945894,-2.3911607
2.528,7.690445,3.9687486,9.174383,0.5700026,0.34306023,-2.3842788
2.53,7.6873965,4.006681,9.188484,0.5577298,0.39197984,-2.378255
2.532,7.6863737,4.045352,9.204588,0.54586214,0.44143963,-2.3732014
2.534,7.6871333,4.0842633,9.222736,0.534533,0.49150366,-2.3692207
2.536,7.6894436,4.123007,9.242878,0.5238906,0.54221904,-2.3664086
2.538,7.693193,4.1610026,9.265081,0.5140629,0.59362817,-2.3648007
2.54,7.698222,4.197858,9.289222,0.50513697,0.6457579,-2.36439
2.542,7.704091,4.2331324,9.31532,0.49718696,0.6986151,-2.365129
2.544,7.710842,4.26636,9.343233,0.4902528,0.75221336,-2.3668938
2.546,7.7181787,4.2972703,9.372923,0.48432922,0.8065661,-2.3695135
2.548,7.7260075,4.325594,9.404267,0.47938898,0.86167556,-2.3727834
2.55,7.7340264,4.351244,9.437024,0.47537804,0.9175608,-2.376475
2.552,7.7421846,4.3740273,9.471116,0.47223848,0.9742338,-2.3803527
2.554,7.750327,4.393768,9.506355,0.4699049,1.0317098,-2.3842013
2.556,7.7583714,4.4104967,9.542521,0.4683323,1.0899752,-2.3878267
2.558,7.76628,4.4242315,9.579417,0.46748024,1.1490288,-2.3910635
2.56,7.7740293,4.435021,9.616901,0.46731585,1.208846,-2.3937788
2.562,7.7814455,4.4430304,9.654624,0.4678021,1.2693967,-2.395882
2.564,7.788644,4.4483004,9.692541,0.46892148,1.3306384,-2.3973014
2.566,7.79555,4.451113,9.730267,0.47064638,1.3925433,-2.3979876
2.568,7.8022757,4.451605,9.76767,0.4729563,1.455051,-2.3979168
2.57,7.8086767,4.449885,9.80461,0.47582313,1.5181249,-2.3970642
2.572,7.8149114,4.4461956,9.840745,0.47920725,1.5817388,-2.395437
2.574,7.820988,4.440625,9.87602,0.48305592,1.6458676,-2.3930216
2.576,7.8267803,4.4333925,9.910184,0.4873275,1.7105092,-2.3898132
2.578,7.8323054,4.424701,9.943064,0.49196213,1.7756634,-2.3858123
2.58,7.8375177,4.4146004,9.974379,0.49690253,1.8413396,-2.3810177
2.582,7.8423457,4.4031897,10.004072,0.50209236,1.9075459,-2.3754332
2.584,7.846726,4.390602,10.031848,0.50748897,1.9743043,-2.36905
2.586,7.8505073,4.3768864,10.05761,0.51303124,2.041621,-2.361892
2.588,7.8537097,4.362034,10.081213,0.5186929,2.1095,-2.3539624
2.59,7.8560615,4.346078,10.102495,0.52443683,2.1779246,-2.3452532
2.592,7.857482,4.329183,10.121285,0.5302379,2.2468505,-2.3357844
2.594,7.857655,4.311282,10.137528,0.5360802,2.3162174,-2.325557
2.596,7.8564653,4.2923784,10.151048,0.541928,2.3859553,-2.3145545
2.598,7.8536367,4.272504,10.161792,0.5477448,2.4559605,-2.3027794
2.6,7.84911,4.251552,10.169609,0.55348593,2.5260968,-2.2902327
2.602,7.84249,4.229593,10.174375,0.5590836,2.5962267,-2.2768874
2.604,7.83347,4.206544,10.176144,0.5644709,2.6661775,-2.262737
2.606,7.821963,4.182368,10.174791,0.5695631,2.7357721,-2.2477639
2.608,7.807506,4.1570764,10.170265,0.57425386,2.8048248,-2.2319536
2.61,7.7900414,4.1305404,10.162522,0.57842374,2.873147,-2.2152722
2.612,7.769335,4.1027083,10.151557,0.58195406,2.9405477,-2.1976843
2.614,7.7451067,4.073756,10.137448,0.5847127,3.0068388,-2.1791532
2.616,7.717263,4.0436044,10.120147,0.58656156,3.0718327,-2.1596134
2.618,7.6856446,4.0123644,10.099743,0.587345,3.1353476,-2.139016
2.62,7.650167,3.9799857,10.0762005,0.58692217,3.1972175,-2.1173136
2.622,7.6108522,3.94665,10.049673,0.58514684,3.257301,-2.0944548
2.624,7.567552,3.9123516,10.020041,0.58186823,3.3154635,-2.0703979
2.626,7.5204144,3.8773475,9.98741,0.5769583,3.3715808,-2.045106
2.628,7.4694386,3.8417063,9.951898,0.5702964,3.4255607,-2.0185828
2.63,7.41466,3.8055253,9.913346,0.56175816,3.4773328,-1.9908291
2.632,7.3561807,3.7690291,9.871953,0.55124366,3.5268211,-1.9618728
2.634,7.294208,3.732424,9.827822,0.5386609,3.573965,-1.9317386
2.636,7.228736,3.6959343,9.780992,0.52393496,3.6187112,-1.9004602
2.638,7.159961,3.6597748,9.731456,0.5069958,3.660997,-1.8680646
2.64,7.0880203,3.6240764,9.679246,0.48778212,3.7007713,-1.8345628
2.642,7.0131226,3.589161,9.624453,0.46622872,3.737989,-1.7999567
2.644,6.9353237,3.555356,9.5670395,0.44228685,3.772605,-1.7642248
2.646,6.854888,3.5229125,9.50722,0.4159088,3.804576,-1.7272964
2.648,6.7719865,3.4921873,9.445009,0.3870268,3.833848,-1.6890999
2.65,6.686767,3.4634848,9.380552,0.35558617,3.860373,-1.6495253
2.652,6.59945,3.437154,9.313931,0.32152164,3.884114,-1.6084387
2.654,6.5101333,3.4135776,9.245235,0.28475857,3.905026,-1.5656886
2.656,6.4189887,3.3929095,9.1746645,0.24521434,3.9230535,-1.5211551
2.658,6.3261905,3.375481,9.102311,0.20280802,3.9381368,-1.474719
2.66,6.231895,3.3615572,9.028436,0.1574539,3.9501984,-1.4262929
2.662,6.136201,3.3513808,8.953158,0.10907471,3.9591644,-1.3758467
2.664,6.039422,3.3452728,8.876698,0.057597995,3.9649487,-1.3234189
2.666,5.9414763,3.3433547,8.799252,0.0029699802,3.9674711,-1.2691073
2.668,5.8423414,3.3458488,8.721048,-0.054855347,3.966638,-1.2130665
2.67,5.742256,3.3529637,8.642133,-0.11590099,3.9623504,-1.1554972
2.672,5.6412673,3.3647656,8.563093,-0.18017566,3.9545188,-1.0966268
2.674,5.5392838,3.3814402,8.483927,-0.24770117,3.943038,-1.0366825
2.676,5.4364424,3.4029727,8.404899,-0.31847477,3.9278111,-0.9758974
2.678,5.332743,3.4294848,8.326371,-0.39249355,3.9087486,-0.91446215
2.68,5.228189,3.4610052,8.248495,-0.4697603,3.8857665,-0.8525404
2.682,5.1228075,3.4973667,8.171568,-0.5502737,3.8587859,-0.7902389
2.684,5.0166173,3.53865,8.095822,-0.6340339,3.827745,-0.7276179
2.686,4.9094687,3.5848827,8.021535,-0.7210459,3.792605,-0.6646911
2.688,4.801514,3.6359072,7.948943,-0.81132233,3.7533557,-0.60143405
2.69,4.6929274,3.6917794,7.8783875,-0.904878,3.7100089,-0.5378176
2.692,4.583567,3.7523403,7.809897,-1.001684,3.6626122,-0.47379923
2.694,4.473733,3.8175704,7.7438316,-1.1017063,3.6112473,-0.4093558
2.696,4.3634133,3.8872879,7.680341,-1.2049011,3.556026,-0.34449595
2.698,4.252664,3.961446,7.619621,-1.3112031,3.4970927,-0.27926308
2.7,4.1417856,4.039857,7.561833,-1.4205115,3.4346259,-0.21374434
2.702,4.0306644,4.1224275,7.5070815,-1.5327036,3.3688378,-0.1480406
2.704,3.9195518,4.2090316,7.4555917,-1.6476667,3.2999601,-0.08229643
2.706,3.8087533,4.29942,7.4074006,-1.7652555,3.2282329,-0.016665518
2.708,3.698258,4.3935423,7.3625917,-1.8853252,3.153919,0.04871571
2.71,3.588202,4.4913325,7.321312,-2.0077224,3.077297,0.1137346
2.712,3.4788983,4.5926366,7.2836146,-2.1322918,2.9986491,0.17830563
2.714,3.3704383,4.6973734,7.2492456,-2.2588701,2.9182634,0.24237978
2.716,3.2628,4.805384,7.2180185,-2.387299,2.8364062,0.30594337
2.718,3.1558986,4.9164715,7.1896324,-2.517423,2.7533581,0.36900902
2.72,3.0495477,5.0307474,7.163877,-2.649095,2.669386,0.431607
2.722,2.9437041,5.148159,7.140411,-2.7821593,2.5847507,0.49379337
2.724,2.8383524,5.2686214,7.1190276,-2.916462,2.499707,0.5556291
2.726,2.733665,5.392391,7.0995426,-3.0518513,2.4144773,0.6171804
2.728,2.6292756,5.519661,7.081398,-3.188177,2.3292654,0.6785155
2.73,2.5249858,5.650455,7.064141,-3.3253083,2.2442458,0.73970664
2.732,2.4207683,5.7846017,7.0470977,-3.463117,2.1595364,0.8008295
2.734,2.3162498,5.922147,7.029847,-3.6014829,2.0752234,0.86198634
2.736,2.2112038,6.063098,7.011758,-3.740307,1.9913461,0.9232688
2.738,2.1054258,6.20753,6.9922214,-3.879483,1.907889,0.9847621
2.74,1.9985694,6.3556805,6.970826,-4.018919,1.8248179,1.0465515
2.742,1.8903828,6.5075564,6.9470115,-4.158505,1.7420347,1.1086962
2.744,1.7810975,6.663285,6.9203706,-4.298147,1.659437,1.171261
2.746,1.6705779,6.8228884,6.8905168,-4.437773,1.5768914,1.2342818
2.748,1.5587977,6.986236,6.856901,-4.5772853,1.4942015,1.2978126
2.75,1.4454615,7.153303,6.819257,-4.716617,1.4111439,1.3619115
2.752,1.330913,7.323865,6.777537,-4.8557525,1.3274363,1.4266613
2.754,1.2155987,7.4978285,6.7318163,-4.9947114,1.2427893,1.4921439
2.756,1.0999191,7.675165,6.682153,-5.1335435,1.1569064,1.5584216
2.758,0.98466194,7.855521,6.628832,-5.2723317,1.0694468,1.6254923
2.76,0.8707111,8.038193,6.572132,-5.411203,0.980016,1.6933167
2.762,0.75913024,8.222655,6.512652,-5.550325,0.88817215,1.7618233
2.764,0.650944,8.408111,6.4512353,-5.689878,0.793476,1.830924
2.766,0.5474992,8.593733,6.388644,-5.8300405,0.6955172,1.9004894
2.768,0.4500245,8.778631,6.326158,-5.970956,0.59397495,1.9703348
2.77,0.36008298,8.961766,6.2647305,-6.1127086,0.4886694,2.0401793
2.772,0.27897835,9.142384,6.2057934,-6.255282,0.37961113,2.1096861
2.774,0.20806265,9.319344,6.150582,-6.398525,0.2670766,2.1784549
2.776,0.14882064,9.491764,6.1004505,-6.5421214,0.15161681,2.2460022
2.778,0.10245395,9.658835,6.0566926,-6.6855702,0.033990383,2.311836
2.78,0.06993532,9.819759,6.0206075,-6.828214,-0.0848397,2.3755803
2.782,0.05217862,9.973939,5.9930897,-6.9692664,-0.20377886,2.4370174
2.784,0.0498178,10.1210375,5.9751773,-7.1078506,-0.32164407,2.496103
2.786,0.063147545,10.260843,5.9676747,-7.243045,-0.43722236,2.5529618
2.788,0.09220934,10.393487,5.9709826,-7.3739533,-0.54931974,2.6078959
2.79,0.13694143,10.519359,5.9854727,-7.4997373,-0.65682375,2.6614017
2.792,0.19690871,10.63909,6.01112,-7.6196556,-0.75871116,2.7140927
2.794,0.27135503,10.753382,6.047622,-7.7331414,-0.8540654,2.7666605
2.796,0.35961986,10.863151,6.0942817,-7.8398,-0.9420881,2.8197865
2.798,0.46031022,10.969521,6.1503224,-7.939392,-1.0221162,2.874086
2.8,0.57182384,11.073732,6.2146235,-8.031838,-1.0935738,2.930034
2.802,0.69274807,11.177074,6.285962,-8.117211,-1.1559994,2.9879146
2.804,0.82116675,11.280957,6.362692,-8.195652,-1.2090626,3.0478206
2.806,0.9552318,11.386805,6.443208,-8.267353,-1.252574,3.1096761
2.808,1.0930909,11.495894,6.5256376,-8.332552,-1.2865288,3.1732755
2.81,1.2326624,11.60945,6.608183,-8.391476,-1.3110988,3.2383263
2.812,1.3719245,11.728636,6.688979,-8.444355,-1.3265767,3.3045194
2.814,1.5088633,11.85434,6.766142,-8.491386,-1.333375,3.371491
2.816,1.6415282,11.987479,6.837949,-8.532755,-1.3320632,3.4388893
2.818,1.7679707,12.128612,6.9027243,-8.568629,-1.3233376,3.506377
2.82,1.8865949,12.277945,6.958847,-8.599215,-1.308033,3.5737014
2.822,1.9957639,12.435765,7.005145,-8.624742,-1.287088,3.6406765
2.824,2.0941095,12.602094,7.040699,-8.645475,-1.2615203,3.7072117
2.826,2.1806037,12.776741,7.0646944,-8.6617565,-1.2324375,3.7732637
2.828,2.2544122,12.959249,7.0766945,-8.673961,-1.2009889,3.8388286
2.83,2.3150687,13.148855,7.0763474,-8.682537,-1.1683488,3.9039347
2.832,2.3620944,13.344649,7.06371,-8.687942,-1.1356332,3.9685903
2.834,2.3950744,13.545474,7.038795,-8.690592,-1.1039131,4.032708
2.836,2.4139335,13.749994,7.002106,-8.690885,-1.0741841,4.096114
2.838,2.419395,13.956825,6.954625,-8.689132,-1.0473309,4.158606
2.84,2.412035,14.164706,6.897407,-8.685564,-1.0240983,4.219933
2.842,2.3925447,14.372226,6.831775,-8.680292,-1.0050663,4.279746
2.844,2.3621886,14.577815,6.7590303,-8.673305,-0.9906074,4.3376293
2.846,2.3220787,14.779703,6.680449,-8.664462,-0.98090684,4.3931036
2.848,2.2736685,14.976109,6.597561,-8.653461,-0.9759668,4.4456635
2.85,2.2185853,15.1650915,6.512057,-8.639891,-0.9755869,4.49484
2.852,2.158419,15.34496,6.4253426,-8.6232395,-0.9794198,4.54023
2.854,2.0944357,15.514061,6.3389683,-8.6029415,-0.98698616,4.5815287
2.856,2.02852,15.6706915,6.2543902,-8.578373,-0.9976778,4.6185474
2.858,1.9623797,15.813461,6.1732826,-8.548932,-1.0107989,4.6512012
2.86,1.8977876,15.941137,6.096753,-8.514023,-1.0255623,4.679488
2.862,1.8362626,16.052345,6.0255775,-8.473094,-1.0411297,4.7034693
2.864,1.7787184,16.14613,5.9607544,-8.425644,-1.0565965,4.72328
2.866,1.7262775,16.221485,5.902707,-8.371214,-1.0710582,4.739062
2.868,1.6798112,16.27809,5.8517613,-8.309401,-1.0835965,4.750957
2.87,1.6397961,16.316015,5.8082004,-8.239876,-1.0933132,4.7590933
2.872,1.6068662,16.335405,5.7718997,-8.162334,-1.0993428,4.7635536
2.874,1.5813167,16.336666,5.742237,-8.076546,-1.1008887,4.7643886
2.876,1.5631902,16.32041,5.7185984,-7.982335,-1.0972127,4.7616253
2.878,1.5524137,16.287304,5.7001185,-7.87957,-1.0876958,4.7552395
2.88,1.5484884,16.238363,5.685901,-7.7682133,-1.0718193,4.7452164
2.882,1.550904,16.17447,5.6745515,-7.64832,-1.0492038,4.73155
2.884,1.5590115,16.097069,5.6648693,-7.5200763,-1.0196273,4.7142634
2.886,1.5715935,16.00748,5.6557,-7.3838005,-0.9830656,4.6934285
2.888,1.5877995,15.907237,5.645605,-7.2399516,-0.9396782,4.6691866
2.89,1.6061795,15.797918,5.633245,-7.0891366,-0.889825,4.6417227
2.892,1.6257441,15.680994,5.6172953,-6.9320817,-0.8340678,4.6112623
2.894,1.644901,15.558078,5.596899,-6.769606,-0.7731577,4.5780315
2.896,1.6621876,15.431011,5.5709114,-6.6026177,-0.70800173,4.54227
2.898,1.6762509,15.301407,5.538477,-6.4320493,-0.6396513,4.504259
2.9,1.685524,15.170746,5.499123,-6.258811,-0.56921935,4.464275
2.902,1.6886139,15.040531,5.4524293,-6.083811,-0.49783957,4.42258
2.904,1.684025,14.912193,5.3981433,-5.9078965,-0.42667437,4.3794484
2.906,1.6705301,14.78724,5.33644,-5.731859,-0.35681248,4.335192
2.908,1.6468611,14.666963,5.267619,-5.5564365,-0.28926563,4.2901735
2.91,1.6120694,14.552441,5.1921916,-5.3823075,-0.22498381,4.2448025
2.912,1.5651875,14.444686,5.1108484,-5.210087,-0.16481817,4.1995044
2.914,1.5055134,14.344499,5.0246353,-5.0403013,-0.10952091,4.1547437
2.916,1.4324434,14.2524395,4.93466,-4.873394,-0.05972767,4.110937
2.918,1.3455822,14.1688595,4.842182,-4.7096786,-0.015956819,4.0684147
2.92,1.2447968,14.094049,4.7485805,-4.549334,0.021444082,4.027368
2.922,1.1302154,14.027798,4.6553288,-4.3924217,0.052193582,3.9878602
2.924,1.0019906,13.969914,4.563716,-4.2388377,0.07621831,3.9498544
2.926,0.8604288,13.919881,4.4752903,-4.088298,0.093643606,3.913134
2.928,0.7061653,13.87715,4.391252,-3.9404006,0.104764044,3.877365
2.93,0.5397048,13.841055,4.3128633,-3.7946575,0.11005527,3.8421502
2.932,0.3619671,13.810612,4.241097,-3.6505096,0.11017525,3.8070788
2.934,0.17390895,13.784914,4.1768236,-3.507382,0.10593754,3.771762
2.936,-0.023650646,13.763098,4.120544,-3.364709,0.09830016,3.7358832
2.938,-0.22967863,13.744095,4.072519,-3.221968,0.08832842,3.699215
2.94,-0.44315124,13.726974,4.032776,-3.078723,0.077175856,3.6616492
2.942,-0.662837,13.710825,4.001161,-2.9346333,0.066034734,3.623169
2.944,-0.88767695,13.6948185,3.9772182,-2.789446,0.056091726,3.58386
2.946,-1.1167006,13.678286,3.9601548,-2.643056,0.048494697,3.543856
2.948,-1.3489385,13.660727,3.9490342,-2.4954324,0.044288576,3.503369
2.95,-1.5832565,13.641661,3.9427693,-2.3466735,0.044384122,3.4626465
2.952,-1.8189051,13.620795,3.9400413,-2.196981,0.04952717,3.4219236
2.954,-2.0551763,13.598058,3.9394825,-2.0466852,0.060215294,3.3814864
2.956,-2.2911842,13.573549,3.939766,-1.89619,0.07669449,3.3416495
2.958,-2.5264452,13.547409,3.9392967,-1.746006,0.09898853,3.3027353
2.96,-2.7605252,13.520038,3.9364393,-1.5967168,0.12686801,3.2650404
2.962,-2.9930644,13.491803,3.929781,-1.448973,0.15988624,3.2288451
2.964,-3.2236524,13.463158,3.91787,-1.3034499,0.19745266,3.1943927
2.966,-3.4520266,13.434675,3.8995128,-1.1608496,0.23882264,3.1618812
2.968,-3.677927,13.406678,3.873528,-1.0218601,0.28314418,3.1313958
2.97,-3.9010758,13.379344,3.8390388,-0.88711363,0.32950562,3.1029844
2.972,-4.1215143,13.3531475,3.795312,-0.75719714,0.37699008,3.0766072
2.974,-4.3388605,13.327975,3.7417438,-0.6325985,0.4247111,3.052152
2.976,-4.5530357,13.303902,3.6782553,-0.51368004,0.47191316,3.0293698
2.978,-4.764001,13.28055,3.6047254,-0.4006933,0.51787406,3.0078704
2.98,-4.9716,13.257446,3.5213363,-0.2937886,0.56199956,2.9871817
2.982,-5.1757307,13.234065,3.4283195,-0.19294566,0.6038451,2.9667373
2.984,-5.376301,13.209672,3.3263907,-0.0980162,0.64309245,2.9458742
2.986,-5.5732756,13.183603,3.2163196,-0.008750558,0.67952824,2.9238813
2.988,-5.766532,13.155012,3.0988066,0.0752182,0.7130233,2.9000452
2.99,-5.9559507,13.122961,2.9749017,0.15429872,0.74352866,2.8737154
2.992,-6.1414204,13.086725,2.8457189,0.22893727,0.7710345,2.844336
2.994,-6.322964,13.045409,2.7123826,0.2995572,0.7955846,2.8115282
2.996,-6.500315,12.998296,2.575901,0.36655158,0.8172439,2.7750947
2.998,-6.6734924,12.944601,2.4375281,0.43023565,0.8361079,2.7350519
3,-6.842252,12.883972,2.2985778,0.4908393,0.8522804,2.691631
3.002,-7.0068107,12.816075,2.1602595,0.5484838,0.8658909,2.645238
3.004,-7.166884,12.740544,2.0234458,0.6031952,0.87705517,2.5964122
3.006,-7.32223,12.657087,1.8894914,0.6549093,0.8858845,2.545801
3.008,-7.472974,12.565829,1.7594312,0.70349514,0.8924918,2.4940717
3.01,-7.618781,12.466923,1.6342056,0.7487746,0.8969764,2.4418907
3.012,-7.7596574,12.360832,1.5148447,0.7905547,0.8994117,2.3898306
3.014,-7.8953004,12.247878,1.402287,0.8286482,0.8998569,2.3383615
3.016,-8.025595,12.128346,1.2972714,0.8629239,0.89835775,2.287809
3.018,-8.150232,12.002869,1.2005138,0.8932882,0.89494365,2.238369
3.02,-8.269049,11.871971,1.1126556,0.9197428,0.8896619,2.190087
3.022,-8.381769,11.736186,1.0341845,0.9423487,0.8825632,2.1428673
3.024,-8.488316,11.595974,0.965522,0.9612452,0.87370896,2.096488
3.026,-8.588469,11.451889,0.90693325,0.9766478,0.8631798,2.0506392
3.028,-8.681984,11.304403,0.8586421,0.9888519,0.85108864,2.0049527
3.03,-8.768867,11.15392,0.82073116,0.9981561,0.83758235,1.9590449
3.032,-8.849033,11.000985,0.7931104,1.0048776,0.8228475,1.9125549
3.034,-8.9225025,10.845923,0.7757122,1.0093539,0.80710423,1.8651872
3.036,-8.989254,10.6891165,0.7681546,1.0118918,0.7905891,1.8167105
3.038,-9.049394,10.530805,0.7701945,1.0127618,0.7735474,1.766996
3.04,-9.10311,10.371363,0.7813003,1.0121909,0.7562323,1.7160193
3.042,-9.150685,10.211087,0.800765,1.0103536,0.7388785,1.6638638
3.044,-9.192463,10.050363,0.82799244,1.007391,0.72167075,1.6107135
3.046,-9.22862,9.889441,0.86238337,1.0033705,0.7047545,1.5568192
3.048,-9.25958,9.728848,0.90300703,0.99833226,0.6882223,1.502478
3.05,-9.285828,9.568939,0.9491381,0.9922931,0.6721094,1.4480069
3.052,-9.307986,9.4102335,0.9997326,0.98523337,0.65641725,1.3937265
3.054,-9.326371,9.253126,1.0538073,0.97714424,0.64113295,1.3399166
3.056,-9.341386,9.097954,1.1105237,0.9680142,0.6262187,1.2868073
3.058,-9.353687,8.945137,1.168828,0.9578521,0.61164296,1.2345726
3.06,-9.363829,8.795108,1.2278095,0.94668734,0.59738886,1.1833153
3.062,-9.3720255,8.648346,1.2864861,0.93458366,0.5834439,1.1330922
3.064,-9.378749,8.504986,1.3439478,0.92162955,0.5698216,1.0838892
3.066,-9.384423,8.365463,1.3994609,0.90793824,0.5565527,1.0356582
3.068,-9.389258,8.229959,1.4522483,0.8936565,0.54367614,0.9883124
3.07,-9.3935,8.098673,1.5016713,0.8789201,0.5312428,0.9417608
3.072,-9.397469,7.9717264,1.547128,0.8638747,0.51931584,0.8958843
3.074,-9.4012985,7.8492107,1.5881689,0.84866714,0.5079545,0.8505852
3.076,-9.405043,7.731274,1.6243126,0.8334223,0.49720454,0.8057883
3.078,-9.408813,7.6179185,1.6552956,0.8182392,0.48711008,0.7614374
3.08,-9.41272,7.509245,1.6808956,0.80319524,0.47769865,0.7175077
3.082,-9.416573,7.405189,1.7011116,0.78832877,0.46897045,0.6739996
3.084,-9.420369,7.3057494,1.7157924,0.7736734,0.46090215,0.6309452
3.086,-9.424107,7.2109156,1.7250276,0.75923276,0.45344487,0.58838964
3.088,-9.427638,7.1206636,1.7290311,0.7449832,0.44653577,0.5463866
3.09,-9.430788,7.035025,1.7279538,0.73090136,0.44009393,0.5050064
3.092,-9.433631,6.9539065,1.7220796,0.7169634,0.43401536,0.46430722
3.094,-9.435917,6.8774295,1.7118623,0.7031332,0.4281785,0.42434862
3.096,-9.437543,6.8055034,1.6976188,0.6893786,0.42245805,0.38519698
3.098,-9.4383335,6.7381625,1.6799575,0.67567533,0.41672322,0.346912
3.1,-9.438159,6.675381,1.6593789,0.6620068,0.41082627,0.30955264
3.102,-9.43682,6.617107,1.6363405,0.64835775,0.4046235,0.27315736
3.104,-9.434222,6.563357,1.6115749,0.63471305,0.39797896,0.23775852
3.106,-9.429998,6.5140543,1.585591,0.62108564,0.39076805,0.20335717
3.108,-9.42416,6.46908,1.5590098,0.60747266,0.38287354,0.16993403
3.11,-9.416624,6.4282856,1.5323715,0.59388924,0.37420413,0.13743557
3.112,-9.407002,6.391532,1.5061955,0.58037084,0.36470443,0.10577388
3.114,-9.395212,6.3587513,1.4810917,0.5669713,0.3543324,0.07481888
3.116,-9.381168,6.3297544,1.457502,0.5537502,0.34309316,0.04442142
3.118,-9.364666,6.304347,1.4359026,0.5407978,0.331023,0.014413312
3.12,-9.345783,6.2824,1.416666,0.5282254,0.31820175,-0.015364647
3.122,-9.324252,6.2635493,1.4001461,0.51614946,0.30474,-0.045070454
3.124,-9.299967,6.247699,1.3866737,0.50469434,0.2907772,-0.07484779
3.126,-9.272891,6.2345448,1.3764952,0.4939839,0.27647084,-0.10479994
3.128,-9.242898,6.2238507,1.3697836,0.4841361,0.26199418,-0.1349933
3.13,-9.209926,6.2153363,1.3666744,0.47525847,0.24753931,-0.16545546
3.132,-9.174025,6.2087874,1.367239,0.46744317,0.23330034,-0.19616334
3.134,-9.135101,6.204047,1.3714362,0.46077442,0.21946989,-0.22706904
3.136,-9.093035,6.200867,1.3792682,0.4553165,0.20624332,-0.25809056
3.138,-9.047987,6.199016,1.3906035,0.45111513,0.19380242,-0.2891357
3.14,-8.999863,6.1982913,1.405268,0.4482051,0.1823125,-0.32009634
3.142,-8.948778,6.198441,1.4231503,0.44660088,0.17192708,-0.35088867
3.144,-8.894671,6.1994133,1.4440029,0.44632116,0.16277987,-0.38143933
3.146,-8.837515,6.201025,1.4676194,0.44736645,0.15498057,-0.41168755
3.148,-8.777303,6.203127,1.4936287,0.4497305,0.14859709,-0.44161546
3.15,-8.714228,6.205655,1.5217924,0.4534087,0.14368042,-0.47122437
3.152,-8.648334,6.208509,1.5518484,0.4583859,0.14025278,-0.5005438
3.154,-8.579651,6.2115912,1.5833845,0.46465147,0.13831827,-0.52961344
3.156,-8.508196,6.2148166,1.6160802,0.472193,0.1378414,-0.5584739
3.158,-8.434171,6.218166,1.6497428,0.48098838,0.13878463,-0.5871684
3.16,-8.357605,6.2216244,1.6839759,0.49101198,0.141101,-0.61571825
3.162,-8.2785425,6.225211,1.7185047,0.5022523,0.14473918,-0.64413714
3.164,-8.197123,6.2288313,1.7532558,0.514687,0.14964968,-0.6724293
3.166,-8.113505,6.2326,1.7879108,0.5282736,0.15577376,-0.7005837
3.168,-8.027683,6.236405,1.8223306,0.54297733,0.16307244,-0.7285669
3.17,-7.9399095,6.2403235,1.8563294,0.5587651,0.17150961,-0.756359
3.172,-7.850274,6.2443743,1.8897722,0.5756012,0.18103592,-0.78391874
3.174,-7.758851,6.24869,1.9226058,0.59343845,0.1916102,-0.81120515
3.176,-7.665824,6.253143,1.9546461,0.6122499,0.20319135,-0.83817756
3.178,-7.5713267,6.2578626,1.9859457,0.6319981,0.2157396,-0.86479115
3.18,-7.475563,6.2628155,2.0163774,0.6526515,0.22921042,-0.8910112
3.182,-7.3785086,6.268095,2.0460129,0.6742215,0.24373423,-0.91713
3.184,-7.280313,6.2736034,2.0747147,0.6966127,0.2590056,-0.9426909
3.186,-7.1812086,6.279292,2.1026454,0.7198402,0.27508655,-0.967904
3.188,-7.0812464,6.2852736,2.129781,0.74387586,0.29193872,-0.9927914
3.19,-6.9806724,6.291455,2.1561518,0.7687055,0.30952168,-1.0174022
3.192,-6.8796535,6.29769,2.1817908,0.7943252,0.32778656,-1.0417931
3.194,-6.7780423,6.3038874,2.206816,0.82073677,0.3466776,-1.0660294
3.196,-6.676039,6.309996,2.2312336,0.8479409,0.3661266,-1.0901535
3.198,-6.5737977,6.3158016,2.2550974,0.875932,0.3860496,-1.1141928
3.2,-6.4713326,6.321142,2.2784414,0.9047124,0.40637225,-1.13816
3.202,-6.368734,6.3258677,2.3014498,0.9342855,0.42700967,-1.162032
3.204,-6.266157,6.329692,2.3240595,0.9646522,0.4478679,-1.1857775
3.206,-6.1635537,6.3324614,2.3463352,0.99581087,0.4688632,-1.2093492
3.208,-6.061141,6.334007,2.3683126,1.0277658,0.4899491,-1.2327142
3.21,-5.95889,6.33413,2.3899732,1.0605099,0.511108,-1.2558513
3.212,-5.856884,6.3326235,2.4114969,1.0940492,0.532339,-1.2787535
3.214,-5.7551055,6.3291683,2.4326909,1.1283914,0.5536742,-1.3014534
3.216,-5.6537476,6.323749,2.4536698,1.1635332,0.5751618,-1.3239809
3.218,-5.5528975,6.3163753,2.4743779,1.1994795,0.59687376,-1.3463607
3.22,-5.4525337,6.306853,2.494639,1.2362187,0.61887753,-1.3686169
3.222,-5.3528805,6.2951913,2.5146127,1.2737379,0.6412252,-1.3907609
3.224,-5.2538967,6.281318,2.5341125,1.3120023,0.66394174,-1.4127617
3.226,-5.155743,6.2653112,2.5530813,1.3509711,0.68704265,-1.4345798
3.228,-5.05838,6.2470627,2.571455,1.3906057,0.71051323,-1.4561427
3.23,-4.961859,6.2267246,2.5892086,1.4308407,0.73432803,-1.4773636
3.232,-4.8663425,6.2044587,2.6062515,1.4716275,0.75843745,-1.4981651
3.234,-4.771912,6.1802816,2.6224139,1.5129049,0.7827766,-1.5184487
3.236,-4.6786737,6.154371,2.6377597,1.5545914,0.8071729,-1.5379629
3.238,-4.5867763,6.1268005,2.6521204,1.596705,0.8318297,-1.5571103
3.24,-4.4961667,6.097722,2.665402,1.6391394,0.85650134,-1.5755558
3.242,-4.4070063,6.067308,2.6776285,1.6818528,0.88113713,-1.5933106
3.244,-4.319211,6.0357046,2.6886976,1.7248176,0.90569067,-1.6103933
3.246,-4.2330585,6.003056,2.698591,1.7679982,0.9301379,-1.6268407
3.248,-4.1485696,5.9697137,2.7072897,1.8113636,0.9544487,-1.6426938
3.25,-4.065838,5.9357405,2.7147632,1.8548903,0.9785911,-1.6579813
3.252,-3.9849114,5.9014254,2.7209773,1.8985581,1.00255,-1.6727362
3.254,-3.9059021,5.866852,2.7259514,1.9423429,1.0262915,-1.6869642
3.256,-3.8289077,5.832323,2.7296596,1.9862186,1.0497763,-1.7006408
3.258,-3.754095,5.7980456,2.7321963,2.0301178,1.0729446,-1.7137139
3.26,-3.6813896,5.7642326,2.7336287,2.0739944,1.0957159,-1.7260875
3.262,-3.6109176,5.7311325,2.7339165,2.1177652,1.1179833,-1.737649
3.264,-3.5427215,5.698905,2.7332482,2.1613474,1.139636,-1.7482648
3.266,-3.4769611,5.667886,2.731593,2.2046385,1.1605504,-1.7578108
3.268,-3.413491,5.6381454,2.729043,2.247524,1.1805836,-1.7661645
3.27,-3.3523817,5.609831,2.7257214,2.2898884,1.1996117,-1.7732378
3.272,-3.2936287,5.5829926,2.7217221,2.3316276,1.2175117,-1.778995
3.274,-3.2372408,5.5579433,2.717089,2.3726628,1.2341875,-1.7834471
3.276,-3.183164,5.534506,2.7119765,2.41292,1.2495584,-1.7866635
3.278,-3.1312933,5.512665,2.7064404,2.4523711,1.2635753,-1.7887528
3.28,-3.081351,5.492285,2.7006195,2.4910078,1.276211,-1.7898588
3.282,-3.0335147,5.4731994,2.6945567,2.5288503,1.2874609,-1.7901511
3.284,-2.9876413,5.4552803,2.6883447,2.5659423,1.2973479,-1.7898052
3.286,-2.9435587,5.4383326,2.6820574,2.6023417,1.3059245,-1.7889789
3.288,-2.9012558,5.422059,2.675719,2.638112,1.3132615,-1.7878394
3.29,-2.8604267,5.4062457,2.6694374,2.6733282,1.3194399,-1.7864854
3.292,-2.821047,5.390627,2.6631935,2.7080572,1.324535,-1.7850115
3.294,-2.7830696,5.3749924,2.6570835,2.742345,1.3286242,-1.7834494
3.296,-2.7464745,5.35915,2.6510274,2.7762222,1.3317847,-1.7817988
3.298,-2.711135,5.3428755,2.6450062,2.8096933,1.3340708,-1.7800128
3.3,-2.6768928,5.326147,2.6390443,2.8427396,1.335509,-1.7780001
3.302,-2.643753,5.308941,2.6331892,2.875324,1.336132,-1.7756203
3.304,-2.6118011,5.2912154,2.6273103,2.9073756,1.3359469,-1.7727337
3.306,-2.5809844,5.2731366,2.6214643,2.938791,1.3349175,-1.7691567
3.308,-2.551371,5.254833,2.6155727,2.9694629,1.3329952,-1.764695
3.31,-2.5229013,5.2364864,2.6096096,2.9992473,1.3301136,-1.7591572
3.312,-2.4955726,5.2183685,2.6034803,3.028021,1.3262008,-1.7523726
3.314,-2.4694023,5.200827,2.5972385,3.0556314,1.3211632,-1.7442057
3.316,-2.4443715,5.1841707,2.590876,3.0819464,1.3148928,-1.7345525
3.318,-2.420547,5.1687384,2.5843635,3.1068254,1.3072906,-1.7233609
3.32,-2.397983,5.154948,2.5777948,3.1301706,1.2982613,-1.7106221
3.322,-2.3765419,5.143115,2.5711312,3.1518881,1.2877197,-1.6963983
3.324,-2.356275,5.133585,2.5645015,3.1719291,1.275597,-1.68079
3.326,-2.3370798,5.126527,2.5579615,3.190255,1.2618389,-1.6639261
3.328,-2.3188791,5.122124,2.5516653,3.206854,1.2463932,-1.6459491
3.33,-2.3017,5.120662,2.54572,3.221754,1.2292476,-1.6270266
3.332,-2.2854996,5.122117,2.5401673,3.234976,1.2103745,-1.6073234
3.334,-2.270125,5.1265235,2.535212,3.2465527,1.1897497,-1.5869899
3.336,-2.2555146,5.133801,2.5310304,3.256529,1.1673558,-1.5661538
3.338,-2.2417464,5.14384,2.5277603,3.2649431,1.1431799,-1.5449103
3.34,-2.2286842,5.156471,2.5254855,3.2718365,1.1171979,-1.5233525
3.342,-2.2161937,5.1713324,2.524414,3.2772377,1.0893983,-1.501546
3.344,-2.2042484,5.1881247,2.5247946,3.28116,1.0597591,-1.4795578
3.346,-2.192807,5.206575,2.5265908,3.2836297,1.028277,-1.4574451
3.348,-2.1816854,5.226256,2.5300574,3.2846706,0.99496907,-1.435275
3.35,-2.171046,5.246768,2.53539,3.2843084,0.95986617,-1.4131155
3.352,-2.1607108,5.267565,2.5426288,3.2825768,0.92302155,-1.3910449
3.354,-2.1507647,5.2881455,2.5519056,3.2795236,0.8845228,-1.3691448
3.356,-2.1410809,5.3081636,2.563343,3.2751966,0.84447694,-1.3474925
3.358,-2.1315422,5.3270283,2.5769367,3.269673,0.80301034,-1.3261328
3.36,-2.122294,5.344452,2.5927682,3.2630284,0.7602776,-1.3051026
3.362,-2.1132054,5.360009,2.6108565,3.2553422,0.7164602,-1.2844211
3.364,-2.1043453,5.3734927,2.6311915,3.24671,0.6717458,-1.2640852
3.366,-2.0958195,5.3845377,2.6538458,3.2372093,0.62633467,-1.2440641
3.368,-2.0873833,5.392992,2.6787643,3.2269354,0.58042216,-1.2242916
3.37,-2.0791407,5.398776,2.7057695,3.2159688,0.5342016,-1.2047019
3.372,-2.0710647,5.401734,2.734817,3.2043853,0.4878386,-1.1852142
3.374,-2.0631425,5.401963,2.7658339,3.1922452,0.44150746,-1.1657332
3.376,-2.055429,5.3994136,2.7987754,3.1795986,0.39535588,-1.1461511
3.378,-2.0478818,5.3942623,2.8334844,3.1664631,0.34948722,-1.1263773
3.38,-2.0406156,5.386574,2.8697305,3.1528702,0.30399695,-1.1063402
3.382,-2.03352,5.376672,2.9074817,3.138819,0.25895816,-1.0859698
3.384,-2.026664,5.3647056,2.9465013,3.1242874,0.2143997,-1.0652019
3.386,-2.0200677,5.35101,2.9865966,3.109258,0.17033654,-1.0439944
3.388,-2.0137613,5.3360376,3.0277772,3.0937028,0.12676495,-1.0223293
3.39,-2.0079057,5.3201017,3.0696979,3.0775793,0.083661735,-1.000209
3.392,-2.0022774,5.303632,3.1123936,3.060844,0.040979147,-0.9776363
3.394,-1.9969518,5.287012,3.1556814,3.0434515,-0.0013412237,-0.9546335
3.396,-1.9919251,5.2706122,3.199469,3.0253634,-0.043364763,-0.93122584
3.398,-1.9871508,5.254925,3.2435765,3.006549,-0.085139394,-0.9074423
3.4,-1.9827744,5.240187,3.2879755,2.9869823,-0.12673837,-0.88330305
3.402,-1.9787029,5.226706,3.3325927,2.9666424,-0.16822201,-0.85882276
3.404,-1.9749017,5.2147665,3.3774438,2.9455168,-0.20965081,-0.83401644
3.406,-1.9713084,5.204538,3.4224255,2.923592,-0.25107747,-0.80888116
3.408,-1.9679282,5.196121,3.4675674,2.9008713,-0.29254425,-0.78343445
3.41,-1.9646984,5.189554,3.5128546,2.8773644,-0.334078,-0.7576951
3.412,-1.9617459,5.1849422,3.5582418,2.8530898,-0.3756789,-0.7317101
3.414,-1.9589142,5.1823125,3.6038632,2.8280747,-0.4173497,-0.70554817
3.416,-1.95622,5.1814733,3.6497457,2.8023632,-0.4590674,-0.67930865
3.418,-1.9536393,5.182397,3.6959755,2.776018,-0.50078976,-0.65311027
3.42,-1.9512523,5.1848626,3.7425668,2.7491126,-0.54246825,-0.627084
3.422,-1.9490145,5.188692,3.789645,2.7217193,-0.5840314,-0.6013916
3.424,-1.9469213,5.193651,3.8371954,2.6939416,-0.6254056,-0.5761571
3.426,-1.9449501,5.199472,3.885322,2.6658847,-0.6665083,-0.5514945
3.428,-1.9430593,5.20585,3.9339824,2.6376333,-0.7072724,-0.5274872
3.43,-1.9412963,5.2125793,3.9833436,2.6092765,-0.74761987,-0.5041715
3.432,-1.9398139,5.21944,4.033375,2.5808904,-0.7874763,-0.4815352
3.434,-1.9384943,5.2260885,4.0841727,2.5525165,-0.82678956,-0.45953208
3.436,-1.937433,5.2324386,4.135686,2.5241888,-0.86550486,-0.43808705
3.438,-1.9365709,5.2382345,4.187903,2.4959366,-0.9035731,-0.41710126
3.44,-1.9359547,5.2433133,4.2409,2.4677508,-0.9409527,-0.3964814
3.442,-1.9356229,5.2476053,4.294594,2.4396226,-0.97761136,-0.37613547
3.444,-1.9356669,5.2510033,4.3490353,2.4115548,-1.0135231,-0.3559971
3.446,-1.9359887,5.25346,4.4041286,2.383541,-1.0486522,-0.33603323
3.448,-1.9367317,5.255113,4.4599266,2.355586,-1.082964,-0.31622523
3.45,-1.9378235,5.2559004,4.516403,2.327717,-1.1164122,-0.2965817
3.452,-1.9393423,5.2559857,4.573423,2.2999537,-1.1489577,-0.27712202
3.454,-1.9413298,5.255545,4.6309676,2.2723475,-1.1805401,-0.2578705
3.456,-1.9435971,5.2546353,4.688995,2.2449474,-1.2111048,-0.23884308
3.458,-1.9463217,5.2534194,4.7474174,2.2178106,-1.240582,-0.22004122
3.46,-1.9493332,5.252097,4.806057,2.1909995,-1.2689052,-0.20146197
3.462,-1.9526179,5.250841,4.8649173,2.1645582,-1.2960101,-0.18306422
3.464,-1.9562563,5.249915,4.9239025,2.1385148,-1.3218465,-0.16481543
3.466,-1.9601352,5.2493443,4.9828706,2.1128974,-1.3463655,-0.1466474
3.468,-1.9643874,5.2493553,5.0417547,2.0877182,-1.3695374,-0.12850428
3.47,-1.9686952,5.2499495,5.100444,2.062965,-1.3913679,-0.11033547
3.472,-1.9731939,5.2512827,5.1588306,2.0386064,-1.4118729,-0.092104554
3.474,-1.9777422,5.253373,5.2167864,2.0146089,-1.4311047,-0.073791385
3.476,-1.9823792,5.2562513,5.274134,1.9909259,-1.4491352,-0.055392563
3.478,-1.9870976,5.259947,5.330841,1.9675063,-1.4660726,-0.03694457
3.48,-1.9917772,5.264427,5.3869224,1.9442964,-1.4820273,-0.018506706
3.482,-1.9965426,5.2697062,5.4423513,1.9212619,-1.4971273,-0.0001527667
3.484,-2.0013516,5.2756042,5.496916,1.8983773,-1.5115001,0.01800543
3.486,-2.0059946,5.282084,5.5506554,1.8756285,-1.525263,0.0358482
3.488,-2.0105586,5.28902,5.6035657,1.8530145,-1.5385104,0.053252876
3.49,-2.01497,5.2963405,5.655652,1.8305602,-1.5513353,0.07007998
3.492,-2.0193624,5.3038025,5.7069073,1.8082861,-1.5637815,0.08621329
3.494,-2.0236213,5.3111773,5.7573977,1.7862406,-1.5758721,0.101565
3.496,-2.0277092,5.31854,5.8071737,1.7644591,-1.5876093,0.116063
3.498,-2.0317397,5.3255424,5.856227,1.7429675,-1.5989691,0.12966567
3.5,-2.0356777,5.3321223,5.904726,1.7217963,-1.6099077,0.14236736
3.502,-2.0395498,5.338191,5.952608,1.7009732,-1.6203625,0.1541717
3.504,-2.0433772,5.3435388,6.0000296,1.6805015,-1.6302706,0.16512382
3.506,-2.047178,5.348258,6.047022,1.6604053,-1.6395572,0.17529213
3.508,-2.051029,5.352217,6.093629,1.6406846,-1.6481271,0.18475133
3.51,-2.0548596,5.355481,6.1398997,1.621345,-1.6558933,0.19359279
3.512,-2.0586953,5.3581524,6.185838,1.6023862,-1.66276,0.20191616
