Time_s_,Acc_x_m_s_2_,Acc_y_m_s_2_,Acc_z_m_s_2_,Gyro_x_1_s_,Gyro_y_1_s_,Gyro_z_1_s_
0,0.6292766,-0.34774253,0.6205761,0.05942794,0.07796336,0.39901233
0.002,0.6353304,-0.3375944,0.6129212,0.060374126,0.07809528,0.40089956
0.004,0.6414642,-0.32659143,0.60491186,0.061434947,0.07814145,0.4029743
0.006,0.64763254,-0.31467956,0.5966461,0.06263989,0.078041375,0.40522555
0.008,0.65382665,-0.3019401,0.58823436,0.064004466,0.077734336,0.40762892
0.01,0.65995705,-0.288361,0.5795446,0.06555246,0.077151336,0.4101703
0.012,0.6659934,-0.27387854,0.5707244,0.06731139,0.076206,0.4128126
0.014,0.6718295,-0.25838506,0.5620027,0.06929512,0.0748429,0.41551644
0.016,0.67737615,-0.24184394,0.5534027,0.071533374,0.07301973,0.41823614
0.018,0.6825542,-0.22423297,0.54495436,0.074051574,0.070729114,0.42093992
0.02,0.68736356,-0.2056255,0.53673685,0.07686631,0.06800694,0.42359838
0.022,0.6917437,-0.1859417,0.5288174,0.07998907,0.064948015,0.42620018
0.024,0.69549763,-0.16501525,0.52129745,0.08341809,0.061689995,0.42875245
0.026,0.6985829,-0.14293776,0.5142755,0.08714745,0.058406692,0.4312659
0.028,0.7009691,-0.119642824,0.5078707,0.091224626,0.055238985,0.4338533
0.03,0.70254445,-0.095200896,0.5020702,0.09551106,0.052425638,0.43642285
0.032,0.70337915,-0.06958376,0.4970331,0.09994206,0.050080597,0.43901035
0.034,0.7033854,-0.04284817,0.4927673,0.104439564,0.04827991,0.4416269
0.036,0.7025746,-0.01506722,0.48927587,0.10890895,0.047041357,0.4442641
0.038,0.7009592,0.013757676,0.48668832,0.11324314,0.046302043,0.4469089
0.04,0.69857794,0.043532744,0.4848596,0.11733487,0.04593773,0.44951963
0.042,0.69560075,0.07414931,0.48382622,0.121095106,0.045783952,0.45206276
0.044,0.69213784,0.10551077,0.48366567,0.12443127,0.045621432,0.45449972
0.046,0.6882553,0.13759676,0.48433924,0.12728962,0.045250356,0.45677596
0.048,0.6841574,0.17037405,0.48585033,0.1296517,0.044458106,0.4588492
0.05,0.68003,0.20364931,0.48819238,0.13150671,0.043068692,0.46067837
0.052,0.676126,0.23729995,0.49127755,0.1328885,0.0409613,0.4622344
0.054,0.6725951,0.27125186,0.49501503,0.13386945,0.038064815,0.46348995
0.056,0.66978467,0.3059711,0.49923432,0.13451964,0.03437898,0.4644328
0.058,0.6678456,0.3406872,0.5037194,0.13494197,0.029958406,0.46505642
0.06,0.6669199,0.37528735,0.5084126,0.13523455,0.024913449,0.4653818
0.062,0.6672045,0.40981624,0.5132441,0.13550505,0.019385545,0.46544126
0.064,0.6689086,0.44418585,0.5181583,0.13585263,0.013544987,0.46523798
0.066,0.67207366,0.47840807,0.5230428,0.136358,0.007569179,0.46479228
0.068,0.67684144,0.51229286,0.5278248,0.13710853,0.0016050373,0.4641139
0.07,0.68311965,0.5460497,0.53222424,0.13815588,-0.004220562,0.46321166
0.072,0.6910014,0.5797635,0.5361936,0.139537,-0.00981671,0.4620633
0.074,0.7005034,0.613323,0.53947985,0.14129129,-0.015114289,0.46064636
0.076,0.71145266,0.647019,0.5420199,0.14343339,-0.020099875,0.45891958
0.078,0.72371745,0.6809257,0.54359305,0.14596464,-0.024789173,0.45683408
0.08,0.737149,0.7151042,0.5440669,0.1488676,-0.029221456,0.4543503
0.082,0.75157833,0.749787,0.54348457,0.15211086,-0.03346016,0.45141646
0.084,0.7668789,0.78502977,0.541675,0.15567562,-0.0375849,0.4479904
0.086,0.78271514,0.82090193,0.5386336,0.15951522,-0.04168362,0.4440507
0.088,0.7989514,0.85763097,0.534486,0.16357428,-0.04585041,0.4395886
0.09,0.8152931,0.89533186,0.5291312,0.16779721,-0.05018288,0.4346247
0.092,0.83149254,0.9340653,0.52262104,0.17212743,-0.05476064,0.429167
0.094,0.8472682,0.9738196,0.51505554,0.17651677,-0.05965725,0.4232392
0.096,0.8623797,1.0147309,0.50650823,0.18091345,-0.06494399,0.41686997
0.098,0.8767079,1.0568634,0.4971857,0.18527703,-0.07065368,0.41011116
0.1,0.8899267,1.1003406,0.4871787,0.1895632,-0.07681705,0.40302724
0.102,0.90182924,1.1451275,0.47677097,0.19373506,-0.083440766,0.39569035
0.104,0.91242445,1.1911249,0.46610403,0.19776255,-0.09050957,0.38817134
0.106,0.9213463,1.2384522,0.4553597,0.20160258,-0.09800506,0.38054636
0.108,0.9284905,1.2870095,0.44458795,0.20521784,-0.10588077,0.37289503
0.11,0.93406844,1.3366106,0.43389583,0.20858356,-0.11409078,0.36528644
0.112,0.93784976,1.38726,0.42336178,0.21167092,-0.12256883,0.35777956
0.114,0.9399563,1.4387201,0.41290733,0.21445897,-0.13125126,0.35041028
0.116,0.94031847,1.491057,0.40253073,0.2169303,-0.14006847,0.34320727
0.118,0.93900186,1.5441743,0.39231575,0.21907671,-0.14897335,0.33619192
0.12,0.9360078,1.5979285,0.3822224,0.22089553,-0.15788557,0.3293598
0.122,0.93158317,1.6521409,0.37221372,0.22238167,-0.16674992,0.32269737
0.124,0.92576927,1.7066779,0.3620441,0.2235456,-0.17551592,0.31617597
0.126,0.91876584,1.7614958,0.3517987,0.22439525,-0.18415764,0.30978507
0.128,0.910745,1.8165076,0.34142092,0.22493061,-0.19268024,0.30350605
0.13,0.90190077,1.8715674,0.33079025,0.22517043,-0.20108989,0.2973288
0.132,0.8924787,1.9265301,0.31975496,0.2251207,-0.20941544,0.29125607
0.134,0.88267124,1.98117,0.30827075,0.22478518,-0.21770895,0.28527904
0.136,0.8725853,2.0354738,0.2962446,0.22418775,-0.22601223,0.2793906
0.138,0.86235535,2.0894258,0.28354985,0.2233453,-0.23437883,0.27358446
0.14,0.8521379,2.1430044,0.27023256,0.22231117,-0.24285193,0.2678225
0.142,0.8420858,2.1959922,0.25594708,0.2211338,-0.25145397,0.26204985
0.144,0.8323463,2.2483802,0.24074164,0.21988897,-0.26018703,0.25620165
0.146,0.822939,2.3002028,0.22453833,0.21866977,-0.26901054,0.25019103
0.148,0.8137512,2.3515697,0.2071093,0.21757893,-0.2778385,0.24392594
0.15,0.8048841,2.4024355,0.18860748,0.2167237,-0.28655052,0.23731695
0.152,0.7962235,2.4526906,0.16897386,0.21620478,-0.29501492,0.23028076
0.154,0.78765523,2.5024185,0.14821178,0.21611261,-0.30308318,0.22276711
0.156,0.7789086,2.551661,0.12632474,0.21650712,-0.3106201,0.2147372
0.158,0.76995355,2.6002955,0.10333726,0.21742424,-0.3175231,0.20619264
0.16,0.7604773,2.6485023,0.0792824,0.21887015,-0.3237241,0.19717425
0.162,0.7500557,2.6962976,0.054398865,0.22080484,-0.32922882,0.18774949
0.164,0.7384251,2.7437584,0.028715461,0.22316726,-0.3340845,0.17801964
0.166,0.72504747,2.79106,0.0022988915,0.22587273,-0.33839685,0.1680967
0.168,0.70953083,2.838046,-0.024714261,0.22881135,-0.3422581,0.15807182
0.17,0.69135785,2.8849158,-0.052212477,0.23188037,-0.34577882,0.14803891
0.172,0.6699161,2.9319704,-0.0800142,0.23497525,-0.34904525,0.13810101
0.174,0.64492434,2.979227,-0.10793945,0.23800933,-0.35214615,0.12838322
0.176,0.6160941,3.0267494,-0.13597235,0.24092749,-0.35511705,0.119013734
0.178,0.5829724,3.0746398,-0.1640814,0.24369824,-0.35795757,0.1101128
0.18,0.54515934,3.1228335,-0.19209921,0.24632311,-0.3606174,0.101803325
0.182,0.5023978,3.1713238,-0.21986252,0.2488232,-0.36303544,0.094251186
0.184,0.45448828,3.2201924,-0.24731398,0.25122696,-0.3651318,0.08766392
0.186,0.40145338,3.2694187,-0.27426904,0.25357792,-0.36679453,0.082259
0.188,0.34297192,3.3190584,-0.3005228,0.2558908,-0.36793512,0.07828887
0.19,0.2790898,3.3692365,-0.32593942,0.2581378,-0.3685133,0.076000884
0.192,0.20989668,3.4197423,-0.35015315,0.26024413,-0.36851254,0.0756097
0.194,0.13563228,3.4706898,-0.37276083,0.26209107,-0.36794966,0.07729145
0.196,0.05657363,3.5221305,-0.39453262,0.2635511,-0.36687723,0.08115555
0.198,-0.027876139,3.5744839,-0.41525823,0.26447487,-0.3653926,0.08723813
0.2,-0.116434574,3.6277604,-0.43451613,0.26471317,-0.36363477,0.09552764
0.202,-0.20836604,3.681417,-0.4500003,0.26412138,-0.36176705,0.105922565
0.204,-0.30307937,3.7342298,-0.46392232,0.26259944,-0.3599323,0.118233114
0.206,-0.39935708,3.7856944,-0.4769165,0.26007575,-0.358264,0.13223374
0.208,-0.49671984,3.8364177,-0.4890858,0.25652665,-0.356883,0.14768519
0.21,-0.5942248,3.8869226,-0.5002595,0.2519727,-0.35588443,0.16436175
0.212,-0.6910591,3.9370315,-0.5099687,0.24646689,-0.35533112,0.18202904
0.214,-0.7859235,3.9860208,-0.5181381,0.24010527,-0.3552449,0.20046744
0.216,-0.87787473,4.033544,-0.5249895,0.233004,-0.3556232,0.21948509
0.218,-0.96608365,4.0795627,-0.5305227,0.22530255,-0.35640424,0.23890096
0.22,-1.0499718,4.124074,-0.5346187,0.21717107,-0.35748303,0.25853634
0.222,-1.1287302,4.1669135,-0.5375108,0.20881528,-0.3587509,0.2782448
0.224,-1.2016914,4.2079296,-0.5397468,0.20048822,-0.3599738,0.29791817
0.226,-1.2682666,4.2468147,-0.542061,0.19246233,-0.3608495,0.31746218
0.228,-1.3279343,4.283765,-0.5451728,0.18503958,-0.36107364,0.33676526
0.23,-1.3802078,4.3188286,-0.5494394,0.17852196,-0.36036786,0.35578105
0.232,-1.424996,4.351965,-0.55551916,0.1733147,-0.35828412,0.37460896
0.234,-1.4618468,4.382926,-0.56399703,0.16984032,-0.35429752,0.39350545
0.236,-1.4907017,4.411413,-0.5757586,0.16842097,-0.34811285,0.4128305
0.238,-1.5116243,4.4373093,-0.5915561,0.16936596,-0.33938825,0.43305072
0.24,-1.5246662,4.4607015,-0.6118408,0.17294447,-0.32781363,0.45468062
0.242,-1.5298585,4.481583,-0.636893,0.17936844,-0.3131609,0.47826904
0.244,-1.5277027,4.500101,-0.66734487,0.18873751,-0.29534078,0.5044916
0.246,-1.5182911,4.516268,-0.703298,0.20102097,-0.27444524,0.53411233
0.248,-1.5015199,4.530037,-0.74488693,0.21599296,-0.2508706,0.5678665
0.25,-1.4780399,4.541521,-0.7918034,0.23320235,-0.22531298,0.606396
0.252,-1.4489256,4.551244,-0.8426101,0.25198233,-0.1987625,0.65012705
0.254,-1.4151236,4.559625,-0.8956171,0.27147153,-0.17257863,0.69920623
0.256,-1.3772151,4.566652,-0.9493256,0.29064688,-0.1484524,0.7534481
0.258,-1.3354102,4.57191,-1.0021989,0.30839723,-0.12829936,0.8122795
0.26,-1.2910846,4.5760026,-1.0523372,0.3236217,-0.114112616,0.8747119
0.262,-1.2454879,4.5795383,-1.0977523,0.33531797,-0.10776456,0.9393969
0.264,-1.1997916,4.5828567,-1.1364205,0.3426941,-0.11081914,1.004762
0.266,-1.1554204,4.586382,-1.1663485,0.34524465,-0.12440314,1.0691926
0.268,-1.111129,4.589676,-1.1843604,0.34278783,-0.14905903,1.1311537
0.27,-1.0690032,4.59379,-1.1875954,0.33550635,-0.18466456,1.1893605
0.272,-1.030664,4.59945,-1.175133,0.3239027,-0.23041315,1.2428826
0.274,-0.9956708,4.6059465,-1.1463618,0.30874974,-0.28489482,1.2912055
0.276,-0.9643171,4.6134114,-1.1010522,0.29100138,-0.346183,1.3342309
0.278,-0.937106,4.6225224,-1.0388412,0.27170458,-0.41201723,1.3721615
0.28,-0.9147383,4.633445,-0.9595181,0.25192773,-0.47995394,1.4054844
0.282,-0.89713883,4.645928,-0.86350936,0.23264363,-0.54754937,1.4348391
0.284,-0.88433015,4.660098,-0.75161296,0.21471351,-0.612467,1.460825
0.286,-0.8760685,4.6757803,-0.62490445,0.19875833,-0.6727799,1.4839205
0.288,-0.87235725,4.6929965,-0.4846704,0.18522939,-0.7269665,1.5044565
0.29,-0.87292767,4.711707,-0.33234793,0.17443913,-0.7737967,1.5226346
0.292,-0.8772354,4.7316847,-0.1699835,0.16646034,-0.8127055,1.5384873
0.294,-0.88513124,4.7529964,0.00039172173,0.16116458,-0.8436687,1.5519723
0.296,-0.8960434,4.775485,0.17614686,0.15824705,-0.8671317,1.5629488
0.298,-0.9092616,4.799078,0.35483968,0.15726864,-0.88388515,1.5711622
0.3,-0.9243846,4.8237047,0.5341653,0.15781188,-0.89485097,1.5762837
0.302,-0.94094193,4.849414,0.7115137,0.15947187,-0.9011376,1.5779387
0.304,-0.95849156,4.8760204,0.88495487,0.16178763,-0.9039098,1.5759295
0.306,-0.97652566,4.90326,1.0533562,0.16426283,-0.9043007,1.5702536
0.308,-0.99384224,4.930521,1.2146248,0.1664601,-0.9032937,1.5608975
0.31,-1.0109895,4.9578943,1.3669553,0.16808724,-0.9016357,1.5478396
0.312,-1.0273917,4.985585,1.507222,0.16887957,-0.8998655,1.5310909
0.314,-1.0424058,5.014072,1.6367717,0.16864151,-0.8983561,1.5106707
0.316,-1.0556105,5.0427155,1.7549356,0.1672867,-0.8973756,1.4865826
0.318,-1.0660266,5.0700455,1.8604211,0.16481864,-0.8971641,1.4588135
0.32,-1.0727637,5.094793,1.9520435,0.16137719,-0.89790964,1.4273366
0.322,-1.0750556,5.1167126,2.0287058,0.1572082,-0.89978737,1.3921864
0.324,-1.0724207,5.135755,2.0900314,0.15262306,-0.90301776,1.3534737
0.326,-1.0636358,5.1510196,2.1363766,0.14797181,-0.907874,1.3114157
0.328,-1.0477488,5.161525,2.1677282,0.14360839,-0.9146268,1.2663592
0.33,-1.0239716,5.166363,2.1842823,0.13984865,-0.92351115,1.2187257
0.332,-0.99136865,5.16472,2.1865873,0.13692844,-0.93465114,1.1690512
0.334,-0.9492794,5.1557913,2.1755347,0.13498944,-0.9479524,1.117918
0.336,-0.89692104,5.1389,2.1519156,0.13410068,-0.9630575,1.0659659
0.338,-0.83393455,5.1132474,2.1164527,0.13421983,-0.979419,1.0138143
0.34,-0.7599516,5.07827,2.069779,0.13525343,-0.9962778,0.96199656
0.342,-0.67475617,5.0336156,2.0127463,0.13710326,-1.0126667,0.9109454
0.344,-0.5784435,4.979135,1.9463608,0.13968575,-1.0275661,0.86100197
0.346,-0.4711877,4.914927,1.8718208,0.14292741,-1.0400454,0.8124202
0.348,-0.35320055,4.8408947,1.7902458,0.14679599,-1.0493307,0.76531935
0.35,-0.22519016,4.757247,1.7025115,0.15130574,-1.0548635,0.7197145
0.352,-0.088118196,4.664223,1.6093566,0.15649027,-1.0564202,0.6755517
0.354,0.057470918,4.5622544,1.5119141,0.16230631,-1.0541794,0.6328027
0.356,0.21003854,4.4521327,1.4110525,0.16870427,-1.048424,0.59148496
0.358,0.36783397,4.334859,1.3079276,0.17569095,-1.0396265,0.5514908
0.36,0.5297849,4.2114077,1.2031958,0.1832476,-1.028333,0.51270735
0.362,0.69453526,4.0826735,1.0970526,0.19129512,-1.015115,0.47518504
0.364,0.8607495,3.9497557,0.98983765,0.19967824,-1.0005469,0.4390272
0.366,1.0263304,3.8142867,0.88260233,0.2083073,-0.9851186,0.40432072
0.368,1.189336,3.6780558,0.77640253,0.2171182,-0.9691901,0.3711318
0.37,1.3483785,3.5421486,0.6718939,0.22605431,-0.95300186,0.339536
0.372,1.5023242,3.4076672,0.5699274,0.23507914,-0.93669516,0.30959237
0.374,1.6497066,3.2759452,0.47127032,0.24412367,-0.92042184,0.2813809
0.376,1.7893394,3.1482065,0.37684828,0.25311753,-0.9043635,0.2549715
0.378,1.9177958,3.0264244,0.28648865,0.26199672,-0.88871443,0.23045969
0.38,2.0355654,2.9107013,0.20058,0.27065638,-0.8737212,0.2079387
0.382,2.1422606,2.801643,0.12117535,0.2789625,-0.85966134,0.18747692
0.384,2.2358048,2.700962,0.049918056,0.2867456,-0.846866,0.16911468
0.386,2.3153367,2.6090953,-0.0119306445,0.29379627,-0.8357307,0.15281814
0.388,2.3806667,2.5261126,-0.06388569,0.29987127,-0.82667303,0.13844499
0.39,2.4318554,2.4521422,-0.10561544,0.30469006,-0.8200916,0.12573287
0.392,2.4686894,2.3873916,-0.13648349,0.30794853,-0.81632465,0.11432865
0.394,2.4909587,2.3320322,-0.15601218,0.3093463,-0.81565124,0.10380462
0.396,2.4988766,2.285895,-0.1637978,0.3085941,-0.81825477,0.0936718
0.398,2.4929125,2.248583,-0.15962803,0.30547523,-0.8241385,0.08342658
0.4,2.4738832,2.2195635,-0.1435976,0.2998652,-0.83314884,0.072587855
0.402,2.4422781,2.1982746,-0.115293086,0.29174373,-0.8449881,0.060741663
0.404,2.3997135,2.1838472,-0.07482499,0.28118998,-0.8591995,0.0475521
0.406,2.3477175,2.175208,-0.022407115,0.26838422,-0.87515795,0.03277453
0.408,2.2877445,2.1713672,0.041617215,0.25359753,-0.89208776,0.016261965
0.41,2.221555,2.1710136,0.11665642,0.2371681,-0.9091525,-0.0020392388
0.412,2.151169,2.1729786,0.20216328,0.21946535,-0.9254801,-0.022088215
0.414,2.0785203,2.1764205,0.2971714,0.2008555,-0.94022757,-0.043803796
0.416,2.0059164,2.1801395,0.40022284,0.18167335,-0.95258635,-0.06710985
0.418,1.9358063,2.1827269,0.5098081,0.16224393,-0.9618847,-0.09195967
0.42,1.8701775,2.1829848,0.6246901,0.1428571,-0.96758825,-0.118355095
0.422,1.8112333,2.1797535,0.74345964,0.123779565,-0.96934205,-0.14635974
0.424,1.761134,2.1720057,0.86405057,0.105272025,-0.966951,-0.17610607
0.426,1.7218498,2.1586328,0.9841675,0.08759698,-0.96034855,-0.20778577
0.428,1.6947384,2.1386313,1.1013992,0.071017325,-0.9495663,-0.2415983
0.43,1.6800541,2.1115181,1.2135237,0.055802196,-0.93471915,-0.27770993
0.432,1.6785406,2.0764654,1.320199,0.0421921,-0.915962,-0.3162129
0.434,1.6923155,2.0317602,1.4202476,0.030418724,-0.89340043,-0.35707977
0.436,1.7214088,1.9767013,1.5107251,0.0206694,-0.8670871,-0.40019453
0.438,1.7652617,1.9121299,1.5895616,0.01308617,-0.83700895,-0.44532704
0.44,1.8239932,1.8386757,1.6548061,0.0077572167,-0.8030873,-0.49215886
0.442,1.8985279,1.7554734,1.7041026,0.004723817,-0.7652144,-0.540278
0.444,1.989138,1.6614687,1.735959,0.0039572865,-0.7232766,-0.58928746
0.446,2.094902,1.5563122,1.7492898,0.005427733,-0.67720735,-0.6388332
0.448,2.2150168,1.4407532,1.742868,0.00908722,-0.62709796,-0.6886622
0.45,2.348124,1.3155336,1.7150581,0.014878668,-0.5732932,-0.73866624
0.452,2.4906082,1.1824498,1.6648376,0.022745214,-0.5163921,-0.78885627
0.454,2.6389966,1.0440792,1.593579,0.032604434,-0.45727473,-0.8393328
0.456,2.790944,0.9029897,1.5018395,0.044386256,-0.39704442,-0.89033675
0.458,2.9424262,0.7623674,1.3880762,0.058088377,-0.33694816,-0.94217616
0.46,3.0911531,0.6236614,1.253823,0.073722824,-0.278275,-0.9951955
0.462,3.2343407,0.4887998,1.1023488,0.09120834,-0.22239912,-1.0497265
0.464,3.370636,0.35900223,0.93630385,0.11038287,-0.17057672,-1.1058439
0.466,3.4989085,0.23627055,0.7569327,0.1309736,-0.123906165,-1.1632807
0.468,3.617683,0.12345016,0.5625636,0.15257914,-0.08325493,-1.2215481
0.47,3.7256978,0.023563981,0.3521449,0.17478569,-0.04908985,-1.2799954
0.472,3.8224664,-0.061767697,0.12750924,0.19707514,-0.021562248,-1.3377128
0.474,3.9078498,-0.13092113,-0.10926008,0.218769,-0.00070250034,-1.3933548
0.476,3.9827452,-0.18160963,-0.3565765,0.23908803,0.013663679,-1.4450378
0.478,4.047497,-0.21090889,-0.61215264,0.25724816,0.02194959,-1.4905131
0.48,4.102704,-0.21730196,-0.87226415,0.27254635,0.024585813,-1.5273623
0.482,4.1491194,-0.20047688,-1.1333926,0.28431156,0.02170971,-1.5532202
0.484,4.1879888,-0.16033983,-1.3930949,0.2920253,0.013414323,-1.5659685
0.486,4.2206564,-0.0962224,-1.6486318,0.29561037,0.00011241436,-1.5640417
0.488,4.248137,-0.00776577,-1.8969717,0.29538554,-0.01791054,-1.5468018
0.49,4.271123,0.10474491,-2.1352515,0.2919267,-0.040645897,-1.5145719
0.492,4.2899466,0.24065089,-2.3614175,0.28605932,-0.06797418,-1.4686021
0.494,4.304593,0.39883614,-2.5736208,0.2788208,-0.0996156,-1.4110712
0.496,4.315074,0.5778291,-2.769702,0.27142873,-0.1350035,-1.3449517
0.498,4.3206835,0.7754669,-2.9481106,0.2652446,-0.17324576,-1.2737107
0.5,4.320601,0.98927236,-3.107503,0.2616219,-0.2131691,-1.2011027
0.502,4.3136315,1.2161684,-3.2468448,0.26187652,-0.25300688,-1.1307387
0.504,4.2959013,1.4538566,-3.3670464,0.26726082,-0.29013792,-1.065592
0.506,4.266369,1.6983159,-3.467836,0.27888155,-0.3212451,-1.0077184
0.508,4.226242,1.9436631,-3.5479543,0.29759943,-0.34272835,-0.95831543
0.51,4.1765203,2.1837363,-3.6091442,0.32390302,-0.35099843,-0.91773367
0.512,4.118213,2.41261,-3.6513834,0.35779858,-0.34278202,-0.8854921
0.514,4.051504,2.62535,-3.6743517,0.39874396,-0.31565952,-0.86041516
0.516,3.9777215,2.8177633,-3.6781754,0.4456293,-0.26854357,-0.84106064
0.518,3.900809,2.984877,-3.661975,0.49670666,-0.20217058,-0.8262472
0.52,3.8263474,3.1224096,-3.6233125,0.5496635,-0.119083166,-0.8151891
0.522,3.7546067,3.2301302,-3.5633636,0.60176,-0.023520619,-0.80742395
0.524,3.6828623,3.3097715,-3.4891505,0.6499934,0.07884303,-0.80285645
0.526,3.6145735,3.361221,-3.405819,0.69150144,0.18166912,-0.8018249
0.528,3.5547626,3.3836029,-3.3126864,0.7238788,0.27871194,-0.8050773
0.53,3.5063372,3.3758852,-3.2081227,0.74530286,0.3642627,-0.81350136
0.532,3.4712987,3.3361058,-3.0914595,0.75463283,0.4336879,-0.8277147
0.534,3.45212,3.262452,-2.962843,0.7515026,0.48403937,-0.8477942
0.536,3.4509687,3.155574,-2.8243232,0.7362233,0.5139775,-0.87323177
0.538,3.470644,3.018539,-2.679316,0.7097858,0.5237309,-0.9029558
0.54,3.5147476,2.8555117,-2.5303109,0.67364913,0.5145097,-0.9355074
0.542,3.5846925,2.6721692,-2.3790383,0.6296161,0.48857266,-0.9690689
0.544,3.6785288,2.4766538,-2.225277,0.5797384,0.44917494,-1.0015382
0.546,3.7948089,2.2768617,-2.0673065,0.52597713,0.3997964,-1.0308137
0.548,3.9313421,2.078927,-1.9051824,0.47008005,0.34384888,-1.0547819
0.55,4.083708,1.8886302,-1.7404172,0.41377875,0.28481776,-1.0712984
0.552,4.2458043,1.712754,-1.5755086,0.35895246,0.22636095,-1.0783737
0.554,4.412113,1.5574905,-1.4150473,0.30741546,0.17208818,-1.074207
0.556,4.5774794,1.4285479,-1.2642088,0.26082158,0.12533116,-1.0571892
0.558,4.736183,1.3308028,-1.1278276,0.22091104,0.08908668,-1.0262787
0.56,4.8823833,1.2691948,-1.0096592,0.18958113,0.0662424,-0.9814073
0.562,5.011647,1.2472599,-0.9125124,0.16872956,0.059807777,-0.92343104
0.564,5.1187105,1.2670135,-0.83938587,0.16013344,0.07259837,-0.8540774
0.566,5.1976147,1.329139,-0.7902998,0.16533329,0.10679999,-0.7760153
0.568,5.2451563,1.4327171,-0.7619317,0.18535262,0.16362202,-0.6928115
0.57,5.257304,1.5768869,-0.7527005,0.22026904,0.242866,-0.6086582
0.572,5.232489,1.7587008,-0.7604939,0.26884323,0.34254688,-0.52806747
0.574,5.1694374,1.9741925,-0.7810636,0.32828945,0.45857003,-0.45565167
0.576,5.0694356,2.2169628,-0.807979,0.39422005,0.58465636,-0.3958462
0.578,4.9362607,2.478976,-0.83246756,0.46085107,0.7125701,-0.35256898
0.58,4.7746024,2.751967,-0.8476083,0.52156687,0.8326384,-0.32883677
0.582,4.5910015,3.0284057,-0.8490095,0.5696399,0.9345722,-0.3264278
0.584,4.3924365,3.3001728,-0.831951,0.59899104,1.0084969,-0.3457004
0.586,4.1864886,3.5586944,-0.79145,0.6049247,1.0460054,-0.3855515
0.588,3.981356,3.7955449,-0.7235004,0.58472866,1.0411794,-0.44356892
0.59,3.7853725,4.0043736,-0.62525797,0.5380917,0.9916419,-0.51625717
0.592,3.6058223,4.1809883,-0.4940188,0.46695292,0.8986524,-0.5993263
0.594,3.4490755,4.3217297,-0.3267964,0.3752761,0.76745725,-0.6879494
0.596,3.320478,4.423755,-0.12219238,0.2686959,0.6068807,-0.7771582
0.598,3.2235665,4.4861064,0.11900926,0.15382439,0.42810917,-0.86232406
0.6,3.1606247,4.509734,0.3947302,0.03753361,0.24357715,-0.9392592
0.602,3.1326666,4.4967523,0.702309,-0.07383928,0.06571442,-1.004449
0.604,3.1387093,4.450326,1.0379527,-0.17520511,-0.09459819,-1.0553396
0.606,3.176097,4.3748035,1.3958005,-0.26299062,-0.22906102,-1.0903354
0.608,3.2411528,4.2754574,1.7691908,-0.33484185,-0.33222803,-1.108902
0.61,3.3292081,4.1579804,2.1506686,-0.3895683,-0.40175605,-1.1116767
0.612,3.4353423,4.028011,2.5336037,-0.4272296,-0.43821204,-1.1001098
0.614,3.5548825,3.8907163,2.911655,-0.4488097,-0.4443575,-1.0760282
0.616,3.6796498,3.7535367,3.2766013,-0.45570332,-0.42421883,-1.0415475
0.618,3.8008451,3.6246648,3.6205313,-0.44949126,-0.38211572,-0.99906075
0.62,3.912224,3.509531,3.938921,-0.43175715,-0.3217199,-0.95097613
0.622,4.0087543,3.4102879,4.226408,-0.40383136,-0.24551925,-0.89935964
0.624,4.0867214,3.327629,4.4797153,-0.36668476,-0.15470263,-0.8457366
0.626,4.1438074,3.2620358,4.6963005,-0.32094058,-0.049426645,-0.7911057
0.628,4.1764765,3.2154284,4.872407,-0.2670095,0.07070499,-0.7360426
0.63,4.1822276,3.1878428,5.0040545,-0.20527047,0.2061868,-0.6808172
0.632,4.1653624,3.1749835,5.0923543,-0.13623174,0.3571232,-0.6255401
0.634,4.13206,3.1721718,5.1438837,-0.060745478,0.5228694,-0.5703279
0.636,4.0820894,3.1781363,5.1615825,0.019982636,0.701853,-0.5154049
0.638,4.015174,3.1929274,5.142868,0.10449329,0.8917109,-0.4610963
0.64,3.934452,3.2163653,5.0860777,0.19117096,1.0894325,-0.40777278
0.642,3.843145,3.248817,4.992158,0.27839082,1.2916739,-0.3557371
0.644,3.7439497,3.2894754,4.863899,0.36460656,1.495028,-0.30518574
0.646,3.6399198,3.3348613,4.7053924,0.44825768,1.6960851,-0.25619945
0.648,3.5333934,3.380086,4.520929,0.5278256,1.8916321,-0.20878696
0.65,3.4259768,3.4204068,4.3133903,0.6019834,2.0787148,-0.1631167
0.652,3.3200507,3.451416,4.0842905,0.669607,2.2545753,-0.11950523
0.654,3.2195053,3.4685378,3.8356686,0.72964966,2.4165921,-0.0782876
0.656,3.1259859,3.4690495,3.5707617,0.78097105,2.5620215,-0.03973168
0.658,3.0407224,3.4516397,3.2935238,0.8222631,2.687758,-0.0042324066
0.66,2.965755,3.4158711,3.00934,0.85204196,2.7903297,0.027493834
0.662,2.902439,3.3615725,2.724822,0.86861295,2.8658686,0.05457878
0.664,2.8507054,3.288494,2.4473248,0.8702191,2.9104023,0.07615936
0.666,2.8104124,3.195383,2.183998,0.85529554,2.9203582,0.09147394
0.668,2.7812319,3.0808842,1.9412585,0.8226594,2.8929582,0.09988028
0.67,2.7634823,2.9437382,1.723566,0.7716867,2.826675,0.10095966
0.672,2.7556248,2.7835908,1.534393,0.70247537,2.7216363,0.0946309
0.674,2.7580914,2.599959,1.3760786,0.61594826,2.579735,0.08116782
0.676,2.7705169,2.3935785,1.2492144,0.5138496,2.4046807,0.061207354
0.678,2.789258,2.166668,1.1544485,0.39866245,2.2018204,0.035707474
0.68,2.8110232,1.9210595,1.0942104,0.27340698,1.9777145,0.005884081
0.682,2.8335073,1.6587255,1.0714598,0.14143413,1.7397256,-0.02688235
0.684,2.8582137,1.3806653,1.0844355,0.006245792,1.4955144,-0.06118387
0.686,2.886653,1.0862956,1.1291827,-0.12876183,1.2525101,-0.09587714
0.688,2.916844,0.7743641,1.2087667,-0.2604591,1.0176246,-0.13016897
0.69,2.9448059,0.4470569,1.3270634,-0.38613144,0.79693395,-0.16363661
0.692,2.972609,0.10657388,1.4786587,-0.50350237,0.5953808,-0.19630377
0.694,2.9998038,-0.24360293,1.6538717,-0.61074525,0.4167756,-0.22860417
0.696,3.0243185,-0.5999125,1.8463978,-0.7065431,0.2637053,-0.26137877
0.698,3.0473938,-0.9591737,2.0516715,-0.7901018,0.13756183,-0.29579535
0.7,3.0699816,-1.3184614,2.2612388,-0.8610347,0.03867981,-0.3332361
0.702,3.0933297,-1.6787566,2.4682348,-0.91958386,-0.03383693,-0.37519234
0.704,3.1200423,-2.0423913,2.6683595,-0.9666537,-0.081796974,-0.42288578
0.706,3.1526413,-2.409462,2.8562503,-1.003712,-0.10789597,-0.47724026
0.708,3.191049,-2.7762165,3.0263112,-1.0326095,-0.11544421,-0.53896016
0.71,3.2315636,-3.1354022,3.1756907,-1.0555114,-0.108153194,-0.6084157
0.712,3.2696562,-3.4785466,3.3026788,-1.0750177,-0.08997238,-0.6852587
0.714,3.3004904,-3.7968044,3.405836,-1.0935801,-0.064162344,-0.7683991
0.716,3.321948,-4.08315,3.48468,-1.1132208,-0.03360486,-0.8564851
0.718,3.3321638,-4.3333,3.5356767,-1.135732,-0.0012863576,-0.9479652
0.72,3.3303401,-4.5477343,3.550728,-1.1624398,0.030778527,-1.040998
0.722,3.3155112,-4.7275805,3.5188613,-1.1939301,0.06215331,-1.1335953
0.724,3.2881846,-4.8717465,3.4322824,-1.2302897,0.09277323,-1.2239914
0.726,3.2485123,-4.978105,3.2879965,-1.2713219,0.12254506,-1.3103744
0.728,3.1932907,-5.0429916,3.08798,-1.3162225,0.15231937,-1.3906099
0.73,3.1166868,-5.060527,2.8343234,-1.3633376,0.18374053,-1.4626257
0.732,3.016553,-5.0249887,2.524998,-1.4102439,0.21857975,-1.5244534
0.734,2.893558,-4.9333925,2.156844,-1.4541177,0.258546,-1.5738003
0.736,2.7449799,-4.7826777,1.7315768,-1.4919982,0.30523738,-1.6080952
0.738,2.5693374,-4.570321,1.2529995,-1.5210022,0.35985982,-1.6250347
0.74,2.3652394,-4.294381,0.7238797,-1.5385809,0.4231923,-1.6229062
0.742,2.1304379,-3.955646,0.14642745,-1.5426971,0.49569008,-1.6008826
0.744,1.8635061,-3.5590785,-0.47771236,-1.5321262,0.57725465,-1.5592139
0.746,1.5635691,-3.1125007,-1.1446984,-1.5066626,0.6669119,-1.4992857
0.748,1.2305949,-2.6262133,-1.848722,-1.4667602,0.763043,-1.4237666
0.75,0.86605906,-2.1118143,-2.5816624,-1.4132203,0.86382985,-1.3363385
0.752,0.47280094,-1.5818398,-3.3330412,-1.347118,0.9673916,-1.241204
0.754,0.05511311,-1.0492673,-4.0913644,-1.2699847,1.0721474,-1.1430445
0.756,-0.382344,-0.52675945,-4.8443246,-1.1838503,1.1770238,-1.0471735
0.758,-0.83364093,-0.026728988,-5.579338,-1.0912918,1.28131,-0.95999616
0.76,-1.2920637,0.43913907,-6.284649,-0.9954004,1.3849019,-0.88872296
0.762,-1.7513047,0.8601555,-6.949186,-0.89977425,1.4877778,-0.8405615
0.764,-2.2029436,1.2253417,-7.561482,-0.80833364,1.5889342,-0.82207537
0.766,-2.6327991,1.522394,-8.113822,-0.72496617,1.685585,-0.83856624
0.768,-3.0340095,1.7432524,-8.595474,-0.6537865,1.7724962,-0.89308137
0.77,-3.4026446,1.8840067,-8.993716,-0.598771,1.8426666,-0.98570144
0.772,-3.7275887,1.9409128,-9.304236,-0.56301504,1.8883195,-1.1134164
0.774,-3.9986525,1.9105978,-9.525905,-0.54868466,1.901017,-1.2701876
0.776,-4.2108464,1.7940764,-9.652912,-0.5570554,1.8730581,-1.4471266
0.778,-4.3617544,1.5961232,-9.684433,-0.58820516,1.8001359,-1.633184
0.78,-4.447643,1.3219821,-9.623288,-0.6409913,1.6821964,-1.8169605
0.782,-4.4647007,0.9779368,-9.473028,-0.71339244,1.5228872,-1.9883847
0.784,-4.414466,0.5739962,-9.23899,-0.802549,1.3297278,-2.1396286
0.786,-4.3001165,0.12050074,-8.928429,-0.9045562,1.1137652,-2.2660758
0.788,-4.1243057,-0.37309384,-8.549889,-1.0143961,0.88800347,-2.3670526
0.79,-3.8911831,-0.8965049,-8.114406,-1.1262802,0.6655977,-2.445271
0.792,-3.6081796,-1.4395226,-7.633809,-1.2341225,0.4585047,-2.505629
0.794,-3.2863803,-1.9920466,-7.1152477,-1.3319854,0.27640334,-2.5540395
0.796,-2.9358888,-2.5436282,-6.568182,-1.4145021,0.12606633,-2.5961657
0.798,-2.5635097,-3.085134,-6.010416,-1.477392,0.011278242,-2.6365678
0.8,-2.174995,-3.6117933,-5.460213,-1.5178385,-0.06590831,-2.6778326
0.802,-1.7829632,-4.1180396,-4.927831,-1.5347271,-0.104546756,-2.7200727
0.804,-1.3960553,-4.5986204,-4.4219646,-1.5284846,-0.10519284,-2.7614646
0.806,-1.0214279,-5.0477266,-3.9558063,-1.5005252,-0.06896466,-2.7989266
0.808,-0.66896975,-5.4595504,-3.543011,-1.4526991,0.0032114685,-2.8286963
0.81,-0.34704328,-5.828908,-3.1920543,-1.387048,0.11020547,-2.8468783
0.812,-0.06270671,-6.149254,-2.9112005,-1.3057393,0.2501726,-2.8498828
0.814,0.17721605,-6.415311,-2.7076106,-1.2109104,0.420164,-2.8353968
0.816,0.3681605,-6.626441,-2.5839674,-1.1047232,0.61580473,-2.803107
0.818,0.50977063,-6.7860136,-2.5390873,-0.98962665,0.83143926,-2.7544253
0.82,0.6051028,-6.899634,-2.5710242,-0.86858225,1.0599695,-2.6920402
0.822,0.65719724,-6.972096,-2.6757383,-0.7450538,1.2925422,-2.6196952
0.824,0.6691425,-7.0072784,-2.8457217,-0.62305886,1.5189313,-2.5416303
0.826,0.6416576,-7.0073843,-3.0705547,-0.5073001,1.7279246,-2.4621298
0.828,0.5765853,-6.9728403,-3.3347757,-0.40292084,1.9080223,-2.3854716
0.83,0.47621584,-6.9025517,-3.6191502,-0.31507438,2.048376,-2.315824
0.832,0.34405136,-6.798402,-3.9048321,-0.24855155,2.139561,-2.2570305
0.834,0.18486357,-6.6678524,-4.1772227,-0.20744008,2.1743515,-2.2122333
0.836,0.004559517,-6.5205827,-4.4271054,-0.1948095,2.1484733,-2.183586
0.838,-0.18799949,-6.3675776,-4.6492357,-0.21232384,2.06121,-2.1720777
0.84,-0.3834138,-6.219368,-4.836754,-0.25995672,1.9156911,-2.1774008
0.842,-0.57643664,-6.084297,-4.9790087,-0.3358373,1.7187849,-2.1978445
0.844,-0.7636808,-5.9688797,-5.066303,-0.43633014,1.4806472,-2.230366
0.846,-0.93954587,-5.879767,-5.0940704,-0.5563759,1.2138695,-2.27074
0.848,-1.0994778,-5.8223352,-5.059752,-0.6899455,0.93228847,-2.3139727
0.85,-1.2402413,-5.7990537,-4.961026,-0.8306215,0.6497998,-2.3549292
0.852,-1.3593583,-5.8087516,-4.7978306,-0.97195125,0.3795336,-2.3886318
0.854,-1.4557061,-5.847595,-4.5718966,-1.1079764,0.13221939,-2.4109185
0.856,-1.5294108,-5.9109473,-4.2881274,-1.2338036,-0.08443737,-2.4188983
0.858,-1.5813215,-5.9943027,-3.9538531,-1.3457887,-0.2651294,-2.4109678
0.86,-1.6133636,-6.0936937,-3.5784764,-1.4416647,-0.40744087,-2.3869736
0.862,-1.6279624,-6.2059345,-3.1722908,-1.5204448,-0.51190615,-2.3480387
0.864,-1.6282029,-6.328126,-2.7454202,-1.5822055,-0.5808721,-2.29633
0.866,-1.6166685,-6.4579334,-2.307041,-1.6278994,-0.6178151,-2.2348268
0.868,-1.5956287,-6.5933013,-1.8654246,-1.6591886,-0.6269842,-2.1667824
0.87,-1.5664368,-6.7324533,-1.4275947,-1.678084,-0.6128119,-2.095365
0.872,-1.5294566,-6.8738203,-0.9992205,-1.6867048,-0.57957834,-2.0236294
0.874,-1.4863541,-7.0147343,-0.5853602,-1.6871651,-0.5312755,-1.9542667
0.876,-1.4407778,-7.1517735,-0.18770713,-1.6815113,-0.47150898,-1.8893503
0.878,-1.3893462,-7.2845154,0.1891762,-1.6716232,-0.40346125,-1.8303969
0.88,-1.3286691,-7.4139094,0.5393307,-1.6591082,-0.32992172,-1.778457
0.882,-1.262789,-7.539019,0.8643302,-1.6453171,-0.2532703,-1.7340403
0.884,-1.1931467,-7.658057,1.1656313,-1.6313505,-0.17543232,-1.6971986
0.886,-1.1176286,-7.7717996,1.4383497,-1.6180266,-0.097857,-1.6675531
0.888,-1.034513,-7.882124,1.6816225,-1.6059082,-0.021541744,-1.6443025
0.89,-0.94597423,-7.9889016,1.8962817,-1.5953355,0.052921355,-1.6263022
0.892,-0.8541548,-8.091376,2.0803108,-1.5865073,0.12531823,-1.6121701
0.894,-0.76001155,-8.19003,2.23168,-1.5794872,0.19571647,-1.6004789
0.896,-0.66496575,-8.284735,2.3497021,-1.5742248,0.26442304,-1.5898359
0.898,-0.5715231,-8.37443,2.432191,-1.5705335,0.3319235,-1.579
0.9,-0.48370647,-8.457355,2.4760716,-1.5680647,0.39884222,-1.5669844
0.902,-0.4057777,-8.531647,2.4781625,-1.5663404,0.46589595,-1.5530463
0.904,-0.3428173,-8.594744,2.4348824,-1.5647724,0.5338143,-1.5366739
0.906,-0.2996292,-8.64426,2.344244,-1.5627121,0.60331905,-1.5176272
0.908,-0.28069615,-8.678094,2.2048938,-1.5594802,0.6750293,-1.4958965
0.91,-0.2902317,-8.694714,2.016104,-1.5544219,0.7493787,-1.4716748
0.912,-0.33157277,-8.693589,1.7768968,-1.5469538,0.8265106,-1.4454004
0.914,-0.4071766,-8.674879,1.4859947,-1.5365522,0.9062788,-1.417686
0.916,-0.518541,-8.639111,1.1421406,-1.5228002,0.9882245,-1.3893672
0.918,-0.66543615,-8.586502,0.7441911,-1.5053673,1.0715903,-1.3614604
0.92,-0.84695387,-8.516986,0.29110846,-1.4840345,1.1553352,-1.3350807
0.922,-1.0614315,-8.43056,-0.21693563,-1.4586381,1.2382243,-1.3114966
0.924,-1.3075132,-8.327578,-0.7784532,-1.429096,1.3188353,-1.2920891
0.926,-1.5830896,-8.20878,-1.3899074,-1.3953719,1.3956437,-1.2782041
0.928,-1.8828669,-8.076105,-2.048781,-1.3574802,1.4670708,-1.2711303
0.93,-2.2024665,-7.9315944,-2.7521057,-1.315474,1.531518,-1.2720255
0.932,-2.536832,-7.778123,-3.4931564,-1.2694411,1.5873241,-1.2818178
0.934,-2.87927,-7.618604,-4.2648067,-1.2195456,1.6327406,-1.3011236
0.936,-3.2247045,-7.4552197,-5.0584874,-1.1660428,1.6659517,-1.3302988
0.938,-3.5692756,-7.2904305,-5.8623133,-1.10928,1.6851029,-1.3694665
0.94,-3.9062834,-7.1267295,-6.665547,-1.0497278,1.6883864,-1.418525
0.942,-4.2270513,-6.9667325,-7.460662,-0.9878915,1.6742086,-1.4772041
0.944,-4.5247316,-6.8136044,-8.238,-0.92429143,1.6413728,-1.5450803
0.946,-4.792717,-6.6705384,-8.985564,-0.8593826,1.5892911,-1.62164
0.948,-5.0253572,-6.5399904,-9.69127,-0.79351354,1.5181756,-1.706286
0.95,-5.2185383,-6.424193,-10.342611,-0.72686327,1.4290861,-1.7983686
0.952,-5.3683023,-6.325775,-10.927482,-0.65942204,1.3239119,-1.8971623
0.954,-5.470995,-6.2468905,-11.436136,-0.591015,1.2052734,-2.0018373
0.956,-5.5245147,-6.1893215,-11.860871,-0.5213567,1.0763949,-2.1114519
0.958,-5.527896,-6.153961,-12.196325,-0.4501295,0.9408406,-2.224948
0.96,-5.4817,-6.1408772,-12.437892,-0.37701565,0.8021061,-2.3413062
0.962,-5.387266,-6.1494246,-12.581849,-0.30180472,0.66348886,-2.4594498
0.964,-5.246406,-6.178076,-12.627272,-0.224495,0.52794755,-2.5781758
0.966,-5.0607314,-6.225127,-12.575122,-0.14539912,0.39783272,-2.6963472
0.968,-4.832529,-6.2890463,-12.426827,-0.06514513,0.2750231,-2.8128793
0.97,-4.5640774,-6.3687267,-12.184756,0.015307846,0.16096227,-2.9265754
0.972,-4.258597,-6.462794,-11.853784,0.09480504,0.056582667,-3.0363915
0.974,-3.9193673,-6.5701623,-11.44039,0.17210397,-0.037716314,-3.1415043
0.976,-3.5501142,-6.6899486,-10.9530525,0.24592738,-0.121868506,-3.240987
0.978,-3.1552298,-6.820834,-10.40209,0.31500876,-0.19605418,-3.3339226
0.98,-2.740336,-6.9608316,-9.799288,0.37815964,-0.26065356,-3.4195468
0.982,-2.3107538,-7.107522,-9.157456,0.43435076,-0.31621155,-3.4972239
0.984,-1.8714302,-7.2586045,-8.48991,0.48281464,-0.36333764,-3.5663395
0.986,-1.4273579,-7.412078,-7.8098,0.5231118,-0.40278494,-3.6263742
0.988,-0.9837398,-7.5660877,-7.1296854,0.5551702,-0.43535736,-3.6769025
0.99,-0.5456821,-7.719147,-6.460803,0.5792181,-0.4619568,-3.7174957
0.992,-0.11850977,-7.8698626,-5.8130636,0.5957457,-0.48346213,-3.7475822
0.994,0.29217237,-8.017122,-5.195776,0.6055162,-0.50067157,-3.7664862
0.996,0.6815243,-8.159762,-4.6175795,0.6094874,-0.51435035,-3.7734451
0.998,1.0443833,-8.296358,-4.086066,0.60868305,-0.5252447,-3.7675865
1,1.3752723,-8.424869,-3.6076486,0.60403967,-0.53408945,-3.7478423
1.002,1.669305,-8.54355,-3.1865735,0.5963175,-0.54157555,-3.7130744
1.004,1.9216635,-8.65074,-2.8255625,0.5860307,-0.5483986,-3.6621377
1.006,2.1280255,-8.744842,-2.5266244,0.5734156,-0.5552964,-3.5939686
1.008,2.284826,-8.824418,-2.2896914,0.55844504,-0.5631092,-3.5077689
1.01,2.388859,-8.888668,-2.1129212,0.54086065,-0.572804,-3.4032354
1.012,2.4377458,-8.936826,-1.992599,0.5202476,-0.5853946,-3.2807388
1.014,2.42985,-8.968654,-1.9236541,0.49608976,-0.60179865,-3.141352
1.016,2.3640647,-8.984174,-1.8998742,0.46797675,-0.6228455,-2.9870176
1.018,2.240124,-8.983319,-1.9147027,0.43571118,-0.6492131,-2.82049
1.02,2.059297,-8.96581,-1.9614198,0.39939648,-0.68124604,-2.644954
1.022,1.8222291,-8.931862,-2.0321548,0.35941917,-0.7189816,-2.4639416
1.024,1.5314237,-8.882584,-2.120567,0.31649667,-0.7620913,-2.2811904
1.026,1.1890908,-8.818884,-2.2192273,0.27154294,-0.8098021,-2.1001892
1.028,0.7985187,-8.742299,-2.32073,0.22561051,-0.8609684,-1.9240497
1.03,0.36453775,-8.655081,-2.417601,0.17988189,-0.9143754,-1.7556514
1.032,-0.10675209,-8.559986,-2.5036438,0.13560885,-0.9687635,-1.597438
1.034,-0.6081716,-8.460264,-2.57457,0.09398741,-1.0228862,-1.4513392
1.036,-1.1330103,-8.359024,-2.6275196,0.056068424,-1.0754818,-1.3188695
1.038,-1.6761665,-8.258803,-2.658533,0.022720087,-1.1252339,-1.20119
1.04,-2.230504,-8.162154,-2.664325,-0.0053322557,-1.1705867,-1.0990561
1.042,-2.788797,-8.070921,-2.6446552,-0.02743527,-1.2098404,-1.0129035
1.044,-3.344183,-7.9870543,-2.5993366,-0.042939335,-1.2410781,-0.9428595
1.046,-3.8870893,-7.9129715,-2.5299253,-0.05121093,-1.2622666,-0.8887586
1.048,-4.407445,-7.850875,-2.4404209,-0.051651962,-1.271301,-0.8500868
1.05,-4.8982825,-7.802592,-2.3331745,-0.043693006,-1.2661365,-0.82600987
1.052,-5.354105,-7.769635,-2.2080755,-0.026811749,-1.2449434,-0.81555927
1.054,-5.767825,-7.7528563,-2.0684028,-0.00059382245,-1.206378,-0.8176878
1.056,-6.1324906,-7.7530437,-1.9197766,0.03526686,-1.1496348,-0.8312762
1.058,-6.441274,-7.771264,-1.7676282,0.08084425,-1.0745355,-0.8552689
1.06,-6.688027,-7.8079963,-1.617591,0.13591398,-0.9816853,-0.8887169
1.062,-6.8673716,-7.8634005,-1.4749141,0.1999118,-0.87254006,-0.930736
1.064,-6.975819,-7.9373193,-1.3421755,0.2719538,-0.7494001,-0.9805201
1.066,-7.0096545,-8.030055,-1.2194564,0.3508449,-0.61535954,-1.0373231
1.068,-6.9659076,-8.142391,-1.1059333,0.4351303,-0.47418302,-1.1004841
1.07,-6.8432026,-8.274578,-1.0018427,0.5231347,-0.33019462,-1.1694008
1.072,-6.64154,-8.426623,-0.9085192,0.61305,-0.18805595,-1.2434976
1.074,-6.36298,-8.598239,-0.82653296,0.70301634,-0.052500807,-1.3221655
1.076,-6.011331,-8.788344,-0.7555396,0.79121846,0.07182434,-1.4046414
1.078,-5.5919394,-8.994495,-0.69470185,0.8759243,0.18071693,-1.4898747
1.08,-5.110188,-9.214192,-0.6417166,0.96131134,0.26903245,-1.5764776
1.082,-4.5724707,-9.444269,-0.58924115,1.038341,0.33653444,-1.6626545
1.084,-3.9876862,-9.680954,-0.5306115,1.1097193,0.3806039,-1.7462033
1.086,-3.3637023,-9.920796,-0.46056297,1.1750777,0.40067402,-1.8246173
1.088,-2.7093005,-10.160543,-0.37546802,1.2341988,0.39728242,-1.895327
1.09,-2.0322413,-10.397526,-0.27023312,1.2868079,0.37180543,-1.9559795
1.092,-1.3418483,-10.628597,-0.14009589,1.3324466,0.32641587,-2.0045996
1.094,-0.64781415,-10.850201,0.019741774,1.3703527,0.263869,-2.0397754
1.096,0.04054141,-11.0588,0.21363431,1.3993884,0.18728566,-2.0607421
1.098,0.7146103,-11.250942,0.44484907,1.418058,0.09999554,-2.0674508
1.1,1.3661934,-11.424001,0.71508676,1.4246565,0.0053516105,-2.060528
1.102,1.9883069,-11.575805,1.0251542,1.4174792,-0.09340654,-2.041102
1.104,2.5746846,-11.704823,1.3754784,1.395096,-0.1932563,-2.0106382
1.106,3.1194692,-11.809834,1.765687,1.3566713,-0.29147166,-1.9707524
1.108,3.6179485,-11.890146,2.1947117,1.3021511,-0.38561952,-1.9231498
1.11,4.0665727,-11.945655,2.6597667,1.2322383,-0.4736911,-1.8695371
1.112,4.4625864,-11.976597,3.155759,1.1483867,-0.553957,-1.8115551
1.114,4.804591,-11.983639,3.6765778,1.0526553,-0.6246342,-1.7507042
1.116,5.0920925,-11.967279,4.21586,0.9474053,-0.6838734,-1.6883117
1.118,5.322074,-11.927946,4.764824,0.8349234,-0.7301166,-1.6255553
1.12,5.495633,-11.868459,5.317493,0.7172781,-0.7619245,-1.5634584
1.122,5.6189995,-11.791623,5.8671494,0.5961313,-0.77803695,-1.502824
1.124,5.693048,-11.698284,6.402084,0.4726378,-0.7774228,-1.4443396
1.126,5.72013,-11.588358,6.914851,0.34746698,-0.75939524,-1.388583
1.128,5.7031164,-11.462277,7.3995047,0.2209192,-0.7237235,-1.3360316
1.13,5.6437488,-11.320438,7.850678,0.09302152,-0.6706909,-1.2870692
1.132,5.5448866,-11.162583,8.262571,-0.03631053,-0.60123456,-1.241985
1.134,5.409079,-10.988127,8.630504,-0.17057605,-0.51602167,-1.200963
1.136,5.2406197,-10.796952,8.949381,-0.3018095,-0.4198623,-1.1641128
1.138,5.043129,-10.588239,9.217211,-0.43560803,-0.3143507,-1.1315111
1.14,4.820378,-10.360726,9.434628,-0.57200485,-0.20342767,-1.1032419
1.142,4.5760756,-10.113011,9.604495,-0.71118826,-0.09158656,-1.0793651
1.144,4.314725,-9.843879,9.731658,-0.85347754,0.016433105,-1.0599033
1.146,4.0415554,-9.552362,9.822138,-0.9993791,0.11590828,-1.0448751
1.148,3.7619066,-9.237097,9.883102,-1.1496128,0.20235276,-1.0342407
1.15,3.4820695,-8.8968315,9.923141,-1.3051206,0.27170843,-1.0277841
1.152,3.2086058,-8.5306835,9.9521475,-1.4667363,0.3212402,-1.0249617
1.154,2.948363,-8.137739,9.981125,-1.6353452,0.34915864,-1.024987
1.156,2.7085083,-7.716817,10.021449,-1.8119353,0.35450107,-1.0269139
1.158,2.4956865,-7.2660456,10.085048,-1.9973749,0.33757898,-1.0294318
1.16,2.316928,-6.7832327,10.183465,-2.1924381,0.29955733,-1.0309106
1.162,2.1788855,-6.2658925,10.327463,-2.3978183,0.24228957,-1.0294479
1.164,2.0879724,-5.7114244,10.527058,-2.614091,0.16818607,-1.0229051
1.166,2.0496373,-5.1170964,10.790974,-2.8417807,0.07991862,-1.0090443
1.168,2.0683897,-4.4805207,11.126364,-3.0813677,-0.01971215,-0.9857748
1.17,2.1481397,-3.7994394,11.539088,-3.3331866,-0.12762481,-0.95130694
1.172,2.290647,-3.0709016,12.032934,-3.597457,-0.2403096,-0.90429413
1.174,2.4962082,-2.2922482,12.60919,-3.8743508,-0.35424733,-0.8440456
1.176,2.7628932,-1.4606464,13.266109,-4.1639056,-0.46586767,-0.7706194
1.178,3.0869875,-0.57324207,14.000595,-4.4658628,-0.5716426,-0.68485624
1.18,3.4638858,0.37219793,14.807748,-4.7796073,-0.6680764,-0.58847815
1.182,3.8869581,1.3775661,15.681764,-5.104063,-0.75176257,-0.4840395
1.184,4.3481736,2.4445338,16.614801,-5.437601,-0.8193673,-0.37481695
1.186,4.837868,3.5740595,17.59608,-5.7780347,-0.8676462,-0.26454648
1.188,5.3465905,4.7655888,18.61219,-6.122578,-0.8934859,-0.15723118
1.19,5.863012,6.0185685,19.648197,-6.4679875,-0.89396054,-0.056865007
1.192,6.3768415,7.330745,20.686026,-6.8106437,-0.86638594,0.032881588
1.194,6.879268,8.698524,21.709558,-7.1467566,-0.8084899,0.10884155
1.196,7.360157,10.117421,22.704632,-7.4725533,-0.7184619,0.1684543
1.198,7.8105783,11.581823,23.657997,-7.7844863,-0.5950943,0.20981386
1.2,8.221556,13.085428,24.55392,-8.079444,-0.43803036,0.23165289
1.202,8.586338,14.620769,25.376589,-8.354785,-0.24765229,0.23336613
1.204,8.899546,16.17942,26.110418,-8.608367,-0.02507925,0.21483845
1.206,9.157358,17.752493,26.741741,-8.838762,0.22733545,0.17634356
1.208,9.357443,19.330427,27.25911,-9.044995,0.50676084,0.1186654
1.21,9.499088,20.903708,27.653162,-9.226566,0.8099419,0.043068767
1.212,9.582537,22.462608,27.916403,-9.383611,1.1328734,-0.04897064
1.214,9.609398,23.997807,28.043339,-9.516775,1.4713293,-0.15578127
1.216,9.582785,25.49946,28.031256,-9.627213,1.8209361,-0.2755643
1.218,9.506688,26.958147,27.879948,-9.716653,2.1773038,-0.4064771
1.22,9.385673,28.36506,27.592096,-9.787299,2.5362372,-0.5466428
1.222,9.224784,29.712444,27.17308,-9.841819,2.8937635,-0.69426966
1.224,9.029071,30.994055,26.629745,-9.883271,3.2461991,-0.8477386
1.226,8.803988,32.20408,25.970684,-9.914886,3.5903196,-1.0055904
1.228,8.557309,33.33765,25.207191,-9.939953,3.9234047,-1.166533
1.23,8.292935,34.392944,24.349468,-9.961696,4.2431345,-1.3295271
1.232,8.011707,35.36839,23.410103,-9.983156,4.5476303,-1.4937267
1.234,7.7208166,36.261925,22.40662,-10.007059,4.8352933,-1.658406
1.236,7.4252815,37.07189,21.352837,-10.035749,5.1048245,-1.8229704
1.238,7.1298857,37.79853,20.262302,-10.071014,5.355193,-1.9869449
1.24,6.839674,38.443024,19.149649,-10.114043,5.5856,-2.150008
1.242,6.558654,39.007893,18.029232,-10.16539,5.795451,-2.3118641
1.244,6.289668,39.4966,16.915417,-10.224995,5.9843388,-2.4722528
1.246,6.034588,39.9134,15.821325,-10.292263,6.1520057,-2.6309583
1.248,5.7951612,40.262375,14.756993,-10.366133,6.298358,-2.7877803
1.25,5.572755,40.547684,13.730611,-10.445169,6.423394,-2.9425042
1.252,5.3684273,40.77352,12.749731,-10.527662,6.5272794,-3.0949159
1.254,5.182949,40.94406,11.821051,-10.611691,6.610344,-3.2448244
1.256,5.016329,41.063416,10.950257,-10.695251,6.6730027,-3.392129
1.258,4.8680573,41.1351,10.140915,-10.776327,6.715791,-3.5367126
1.26,4.7362385,41.16278,9.394197,-10.852926,6.7394,-3.678496
1.262,4.618272,41.150307,8.709169,-10.923195,6.744732,-3.8174195
1.264,4.5112677,41.101982,8.083435,-10.985394,6.7329497,-3.9534535
1.266,4.4114723,41.02127,7.514168,-11.037968,6.7054443,-4.086572
1.268,4.31608,40.91127,6.997299,-11.079601,6.663863,-4.2167153
1.27,4.2215805,40.775,6.5283356,-11.109207,6.610113,-4.343733
1.272,4.124468,40.615273,6.101987,-11.125943,6.5463533,-4.4674077
1.274,4.021366,40.43498,5.7118874,-11.129276,6.474989,-4.587531
1.276,3.90909,40.236496,5.351143,-11.118962,6.3985996,-4.7038565
1.278,3.7849903,40.022552,5.012929,-11.095007,6.319963,-4.8161488
1.28,3.6470127,39.795727,4.690487,-11.057662,6.2419734,-4.924224
1.282,3.4936619,39.558743,4.377432,-11.00742,6.1676354,-5.027956
1.284,3.3250437,39.314,4.0671654,-10.944979,6.1000123,-5.127221
1.286,3.141409,39.063877,3.7538862,-10.871248,6.0420856,-5.2219048
1.288,2.9437847,38.81064,3.4323902,-10.78734,5.9967237,-5.311894
1.29,2.7339067,38.556973,3.0980344,-10.694506,5.966606,-5.3970947
1.292,2.5146475,38.3053,2.746913,-10.59414,5.9540653,-5.4773884
1.294,2.2895193,38.05715,2.3765306,-10.487692,5.961013,-5.5527163
1.296,2.0631437,37.814175,1.9855127,-10.3766165,5.9890547,-5.623106
1.298,1.8402905,37.578552,1.5732846,-10.262287,6.0394096,-5.6886177
1.3,1.6260514,37.35213,1.1391611,-10.14592,6.1128864,-5.7494183
1.302,1.4259357,37.136726,0.68292475,-10.0285635,6.209815,-5.8057876
1.304,1.2452826,36.934113,0.20511675,-9.911069,6.3300767,-5.858141
1.306,1.0894799,36.74599,-0.29351425,-9.794106,6.4731326,-5.9070625
1.308,0.96398735,36.573517,-0.81128883,-9.678122,6.638015,-5.9532857
1.31,0.873755,36.41777,-1.346235,-9.563404,6.823429,-5.9976344
1.312,0.82299685,36.27903,-1.8963611,-9.450036,7.027749,-6.0410423
1.314,0.81506324,36.157597,-2.4602003,-9.337909,7.249105,-6.084514
1.316,0.85228956,36.053337,-3.037086,-9.2267,7.485351,-6.1290827
1.318,0.93609416,35.965973,-3.6267464,-9.115899,7.7342463,-6.1756477
1.32,1.0668752,35.894722,-4.2286887,-9.0048065,7.9934897,-6.2249727
1.322,1.2442048,35.838104,-4.841976,-8.892549,8.260694,-6.277686
1.324,1.4663203,35.793938,-5.465722,-8.77809,8.533456,-6.334231
1.326,1.7307546,35.759342,-6.099744,-8.660202,8.809369,-6.3947506
1.328,2.033132,35.731365,-6.7440825,-8.537519,9.085967,-6.4591627
1.33,2.3688998,35.706425,-7.3994236,-8.40863,9.360679,-6.527185
1.332,2.732276,35.680763,-8.066283,-8.272104,9.630754,-6.5983744
1.334,3.1174994,35.649994,-8.745237,-8.126586,9.893263,-6.672184
1.336,3.5187645,35.609398,-9.436481,-7.970804,10.1450815,-6.7480693
1.338,3.9300113,35.55376,-10.139667,-7.803657,10.382946,-6.8255167
1.34,4.345129,35.478058,-10.85429,-7.6242266,10.603602,-6.904073
1.342,4.7580924,35.37705,-11.5798645,-7.4318323,10.803823,-6.983345
1.344,5.1635675,35.245403,-12.3155155,-7.226062,10.980591,-7.0630054
1.346,5.556281,35.078312,-13.059931,-7.0067954,11.131249,-7.142751
1.348,5.93141,34.871376,-13.811763,-6.7741957,11.253608,-7.2222342
1.35,6.284705,34.62074,-14.569314,-6.5287094,11.345909,-7.301015
1.352,6.6130695,34.32296,-15.33,-6.27106,11.40692,-7.3785844
1.354,6.913847,33.97535,-16.090923,-6.002252,11.435958,-7.4542685
1.356,7.1850777,33.57597,-16.849361,-5.723569,11.432845,-7.527218
1.358,7.4254675,33.124043,-17.60238,-5.4365115,11.39779,-7.5964093
1.36,7.6345873,32.61965,-18.346996,-5.1427727,11.331284,-7.6606636
1.362,7.812827,32.06398,-19.080326,-4.8441997,11.234055,-7.7187266
1.364,7.9609833,31.459028,-19.799427,-4.54276,11.106994,-7.769382
1.366,8.080792,30.807346,-20.50142,-4.240452,10.951106,-7.8114905
1.368,8.174281,30.112322,-21.183054,-3.9392505,10.7676115,-7.843999
1.37,8.244296,29.377983,-21.841248,-3.641008,10.557856,-7.8660445
1.372,8.294045,28.609102,-22.47309,-3.3474119,10.323266,-7.8770266
1.374,8.326769,27.81041,-23.076115,-3.0599513,10.065354,-7.8766036
1.376,8.346006,26.987654,-23.648256,-2.7798743,9.785779,-7.864668
1.378,8.3552685,26.146595,-24.187536,-2.5082154,9.486221,-7.8414154
1.38,8.358191,25.292912,-24.692123,-2.2458174,9.168272,-7.8073497
1.382,8.358706,24.432312,-25.15986,-1.9933188,8.833474,-7.763164
1.384,8.360225,23.570244,-25.58853,-1.7511675,8.483249,-7.709695
1.386,8.366182,22.71215,-25.976162,-1.5196471,8.11889,-7.64793
1.388,8.379435,21.86308,-26.321526,-1.2988865,7.741553,-7.5789304
1.39,8.402793,21.027414,-26.62382,-1.0888638,7.3522334,-7.5037427
1.392,8.438454,20.208916,-26.882305,-0.8894639,6.951884,-7.4233828
1.394,8.487908,19.41161,-27.096004,-0.70043755,6.54144,-7.3387985
1.396,8.552856,18.63882,-27.264626,-0.52145267,6.121916,-7.2508435
1.398,8.634577,17.8933,-27.388298,-0.35209727,5.6944222,-7.1602783
1.4,8.733359,17.1771,-27.467468,-0.19186544,5.2602553,-7.0677853
1.402,8.848758,16.491856,-27.503725,-0.04016435,4.8208904,-6.973974
1.404,8.979639,15.839896,-27.498566,0.103663445,4.377926,-6.879436
1.406,9.123749,15.222587,-27.454462,0.24034178,3.9330606,-6.784755
1.408,9.278374,14.640439,-27.374197,0.37062752,3.4881012,-6.6905313
1.41,9.440616,14.093779,-27.260084,0.49534667,3.0449061,-6.597392
1.412,9.606734,13.5826845,-27.114756,0.61533237,2.605405,-6.5059395
1.414,9.773074,13.106902,-26.941444,0.7314368,2.171511,-6.416739
1.416,9.93582,12.665955,-26.743301,0.84443945,1.7450607,-6.3302455
1.418,10.091053,12.259278,-26.524164,0.9550329,1.327775,-6.2467484
1.42,10.235215,11.885774,-26.287899,1.0638117,0.92118263,-6.166385
1.422,10.364876,11.544674,-26.038435,1.1712234,0.52660763,-6.0891137
1.424,10.477091,11.2348795,-25.779543,1.2776029,0.1451797,-6.0147557
1.426,10.569452,10.95527,-25.514671,1.3831373,-0.222212,-5.943006
1.428,10.640337,10.704559,-25.246836,1.4878818,-0.5749308,-5.8734894
1.43,10.688371,10.481297,-24.979296,1.5917687,-0.91257715,-5.805788
1.432,10.713322,10.284255,-24.71547,1.6946288,-1.2349365,-5.7395
1.434,10.715729,10.112379,-24.458088,1.7962065,-1.5419722,-5.6742973
1.436,10.696207,9.965092,-24.209505,1.896184,-1.8337295,-5.6099133
1.438,10.656727,9.841562,-23.972004,1.9942044,-2.1104527,-5.546161
1.44,10.599233,9.741053,-23.747036,2.0898898,-2.3724964,-5.4828997
1.442,10.526333,9.662713,-23.53593,2.1828697,-2.6203165,-5.420008
1.444,10.440578,9.606001,-23.339323,2.2728026,-2.8545349,-5.35743
1.446,10.344721,9.570641,-23.157852,2.3593588,-3.0759568,-5.295147
1.448,10.241949,9.556526,-22.99176,2.442222,-3.2855687,-5.2331696
1.45,10.135443,9.563465,-22.841005,2.5211296,-3.484507,-5.171574
1.452,10.028347,9.5914135,-22.704817,2.595881,-3.6739788,-5.1105113
1.454,9.923483,9.64015,-22.581945,2.6663265,-3.855245,-5.0502267
1.456,9.82362,9.709297,-22.47084,2.7323723,-4.02954,-4.9910173
1.458,9.731195,9.798736,-22.369713,2.793991,-4.1979713,-4.933219
1.46,9.648605,9.908177,-22.276934,2.8512056,-4.3615446,-4.8772125
1.462,9.577618,10.037043,-22.190266,2.9040833,-4.521152,-4.823433
1.464,9.51923,10.184857,-22.107672,2.9527144,-4.6775618,-4.772363
1.466,9.474205,10.351039,-22.026371,2.9971952,-4.8314114,-4.7245135
1.468,9.442571,10.534983,-21.94345,3.0376163,-4.983262,-4.6804013
1.47,9.423992,10.735796,-21.856129,3.0741196,-5.133573,-4.640594
1.472,9.417721,10.952222,-21.761936,3.1068745,-5.2827196,-4.6056466
1.474,9.422602,11.182963,-21.658283,3.1360435,-5.430981,-4.576129
1.476,9.436844,11.426545,-21.542564,3.1618147,-5.578535,-4.552585
1.478,9.458517,11.681723,-21.412651,3.1843877,-5.725463,-4.5354695
1.48,9.485303,11.94701,-21.266483,3.203991,-5.871672,-4.5251527
1.482,9.514727,12.220686,-21.10199,3.220851,-6.016916,-4.5218863
1.484,9.544242,12.501095,-20.917267,3.2352042,-6.160798,-4.5257945
1.486,9.570979,12.786311,-20.710552,3.2472696,-6.302759,-4.536856
1.488,9.592059,13.074627,-20.4803,3.2572126,-6.442121,-4.5548944
1.49,9.60458,13.364342,-20.22543,3.2651596,-6.5780964,-4.5796275
1.492,9.605902,13.6537285,-19.945639,3.2711926,-6.7097187,-4.6107078
1.494,9.593821,13.940828,-19.640589,3.2753763,-6.8359523,-4.647729
1.496,9.565996,14.223927,-19.310165,3.2777672,-6.9556684,-4.6902866
1.498,9.520699,14.501265,-18.954641,3.2784297,-7.0676074,-4.7379446
1.5,9.456345,14.771441,-18.574493,3.2774754,-7.17042,-4.7902856
1.502,9.371817,15.033236,-18.170872,3.2750385,-7.262683,-4.8469286
1.504,9.266291,15.28536,-17.74514,3.271299,-7.3429213,-4.9075136
1.506,9.139349,15.526907,-17.298433,3.2664251,-7.4096713,-4.9716883
1.508,8.990986,15.757019,-16.832314,3.2605975,-7.46144,-5.039113
1.51,8.82197,15.975031,-16.348598,3.254004,-7.4967585,-5.109475
1.512,8.633347,16.180502,-15.848764,3.2468157,-7.5142393,-5.1825113
1.514,8.426881,16.37294,-15.335511,3.2391677,-7.5125694,-5.257986
1.516,8.204758,16.552479,-14.810854,3.2311883,-7.490509,-5.335683
1.518,7.969503,16.719532,-14.277237,3.2229414,-7.4469304,-5.41542
1.52,7.723921,16.874418,-13.737754,3.214498,-7.38083,-5.4970675
1.522,7.471161,17.017681,-13.195076,3.2058516,-7.2913203,-5.580575
1.524,7.21476,17.150127,-12.651943,3.196946,-7.1776934,-5.6659656
1.526,6.9581356,17.272888,-12.111427,3.187693,-7.03942,-5.753347
1.528,6.705389,17.386951,-11.576379,3.177972,-6.876148,-5.842906
1.53,6.4606915,17.493738,-11.0493145,3.1676433,-6.6877303,-5.934914
1.532,6.2282014,17.594618,-10.532553,3.1565454,-6.4741454,-6.029722
1.534,6.0123734,17.691364,-10.028692,3.14448,-6.235546,-6.127737
1.536,5.818018,17.78558,-9.5407505,3.1312168,-5.9722376,-6.229414
1.538,5.6497087,17.879194,-9.07188,3.11651,-5.6846,-6.335246
1.54,5.5124693,17.974436,-8.624519,3.100111,-5.3731217,-6.4457307
1.542,5.4110136,18.073439,-8.200994,3.0818145,-5.038355,-6.5613265
1.544,5.3501606,18.178333,-7.8033867,3.0614276,-4.680929,-6.6824064
1.546,5.3343897,18.29105,-7.4338527,3.0387979,-4.301595,-6.809262
1.548,5.368413,18.413424,-7.0943513,3.013823,-3.9011645,-6.9421444
1.55,5.456598,18.5473,-6.786389,2.9864817,-3.480591,-7.0812306
1.552,5.6021247,18.694855,-6.512004,2.956831,-3.0409799,-7.2266483
1.554,5.808377,18.858084,-6.272279,2.9250224,-2.5835476,-7.378464
1.556,6.078349,19.038733,-6.067716,2.8912938,-2.1096694,-7.536694
1.558,6.4140983,19.238358,-5.899041,2.8559766,-1.6208432,-7.701331
1.56,6.817291,19.458157,-5.766427,2.8195207,-1.1186589,-7.872333
1.562,7.2886815,19.699324,-5.6693363,2.782442,-0.60481834,-8.049586
1.564,7.8284616,19.963531,-5.606803,2.7453241,-0.08109164,-8.2328825
1.566,8.436085,20.252234,-5.57804,2.7088,0.45073128,-8.421886
1.568,9.110521,20.566286,-5.581835,2.6735215,0.9888251,-8.616162
1.57,9.849838,20.906546,-5.616853,2.640106,1.5313311,-8.815111
1.572,10.651883,21.273916,-5.6821537,2.609178,2.0764716,-9.018044
1.574,11.514052,21.669157,-5.775978,2.5812922,2.6225324,-9.22418
1.576,12.4329195,22.092783,-5.89644,2.5569723,3.167967,-9.432621
1.578,13.404507,22.54509,-6.04146,2.5366764,3.7113726,-9.642357
1.58,14.424114,23.026672,-6.209438,2.5208,4.2516975,-9.8523245
1.582,15.486847,23.537996,-6.3985653,2.5097013,4.788068,-10.061375
1.584,16.587397,24.07897,-6.6060634,2.5036478,5.319814,-10.268314
1.586,17.719938,24.649384,-6.829356,2.5028737,5.846587,-10.471855
1.588,18.878574,25.24834,-7.066025,2.507584,6.368319,-10.670654
1.59,20.056973,25.874664,-7.314108,2.5179646,6.8851457,-10.863312
1.592,21.248932,26.527248,-7.5711765,2.5341551,7.397333,-11.048315
1.594,22.448608,27.204361,-7.8346987,2.5562813,7.905284,-11.224027
1.596,23.650158,27.903976,-8.102097,2.5844295,8.409442,-11.38879
1.598,24.84832,28.62354,-8.370841,2.6186726,8.910303,-11.540922
1.6,26.037992,29.360052,-8.638184,2.6590996,9.408402,-11.678735
1.602,27.215229,30.109901,-8.901512,2.7057788,9.904373,-11.800495
1.604,28.376297,30.869434,-9.157858,2.758758,10.398985,-11.904513
1.606,29.51764,31.634651,-9.404385,2.8180618,10.89317,-11.989165
1.608,30.637054,32.40091,-9.638808,2.8837295,11.3881035,-12.052875
1.61,31.7331,33.16333,-9.859016,2.955843,11.885241,-12.094177
1.612,32.805412,33.916695,-10.062815,3.0343857,12.38618,-12.111716
1.614,33.854446,34.655838,-10.24808,3.1193037,12.892563,-12.104355
1.616,34.881577,35.375683,-10.412897,3.2105207,13.406154,-12.071163
1.618,35.88892,36.071255,-10.555352,3.3078794,13.928522,-12.0114975
1.62,36.879406,36.737816,-10.673751,3.4111214,14.460735,-11.925031
1.622,37.857212,37.37056,-10.767153,3.5198708,15.00329,-11.811743
1.624,38.826912,37.965073,-10.834847,3.633586,15.555965,-11.672079
1.626,39.792984,38.517696,-10.877047,3.7515368,16.117668,-11.506811
1.628,40.760944,39.02585,-10.893555,3.8728585,16.686527,-11.317107
1.63,41.73984,39.484505,-10.88436,3.99651,17.259922,-11.104487
1.632,42.736015,39.89199,-10.848616,4.1212482,17.83459,-10.870774
1.634,43.75316,40.2488,-10.790388,4.2456217,18.406796,-10.617953
1.636,44.80024,40.55291,-10.712719,4.368049,18.972664,-10.34814
1.638,45.883705,40.803963,-10.617319,4.486822,19.528332,-10.063426
1.64,47.009087,41.002205,-10.506775,4.6000705,20.069912,-9.76585
1.642,48.183582,41.147842,-10.385468,4.7058396,20.593822,-9.457211
1.644,49.413254,41.241463,-10.25745,4.802152,21.0969,-9.139145
1.646,50.702835,41.284683,-10.126089,4.887085,21.5764,-8.813178
1.648,52.0566,41.279236,-9.994518,4.958787,22.029926,-8.480619
1.65,53.47855,41.22707,-9.866892,5.0156083,22.455505,-8.142612
1.652,54.97193,41.130325,-9.748404,5.056018,22.85139,-7.800105
1.654,56.540573,40.990097,-9.644743,5.078671,23.215946,-7.453948
1.656,58.187958,40.807816,-9.559553,5.082426,23.54759,-7.105013
1.658,59.91651,40.584576,-9.496279,5.066293,23.844833,-6.754072
1.66,61.728,40.321907,-9.457108,5.029153,24.105963,-6.401744
1.662,63.624386,40.019276,-9.442692,4.9698515,24.329613,-6.048358
1.664,65.60759,39.676186,-9.453482,4.8876324,24.514965,-5.6945715
1.666,67.679855,39.293633,-9.490324,4.78161,24.661182,-5.341241
1.668,69.84264,38.873653,-9.553677,4.6505804,24.76771,-4.9888706
1.67,72.09926,38.41816,-9.64374,4.493326,24.835054,-4.637829
1.672,74.453926,37.92965,-9.760052,4.3086495,24.86486,-4.288534
1.674,76.911476,37.411484,-9.901596,4.095262,24.859665,-3.941494
1.676,79.47478,36.86943,-10.06567,3.8517108,24.822842,-3.5970392
1.678,82.14946,36.309097,-10.249577,3.5765147,24.758865,-3.2551985
1.68,84.94197,35.737114,-10.452766,3.268211,24.673073,-2.915782
1.682,87.859566,35.163925,-10.678486,2.9253335,24.571335,-2.578333
1.684,90.90663,34.60987,-10.93364,2.5464625,24.459864,-2.2420645
1.686,94.08421,34.094093,-11.220005,2.1302686,24.344957,-1.9057055
1.688,97.39456,33.628777,-11.530823,1.6756496,24.23279,-1.5676122
1.69,100.836395,33.235275,-11.859318,1.1816025,24.12891,-1.225709
1.692,104.41298,32.94455,-12.196213,0.6474142,24.038204,-0.8774543
1.694,108.12167,32.794693,-12.544235,0.07273245,23.96494,-0.5198283
1.696,111.96025,32.814507,-12.908081,-0.5424409,23.912554,-0.14948273
1.698,115.92399,33.048744,-13.296268,-1.1976829,23.88351,0.23707819
1.7,120.00638,33.546253,-13.722885,-1.8921161,23.879137,0.6434119
1.702,124.19672,34.365704,-14.199295,-2.624258,23.899683,1.0730584
1.704,128.49716,35.54078,-14.734909,-3.392048,23.944275,1.5293489
1.706,132.87993,37.139854,-15.34367,-4.192778,24.01098,2.0150728
1.708,137.33762,39.181004,-16.013931,-5.02328,24.09669,2.5323865
1.71,141.86092,41.679337,-16.699928,-5.879977,24.197174,3.083025
1.712,146.5028,44.626495,-17.503431,-6.7587914,24.306828,3.6679397
1.714,151.20523,48.089886,-18.492466,-7.6560655,24.41671,4.2860794
1.716,155.90363,52.085262,-19.64094,-8.569641,24.51382,4.9352145
1.718,160.60635,56.72054,-20.913586,-9.499289,24.582598,5.613163
1.72,165.32526,62.093582,-22.265808,-10.445319,24.604773,6.3176036
1.722,170.01854,68.097755,-23.674923,-11.409391,24.55831,7.0457845
1.724,174.67622,74.70224,-25.124893,-12.3955765,24.416769,7.7952247
1.726,179.29266,81.856384,-26.553507,-13.410234,24.14995,8.565762
1.728,183.8737,89.51111,-27.922255,-14.461153,23.723732,9.360102
1.73,188.44196,97.63642,-29.24823,-15.557314,23.101717,10.182058
1.732,193.01537,106.151115,-30.478603,-16.708069,22.246605,11.037881
1.734,197.61777,114.957565,-31.55169,-17.921244,21.12301,11.940049
1.736,202.284,123.96313,-32.43283,-19.20087,19.697906,12.903848
1.738,207.04524,133.04256,-33.045155,-20.548363,17.938538,13.9483795
1.74,211.89555,142.0717,-33.300972,-21.957815,15.822728,15.105384
1.742,216.7992,150.92378,-33.104397,-23.414656,13.348355,16.389288
1.744,221.75543,159.46765,-32.36824,-24.901371,10.51797,17.821487
1.746,226.61952,167.5088,-31.001858,-26.399614,7.355195,19.42564
1.748,231.44939,174.6742,-29.000366,-27.878178,4.0321684,20.96566
1.75,236.39761,180.922,-26.1842,-29.367828,0.5316706,22.491081
1.752,241.29184,186.28647,-22.461803,-30.89095,-3.2247233,24.154549
1.754,246.12889,190.61893,-17.74401,-32.39305,-7.0846233,25.734846
1.756,250.83658,193.79044,-11.9748535,-33.854782,-10.928017,27.0965
1.758,255.34824,195.69814,-5.1381607,-35.296066,-14.657138,28.125578
1.76,259.5454,196.2872,2.7766142,-36.742596,-18.198254,28.703478
1.762,263.2937,195.54663,11.752009,-38.2036,-21.500011,28.728708
1.764,266.45288,193.5066,21.733652,-39.678566,-24.548988,28.122862
1.766,268.88724,190.23828,32.618584,-41.152905,-27.367924,26.843634
1.768,270.48468,185.82333,44.26879,-42.583824,-30.013252,24.893082
1.77,271.18726,180.31026,56.528316,-43.89299,-32.560406,22.311605
1.772,270.90414,173.80061,69.26728,-44.96627,-35.0786,19.16986
1.774,269.5237,166.45692,82.31437,-45.663578,-37.615963,15.546979
1.776,266.99463,158.44382,95.429085,-45.834396,-40.15867,11.522867
1.778,263.30487,149.91975,108.34262,-45.32877,-42.634995,7.2357492
1.78,258.45026,141.03792,120.78851,-44.01986,-44.937157,2.8001552
1.782,252.45546,131.9731,132.51132,-41.835423,-46.907967,-1.7331142
1.784,245.3901,122.90155,143.26846,-38.76059,-48.364403,-6.2866488
1.786,237.36137,113.99242,152.83073,-34.84333,-49.123184,-10.745525
1.788,228.50682,105.40485,160.99371,-30.195555,-49.03247,-14.963499
1.79,218.99081,97.2982,167.58371,-24.983839,-47.991768,-18.76212
1.792,208.98866,89.84068,172.46214,-19.410603,-45.958626,-21.9477
1.794,198.68126,83.16446,175.55234,-13.6975765,-42.958233,-24.338318
1.796,188.2632,77.36705,176.82222,-8.064556,-39.08137,-25.767714
1.798,177.92284,72.51903,176.27806,-2.7109313,-34.465477,-26.143959
1.8,167.83696,68.65413,173.97552,2.1917508,-29.302954,-25.455713
1.802,158.15462,65.7761,170.01814,6.5018563,-23.888323,-23.626421
1.804,149.00514,63.86327,164.56096,10.172588,-18.314465,-21.007713
1.806,140.48764,62.880356,157.79042,13.167435,-12.712222,-17.9882
1.808,132.67883,62.75467,149.9165,15.433541,-7.4260793,-14.647632
1.81,125.627556,63.39814,141.16608,17.019041,-2.6634026,-11.2822075
1.812,119.35421,64.70472,131.76674,18.031748,1.44257,-8.195726
1.814,113.838715,66.579834,121.939926,18.584158,4.8097844,-5.6217175
1.816,109.062,68.88433,111.90001,18.778143,7.3958893,-3.7187424
1.818,104.957,71.51843,101.8229,18.718502,9.210455,-2.5583372
1.82,101.44363,74.36743,91.846275,18.506632,10.309699,-2.1368918
1.822,98.38307,77.32595,82.2161,18.228432,10.794424,-2.3971558
1.824,95.74247,80.22042,73.07923,17.949211,10.798739,-3.2406769
1.826,93.46641,82.946106,64.46298,17.714966,10.474963,-4.538864
1.828,91.42423,85.33591,56.38484,17.556273,9.987679,-6.138302
1.83,89.50365,87.28105,48.850807,17.491972,9.4806595,-7.8807564
1.832,87.65379,88.868484,41.880882,17.525036,9.08132,-9.65101
1.834,85.79809,90.07803,35.48571,17.648853,8.897083,-11.296031
1.836,83.87214,90.90474,29.626173,17.856628,8.9775715,-12.63589
1.838,81.81881,91.33921,24.289108,18.129602,9.32106,-13.565254
1.84,79.587425,91.36123,19.500057,18.441404,9.882668,-14.037019
1.842,77.153046,91.00714,15.205265,18.763706,10.590569,-14.045776
1.844,74.50209,90.32086,11.355473,19.067715,11.35689,-13.625601
1.846,71.626625,89.33541,7.9351616,19.324451,12.086394,-12.843624
1.848,68.53403,88.108955,4.8950214,19.506046,12.688776,-11.791361
1.85,65.26611,86.69029,2.194601,19.588291,13.091179,-10.572121
1.852,61.879665,85.12206,-0.197752,19.555569,13.249416,-9.286274
1.854,58.38355,83.44726,-2.289812,19.403198,13.149076,-8.022028
1.856,54.887917,81.75911,-4.092229,19.133068,12.796276,-6.8445106
1.858,51.29061,80.25747,-5.5509796,18.747677,12.2115555,-5.780928
1.86,47.457817,78.796486,-6.782018,18.255848,11.433711,-4.829643
1.862,43.573124,77.24309,-7.792374,17.678432,10.518986,-3.9771519
1.864,39.612125,75.68776,-8.596793,17.043098,9.531171,-3.2044728
1.866,35.617218,74.18947,-9.194773,16.376234,8.532617,-2.4900799
1.868,31.611507,72.7818,-9.578091,15.702727,7.579753,-1.81296
1.87,27.6515,71.464554,-9.766417,15.045137,6.720128,-1.1566664
1.872,23.785656,70.22213,-9.782627,14.422014,5.9885683,-0.51198304
1.874,20.047916,69.035194,-9.648657,13.846969,5.406942,0.12538025
1.876,16.45787,67.883514,-9.381009,13.328466,4.985876,0.7599666
1.878,13.014739,66.77178,-9.003369,12.87142,4.7252007,1.3939441
1.88,9.686541,65.75142,-8.5568285,12.476257,4.615211,2.0227258
1.882,6.498852,64.82845,-8.121768,12.139305,4.639002,2.6372554
1.884,3.5021229,63.97147,-7.739278,11.85307,4.7752132,3.2275538
1.886,0.6982479,63.171974,-7.3968773,11.607611,4.999789,3.7842684
1.888,-1.9198799,62.438423,-7.0785265,11.392237,5.2872634,4.298882
1.89,-4.3406653,61.78536,-6.7862835,11.196599,5.612342,4.764051
1.892,-6.5579686,61.20344,-6.532089,11.011255,5.9517612,5.17428
1.894,-8.582413,60.68087,-6.3266926,10.828095,6.285596,5.526579
1.896,-10.42917,60.20772,-6.172283,10.640642,6.597516,5.8205137
1.898,-12.115311,59.77535,-6.0662994,10.444407,6.8751493,6.057659
1.9,-13.658218,59.36397,-6.0009193,10.236967,7.110532,6.2409277
1.902,-15.064819,58.937515,-5.9646473,10.017796,7.2998877,6.3739862
1.904,-16.33653,58.482483,-5.9630127,9.787772,7.4432273,6.4610605
1.906,-17.488026,58.009323,-5.9994736,9.548827,7.5437336,6.5069594
1.908,-18.53089,57.533043,-6.0704193,9.303499,7.606922,6.5170794
1.91,-19.471657,57.063858,-6.170864,9.054529,7.639558,6.497114
1.912,-20.312534,56.60389,-6.298729,8.80446,7.648686,6.4526663
1.914,-21.057941,56.151676,-6.450924,8.555427,7.6408463,6.389
1.916,-21.713774,55.705147,-6.6228104,8.308962,7.6214666,6.3108163
1.918,-22.29148,55.261955,-6.8081417,8.0659275,7.5944157,6.2222686
1.92,-22.803232,54.815975,-7.00198,7.826556,7.561845,6.1267977
1.922,-23.259457,54.360287,-7.200157,7.590595,7.5241446,6.0268517
1.924,-23.66899,53.89065,-7.397463,7.357393,7.4801264,5.9239516
1.926,-24.038578,53.406067,-7.5883904,7.126081,7.42743,5.81903
1.928,-24.37319,52.908554,-7.767376,6.895736,7.3630805,5.7127643
1.93,-24.67681,52.400543,-7.929966,6.6655855,7.283847,5.6056843
1.932,-24.953167,51.883377,-8.072927,6.435184,7.186646,5.4983635
1.934,-25.205742,51.357384,-8.194561,6.204377,7.068649,5.391628
1.936,-25.437317,50.822586,-8.294224,5.973449,6.927559,5.286655
1.938,-25.651508,50.27902,-8.370959,5.743173,6.761935,5.1850567
1.94,-25.85107,49.7266,-8.423725,5.5147204,6.57123,5.0888944
1.942,-26.03704,49.164524,-8.451702,5.2895274,6.355533,5.0005875
1.944,-26.210693,48.591614,-8.453842,5.069186,6.11528,4.922912
1.946,-26.372326,48.00723,-8.429581,4.8553486,5.851224,4.8589725
1.948,-26.520172,47.41127,-8.378772,4.6495686,5.5643463,4.811989
1.95,-26.65281,46.80336,-8.301959,4.4531665,5.2555823,4.7849693
1.952,-26.767952,46.18191,-8.19957,4.267096,4.925596,4.780478
1.954,-26.862474,45.54493,-8.072912,4.0918803,4.574778,4.8004537
1.956,-26.932213,44.890038,-7.924239,3.9275315,4.2032285,4.8460164
1.958,-26.972347,44.214527,-7.7558846,3.7735329,3.8108227,4.9172163
1.96,-26.978502,43.51594,-7.569433,3.6288538,3.3972921,5.012879
1.962,-26.946218,42.791946,-7.366753,3.4919815,2.962338,5.130492
1.964,-26.870575,42.040096,-7.1486087,3.361027,2.5057878,5.2661753
1.966,-26.746239,41.257675,-6.915488,3.2338486,2.0277371,5.4147773
1.968,-26.567963,40.441956,-6.667377,3.1082306,1.5286865,5.5700645
1.97,-26.330677,39.590847,-6.404064,2.9820685,1.0097178,5.724948
1.972,-26.030146,38.702232,-6.1250343,2.8534813,0.47261155,5.8719254
1.974,-25.662802,37.77464,-5.829944,2.720974,-0.08010602,6.003566
1.976,-25.226225,36.8078,-5.518689,2.5835721,-0.6450182,6.112898
1.978,-24.71898,35.80212,-5.1912727,2.4408324,-1.2178599,6.193766
1.98,-24.140541,34.758965,-4.847757,2.2928157,-1.7936054,6.2412014
1.982,-23.491713,33.68091,-4.4886436,2.140104,-2.3665645,6.2516956
1.984,-22.774307,32.57108,-4.1145597,1.9836729,-2.9304075,6.22326
1.986,-21.991259,31.433537,-3.726101,1.8247862,-3.478394,6.1553793
1.988,-21.146881,30.273354,-3.324285,1.664886,-4.0035663,6.048917
1.99,-20.246351,29.09604,-2.9106574,1.5053959,-4.49909,5.9060283
1.992,-19.29631,27.90761,-2.48696,1.3474698,-4.9587035,5.729912
1.994,-18.304579,26.714705,-2.054996,1.1920011,-5.3768883,5.5245337
1.996,-17.279772,25.52419,-1.6166477,1.03953,-5.7489457,5.2943296
1.998,-16.230906,24.34284,-1.1739299,0.8902085,-6.071147,5.0438733
2,-15.167609,23.177109,-0.7288108,0.7438271,-6.3411045,4.777656
2.002,-14.099518,22.03312,-0.2835393,0.5999365,-6.5578265,4.5
2.004,-13.03653,20.91653,0.15966344,0.4579897,-6.7214937,4.214961
2.006,-11.988576,19.832527,0.59845805,0.31746078,-6.833351,3.9262319
2.008,-10.964873,18.785797,1.0304106,0.17795157,-6.8956213,3.6369557
2.01,-9.973909,17.780539,1.4529408,0.03930378,-6.911291,3.3497348
2.012,-9.024195,16.820023,1.8637766,-0.09837437,-6.883875,3.0666728
2.014,-8.122123,15.907505,2.2606564,-0.23467338,-6.8171825,2.7894187
2.016,-7.269757,15.043418,2.6399972,-0.3688879,-6.7151384,2.5192354
2.018,-6.4711914,14.228669,2.998868,-0.50007963,-6.5816183,2.2571392
2.02,-5.731415,13.464709,3.335471,-0.6271368,-6.4203057,2.0039916
2.022,-5.053393,12.752868,3.6480896,-0.7488731,-6.234687,1.7606432
2.024,-4.436841,12.093488,3.9338517,-0.8641088,-6.0280466,1.5280125
2.026,-3.8804998,11.485983,4.189859,-0.97173536,-5.803462,1.3070863
2.028,-3.3828704,10.929469,4.4137726,-1.0708458,-5.563867,1.0988971
2.03,-2.9414356,10.422844,4.604131,-1.1608442,-5.3121004,0.9045763
2.032,-2.5524745,9.964908,4.7593374,-1.2414767,-5.050892,0.72527504
2.034,-2.2115114,9.554174,4.878157,-1.3128935,-4.7828417,0.56199527
2.036,-1.9132795,9.188933,4.959468,-1.3757275,-4.510469,0.41544557
2.038,-1.6517707,8.867068,5.0027924,-1.4310265,-4.236254,0.28600407
2.04,-1.4212732,8.586491,5.008379,-1.4802244,-3.962568,0.17365944
2.042,-1.2157986,8.344868,4.9770226,-1.5250459,-3.6915812,0.07789528
2.044,-1.0294448,8.139603,4.910167,-1.5674418,-3.425345,-0.0022548437
2.046,-0.85669017,7.968231,4.8096833,-1.6094415,-3.1657255,-0.06807482
2.048,-0.6916229,7.827829,4.6779814,-1.6530952,-2.914415,-0.12111688
2.05,-0.5286077,7.7157884,4.5180845,-1.7003512,-2.6729465,-0.16309011
2.052,-0.36297205,7.629703,4.3334155,-1.7530397,-2.442689,-0.19577706
2.054,-0.1901768,7.566901,4.127721,-1.8128076,-2.2248435,-0.22093451
2.056,-0.006278537,7.524475,3.904751,-1.8810489,-2.0204089,-0.2402587
2.058,0.19136828,7.500224,3.6684866,-1.9588647,-1.8302023,-0.25535882
2.06,0.4059933,7.491863,3.4228144,-2.0470786,-1.654809,-0.26772392
2.062,0.6401022,7.4973083,3.1714559,-2.1461978,-1.4946022,-0.27868724
2.064,0.8959956,7.5146646,2.9181557,-2.2564042,-1.3496722,-0.28949285
2.066,1.1747186,7.542596,2.6666145,-2.3775895,-1.2197988,-0.30126703
2.068,1.4772733,7.580253,2.4199128,-2.509384,-1.1044286,-0.31497478
2.07,1.8046352,7.6267385,2.1802497,-2.6511626,-1.0026553,-0.3314286
2.072,2.1570158,7.681431,1.9499128,-2.8020513,-0.9132339,-0.35127974
2.074,2.534031,7.743843,1.730916,-2.9609776,-0.8345864,-0.37501222
2.076,2.9346635,7.8138223,1.5250137,-3.1266832,-0.764848,-0.4029618
2.078,3.3572679,7.8916254,1.333714,-3.2977533,-0.70189834,-0.43528193
2.08,3.7999783,7.9773574,1.1585085,-3.4726455,-0.6434225,-0.472009
2.082,4.2608705,8.071733,1.0005586,-3.6497335,-0.5870087,-0.51308376
2.084,4.7375183,8.175509,0.86063313,-3.8273616,-0.5302309,-0.55837196
2.086,5.2274323,8.289276,0.73921204,-4.0038824,-0.47075042,-0.6077092
2.088,5.7276673,8.413902,0.636487,-4.1777086,-0.40637326,-0.6609459
2.09,6.235482,8.550176,0.5523038,-4.3473654,-0.33513778,-0.7179565
2.092,6.747803,8.698869,0.48632574,-4.511524,-0.25538293,-0.7786617
2.094,7.261875,8.860853,0.43808746,-4.6690145,-0.16573212,-0.84304655
2.096,7.775087,9.036782,0.4066882,-4.8188376,-0.065126136,-0.91112083
2.098,8.285043,9.227343,0.3910885,-4.960184,0.047136724,-0.98294306
2.1,8.789131,9.433324,0.3900447,-5.092467,0.17139345,-1.0585847
2.102,9.285283,9.655364,0.4021783,-5.2152853,0.30764547,-1.1380931
2.104,9.771698,9.894162,0.42623758,-5.3284545,0.45559847,-1.221504
2.106,10.246772,10.150281,0.46073246,-5.4319463,0.6146878,-1.3087991
2.108,10.709221,10.424311,0.50429916,-5.5258684,0.7841257,-1.3999346
2.11,11.158103,10.716613,0.5554724,-5.610484,0.96293044,-1.494803
2.112,11.593097,11.02735,0.61307955,-5.6861444,1.1499652,-1.5932555
2.114,12.014111,11.356673,0.6758051,-5.7532587,1.3440039,-1.695087
2.116,12.421316,11.704733,0.7423806,-5.812271,1.5437849,-1.800067
2.118,12.815014,12.071514,0.81187344,-5.8636727,1.7480065,-1.907898
2.12,13.196132,12.456743,0.8833451,-5.9079413,1.9553581,-2.0182383
2.122,13.565731,12.86031,0.9561043,-5.9455485,2.1645937,-2.1306944
2.124,13.925283,13.28204,1.0295792,-5.9769526,2.3745677,-2.2448187
2.126,14.276043,13.721586,1.1032867,-6.0026236,2.584222,-2.360095
2.128,14.620155,14.17848,1.177084,-6.023016,2.7926521,-2.4759557
2.13,14.959828,14.652151,1.2507219,-6.038587,2.99917,-2.5917702
2.132,15.297216,15.142314,1.3240118,-6.0497646,3.203302,-2.7068992
2.134,15.634871,15.648237,1.3971567,-6.056964,3.404838,-2.8207006
2.136,15.975428,16.169037,1.4703293,-6.0605426,3.6038444,-2.9325871
2.138,16.321259,16.703926,1.5437555,-6.060802,3.800673,-3.042067
2.14,16.674458,17.25201,1.6174393,-6.0579844,3.9959195,-3.1487215
2.142,17.03758,17.81217,1.6916761,-6.0522313,4.1903934,-3.252192
2.144,17.412966,18.383184,1.766798,-6.043588,4.3850317,-3.3521776
2.146,17.80275,18.963858,1.8430548,-6.0320277,4.5808334,-3.4484432
2.148,18.20889,19.552818,1.920783,-6.0174356,4.7787876,-3.5408146
2.15,18.633358,20.148392,2.0003538,-5.9996285,4.979825,-3.6291645
2.152,19.077852,20.748764,2.081872,-5.9783697,5.184766,-3.7134676
2.154,19.543718,21.35196,2.1652822,-5.953362,5.39428,-3.793798
2.156,20.03228,21.95558,2.2509098,-5.924302,5.6088924,-3.8703542
2.158,20.544226,22.557384,2.3386097,-5.8908215,5.828956,-3.9434552
2.16,21.079987,23.154697,2.4283094,-5.852522,6.054719,-4.0135612
2.162,21.639746,23.744743,2.5199785,-5.809001,6.28631,-4.0812554
2.164,22.22355,24.324585,2.6130533,-5.759828,6.523732,-4.1472306
2.166,22.830467,24.891262,2.7072096,-5.704513,6.766972,-4.2122016
2.168,23.459755,25.44152,2.80196,-5.6425295,7.0159993,-4.2769136
2.17,24.110666,25.972004,2.8970566,-5.5733514,7.270722,-4.3420606
2.172,24.781584,26.479523,2.9917555,-5.4964123,7.531052,-4.408225
2.174,25.470295,26.9607,3.0855875,-5.411111,7.7969255,-4.4758797
2.176,26.174652,27.412045,3.1781397,-5.3168178,8.0683,-4.545394
2.178,26.892044,27.830267,3.2688732,-5.212907,8.34514,-4.617037
2.18,27.619509,28.211979,3.3573084,-5.09873,8.627418,-4.690958
2.182,28.354012,28.554085,3.442689,-4.973663,8.915062,-4.767211
2.184,29.091785,28.853834,3.524352,-4.837105,9.207869,-4.8457313
2.186,29.829042,29.108704,3.6018972,-4.688493,9.505558,-4.9263086
2.188,30.56177,29.316496,3.674759,-4.527341,9.807669,-5.008572
2.19,31.285778,29.475243,3.742259,-4.3532476,10.113566,-5.0920057
2.192,31.99659,29.583166,3.8038588,-4.1659236,10.42242,-5.175919
2.194,32.689865,29.638824,3.8590403,-3.9651644,10.733186,-5.2594724
2.196,33.360977,29.640957,3.9072294,-3.7509122,11.044591,-5.3417454
2.198,34.00554,29.5887,3.9479046,-3.5232308,11.35517,-5.421727
2.2,34.618736,29.481693,3.9804907,-3.282311,11.66331,-5.4983563
2.202,35.196182,29.319918,4.0044184,-3.0284383,11.967297,-5.570615
2.204,35.73324,29.103815,4.019204,-2.7620108,12.265253,-5.637582
2.206,36.225307,28.83439,4.0245953,-2.4835978,12.555172,-5.6984005
2.208,36.66825,28.512917,4.0202646,-2.1939127,12.834948,-5.752305
2.21,37.05828,28.141026,4.0061893,-1.8938053,13.1023655,-5.7986097
2.212,37.391514,27.72088,3.9823608,-1.5843053,13.355122,-5.836732
2.214,37.66465,27.254953,3.9486966,-1.266603,13.59078,-5.866193
2.216,37.874767,26.746204,3.905846,-0.9420407,13.806831,-5.88659
2.218,38.01952,26.197933,3.854247,-0.6120703,14.000793,-5.897559
2.22,38.097145,25.613998,3.7946439,-0.2782941,14.17015,-5.8988056
2.222,38.106113,24.99858,3.7277741,0.057586193,14.312454,-5.8900466
2.224,38.046032,24.355946,3.654686,0.39382124,14.425457,-5.870977
2.226,37.91706,23.690813,3.5765266,0.7285826,14.507173,-5.8412952
2.228,37.719994,23.008015,3.494391,1.0599442,14.55592,-5.800639
2.23,37.45635,22.31261,3.409627,1.3859236,14.570462,-5.7486258
2.232,37.128128,21.609776,3.323431,1.7044735,14.550119,-5.6848936
2.234,36.738293,20.904482,3.2369776,2.0135376,14.494829,-5.609194
2.236,36.29037,20.20202,3.1515021,2.311103,14.405187,-5.5214415
2.238,35.788082,19.507494,3.0679998,2.5951939,14.282423,-5.4217644
2.24,35.23582,18.825953,2.9875226,2.864017,14.128323,-5.3105545
2.242,34.638573,18.16204,2.910871,3.115957,13.945198,-5.1884117
2.244,34.00141,17.520308,2.8384156,3.3496587,13.735667,-5.0561123
2.246,33.329803,16.904886,2.7703052,3.564074,13.50259,-4.914603
2.248,32.629673,16.319588,2.706636,3.7584915,13.24892,-4.7649674
2.25,31.906786,15.7675905,2.6474814,3.9324913,12.977519,-4.6083217
2.252,31.166733,15.251702,2.592249,4.0859194,12.691043,-4.4458427
2.254,30.415024,14.774251,2.5402725,4.218881,12.391812,-4.278719
2.256,29.656717,14.337059,2.4908175,4.3316574,12.0818,-4.108117
2.258,28.896832,13.941498,2.4429183,4.424711,11.762677,-3.9352124
2.26,28.139765,13.588351,2.3955843,4.498682,11.4357815,-3.7612371
2.262,27.389845,13.277953,2.3477786,4.5543375,11.102181,-3.5874295
2.264,26.650858,13.010046,2.2984529,4.5925183,10.762673,-3.4150434
2.266,25.925976,12.784181,2.2462964,4.6141644,10.417924,-3.2452903
2.268,25.218258,12.599215,2.1903784,4.620312,10.068541,-3.079318
2.27,24.530005,12.453705,2.1297371,4.612046,9.715093,-2.9182239
2.272,23.863014,12.34584,2.0636287,4.5904446,9.358108,-2.763042
2.274,23.218555,12.273503,1.991497,4.5566077,8.998151,-2.6146932
2.276,22.59803,12.2341,1.9129274,4.5115824,8.635818,-2.4740252
2.278,22.001965,12.224964,1.8275335,4.4563375,8.271722,-2.3418117
2.28,21.43023,12.243167,1.7350435,4.3917685,7.9064717,-2.2187421
2.282,20.882963,12.285734,1.635509,4.318669,7.5406833,-2.1054015
2.284,20.359861,12.349672,1.5290442,4.2377543,7.1749496,-2.002263
2.286,19.860365,12.43208,1.4157839,4.1496625,6.8098283,-1.9096979
2.288,19.383575,12.529986,1.2962408,4.0549483,6.4458222,-1.8279489
2.29,18.928905,12.640604,1.1708813,3.9540913,6.0834355,-1.7571261
2.292,18.495415,12.760805,1.0407481,3.84756,5.7231507,-1.6972377
2.294,18.08239,12.887636,0.906621,3.7357697,5.3653517,-1.6481938
2.296,17.689108,13.018341,0.76939344,3.6191163,5.0103264,-1.6098515
2.298,17.314793,13.150084,0.63022375,3.4979353,4.6582656,-1.5819652
2.3,16.958708,13.280537,0.49029827,3.3724866,4.309158,-1.5642197
2.302,16.620258,13.407402,0.35106707,3.2429464,3.962813,-1.5562611
2.304,16.29882,13.528538,0.21417332,3.1094418,3.6188984,-1.5577259
2.306,15.994051,13.642191,0.08143902,2.9720201,3.276917,-1.5682542
2.308,15.705675,13.746562,-0.045239925,2.8306596,2.936229,-1.5875155
2.31,15.433622,13.839962,-0.16396618,2.685306,2.5961187,-1.6151761
2.312,15.177816,13.920877,-0.27285385,2.535907,2.2558694,-1.6509241
2.314,14.938055,13.988016,-0.3699293,2.3824399,1.9148464,-1.6944578
2.316,14.714452,14.040106,-0.4533844,2.224992,1.5725582,-1.7454827
2.318,14.50698,14.076345,-0.52146435,2.0637755,1.2287407,-1.8036603
2.32,14.315445,14.096075,-0.5724621,1.8991437,0.88336796,-1.8686168
2.322,14.139801,14.098806,-0.6047797,1.7316189,0.5366709,-1.939898
2.324,13.979778,14.084365,-0.61695623,1.5618756,0.18915075,-2.0169473
2.326,13.834989,14.052732,-0.6082125,1.3907168,-0.15842295,-2.0990877
2.328,13.7049885,14.004263,-0.57750845,1.2190185,-0.50505537,-2.185556
2.33,13.589016,13.939421,-0.5242367,1.0477248,-0.8495617,-2.275467
2.332,13.486553,13.858995,-0.448205,0.8777752,-1.1906455,-2.3678358
2.334,13.396609,13.763908,-0.34938812,0.71005005,-1.5269356,-2.4616184
2.336,13.318297,13.655226,-0.22813511,0.54534227,-1.8570535,-2.55574
2.338,13.2507925,13.53434,-0.085053444,0.38430116,-2.179698,-2.6491194
2.34,13.193119,13.402647,0.078773975,0.22742602,-2.4936662,-2.7407117
2.342,13.144446,13.261637,0.26224375,0.0750634,-2.7978745,-2.8295858
2.344,13.103647,13.112924,0.46388006,-0.07258003,-3.0914383,-2.914939
2.346,13.069801,12.9580765,0.68205595,-0.21543786,-3.3736331,-2.9961386
2.348,13.042165,12.798687,0.9149475,-0.35354576,-3.6439095,-3.0727158
2.35,13.019852,12.636276,1.1607027,-0.48700052,-3.9018812,-3.144372
2.352,13.002106,12.472399,1.4173908,-0.615919,-4.1472974,-3.2110014
2.354,12.988259,12.308442,1.6831517,-0.7404047,-4.3800154,-3.272656
2.356,12.977727,12.145819,1.9561143,-0.8605392,-4.599981,-3.329503
2.358,12.969937,11.985613,2.2345686,-0.9763735,-4.8071976,-3.3817854
2.36,12.964629,11.82894,2.5168593,-1.0878798,-5.0016685,-3.4298015
2.362,12.961345,11.676727,2.8015208,-1.1949942,-5.183409,-3.473865
2.364,12.959726,11.529771,3.0871334,-1.297632,-5.3524218,-3.514274
2.366,12.959646,11.388748,3.3725107,-1.3956589,-5.508647,-3.5512433
2.368,12.960796,11.253998,3.6567888,-1.4889264,-5.6519833,-3.5849085
2.37,12.96304,11.126247,3.9388628,-1.5772942,-5.782281,-3.6153307
2.372,12.966114,11.005659,4.218238,-1.6606133,-5.8993583,-3.642499
2.374,12.969738,10.892534,4.4943027,-1.7387319,-6.002977,-3.6663206
2.376,12.973775,10.786913,4.76651,-1.8115175,-6.092877,-3.686655
2.378,12.977972,10.688829,5.0345087,-1.87883,-6.1687837,-3.703364
2.38,12.982024,10.598273,5.2979465,-1.9405272,-6.2304335,-3.7163186
2.382,12.985672,10.515232,5.556381,-1.9964572,-6.277584,-3.7253973
2.384,12.988704,10.439566,5.809657,-2.0464776,-6.3100233,-3.7305026
2.386,12.990678,10.37117,6.0575037,-2.090446,-6.327592,-3.7315893
2.388,12.991245,10.309906,6.2997646,-2.1282125,-6.330178,-3.7286386
2.39,12.9899845,10.255643,6.5361834,-2.1596336,-6.31775,-3.7216687
2.392,12.9865265,10.208063,6.766724,-2.1845822,-6.2903414,-3.7107224
2.394,12.980549,10.167001,6.9910507,-2.2029514,-6.248073,-3.6958823
2.396,12.971622,10.132097,7.2089396,-2.214663,-6.1911597,-3.6772482
2.398,12.959536,10.103065,7.420212,-2.2196782,-6.1198807,-3.6549363
2.4,12.943657,10.079365,7.624677,-2.217988,-6.034607,-3.6291218
2.402,12.923684,10.06069,7.822008,-2.2096276,-5.935772,-3.6000037
2.404,12.899444,10.046556,8.01186,-2.194675,-5.823876,-3.5678258
2.406,12.87042,10.036377,8.194026,-2.1732793,-5.6994696,-3.5328646
2.408,12.836473,10.029797,8.368285,-2.145628,-5.5631547,-3.4954057
2.41,12.797315,10.026137,8.534301,-2.111941,-5.4155498,-3.4557452
2.412,12.752788,10.024842,8.691766,-2.0724897,-5.2572985,-3.4142022
2.414,12.702854,10.025471,8.84025,-2.0275924,-5.089074,-3.3710687
2.416,12.647479,10.02729,8.97942,-1.9775862,-4.911567,-3.326613
2.418,12.586573,10.029868,9.108982,-1.9228215,-4.7254705,-3.281079
2.42,12.520324,10.0325775,9.22852,-1.8636634,-4.531496,-3.2346702
2.422,12.448947,10.034893,9.33785,-1.8004737,-4.330366,-3.1875393
2.424,12.37262,10.036302,9.436777,-1.7335978,-4.1227994,-3.139783
2.426,12.291612,10.036415,9.52501,-1.6633832,-3.9095128,-3.0914571
2.428,12.206264,10.034693,9.602423,-1.5901655,-3.6912231,-3.042561
2.43,12.116999,10.030816,9.66878,-1.5142581,-3.4686294,-2.9930534
2.432,12.02435,10.024616,9.723943,-1.4359854,-3.2424235,-2.9428582
2.434,11.9286995,10.015705,9.767914,-1.355665,-3.0132623,-2.891867
2.436,11.830383,10.004047,9.800852,-1.2736088,-2.781786,-2.8399658
2.438,11.730131,9.989497,9.822665,-1.1901444,-2.5485759,-2.7870579
2.44,11.628454,9.972102,9.833504,-1.1055927,-2.314189,-2.7330582
2.442,11.525723,9.951937,9.833614,-1.0202702,-2.0791373,-2.6779268
2.444,11.422524,9.929245,9.823215,-0.9344851,-1.8438628,-2.6216686
2.446,11.319397,9.904246,9.802538,-0.8485206,-1.6087773,-2.5643075
2.448,11.216571,9.877125,9.771973,-0.76265025,-1.374255,-2.5059166
2.45,11.114564,9.848299,9.731905,-0.677128,-1.1406319,-2.4465964
2.452,11.013783,9.818138,9.6826725,-0.59217876,-0.90824413,-2.38648
2.454,10.914701,9.786982,9.62487,-0.5080056,-0.6774127,-2.3256662
2.456,10.817598,9.755208,9.558938,-0.42481244,-0.44843692,-2.2642906
2.458,10.722692,9.72317,9.485381,-0.3427785,-0.22161838,-2.2024837
2.46,10.630236,9.69125,9.404803,-0.2620506,0.0027326941,-2.1403792
2.462,10.540387,9.659717,9.317706,-0.1827892,0.22431117,-2.0781388
2.464,10.453422,9.628795,9.224654,-0.105134726,0.4428179,-2.0159574
2.466,10.369417,9.598695,9.1262865,-0.02920875,0.6579541,-1.9540492
2.468,10.2884655,9.569652,9.023162,0.044866264,0.86942977,-1.8926675
2.47,10.210496,9.541788,8.915822,0.11696446,1.0769453,-1.8320903
2.472,10.135607,9.515125,8.804868,0.1869759,1.2801837,-1.772599
2.474,10.063831,9.489801,8.690831,0.25477797,1.4788182,-1.714473
2.476,9.994989,9.465744,8.574276,0.32025778,1.6725085,-1.6579614
2.478,9.928833,9.44301,8.4556675,0.38327855,1.8609103,-1.6032801
2.48,9.86523,9.421404,8.335656,0.44371897,2.0436757,-1.5505984
2.482,9.803927,9.400916,8.214617,0.5014485,2.2204616,-1.5000474
2.484,9.744806,9.381483,8.092981,0.55634224,2.3909411,-1.4517012
2.486,9.687635,9.362916,7.9713945,0.6083019,2.554823,-1.4055763
2.488,9.6320915,9.345176,7.850216,0.657243,2.7118573,-1.3616768
2.49,9.578055,9.328103,7.729933,0.70308805,2.8618524,-1.3199637
2.492,9.525193,9.311659,7.6109557,0.7458099,3.0046523,-1.2803774
2.494,9.473271,9.295681,7.493628,0.78541255,3.1401832,-1.2428372
2.496,9.422201,9.280149,7.378329,0.8219267,3.268401,-1.2072423
2.498,9.371636,9.265077,7.2652373,0.8553988,3.389324,-1.1734942
2.5,9.321556,9.250353,7.1546736,0.88588035,3.5029836,-1.1414909
2.502,9.271702,9.235989,7.046814,0.9134468,3.6094658,-1.111105
2.504,9.221871,9.22198,6.9418926,0.938166,3.7088683,-1.0822362
2.506,9.172109,9.208442,6.840103,0.96010435,3.801309,-1.0547836
2.508,9.122112,9.195336,6.7415714,0.979313,3.886905,-1.0286828
2.51,9.071994,9.182829,6.646428,0.9958433,3.9657688,-1.0038693
2.512,9.02158,9.171,6.5547843,1.0097396,4.0380106,-0.9803121
2.514,8.970751,9.16001,6.4667497,1.0210365,4.103734,-0.95800906
2.516,8.919596,9.149937,6.3824186,1.0297673,4.1630135,-0.93697774
2.518,8.867967,9.140789,6.301846,1.035957,4.2158995,-0.9172434
2.52,8.8159685,9.132658,6.2251334,1.0396515,4.26244,-0.8988617
2.522,8.763518,9.1257105,6.152359,1.0409123,4.3026686,-0.88189584
2.524,8.710677,9.119912,6.083641,1.0398029,4.336618,-0.8664162
2.526,8.65754,9.115263,6.0190916,1.0363935,4.364318,-0.85249233
2.528,8.60418,9.111793,5.958739,1.0307932,4.385809,-0.84019864
2.53,8.550562,9.109559,5.9028487,1.0230957,4.401163,-0.8295678
2.532,8.496748,9.108521,5.851483,1.0134158,4.4104953,-0.8206161
2.534,8.442994,9.108602,5.8047347,1.0018669,4.413949,-0.8133184
2.536,8.389273,9.109851,5.762758,0.98856723,4.4117384,-0.8076203
2.538,8.3357115,9.112125,5.7256813,0.9736345,4.404139,-0.8034339
2.54,8.282663,9.11533,5.6937156,0.95718145,4.3914785,-0.8006551
2.542,8.230034,9.119431,5.666824,0.9393325,4.374136,-0.79914665
2.544,8.178107,9.124382,5.645048,0.92021394,4.352543,-0.7987858
2.546,8.127052,9.129969,5.628527,0.89994514,4.3271666,-0.79945457
2.548,8.077,9.136218,5.617274,0.87863266,4.2984858,-0.8010458
2.55,8.028213,9.142859,5.611333,0.85637987,4.267003,-0.8034831
2.552,7.9807873,9.149861,5.610636,0.833284,4.233196,-0.80670094
2.554,7.9349275,9.157161,5.6151357,0.80943596,4.197531,-0.8106458
2.556,7.890705,9.1646385,5.6247406,0.78491867,4.1604476,-0.8152797
2.558,7.848332,9.172257,5.639393,0.7597991,4.1223536,-0.8205441
2.56,7.807953,9.179861,5.658845,0.73413444,4.083618,-0.82638407
2.562,7.7695704,9.187325,5.6830187,0.7079935,4.044572,-0.8327217
2.564,7.733202,9.194674,5.7116218,0.68144333,4.005495,-0.8394616
2.566,7.698942,9.201778,5.744362,0.6545352,3.9666598,-0.84647447
2.568,7.666736,9.208687,5.7809777,0.6273323,3.9283004,-0.8536144
2.57,7.636607,9.215344,5.821111,0.59990335,3.8906481,-0.86071765
2.572,7.608536,9.221798,5.864433,0.57230794,3.8538964,-0.8676288
2.574,7.5822606,9.2281475,5.910629,0.5445926,3.8182054,-0.8741906
2.576,7.557663,9.234305,5.959188,0.5167968,3.7837443,-0.8802644
2.578,7.5346475,9.240277,6.0098333,0.488971,3.750674,-0.88572085
2.58,7.5130496,9.246152,6.06203,0.46115232,3.7191525,-0.89046794
2.582,7.49269,9.251983,6.1153917,0.43335223,3.6893072,-0.8944341
2.584,7.473328,9.2577505,6.1696143,0.405586,3.6612618,-0.8976044
2.586,7.454755,9.263585,6.224142,0.37785387,3.6351233,-0.89998156
2.588,7.436801,9.269638,6.278581,0.3501445,3.6109843,-0.9015927
2.59,7.419193,9.275994,6.3324556,0.32243133,3.5888975,-0.902491
2.592,7.4018154,9.282791,6.3853755,0.2946849,3.568889,-0.90272707
2.594,7.384392,9.290212,6.437005,0.26687837,3.550953,-0.90233374
2.596,7.3665457,9.298409,6.486758,0.23896134,3.5350714,-0.9013475
2.598,7.3482423,9.307507,6.5342774,0.21090782,3.5211914,-0.8997744
2.6,7.3291693,9.317782,6.579188,0.18266642,3.509246,-0.8975949
2.602,7.3090377,9.329341,6.6211267,0.15419745,3.4991677,-0.89477485
2.604,7.287594,9.342482,6.659762,0.12546301,3.4908695,-0.8912407
2.606,7.2646127,9.357437,6.6947465,0.09641063,3.4842718,-0.8869162
2.608,7.2400126,9.374375,6.725978,0.06697309,3.4792917,-0.88169277
2.61,7.2134395,9.393733,6.7530746,0.03706646,3.475821,-0.8754455
2.612,7.18479,9.415667,6.7759027,0.006599307,3.4737277,-0.868067
2.614,7.1538672,9.440474,6.7942505,-0.024541855,3.4728906,-0.8594085
2.616,7.1203876,9.468412,6.8080487,-0.056473255,3.4731324,-0.8493463
2.618,7.0842333,9.499768,6.8171263,-0.089318156,3.4742684,-0.8377768
2.62,7.0451736,9.534783,6.8214455,-0.12319493,3.476081,-0.8246169
2.622,7.0032444,9.573561,6.820923,-0.15821266,3.4783242,-0.8098101
2.624,6.958332,9.616313,6.815673,-0.1944896,3.480739,-0.7933239
2.626,6.9102373,9.663205,6.805618,-0.23213744,3.4830782,-0.77514684
2.628,6.8590693,9.714279,6.790845,-0.2712469,3.4850867,-0.7552852
2.63,6.8046346,9.7696,6.771567,-0.31191325,3.4864957,-0.7337589
2.632,6.747078,9.829097,6.747866,-0.35423762,3.4870336,-0.71061575
2.634,6.6863146,9.892783,6.7199984,-0.3983274,3.4864616,-0.6858897
2.636,6.622455,9.960619,6.6882443,-0.44426894,3.4845457,-0.65962803
2.638,6.5554976,10.032361,6.6528163,-0.49215597,3.4810479,-0.6318723
2.64,6.485647,10.107785,6.614013,-0.5420823,3.4757435,-0.60268044
2.642,6.4129586,10.186774,6.572302,-0.5941412,3.4684246,-0.572122
2.644,6.337586,10.269051,6.528025,-0.6484158,3.458879,-0.5402634
2.646,6.259722,10.354268,6.481684,-0.70498323,3.4469056,-0.5071902
2.648,6.1794653,10.442256,6.433762,-0.763937,3.4323175,-0.47299886
2.65,6.0968804,10.532663,6.3847027,-0.8253255,3.4149194,-0.43777537
2.652,6.012337,10.625078,6.335143,-0.8892026,3.3945544,-0.40159535
2.654,5.92593,10.719316,6.285618,-0.9556101,3.3710704,-0.36452222
2.656,5.8378463,10.815196,6.23663,-1.0245748,3.3443398,-0.32661474
2.658,5.748195,10.91231,6.188669,-1.0961246,3.3142838,-0.2879057
2.66,5.6570625,11.01065,6.142235,-1.1702493,3.280852,-0.24840009
2.662,5.5647345,11.11005,6.0977445,-1.2469429,3.244053,-0.20810556
2.664,5.471206,11.210312,6.0556145,-1.3261603,3.2039533,-0.16700017
2.666,5.3766284,11.31139,6.0162673,-1.4078611,3.160678,-0.12502635
2.668,5.280943,11.413397,5.979956,-1.4919654,3.1143916,-0.08214378
2.67,5.18421,11.516426,5.947033,-1.5783905,3.0653176,-0.038283467
2.672,5.0864315,11.620656,5.917512,-1.6670347,3.0137186,0.0066348314
2.674,4.987562,11.726178,5.8913813,-1.7577784,2.9598908,0.052702665
2.676,4.887421,11.833375,5.8686514,-1.8504808,2.9041681,0.1000129
2.678,4.785804,11.942424,5.8490367,-1.944983,2.8468962,0.14865148
2.68,4.6827865,12.053561,5.832361,-2.0410957,2.7884283,0.1987052
2.682,4.5783424,12.167117,5.818656,-2.1386368,2.7291303,0.25023198
2.684,4.4723864,12.283674,5.8073225,-2.2374032,2.669347,0.30329
2.686,4.3647304,12.40347,5.797968,-2.3371878,2.6094089,0.35790122
2.688,4.2552805,12.526767,5.7899375,-2.4377656,2.5496101,0.41406596
2.69,4.1440063,12.653612,5.782732,-2.5389183,2.4902196,0.47175717
2.692,4.030677,12.784206,5.77573,-2.6404464,2.4314451,0.5309372
2.694,3.9151802,12.918634,5.7681627,-2.7421553,2.3734426,0.59151983
2.696,3.7973924,13.057119,5.7595444,-2.8438835,2.3162837,0.6534271
2.698,3.677185,13.199692,5.7492332,-2.9454885,2.2599778,0.71656847
2.7,3.5544293,13.346428,5.736617,-3.0468712,2.204436,0.78085625
2.702,3.4291408,13.497242,5.721228,-3.147945,2.149462,0.84620917
2.704,3.3013413,13.651884,5.7026043,-3.2486982,2.0947878,0.9125719
2.706,3.1712942,13.810165,5.6802855,-3.3491323,2.0400271,0.9799036
2.708,3.0391068,13.971718,5.6542244,-3.449262,1.9847026,1.0481954
2.71,2.905197,14.135977,5.624137,-3.5491676,1.928218,1.11748
2.712,2.7702467,14.302492,5.5901246,-3.64894,1.8699545,1.1877736
2.714,2.6348293,14.470459,5.552292,-3.7486796,1.8092924,1.2590871
2.716,2.4997232,14.638983,5.5110765,-3.8485193,1.7455587,1.3313708
2.718,2.3656752,14.807192,5.4668794,-3.9486253,1.6780953,1.4045159
2.72,2.2337446,14.973999,5.420441,-4.049142,1.6063094,1.4783633
2.722,2.1051307,15.13838,5.372569,-4.1502233,1.5296935,1.5526897
2.724,1.9809043,15.299165,5.3243003,-4.2520003,1.4478807,1.6271882
2.726,1.8623476,15.455199,5.2767515,-4.354546,1.3606888,1.7014678
2.728,1.7508905,15.605279,5.2311625,-4.457867,1.2681372,1.775038
2.73,1.6476564,15.748318,5.188778,-4.5618668,1.1704816,1.847349
2.732,1.5539825,15.883244,5.15098,-4.666318,1.0681849,1.9178188
2.734,1.4708536,16.008978,5.119004,-4.7708874,0.9619202,1.9858906
2.736,1.3995686,16.12465,5.0941725,-4.8750873,0.8525153,2.051103
2.738,1.3408287,16.229729,5.0777345,-4.9783287,0.7409342,2.113118
2.74,1.2955153,16.32365,5.0706205,-5.0799437,0.6281985,2.17178
2.742,1.2639997,16.406086,5.073797,-5.179216,0.515335,2.2270768
2.744,1.2468638,16.476877,5.08799,-5.275452,0.40336013,2.2791793
2.746,1.2440677,16.536217,5.11372,-5.3679643,0.2932248,2.3284075
2.748,1.2557437,16.58434,5.151317,-5.4561553,0.18577883,2.3752017
2.75,1.2813303,16.621923,5.2008085,-5.539553,0.081799686,2.420053
2.752,1.3205092,16.64962,5.2620444,-5.6178036,-0.018063605,2.4634418
2.754,1.3726158,16.668425,5.3347073,-5.690688,-0.11324611,2.5058165
2.756,1.4369459,16.679386,5.418277,-5.758114,-0.20330901,2.5475657
2.758,1.5126171,16.683556,5.5120196,-5.8200865,-0.28795278,2.5889688
2.76,1.5985279,16.682281,5.6150165,-5.876724,-0.36699477,2.6302497
2.762,1.69362,16.676802,5.726428,-5.928208,-0.44037274,2.6715467
2.764,1.7967882,16.668333,5.8452377,-5.97477,-0.5081603,2.7129555
2.766,1.9070296,16.658041,5.970342,-6.0167036,-0.57058793,2.7545426
2.768,2.0230412,16.647041,6.1007643,-6.054317,-0.62796783,2.796345
2.77,2.1438358,16.636305,6.2355204,-6.087913,-0.6806083,2.8383706
2.772,2.2682197,16.626589,6.3734646,-6.1177793,-0.72883606,2.8805315
2.774,2.3953028,16.618725,6.513735,-6.14419,-0.77297413,2.922687
2.776,2.5240886,16.61322,6.655557,-6.167381,-0.81328535,2.9646046
2.778,2.6538835,16.610268,6.7982187,-6.1875114,-0.8499651,3.0060017
2.78,2.7838268,16.610031,6.941208,-6.2046866,-0.88316035,3.0465364
2.782,2.913269,16.612486,7.0840287,-6.218954,-0.91292626,3.0858586
2.784,3.0416274,16.617449,7.226478,-6.2302833,-0.93924415,3.1235783
2.786,3.1683655,16.624554,7.368142,-6.2385783,-0.9620322,3.159311
2.788,3.2930512,16.633345,7.5088825,-6.2436852,-0.9811533,3.1926997
2.79,3.4148622,16.64348,7.6484375,-6.2454214,-0.996417,3.2234251
2.792,3.5331604,16.65449,7.7863126,-6.243565,-1.0076063,3.25124
2.794,3.6475658,16.66568,7.9225717,-6.237888,-1.0144646,3.2759662
2.796,3.7576332,16.676792,8.057111,-6.2281833,-1.0167071,3.2975504
2.798,3.8627338,16.68755,8.189684,-6.214267,-1.0140331,3.3159988
2.8,3.96242,16.697617,8.320054,-6.1959953,-1.006137,3.3313997
2.802,4.0563154,16.706594,8.447867,-6.1732545,-0.9927033,3.3439167
2.804,4.1437306,16.714342,8.57267,-6.1459785,-0.9734306,3.3537688
2.806,4.2242203,16.72059,8.693928,-6.114159,-0.948047,3.361251
2.808,4.297295,16.725237,8.811172,-6.0778413,-0.9163263,3.36669
2.81,4.362404,16.728254,8.923806,-6.0371146,-0.8780909,3.370437
2.812,4.419041,16.729849,9.031067,-5.9921274,-0.8332356,3.3728485
2.814,4.4667587,16.73019,9.132251,-5.9430623,-0.78174037,3.3742533
2.816,4.504969,16.72955,9.226767,-5.8901315,-0.72368383,3.3749673
2.818,4.5332575,16.72823,9.313693,-5.8335547,-0.65924734,3.3752463
2.82,4.551321,16.726694,9.392433,-5.7735596,-0.588725,3.375298
2.822,4.5585933,16.725405,9.46216,-5.710383,-0.51251537,3.3752673
2.824,4.5547204,16.725094,9.522036,-5.644251,-0.4310873,3.3752537
2.826,4.5392613,16.726181,9.57122,-5.5753636,-0.34497625,3.3752897
2.828,4.5122256,16.729042,9.6089945,-5.503936,-0.2547709,3.3753555
2.83,4.473579,16.733845,9.634798,-5.430156,-0.16109481,3.3754115
2.832,4.4231377,16.741007,9.648073,-5.354215,-0.06461954,3.3754268
2.834,4.3609734,16.750816,9.648402,-5.2763352,0.033961177,3.375389
2.836,4.2871275,16.763432,9.6354475,-5.196748,0.13391864,3.3753138
2.838,4.2016916,16.77903,9.608958,-5.1157155,0.23450333,3.375254
2.84,4.1051035,16.797705,9.568871,-5.0335255,0.33491924,3.3752756
2.842,3.9974313,16.819515,9.515144,-4.9504967,0.434364,3.3754551
2.844,3.8794415,16.844328,9.447926,-4.866947,0.532025,3.3758655
2.846,3.7514176,16.87203,9.367422,-4.783179,0.62709355,3.376558
2.848,3.6140563,16.90216,9.273825,-4.699484,0.7188262,3.3775814
2.85,3.4678469,16.934587,9.167658,-4.6161246,0.80656266,3.3789508
2.852,3.3136218,16.968906,9.049395,-4.533317,0.8897449,3.3806462
2.854,3.1517751,17.004927,8.919601,-4.4512544,0.9679501,3.3826153
2.856,2.9831843,17.042181,8.7788925,-4.370059,1.0409063,3.3847415
2.858,2.808597,17.0802,8.627975,-4.289803,1.1084888,3.386902
2.86,2.6289434,17.118387,8.467505,-4.2105207,1.1707212,3.388975
2.862,2.444812,17.156153,8.298172,-4.132217,1.227755,3.3908565
2.864,2.256982,17.192823,8.120716,-4.0548983,1.2798431,3.3924558
2.866,2.066175,17.227812,7.9357758,-3.9785535,1.3272951,3.3936753
2.868,1.8730091,17.260664,7.7440057,-3.9031618,1.3704298,3.3943925
2.87,1.6780488,17.29075,7.5462713,-3.8287013,1.4095261,3.3944812
2.872,1.4819208,17.317598,7.3432345,-3.7551346,1.4447801,3.393801
2.874,1.285103,17.340776,7.1355743,-3.6824155,1.4762827,3.3921924
2.876,1.0878274,17.359926,6.924155,-3.610461,1.5039866,3.3894932
2.878,0.89055395,17.37487,6.709821,-3.5391874,1.5276945,3.3855991
2.88,0.69342184,17.385366,6.4933057,-3.4685278,1.5471092,3.3804414
2.882,0.49670553,17.391226,6.2755194,-3.3984206,1.5618492,3.3740141
2.884,0.3002174,17.39241,6.057217,-3.3288496,1.5714726,3.3663726
2.886,0.10408354,17.388962,5.839363,-3.2598639,1.5755289,3.3576384
2.888,-0.091824055,17.380934,5.6228313,-3.1915512,1.5735854,3.3480046
2.89,-0.28782678,17.368488,5.408761,-3.1240852,1.565204,3.3377044
2.892,-0.48399663,17.351912,5.1983185,-3.0576875,1.5499995,3.3270044
2.894,-0.68060064,17.331371,4.99254,-2.9926121,1.5276437,3.3161695
2.896,-0.8778894,17.306993,4.7927656,-2.9291131,1.4977969,3.3054423
2.898,-1.0760891,17.279041,4.600383,-2.8674557,1.4601772,3.2949977
2.9,-1.2752671,17.247358,4.416569,-2.8078775,1.4145389,3.284928
2.902,-1.4756317,17.211807,4.242985,-2.75055,1.360698,3.2752182
2.904,-1.6772296,17.17231,4.0811205,-2.6955469,1.2985376,3.265736
2.906,-1.880166,17.128796,3.9323475,-2.6428707,1.2280875,3.2562625
2.908,-2.0843933,17.081064,3.798257,-2.5924296,1.1494906,3.2465105
2.91,-2.2899299,17.02891,3.6804008,-2.5440502,1.0630431,3.2361698
2.912,-2.496521,16.971928,3.5800624,-2.497463,0.96920425,3.2248793
2.914,-2.7037401,16.90944,3.4985776,-2.4537416,0.8690214,3.2123003
2.916,-2.9112687,16.841099,3.4373364,-2.410511,0.76270956,3.1981294
2.918,-3.11863,16.766537,3.397245,-2.3682172,0.6515029,3.1821592
2.92,-3.325273,16.685415,3.3793,-2.32645,0.5365307,3.1642923
2.922,-3.5304928,16.59712,3.384317,-2.284769,0.4190492,3.1445158
2.924,-3.7334456,16.501343,3.4127321,-2.242699,0.30043072,3.1228695
2.926,-3.9334874,16.397675,3.4647171,-2.1996975,0.18208915,3.0994377
2.928,-4.1295323,16.285854,3.5403433,-2.1551507,0.06545919,3.0743504
2.93,-4.3206954,16.16557,3.639455,-2.1083593,-0.048040032,3.0477464
2.932,-4.505846,16.036652,3.7614956,-2.0585644,-0.15702158,3.0197556
2.934,-4.6840262,15.898994,3.905815,-2.0049808,-0.26019076,2.9904978
2.936,-4.853723,15.752765,4.0714703,-1.946858,-0.3563306,2.960097
2.938,-5.0142198,15.598291,4.2569227,-1.8835299,-0.4443066,2.9286594
2.94,-5.16489,15.436048,4.460644,-1.8145127,-0.52305233,2.8962083
2.942,-5.30454,15.266351,4.6807685,-1.7395895,-0.591627,2.8627298
2.944,-5.432494,15.089703,4.915195,-1.6587719,-0.6491832,2.828211
2.946,-5.5482016,14.906819,5.161727,-1.5723207,-0.6949737,2.79262
2.948,-5.650955,14.71847,5.4180126,-1.4806954,-0.72838026,2.755891
2.95,-5.740573,14.525391,5.6815996,-1.3845007,-0.74893534,2.717933
2.952,-5.8167033,14.328638,5.9498615,-1.2844111,-0.7563671,2.6786582
2.954,-5.8793397,14.129069,6.2201486,-1.18112,-0.7505726,2.6380305
2.956,-5.9284396,13.927824,6.4897656,-1.0753075,-0.7316718,2.5960212
2.958,-5.964331,13.726115,6.7561736,-0.9676388,-0.6999733,2.5526648
2.96,-5.9871645,13.524908,7.016777,-0.8587792,-0.65596896,2.508052
2.962,-5.997642,13.325494,7.268922,-0.7493709,-0.60028315,2.4622996
2.964,-5.9962196,13.129013,7.510327,-0.64005506,-0.5336594,2.4155436
2.966,-5.9837127,12.936668,7.7386527,-0.5314702,-0.45694244,2.3679657
2.968,-5.961057,12.749857,7.951932,-0.42341354,-0.37131,2.3197212
2.97,-5.9292235,12.569778,8.148258,-0.31852037,-0.27716482,2.2709818
2.972,-5.8892455,12.39776,8.3260145,-0.21601152,-0.17597729,2.2218876
2.974,-5.8420777,12.234934,8.483819,-0.11646813,-0.06887919,2.1725314
2.976,-5.788878,12.082379,8.62056,-0.020404816,0.042960525,2.1229992
2.978,-5.7307487,11.940964,8.73536,0.07173401,0.15830922,2.073347
2.98,-5.668548,11.8114395,8.827618,0.15953651,0.27592802,2.0235827
2.982,-5.603488,11.694542,8.896918,0.24265343,0.39455283,1.9736766
2.984,-5.5365567,11.590668,8.943237,0.32078603,0.51294416,1.9235795
2.986,-5.4685607,11.500162,8.966763,0.39371067,0.62990654,1.8732314
2.988,-5.4004345,11.423016,8.967807,0.46127364,0.7443191,1.8225709
2.99,-5.3329887,11.359182,8.9469795,0.52339745,0.8551681,1.7715039
2.992,-5.2669697,11.30851,8.9051895,0.58005244,0.96156573,1.719927
2.994,-5.2028465,11.270382,8.843355,0.63133913,1.0627646,1.6677397
2.996,-5.141293,11.244207,8.762492,0.6774448,1.1582048,1.6148121
2.998,-5.082837,11.229277,8.663897,0.7186105,1.2474959,1.5609474
3,-5.027583,11.224597,8.548729,0.7551298,1.3303629,1.5059445
3.002,-4.9760585,11.22901,8.418291,0.7873367,1.4066746,1.4496261
3.004,-4.928388,11.241379,8.27411,0.81557757,1.47643,1.3918631
3.006,-4.884693,11.260579,8.117632,0.8401969,1.539731,1.3325579
3.008,-4.844965,11.285318,7.9501143,0.86149955,1.5967,1.2716551
3.01,-4.809384,11.314372,7.773097,0.8797497,1.6475089,1.2092048
3.012,-4.7777567,11.346537,7.5876846,0.89518744,1.6923711,1.1452919
3.014,-4.749994,11.380453,7.3952966,0.9080297,1.7314804,1.0800639
3.016,-4.725943,11.414839,7.1972647,0.9184422,1.7650228,1.0137291
3.018,-4.7054286,11.448521,6.9946804,0.9265658,1.7931684,0.94653934
3.02,-4.688095,11.480488,6.788746,0.9325323,1.8160685,0.87874746
3.022,-4.6737924,11.509863,6.5807257,0.93647134,1.8338494,0.81061906
3.024,-4.6623063,11.535913,6.3717303,0.9385159,1.8466233,0.74237436
3.026,-4.653275,11.557667,6.162611,0.9388174,1.8544854,0.6742046
3.028,-4.646431,11.574398,5.954486,0.9375304,1.8575156,0.6062616
3.03,-4.6414385,11.585421,5.7483044,0.93482184,1.8557607,0.53865373
3.032,-4.638188,11.590431,5.5449467,0.9308623,1.8492708,0.47144055
3.034,-4.6362634,11.588926,5.3453803,0.925855,1.8380882,0.40466434
3.036,-4.6353283,11.580642,5.1504602,0.9199653,1.822265,0.33833474
3.038,-4.6352854,11.565318,4.961018,0.9133636,1.8018575,0.2724375
3.04,-4.63599,11.542732,4.777693,0.9061978,1.7769308,0.20696837
3.042,-4.637122,11.512672,4.601432,0.89861465,1.7475736,0.1419124
3.044,-4.6383886,11.475153,4.432835,0.89072263,1.7138715,0.0772782
3.046,-4.639922,11.430133,4.2725177,0.88263535,1.6759319,0.013078451
3.048,-4.641449,11.37767,4.1211915,0.87442225,1.6338878,-0.050649107
3.05,-4.642563,11.317775,3.979367,0.8661587,1.587883,-0.11386621
3.052,-4.6434064,11.250631,3.8474042,0.85791004,1.5380771,-0.17651588
3.054,-4.643932,11.176529,3.7257638,0.8497257,1.4846691,-0.23852217
3.056,-4.6438403,11.095575,3.6147296,0.841663,1.4278796,-0.29978627
3.058,-4.6432304,11.008106,3.5145917,0.83379066,1.3679526,-0.36020082
3.06,-4.641943,10.914646,3.4254704,0.826163,1.3051616,-0.41962957
3.062,-4.640006,10.815424,3.347567,0.81884634,1.2398028,-0.47791642
3.064,-4.6374445,10.71126,3.2808871,0.8118902,1.1721895,-0.53489965
3.066,-4.634235,10.60246,3.2254095,0.80534494,1.1026481,-0.5903723
3.068,-4.6302533,10.489742,3.1809824,0.7992533,1.0315132,-0.6441481
3.07,-4.625515,10.373696,3.1474366,0.7936506,0.95912254,-0.6960374
3.072,-4.6198397,10.254927,3.1246543,0.7885678,0.8858143,-0.7458781
3.074,-4.613245,10.134035,3.1122775,0.7840198,0.81193805,-0.79351777
3.076,-4.605606,10.011796,3.1099677,0.7800286,0.73785734,-0.8388502
3.078,-4.596837,9.888837,3.117423,0.7766212,0.6639097,-0.8817887
3.08,-4.5868464,9.765863,3.1342156,0.77383834,0.5904505,-0.9222928
3.082,-4.5753794,9.643446,3.1598954,0.77175295,0.51783144,-0.96036017
3.084,-4.56238,9.522293,3.193997,0.77042866,0.4463898,-0.9960444
3.086,-4.5477476,9.4029665,3.2360086,0.76995033,0.37644523,-1.0294086
3.088,-4.5312166,9.286016,3.2855263,0.77039236,0.30828345,-1.0605521
3.09,-4.5126514,9.172014,3.3418503,0.7718502,0.2421694,-1.0895871
3.092,-4.4919176,9.061321,3.4045453,0.77440304,0.17832372,-1.1166401
3.094,-4.468967,8.954514,3.4730422,0.77811706,0.11692174,-1.1418467
3.096,-4.443513,8.851814,3.5467653,0.7830327,0.05808656,-1.16533
3.098,-4.4155293,8.753574,3.625233,0.78917915,0.0018927902,-1.1872137
3.1,-4.384839,8.6600485,3.7080765,0.79655,-0.051643834,-1.2075976
3.102,-4.3514633,8.571377,3.7948008,0.8051295,-0.10253897,-1.2265863
3.104,-4.315211,8.487814,3.8849463,0.81487006,-0.15084912,-1.2442621
3.106,-4.2761974,8.409485,3.978056,0.8257166,-0.19667786,-1.260705
3.108,-4.234309,8.336271,4.0737753,0.83760595,-0.24014407,-1.2759788
3.11,-4.189682,8.268262,4.1717377,0.850454,-0.2813832,-1.290137
3.112,-4.1421447,8.205538,4.2716923,0.86418927,-0.3205338,-1.3032377
3.114,-4.0918694,8.148144,4.373207,0.8787467,-0.35773715,-1.3153222
3.116,-4.038808,8.095797,4.4760056,0.8940573,-0.3931103,-1.3264315
3.118,-3.983236,8.048552,4.5799065,0.9100783,-0.4267656,-1.3366085
3.12,-3.9249632,8.00633,4.6846795,0.92676485,-0.45878097,-1.3458987
3.122,-3.8642223,7.968959,4.79001,0.9440925,-0.48920667,-1.3543186
3.124,-3.8010833,7.9363976,4.8956633,0.96203107,-0.5180479,-1.3618999
3.126,-3.7355723,7.908386,5.0014687,0.98056406,-0.5452783,-1.3686805
3.128,-3.6678,7.8848267,5.1072965,0.9996871,-0.57081467,-1.3747182
3.13,-3.5979102,7.8654914,5.2127357,1.0193918,-0.59456056,-1.3800687
3.132,-3.5259948,7.850246,5.3176184,1.0396721,-0.61636215,-1.3848114
3.134,-3.4520178,7.838866,5.4217725,1.0605276,-0.63606936,-1.3890288
3.136,-3.376198,7.8312063,5.524902,1.0819587,-0.65351385,-1.3928077
3.138,-3.2985923,7.8271575,5.626732,1.103987,-0.668522,-1.396237
3.14,-3.2194035,7.826574,5.726982,1.1266258,-0.680935,-1.399405
3.142,-3.138593,7.8292465,5.825377,1.1498967,-0.6906217,-1.4023782
3.144,-3.0563915,7.8351135,5.921612,1.1738079,-0.69748485,-1.4051999
3.146,-2.9728887,7.84401,6.015397,1.1983705,-0.70146096,-1.4078952
3.148,-2.8882194,7.8558493,6.1064234,1.2235781,-0.70252097,-1.4104574
3.15,-2.8024492,7.8705335,6.19439,1.2494175,-0.70069766,-1.4128473
3.152,-2.7158744,7.888051,6.2790403,1.2758565,-0.6960521,-1.4150174
3.154,-2.628599,7.908265,6.3602467,1.3028517,-0.688676,-1.4169096
3.156,-2.540908,7.93118,6.4377594,1.3303528,-0.6787152,-1.4184604
3.158,-2.4529033,7.956824,6.5113363,1.3582939,-0.66631746,-1.4196203
3.16,-2.364574,7.985097,6.5807877,1.3866024,-0.6516379,-1.4203662
3.162,-2.2762706,8.015904,6.646039,1.4152187,-0.6348487,-1.4206946
3.164,-2.1878948,8.049268,6.707052,1.4440954,-0.6161181,-1.4206263
3.166,-2.099926,8.08508,6.763691,1.4731779,-0.59560585,-1.4202077
3.168,-2.012427,8.123406,6.8160257,1.5024217,-0.5734792,-1.4195052
3.17,-1.9255867,8.16399,6.86401,1.5318012,-0.5498855,-1.4185948
3.172,-1.8395498,8.206984,6.9076414,1.56128,-0.5249817,-1.4175344
3.174,-1.7542763,8.252194,6.9471054,1.5908325,-0.49893984,-1.4163773
3.176,-1.6700399,8.2997265,6.982626,1.6204095,-0.471914,-1.4151748
3.178,-1.5869825,8.349411,7.014205,1.6499746,-0.44407988,-1.4139326
3.18,-1.5051134,8.40119,7.042042,1.6794689,-0.41563287,-1.4126326
3.182,-1.4245446,8.454957,7.0663996,1.7088151,-0.3867747,-1.4112344
3.184,-1.3453784,8.51065,7.087493,1.7379254,-0.35769224,-1.4096829
3.186,-1.2675717,8.568133,7.1056604,1.7667192,-0.3285984,-1.4079115
3.188,-1.1911743,8.627177,7.121104,1.7951154,-0.29966903,-1.405864
3.19,-1.1161904,8.68769,7.1341314,1.8230392,-0.27108437,-1.4034863
3.192,-1.0426996,8.749362,7.145062,1.8504251,-0.24299337,-1.4007452
3.194,-0.97064924,8.811952,7.154181,1.8772346,-0.21552815,-1.3976256
3.196,-0.8999374,8.875288,7.1618757,1.9034474,-0.18877143,-1.3941444
3.198,-0.8305447,8.938985,7.168314,1.9290673,-0.16277966,-1.3903625
3.2,-0.76258016,9.002786,7.1738844,1.9541206,-0.13757148,-1.3863587
3.202,-0.6959176,9.066475,7.1787615,1.9786555,-0.113127135,-1.3822528
3.204,-0.6304529,9.129631,7.183305,2.0027347,-0.0893711,-1.3781971
3.206,-0.5662613,9.192152,7.1876764,2.0264468,-0.066228725,-1.3743274
3.208,-0.50322866,9.253695,7.192162,2.0498886,-0.043599933,-1.3707768
3.21,-0.4412856,9.313827,7.196826,2.0731413,-0.02135297,-1.3676428
3.212,-0.38026214,9.372372,7.2017736,2.0963008,0.00062226504,-1.3649821
3.214,-0.32048678,9.429076,7.2071958,2.119448,0.022432879,-1.3627969
3.216,-0.26171303,9.48367,7.213123,2.142641,0.044167936,-1.3610499
3.218,-0.2039411,9.536013,7.219572,2.165917,0.065889776,-1.3596513
3.22,-0.14734173,9.586025,7.226583,2.1892967,0.087638065,-1.3584634
3.222,-0.091955185,9.633464,7.2339873,2.2127733,0.10942739,-1.3573295
3.224,-0.037837982,9.678402,7.2418165,2.2363117,0.13122712,-1.3560728
3.226,0.014996529,9.720982,7.2500105,2.259868,0.15299442,-1.3545332
3.228,0.06636119,9.761088,7.2584743,2.283377,0.17465591,-1.3525459
3.23,0.11610031,9.799028,7.2670593,2.3067737,0.19611138,-1.349962
3.232,0.16435337,9.834948,7.2758217,2.33,0.21726072,-1.3466797
3.234,0.2108016,9.868964,7.284603,2.3529832,0.2379879,-1.3426054
3.236,0.25546694,9.901393,7.2932873,2.375673,0.25815868,-1.3376783
3.238,0.2982614,9.932338,7.301773,2.398027,0.2776379,-1.3318515
3.24,0.3392036,9.962114,7.3101044,2.419999,0.2962955,-1.3251013
3.242,0.37821698,9.990875,7.3181,2.441559,0.3139858,-1.3174111
3.244,0.41513896,10.018841,7.3257313,2.462685,0.33058077,-1.3087915
3.246,0.4500271,10.046161,7.333021,2.483365,0.34595796,-1.2992797
3.248,0.4829862,10.072784,7.340018,2.503586,0.36002922,-1.2889345
3.25,0.5139524,10.098919,7.346628,2.5233426,0.37273094,-1.2778461
3.252,0.5429714,10.124725,7.3529544,2.5426383,0.38402167,-1.2661388
3.254,0.57010007,10.150103,7.358878,2.5614762,0.39389548,-1.2539665
3.256,0.5954305,10.175125,7.364466,2.5798736,0.40239856,-1.2414943
3.258,0.618762,10.199686,7.369713,2.59785,0.40959144,-1.2289004
3.26,0.6403117,10.223758,7.3746448,2.6154294,0.41555604,-1.2163563
3.262,0.6601887,10.247222,7.3792553,2.6326287,0.42039165,-1.2040185
3.264,0.67838955,10.270068,7.383441,2.6494827,0.42418724,-1.1919951
3.266,0.694955,10.292259,7.387206,2.6660218,0.42703408,-1.180335
3.268,0.7100525,10.31359,7.390747,2.6822574,0.4289888,-1.1690371
3.27,0.72345006,10.334249,7.3938227,2.698186,0.43009245,-1.1580321
3.272,0.7352911,10.354306,7.396466,2.7137947,0.43036848,-1.1472031
3.274,0.7456379,10.373703,7.3986387,2.7290494,0.4298144,-1.1364101
3.276,0.7546884,10.392699,7.400296,2.7439084,0.42841417,-1.1254845
3.278,0.7623788,10.411234,7.4013367,2.758307,0.4261416,-1.1142509
3.28,0.7687806,10.429581,7.401825,2.7721648,0.4229698,-1.1025432
3.282,0.77394664,10.447831,7.401715,2.7854016,0.41885608,-1.090219
3.284,0.777809,10.466091,7.400944,2.7979457,0.41376543,-1.0771633
3.286,0.78052485,10.484484,7.399418,2.809714,0.40764743,-1.0632939
3.288,0.7821773,10.503175,7.3973002,2.820652,0.40046912,-1.0485744
3.29,0.782634,10.522382,7.394549,2.8307056,0.3921929,-1.0329992
3.292,0.78218794,10.542084,7.391156,2.8398418,0.3827917,-1.0166252
3.294,0.780841,10.5623,7.387069,2.8480318,0.37224478,-0.99953616
3.296,0.7785467,10.58296,7.3823423,2.8552668,0.36054295,-0.98185694
3.298,0.7754437,10.604056,7.376939,2.861559,0.34768766,-0.963741
3.3,0.7715572,10.625371,7.371045,2.8669288,0.3336878,-0.9453536
3.302,0.7669107,10.646884,7.3645225,2.8714054,0.31857243,-0.9268849
3.304,0.7616073,10.668229,7.357546,2.8750255,0.302369,-0.9085136
3.306,0.75563693,10.689197,7.350052,2.8778386,0.28512684,-0.8904106
3.308,0.74897075,10.709598,7.3421097,2.8798923,0.26689246,-0.87272847
3.31,0.7416488,10.7290325,7.3337,2.8812423,0.24769789,-0.85559183
3.312,0.73386693,10.7471485,7.324946,2.8819387,0.22758621,-0.8390677
3.314,0.7252767,10.763838,7.315816,2.8820152,0.20659623,-0.8231746
3.316,0.7160897,10.778676,7.306289,2.8815105,0.18475449,-0.80788565
3.318,0.7062186,10.79162,7.296439,2.8804333,0.16207972,-0.7931424
3.32,0.6960372,10.802859,7.2864094,2.8787835,0.13858819,-0.7788373
3.322,0.6851678,10.812049,7.2761545,2.8765445,0.11429644,-0.76482785
3.324,0.6738318,10.819148,7.265637,2.873694,0.08921218,-0.75098515
3.326,0.66191924,10.824193,7.2549663,2.8702004,0.063320845,-0.737164
3.328,0.64942443,10.827325,7.244167,2.8660226,0.03662032,-0.7232172
3.33,0.6365293,10.828552,7.233273,2.861114,0.009115368,-0.70902944
3.332,0.62320065,10.828084,7.222402,2.8554516,-0.019202232,-0.69452405
3.334,0.60959363,10.8259945,7.211566,2.8490171,-0.04833594,-0.6796513
3.336,0.5956286,10.822479,7.2008195,2.8417826,-0.07826449,-0.66440547
3.338,0.5816215,10.817823,7.1901903,2.8337352,-0.10896368,-0.64881426
3.34,0.567518,10.812103,7.179777,2.8248875,-0.14039257,-0.63294744
3.342,0.55333304,10.805514,7.169612,2.8152487,-0.17250423,-0.61688364
3.344,0.5393518,10.798285,7.159733,2.8048532,-0.2052395,-0.60071427
3.346,0.52552664,10.790566,7.15019,2.7937398,-0.23853339,-0.58452886
3.348,0.5120076,10.782515,7.1410775,2.7824862,-0.27106565,-0.5689571
3.35,0.49878442,10.774239,7.132359,2.7709084,-0.30334538,-0.55381227
3.352,0.4859774,10.765832,7.1241403,2.759177,-0.3350699,-0.5392344
3.354,0.4736762,10.757416,7.1163626,2.747469,-0.36591595,-0.5253542
3.356,0.46194005,10.749033,7.109048,2.7359617,-0.39556786,-0.5122785
3.358,0.45064056,10.740855,7.1021504,2.7248278,-0.42373043,-0.50009215
3.36,0.43994856,10.732786,7.095757,2.714206,-0.4501552,-0.48884007
3.362,0.429775,10.724811,7.089728,2.704216,-0.4746659,-0.4785459
3.364,0.42013085,10.717004,7.0842314,2.6949277,-0.4971649,-0.4692037
3.366,0.41107702,10.709332,7.0791674,2.6863792,-0.5176304,-0.46078134
3.368,0.40272462,10.70186,7.0744596,2.678583,-0.5361046,-0.45324042
3.37,0.39484918,10.694621,7.070158,2.6715128,-0.55269426,-0.4465053
