Time_s_,Acc_x_m_s_2_,Acc_y_m_s_2_,Acc_z_m_s_2_,Gyro_x_1_s_,Gyro_y_1_s_,Gyro_z_1_s_
0,-0.055213254,0.046833854,-0.021465408,0.34777942,-0.0992512,0.26242015
0.002,-0.06107393,0.061410993,0.004464721,0.35100147,-0.10368077,0.2595522
0.004,-0.067704186,0.07721335,0.031791806,0.354416,-0.10860389,0.25625107
0.006,-0.07504839,0.09424941,0.06053068,0.3580311,-0.11404274,0.25245902
0.008,-0.08305595,0.1125973,0.090587646,0.36185843,-0.11998152,0.24811944
0.01,-0.091921285,0.13231593,0.12182943,0.36591703,-0.12635598,0.24315318
0.012,-0.10165873,0.1534742,0.15412304,0.37022778,-0.1330659,0.2374765
0.014,-0.112236544,0.17598264,0.18717846,0.37481853,-0.13996336,0.23099616
0.016,-0.12381502,0.19991682,0.2205492,0.3797186,-0.14685129,0.22362961
0.018,-0.13634863,0.22549915,0.25407535,0.38497487,-0.15349154,0.21531613
0.02,-0.15006408,0.25268975,0.28739715,0.39062124,-0.1596238,0.20599887
0.022,-0.16478604,0.28145775,0.3201416,0.3967119,-0.16497841,0.19563048
0.024,-0.18049306,0.31178144,0.35203257,0.40327454,-0.16930845,0.18418464
0.026,-0.19724068,0.34349197,0.3828935,0.4103303,-0.17240775,0.17164129
0.028,-0.21474567,0.37650642,0.41222683,0.41806886,-0.17431054,0.15780202
0.03,-0.23302415,0.4106784,0.4396194,0.42617148,-0.17466629,0.1428741
0.032,-0.25175667,0.44564566,0.46465993,0.4346127,-0.17354117,0.12685534
0.034,-0.27048415,0.48121953,0.48688468,0.44334766,-0.17104091,0.10973031
0.036,-0.28884113,0.517074,0.5059436,0.45227566,-0.16735749,0.09146764
0.038,-0.30642647,0.5529383,0.52152604,0.46124822,-0.16275264,0.0720372
0.04,-0.3227553,0.588416,0.5335106,0.4701053,-0.15753894,0.05143885
0.042,-0.3372031,0.6230702,0.54188395,0.47866508,-0.15210903,0.02969738
0.044,-0.34924108,0.6566031,0.54670167,0.48672447,-0.1468832,0.00688766
0.046,-0.35831594,0.6886781,0.5482164,0.4941051,-0.14229694,-0.016877184
0.048,-0.36377278,0.7189394,0.5467324,0.50061226,-0.13877605,-0.04143946
0.05,-0.3652364,0.7470392,0.54261214,0.50610304,-0.13669029,-0.06657872
0.052,-0.36230427,0.7727388,0.53639334,0.5104736,-0.13630675,-0.09204132
0.054,-0.35455534,0.79582703,0.52860826,0.513656,-0.1377823,-0.117546074
0.056,-0.34205058,0.81716615,0.52056146,0.51563424,-0.14114456,-0.14275648
0.058,-0.32418397,0.8354629,0.51180005,0.5164502,-0.14631408,-0.16735606
0.06,-0.301059,0.8510332,0.5032067,0.51617944,-0.15309855,-0.19102909
0.062,-0.2726708,0.8640945,0.49542838,0.5149249,-0.1612223,-0.2135124
0.064,-0.23912987,0.87486714,0.48896024,0.51280874,-0.1703583,-0.23457259
0.066,-0.20073265,0.8836788,0.48412406,0.50997776,-0.18010749,-0.25405443
0.068,-0.1580098,0.89083546,0.48137277,0.50658983,-0.19003654,-0.27188283
0.07,-0.111470014,0.89688045,0.4810142,0.5028134,-0.19970265,-0.28805315
0.072,-0.061742663,0.90235895,0.48321527,0.49881402,-0.20864192,-0.30261523
0.074,-0.009524882,0.90768814,0.48807675,0.49476355,-0.21639743,-0.31563842
0.076,0.0446344,0.9132283,0.4958478,0.4907952,-0.22253844,-0.32720956
0.078,0.100233495,0.9194908,0.5065519,0.48704165,-0.22666848,-0.3374391
0.08,0.15674713,0.9268894,0.5200419,0.48357168,-0.22847812,-0.3464453
0.082,0.21362174,0.9358359,0.5363661,0.48042405,-0.22776324,-0.35435212
0.084,0.27012637,0.94693387,0.5554037,0.4775918,-0.22445293,-0.3612886
0.086,0.32579848,0.9605507,0.5771092,0.47500652,-0.21859166,-0.36738813
0.088,0.3800099,0.9770024,0.60100377,0.47256348,-0.21036188,-0.3727972
0.09,0.432531,0.99635565,0.6269596,0.47013855,-0.20002009,-0.3776768
0.092,0.4834239,1.0186737,0.6545789,0.46762505,-0.18786448,-0.3821737
0.094,0.53269875,1.0438395,0.68321383,0.46492398,-0.17419413,-0.38642594
0.096,0.5807141,1.0718313,0.7123873,0.46199352,-0.159228,-0.3905302
0.098,0.6274674,1.102708,0.74150354,0.45884055,-0.14310482,-0.39455533
0.1,0.6732913,1.1365829,0.7698852,0.45553857,-0.12583295,-0.39849803
0.102,0.7181237,1.1737766,0.7969093,0.45222226,-0.10733232,-0.4023035
0.104,0.7622485,1.2140675,0.8220408,0.44904518,-0.08744997,-0.40587616
0.106,0.80601895,1.2572044,0.84474796,0.44617927,-0.065992475,-0.40905297
0.108,0.8501333,1.302765,0.86460066,0.44380307,-0.04275897,-0.41165555
0.11,0.8950128,1.350238,0.8809619,0.44204628,-0.017624885,-0.41350737
0.112,0.9410223,1.3994862,0.89307785,0.4409985,0.009435073,-0.41444093
0.114,0.98863506,1.4503448,0.8998861,0.440723,0.0383538,-0.4143416
0.116,1.0381507,1.5028208,0.900331,0.44122604,0.068933725,-0.41316992
0.118,1.089846,1.5568302,0.8936218,0.44246355,0.100871444,-0.4109711
0.12,1.1437135,1.6125433,0.8791557,0.4443465,0.13372266,-0.40785223
0.122,1.1995559,1.6700984,0.85626066,0.44673985,0.1669637,-0.4039756
0.124,1.257241,1.7295626,0.82449657,0.44949013,0.20002377,-0.3995594
0.126,1.3168372,1.7907463,0.78347206,0.4524314,0.23229599,-0.39487153
0.128,1.3782815,1.8532476,0.7326148,0.455418,0.26319936,-0.39021823
0.13,1.4415469,1.916908,0.6716287,0.45834482,0.2922231,-0.38596636
0.132,1.5061471,1.9815639,0.6005469,0.4611496,0.31892186,-0.38251868
0.134,1.5718625,2.0471182,0.51938057,0.46382976,0.34296793,-0.38026434
0.136,1.6385766,2.1134665,0.4283173,0.46642303,0.3641419,-0.37957007
0.138,1.7060657,2.180097,0.3278458,0.46903318,0.38234633,-0.38073847
0.14,1.7742165,2.2465425,0.21862805,0.47180063,0.39753786,-0.38400394
0.142,1.8427916,2.312244,0.10148929,0.4748512,0.4097225,-0.38951534
0.144,1.9116287,2.3764687,-0.022512987,0.47828472,0.41888767,-0.39730683
0.146,1.9807333,2.438556,-0.15222557,0.48214874,0.42500034,-0.40733483
0.148,2.0502105,2.4977984,-0.28622848,0.48642802,0.42797363,-0.41946697
0.15,2.1200583,2.5534906,-0.42328453,0.49103114,0.42771542,-0.43350807
0.152,2.1902437,2.6050358,-0.5618409,0.49582022,0.42414236,-0.44920772
0.154,2.2609062,2.6516805,-0.70014745,0.5005702,0.41721198,-0.46625942
0.156,2.3320286,2.692968,-0.83637446,0.50501955,0.40696615,-0.48428828
0.158,2.4035661,2.7284944,-0.96871233,0.5088704,0.39351222,-0.5028986
0.16,2.4752364,2.758045,-1.0952461,0.51180834,0.37703317,-0.52171713
0.162,2.54682,2.7815166,-1.214037,0.51354235,0.3577736,-0.54041314
0.164,2.617563,2.799326,-1.3229972,0.5138051,0.33603826,-0.55875176
0.166,2.6865506,2.8119688,-1.4202969,0.5123662,0.31212008,-0.57661873
0.168,2.7525182,2.8206558,-1.5043471,0.5090276,0.28625864,-0.59403926
0.17,2.8141923,2.8264358,-1.5740515,0.50367033,0.25863132,-0.6111583
0.172,2.8702257,2.8303478,-1.6284602,0.49625394,0.22938968,-0.6282227
0.174,2.9192986,2.8335772,-1.6671886,0.4868272,0.19868968,-0.64554334
0.176,2.9605668,2.8368773,-1.690082,0.47553265,0.16670617,-0.66342103
0.178,2.9929597,2.8413696,-1.6972432,0.46258003,0.13369316,-0.68208194
0.18,3.015534,2.8482707,-1.6890587,0.44823867,0.099995,-0.7016301
0.182,3.0271978,2.8590624,-1.6662955,0.4328096,0.06606883,-0.7220331
0.184,3.0270982,2.875463,-1.6301562,0.41662547,0.03245668,-0.74308485
0.186,3.0141459,2.8993783,-1.5821775,0.40003002,-0.00018367171,-0.7644716
0.188,2.9871683,2.932455,-1.5238042,0.38337046,-0.031138986,-0.78586173
0.19,2.9450943,2.9759932,-1.4564614,0.36698282,-0.05970177,-0.8069236
0.192,2.8871593,3.0310004,-1.382104,0.35118696,-0.08521463,-0.8273744
0.194,2.8131785,3.0978732,-1.302908,0.33630022,-0.107072994,-0.84698826
0.196,2.7231224,3.176846,-1.22128,0.32265377,-0.1247195,-0.8656238
0.198,2.6178365,3.2679882,-1.1397673,0.31058973,-0.13767534,-0.883288
0.2,2.4979591,3.3711834,-1.0613246,0.30043572,-0.14554325,-0.9000857
0.202,2.3647234,3.4861872,-0.98860663,0.2925291,-0.14798138,-0.9162329
0.204,2.2196243,3.6122262,-0.92418134,0.2872081,-0.14470099,-0.9320057
0.206,2.064509,3.7480307,-0.8705067,0.28478667,-0.13542211,-0.94770646
0.208,1.9018526,3.8917139,-0.82980454,0.28558666,-0.11987644,-0.9636287
0.21,1.7341347,4.041008,-0.80352986,0.2898788,-0.09779939,-0.9800177
0.212,1.5643559,4.193619,-0.7928993,0.2978449,-0.06895527,-0.9970162
0.214,1.3952749,4.3473973,-0.798769,0.3095462,-0.033188656,-1.0146431
0.216,1.229742,4.5002594,-0.8214512,0.32488793,0.009494528,-1.0327121
0.218,1.0704482,4.649922,-0.86090153,0.34359407,0.05879,-1.0507519
0.22,0.9200523,4.794106,-0.91630125,0.36512485,0.11400561,-1.0679611
0.222,0.78101206,4.930404,-0.98641324,0.38870242,0.1739461,-1.0831858
0.224,0.655396,5.0566435,-1.0691651,0.4133075,0.23692,-1.0950441
0.226,0.54477525,5.171193,-1.1619325,0.43774408,0.30070317,-1.102024
0.228,0.4505391,5.272867,-1.2623479,0.46074903,0.3626454,-1.1026284
0.23,0.37314463,5.36095,-1.3674711,0.48110056,0.4198396,-1.0955935
0.232,0.31235766,5.4355717,-1.4765911,0.49773654,0.4693755,-1.0800437
0.234,0.26680923,5.497357,-1.5860064,0.5098933,0.50866544,-1.0556265
0.236,0.23577261,5.5461416,-1.6893971,0.5171895,0.535713,-1.0225267
0.238,0.21651745,5.583199,-1.7861664,0.5196462,0.5493326,-0.9813882
0.24,0.20759892,5.6090784,-1.8756695,0.5176981,0.54928184,-0.9331651
0.242,0.20598936,5.625348,-1.9560162,0.5121014,0.5362551,-0.8789286
0.244,0.20776916,5.6349344,-2.02519,0.50382173,0.51176524,-0.81970257
0.246,0.20924854,5.6408668,-2.081971,0.49385732,0.4778709,-0.75632894
0.248,0.20661259,5.6458817,-2.1259296,0.4830926,0.43685037,-0.68941027
0.25,0.19650936,5.652349,-2.1569676,0.47218046,0.39086884,-0.6193162
0.252,0.1753726,5.6628456,-2.1751266,0.46145746,0.34170622,-0.5462088
0.254,0.13940907,5.6800857,-2.1809635,0.45096433,0.29060456,-0.47023553
0.256,0.085534096,5.7060843,-2.1754725,0.44042677,0.23817869,-0.39161077
0.258,0.010750055,5.7428064,-2.1600657,0.42935938,0.18447997,-0.31071782
0.26,-0.08759546,5.7919664,-2.1356385,0.41723,0.12926634,-0.2281454
0.262,-0.21116614,5.8546715,-2.102416,0.40357095,0.07226151,-0.14466253
0.264,-0.36131883,5.9322414,-2.0617154,0.38793933,0.012853622,-0.061195232
0.266,-0.5395062,6.024564,-2.0161462,0.3701339,-0.049098358,0.021547772
0.268,-0.7437687,6.1309643,-1.9665045,0.3502659,-0.112991914,0.10313562
0.27,-0.9741938,6.251743,-1.9142808,0.3285871,-0.17809837,0.18318044
0.272,-1.2289007,6.3855824,-1.8614568,0.30552295,-0.24332713,0.2615643
0.274,-1.5049512,6.5307226,-1.8101549,0.28173763,-0.30705598,0.33841515
0.276,-1.7993531,6.685744,-1.7618259,0.2579642,-0.36732596,0.41397333
0.278,-2.108894,6.8491573,-1.7172909,0.23491335,-0.4221422,0.48867607
0.28,-2.4298546,7.0191765,-1.6762755,0.21314348,-0.4696717,0.56319946
0.282,-2.7584252,7.194133,-1.6384203,0.19294183,-0.5084212,0.63840073
0.284,-3.0910375,7.372403,-1.602608,0.17427818,-0.53744876,0.71525127
0.286,-3.4243972,7.5523853,-1.5671954,0.15674785,-0.5566026,0.7947022
0.288,-3.7550151,7.7323437,-1.5301431,0.13954987,-0.5666746,0.87754405
0.29,-4.079041,7.910012,-1.4890307,0.121530205,-0.56950015,0.96419775
0.292,-4.392555,8.082981,-1.4415083,0.10130882,-0.5678138,1.0545244
0.294,-4.691987,8.248854,-1.3849722,0.07747495,-0.5649308,1.1476607
0.296,-4.9738073,8.405633,-1.3168621,0.048683375,-0.5646965,1.2420701
0.298,-5.2351646,8.551924,-1.2347803,0.013843298,-0.57104003,1.335638
0.3,-5.473036,8.686392,-1.1366495,-0.027526945,-0.58736634,1.4256818
0.302,-5.6846685,8.80777,-1.0202887,-0.07525051,-0.61632323,1.5092044
0.304,-5.8683004,8.915153,-0.88357955,-0.12847954,-0.6594211,1.5832632
0.306,-6.0233107,9.008171,-0.7248234,-0.1857067,-0.71683836,1.6451734
0.308,-6.149309,9.086065,-0.5427462,-0.24484646,-0.78733504,1.6927412
0.31,-6.2458315,9.1475935,-0.3362135,-0.30336148,-0.8682796,1.7243906
0.312,-6.3124237,9.19128,-0.10505988,-0.35854352,-0.95598423,1.7393095
0.314,-6.3487253,9.215609,0.15031636,-0.4077357,-1.0461099,1.7373788
0.316,-6.354747,9.219195,0.42866892,-0.44851023,-1.1340201,1.7190584
0.318,-6.3304615,9.200825,0.72801316,-0.4787406,-1.2149292,1.6852738
0.32,-6.275793,9.159019,1.045634,-0.49689132,-1.2849524,1.6370382
0.322,-6.1926947,9.092768,1.3787014,-0.5020819,-1.3412817,1.57549
0.324,-6.081555,9.000501,1.7234948,-0.49395362,-1.3817894,1.5020249
0.326,-5.9398575,8.879068,2.0765653,-0.47277856,-1.4055432,1.417965
0.328,-5.767577,8.726004,2.434652,-0.43947062,-1.4128312,1.3245841
0.33,-5.566893,8.539433,2.7962766,-0.39542013,-1.4047514,1.2231897
0.332,-5.338522,8.319195,3.1581097,-0.34236765,-1.3827941,1.1150882
0.334,-5.081378,8.065557,3.5140529,-0.28227794,-1.3485326,1.0016141
0.336,-4.7968583,7.778495,3.8581922,-0.2172386,-1.3034205,0.8842323
0.338,-4.485645,7.4565353,4.186825,-0.14936203,-1.2486162,0.76453847
0.34,-4.148097,7.098706,4.4964905,-0.08064473,-1.1848253,0.6442717
0.342,-3.7851753,6.705006,4.7866077,-0.012847543,-1.1123629,0.52528447
0.344,-3.3982134,6.276489,5.054163,0.052581787,-1.0313164,0.4094733
0.346,-2.9901888,5.8154893,5.294638,0.11448878,-0.9417796,0.2986465
0.348,-2.56262,5.3234463,5.50961,0.17199117,-0.84411234,0.19436952
0.35,-2.11867,4.803167,5.6993985,0.22460848,-0.73891604,0.09768514
0.352,-1.6606073,4.2565947,5.8624535,0.27203977,-0.62743986,0.009032382
0.354,-1.190394,3.6847186,5.997693,0.31400198,-0.51148075,-0.07157839
0.356,-0.7111247,3.0892334,6.10487,0.35048836,-0.3926066,-0.14453402
0.358,-0.230474,2.4747784,6.1819997,0.3816613,-0.27262157,-0.21087922
0.36,0.24161851,1.8450309,6.236463,0.40766078,-0.15360762,-0.27192903
0.362,0.7195358,1.1942066,6.276476,0.4284895,-0.037075862,-0.32869154
0.364,1.1916348,0.5295328,6.284663,0.4440845,0.0763465,-0.38197505
0.366,1.6603271,-0.14089778,6.2632813,0.4543742,0.18652827,-0.4326727
0.368,2.1295998,-0.8114671,6.219222,0.45928589,0.2939511,-0.4812055
0.37,2.603776,-1.48316,6.166039,0.4587865,0.3998218,-0.52728313
0.372,3.0717351,-2.1410592,6.1083612,0.4528846,0.5057991,-0.5701184
0.374,3.5200799,-2.764689,6.0257535,0.44163287,0.61367,-0.6086326
0.376,3.960374,-3.3528721,5.9177117,0.42512643,0.7250221,-0.6416918
0.378,4.3978477,-3.909644,5.804738,0.40345183,0.84081197,-0.66836417
0.38,4.827889,-4.433959,5.6891193,0.37660828,0.9609787,-0.688084
0.382,5.2458124,-4.919881,5.54809,0.34447798,1.0841402,-0.7007836
0.384,5.6420603,-5.357168,5.3576074,0.30683276,1.2075763,-0.70695615
0.386,6.022582,-5.7434106,5.1139035,0.26335,1.3274062,-0.70760113
0.388,6.3879795,-6.0777774,4.8177314,0.21385336,1.4394552,-0.704149
0.39,6.7398424,-6.34486,4.495963,0.15832025,1.5396292,-0.6985967
0.392,7.0711956,-6.536218,4.1526623,0.09757054,1.6251242,-0.6919758
0.394,7.3870907,-6.6616955,3.786476,0.033015966,1.6940837,-0.683765
0.396,7.690263,-6.7140503,3.396185,-0.033211827,1.7459556,-0.67250764
0.398,7.9744825,-6.6752934,2.978475,-0.097497106,1.7832811,-0.65628487
0.4,8.233201,-6.531415,2.5256975,-0.15525287,1.810754,-0.63255817
0.402,8.461878,-6.2757635,2.0188127,-0.19967937,1.8369519,-0.59740543
0.404,8.659116,-5.9099755,1.4343003,-0.22191507,1.8751299,-0.5463632
0.406,8.825274,-5.4419737,0.76892734,-0.21331918,1.9391084,-0.47577727
0.408,8.954542,-4.8805933,0.03358376,-0.16571891,2.0416894,-0.38231307
0.41,9.035547,-4.231923,-0.7664098,-0.07100773,2.1962757,-0.26353788
0.412,9.057128,-3.504411,-1.6339569,0.077893615,2.4149485,-0.1199612
0.414,9.014746,-2.713122,-2.5705569,0.2854668,2.704967,0.04364296
0.416,8.907267,-1.8757944,-3.5721774,0.55238533,3.0666723,0.21937189
0.418,8.733848,-1.0096333,-4.629332,0.87435627,3.494365,0.3964706
0.42,8.495946,-0.13037014,-5.7294326,1.2422973,3.9771674,0.55773383
0.422,8.198946,0.7468531,-6.8594303,1.644659,4.4986496,0.6812571
0.424,7.852272,1.6050851,-8.005202,2.0643187,5.034875,0.74695504
0.426,7.466064,2.4245882,-9.147323,2.4791007,5.555253,0.7400702
0.428,7.050708,3.1857672,-10.261926,2.8646436,6.024388,0.6514007
0.43,6.617255,3.8723547,-11.323053,3.1964362,6.403962,0.47762853
0.432,6.179169,4.471158,-12.30466,3.4526234,6.6570816,0.22268538
0.434,5.748729,4.972842,-13.181801,3.6156445,6.7521143,-0.10208364
0.436,5.337052,5.3723826,-13.932584,3.6734047,6.665751,-0.47797364
0.438,4.9583898,5.6675463,-14.538634,3.621713,6.3885345,-0.880295
0.44,4.6276193,5.8589077,-14.986501,3.4649067,5.9277096,-1.2823977
0.442,4.3560214,5.948909,-15.264369,3.2148077,5.306041,-1.6593018
0.444,4.1509657,5.9433446,-15.362967,2.8894937,4.5599346,-1.9894532
0.446,4.019384,5.851198,-15.279268,2.5112092,3.7349584,-2.2573535
0.448,3.9631643,5.6849213,-15.016998,2.1044865,2.8810556,-2.4545407
0.45,3.9812007,5.457618,-14.585189,1.6934592,2.0464773,-2.5789478
0.452,4.0693755,5.1825166,-13.997383,1.2993492,1.2716011,-2.6346405
0.454,4.2208004,4.8726854,-13.27021,0.93971586,0.5864008,-2.6314385
0.456,4.4258547,4.5410624,-12.422007,0.6266334,0.0073406994,-2.583429
0.458,4.6723785,4.1997037,-11.473236,0.36694646,-0.46173322,-2.5055716
0.46,4.947291,3.859214,-10.445821,0.16398647,-0.82413125,-2.411285
0.462,5.2370634,3.528845,-9.3622465,0.01690206,-1.0887665,-2.3123083
0.464,5.5277243,3.216609,-8.245312,-0.07948291,-1.2699578,-2.2174547
0.466,5.8061953,2.9287744,-7.116515,-0.13280475,-1.3827289,-2.1310234
0.468,6.0638876,2.6679845,-5.9929223,-0.1515382,-1.4398046,-2.0537155
0.47,6.2932816,2.4368224,-4.8967705,-0.14426589,-1.4520054,-1.985252
0.472,6.468516,2.2437086,-3.8448658,-0.11906594,-1.4298863,-1.9244252
0.474,6.594642,2.0815275,-2.8285527,-0.08358014,-1.3837214,-1.8670901
0.476,6.6634045,1.9446459,-1.8599544,-0.04568565,-1.3228357,-1.8100992
0.478,6.6706614,1.8302851,-0.9508021,-0.009490669,-1.2538282,-1.7550216
0.48,6.616975,1.7406864,-0.11299372,0.023641765,-1.1812142,-1.7059838
0.482,6.5177193,1.6634517,0.6547935,0.053037167,-1.1079228,-1.6661463
0.484,6.3867216,1.586647,1.3755347,0.07869589,-1.0349654,-1.636842
0.486,6.215477,1.5196283,2.047761,0.100856185,-0.96235317,-1.6186308
0.488,6.006139,1.4717441,2.652904,0.12048757,-0.88889647,-1.6117612
0.49,5.7746553,1.4421136,3.196391,0.1392087,-0.8120512,-1.616787
0.492,5.5324163,1.4263258,3.7023084,0.15781108,-0.7303575,-1.6343521
0.494,5.29294,1.4168066,4.183892,0.1764675,-0.64348423,-1.6637591
0.496,5.054465,1.4143112,4.6296268,0.19532248,-0.5510189,-1.7030983
0.498,4.822461,1.4194175,5.026158,0.21446025,-0.45270061,-1.750575
0.5,4.600776,1.4200647,5.3436084,0.2337045,-0.34861046,-1.804803
0.502,4.400053,1.4141605,5.5838537,0.25287378,-0.2390406,-1.8644964
0.504,4.2174807,1.4139419,5.7534018,0.2720159,-0.12459009,-1.9283828
0.506,4.053505,1.4117546,5.857483,0.29132524,-0.006127879,-1.994983
0.508,3.9161925,1.3938296,5.902614,0.31098467,0.11550379,-2.0626557
0.51,3.8109279,1.3553779,5.8975787,0.33111587,0.23948902,-2.1301503
0.512,3.7392395,1.2989764,5.8574157,0.3518502,0.36481494,-2.1968834
0.514,3.6993237,1.2317948,5.79398,0.373313,0.49009445,-2.2626436
0.516,3.6881397,1.161235,5.697277,0.39549547,0.61366963,-2.327302
0.518,3.708405,1.0903718,5.5509276,0.41818884,0.7337887,-2.3907747
0.52,3.7642903,1.0172517,5.352131,0.44107237,0.8487484,-2.453165
0.522,3.8562317,0.94054675,5.108925,0.46388787,0.95708346,-2.5146859
0.524,3.9777164,0.86270535,4.8280597,0.48657513,1.0577527,-2.5755296
0.526,4.1211586,0.78536475,4.512205,0.50937665,1.1502864,-2.635932
0.528,4.28008,0.70793676,4.1621003,0.5328384,1.2348375,-2.6961489
0.53,4.4479065,0.62842095,3.7798789,0.5577765,1.3121595,-2.7563152
0.532,4.6172843,0.5449803,3.3704877,0.5851913,1.3834882,-2.8165193
0.534,4.7809205,0.4583565,2.9392476,0.61607677,1.4502498,-2.8767064
0.536,4.933561,0.37232304,2.4885457,0.65120775,1.513712,-2.9365273
0.538,5.072321,0.29044127,2.0194871,0.690971,1.57479,-2.9953618
0.54,5.1949997,0.21412182,1.534081,0.7352431,1.633776,-3.0525048
0.542,5.299074,0.14352918,1.0358796,0.78329664,1.690151,-3.107102
0.544,5.3819294,0.07870054,0.53021705,0.83377594,1.7426174,-3.158114
0.546,5.4401608,0.019894123,0.023104012,0.88483125,1.7892237,-3.2043023
0.548,5.4707093,-0.032732964,-0.4790909,0.93422663,1.8275852,-3.2442892
0.55,5.4712086,-0.0789659,-0.9706054,0.97956467,1.8551837,-3.2766907
0.552,5.4401255,-0.11858523,-1.4462696,1.0184782,1.8696564,-3.3002748
0.554,5.3767843,-0.1512897,-1.9013445,1.0488508,1.8690374,-3.3141623
0.556,5.2812514,-0.17678213,-2.3314495,1.0690501,1.851954,-3.3179398
0.558,5.155182,-0.19507146,-2.7327132,1.0780562,1.8177483,-3.3117256
0.56,4.999711,-0.20645154,-3.1009738,1.0755903,1.76658,-3.2962494
0.562,4.817549,-0.21212971,-3.4326968,1.0621368,1.6994736,-3.2728174
0.564,4.611005,-0.212803,-3.7255015,1.0388362,1.6181719,-3.243172
0.566,4.382731,-0.20917392,-3.9777994,1.0073692,1.5249236,-3.2092953
0.568,4.135895,-0.2019099,-4.1880875,0.96978104,1.4224126,-3.1731853
0.57,3.8733792,-0.19195127,-4.354895,0.92825514,1.3135111,-3.136716
0.572,3.5980532,-0.1798358,-4.476918,0.8848978,1.2010791,-3.1015046
0.574,3.3134656,-0.1666764,-4.5530534,0.84155494,1.0878034,-3.0688355
0.576,3.02299,-0.15322524,-4.583269,0.7997129,0.9760779,-3.039738
0.578,2.729846,-0.13987172,-4.5687613,0.7604182,0.86789465,-3.0150776
0.58,2.4378884,-0.12694979,-4.51204,0.7243252,0.7648175,-2.9956343
0.582,2.1507373,-0.11508334,-4.4162316,0.69174093,0.66797805,-2.9821968
0.584,1.8722243,-0.10472119,-4.2849007,0.6627032,0.5781882,-2.9756584
0.586,1.6058757,-0.09650946,-4.121628,0.6370729,0.49599808,-2.9769459
0.588,1.3551826,-0.091107816,-3.9295983,0.61462086,0.42178357,-2.9869728
0.59,1.123457,-0.0890671,-3.7119079,0.5951467,0.35595798,-3.0065134
0.592,0.91434795,-0.09099242,-3.4712992,0.5784406,0.29883897,-3.0359695
0.594,0.7315174,-0.09802148,-3.2104616,0.5642389,0.25059927,-3.0752535
0.596,0.57836545,-0.111166984,-2.9319334,0.5522744,0.21135387,-3.1238635
0.598,0.45769718,-0.13155583,-2.638139,0.5422911,0.1811142,-3.1810071
0.6,0.3717994,-0.15993421,-2.3315363,0.5339769,0.15965006,-3.2456644
0.602,0.3228817,-0.19744177,-2.0148928,0.52695143,0.14646718,-3.3166862
0.604,0.3121562,-0.24462219,-1.6906294,0.52074003,0.14072254,-3.392775
0.606,0.34057203,-0.30225918,-1.3608496,0.5147616,0.14122984,-3.4725776
0.608,0.40814197,-0.37087053,-1.0277923,0.5083379,0.14649147,-3.5547678
0.61,0.5145892,-0.45046848,-0.6928833,0.5006137,0.15472993,-3.6380892
0.612,0.65865177,-0.541289,-0.3577248,0.49065074,0.16400066,-3.7213502
0.614,0.83872634,-0.64329326,-0.023155618,0.47744262,0.17220274,-3.8034427
0.616,1.0527546,-0.75639474,0.3093838,0.46004516,0.1772171,-3.8833444
0.618,1.2972867,-0.88083315,0.63857496,0.43768752,0.1771248,-3.9601095
0.62,1.5674872,-1.016267,0.96351147,0.409796,0.17034876,-4.0328817
0.622,1.8581351,-1.1610773,1.2837172,0.37603864,0.15570033,-4.1008835
0.624,2.1645613,-1.313475,1.5986711,0.33634934,0.1324768,-4.1634135
0.626,2.482181,-1.4716519,1.9078324,0.29094917,0.10051492,-4.2198606
0.628,2.8066301,-1.6342504,2.2107294,0.24031243,0.06022337,-4.2696958
0.63,3.1338205,-1.8004444,2.5069246,0.18507247,0.012549669,-4.3124776
0.632,3.4596024,-1.9692779,2.7961974,0.12599756,-0.041105866,-4.3478646
0.634,3.7792833,-2.1395254,3.07852,0.0638846,-0.09899795,-4.375665
0.636,4.088791,-2.3101954,3.353844,-0.00046033785,-0.15908635,-4.3958173
0.638,4.3840814,-2.4800828,3.6221216,-0.066314824,-0.21926904,-4.408418
0.64,4.6611247,-2.6478226,3.8827713,-0.13305843,-0.2774137,-4.4137254
0.642,4.915948,-2.8118167,4.1354465,-0.20016958,-0.33147058,-4.412181
0.644,5.145756,-2.9702091,4.3792405,-0.26726395,-0.37966192,-4.4043946
0.646,5.3491073,-3.121295,4.6124625,-0.33402434,-0.42040914,-4.3911977
0.648,5.5247903,-3.2637053,4.8337593,-0.4001535,-0.45239535,-4.373554
0.65,5.6725254,-3.3962142,5.0415287,-0.4654437,-0.47469866,-4.3525257
0.652,5.792446,-3.5177636,5.234123,-0.5297076,-0.48677278,-4.32927
0.654,5.885274,-3.6272922,5.410093,-0.59281325,-0.4883994,-4.305015
0.656,5.952511,-3.7243178,5.568472,-0.65462494,-0.47969753,-4.281006
0.658,5.996003,-3.8088324,5.708996,-0.7150365,-0.46103972,-4.258511
0.66,6.017939,-3.8807077,5.8315187,-0.77392364,-0.43295175,-4.238739
0.662,6.02037,-3.9395847,5.9356375,-0.8311749,-0.3960547,-4.2227507
0.664,6.006089,-3.985289,6.0208583,-0.88661027,-0.35095066,-4.2114034
0.666,5.9780993,-4.017767,6.087066,-0.9400233,-0.29816046,-4.2053084
0.668,5.9389963,-4.0369663,6.1340714,-0.99119353,-0.23812258,-4.204793
0.67,5.8917904,-4.0431447,6.1618705,-1.0399128,-0.17122307,-4.209863
0.672,5.838141,-4.035976,6.1709013,-1.0859339,-0.09771961,-4.22024
0.674,5.780609,-4.015772,6.1617985,-1.1290038,-0.017784119,-4.235384
0.676,5.7212067,-3.9829297,6.136347,-1.1688848,0.06842616,-4.254553
0.678,5.661207,-3.9378786,6.095088,-1.2053806,0.16072942,-4.2768493
0.68,5.601887,-3.8808885,6.039888,-1.2383664,0.25890207,-4.3012815
0.682,5.5446253,-3.8125963,5.97123,-1.2678188,0.36259738,-4.3268666
0.684,5.4895434,-3.7331412,5.8892155,-1.2938018,0.4712888,-4.35278
0.686,5.4366293,-3.6428862,5.7971163,-1.3164828,0.5842137,-4.37839
0.688,5.3865895,-3.542922,5.6971684,-1.3361359,0.70031875,-4.4032927
0.69,5.339454,-3.434712,5.5898705,-1.3531458,0.81817603,-4.4273667
0.692,5.295534,-3.3194368,5.475726,-1.367977,0.93603057,-4.450774
0.694,5.254647,-3.1978774,5.355463,-1.3812103,1.0517381,-4.4739347
0.696,5.217124,-3.071209,5.230468,-1.3934919,1.1628873,-4.4974775
0.698,5.182764,-2.9405808,5.102374,-1.4054929,1.2669344,-4.5221643
0.7,5.151334,-2.8073144,4.9725523,-1.4178841,1.3613578,-4.548748
0.702,5.1231203,-2.6731052,4.841893,-1.4312553,1.4439075,-4.5779076
0.704,5.0985527,-2.539714,4.710626,-1.446103,1.5127599,-4.610163
0.706,5.0784445,-2.4093337,4.5780034,-1.4628279,1.5666609,-4.645816
0.708,5.0634456,-2.2839863,4.4461365,-1.481679,1.6050928,-4.6849246
0.71,5.053729,-2.1649728,4.3172097,-1.502753,1.6282861,-4.7273216
0.712,5.0489845,-2.0539799,4.1922145,-1.5259813,1.6372507,-4.7726197
0.714,5.049788,-1.9527771,4.0720305,-1.5512621,1.6334015,-4.8203025
0.716,5.056523,-1.8625002,3.9565363,-1.578459,1.6184571,-4.8698187
0.718,5.070089,-1.7842064,3.8459473,-1.6073465,1.5944953,-4.920638
0.72,5.091004,-1.7190421,3.740062,-1.6377535,1.563523,-4.97232
0.722,5.120409,-1.6681381,3.6393962,-1.6696041,1.5272684,-5.024475
0.724,5.159091,-1.632952,3.5442588,-1.7028956,1.4871283,-5.0768995
0.726,5.2075925,-1.614564,3.4548583,-1.7377374,1.4440744,-5.129546
0.728,5.2662287,-1.6134474,3.3708997,-1.7743225,1.3986951,-5.1824765
0.73,5.335069,-1.629821,3.292319,-1.8128867,1.3512976,-5.235791
0.732,5.4143133,-1.6636872,3.2191265,-1.8536521,1.3019369,-5.2895856
0.734,5.503653,-1.7142181,3.1511118,-1.8968308,1.2504449,-5.343865
0.736,5.6031785,-1.7805593,3.0883377,-1.9426415,1.1962979,-5.398458
0.738,5.7131104,-1.8616325,3.031188,-1.9913723,1.1385971,-5.4529934
0.74,5.8333,-1.9562078,2.9805136,-2.0432549,1.0764995,-5.507023
0.742,5.9636025,-2.0629435,2.9372373,-2.0986168,1.0089802,-5.5600367
0.744,6.103633,-2.1802921,2.9021628,-2.1578777,0.9348436,-5.6114297
0.746,6.252162,-2.3061967,2.8764136,-2.2215524,0.85281754,-5.6605015
0.748,6.4084425,-2.4385414,2.860892,-2.2902498,0.76158905,-5.706591
0.75,6.5716424,-2.5751114,2.8564649,-2.364673,0.65987325,-5.749131
0.752,6.7412863,-2.7134929,2.8640406,-2.4455526,0.54656553,-5.787696
0.754,6.9159803,-2.8510203,2.8851123,-2.533573,0.4208815,-5.8219585
0.756,7.094509,-2.9850037,2.9212406,-2.6293018,0.28247774,-5.851701
0.758,7.2757816,-3.112647,2.9730437,-2.7330408,0.13164663,-5.876751
0.76,7.458292,-3.2311962,3.0411043,-2.8447573,-0.030632854,-5.8970037
0.762,7.6407795,-3.3378985,3.1259565,-2.9640422,-0.20266235,-5.9123635
0.764,7.8216734,-3.4303806,3.2275958,-3.0901213,-0.38204086,-5.9227257
0.766,7.999517,-3.5064483,3.3458395,-3.2218728,-0.5658549,-5.928054
0.768,8.172941,-3.5641415,3.4792671,-3.3578148,-0.75061536,-5.928341
0.77,8.339894,-3.6016452,3.6274848,-3.4962518,-0.932554,-5.9235916
0.772,8.499608,-3.617838,3.7888846,-3.6354752,-1.1080291,-5.9138465
0.774,8.650076,-3.6118467,3.9615784,-3.7737517,-1.2733995,-5.899162
0.776,8.789743,-3.5830078,4.143951,-3.9094234,-1.4251554,-5.879675
0.778,8.917125,-3.5306668,4.3339424,-4.0410213,-1.5601836,-5.855494
0.78,9.031036,-3.4542184,4.528948,-4.167322,-1.675818,-5.82673
0.782,9.130208,-3.3536317,4.7263074,-4.287341,-1.769916,-5.7935224
0.784,9.212917,-3.2292948,4.923333,-4.4003124,-1.8407972,-5.756102
0.786,9.278017,-3.0816479,5.116375,-4.5056705,-1.8872005,-5.7148066
0.788,9.324326,-2.9114347,5.302613,-4.6029544,-1.9082249,-5.6700826
0.79,9.350876,-2.7192364,5.477994,-4.6917615,-1.9032111,-5.6224723
0.792,9.356499,-2.506079,5.6394286,-4.771763,-1.8718017,-5.57254
0.794,9.340868,-2.273272,5.7840075,-4.8427553,-1.8142503,-5.520839
0.796,9.304143,-2.0223327,5.906644,-4.9045687,-1.7311077,-5.4679317
0.798,9.245571,-1.7544513,6.00399,-4.9571357,-1.6233103,-5.41441
0.8,9.165298,-1.4709504,6.074743,-5.000524,-1.4922132,-5.360795
0.802,9.063289,-1.1736946,6.1175475,-5.0349603,-1.3395348,-5.307489
0.804,8.940683,-0.8651471,6.1307497,-5.060831,-1.1674931,-5.2548337
0.806,8.798558,-0.54741955,6.112262,-5.078696,-0.9786665,-5.2030597
0.808,8.638992,-0.22276783,6.06019,-5.089225,-0.7758335,-5.152367
0.81,8.464308,0.106496096,5.9735985,-5.093133,-0.56190777,-5.10296
0.812,8.276898,0.4382882,5.8522377,-5.0911446,-0.3397802,-5.0550575
0.814,8.0794525,0.77054214,5.6968565,-5.083929,-0.11216903,-5.008861
0.816,7.8749523,1.1014807,5.508704,-5.0720973,0.11846137,-4.964595
0.818,7.666565,1.4292462,5.2868757,-5.0561996,0.3499652,-4.9224477
0.82,7.4582896,1.7511034,5.03133,-5.0367436,0.58056724,-4.8825717
0.822,7.2543793,2.06516,4.7439895,-5.0141873,0.80871916,-4.845103
0.824,7.0584903,2.3696823,4.426797,-4.989008,1.0330646,-4.810149
0.826,6.874291,2.662601,4.082684,-4.961691,1.2523915,-4.7778015
0.828,6.705189,2.9419975,3.7149515,-4.9327345,1.4655395,-4.748146
0.83,6.5544844,3.2065141,3.3268456,-4.9026814,1.6713058,-4.721211
0.832,6.424684,3.4553566,2.921094,-4.8721085,1.8684204,-4.6969776
0.834,6.3185043,3.6879797,2.500569,-4.841609,2.0555239,-4.675367
0.836,6.238411,3.903613,2.0682645,-4.8117414,2.231224,-4.6562576
0.838,6.1863465,4.1013308,1.6275458,-4.7830553,2.3940895,-4.639436
0.84,6.1641636,4.280165,1.1815312,-4.756054,2.542727,-4.624636
0.842,6.1726694,4.4395165,0.73335606,-4.731149,2.6758842,-4.6115737
0.844,6.2120895,4.578945,0.2863313,-4.708644,2.792502,-4.599947
0.846,6.2818966,4.698677,-0.15703523,-4.688688,2.8918135,-4.589429
0.848,6.3808327,4.799055,-0.5950136,-4.671296,2.9734292,-4.5797296
0.85,6.507326,4.880788,-1.0259931,-4.656313,3.0373874,-4.57059
0.852,6.659274,4.944853,-1.4483377,-4.643426,3.0841656,-4.561806
0.854,6.8344,4.9922137,-1.8605741,-4.6321993,3.1146202,-4.553274
0.856,7.0302687,5.02398,-2.2617402,-4.6220903,3.1299143,-4.5449276
0.858,7.2436523,5.041309,-2.651508,-4.61248,3.131536,-4.536723
0.86,7.471302,5.0455437,-3.0296001,-4.602743,3.1210356,-4.528708
0.862,7.7091913,5.0382614,-3.3959417,-4.592328,3.0998802,-4.52097
0.864,7.9536414,5.02097,-3.7508674,-4.580838,3.0694473,-4.513588
0.866,8.200685,4.9953127,-4.0952063,-4.568012,3.030929,-4.5066223
0.868,8.446228,4.962917,-4.430138,-4.553731,2.9852943,-4.5001163
0.87,8.687117,4.9257116,-4.756536,-4.537976,2.9333591,-4.49404
0.872,8.919928,4.884308,-5.076009,-4.5208025,2.8758674,-4.4882784
0.874,9.142069,4.840234,-5.3892927,-4.502309,2.8135614,-4.4826145
0.876,9.351252,4.7944465,-5.6979547,-4.4825735,2.7473223,-4.476774
0.878,9.545195,4.7479944,-6.0025387,-4.4616065,2.6782157,-4.470478
0.88,9.722773,4.7011676,-6.304525,-4.4393353,2.6075742,-4.4634633
0.882,9.882052,4.654257,-6.6041484,-4.4155893,2.53702,-4.4554653
0.884,10.02256,4.607482,-6.9017234,-4.390106,2.4684505,-4.4462337
0.886,10.144229,4.5609555,-7.197773,-4.3625565,2.4039955,-4.435545
0.888,10.247074,4.5146103,-7.4920807,-4.3325677,2.3458962,-4.4231973
0.89,10.331879,4.467952,-7.7843075,-4.299782,2.296399,-4.408962
0.892,10.39974,4.4205503,-8.073986,-4.2638555,2.2576926,-4.3926
0.894,10.452231,4.372054,-8.36073,-4.224506,2.2317832,-4.3738003
0.896,10.490946,4.3222094,-8.644108,-4.181533,2.2203712,-4.3522463
0.898,10.518042,4.270876,-8.923708,-4.134795,2.2247572,-4.327588
0.9,10.535433,4.21762,-9.199341,-4.0841885,2.245793,-4.299541
0.902,10.545779,4.162387,-9.470573,-4.029709,2.2836642,-4.267815
0.904,10.551582,4.1049433,-9.737169,-3.9713843,2.338005,-4.2322063
0.906,10.555138,4.04525,-9.999729,-3.9092555,2.4078379,-4.192594
0.908,10.5591345,3.9833727,-10.258698,-3.8434358,2.4915621,-4.148944
0.91,10.56593,3.9197402,-10.514806,-3.7740717,2.5870476,-4.101304
0.912,10.578102,3.8546045,-10.769121,-3.7013721,2.6917176,-4.0497975
0.914,10.597535,3.7884686,-11.022922,-3.6255982,2.8026052,-3.9945922
0.916,10.626321,3.7217102,-11.277887,-3.5470667,2.9165268,-3.9358554
0.918,10.666147,3.6547887,-11.53586,-3.466138,3.0301764,-3.8737714
0.92,10.718579,3.5882154,-11.798734,-3.3832045,3.1402137,-3.8085763
0.922,10.78465,3.5223212,-12.068247,-3.2986927,3.2433672,-3.7405648
0.924,10.865298,3.4576955,-12.346274,-3.2130435,3.3364644,-3.6701
0.926,10.961067,3.3947406,-12.63427,-3.126687,3.4165769,-3.5976114
0.928,11.072473,3.3338437,-12.933721,-3.0400379,3.4810395,-3.523584
0.93,11.199354,3.2752414,-13.245951,-2.9535131,3.5275066,-3.4484715
0.932,11.340982,3.219277,-13.572532,-2.8674946,3.554028,-3.3727083
0.934,11.496435,3.1662223,-13.914405,-2.7823281,3.5590494,-3.2966638
0.936,11.664134,3.1162033,-14.271978,-2.698324,3.5414162,-3.220639
0.938,11.842269,3.0695944,-14.645302,-2.6157527,3.5004008,-3.144838
0.94,12.028271,3.0264728,-15.03373,-2.534845,3.4356496,-3.069376
0.942,12.219826,2.9865499,-15.435713,-2.4557884,3.3471725,-2.994283
0.944,12.414057,2.9496222,-15.849596,-2.378749,3.235298,-2.919548
0.946,12.607626,2.9155152,-16.272842,-2.3038447,3.100577,-2.8451385
0.948,12.797537,2.8839657,-16.702665,-2.231149,2.9437866,-2.7710257
0.95,12.980057,2.8547568,-17.135784,-2.1606977,2.765936,-2.697192
0.952,13.151883,2.827269,-17.5685,-2.0924985,2.568224,-2.623665
0.954,13.309482,2.8010576,-17.996801,-2.0265322,2.3520548,-2.5504837
0.956,13.449975,2.7753832,-18.415997,-1.962693,2.1190953,-2.4777226
0.958,13.570491,2.7496386,-18.820988,-1.9009025,1.8711154,-2.4054615
0.96,13.668322,2.7234995,-19.206951,-1.8410594,1.6100854,-2.3337588
0.962,13.741318,2.6966665,-19.569355,-1.7830263,1.3381382,-2.2626789
0.964,13.787593,2.6687741,-19.903753,-1.726693,1.0574484,-2.1922636
0.966,13.805687,2.6393845,-20.205442,-1.6719415,0.7702407,-2.1225495
0.968,13.7949,2.608128,-20.469723,-1.6186798,0.47875243,-2.0535557
0.97,13.754973,2.5749607,-20.692516,-1.5668476,0.18512037,-1.9852824
0.972,13.686342,2.5397472,-20.870388,-1.5164095,-0.108667105,-1.9176928
0.974,13.59003,2.5023532,-21.000393,-1.4673824,-0.40078536,-1.8507279
0.976,13.467443,2.462681,-21.08034,-1.4197693,-0.68963075,-1.7843621
0.978,13.320298,2.4208338,-21.108818,-1.3735764,-0.9738125,-1.7186052
0.98,13.150098,2.3769507,-21.085394,-1.3288078,-1.2521864,-1.6534826
0.982,12.959483,2.3320372,-21.009268,-1.2854552,-1.5238292,-1.5890259
0.984,12.750587,2.2862566,-20.881334,-1.2434813,-1.7879944,-1.5253181
0.986,12.525794,2.2401693,-20.702374,-1.2028235,-2.0441043,-1.4624803
0.988,12.288061,2.1941218,-20.474401,-1.1634119,-2.2917328,-1.4006608
0.99,12.039923,2.1485636,-20.199667,-1.125159,-2.53054,-1.3400013
0.992,11.784078,2.104083,-19.880743,-1.0879606,-2.7602425,-1.2806598
0.994,11.522923,2.0611258,-19.520573,-1.0516833,-2.980603,-1.2228045
0.996,11.258366,2.0200386,-19.12307,-1.016165,-3.1913939,-1.1666052
0.998,10.992362,1.981125,-18.692432,-0.98123807,-3.3923807,-1.1122144
1,10.726328,1.9449145,-18.232866,-0.9467325,-3.5833015,-1.0597546
1.002,10.461616,1.9117104,-17.74909,-0.9124376,-3.7638845,-1.0093762
1.004,10.19936,1.8820331,-17.245478,-0.8781453,-3.93384,-0.9612324
1.006,9.940447,1.8561974,-16.726313,-0.8436415,-4.0928516,-0.91545004
1.008,9.685279,1.8343891,-16.195433,-0.80869,-4.2406006,-0.872146
1.01,9.433992,1.8170568,-15.65651,-0.77306193,-4.3767495,-0.83141935
1.012,9.186304,1.8044983,-15.113657,-0.7365216,-4.500968,-0.7933484
1.014,8.941952,1.797125,-14.5708685,-0.69888073,-4.6129975,-0.75795937
1.016,8.700756,1.7950622,-14.03162,-0.6600262,-4.712699,-0.72525156
1.018,8.462006,1.7985526,-13.49906,-0.6199291,-4.8000536,-0.6952025
1.02,8.224873,1.8077036,-12.975655,-0.5786547,-4.875229,-0.6677654
1.022,7.988428,1.8230642,-12.463491,-0.5363592,-4.93859,-0.6428612
1.024,7.7520447,1.8449721,-11.964475,-0.4932897,-4.990718,-0.6204142
1.026,7.5149965,1.873805,-11.480017,-0.44978288,-5.032385,-0.60035574
1.028,7.2766256,1.9097228,-11.011032,-0.40623283,-5.0645638,-0.5826046
1.03,7.0363493,1.9528377,-10.5579405,-0.36309505,-5.0883474,-0.5670536
1.032,6.793724,2.0033398,-10.1208105,-0.32085717,-5.1049294,-0.55359906
1.034,6.5479846,2.0613375,-9.699137,-0.27999243,-5.1154985,-0.5421463
1.036,6.298694,2.1270554,-9.292579,-0.24097595,-5.1211677,-0.5325948
1.038,6.0456285,2.2003188,-8.900392,-0.20427215,-5.1229815,-0.52478313
1.04,5.7889004,2.2812037,-8.520926,-0.17031449,-5.121809,-0.51850665
1.042,5.528676,2.3695278,-8.15201,-0.13952115,-5.1183567,-0.51358134
1.044,5.264901,2.465239,-7.7914553,-0.11225176,-5.1131864,-0.5098383
1.046,4.998107,2.5683877,-7.4376383,-0.08883864,-5.106744,-0.50710356
1.048,4.728757,2.678717,-7.088618,-0.06957796,-5.0993547,-0.50517374
1.05,4.457923,2.7958817,-6.7420216,-0.05476144,-5.0912743,-0.5038748
1.052,4.1864014,2.9195337,-6.3953123,-0.04460755,-5.0826826,-0.5031034
1.054,3.915301,3.0492697,-6.0458593,-0.039307,-5.0736756,-0.5028
1.056,3.6460896,3.1845992,-5.6914396,-0.039030492,-5.064286,-0.5029251
1.058,3.3798132,3.3252845,-5.3300676,-0.04387787,-5.0544214,-0.5034974
1.06,3.1182237,3.4708517,-4.959714,-0.053899646,-5.0438814,-0.50458825
1.062,2.862751,3.6208715,-4.578319,-0.06912145,-5.032317,-0.50626725
1.064,2.6154592,3.774525,-4.1840115,-0.089528024,-5.019241,-0.50861007
1.066,2.377837,3.9311244,-3.775486,-0.1150749,-5.0040383,-0.51165867
1.068,2.151451,4.090182,-3.3521032,-0.14567375,-4.9859896,-0.51547754
1.07,1.9379975,4.251053,-2.9133413,-0.1812036,-4.9643292,-0.5201075
1.072,1.738662,4.4133377,-2.4588614,-0.22153735,-4.93828,-0.52557373
1.074,1.5548179,4.576633,-1.9885777,-0.26656812,-4.9071608,-0.5318718
1.076,1.3871877,4.740697,-1.5031568,-0.3162016,-4.8703866,-0.5390427
1.078,1.2366185,4.905299,-1.0037541,-0.3703379,-4.827495,-0.54715407
1.08,1.1032426,5.070134,-0.49170887,-0.42886502,-4.7781477,-0.5562837
1.082,0.9873288,5.2348166,0.03164357,-0.49164888,-4.7220945,-0.5665028
1.084,0.888564,5.3995013,0.56469315,-0.55854887,-4.6591935,-0.57788223
1.086,0.80638033,5.5644364,1.1055422,-0.6293957,-4.5893555,-0.5904723
1.088,0.73993725,5.730031,1.6516995,-0.70400923,-4.5125513,-0.6042749
1.09,0.6880781,5.896642,2.2000465,-0.7821933,-4.428766,-0.61923665
1.092,0.649277,6.064808,2.747376,-0.8637449,-4.3379393,-0.6352763
1.094,0.6218046,6.234972,3.2906482,-0.9484794,-4.2400346,-0.6522615
1.096,0.6039539,6.407875,3.8263693,-1.0362036,-4.135028,-0.6700548
1.098,0.5937597,6.5842443,4.3511205,-1.1267518,-4.022909,-0.68851
1.1,0.58961356,6.7647686,4.860958,-1.2199931,-3.9037094,-0.7075474
1.102,0.5895293,6.9500113,5.3519497,-1.3158143,-3.7775028,-0.727172
1.104,0.5917102,7.14054,5.8201933,-1.414063,-3.6443598,-0.7474432
1.106,0.5946599,7.3366184,6.2620745,-1.5145911,-3.5044198,-0.76844877
1.108,0.5969353,7.5385814,6.674443,-1.6172172,-3.3578382,-0.7902937
1.11,0.5975343,7.7465434,7.0541825,-1.7217033,-3.2048016,-0.813097
1.112,0.5952084,7.9606423,7.3985434,-1.8277998,-3.045538,-0.8369465
1.114,0.589211,8.180836,7.7048416,-1.9352427,-2.8803442,-0.8618895
1.116,0.5790329,8.406671,7.970701,-2.0437708,-2.7096083,-0.88791627
1.118,0.56443906,8.637647,8.194154,-2.15313,-2.533873,-0.91495925
1.12,0.54532385,8.872807,8.373584,-2.2631195,-2.353868,-0.94290173
1.122,0.5219414,9.111212,8.508584,-2.3735914,-2.1704895,-0.9715847
1.124,0.4944613,9.352117,8.599067,-2.4844756,-1.9847642,-1.0008297
1.126,0.46331286,9.594597,8.645578,-2.5957434,-1.7978559,-1.0304903
1.128,0.42901087,9.837538,8.6491585,-2.7073772,-1.6109724,-1.0604525
1.13,0.39208913,10.0795145,8.611396,-2.8193545,-1.4253154,-1.0906388
1.132,0.35296893,10.31904,8.534052,-2.9316382,-1.2420214,-1.1210376
1.134,0.31200123,10.555283,8.41962,-3.0441093,-1.0621083,-1.1517326
1.136,0.26937068,10.786717,8.271234,-3.1565614,-0.8864497,-1.1828834
1.138,0.22513413,11.012191,8.0924635,-3.268705,-0.7157396,-1.2146932
1.14,0.17926812,11.230606,7.886941,-3.3801792,-0.5505117,-1.2473686
1.142,0.13163841,11.441077,7.658618,-3.490582,-0.39115757,-1.2810963
1.144,0.08225286,11.642806,7.4113007,-3.5994625,-0.23796958,-1.3160592
1.146,0.030539751,11.8350725,7.1490316,-3.7063754,-0.09118056,-1.3524137
1.148,-0.024095356,12.017828,6.8752093,-3.8108745,0.049022317,-1.3902695
1.15,-0.08248466,12.191047,6.5927906,-3.9125426,0.18246943,-1.4296592
1.152,-0.14536193,12.354805,6.30469,-4.0109987,0.30899972,-1.4705698
1.154,-0.21340598,12.509032,6.0134816,-4.105881,0.42843175,-1.5129532
1.156,-0.28734308,12.653753,5.721917,-4.19689,0.54053706,-1.5567712
1.158,-0.36779574,12.789344,5.431944,-4.2837873,0.64506847,-1.6019973
1.16,-0.4557686,12.916334,5.1446867,-4.366398,0.7417847,-1.6486493
1.162,-0.5520229,13.035443,4.861046,-4.4446015,0.8304647,-1.6967456
1.164,-0.65726,13.147292,4.5813003,-4.5183473,0.9108684,-1.7463769
1.166,-0.7724376,13.252747,4.3054047,-4.5876927,0.9827503,-1.7977651
1.168,-0.89820457,13.352534,4.032868,-4.65273,1.0459802,-1.8511177
1.17,-1.0350981,13.447607,3.762682,-4.7136154,1.1005359,-1.9066839
1.172,-1.1834079,13.538685,3.493567,-4.770543,1.1465671,-1.9646826
1.174,-1.3437157,13.626591,3.2241502,-4.8236966,1.1844654,-2.0252771
1.176,-1.5159411,13.712027,2.9529376,-4.873266,1.2148256,-2.0885296
1.178,-1.7002208,13.795562,2.6781845,-4.919386,1.2384737,-2.1544313
1.18,-1.8962996,13.877651,2.3978662,-4.962145,1.2565227,-2.22288
1.182,-2.1038458,13.958361,2.1104121,-5.001588,1.2703352,-2.2936869
1.184,-2.32246,14.037881,1.8146539,-5.037692,1.2814986,-2.3665514
1.186,-2.5514815,14.116228,1.5094957,-5.0703835,1.2917659,-2.4411058
1.188,-2.7904837,14.193438,1.1940227,-5.099584,1.3030034,-2.5169442
1.19,-3.0385644,14.269244,0.86729765,-5.1251717,1.3170638,-2.5936828
1.192,-3.2949202,14.343477,0.5284474,-5.147009,1.3357255,-2.6709635
1.194,-3.5582695,14.4155,0.17698574,-5.1649632,1.3606447,-2.7484763
1.196,-3.8272119,14.484657,-0.18661594,-5.1788926,1.3932617,-2.825983
1.198,-4.0999045,14.550026,-0.56113315,-5.188654,1.4347526,-2.9033284
1.2,-4.3745465,14.610756,-0.94538546,-5.194066,1.4860398,-2.9804373
1.202,-4.648965,14.665879,-1.3385785,-5.1949186,1.5477974,-3.0573373
1.204,-4.9207807,14.7145815,-1.7397697,-5.190944,1.6204591,-3.134125
1.206,-5.187387,14.755566,-2.1473353,-5.1818423,1.70419,-3.2109475
1.208,-5.4462614,14.787727,-2.5595696,-5.167266,1.7989714,-3.2879713
1.21,-5.6947803,14.810106,-2.974481,-5.1467943,1.9046131,-3.365348
1.212,-5.9304385,14.821787,-3.3910954,-5.120003,2.0207722,-3.443232
1.214,-6.150521,14.821711,-3.8085938,-5.086458,2.146999,-3.5217073
1.216,-6.352435,14.809148,-4.2250347,-5.0457506,2.2827234,-3.6007957
1.218,-6.533984,14.783248,-4.6391144,-4.9974833,2.4272666,-3.680413
1.22,-6.6928735,14.74332,-5.049828,-4.941261,2.5798202,-3.7603993
1.222,-6.8268375,14.688572,-5.4562545,-4.8767476,2.7393758,-3.840678
1.224,-6.934324,14.618263,-5.8577576,-4.8036323,2.90478,-3.9211686
1.226,-7.014233,14.532032,-6.2539177,-4.7216787,3.07476,-4.0018024
1.228,-7.0660367,14.42972,-6.644639,-4.630714,3.2479043,-4.0825152
1.23,-7.089673,14.311467,-7.030299,-4.5306454,3.4226954,-4.1632814
1.232,-7.085446,14.177518,-7.411785,-4.421462,3.597558,-4.2440643
1.234,-7.054079,14.027893,-7.78967,-4.303267,3.7708523,-4.3248177
1.236,-6.9968987,13.8629,-8.164772,-4.176298,3.9409385,-4.4054847
1.238,-6.9156356,13.682834,-8.5381565,-4.0408983,4.1061754,-4.48596
1.24,-6.812393,13.488268,-8.911052,-3.8975186,4.265008,-4.566097
1.242,-6.6893935,13.2796755,-9.284348,-3.7466908,4.4159446,-4.64564
1.244,-6.5494413,13.05744,-9.659259,-3.5890684,4.557585,-4.7242756
1.246,-6.3951907,12.822426,-10.036974,-3.4253497,4.68863,-4.8016596
1.248,-6.229671,12.575381,-10.418712,-3.2562678,4.807921,-4.877345
1.25,-6.055839,12.316973,-10.8053665,-3.0825925,4.9144554,-4.950787
1.252,-5.876488,12.047823,-11.197695,-2.905122,5.007308,-5.0214057
1.254,-5.694599,11.768458,-11.596014,-2.724645,5.085618,-5.088574
1.256,-5.512539,11.479534,-12.00019,-2.5419924,5.1485634,-5.151616
1.258,-5.332968,11.18128,-12.409343,-2.3580205,5.195391,-5.20987
1.26,-5.1579504,10.87425,-12.8222065,-2.1735678,5.225381,-5.262652
1.262,-4.9892898,10.559009,-13.237511,-1.9894779,5.2378335,-5.309312
1.264,-4.828469,10.236321,-13.653543,-1.8066201,5.23207,-5.3492646
1.266,-4.6764917,9.907021,-14.068425,-1.6257718,5.2075105,-5.382027
1.268,-4.533954,9.571661,-14.480071,-1.4476507,5.1636395,-5.4072447
1.27,-4.4009733,9.230902,-14.885772,-1.2728784,5.1000767,-5.424698
1.272,-4.277543,8.885459,-15.282859,-1.101984,5.016638,-5.434259
1.274,-4.1631484,8.536288,-15.668013,-0.9354086,4.913285,-5.435926
1.276,-4.0565352,8.184158,-16.03809,-0.7735133,4.790148,-5.429756
1.278,-3.956396,7.8298893,-16.390001,-0.6166012,4.647518,-5.415888
1.28,-3.8612568,7.4745073,-16.721008,-0.46492028,4.485835,-5.3944902
1.282,-3.769674,7.119258,-17.02839,-0.3186953,4.305695,-5.36576
1.284,-3.6796489,6.7654343,-17.309444,-0.17812419,4.1078715,-5.329847
1.286,-3.5893934,6.4144564,-17.561924,-0.043394566,3.8932862,-5.286889
1.288,-3.4967618,6.0678396,-17.784103,0.08535254,3.6630545,-5.236967
1.29,-3.3998494,5.7273045,-17.974947,0.20804262,3.4185264,-5.180133
1.292,-3.296786,5.394964,-18.13408,0.32466185,3.1612034,-5.116441
1.294,-3.1858203,5.0728617,-18.261517,0.43526042,2.892734,-5.045928
1.296,-3.065193,4.7631435,-18.357716,0.5399612,2.6148992,-4.9686894
1.298,-2.933012,4.467968,-18.423794,0.6389812,2.329542,-4.884859
1.3,-2.7875435,4.1893907,-18.461002,0.7325505,2.0384614,-4.794576
1.302,-2.6274788,3.9295838,-18.471062,0.8209312,1.7433455,-4.698112
1.304,-2.4516513,3.6908376,-18.456614,0.9044008,1.4457498,-4.5958314
1.306,-2.2592385,3.4754841,-18.420944,0.9832303,1.1471164,-4.48816
1.308,-2.049845,3.2856789,-18.367699,1.0576768,0.84869677,-4.3756237
1.31,-1.8232849,3.1233783,-18.300209,1.1280332,0.5515324,-4.2588534
1.312,-1.5799137,2.9905019,-18.221663,1.1946068,0.25646168,-4.1385684
1.314,-1.3198551,2.8887525,-18.135511,1.2576711,-0.03589219,-4.0155935
1.316,-1.0440334,2.8198547,-18.045431,1.3174498,-0.32514018,-3.890752
1.318,-0.75349474,2.7850811,-17.954771,1.374142,-0.61110425,-3.764889
1.32,-0.44930542,2.7852697,-17.866678,1.4278855,-0.8938538,-3.6388571
1.322,-0.13287234,2.8211546,-17.783537,1.4787952,-1.1736511,-3.513528
1.324,0.1938169,2.8929875,-17.707365,1.526934,-1.450939,-3.389735
1.326,0.5287709,3.000812,-17.64082,1.57232,-1.7262951,-3.2682626
1.328,0.8703716,3.14433,-17.585802,1.6149459,-2.0003917,-3.1498623
1.33,1.216155,3.3227077,-17.543207,1.6548008,-2.2739658,-3.0352924
1.332,1.5642762,3.534945,-17.513159,1.6918371,-2.547762,-2.9252656
1.334,1.9126508,3.7796743,-17.495375,1.7260275,-2.822485,-2.8204746
1.336,2.2595341,4.0553174,-17.489012,1.7573278,-3.0987823,-2.7216077
1.338,2.6035285,4.3597317,-17.492783,1.785667,-3.3771832,-2.6293418
1.34,2.9433115,4.6905184,-17.504799,1.8109376,-3.6580665,-2.5443182
1.342,3.2774947,5.0450673,-17.522472,1.8330182,-3.9416337,-2.4671662
1.344,3.6051092,5.420489,-17.542797,1.8517821,-4.22785,-2.3984756
1.346,3.925271,5.813818,-17.562634,1.8671117,-4.516435,-2.3387928
1.348,4.237262,6.2219315,-17.578354,1.8789128,-4.8068657,-2.2886162
1.35,4.540602,6.641641,-17.586243,1.887141,-5.09838,-2.2483115
1.352,4.8347483,7.069791,-17.582829,1.8918301,-5.389979,-2.218162
1.354,5.1193886,7.5029054,-17.56429,1.8930789,-5.680501,-2.19838
1.356,5.394082,7.937977,-17.526833,1.8910357,-5.9686103,-2.1890259
1.358,5.65865,8.371759,-17.466589,1.8858819,-6.252886,-2.1900034
1.36,5.9128017,8.80111,-17.380161,1.8778375,-6.5318365,-2.2010958
1.362,6.1560497,9.223077,-17.264442,1.8671405,-6.8039284,-2.2219744
1.364,6.387971,9.634737,-17.116745,1.8540064,-7.067636,-2.2521672
1.366,6.608004,10.033416,-16.934713,1.8386254,-7.3214655,-2.291136
1.368,6.815504,10.416855,-16.71655,1.8211808,-7.5639668,-2.338253
1.37,7.0095315,10.78307,-16.461283,1.8018659,-7.793718,-2.392877
1.372,7.1891527,11.130519,-16.168507,1.7808331,-8.009384,-2.4543655
1.374,7.3536415,11.457613,-15.838417,1.7582285,-8.209643,-2.522079
1.376,7.502096,11.76321,-15.471516,1.7342057,-8.393215,-2.5953894
1.378,7.6336374,12.046389,-15.068506,1.7089127,-8.5588665,-2.67373
1.38,7.7475758,12.306643,-14.630871,1.682517,-8.705372,-2.7566185
1.382,7.843379,12.543741,-14.160688,1.6551995,-8.831549,-2.8436277
1.384,7.9204254,12.757447,-13.6608095,1.6271341,-8.936265,-2.9344285
1.386,7.977827,12.947962,-13.13412,1.5985358,-9.018402,-3.0288064
1.388,8.015179,13.11602,-12.58397,1.5696143,-9.076893,-3.1266203
1.39,8.031697,13.262845,-12.013863,1.5405872,-9.110705,-3.2277665
1.392,8.027218,13.389956,-11.427483,1.5117042,-9.118875,-3.3322318
1.394,8.001663,13.498971,-10.828772,1.4832342,-9.100492,-3.4400373
1.396,7.955255,13.591549,-10.221106,1.455441,-9.054731,-3.5512066
1.398,7.888522,13.669241,-9.608149,1.4285467,-8.980851,-3.6657853
1.4,7.802197,13.733918,-8.993825,1.4027597,-8.878162,-3.7838056
1.402,7.6974144,13.7874775,-8.382502,1.378249,-8.746084,-3.905293
1.404,7.5756307,13.831953,-7.778648,1.3551459,-8.58418,-4.030308
1.406,7.4384828,13.869553,-7.1865044,1.333524,-8.392124,-4.158895
1.408,7.2878747,13.902442,-6.6098967,1.3134637,-8.169733,-4.2910852
1.41,7.1259613,13.932977,-6.0526514,1.2950172,-7.9170303,-4.426923
1.412,6.955513,13.963444,-5.5184875,1.2782255,-7.634249,-4.5664835
1.414,6.779327,13.995899,-5.010404,1.2630888,-7.321846,-4.709876
1.416,6.6007586,14.032137,-4.5312777,1.2495894,-6.9805293,-4.857205
1.418,6.4234557,14.074157,-4.084119,1.2376661,-6.611216,-5.008543
1.42,6.2511315,14.1237545,-3.6715398,1.2272725,-6.215083,-5.1639023
1.422,6.0874453,14.182591,-3.295988,1.2183591,-5.7935257,-5.3232536
1.424,5.9358826,14.252285,-2.9592297,1.2108636,-5.348177,-5.486536
1.426,5.8001375,14.334473,-2.6625676,1.2047304,-4.88083,-5.653597
1.428,5.684162,14.430589,-2.4073997,1.1999471,-4.39345,-5.824176
1.43,5.591462,14.541932,-2.1944628,1.1965436,-3.8881152,-5.9979506
1.432,5.5262146,14.669403,-2.0235069,1.1946012,-3.3669856,-6.1745
1.434,5.492213,14.814352,-1.8943205,1.1942401,-2.83229,-6.35334
1.436,5.492944,14.977758,-1.8063674,1.1955928,-2.2862387,-6.5339227
1.438,5.5317473,15.1603365,-1.7586422,1.1987894,-1.7310617,-6.715702
1.44,5.6121707,15.36267,-1.7501357,1.2039309,-1.169022,-6.8981857
1.442,5.7371387,15.585306,-1.7794299,1.211081,-0.6023892,-7.081002
1.444,5.909943,15.828312,-1.8450289,1.2202489,-0.03341365,-7.263878
1.446,6.133482,16.091629,-1.944823,1.231371,0.535692,-7.446656
1.448,6.410167,16.37521,-2.076443,1.2443203,1.1027486,-7.6293044
1.45,6.7419,16.678707,-2.237905,1.2589345,1.6656415,-7.81192
1.452,7.1303024,17.001678,-2.4272885,1.2750525,2.222371,-7.9946194
1.454,7.5763364,17.344048,-2.6426036,1.2925068,2.7711332,-8.177508
1.456,8.08123,17.705236,-2.8818932,1.311172,3.3103395,-8.360655
1.458,8.64571,18.084297,-3.1434345,1.3309455,3.8386488,-8.544062
1.46,9.269852,18.480427,-3.4248912,1.3518128,4.3550153,-8.727667
1.462,9.9528885,18.892736,-3.7239704,1.373821,4.8587093,-8.91134
1.464,10.693703,19.320625,-4.038907,1.3971021,5.3493958,-9.0949
1.466,11.490522,19.7635,-4.3685846,1.4287665,5.850311,-9.3192005
1.468,12.340907,20.220917,-4.7118435,1.4597352,6.330347,-9.52839
1.47,13.241821,20.692184,-5.067605,1.4949183,6.805575,-9.749533
1.472,14.189617,21.176903,-5.434578,1.5352335,7.278846,-9.985868
1.474,15.180132,21.674747,-5.8117456,1.5814819,7.7529755,-10.240116
1.476,16.208271,22.185429,-6.1985464,1.6341834,8.2301655,-10.51355
1.478,17.26865,22.708447,-6.594432,1.6934648,8.71151,-10.805052
1.48,18.355082,23.243118,-6.998806,1.7589002,9.196399,-11.110318
1.482,19.461185,23.788942,-7.4107404,1.8294291,9.68217,-11.42145
1.484,20.580055,24.345432,-7.8291626,1.9033918,10.164284,-11.727196
1.486,21.704807,24.912203,-8.253338,1.9787574,10.636862,-12.0139675
1.488,22.828922,25.488731,-8.682349,2.0533652,11.093532,-12.267523
1.49,23.946108,26.074047,-9.114957,2.1253295,11.528534,-12.475075
1.492,25.050459,26.667057,-9.549721,2.1933866,11.937933,-12.627257
1.494,26.136213,27.266636,-9.985054,2.2571096,12.320383,-12.719691
1.496,27.199049,27.871082,-10.419876,2.3170013,12.677484,-12.7535715
1.498,28.235735,28.47865,-10.852516,2.374374,13.013425,-12.73519
1.5,29.243795,29.087402,-11.280905,2.4310436,13.334237,-12.674465
1.502,30.221588,29.694824,-11.703571,2.4890065,13.646811,-12.582927
1.504,31.168293,30.298534,-12.117808,2.5500565,13.95771,-12.471694
1.506,32.084274,30.896458,-12.5204525,2.6155176,14.272331,-12.349826
1.508,32.971252,31.486467,-12.9087715,2.6861148,14.594438,-12.223404
1.51,33.831604,32.066452,-13.279978,2.7619128,14.926054,-12.095158
1.512,34.66884,32.63422,-13.631278,2.8424463,15.26777,-11.965063
1.514,35.487293,33.187565,-13.959458,2.9268527,15.619074,-11.831037
1.516,36.292294,33.724922,-14.26204,3.014101,15.978918,-11.690081
1.518,37.089592,34.24477,-14.536378,3.1031146,16.34597,-11.538977
1.52,37.885345,34.74548,-14.780204,3.1888475,16.705397,-11.351078
1.522,38.68608,35.22594,-14.991508,3.28019,17.08915,-11.183041
1.524,39.498516,35.685314,-15.169167,3.36976,17.474274,-10.995243
1.526,40.329185,36.12315,-15.312306,3.4569788,17.860643,-10.789444
1.528,41.184788,36.538948,-15.420417,3.5411892,18.24781,-10.567575
1.53,42.07168,36.932545,-15.493753,3.6216488,18.634995,-10.331775
1.532,42.99618,37.303795,-15.532909,3.6973925,19.02105,-10.084316
1.534,43.964256,37.652042,-15.539112,3.767293,19.404497,-9.827358
1.536,44.98151,37.976696,-15.514175,3.830164,19.783815,-9.562855
1.538,46.05261,38.27716,-15.459735,3.8847554,20.157326,-9.292423
1.54,47.181408,38.553116,-15.378109,3.92971,20.523016,-9.01742
1.542,48.371063,38.80393,-15.272259,3.963665,20.878754,-8.738899
1.544,49.624744,39.028038,-15.145271,3.9852827,21.222324,-8.457552
1.546,50.945206,39.223698,-15.000044,3.993291,21.551464,-8.173794
1.548,52.334896,39.389107,-14.8404875,3.9865117,21.863985,-7.887832
1.55,53.7966,39.521866,-14.670537,3.9638698,22.157822,-7.599571
1.552,55.332508,39.619057,-14.4932785,3.9244382,22.431171,-7.308668
1.554,56.943703,39.67813,-14.311174,3.8674293,22.682558,-7.0146894
1.556,58.632946,39.69564,-14.126837,3.79219,22.910856,-6.7170873
1.558,60.40347,39.668373,-13.944038,3.698193,23.115398,-6.415239
1.56,62.258446,39.59417,-13.7668,3.58493,23.295902,-6.108462
1.562,64.20145,39.47119,-13.597361,3.4519062,23.452389,-5.796089
1.564,66.23649,39.29811,-13.436941,3.2985911,23.585232,-5.4774594
1.566,68.36743,39.074833,-13.286627,3.124343,23.695045,-5.1519327
1.568,70.59973,38.802254,-13.148598,2.9283395,23.78268,-4.8188996
1.57,72.940636,38.48239,-13.025951,2.7095609,23.849184,-4.4777594
1.572,75.40032,38.12163,-12.926674,2.4667125,23.895742,-4.128008
1.574,77.976845,37.737595,-12.858288,2.1982913,23.923721,-3.7691154
1.576,80.67165,37.34057,-12.819206,1.9025354,23.934742,-3.400557
1.578,83.48831,36.930183,-12.8043785,1.5775876,23.930805,-3.021821
1.58,86.43213,36.51444,-12.818111,1.2215939,23.914337,-2.6324859
1.582,89.50333,36.11209,-12.863411,0.83266497,23.888023,-2.2321444
1.584,92.69058,35.75426,-12.932339,0.40904617,23.854687,-1.8202758
1.586,95.99737,35.472496,-13.019558,-0.050755024,23.817362,-1.396152
1.588,99.424065,35.30851,-13.131245,-0.5477843,23.779589,-0.95893526
1.59,102.96604,35.298363,-13.277958,-1.0824637,23.74493,-0.5079131
1.592,106.61188,35.470497,-13.467976,-1.6547279,23.716478,-0.042528152
1.594,110.34394,35.85987,-13.714581,-2.264106,23.696716,0.4378035
1.596,114.14137,36.521034,-14.026745,-2.9097056,23.687513,0.93369997
1.598,117.9985,37.480732,-14.41283,-3.5901785,23.690027,1.4457791
1.6,121.88088,38.820004,-14.882263,-4.303793,23.704386,1.9746017
1.602,125.786064,40.558025,-15.423523,-5.0485,23.72917,2.5203614
1.604,129.67195,42.70033,-16.029467,-5.822874,23.759544,3.0813885
1.606,133.62006,45.223988,-16.76086,-6.626486,23.787626,3.6554294
1.608,137.58325,48.209324,-17.67787,-7.4595256,23.804688,4.2409573
1.61,141.49089,51.65253,-18.762138,-8.322254,23.800009,4.836438
1.612,145.33272,55.66531,-19.976547,-9.215874,23.759003,5.4400377
1.614,149.12065,60.342873,-21.247711,-10.142977,23.663654,6.0503397
1.616,152.8254,65.61038,-22.572515,-11.106401,23.494965,6.667042
1.618,156.4433,71.444786,-23.987139,-12.109648,23.231903,7.2900176
1.62,159.97418,77.79155,-25.415833,-13.157515,22.84992,7.9206057
1.622,163.44485,84.64386,-26.885952,-14.255288,22.322094,8.564379
1.624,166.88231,91.951904,-28.368988,-15.407261,21.621714,9.230139
1.626,170.31444,99.62351,-29.780607,-16.616045,20.721972,9.929229
1.628,173.7842,107.57807,-31.074442,-17.881153,19.599634,10.677586
1.63,177.34517,115.733665,-32.21698,-19.19854,18.234304,11.493324
1.632,181.05359,123.99131,-33.157246,-20.563484,16.603476,12.399494
1.634,184.9114,132.25903,-33.835342,-21.965418,14.690052,13.429802
1.636,188.88727,140.43652,-34.16586,-23.389929,12.487148,14.6105
1.638,193.01701,148.41386,-34.08068,-24.815653,10.002171,15.956696
1.64,197.2297,156.0286,-33.48565,-26.224094,7.250454,17.492655
1.642,201.55008,162.90851,-32.374557,-27.589607,4.3731575,19.012562
1.644,206.12546,169.03761,-30.58415,-28.93279,1.3980722,20.467424
1.646,210.86407,174.42175,-28.071728,-30.290783,-1.7765284,22.02967
1.648,215.74678,178.94614,-24.731913,-31.628029,-5.067916,23.574228
1.65,220.68016,182.49583,-20.479038,-32.921936,-8.348105,24.919838
1.652,225.5621,184.98883,-15.254423,-34.191177,-11.535186,25.937916
1.654,230.28296,186.36732,-9.033766,-35.456795,-14.5736,26.515438
1.656,234.71164,186.60489,-1.8219514,-36.732178,-17.4263,26.552773
1.658,238.69878,185.71152,6.3391666,-38.019863,-20.094027,25.973015
1.66,242.0865,183.73477,15.348182,-39.29943,-22.617907,24.737276
1.662,244.76085,180.71968,25.118011,-40.522488,-25.072056,22.859089
1.664,246.59697,176.73737,35.569504,-41.609383,-27.546616,20.3969
1.666,247.4415,171.86905,46.6022,-42.447304,-30.123388,17.444427
1.668,247.18265,166.18423,58.057533,-42.89923,-32.852177,14.112022
1.67,245.7383,159.79648,69.708176,-42.819595,-35.72108,10.507674
1.672,243.05461,152.83937,81.315636,-42.06258,-38.650803,6.7780857
1.674,239.11945,145.45703,92.629326,-40.50053,-41.485348,3.0256724
1.676,233.9514,137.80298,103.40308,-38.05364,-44.00944,-0.7124424
1.678,227.60536,130.03937,113.39403,-34.705,-45.987938,-4.3941793
1.68,220.17862,122.32157,122.37198,-30.505148,-47.188652,-7.955805
1.682,211.80258,114.79942,130.13324,-25.570461,-47.418297,-11.304161
1.684,202.64629,107.61253,136.5068,-20.072895,-46.552635,-14.307328
1.686,192.89014,100.903824,141.35822,-14.221836,-44.55143,-16.804773
1.688,182.7262,94.81049,144.5989,-8.250143,-41.468704,-18.6288
1.69,172.35071,89.439156,146.19745,-2.3913429,-37.44552,-19.618122
1.692,161.96326,84.8629,146.16537,3.1290498,-32.702618,-19.656605
1.694,151.7598,81.12381,144.55199,8.117108,-27.507551,-18.717176
1.696,141.90341,78.24306,141.45697,12.426058,-22.202179,-16.730076
1.698,132.53772,76.21098,137.03128,15.997734,-16.96463,-13.952199
1.7,123.78407,75.00335,131.45595,18.81076,-11.909607,-10.810934
1.702,115.73947,74.580795,124.92748,20.828203,-7.332669,-7.4354014
1.704,108.47302,74.875626,117.659225,22.10273,-3.4495873,-4.0296593
1.706,102.02079,75.78653,109.86446,22.76135,-0.3366034,-0.89132714
1.708,96.37416,77.22598,101.75158,22.940264,1.9971519,1.7199917
1.71,91.52351,79.04782,93.51736,22.77521,3.5837524,3.6237102
1.712,87.403496,81.16329,85.32252,22.397764,4.502903,4.726042
1.714,83.967514,83.476875,77.316315,21.924383,4.868989,5.0100813
1.716,81.05131,85.89995,69.67619,21.454346,4.8200274,4.5227613
1.718,78.62393,88.24715,62.524326,21.067558,4.509678,3.3717666
1.72,76.64991,90.4334,55.87478,20.822039,4.095641,1.7082486
1.722,75.02333,92.284386,49.71946,20.755571,3.727618,-0.28957844
1.724,73.63278,93.69181,44.0193,20.886152,3.5289214,-2.4337833
1.726,72.41992,94.715805,38.79899,21.207012,3.59596,-4.5750737
1.728,71.30928,95.3411,34.090965,21.69313,3.9816117,-6.538026
1.73,70.23881,95.576454,29.807404,22.31355,4.695243,-8.149866
1.732,69.14093,95.38693,25.960611,23.029839,5.7115717,-9.3144
1.734,67.97182,94.78951,22.494278,23.795671,6.9649987,-9.997815
1.736,66.705215,93.8336,19.317646,24.560753,8.363405,-10.214272
1.738,65.31625,92.54709,16.399097,25.274765,9.80556,-10.017723
1.74,63.78639,90.95735,13.725898,25.891523,11.192917,-9.488949
1.742,62.10903,89.105156,11.274956,26.37288,12.437891,-8.722406
1.744,60.32852,87.02219,9.026658,26.691633,13.472932,-7.813079
1.746,58.495296,84.74915,6.9515963,26.837152,14.262319,-6.8453426
1.748,56.579628,82.33459,5.0501566,26.810059,14.795053,-5.886898
1.75,54.638702,79.86371,3.3054485,26.609734,15.069484,-4.9834194
1.752,52.617508,77.5583,1.7774601,26.24128,15.098871,-4.1616297
1.754,50.37903,75.265884,0.3742323,25.72022,14.919548,-3.4330018
1.756,48.030262,72.889854,-0.86604404,25.06949,14.580612,-2.7956066
1.758,45.572838,70.4898,-1.9788685,24.314674,14.1318,-2.2359912
1.76,43.060776,68.12149,-2.979395,23.481531,13.619166,-1.7345119
1.762,40.52562,65.81072,-3.86944,22.59396,13.083597,-1.2716963
1.764,37.98398,63.57235,-4.64151,21.673025,12.558716,-0.83253574
1.766,35.456844,61.409233,-5.292881,20.737198,12.069631,-0.4078474
1.768,32.96748,59.314926,-5.8214264,19.801422,11.632407,0.00578022
1.77,30.535488,57.278645,-6.213022,18.876478,11.253592,0.40704393
1.772,28.14254,55.319096,-6.509281,17.969082,10.931499,0.7916484
1.774,25.798279,53.448307,-6.775488,17.082592,10.65864,1.1543589
1.776,23.544537,51.685257,-7.061346,16.218128,10.4239645,1.4904132
1.778,21.390549,50.06571,-7.3699837,15.3754015,10.214867,1.7964993
1.78,19.339533,48.5862,-7.665867,14.553101,10.01897,2.0708375
1.782,17.394241,47.237118,-7.9362316,13.749308,9.825281,2.3126955
1.784,15.549976,46.009823,-8.174377,12.962072,9.625088,2.522058
1.786,13.806721,44.895065,-8.384024,12.19018,9.412991,2.699771
1.788,12.16291,43.881046,-8.566536,11.433427,9.187087,2.8474917
1.79,10.609745,42.96406,-8.723274,10.692503,8.948476,2.967329
1.792,9.137779,42.139484,-8.857586,9.968831,8.700813,3.0616632
1.794,7.740775,41.400124,-8.978029,9.264354,8.449724,3.1331773
1.796,6.41675,40.73838,-9.098589,8.581253,8.202218,3.1849265
1.798,5.163099,40.14881,-9.232428,7.9217453,7.9659452,3.2202864
1.8,3.9772177,39.629776,-9.38957,7.287737,7.7483797,3.242921
1.802,2.8558483,39.183308,-9.576453,6.6805787,7.5561523,3.2567472
1.804,1.7959862,38.812805,-9.7977295,6.1008544,7.39445,3.2659059
1.806,0.7938347,38.52185,-10.057973,5.5482965,7.266508,3.2746124
1.808,-0.1543312,38.313847,-10.3624115,5.0217876,7.1733456,3.286857
1.81,-1.053154,38.1897,-10.713293,4.519434,7.113599,3.3061378
1.812,-1.9100733,38.14644,-11.110423,4.038646,7.08354,3.3352125
1.814,-2.7335835,38.17863,-11.553664,3.5762846,7.0772505,3.3759887
1.816,-3.5316763,38.28025,-12.042222,3.1288218,7.086956,3.4295487
1.818,-4.3110294,38.444164,-12.57366,2.6925364,7.103398,3.4962056
1.82,-5.07703,38.662777,-13.142457,2.2636895,7.1163387,3.575634
1.822,-5.8332033,38.928593,-13.741088,1.8387663,7.1152334,3.667056
1.824,-6.5812244,39.2352,-14.360396,1.414631,7.089724,3.7693868
1.826,-7.3217926,39.576412,-14.990674,0.988641,7.030015,3.8813615
1.828,-8.054116,39.945595,-15.621442,0.5587235,6.9274626,4.0017376
1.83,-8.777102,40.335564,-16.241959,0.12344608,6.7749925,4.1294622
1.832,-9.488729,40.7387,-16.84163,-0.31796348,6.56721,4.26367
1.834,-10.185999,41.147,-17.409391,-0.7655663,6.3004394,4.4035106
1.836,-10.866756,41.552406,-17.93432,-1.2187259,5.9728904,4.5480404
1.838,-11.5263,41.945507,-18.40509,-1.6761212,5.5845914,4.6960735
1.84,-12.160835,42.31708,-18.810497,-2.1358764,5.1371317,4.8459954
1.842,-12.765952,42.658276,-19.13982,-2.5955682,4.6334915,4.995599
1.844,-13.337778,42.96064,-19.382385,-3.0523503,4.0778184,5.142005
1.846,-13.871725,43.21606,-19.528687,-3.5030487,3.4751682,5.2815914
1.848,-14.363413,43.417015,-19.570862,-3.9442894,2.8314216,5.4099884
1.85,-14.808307,43.55677,-19.502495,-4.372525,2.153168,5.5221796
1.852,-15.203796,43.630463,-19.31906,-4.784153,1.4475374,5.6126814
1.854,-15.547008,43.63417,-19.017874,-5.1756215,0.7220838,5.675941
1.856,-15.83889,43.566532,-18.597134,-5.5435605,-0.015309334,5.706785
1.858,-16.075657,43.424328,-18.055904,-5.884935,-0.75633645,5.7008867
1.86,-16.257812,43.207756,-17.396046,-6.197065,-1.4922736,5.6550393
1.862,-16.38649,42.917408,-16.621378,-6.477673,-2.2139387,5.5674305
1.864,-16.463566,42.554966,-15.736994,-6.7248945,-2.9117143,5.437803
1.866,-16.491026,42.122955,-14.750188,-6.9372897,-3.57566,5.2675047
1.868,-16.471117,41.624775,-13.670289,-7.1138635,-4.1955447,5.059468
1.87,-16.406685,41.064922,-12.508592,-7.254035,-4.7610073,4.8179703
1.872,-16.300884,40.448807,-11.277822,-7.3576717,-5.261898,4.5483522
1.874,-16.156307,39.78289,-9.992225,-7.425115,-5.6885633,4.256658
1.876,-15.975651,39.074005,-8.667349,-7.457188,-6.032385,3.9492855
1.878,-15.761227,38.329243,-7.3198504,-7.455216,-6.2861295,3.6326602
1.88,-15.515614,37.556137,-5.9670715,-7.420961,-6.4443207,3.312851
1.882,-15.241215,36.762455,-4.626554,-7.3565784,-6.503607,2.995196
1.884,-14.940109,35.95611,-3.3154697,-7.264577,-6.4628816,2.6841135
1.886,-14.613398,35.144516,-2.0506697,-7.1477413,-6.3234453,2.3828514
1.888,-14.261463,34.33468,-0.8483119,-7.0090446,-6.089172,2.0935287
1.89,-13.884167,33.532795,0.27707386,-6.8515472,-5.765901,1.8172035
1.892,-13.481401,32.74423,1.3127744,-6.6784544,-5.3616614,1.5539212
1.894,-13.052666,31.973646,2.2479668,-6.4930067,-4.8861656,1.302984
1.896,-12.5976925,31.224777,3.0742152,-6.2984033,-4.350341,1.0631135
1.898,-12.116215,30.500599,3.7853892,-6.097804,-3.7660546,0.8326347
1.9,-11.608164,29.803328,4.3777018,-5.8942857,-3.1456888,0.6097543
1.902,-11.073436,29.134047,4.8499765,-5.690779,-2.50169,0.39273024
1.904,-10.51203,28.493282,5.203967,-5.4900866,-1.8462596,0.18001986
1.906,-9.924604,27.880857,5.443576,-5.294815,-1.1909138,-0.029616594
1.908,-9.312088,27.296501,5.5747485,-5.107282,-0.54611564,-0.23709142
1.91,-8.675577,26.739307,5.605151,-4.9294477,0.078988194,-0.44301713
1.912,-8.016558,26.207947,5.544032,-4.762922,0.6767173,-0.64773464
1.914,-7.3364787,25.700863,5.4012976,-4.6089478,1.2409445,-0.85129344
1.916,-6.6374063,25.216703,5.187557,-4.4684715,1.7671145,-1.0534458
1.918,-5.921153,24.753807,4.913808,-4.342135,2.2522197,-1.2537026
1.92,-5.189701,24.310535,4.591483,-4.2302933,2.6947024,-1.4513726
1.922,-4.4449263,23.88535,4.2318664,-4.133045,3.0941918,-1.6456842
1.924,-3.6889424,23.476727,3.8461065,-4.0502415,3.451303,-1.8358018
1.926,-2.923627,23.082788,3.4446983,-3.9814825,3.767481,-2.020877
1.928,-2.1512318,22.70189,3.0372143,-3.926151,4.0447283,-2.2001033
1.93,-1.3739743,22.33236,2.632187,-3.883435,4.285408,-2.3727953
1.932,-0.5936928,21.972654,2.237146,-3.8523235,4.4920745,-2.5384572
1.934,0.18761349,21.62118,1.858108,-3.8316736,4.667345,-2.6967728
1.936,0.9680443,21.27665,1.5003171,-3.8202238,4.813817,-2.8476107
1.938,1.7454076,20.937992,1.1678405,-3.8166342,4.933906,-2.991053
1.94,2.517734,20.604248,0.86405945,-3.8194852,5.0299873,-3.1273003
1.942,3.2826242,20.274551,0.5914769,-3.8273134,5.1043973,-3.256754
1.944,4.037641,19.948357,0.35128164,-3.838666,5.1590595,-3.3800044
1.946,4.7816377,19.62497,0.14416409,-3.8519979,5.196098,-3.497704
1.948,5.5110846,19.305046,-0.03062296,-3.8657775,5.2176166,-3.610653
1.95,6.2243853,18.988789,-0.17431116,-3.8785105,5.225728,-3.7197123
1.952,6.9190507,18.676561,-0.28875017,-3.888739,5.222689,-3.825739
1.954,7.593269,18.368828,-0.37674904,-3.8951135,5.210842,-3.9295905
1.956,8.244665,18.066656,-0.4412489,-3.8964753,5.192561,-4.032019
1.958,8.871105,17.770884,-0.4853778,-3.8918643,5.170235,-4.1336412
1.96,9.470611,17.482496,-0.51231384,-3.8805676,5.1461754,-4.234854
1.962,10.041696,17.202227,-0.5253,-3.8621953,5.1224785,-4.335785
1.964,10.581843,16.93108,-0.5276756,-3.8366523,5.1009693,-4.4362707
1.966,11.092089,16.668507,-0.52257204,-3.8041396,5.0831475,-4.535905
1.968,11.568104,16.41695,-0.5132866,-3.7651308,5.0701513,-4.634046
1.97,12.009585,16.176504,-0.5014329,-3.7203188,5.062748,-4.7299337
1.972,12.416027,15.947659,-0.48899007,-3.670565,5.061357,-4.822752
1.974,12.78759,15.730685,-0.47851658,-3.616798,5.0661173,-4.911696
1.976,13.124335,15.525829,-0.47158003,-3.559993,5.0769105,-4.996006
1.978,13.4265585,15.333384,-0.46908355,-3.5010812,5.093462,-5.0750084
1.98,13.695098,15.153396,-0.47168446,-3.4409184,5.1153855,-5.1481223
1.982,13.930986,14.985853,-0.47949004,-3.3802447,5.1422286,-5.214835
1.984,14.136146,14.830229,-0.49232697,-3.3196876,5.1735144,-5.274683
1.986,14.312102,14.686392,-0.50968504,-3.2597895,5.2087355,-5.3272357
1.988,14.461014,14.5539055,-0.5309174,-3.2009625,5.247348,-5.372072
1.99,14.585466,14.431902,-0.555097,-3.1435328,5.28881,-5.4087906
1.992,14.688337,14.319578,-0.58142316,-3.0877333,5.332589,-5.4370584
1.994,14.772422,14.215989,-0.6089158,-3.0337033,5.3781586,-5.456614
1.996,14.840661,14.120409,-0.6363239,-2.981502,5.4249854,-5.46735
1.998,14.895954,14.032038,-0.66248524,-2.931109,5.4724965,-5.4693227
2,14.94149,13.949865,-0.68628347,-2.882438,5.5201097,-5.462772
2.002,14.980303,13.873034,-0.70670027,-2.83532,5.56721,-5.448122
2.004,15.015322,13.80047,-0.7227307,-2.7895217,5.613155,-5.425986
2.006,15.04925,13.73133,-0.733673,-2.7447686,5.6572943,-5.39713
2.008,15.084557,13.664652,-0.7389524,-2.7007346,5.6989794,-5.362438
2.01,15.123679,13.599644,-0.7381481,-2.6570685,5.73757,-5.3228593
2.012,15.168566,13.535599,-0.7311219,-2.613401,5.7724743,-5.2793884
2.014,15.220876,13.471849,-0.7178644,-2.569372,5.803173,-5.2329283
2.016,15.282115,13.4081955,-0.6984136,-2.524606,5.8292274,-5.1843166
2.018,15.353151,13.34444,-0.67300296,-2.4787102,5.8503633,-5.1343985
2.02,15.434763,13.280603,-0.64165545,-2.4313211,5.866437,-5.0838842
2.022,15.527604,13.216896,-0.60493666,-2.3820992,5.877451,-5.03337
2.024,15.632013,13.1538105,-0.5635215,-2.3307157,5.8835397,-4.9833126
2.026,15.748043,13.0918,-0.5182891,-2.2768617,5.884946,-4.9340677
2.028,15.875543,13.031564,-0.4702046,-2.220251,5.8820252,-4.885914
2.03,16.013803,12.974426,-0.42034936,-2.1606395,5.875161,-4.839008
2.032,16.162317,12.921597,-0.36983645,-2.0978515,5.8647404,-4.7934265
2.034,16.32051,12.874683,-0.31975305,-2.0317476,5.851101,-4.749174
2.036,16.4877,12.83548,-0.27126014,-1.9622953,5.834501,-4.7061896
2.038,16.663158,12.805882,-0.225456,-1.8895116,5.8150744,-4.6643534
2.04,16.846434,12.787998,-0.18328571,-1.8134749,5.792821,-4.623486
2.042,17.036587,12.784001,-0.14553952,-1.7343284,5.767606,-4.5833964
2.044,17.233166,12.79635,-0.11280799,-1.6522554,5.739153,-4.543863
2.046,17.43559,12.82737,-0.08557987,-1.5674437,5.7070866,-4.50467
2.048,17.64342,12.879357,-0.06411457,-1.4801155,5.6709776,-4.4656224
2.05,17.856316,12.954477,-0.04838586,-1.3904848,5.630356,-4.426518
2.052,18.074097,13.054933,-0.038149834,-1.2987599,5.5847716,-4.3871803
2.054,18.296616,13.182619,-0.033025265,-1.2051423,5.533801,-4.347463
2.056,18.52351,13.339251,-0.0324955,-1.1098312,5.4770956,-4.3072324
2.058,18.754784,13.526055,-0.03563094,-1.0129786,5.4144025,-4.266354
2.06,18.990126,13.743921,-0.04125309,-0.9147586,5.345476,-4.2247167
2.062,19.229713,13.993386,-0.04797244,-0.81534284,5.2701063,-4.1822157
2.064,19.472921,14.274768,-0.054318666,-0.7148828,5.188162,-4.13873
2.066,19.719622,14.588012,-0.058740616,-0.61352664,5.099513,-4.094143
2.068,19.969398,14.932669,-0.059586048,-0.5114153,5.0040197,-4.048392
2.07,20.221975,15.307635,-0.05522728,-0.40867692,4.901577,-4.0013833
2.072,20.476723,15.711159,-0.044056654,-0.30543065,4.792076,-3.953014
2.074,20.733105,16.141048,-0.024311066,-0.20173478,4.6755147,-3.9032946
2.076,20.990513,16.594318,0.0055088997,-0.097613215,4.5519843,-3.8523533
2.078,21.248196,17.067448,0.04698491,0.0069262683,4.4217086,-3.800449
2.08,21.505106,17.556519,0.10131955,0.11189249,4.2850404,-3.7479615
2.082,21.760263,18.057224,0.16963482,0.21733806,4.142501,-3.6953979
2.084,22.012444,18.564661,0.25286007,0.32335776,3.9947586,-3.6434846
2.086,22.260567,19.07376,0.3515501,0.43007493,3.8426225,-3.5930846
2.088,22.50344,19.57912,0.46615887,0.5376164,3.686994,-3.545169
2.09,22.739702,20.074991,0.59679604,0.6461343,3.528833,-3.500774
2.092,22.968334,20.55552,0.7433901,0.75575453,3.3691525,-3.4609833
2.094,23.187765,21.015156,0.90551805,0.8665912,3.2089639,-3.426865
2.096,23.397285,21.447962,1.08254,0.9787483,3.0492654,-3.3994243
2.098,23.595758,21.848427,1.2736993,1.092311,2.8910136,-3.3795812
2.1,23.782118,22.211643,1.4779272,1.2073488,2.735096,-3.3680623
2.102,23.955263,22.533058,1.6940947,1.3239168,2.5823164,-3.3653858
2.104,24.114517,22.808714,1.9207892,1.4420067,2.4333816,-3.3717346
2.106,24.259068,23.035257,2.1564493,1.5615551,2.288908,-3.3869245
2.108,24.388481,23.210093,2.399407,1.6824205,2.1493979,-3.410342
2.11,24.501974,23.331676,2.6479616,1.8043716,2.0152402,-3.440998
2.112,24.599154,23.39909,2.900331,1.9270881,1.8867313,-3.477528
2.114,24.67972,23.412434,3.1546774,2.05021,1.7641194,-3.5182931
2.116,24.743206,23.372627,3.409325,2.1733367,1.647581,-3.5614667
2.118,24.78937,23.281462,3.662615,2.296055,1.537189,-3.6051822
2.12,24.817709,23.141415,3.9130297,2.417985,1.4329836,-3.647624
2.122,24.828003,22.955671,4.159071,2.5388162,1.3350067,-3.687122
2.124,24.820055,22.728165,4.39944,2.6582944,1.2432833,-3.7222176
2.126,24.793528,22.463045,4.632798,2.7762434,1.1578097,-3.7516966
2.128,24.748373,22.16512,4.8580885,2.8925543,1.0785674,-3.7746117
2.13,24.684315,21.83922,5.0743794,3.0071433,1.0055475,-3.790302
2.132,24.60124,21.490664,5.2809095,3.1199608,0.93874574,-3.7983418
2.134,24.499096,21.12435,5.4769087,3.230961,0.8781366,-3.7985466
2.136,24.377905,20.745333,5.6619625,3.3400855,0.8236505,-3.7909567
2.138,24.237888,20.358456,5.8355875,3.4472516,0.7752261,-3.7757812
2.14,24.07948,19.968079,5.997496,3.5523822,0.73276776,-3.7534218
2.142,23.90297,19.578323,6.1474504,3.6553805,0.6961924,-3.724446
2.144,23.708881,19.192965,6.285318,3.7561684,0.66537595,-3.6895418
2.146,23.497898,18.81521,6.4111586,3.854667,0.6401682,-3.6494377
2.148,23.270771,18.447811,6.524977,3.9507706,0.6203927,-3.604862
2.15,23.028374,18.093046,6.626991,4.0443482,0.60584974,-3.556472
2.152,22.771894,17.752731,6.7172394,4.135255,0.5963054,-3.5048249
2.154,22.502289,17.428009,6.796118,4.223311,0.5915209,-3.450403
2.156,22.22088,17.119879,6.863885,4.3083243,0.59122777,-3.3935976
2.158,21.9289,16.82878,6.9209123,4.390105,0.5951403,-3.3347466
2.16,21.627522,16.55496,6.967579,4.468477,0.6029237,-3.2741551
2.162,21.318445,16.298275,7.0042806,4.5432587,0.61421055,-3.2120771
2.164,21.00291,16.058434,7.0315504,4.6142926,0.6286141,-3.148732
2.166,20.682438,15.834916,7.049847,4.681427,0.6456951,-3.084308
2.168,20.35829,15.627155,7.0596366,4.744552,0.6650042,-3.0189703
2.17,20.031918,15.43442,7.0612383,4.8035393,0.6860789,-2.9528449
2.172,19.704472,15.255675,7.055094,4.858309,0.7084682,-2.8860514
2.174,19.377491,15.089829,7.041838,4.908793,0.731756,-2.8186693
2.176,19.052027,14.935727,7.0219,4.954959,0.7555662,-2.7507937
2.178,18.729197,14.792163,6.995805,4.996803,0.7795689,-2.6825142
2.18,18.410051,14.65807,6.964232,5.0343447,0.80348855,-2.6138883
2.182,18.09549,14.532467,6.927634,5.067647,0.82710016,-2.5449798
2.184,17.786318,14.414424,6.8864646,5.096815,0.8502417,-2.4758425
2.186,17.482975,14.3031,6.8411236,5.121966,0.8727835,-2.4065676
2.188,17.186077,14.197696,6.7920547,5.1432495,0.8946683,-2.3372676
2.19,16.896137,14.097206,6.7397876,5.1608205,0.9158571,-2.2680643
2.192,16.613472,14.0008335,6.6847353,5.1748466,0.9363105,-2.1991103
2.194,16.338533,13.907751,6.627347,5.185476,0.95599777,-2.1305494
2.196,16.071457,13.8171425,6.5680175,5.192859,0.9748663,-2.0625484
2.198,15.812316,13.728409,6.5071583,5.1971326,0.99286723,-1.9952759
2.2,15.561249,13.641251,6.4450893,5.1984153,1.0098995,-1.9289036
2.202,15.3181305,13.555111,6.3819513,5.1968236,1.0258421,-1.8635805
2.204,15.082948,13.46964,6.3179493,5.192464,1.0405214,-1.7994606
2.206,14.855717,13.384491,6.253362,5.1854286,1.0537473,-1.7366712
2.208,14.636199,13.2994175,6.1881266,5.1758,1.0652819,-1.6753076
2.21,14.424105,13.21426,6.1224766,5.1636443,1.0748734,-1.6154612
2.212,14.219317,13.12882,6.056469,5.1490307,1.082256,-1.5571998
2.214,14.021542,13.043001,5.99017,5.13201,1.0871651,-1.5005511
2.216,13.830624,12.9567175,5.923661,5.1126285,1.089332,-1.4455452
2.218,13.646261,12.869938,5.8569665,5.0909395,1.0884924,-1.3921889
2.22,13.468288,12.782589,5.7902036,5.066977,1.0844041,-1.3404679
2.222,13.2963,12.694767,5.723377,5.0407877,1.0768554,-1.2903699
2.224,13.130135,12.606594,5.656573,5.0124187,1.0656418,-1.2418792
2.226,12.969699,12.518131,5.589859,4.9819145,1.0506172,-1.1949807
2.228,12.814682,12.429623,5.523313,4.9493647,1.0316843,-1.1496832
2.23,12.664952,12.341238,5.4568763,4.9148498,1.0087774,-1.1060157
2.232,12.520332,12.253272,5.390543,4.8784895,0.98191005,-1.0640295
2.234,12.380529,12.165835,5.3243012,4.840422,0.9511532,-1.0237997
2.236,12.245544,12.079142,5.258276,4.80079,0.91663384,-0.9853855
2.238,12.114985,11.993464,5.192411,4.7597427,0.87852377,-0.9488399
2.24,11.988711,11.909145,5.126664,4.7174525,0.83704233,-0.91417634
2.242,11.866639,11.826155,5.0611973,4.6740594,0.79242396,-0.88136065
2.244,11.748431,11.744932,4.996109,4.62971,0.7449161,-0.85031873
2.246,11.633895,11.665753,4.9313135,4.5845256,0.6947807,-0.8209205
2.248,11.52274,11.588884,4.866995,4.5385985,0.6422776,-0.7930268
2.25,11.414814,11.5144825,4.803189,4.491995,0.5876424,-0.7664654
2.252,11.309867,11.442991,4.740057,4.4447727,0.5310807,-0.7410569
2.254,11.207711,11.374512,4.6776857,4.396951,0.47276306,-0.7166312
2.256,11.108089,11.309309,4.61617,4.348522,0.41283327,-0.6930373
2.258,11.010966,11.247603,4.5557737,4.2994657,0.35139847,-0.670133
2.26,10.915964,11.189525,4.496417,4.249732,0.2885065,-0.64779526
2.262,10.822961,11.135151,4.438459,4.199271,0.22419548,-0.6259191
2.264,10.731841,11.084667,4.3818283,4.14801,0.15845662,-0.604414
2.266,10.642509,11.037878,4.3267465,4.0958643,0.09126443,-0.5831964
2.268,10.554671,10.994875,4.2734985,4.0427527,0.02259332,-0.5621836
2.27,10.46832,10.955471,4.222312,3.988616,-0.047572672,-0.54130423
2.272,10.383117,10.919432,4.1733127,3.933401,-0.11922073,-0.52050436
2.274,10.299114,10.886522,4.12677,3.8770933,-0.19229108,-0.49976116
2.276,10.21615,10.856455,4.082918,3.8197038,-0.26668376,-0.47910327
2.278,10.134171,10.828848,4.0418463,3.7613006,-0.342219,-0.45859367
2.28,10.053015,10.803329,4.0038633,3.701982,-0.4186858,-0.43835026
2.282,9.972789,10.779625,3.969093,3.641874,-0.49580145,-0.41851348
2.284,9.893385,10.757182,3.93766,3.5811458,-0.57322556,-0.39924347
2.286,9.81479,10.735575,3.9097095,3.5199847,-0.65057504,-0.38069278
2.288,9.737048,10.714436,3.885278,3.4585674,-0.72743404,-0.36298436
2.29,9.660033,10.693378,3.8642972,3.3970535,-0.8033824,-0.346197
2.292,9.584,10.671905,3.8467803,3.3355703,-0.87799406,-0.3303361
2.294,9.50887,10.64983,3.832592,3.2742126,-0.95085377,-0.31532198
2.296,9.434903,10.626767,3.8217263,3.2130308,-1.0215749,-0.3010159
2.298,9.361972,10.602483,3.813955,3.1520305,-1.0898135,-0.28723305
2.3,9.290291,10.576929,3.8090336,3.0911908,-1.1553004,-0.2737527
2.302,9.219876,10.549941,3.806831,3.0304718,-1.2178311,-0.26033998
2.304,9.15074,10.521532,3.8070378,2.969825,-1.2772683,-0.24678183
2.306,9.082966,10.491706,3.8093383,2.90921,-1.3335606,-0.23292089
2.308,9.016701,10.460484,3.8134239,2.848612,-1.386708,-0.21864772
2.31,8.951917,10.427862,3.819109,2.7880464,-1.4367955,-0.20391881
2.312,8.888592,10.394142,3.8260164,2.727554,-1.4839379,-0.18872976
2.314,8.826853,10.359312,3.834034,2.6671944,-1.5282619,-0.17314947
2.316,8.7666645,10.323728,3.8426924,2.6070542,-1.5699148,-0.15725791
2.318,8.70808,10.287578,3.8518968,2.5472212,-1.609025,-0.1411308
2.32,8.651176,10.251131,3.8614016,2.4877877,-1.6457083,-0.12485421
2.322,8.595932,10.214614,3.8710182,2.428846,-1.6800474,-0.10849476
2.324,8.542275,10.178455,3.880547,2.3704832,-1.7120867,-0.092093706
2.326,8.490334,10.14275,3.8897862,2.312777,-1.7418355,-0.075672984
2.328,8.440068,10.107868,3.8986053,2.2558033,-1.7692863,-0.05922401
2.33,8.391566,10.074063,3.9068031,2.1996374,-1.7944047,-0.042726398
2.332,8.344832,10.041545,3.9143567,2.1443381,-1.8171489,-0.026151657
2.334,8.299636,10.010611,3.921147,2.089972,-1.8374646,-0.009473801
2.336,8.256068,9.9815235,3.9270015,2.0365958,-1.8553253,0.007323861
2.338,8.214151,9.954468,3.9319305,1.9842651,-1.8707076,0.024244785
2.34,8.173772,9.929561,3.9359183,1.9330176,-1.8836178,0.041284084
2.342,8.134878,9.907046,3.9389462,1.8829052,-1.8940742,0.058433175
2.344,8.097495,9.887043,3.940981,1.8339758,-1.9021196,0.07569027
2.346,8.061395,9.869862,3.9419885,1.7862432,-1.9078196,0.09304166
2.348,8.02677,9.855517,3.9419332,1.7397029,-1.9112563,0.11048913
2.35,7.993516,9.844213,3.9408815,1.6943617,-1.9125237,0.12803984
2.352,7.961259,9.836073,3.9387627,1.6501975,-1.9117403,0.1457206
2.354,7.930151,9.831089,3.935577,1.6071901,-1.9090326,0.16355896
2.356,7.899929,9.829298,3.9313488,1.565289,-1.9045315,0.18157446
2.358,7.870419,9.830737,3.9261174,1.5244415,-1.8983866,0.19977689
2.36,7.8413587,9.835419,3.9199593,1.4845765,-1.8907565,0.21818197
2.362,7.812814,9.843141,3.9129248,1.445623,-1.8818223,0.236781
2.364,7.784578,9.85398,3.9052603,1.4074852,-1.8717514,0.25555003
2.366,7.7564425,9.86786,3.8969054,1.3700721,-1.8607361,0.27444887
2.368,7.7282324,9.884592,3.888036,1.333298,-1.8489704,0.29345357
2.37,7.699992,9.904033,3.8788733,1.2970519,-1.8366439,0.31249964
2.372,7.671491,9.926109,3.8693197,1.2612442,-1.8239396,0.3315119
2.374,7.6427565,9.950508,3.8596432,1.2257916,-1.811023,0.35041195
2.376,7.6135426,9.977188,3.849812,1.190618,-1.7980455,0.36912298
2.378,7.58401,10.005849,3.8399565,1.1556638,-1.7851208,0.38755512
2.38,7.5540586,10.036215,3.8300917,1.1208888,-1.7723217,0.40562052
2.382,7.5236444,10.068264,3.8203979,1.086265,-1.7596812,0.42321914
2.384,7.492792,10.101583,3.8108773,1.0517735,-1.7471933,0.44025284
2.386,7.461483,10.135951,3.8015885,1.0174143,-1.734807,0.4566356
2.388,7.4297876,10.171076,3.7926204,0.98319,-1.7224478,0.47231168
2.39,7.3977036,10.206714,3.7839682,0.9491006,-1.7100229,0.48724145
2.392,7.3651276,10.242633,3.7756467,0.91513574,-1.6974256,0.5014179
2.394,7.33219,10.278654,3.7676806,0.8812922,-1.6845317,0.5148462
2.396,7.298883,10.314618,3.7601273,0.8475355,-1.6712306,0.5275478
2.398,7.2652364,10.350381,3.753036,0.8138252,-1.6574302,0.53956056
2.4,7.231315,10.385804,3.7463727,0.7801288,-1.64305,0.5509429
2.402,7.19702,10.420824,3.7401993,0.74637926,-1.6280365,0.5617621
2.404,7.1625714,10.455173,3.7345357,0.71250755,-1.6123595,0.57206506
2.406,7.127834,10.488895,3.7293355,0.6784525,-1.5959868,0.5818944
2.408,7.09287,10.52189,3.7246475,0.64413,-1.5789013,0.5912703
2.41,7.0575676,10.554055,3.7204633,0.60948837,-1.5610988,0.60020006
2.412,7.0220337,10.585353,3.7167745,0.5744562,-1.5425527,0.60866773
2.414,6.9859734,10.615789,3.7135825,0.5389836,-1.5232308,0.61664283
2.416,6.94948,10.64541,3.7108908,0.5030335,-1.5030966,0.6240715
2.418,6.91235,10.674193,3.708706,0.466574,-1.4821044,0.6308947
2.42,6.8744426,10.70223,3.7069416,0.42957395,-1.4602067,0.63707423
2.422,6.835656,10.729537,3.705659,0.39201173,-1.4373735,0.6425849
2.424,6.795799,10.75631,3.7047534,0.35388124,-1.4135808,0.6474426
2.426,6.754876,10.782481,3.7043421,0.31516108,-1.3888246,0.6516856
2.428,6.712554,10.808316,3.7042904,0.27581984,-1.3631381,0.65539235
2.43,6.668928,10.833694,3.704523,0.23582953,-1.3365893,0.6586747
2.432,6.6239886,10.858725,3.7050707,0.19515881,-1.309294,0.6616911
2.434,6.5777397,10.883462,3.7058935,0.15375277,-1.2814078,0.6646041
2.436,6.530112,10.908004,3.7070248,0.11155406,-1.2530975,0.66757375
2.438,6.481236,10.932262,3.7084894,0.0684976,-1.224549,0.6707391
2.44,6.431278,10.956299,3.7103071,0.02450633,-1.1959497,0.6741848
2.442,6.3805084,10.979986,3.7125316,-0.020486891,-1.1674514,0.677915
2.444,6.3291683,11.003082,3.7152781,-0.06652558,-1.139168,0.6818658
2.446,6.277622,11.025464,3.7187636,-0.11363262,-1.1111797,0.6859063
2.448,6.2260704,11.046928,3.7231193,-0.16180715,-1.0835171,0.68982625
2.45,6.1750336,11.067364,3.7284455,-0.21100521,-1.0561447,0.6933799
2.452,6.1248307,11.086399,3.7350304,-0.26114318,-1.0289643,0.6962893
2.454,6.0760355,11.103859,3.7430968,-0.31212577,-1.0018525,0.69828856
2.456,6.0290504,11.1194105,3.7528896,-0.3638178,-0.9746485,0.6991304
2.458,5.984256,11.13281,3.7646732,-0.41607326,-0.94715464,0.6986668
2.46,5.9421525,11.143817,3.7786403,-0.4687437,-0.91918314,0.69681156
2.462,5.9032764,11.15222,3.795062,-0.52167296,-0.8905479,0.693581
2.464,5.8679075,11.157821,3.8141885,-0.57472897,-0.8610524,0.68908316
2.466,5.836534,11.160436,3.8362951,-0.6277855,-0.83051616,0.6834798
2.468,5.8094997,11.160032,3.8614206,-0.6807345,-0.7987615,0.676968
2.47,5.7871494,11.156511,3.8897576,-0.73349655,-0.7656245,0.669778
2.472,5.7695084,11.149929,3.9213333,-0.7859845,-0.7309596,0.66214114
2.474,5.7568116,11.140295,3.9561582,-0.83811575,-0.69461405,0.65425795
2.476,5.7492285,11.127736,3.9943242,-0.88980967,-0.6564615,0.6462997
2.478,5.746667,11.112515,4.0357656,-0.9409736,-0.6163855,0.6384095
2.48,5.749096,11.094915,4.080273,-0.99150246,-0.57427406,0.6306799
2.482,5.7565217,11.075047,4.12782,-1.0412918,-0.5300121,0.6231636
2.484,5.7688475,11.053364,4.1780214,-1.0902208,-0.48347965,0.6158697
2.486,5.785841,11.030179,4.2308297,-1.1381626,-0.43455356,0.6087738
2.488,5.80731,11.005881,4.285714,-1.1849904,-0.3831102,0.6018574
2.49,5.832952,10.981008,4.3424587,-1.230584,-0.32904062,0.5951003
2.492,5.862505,10.955831,4.400708,-1.2748394,-0.27223998,0.5885009
2.494,5.8955336,10.930931,4.460087,-1.3176727,-0.21263865,0.5820597
2.496,5.9317517,10.906752,4.520179,-1.3590252,-0.1501984,0.575824
2.498,5.9708405,10.883616,4.5806,-1.3988853,-0.08492306,0.5698613
2.5,6.012362,10.862043,4.640938,-1.4372792,-0.016850919,0.5642511
2.502,6.0560093,10.842457,4.700843,-1.4742627,0.05393201,0.5591028
2.504,6.1012363,10.825315,4.759853,-1.5099143,0.12729523,0.554516
2.506,6.1477365,10.810899,4.8176546,-1.5443497,0.20304543,0.5506004
2.508,6.1949534,10.799721,4.8739233,-1.5777047,0.2809575,0.54744583
2.51,6.2426786,10.792103,4.9284167,-1.6101332,0.36077023,0.5451459
2.512,6.2903843,10.788552,4.980842,-1.6417919,0.44218117,0.54375726
2.514,6.337671,10.789369,5.031056,-1.6728494,0.52487576,0.54332453
2.516,6.3843956,10.794861,5.0789366,-1.7034607,0.60853255,0.5438635
2.518,6.4302897,10.805222,5.124472,-1.7337737,0.6928202,0.545367
2.52,6.47528,10.820618,5.1676397,-1.7639186,0.77742255,0.5478238
2.522,6.5189347,10.8412695,5.2083626,-1.7940214,0.8620521,0.5512052
2.524,6.5614166,10.867291,5.24689,-1.8241708,0.9464633,0.5554627
2.526,6.602378,10.898742,5.2833996,-1.8544562,1.0304425,0.560521
2.528,6.6419888,10.935625,5.3179765,-1.8849488,1.1138217,0.5662993
2.53,6.6803384,10.977831,5.350878,-1.9156942,1.1964985,0.57271504
2.532,6.7175226,11.025309,5.382486,-1.946731,1.2784097,0.5796735
2.534,6.7537093,11.07793,5.412943,-1.9781029,1.3595197,0.5871038
2.536,6.7888327,11.135516,5.44251,-2.0098238,1.4398383,0.5949347
2.538,6.823546,11.197767,5.471568,-2.0419307,1.5193943,0.60310465
2.54,6.857925,11.264577,5.500386,-2.0744689,1.5982296,0.6115538
2.542,6.8922915,11.335737,5.529131,-2.1074743,1.6764054,0.62022066
2.544,6.9270415,11.410994,5.558099,-2.1409962,1.7539849,0.629063
2.546,6.962511,11.490202,5.5873194,-2.175098,1.8310243,0.63803786
2.548,6.999009,11.573213,5.6170254,-2.2098594,1.9075646,0.6471364
2.55,7.0369987,11.65984,5.647152,-2.2453618,1.9836373,0.65633464
2.552,7.0767784,11.74994,5.677845,-2.2817082,2.059267,0.66562927
2.554,7.1187134,11.843527,5.709055,-2.3189948,2.1344619,0.67501485
2.556,7.1629763,11.940483,5.740653,-2.3573103,2.2092242,0.6844976
2.558,7.210102,12.040694,5.7725315,-2.396757,2.2835376,0.69407904
2.56,7.260259,12.1440935,5.8046045,-2.4374158,2.3574083,0.70374346
2.562,7.313843,12.250712,5.836488,-2.4793403,2.4308283,0.7134867
2.564,7.3709426,12.360583,5.867806,-2.5225804,2.5037923,0.7232777
2.566,7.4317636,12.473734,5.89814,-2.5671782,2.5763,0.7330749
2.568,7.4962373,12.590157,5.9270573,-2.6131506,2.648347,0.7428454
2.57,7.5647593,12.709812,5.954083,-2.660524,2.7198718,0.7525549
2.572,7.637247,12.832764,5.9786434,-2.709344,2.7907996,0.76217234
2.574,7.713682,12.959204,6.000204,-2.759663,2.8610275,0.77167034
2.576,7.7939744,13.089123,6.018113,-2.8115578,2.930393,0.7810272
2.578,7.8780518,13.222572,6.0318727,-2.8651447,2.9986439,0.7902309
2.58,7.965791,13.35957,6.0408325,-2.920562,3.0654442,0.79931486
2.582,8.056941,13.500366,6.04443,-2.977991,3.1303513,0.808323
2.584,8.151153,13.644955,6.0421414,-3.0376678,3.1928144,0.81733966
2.586,8.248172,13.79333,6.033742,-3.099843,3.2521625,0.82644415
2.588,8.347839,13.9454155,6.0188646,-3.1647913,3.307631,0.83571327
2.59,8.449601,14.101124,5.997431,-3.2328184,3.358382,0.845219
2.592,8.553271,14.260283,5.9694524,-3.3042026,3.4035728,0.8549906
2.594,8.658181,14.422681,5.9351864,-3.3791773,3.4423738,0.8649988
2.596,8.764082,14.587942,5.894846,-3.4579291,3.4740148,0.87515235
2.598,8.870514,14.755608,5.8490796,-3.5405583,3.4978504,0.8852638
2.6,8.97702,14.925383,5.7984266,-3.6270761,3.5133696,0.8950957
2.602,9.083208,15.09665,5.7435846,-3.717396,3.5202587,0.9043671
2.604,9.188705,15.268871,5.6853724,-3.8113477,3.5183673,0.9127734
2.606,9.293251,15.441373,5.624779,-3.908659,3.5077126,0.92003024
2.608,9.396506,15.61352,5.5629187,-4.009014,3.4884646,0.92591345
2.61,9.498295,15.7845,5.500803,-4.112066,3.4609492,0.93028986
2.612,9.598228,15.9535,5.4396024,-4.217414,3.4255896,0.9331478
2.614,9.696183,16.119764,5.380501,-4.3246493,3.3828652,0.93459284
2.616,9.792026,16.282618,5.3247046,-4.4333873,3.333296,0.93484557
2.618,9.885731,16.441376,5.2733436,-4.543245,3.2774231,0.93427277
2.62,9.976888,16.59535,5.227459,-4.653869,3.2158015,0.93332756
2.622,10.065718,16.74393,5.188175,-4.764915,3.1489935,0.93250585
2.624,10.152203,16.886599,5.156453,-4.876052,3.0775938,0.9323313
2.626,10.236208,17.023,5.1332073,-4.98695,3.002204,0.9333135
2.628,10.317739,17.15282,5.119144,-5.0972624,2.923451,0.9358995
2.63,10.396752,17.275766,5.115017,-5.206616,2.8420722,0.9404409
2.632,10.473507,17.391815,5.1216826,-5.314599,2.7589018,0.9471774
2.634,10.54789,17.50076,5.1393433,-5.420738,2.6748693,0.95621705
2.636,10.62008,17.602776,5.168468,-5.524505,2.5910118,0.96756834
2.638,10.689931,17.697926,5.2093143,-5.6253185,2.5084703,0.98115927
2.64,10.757654,17.786573,5.2620373,-5.722554,2.4284527,0.99690473
2.642,10.823265,17.869043,5.326438,-5.81557,2.352196,1.014725
2.644,10.886795,17.945692,5.40252,-5.90373,2.2809286,1.0345762
2.646,10.9485,18.016993,5.4900026,-5.986433,2.2158508,1.0564826
2.648,11.008235,18.083408,5.588287,-6.0631332,2.1580992,1.0805457
2.65,11.066218,18.145565,5.69682,-6.13334,2.108727,1.1069322
2.652,11.122519,18.203924,5.814909,-6.1966314,2.0686784,1.1358604
2.654,11.177448,18.25894,5.941577,-6.252647,2.038793,1.1675909
2.656,11.231128,18.311165,6.075877,-6.3010902,2.0197644,1.2023804
2.658,11.28376,18.36126,6.216538,-6.341739,2.0121634,1.2404944
2.66,11.335379,18.409822,6.3624043,-6.374454,2.0164042,1.2821761
2.662,11.386286,18.457499,6.5119343,-6.3991547,2.0327537,1.3276348
2.664,11.436436,18.504757,6.6636925,-6.415853,2.0613163,1.3770047
2.666,11.486237,18.552113,6.816235,-6.424668,2.1020467,1.4303901
2.668,11.535566,18.600145,6.9679723,-6.4257784,2.1547623,1.4878268
2.67,11.584517,18.649296,7.11746,-6.4194555,2.2191365,1.5492706
2.672,11.633118,18.699911,7.263246,-6.4060555,2.2947068,1.6145686
2.674,11.681242,18.752428,7.404035,-6.3859873,2.3808932,1.6834981
2.676,11.728846,18.807205,7.538375,-6.359717,2.4770164,1.7557458
2.678,11.775928,18.864521,7.6650147,-6.327751,2.5822845,1.830915
2.68,11.822008,18.924719,7.7827373,-6.290621,2.6958473,1.908551
2.682,11.867064,18.987646,7.890499,-6.2488666,2.8167562,1.988146
2.684,11.910773,19.053247,7.987418,-6.2030287,2.9439774,2.0691774
2.686,11.9528,19.121496,8.0728245,-6.153653,3.0764527,2.1511004
2.688,11.992706,19.192211,8.146184,-6.101254,3.213085,2.233368
2.69,12.029988,19.265198,8.20726,-6.0463314,3.352737,2.3154418
2.692,12.06411,19.339954,8.255792,-5.9893684,3.4942646,2.3968182
2.694,12.094419,19.416357,8.291747,-5.930835,3.6365469,2.4770188
2.696,12.120269,19.493979,8.31509,-5.8711534,3.7784824,2.5556011
2.698,12.141226,19.572416,8.325985,-5.810726,3.919006,2.6321886
2.7,12.156694,19.651094,8.324845,-5.749925,4.057097,2.706461
2.702,12.165838,19.729506,8.3118305,-5.689081,4.191804,2.7781355
2.704,12.168267,19.807117,8.287428,-5.628498,4.3222637,2.8470082
2.706,12.1632805,19.883484,8.252093,-5.568442,4.4476852,2.9129033
2.708,12.150366,19.958002,8.206407,-5.5091324,4.5673885,2.9756851
2.71,12.129233,20.029932,8.150764,-5.4507394,4.6807923,3.035235
2.712,12.099307,20.098673,8.085907,-5.393392,4.7874265,3.0914674
2.714,12.060336,20.163538,8.012213,-5.337163,4.8869286,3.14432
2.716,12.011838,20.22396,7.930106,-5.2820783,4.9790287,3.1937451
2.718,11.953702,20.279346,7.8398247,-5.2281537,5.063547,3.2397256
2.72,11.885797,20.328978,7.741769,-5.1753755,5.1403813,3.282258
2.722,11.808377,20.372263,7.63589,-5.123713,5.20949,3.321341
2.724,11.721463,20.408587,7.5224276,-5.073144,5.270887,3.3570004
2.726,11.625311,20.437263,7.4012027,-5.02362,5.324621,3.3892646
2.728,11.520223,20.457441,7.2721224,-4.9750733,5.370768,3.4181209
2.73,11.406782,20.4687,7.1352015,-4.927443,5.4094124,3.4435778
2.732,11.285337,20.470203,6.990216,-4.8806453,5.440594,3.4656372
2.734,11.156499,20.461287,6.8368473,-4.834611,5.464314,3.4842882
2.736,11.02093,20.44125,6.6751595,-4.78929,5.4805226,3.499516
2.738,10.879443,20.409573,6.50501,-4.7446623,5.489088,3.5112827
2.74,10.732606,20.365627,6.326189,-4.7007413,5.4898124,3.519537
2.742,10.5812235,20.308731,6.13861,-4.657603,5.482402,3.5242233
2.744,10.426067,20.238388,5.942561,-4.615355,5.466525,3.5252807
2.746,10.267813,20.153755,5.738301,-4.574123,5.4418,3.5226045
2.748,10.10739,20.054525,5.5264072,-4.5340295,5.407819,3.5160875
2.75,9.945557,19.940008,5.307327,-4.495204,5.364177,3.5055823
2.752,9.782923,19.809967,5.08185,-4.4577255,5.310516,3.4909315
2.754,9.620225,19.663982,4.850874,-4.4216485,5.246522,3.4719787
2.756,9.457952,19.501953,4.6156206,-4.3869762,5.1719832,3.4485903
2.758,9.296777,19.32372,4.377272,-4.3536425,5.0867896,3.420639
2.76,9.137008,19.129234,4.1372395,-4.3215356,4.990978,3.388073
2.762,8.979047,18.918547,3.8970041,-4.2905083,4.8847356,3.3508751
2.764,8.823178,18.691895,3.6581993,-4.2603817,4.768401,3.3091016
2.766,8.669749,18.44965,3.4225962,-4.2309217,4.64247,3.2629068
2.768,8.518754,18.192204,3.1919484,-4.2018785,4.5075965,3.2125125
2.77,8.3702345,17.920227,2.9680898,-4.1729665,4.3645396,3.1582336
2.772,8.224277,17.634552,2.7526975,-4.1438823,4.2141314,3.1004596
2.774,8.080807,17.336143,2.5476098,-4.114291,4.057271,3.0396638
2.776,7.939476,17.02606,2.3545356,-4.0839076,3.8948932,2.9763663
2.778,7.8002462,16.705582,2.1749601,-4.052498,3.7279048,2.9111333
2.78,7.6628785,16.376068,2.010326,-4.0198517,3.557159,2.8445935
2.782,7.526846,16.03913,1.8620152,-3.9858174,3.383443,2.7774222
2.784,7.3919625,15.6962185,1.7311721,-3.9502985,3.2074919,2.7102463
2.786,7.25788,15.349007,1.619051,-3.9132674,3.0299704,2.6436825
2.788,7.1241546,14.999192,1.5265045,-3.8747447,2.8514705,2.57832
2.79,6.9904013,14.648357,1.4543982,-3.8348136,2.6725376,2.514695
2.792,6.856205,14.298447,1.4033852,-3.793557,2.4936767,2.4532838
2.794,6.721113,13.951052,1.373857,-3.751065,2.3153768,2.39449
2.796,6.5848665,13.60771,1.3660874,-3.7073996,2.1381433,2.3386114
2.798,6.44722,13.269914,1.3802304,-3.6625817,1.9624906,2.2858632
2.8,6.3079085,12.938931,1.4160991,-3.6165814,1.7889681,2.2363653
2.802,6.166806,12.616136,1.473566,-3.56931,1.6181668,2.190133
2.804,6.023731,12.302385,1.5522318,-3.5205882,1.4507046,2.1471071
2.806,5.8785295,11.998741,1.6515069,-3.470186,1.2872386,2.1071448
2.808,5.730924,11.705877,1.770709,-3.417811,1.1284907,2.0700321
2.81,5.5809584,11.424519,1.9088407,-3.3631363,0.9751835,2.0355067
2.812,5.4285913,11.155139,2.0650063,-3.3058202,0.8280592,2.0032706
2.814,5.2739387,10.897901,2.237935,-3.2455268,0.68785584,1.9730179
2.816,5.1170483,10.652907,2.426331,-3.1819491,0.555296,1.9444652
2.818,4.9581003,10.420202,2.6285005,-3.1148417,0.4310848,1.9173697
2.82,4.797064,10.19964,2.843172,-3.0440502,0.31586856,1.8915166
2.822,4.6342773,9.990974,3.0685263,-2.9694803,0.21025425,1.8667473
2.824,4.4698215,9.7938595,3.3028004,-2.8911304,0.11477393,1.8429539
2.826,4.303931,9.607947,3.5441132,-2.8090532,0.029887736,1.8200716
2.828,4.1368227,9.432695,3.790602,-2.7233648,-0.04401982,1.7980466
2.83,3.968675,9.267749,4.0402217,-2.6341863,-0.10666937,1.7768824
2.832,3.7995372,9.1124935,4.291175,-2.5416453,-0.1578398,1.7565702
2.834,3.6296854,8.966404,4.5415072,-2.44592,-0.19736892,1.7370795
2.836,3.4592104,8.8288765,4.789385,-2.3471766,-0.22516656,1.7183887
2.838,3.2884042,8.699457,5.0330505,-2.2455661,-0.24121171,1.7005115
2.84,3.1172452,8.577557,5.270729,-2.1412327,-0.24555203,1.6834633
2.842,2.9459577,8.462813,5.5008535,-2.0343277,-0.23828486,1.6672707
2.844,2.7745814,8.354745,5.721986,-1.9250078,-0.21958226,1.6519926
2.846,2.6034431,8.252836,5.9325914,-1.8134811,-0.18969625,1.6377102
2.848,2.4325922,8.156542,6.131493,-1.6999905,-0.14894432,1.624507
2.85,2.262252,8.065552,6.3177285,-1.5848198,-0.09773439,1.6124593
2.852,2.092508,7.979389,6.4902925,-1.4683053,-0.03653896,1.601634
2.854,1.92361,7.897676,6.648386,-1.350813,0.034106314,1.5920625
2.856,1.7558572,7.820185,6.79121,-1.2327253,0.11359656,1.5837404
2.858,1.5890906,7.746445,6.918272,-1.1144361,0.2012927,1.5765991
2.86,1.4234896,7.6762357,7.0293536,-0.99633867,0.29650134,1.5705297
2.862,1.2594032,7.6089344,7.1243424,-0.87881505,0.39846873,1.565383
2.864,1.0969552,7.544326,7.2030067,-0.7622099,0.50644445,1.5609937
2.866,0.9364823,7.4820905,7.265455,-0.6468546,0.61965334,1.5572121
2.868,0.77807903,7.421978,7.311976,-0.533043,0.7373048,1.5538766
2.87,0.62203205,7.363631,7.3428907,-0.42102295,0.85861766,1.5508525
2.872,0.46848214,7.306957,7.358674,-0.311014,0.98282814,1.5480244
2.874,0.31766844,7.2517214,7.3599334,-0.2032035,1.1091847,1.5453036
2.876,0.16965973,7.19768,7.3471966,-0.097757876,1.2369839,1.5426344
2.878,0.024918795,7.144649,7.321249,0.0051819086,1.3655839,1.5399607
2.88,-0.11647248,7.0923886,7.2827244,0.10550995,1.4943777,1.5372533
2.882,-0.25453222,7.040781,7.2326617,0.2031241,1.6228311,1.5345025
2.884,-0.38897943,6.989719,7.171751,0.29796782,1.7504761,1.5316676
2.886,-0.5196856,6.93914,7.1008463,0.39000005,1.8769171,1.5287464
2.888,-0.6467056,6.8889513,7.021039,0.479204,2.0018137,1.5257287
2.89,-0.7698885,6.839072,6.93312,0.56557477,2.1248696,1.5226125
2.892,-0.8891014,6.789444,6.838054,0.64911216,2.2458472,1.5193696
2.894,-1.0043594,6.7400007,6.7365623,0.7298145,2.3645353,1.5159856
2.896,-1.1157593,6.6908116,6.6293445,0.8076651,2.4807382,1.5124366
2.898,-1.223247,6.6418667,6.5171995,0.88263214,2.5942688,1.508705
2.9,-1.3268496,6.5932403,6.400674,0.9546845,2.7049403,1.5047578
2.902,-1.4267635,6.544914,6.2804317,1.0237646,2.8125448,1.5005715
2.904,-1.5229384,6.4969254,6.157122,1.0898118,2.9168835,1.4961181
2.906,-1.6156476,6.4494524,6.031038,1.1527536,3.0177112,1.4913628
2.908,-1.7050339,6.402424,5.902658,1.2125189,3.114777,1.4862897
2.91,-1.7912017,6.356013,5.77243,1.269027,3.2078316,1.4808666
2.912,-1.8743398,6.310122,5.6407323,1.3222,3.2966108,1.4750668
2.914,-1.9545407,6.2648997,5.5077443,1.371959,3.3808656,1.4688544
2.916,-2.0321856,6.220333,5.3738155,1.4182341,3.460369,1.462182
2.918,-2.1074972,6.176555,5.2391076,1.4609495,3.534893,1.454998
2.92,-2.180657,6.1336184,5.1038237,1.5000582,3.6042414,1.4472203
2.922,-2.2518375,6.091602,4.968131,1.5355147,3.668238,1.4388028
2.924,-2.321433,6.0506535,4.832159,1.5672834,3.7267091,1.4296907
2.926,-2.3895884,6.0107994,4.696043,1.5953431,3.7795062,1.4198365
2.928,-2.4567122,5.9721293,4.559987,1.6196798,3.8265057,1.4092219
2.93,-2.5229313,5.9348783,4.423939,1.6402895,3.86758,1.3978436
2.932,-2.5883973,5.899148,4.287962,1.6571801,3.902597,1.3857231
2.934,-2.6533675,5.8649626,4.152332,1.6703502,3.9314644,1.3728831
2.936,-2.7180512,5.832366,4.0171494,1.6798288,3.9540923,1.3593376
2.938,-2.7827044,5.8014708,3.8824778,1.6856482,3.970411,1.3451334
2.94,-2.8473647,5.772309,3.7486014,1.6878519,3.9803696,1.3302741
2.942,-2.912153,5.745022,3.6155422,1.6864918,3.9839315,1.3147794
2.944,-2.9770849,5.719675,3.4834476,1.6816446,3.9810972,1.2986438
2.946,-3.042282,5.69631,3.3525662,1.6734067,3.97188,1.2818688
2.948,-3.1079452,5.6750145,3.2230682,1.6618824,3.956324,1.2644308
2.95,-3.173888,5.6556783,3.095132,1.647193,3.934494,1.2463124
2.952,-3.2402105,5.6383014,2.9689984,1.6294771,3.9064946,1.2274723
2.954,-3.3066669,5.622879,2.844949,1.6088735,3.8724544,1.207882
2.956,-3.3734787,5.6094112,2.7232168,1.5855354,3.832548,1.187518
2.958,-3.4404683,5.597828,2.6041129,1.5596138,3.7869725,1.166371
2.96,-3.5075426,5.5880203,2.487958,1.5312809,3.7359524,1.1444399
2.962,-3.5745864,5.579931,2.3750072,1.5007142,3.6797497,1.1217198
2.964,-3.6415653,5.573493,2.2654996,1.4680959,3.618647,1.0982454
2.966,-3.70837,5.568583,2.1598074,1.4336193,3.5529437,1.0740421
2.968,-3.7746997,5.5650225,2.0582018,1.3974828,3.482975,1.0491495
2.97,-3.8406043,5.562732,1.9609362,1.3598812,3.4090745,1.0236156
2.972,-3.905832,5.5616875,1.868132,1.3210148,3.331602,0.9974895
2.974,-3.9703984,5.5618,1.7800924,1.2810625,3.2509074,0.9708257
2.976,-4.03413,5.562902,1.6968992,1.2402024,3.1673493,0.9436578
2.978,-4.0970693,5.5649915,1.618768,1.1986136,3.0812914,0.91603255
2.98,-4.1590214,5.5680475,1.545746,1.1564623,2.993076,0.88802004
2.982,-4.2198796,5.5719695,1.4779547,1.1138859,2.903028,0.85968804
2.984,-4.279783,5.576783,1.4155216,1.0710194,2.8114376,0.8311196
2.986,-4.3385534,5.582532,1.3586242,1.027992,2.7185924,0.8024247
2.988,-4.3962564,5.589236,1.3073378,0.98491585,2.6247275,0.7737217
2.99,-4.4528055,5.5968904,1.2617204,0.9418812,2.5300524,0.7451544
2.992,-4.5081,5.605498,1.2218076,0.89896727,2.4347548,0.7168469
2.994,-4.562202,5.6150675,1.1876252,0.8562723,2.3390157,0.68892825
2.996,-4.6151752,5.625648,1.1591414,0.813878,2.2430089,0.66149074
2.998,-4.666878,5.6372514,1.1362853,0.7718732,2.1469138,0.6346297
3,-4.717271,5.64989,1.1192203,0.7303564,2.0509086,0.6083957
3.002,-4.7664385,5.6636057,1.1075895,0.6894467,1.9551808,0.5828147
3.004,-4.8143935,5.6784883,1.1015699,0.64927727,1.8599408,0.55790627
3.006,-4.860966,5.694419,1.1010265,0.6099845,1.7654085,0.53367543
3.008,-4.9062414,5.7114983,1.105798,0.57173663,1.6718053,0.5101235
3.01,-4.950232,5.729637,1.1158504,0.5347036,1.5793623,0.48725176
3.012,-4.9927382,5.7488246,1.1308312,0.49906042,1.4883126,0.46507907
3.014,-5.0337553,5.7690067,1.1505718,0.46495166,1.3988708,0.44362447
3.016,-5.073225,5.7900677,1.174975,0.4325087,1.3112153,0.42291084
3.018,-5.1110764,5.811986,1.2037773,0.4018464,1.2255139,0.4029632
3.02,-5.147358,5.83473,1.2367454,0.37304214,1.1419084,0.38381517
3.022,-5.182013,5.858258,1.2735687,0.34615183,1.0604986,0.3654796
3.024,-5.214993,5.882549,1.3141477,0.3212069,0.9813561,0.34794807
3.026,-5.246231,5.9076443,1.3581862,0.29822445,0.9045334,0.33121532
3.028,-5.2757196,5.933445,1.4054985,0.2772293,0.8300567,0.31524253
3.03,-5.303411,5.959922,1.4558778,0.25824174,0.7579419,0.29998806
3.032,-5.3293586,5.986967,1.5090288,0.24127515,0.68819886,0.28540605
3.034,-5.353426,6.0147014,1.564826,0.22636494,0.62081504,0.2714272
3.036,-5.375737,6.043161,1.6231027,0.21355146,0.5557899,0.2579978
3.038,-5.3961425,6.0722036,1.6837236,0.20285846,0.4931224,0.2450847
3.04,-5.4148116,6.101857,1.7465914,0.19430621,0.4327951,0.2326571
3.042,-5.431644,6.132163,1.8115958,0.18790714,0.37479243,0.22069773
3.044,-5.4465303,6.163082,1.8786068,0.18366535,0.31910425,0.2091986
3.046,-5.45961,6.194657,1.9475389,0.18156068,0.26571,0.19816735
3.048,-5.4708285,6.2268276,2.0182817,0.18156281,0.21459952,0.18759264
3.05,-5.4801574,6.2595367,2.09077,0.18365367,0.1657714,0.17746486
3.052,-5.4875946,6.292705,2.1649332,0.187817,0.11922738,0.1677549
3.054,-5.4931808,6.32631,2.240702,0.19403356,0.07499914,0.15841573
3.056,-5.496963,6.3604016,2.317914,0.20229338,0.033110484,0.14938466
3.058,-5.4986506,6.3947897,2.396514,0.2125934,-0.0063989237,0.14058335
3.06,-5.49838,6.429391,2.4762933,0.22495273,-0.04347075,0.13194688
3.062,-5.496084,6.464175,2.5571568,0.2393743,-0.07805076,0.12339869
3.064,-5.491968,6.499134,2.6389093,0.2558603,-0.1100848,0.11489404
3.066,-5.4857974,6.534075,2.7213812,0.27440035,-0.1395474,0.10639799
3.068,-5.4776664,6.5690384,2.8043542,0.29497913,-0.16640535,0.09791605
3.07,-5.467528,6.6039762,2.8875473,0.3175652,-0.19064797,0.089480676
3.072,-5.455516,6.6389465,2.97088,0.342108,-0.2123048,0.081124485
3.074,-5.4415894,6.673805,3.053957,0.36854884,-0.23141852,0.07289416
3.076,-5.425779,6.7086835,3.1366103,0.39681488,-0.24804832,0.064855486
3.078,-5.4081078,6.7436185,3.2185209,0.4268151,-0.26226097,0.057064496
3.08,-5.3886743,6.778724,3.299501,0.4584478,-0.2741665,0.049566187
3.082,-5.3675942,6.8139486,3.3793483,0.49160284,-0.28387594,0.042403683
3.084,-5.3447323,6.8494377,3.4578147,0.52616364,-0.29152888,0.03561043
3.086,-5.3203483,6.8852897,3.53477,0.5620046,-0.2972841,0.02920942
3.088,-5.294419,6.9216175,3.60998,0.59899837,-0.30129668,0.023223624
3.09,-5.267071,6.958557,3.6833117,0.6370143,-0.3037514,0.017656595
3.092,-5.2383122,6.996124,3.7545772,0.67591584,-0.30483377,0.012487896
3.094,-5.2081404,7.0344152,3.823566,0.71558154,-0.3047313,0.0077041313
3.096,-5.1766596,7.073513,3.8903084,0.7558883,-0.30361548,0.0032593608
3.098,-5.1439743,7.113452,3.9546173,0.79673207,-0.301664,-0.00091768056
3.1,-5.110135,7.1542406,4.016595,0.8380176,-0.2990218,-0.0049086288
3.102,-5.075205,7.195971,4.076026,0.8796675,-0.2958346,-0.008815974
3.104,-5.039261,7.238575,4.133089,0.9216261,-0.29221243,-0.012760781
3.106,-5.0022707,7.281983,4.1878166,0.963854,-0.28824723,-0.016866304
3.108,-4.964244,7.326127,4.240222,1.0063362,-0.28402525,-0.021232925
3.11,-4.9254255,7.370941,4.2903466,1.0490618,-0.2796134,-0.025957651
3.112,-4.8856487,7.416268,4.3384132,1.0920216,-0.2750795,-0.031124532
3.114,-4.844997,7.4621034,4.3844223,1.1352003,-0.27048618,-0.036785126
3.116,-4.8036747,7.5083013,4.428483,1.1785724,-0.26588827,-0.042949483
3.118,-4.7615137,7.5548306,4.4707046,1.2221031,-0.26135558,-0.049603894
3.12,-4.718577,7.601608,4.511145,1.2657461,-0.2569601,-0.056695506
3.122,-4.6749344,7.6485147,4.550152,1.3094265,-0.2527902,-0.06416249
3.124,-4.630692,7.6955485,4.587695,1.353064,-0.24894544,-0.0719104
3.126,-4.5858026,7.742751,4.624075,1.3965509,-0.24552195,-0.07982848
3.128,-4.540308,7.790079,4.659296,1.4397815,-0.24262933,-0.08782239
3.13,-4.4943523,7.837508,4.693516,1.4826534,-0.24038552,-0.09581093
3.132,-4.447861,7.8849964,4.7269964,1.5250608,-0.2388986,-0.103713416
3.134,-4.400901,7.932624,4.7598658,1.5669185,-0.23825611,-0.111488
3.136,-4.3533735,7.9803333,4.792248,1.6081396,-0.23854354,-0.11911773
3.138,-4.305409,8.028163,4.8243566,1.6486585,-0.23982705,-0.12659729
3.14,-4.2570624,8.076126,4.8562946,1.6884302,-0.24215615,-0.13395992
3.142,-4.208293,8.124257,4.888222,1.7274224,-0.24555433,-0.14124784
3.144,-4.1592464,8.172399,4.920235,1.7656287,-0.25003207,-0.14851727
3.146,-4.1097927,8.220607,4.952425,1.8030654,-0.25558013,-0.15584338
3.148,-4.0601416,8.268915,4.9848537,1.8397456,-0.26213968,-0.16330343
3.15,-4.010223,8.317053,5.0177083,1.8757161,-0.2696641,-0.17096971
3.152,-3.960208,8.365048,5.051013,1.9110171,-0.2780766,-0.17889982
3.154,-3.9101927,8.412817,5.084869,1.9457009,-0.28730798,-0.18714872
3.156,-3.8600428,8.460297,5.1193166,1.9798288,-0.29726836,-0.19574615
3.158,-3.8099627,8.5073805,5.1544094,2.0134294,-0.30787355,-0.20471045
3.16,-3.7601542,8.553946,5.1900897,2.046548,-0.31905138,-0.21403027
3.162,-3.710516,8.60007,5.226504,2.0792096,-0.3307214,-0.22367008
3.164,-3.6614182,8.645647,5.2634687,2.1114285,-0.3428204,-0.23356959
3.166,-3.612572,8.690625,5.3010893,2.1431944,-0.35531574,-0.24364264
3.168,-3.5644135,8.735149,5.3393116,2.174487,-0.36817664,-0.25378573
3.17,-3.5169563,8.779318,5.3781676,2.205288,-0.38138375,-0.2638868
3.172,-3.4702578,8.823154,5.4176135,2.2355402,-0.39493224,-0.27382618
3.174,-3.4244106,8.866736,5.4576025,2.2651937,-0.4088295,-0.28348738
3.176,-3.3794928,8.910302,5.498178,2.294194,-0.4230902,-0.29275477
3.178,-3.3355277,8.954071,5.5392685,2.3224835,-0.43772435,-0.30154353
3.18,-3.2926116,8.998057,5.58087,2.3500078,-0.45275563,-0.30979133
3.182,-3.2507405,9.042486,5.6229095,2.3767154,-0.4682045,-0.31745744
3.184,-3.209927,9.087641,5.665658,2.4025662,-0.48407388,-0.32454294
3.186,-3.1702025,9.133575,5.708871,2.427529,-0.5003716,-0.33107626
3.188,-3.1316035,9.180521,5.752665,2.4515843,-0.51710045,-0.33710665
3.19,-3.0940566,9.22854,5.797038,2.4747307,-0.53424966,-0.34269217
3.192,-3.0575476,9.277886,5.8419733,2.496971,-0.55180407,-0.3479268
3.194,-3.0220885,9.328665,5.8875837,2.5183125,-0.5697422,-0.3528673
3.196,-2.9876106,9.380992,5.9338274,2.5387733,-0.5880448,-0.35756975
3.198,-2.9540188,9.434921,5.9807405,2.5583725,-0.6066662,-0.36207852
3.2,-2.9213245,9.4904375,6.028329,2.577124,-0.62556624,-0.36641914
3.202,-2.8894541,9.547664,6.07662,2.5950372,-0.64471173,-0.3706028
3.204,-2.8583765,9.606648,6.125571,2.6121075,-0.6640407,-0.3746216
3.206,-2.828254,9.667208,6.1750493,2.628323,-0.68347776,-0.3784756
3.208,-2.7986715,9.729416,6.2251616,2.6436708,-0.7029489,-0.38215142
3.21,-2.7696977,9.793187,6.2758074,2.6581128,-0.72240233,-0.3856405
3.212,-2.7413595,9.8583145,6.3270445,2.6716332,-0.7417762,-0.38893178
3.214,-2.7135499,9.924854,6.3787313,2.684195,-0.76100695,-0.3920347
3.216,-2.6862926,9.9926195,6.430805,2.6957786,-0.7800511,-0.39496487
3.218,-2.659586,10.061464,6.483197,2.7063563,-0.79886055,-0.39774078
3.22,-2.6333404,10.131249,6.535723,2.7159173,-0.8173932,-0.4003905
3.222,-2.607648,10.201877,6.5883484,2.7244544,-0.8356199,-0.40294242
3.224,-2.582376,10.273079,6.6409025,2.731961,-0.8535273,-0.40543228
3.226,-2.5574794,10.344679,6.693337,2.7384515,-0.87108904,-0.4079113
3.228,-2.5332024,10.41645,6.7454863,2.74393,-0.88827515,-0.4104102
3.23,-2.509268,10.488237,6.797281,2.7484095,-0.90506727,-0.41297457
3.232,-2.485872,10.559905,6.848467,2.751919,-0.9214414,-0.41563958
3.234,-2.4628873,10.631136,6.8990583,2.754489,-0.9373635,-0.4184388
3.236,-2.4403286,10.701633,6.9487705,2.7561488,-0.9528124,-0.42138466
3.238,-2.418271,10.7713,6.9975986,2.756926,-0.96776885,-0.42448986
3.24,-2.3965366,10.83987,7.045437,2.756858,-0.98220146,-0.42777216
3.242,-2.3752613,10.907212,7.09212,2.7559824,-0.99610937,-0.43122217
3.244,-2.3544524,10.972993,7.1374836,2.7543364,-1.0094656,-0.4348383
3.246,-2.3341796,11.037137,7.181554,2.7519507,-1.0222473,-0.43861213
3.248,-2.314277,11.099524,7.224171,2.7488587,-1.0344373,-0.44253874
3.25,-2.2947493,11.159899,7.265382,2.7450807,-1.0460248,-0.44660762
3.252,-2.2755785,11.218224,7.3050575,2.740638,-1.0569853,-0.45079547
3.254,-2.256842,11.274425,7.3432536,2.7355416,-1.0672922,-0.45506793
3.256,-2.2382412,11.328284,7.380007,2.7298043,-1.0769238,-0.4593957
3.258,-2.2199366,11.379877,7.415268,2.7234223,-1.0858603,-0.46374163
3.26,-2.2017035,11.429122,7.448992,2.7163997,-1.0940973,-0.4680349
3.262,-2.1835163,11.476007,7.4813147,2.7087257,-1.1016145,-0.47220832
3.264,-2.1652362,11.5206375,7.5122466,2.700397,-1.1083851,-0.47618896
3.266,-2.146892,11.562898,7.54195,2.6913955,-1.1144098,-0.4799196
3.268,-2.1283216,11.602953,7.57045,2.681717,-1.1196821,-0.4833244
3.27,-2.109356,11.640821,7.5979323,2.671369,-1.1241895,-0.48635745
3.272,-2.0899565,11.676466,7.6243477,2.6603642,-1.127933,-0.4889812
3.274,-2.0697815,11.710028,7.6500015,2.6487277,-1.1309063,-0.49118614
3.276,-2.0500789,11.741194,7.674161,2.6364982,-1.1331042,-0.49298307
3.278,-2.0298328,11.770158,7.6975136,2.623719,-1.1345229,-0.49440148
3.28,-2.009044,11.796919,7.720175,2.610451,-1.1351595,-0.4954993
3.282,-1.9877777,11.821489,7.742156,2.5967586,-1.1350318,-0.49636465
3.284,-1.9659466,11.843876,7.763582,2.5827174,-1.1341401,-0.4970801
3.286,-1.9436572,11.864083,7.7844257,2.5683966,-1.1325145,-0.4977358
3.288,-1.9209337,11.882026,7.8047905,2.5538692,-1.1301644,-0.49842358
3.29,-1.8978219,11.897881,7.8247023,2.5391989,-1.1271006,-0.49922326
3.292,-1.8743763,11.911604,7.844141,2.5244348,-1.1233536,-0.50018424
3.294,-1.8507545,11.923217,7.8630238,2.5096145,-1.1189605,-0.50132227
3.296,-1.8270541,11.932826,7.881464,2.4947677,-1.1139411,-0.5026442
3.298,-1.8033224,11.9404955,7.8994055,2.47991,-1.1083525,-0.5041076
3.3,-1.7797006,11.946318,7.9168463,2.4650366,-1.1022562,-0.5056073
3.302,-1.7563007,11.950413,7.9338193,2.4501355,-1.0957172,-0.5070235
3.304,-1.7332336,11.952869,7.9502144,2.435771,-1.0890585,-0.5083599
3.306,-1.7105281,11.953845,7.9660177,2.4216383,-1.0822461,-0.50941455
3.308,-1.6883327,11.953499,7.981255,2.407814,-1.0754082,-0.51007694
3.31,-1.6666886,11.95202,7.995913,2.39438,-1.0686681,-0.51025796
3.312,-1.6457295,11.949575,8.009968,2.3814347,-1.0621411,-0.50990736
3.314,-1.6254512,11.946186,8.023476,2.3690615,-1.0559256,-0.509033
3.316,-1.6057168,11.942217,8.036401,2.35735,-1.0501057,-0.5076733
3.318,-1.5868689,11.93768,8.048733,2.3463702,-1.0447379,-0.505896
3.32,-1.5688177,11.932752,8.060493,2.3361702,-1.0398479,-0.5037808
3.322,-1.5515188,11.927592,8.071714,2.3267748,-1.0354356,-0.50143373
3.324,-1.534957,11.9221945,8.08235,2.3181715,-1.0314914,-0.498948
3.326,-1.5191667,11.916711,8.092463,2.310343,-1.0279869,-0.4964086
