Time_s_,Acc_x_m_s_2_,Acc_y_m_s_2_,Acc_z_m_s_2_,Gyro_x_1_s_,Gyro_y_1_s_,Gyro_z_1_s_
0,-0.8985347,1.3583742,-1.2420658,0.18268578,-0.27832696,-0.42063805
0.002,-0.885663,1.3730778,-1.2332579,0.17991334,-0.28101277,-0.4304478
0.004,-0.87215257,1.3882687,-1.22057,0.1762483,-0.28509068,-0.44177014
0.006,-0.8580234,1.4038024,-1.2038524,0.17151812,-0.29082105,-0.4548163
0.008,-0.8431753,1.4198823,-1.1830629,0.16556886,-0.298432,-0.4697979
0.01,-0.8276322,1.4363855,-1.1580313,0.158292,-0.30806178,-0.48691192
0.012,-0.8114966,1.4534416,-1.128803,0.14965187,-0.319674,-0.50632
0.014,-0.79449797,1.4708885,-1.0954155,0.13967752,-0.33303586,-0.5280793
0.016,-0.77680653,1.488672,-1.0582539,0.12848434,-0.3477003,-0.5521028
0.018,-0.7582151,1.5066563,-1.0176188,0.116271645,-0.3629846,-0.5781141
0.02,-0.7388465,1.5249052,-0.97382253,0.10329461,-0.37802052,-0.60565937
0.022,-0.71874005,1.5434904,-0.92742103,0.089851156,-0.39186,-0.63411003
0.024,-0.69784236,1.5623511,-0.8790599,0.07623172,-0.40356258,-0.66273206
0.026,-0.6760516,1.5813928,-0.8295081,0.062676564,-0.41235524,-0.6907957
0.028,-0.6531959,1.6004406,-0.7797133,0.049139082,-0.41792023,-0.7182432
0.03,-0.6292099,1.6193149,-0.7307735,0.03593284,-0.41990083,-0.74372643
0.032,-0.6038809,1.6378303,-0.68389994,0.02303119,-0.41850668,-0.76702064
0.034,-0.5769154,1.6557393,-0.640512,0.010349765,-0.4142834,-0.78811944
0.036,-0.54804426,1.6728792,-0.6019071,-0.002220109,-0.40801919,-0.80721426
0.038,-0.5169432,1.6888885,-0.5694133,-0.014775693,-0.40067124,-0.8246362
0.04,-0.483006,1.7032171,-0.5443409,-0.02738379,-0.39319867,-0.8407963
0.042,-0.4458835,1.7154236,-0.5276685,-0.04005216,-0.386456,-0.8561356
0.044,-0.40498358,1.7250407,-0.52042896,-0.05275859,-0.38118058,-0.8710054
0.046,-0.35981196,1.731472,-0.523335,-0.06543836,-0.37795135,-0.8856211
0.048,-0.30979615,1.7344093,-0.53696,-0.078001946,-0.37711126,-0.9000674
0.05,-0.25460815,1.7335277,-0.56164104,-0.09034084,-0.3787781,-0.91434664
0.052,-0.1939612,1.7286255,-0.59759694,-0.1023414,-0.38288993,-0.92836607
0.054,-0.12691748,1.7193878,-0.64424855,-0.11387865,-0.3892836,-0.94199026
0.056,-0.05322802,1.7068522,-0.7015007,-0.12486088,-0.39770505,-0.9550314
0.058,0.025541365,1.6908269,-0.76871336,-0.13520858,-0.4078818,-0.967286
0.06,0.10919243,1.6712222,-0.8447336,-0.14486182,-0.41951478,-0.9785813
0.062,0.19772255,1.647748,-0.92806697,-0.15377894,-0.43232167,-0.9887603
0.064,0.2905041,1.6206093,-1.017301,-0.1619526,-0.44605738,-0.99771434
0.066,0.38675576,1.5903786,-1.1108718,-0.16939743,-0.46051228,-1.0053593
0.068,0.48549998,1.5578357,-1.2079803,-0.17611632,-0.47547257,-1.0116827
0.07,0.58594525,1.5240159,-1.307859,-0.18213573,-0.49070656,-1.0167037
0.072,0.6871661,1.4901447,-1.4091252,-0.18748826,-0.5059588,-1.0204543
0.074,0.78790134,1.4576919,-1.5107265,-0.19220185,-0.52095395,-1.0229603
0.076,0.88699806,1.4280242,-1.61181,-0.1963086,-0.5353831,-1.0242581
0.078,0.9828928,1.4027268,-1.7115215,-0.19983263,-0.5489446,-1.0243793
0.08,1.0737932,1.3832381,-1.8088628,-0.20278293,-0.56135094,-1.0233496
0.082,1.1579479,1.3707848,-1.902413,-0.20515855,-0.57238895,-1.0212301
0.084,1.233647,1.3664092,-1.9905185,-0.20694375,-0.58193135,-1.0181011
0.086,1.2990735,1.370851,-2.071647,-0.2080933,-0.589854,-1.0140948
0.088,1.3526955,1.3847151,-2.1448596,-0.2085628,-0.596131,-1.009487
0.09,1.3935828,1.4083557,-2.20981,-0.20829396,-0.6007945,-1.0045851
0.092,1.4206798,1.4419615,-2.2666724,-0.20716295,-0.6038221,-0.9997233
0.094,1.4332633,1.4856226,-2.315948,-0.20495865,-0.605131,-0.9953042
0.096,1.4312041,1.5393564,-2.3582747,-0.20140837,-0.60454273,-0.9917683
0.098,1.4146137,1.6028619,-2.393779,-0.19622798,-0.6017844,-0.98956877
0.1,1.3842771,1.6749701,-2.4222388,-0.18911956,-0.5964184,-0.9890376
0.102,1.3399241,1.7545488,-2.4443533,-0.17975748,-0.5878542,-0.9903522
0.104,1.2827461,1.8395083,-2.4609625,-0.16783522,-0.57544553,-0.9935224
0.106,1.214052,1.9284408,-2.4720836,-0.15307069,-0.5585551,-0.99829876
0.108,1.1354954,2.020307,-2.477947,-0.1352799,-0.5365983,-1.0041474
0.11,1.0483668,2.113721,-2.4788587,-0.11444202,-0.5091729,-1.0102818
0.112,0.954457,2.2067542,-2.474587,-0.09076169,-0.4761532,-1.0156722
0.114,0.8552023,2.2977443,-2.4645605,-0.06467745,-0.43784112,-1.0191318
0.116,0.7522252,2.3854012,-2.4502866,-0.03689602,-0.39499688,-1.0194391
0.118,0.6463342,2.4688306,-2.432573,-0.0083260685,-0.34888268,-1.0154688
0.12,0.5384612,2.5473192,-2.4100244,0.01996547,-0.3012318,-1.0063537
0.122,0.43014538,2.6192694,-2.3820097,0.04686512,-0.25416574,-0.99159044
0.124,0.32212174,2.684668,-2.349759,0.0713054,-0.21001926,-0.9711094
0.126,0.21556687,2.7429352,-2.3144836,0.09237503,-0.1711798,-0.9452558
0.128,0.109767675,2.794808,-2.2766721,0.10939926,-0.13982515,-0.91469395
0.13,0.0041515827,2.8409717,-2.236524,0.12199552,-0.1176817,-0.8802204
0.132,-0.10146487,2.881824,-2.1938045,0.13009402,-0.105903134,-0.84271157
0.134,-0.20728076,2.9176126,-2.14862,0.13385552,-0.10498384,-0.80292016
0.136,-0.31464827,2.9491863,-2.1013346,0.13364121,-0.11476379,-0.7613257
0.138,-0.42561626,2.9783897,-2.051342,0.1299248,-0.13449392,-0.71824324
0.14,-0.5416453,3.0070522,-1.9979453,0.12321034,-0.16310334,-0.6738451
0.142,-0.6639341,3.0367649,-1.94195,0.11397797,-0.19934213,-0.6281789
0.144,-0.7918947,3.0679574,-1.8829412,0.10270272,-0.24181199,-0.58127314
0.146,-0.9283055,3.1026645,-1.8208663,0.089867264,-0.28899884,-0.53315073
0.148,-1.0739006,3.1416988,-1.756709,0.07586025,-0.3396595,-0.48391283
0.15,-1.2282337,3.1855955,-1.6909348,0.061089173,-0.3926019,-0.43370566
0.152,-1.3920343,3.2355096,-1.6244498,0.046038613,-0.44652075,-0.38252613
0.154,-1.5655744,3.2917814,-1.5578213,0.031191349,-0.5001833,-0.330391
0.156,-1.7485316,3.3549826,-1.4913111,0.017061383,-0.55234706,-0.27718145
0.158,-1.940139,3.4248776,-1.4253278,0.004216641,-0.60156465,-0.2225667
0.16,-2.1387665,3.5009046,-1.3604869,-0.006777078,-0.6462138,-0.16615902
0.162,-2.3429382,3.5824533,-1.2971638,-0.015359402,-0.6846791,-0.1074789
0.164,-2.5520768,3.6692119,-1.235807,-0.020979315,-0.71536684,-0.04590874
0.166,-2.7632322,3.7597961,-1.1759522,-0.023199707,-0.737026,0.019233655
0.168,-2.9737527,3.8531113,-1.11691,-0.02175191,-0.74887204,0.08860249
0.17,-3.1820245,3.9487019,-1.0582393,-0.016530454,-0.75065994,0.16263884
0.172,-3.3867311,4.0461025,-0.9989268,-0.007685721,-0.7427631,0.24144512
0.174,-3.5859876,4.1443343,-0.93755525,0.004341781,-0.7262821,0.32470065
0.176,-3.7781935,4.242302,-0.87226725,0.018837452,-0.7028986,0.41160488
0.178,-3.9614496,4.3385863,-0.800789,0.034816742,-0.67488,0.5008683
0.18,-4.134647,4.4317646,-0.72099936,0.050991535,-0.644757,0.590883
0.182,-4.296676,4.5207653,-0.6310043,0.065966755,-0.61505735,0.67975897
0.184,-4.4463487,4.6045246,-0.528896,0.078352004,-0.5882361,0.76540655
0.186,-4.5830216,4.682396,-0.41317797,0.086922124,-0.5663651,0.84582895
0.188,-4.7056203,4.7537613,-0.28230444,0.09081745,-0.5509381,0.919179
0.19,-4.8136177,4.818046,-0.13515034,0.08961508,-0.54282886,0.9838916
0.192,-4.9065676,4.8749266,0.02911615,0.08341956,-0.5423762,1.0388398
0.194,-4.984251,4.9239044,0.21054485,0.07290146,-0.54929,1.0833051
0.196,-5.046535,4.9643445,0.40917593,0.059262797,-0.5626709,1.1169142
0.198,-5.093594,4.995513,0.6249228,0.04405579,-0.58128524,1.139525
0.2,-5.1257706,5.016575,0.8572476,0.02904123,-0.6037297,1.1511958
0.202,-5.1431227,5.026528,1.1052879,0.016105086,-0.62811565,1.1522492
0.204,-5.1456776,5.024308,1.367455,0.0070100725,-0.6524359,1.143141
0.206,-5.1337385,5.008809,1.6413646,0.003237605,-0.6746768,1.1243126
0.208,-5.1075287,4.9790254,1.9237626,0.0058843195,-0.69268847,1.0964152
0.21,-5.067476,4.934462,2.2106164,0.015575916,-0.7044136,1.0602437
0.212,-5.0122814,4.8740454,2.4981902,0.032455266,-0.70812166,1.0166742
0.214,-4.9418597,4.7971206,2.7828646,0.056260884,-0.7024242,0.96667004
0.216,-4.8560905,4.702258,3.0601487,0.0863736,-0.6863133,0.9111877
0.218,-4.754491,4.5877323,3.326031,0.121896625,-0.65932035,0.85105014
0.22,-4.6359687,4.453057,3.5776467,0.1617346,-0.62140006,0.78697234
0.222,-4.5000434,4.298045,3.8110309,0.20466767,-0.5730327,0.7196208
0.224,-4.346121,4.121827,4.0230646,0.24937584,-0.5152416,0.64965147
0.226,-4.173711,3.923701,4.212719,0.29455948,-0.44949308,0.5777172
0.228,-3.984183,3.7043424,4.3773537,0.33902815,-0.37749943,0.5044153
0.23,-3.7798455,3.4654422,4.5125375,0.3817171,-0.30117503,0.43030828
0.232,-3.5573206,3.2062945,4.616933,0.42177218,-0.22236474,0.3559061
0.234,-3.3175402,2.926299,4.69074,0.45860213,-0.14283024,0.28163183
0.236,-3.0626144,2.6253278,4.7361956,0.49181366,-0.064124525,0.2079313
0.238,-2.790921,2.301816,4.7550564,0.52125025,0.012645006,0.13528465
0.24,-2.5019913,1.9562656,4.7465143,0.5469997,0.08688557,0.06415106
0.242,-2.1971536,1.5901012,4.7096963,0.56932735,0.15850824,-0.004998559
0.244,-1.877686,1.2043176,4.6448345,0.5886363,0.22790924,-0.07170101
0.246,-1.543894,0.7994715,4.5520988,0.6053608,0.29591715,-0.1354177
0.248,-1.1961153,0.3757241,4.431247,0.619834,0.36353093,-0.19552931
0.25,-0.83606845,-0.06656492,4.2830462,0.6323523,0.43196362,-0.25149986
0.252,-0.4659133,-0.5262037,4.110546,0.643203,0.5024517,-0.30304086
0.254,-0.089168906,-1.0007594,3.9162893,0.65245014,0.5759254,-0.34995493
0.256,0.29445124,-1.4898396,3.7036686,0.6598411,0.6528574,-0.39195022
0.258,0.6829885,-1.9923639,3.4779963,0.66468114,0.73301435,-0.4287317
0.26,1.0734067,-2.5073807,3.2444947,0.6658641,0.8153723,-0.46008
0.262,1.4596508,-3.0323825,3.0057423,0.66229296,0.89882267,-0.4858475
0.264,1.8334632,-3.5642123,2.7736173,0.6529308,0.98174834,-0.5061979
0.266,2.2101638,-4.110637,2.5588424,0.63659936,1.0616434,-0.5215318
0.268,2.581651,-4.6682854,2.3546088,0.612007,1.1359497,-0.53194064
0.27,2.952828,-5.233811,2.1745327,0.57786846,1.2021747,-0.5374761
0.272,3.3390691,-5.804852,2.0344443,0.5330473,1.2577772,-0.53842676
0.274,3.7256591,-6.3650813,1.9376892,0.47675896,1.3004885,-0.5351968
0.276,4.1027822,-6.9018884,1.8747445,0.40864068,1.3286417,-0.5281976
0.278,4.479776,-7.4112654,1.8351619,0.32886702,1.3412967,-0.51785743
0.28,4.8576083,-7.889252,1.8250871,0.23814291,1.3384231,-0.5045821
0.282,5.23155,-8.3358345,1.8626298,0.1376602,1.3209937,-0.4886588
0.284,5.6014643,-8.756829,1.9564297,0.029038072,1.2909516,-0.47025743
0.286,5.9716086,-9.152951,2.093671,-0.08576739,1.2509856,-0.44950584
0.288,6.337024,-9.513434,2.2539768,-0.20461589,1.2041895,-0.42650473
0.29,6.695526,-9.827703,2.4223127,-0.32536212,1.1537992,-0.40127176
0.292,7.050733,-10.084413,2.5950677,-0.44588,1.1032978,-0.3738842
0.294,7.399521,-10.272336,2.772345,-0.5641124,1.0560206,-0.34501752
0.296,7.737325,-10.380218,2.962246,-0.6775497,1.0157864,-0.31491992
0.298,8.062185,-10.409111,3.1561162,-0.7838758,0.98550725,-0.2828634
0.3,8.380548,-10.361642,3.3415213,-0.8804833,0.96800697,-0.24775413
0.302,8.692043,-10.234145,3.5057333,-0.9631749,0.9677523,-0.20819233
0.304,8.9867,-10.018283,3.6365585,-1.0264329,0.99015605,-0.16325706
0.306,9.254178,-9.706702,3.7197037,-1.0636638,1.0434256,-0.111914955
0.308,9.488776,-9.297335,3.7343998,-1.0671743,1.1381886,-0.05233303
0.31,9.689561,-8.795967,3.6562545,-1.0287383,1.2851882,0.017451338
0.312,9.853396,-8.213457,3.4663293,-0.9404768,1.4956465,0.098928064
0.314,9.974224,-7.5619884,3.1552465,-0.7950522,1.7815416,0.19322076
0.316,10.045769,-6.8525734,2.7197618,-0.58678955,2.1525016,0.30060336
0.318,10.0620575,-6.097044,2.1605747,-0.31326663,2.612765,0.41909593
0.32,10.018738,-5.3100376,1.4801409,0.023802876,3.1606493,0.5442822
0.322,9.914501,-4.508914,0.68399507,0.4180801,3.7878256,0.6671704
0.324,9.750369,-3.7113876,-0.21825856,0.8575003,4.4780664,0.7740433
0.326,9.528895,-2.933912,-1.2119951,1.3238604,5.206275,0.84931123
0.328,9.254136,-2.1916394,-2.2783024,1.7945797,5.941498,0.8786145
0.33,8.932344,-1.4999065,-3.39521,2.2438178,6.6464906,0.8514408
0.332,8.57209,-0.87323046,-4.5366335,2.6448855,7.27972,0.76247334
0.334,8.183388,-0.3240211,-5.674705,2.9728103,7.798543,0.6117721
0.336,7.77749,0.13759708,-6.780174,3.2067823,8.163368,0.40470946
0.338,7.368101,0.50314474,-7.8233385,3.3324666,8.3421,0.15134704
0.34,6.968402,0.7676985,-8.776096,3.3436472,8.313597,-0.13498294
0.342,6.585681,0.9325206,-9.614236,3.2429,8.0702505,-0.4389819
0.344,6.2320065,1.0001388,-10.316607,3.041031,7.6197376,-0.7444667
0.346,5.9186544,0.976022,-10.867971,2.7552528,6.984972,-1.0361665
0.348,5.652341,0.86852527,-11.257691,2.4070857,6.2026086,-1.3013053
0.35,5.438414,0.6863575,-11.477795,2.0199656,5.3190937,-1.5313139
0.352,5.280716,0.4400239,-11.526268,1.6177343,4.3868046,-1.721472
0.354,5.180284,0.14200163,-11.4069605,1.2220764,3.4572644,-1.8696067
0.356,5.1351066,-0.19478321,-11.128444,0.85029304,2.5751688,-1.9758526
0.358,5.140958,-0.5575255,-10.703987,0.5153157,1.7758689,-2.0420794
0.36,5.1917276,-0.93355596,-10.150753,0.2258378,1.0820867,-2.0724776
0.362,5.279073,-1.3113081,-9.48887,-0.013632495,0.50453395,-2.0733879
0.364,5.393249,-1.6802762,-8.739945,-0.20228902,0.044205964,-2.0516346
0.366,5.5229645,-2.0307128,-7.9263062,-0.34237137,-0.30693406,-2.013456
0.368,5.6565557,-2.3536015,-7.070159,-0.43904406,-0.56362414,-1.9644567
0.37,5.7826524,-2.6417472,-6.1923285,-0.49935597,-0.74241805,-1.9091265
0.372,5.8942776,-2.891518,-5.3092723,-0.53068924,-0.8580099,-1.8498672
0.374,5.984577,-3.0999596,-4.4431925,-0.54026484,-0.92338586,-1.7877656
0.376,6.0276957,-3.256786,-3.6097364,-0.5350052,-0.94992214,-1.7218543
0.378,6.0254836,-3.3651116,-2.8064103,-0.52058065,-0.9460226,-1.6499776
0.38,5.968387,-3.4276915,-2.0497808,-0.5010904,-0.9169665,-1.5713898
0.382,5.8435307,-3.4465508,-1.3517148,-0.47992092,-0.8678503,-1.4877733
0.384,5.6698027,-3.434949,-0.70878816,-0.45910686,-0.80188423,-1.4025156
0.386,5.454755,-3.3972576,-0.10959309,-0.43974167,-0.72121763,-1.3191755
0.388,5.1893635,-3.329705,0.45382217,-0.42217293,-0.62787294,-1.2404131
0.39,4.877615,-3.2304187,0.97164506,-0.40622696,-0.52446616,-1.1680261
0.392,4.528382,-3.095959,1.4274344,-0.39159366,-0.41425613,-1.1031941
0.394,4.1457305,-2.9219973,1.8206902,-0.378105,-0.3005219,-1.0466074
0.396,3.730606,-2.7127693,2.1689394,-0.36577743,-0.18614276,-0.99895537
0.398,3.2930174,-2.4821744,2.4881,-0.35461682,-0.07392594,-0.9611939
0.4,2.838652,-2.2403471,2.7808213,-0.3443653,0.033367664,-0.9337695
0.402,2.368033,-1.9954902,3.0372841,-0.33463442,0.1332557,-0.9161598
0.404,1.8888612,-1.7533594,3.2471635,-0.32518074,0.22381443,-0.9073436
0.406,1.40864,-1.5183265,3.3978958,-0.3159148,0.3041066,-0.90637815
0.408,0.93050605,-1.2841067,3.4958587,-0.30678737,0.37428442,-0.91254765
0.41,0.45133638,-1.0479923,3.5489213,-0.29769886,0.43539515,-0.9251379
0.412,-0.023593288,-0.81618154,3.5629292,-0.2885653,0.48902756,-0.9432428
0.414,-0.48161152,-0.598481,3.5417955,-0.27933642,0.5373088,-0.9658026
0.416,-0.91390556,-0.40206736,3.4898875,-0.26991814,0.5827898,-0.9918422
0.418,-1.3183361,-0.22876805,3.4156048,-0.26020318,0.62801784,-1.0205529
0.42,-1.6964328,-0.07523909,3.3270288,-0.24997741,0.6756313,-1.0511143
0.422,-2.0463967,0.062489927,3.2246845,-0.23894751,0.72806114,-1.0828178
0.424,-2.3631773,0.18498349,3.1016636,-0.2267083,0.787372,-1.1150953
0.426,-2.6423051,0.2889768,2.9507458,-0.21280311,0.8552165,-1.1474589
0.428,-2.8800616,0.37052572,2.7670712,-0.19675466,0.9327442,-1.1795393
0.43,-3.074495,0.42787707,2.5498838,-0.17812324,1.0205146,-1.2110906
0.432,-3.2258258,0.46059197,2.3006847,-0.15656933,1.1184323,-1.2419221
0.434,-3.3349743,0.4678669,2.0207381,-0.13193029,1.2256613,-1.271858
0.436,-3.4021754,0.44763362,1.7114192,-0.10427013,1.3406467,-1.3006797
0.438,-3.428143,0.3982613,1.3741548,-0.07393795,1.4610521,-1.3281542
0.44,-3.4141767,0.31938398,1.0108447,-0.041582465,1.5837798,-1.3540198
0.442,-3.3622851,0.21244717,0.6239159,-0.008160889,1.7050487,-1.3779688
0.444,-3.274833,0.07917845,0.2161288,0.0250929,1.8205073,-1.3996919
0.446,-3.1549673,-0.07833648,-0.2093601,0.056715727,1.9254285,-1.4189756
0.448,-3.0061898,-0.2578528,-0.64860034,0.085118294,2.014993,-1.4357275
0.45,-2.8324146,-0.45720935,-1.0969198,0.10870314,2.0845244,-1.4499604
0.452,-2.6381986,-0.6740173,-1.5488381,0.12595451,2.1298375,-1.461849
0.454,-2.428536,-0.90580475,-1.9983233,0.1355741,2.1475072,-1.4717066
0.456,-2.2089972,-1.1499939,-2.4387727,0.13656223,2.135131,-1.4799412
0.458,-1.9850615,-1.4039764,-2.8633747,0.1282922,2.0915012,-1.4869823
0.46,-1.7620765,-1.6647444,-3.2658083,0.11053473,2.016655,-1.4932274
0.462,-1.5451182,-1.9293112,-3.6399317,0.083464384,1.9118761,-1.4989693
0.464,-1.3394192,-2.194012,-3.9815378,0.047603667,1.7796037,-1.5043783
0.466,-1.1507201,-2.455533,-4.288398,0.003764391,1.6232507,-1.5095041
0.468,-0.9831228,-2.7122526,-4.5542927,-0.04701346,1.446944,-1.5143216
0.47,-0.8401891,-2.9630833,-4.7773848,-0.10352197,1.2553252,-1.5187387
0.472,-0.72559273,-3.2057514,-4.9596443,-0.16438347,1.0535429,-1.5226419
0.474,-0.64133894,-3.4384313,-5.099078,-0.22820345,0.84670734,-1.5260445
0.476,-0.5871806,-3.6599002,-5.195736,-0.29360658,0.63983566,-1.5289861
0.478,-0.5635365,-3.8688478,-5.2507515,-0.3593327,0.43764377,-1.5315903
0.48,-0.57226217,-4.063747,-5.2655563,-0.42426676,0.24428609,-1.5341765
0.482,-0.6132537,-4.243815,-5.2440944,-0.48749208,0.063191086,-1.5371851
0.484,-0.68618846,-4.4081993,-5.190739,-0.5483372,-0.10311982,-1.5411248
0.486,-0.7884691,-4.557058,-5.107484,-0.6063678,-0.25308838,-1.5465741
0.488,-0.9137541,-4.6914754,-5.000485,-0.66139513,-0.38608366,-1.5541326
0.49,-1.060061,-4.8111386,-4.8750753,-0.7134849,-0.50243586,-1.564387
0.492,-1.2254567,-4.916695,-4.7305117,-0.7629013,-0.60326946,-1.5778649
0.494,-1.4033332,-5.0105567,-4.570176,-0.80994403,-0.6901364,-1.5950856
0.496,-1.5902021,-5.093719,-4.3969655,-0.8548801,-0.7650102,-1.6167123
0.498,-1.784565,-5.16575,-4.212545,-0.89784706,-0.8298871,-1.6434888
0.5,-1.9807069,-5.2271595,-4.0219355,-0.9385742,-0.88596267,-1.6759456
0.502,-2.1706185,-5.278989,-3.830706,-0.97662127,-0.93407065,-1.714545
0.504,-2.350577,-5.320181,-3.6420197,-1.0114821,-0.97457224,-1.7596723
0.506,-2.5149019,-5.3506427,-3.4583755,-1.0423716,-1.0068946,-1.8114552
0.508,-2.656504,-5.37162,-3.2831511,-1.06836,-1.0300798,-1.8700217
0.51,-2.7693534,-5.384703,-3.1186547,-1.0886047,-1.0430386,-1.935503
0.512,-2.8482819,-5.3917274,-2.965784,-1.1025853,-1.0449095,-2.0078554
0.514,-2.8884084,-5.394469,-2.8242908,-1.1103679,-1.0357169,-2.0868669
0.516,-2.8854468,-5.3940187,-2.6930678,-1.1127994,-1.0166929,-2.1720717
0.518,-2.8353353,-5.391847,-2.5701733,-1.1112304,-0.9901358,-2.262615
0.52,-2.7349195,-5.3893466,-2.4533796,-1.1075413,-0.9599916,-2.357565
0.522,-2.5823019,-5.388174,-2.3402712,-1.1041597,-0.93165934,-2.4560032
0.524,-2.376567,-5.390024,-2.2279794,-1.103584,-0.91081834,-2.5566516
0.526,-2.1176715,-5.3969865,-2.113307,-1.108391,-0.90367687,-2.6582656
0.528,-1.8080136,-5.4107943,-1.9930103,-1.1209688,-0.91630477,-2.7597888
0.53,-1.4520904,-5.432617,-1.8667637,-1.1430225,-0.95323086,-2.8600368
0.532,-1.0529088,-5.464984,-1.7360069,-1.1754168,-1.0173213,-2.9578614
0.534,-0.614764,-5.510512,-1.5988773,-1.2180264,-1.1093267,-3.0524294
0.536,-0.14524508,-5.571365,-1.4536107,-1.2695327,-1.2269814,-3.1430874
0.538,0.3484838,-5.649914,-1.3026336,-1.3274904,-1.3649856,-3.229336
0.54,0.8591316,-5.7480116,-1.1476375,-1.3884536,-1.5153873,-3.310771
0.542,1.3775666,-5.8657575,-0.9897984,-1.4482092,-1.6680596,-3.3869333
0.544,1.8940035,-6.0021973,-0.8326185,-1.5021578,-1.8115429,-3.4571762
0.546,2.398742,-6.155364,-0.6813748,-1.545749,-1.9340653,-3.520745
0.548,2.8838723,-6.3234353,-0.5405259,-1.5750195,-2.0249176,-3.5768595
0.55,3.3413,-6.5031266,-0.4146589,-1.5870111,-2.075474,-3.6245718
0.552,3.7647529,-6.6909657,-0.30990875,-1.5801166,-2.0802648,-3.6629148
0.554,4.1487064,-6.882996,-0.23091137,-1.5543486,-2.037914,-3.6910672
0.556,4.488637,-7.0749226,-0.18091261,-1.5109851,-1.9504943,-3.7082007
0.558,4.7806616,-7.2618313,-0.16347563,-1.452442,-1.8233285,-3.7135997
0.56,5.021821,-7.438126,-0.18175459,-1.3823535,-1.664695,-3.7067297
0.562,5.210417,-7.598239,-0.23786902,-1.3050526,-1.4842935,-3.6869462
0.564,5.345548,-7.736306,-0.33338678,-1.2248881,-1.2921741,-3.6537232
0.566,5.427656,-7.846918,-0.469087,-1.145711,-1.0975169,-3.607
0.568,5.4583936,-7.925539,-0.6445327,-1.0706782,-0.90763164,-3.5469904
0.57,5.4401503,-7.968576,-0.85790443,-1.0021517,-0.72774017,-3.4742718
0.572,5.3760147,-7.973572,-1.1067132,-0.94175816,-0.5610304,-3.3899653
0.574,5.269772,-7.939728,-1.3871315,-0.8902338,-0.4082259,-3.2955105
0.576,5.1271853,-7.867301,-1.6940811,-0.84749913,-0.26848406,-3.192861
0.578,4.9522524,-7.756281,-2.0277534,-0.8130299,-0.14047837,-3.0847454
0.58,4.7529135,-7.610018,-2.3809452,-0.78569806,-0.021959543,-2.9741502
0.582,4.532424,-7.432497,-2.7441978,-0.7641003,0.08944023,-2.864218
0.584,4.3014364,-7.2317095,-3.1196165,-0.74697447,0.19522244,-2.7583852
0.586,4.068673,-7.016391,-3.5092583,-0.7332053,0.29655188,-2.6598718
0.588,3.8388007,-6.7940693,-3.9066234,-0.72196054,0.3940484,-2.5712812
0.59,3.6158462,-6.5712314,-4.305338,-0.7128535,0.48722965,-2.494709
0.592,3.4068053,-6.3554134,-4.701314,-0.7059045,0.57483804,-2.4316676
0.594,3.2212348,-6.15468,-5.0909815,-0.70155376,0.65512735,-2.3830357
0.596,3.0619745,-5.974166,-5.4734693,-0.7006047,0.72583854,-2.3492012
0.598,2.9275937,-5.8187747,-5.844834,-0.7040966,0.78440905,-2.3301237
0.6,2.825095,-5.6963406,-6.204335,-0.71322376,0.8281228,-2.3252726
0.602,2.7615166,-5.6125484,-6.5573378,-0.7291422,0.8544185,-2.333664
0.604,2.7370775,-5.570109,-6.900861,-0.75278395,0.861139,-2.3541017
0.606,2.7544355,-5.572786,-7.229383,-0.7847515,0.8467371,-2.3851962
0.608,2.8159854,-5.623387,-7.5395484,-0.82520384,0.81046516,-2.4253516
0.61,2.9183326,-5.7223372,-7.823808,-0.8737377,0.7525531,-2.4727652
0.612,3.057145,-5.868963,-8.074754,-0.9293233,0.6743208,-2.525506
0.614,3.2314267,-6.0629487,-8.289917,-0.99027085,0.5783286,-2.5813918
0.616,3.436994,-6.3005934,-8.468235,-1.0542837,0.4679919,-2.6381195
0.618,3.6675773,-6.575348,-8.609114,-1.1186919,0.34715223,-2.6934419
0.62,3.9167252,-6.8794127,-8.714565,-1.1806011,0.22049499,-2.745074
0.622,4.177605,-7.2045064,-8.788382,-1.2369109,0.09330571,-2.790802
0.624,4.442056,-7.5421715,-8.835146,-1.2844496,-0.029024005,-2.828536
0.626,4.7019897,-7.884399,-8.85902,-1.3201722,-0.14130604,-2.8564844
0.628,4.949015,-8.22287,-8.862853,-1.3413856,-0.23873645,-2.873252
0.63,5.175603,-8.549216,-8.848984,-1.3459789,-0.31694174,-2.8775437
0.632,5.3754535,-8.855959,-8.819492,-1.3327055,-0.3724658,-2.8682833
0.634,5.542972,-9.136961,-8.776017,-1.3013406,-0.40311462,-2.8450367
0.636,5.673978,-9.387375,-8.719282,-1.2527137,-0.40801328,-2.8080938
0.638,5.7669754,-9.603972,-8.649998,-1.1887525,-0.3876989,-2.758553
0.64,5.8219895,-9.785139,-8.566006,-1.1124471,-0.34441042,-2.6985426
0.642,5.8379426,-9.929222,-8.464479,-1.0276655,-0.28209257,-2.6313066
0.644,5.8160815,-10.036222,-8.346399,-0.93893385,-0.20637625,-2.56102
0.646,5.76143,-10.107986,-8.211849,-0.8511938,-0.124390304,-2.4925694
0.648,5.6785026,-10.14751,-8.0566845,-0.7694787,-0.044329166,-2.4312797
0.65,5.572173,-10.159277,-7.8789797,-0.69854295,0.025201023,-2.3824387
0.652,5.449582,-10.149521,-7.678186,-0.6424613,0.07601434,-2.3507202
0.654,5.3181777,-10.124805,-7.452186,-0.60423875,0.10131729,-2.3395984
0.656,5.1852074,-10.091608,-7.1993017,-0.58556277,0.09657103,-2.3508387
0.658,5.05662,-10.055461,-6.9199715,-0.58669776,0.060182095,-2.384213
0.66,4.9387565,-10.022048,-6.61551,-0.6064703,-0.006277621,-2.4375005
0.662,4.836878,-9.996485,-6.2867465,-0.6424142,-0.0981074,-2.50673
0.664,4.75593,-9.983097,-5.936368,-0.6910403,-0.20813113,-2.586624
0.666,4.6998973,-9.985608,-5.568634,-0.74815714,-0.3276056,-2.6711428
0.668,4.671198,-10.0067425,-5.187952,-0.8092852,-0.44725668,-2.7543175
0.67,4.670963,-10.04806,-4.799704,-0.8701736,-0.5581371,-2.8307958
0.672,4.6984344,-10.1096525,-4.410964,-0.9271405,-0.65254045,-2.8961968
0.674,4.751553,-10.190854,-4.0286665,-0.9773011,-0.72522366,-2.9476054
0.676,4.8268995,-10.289685,-3.660196,-1.0187165,-0.77322257,-2.9837747
0.678,4.919683,-10.403203,-3.3129404,-1.0504452,-0.7954472,-3.0048742
0.68,5.0245037,-10.527852,-2.994073,-1.0724704,-0.79252017,-3.0120525
0.682,5.13573,-10.659632,-2.7101252,-1.0853962,-0.7664056,-3.0072148
0.684,5.247751,-10.794685,-2.4665205,-1.0901693,-0.7199217,-2.9929724
0.686,5.3544393,-10.928796,-2.267824,-1.0879322,-0.6561983,-2.9721467
0.688,5.4506264,-11.058223,-2.1164737,-1.0799553,-0.57845986,-2.9471912
0.69,5.5293465,-11.178461,-2.016366,-1.067535,-0.4900682,-2.9201255
0.692,5.589931,-11.287964,-1.969181,-1.0518943,-0.3944186,-2.8925214
0.694,5.6246986,-11.38302,-1.96955,-1.0341868,-0.29485315,-2.8654058
0.696,5.630106,-11.461479,-2.011389,-1.0155649,-0.19471753,-2.839301
0.698,5.609252,-11.5243025,-2.0960643,-0.99716496,-0.09726566,-2.8143144
0.7,5.5662003,-11.573779,-2.2223754,-0.98006797,-0.0056351423,-2.7902853
0.702,5.4996176,-11.610491,-2.3838987,-0.9652829,0.07715142,-2.7668805
0.704,5.407932,-11.634858,-2.5746055,-0.9537195,0.14833969,-2.7437136
0.706,5.295356,-11.648988,-2.7884297,-0.94616157,0.20561463,-2.7204974
0.708,5.1671276,-11.654133,-3.0185697,-0.9431912,0.24717093,-2.6971776
0.71,5.024764,-11.649896,-3.257339,-0.9450881,0.2719888,-2.6739705
0.712,4.8699355,-11.637018,-3.4973445,-0.9516912,0.27998006,-2.6512868
0.714,4.706215,-11.61713,-3.7349136,-0.962397,0.27209407,-2.629583
0.716,4.5380483,-11.59186,-3.9682884,-0.9762026,0.25025946,-2.6092372
0.718,4.369593,-11.563345,-4.1953344,-0.9917713,0.2173366,-2.5904725
0.72,4.2046356,-11.533719,-4.4139934,-1.0075289,0.17685884,-2.5733476
0.722,4.046506,-11.504677,-4.6222606,-1.0218121,0.13266098,-2.5577464
0.724,3.8982923,-11.478238,-4.817941,-1.0329984,0.08855623,-2.5434067
0.726,3.762847,-11.457074,-4.998761,-1.039672,0.048024654,-2.529984
0.728,3.6432457,-11.444042,-5.1623936,-1.0407512,0.013904095,-2.517149
0.73,3.542947,-11.441806,-5.3068867,-1.0355204,-0.0117634535,-2.5046566
0.732,3.4650955,-11.452413,-5.4316273,-1.0236818,-0.027790606,-2.4924207
0.734,3.412548,-11.477617,-5.5375123,-1.0052898,-0.03375995,-2.4805603
0.736,3.3874054,-11.51904,-5.626436,-0.98064816,-0.029881656,-2.4693851
0.738,3.3910704,-11.578009,-5.701198,-0.95024693,-0.016806304,-2.4593465
0.74,3.4241762,-11.655842,-5.7646446,-0.914636,0.0045642853,-2.4509234
0.742,3.4869351,-11.753111,-5.8192773,-0.8743998,0.033228457,-2.44456
0.744,3.5792754,-11.869947,-5.8673797,-0.8301154,0.06819165,-2.4405894
0.746,3.7006161,-12.006031,-5.911566,-0.78230655,0.10847688,-2.4392083
0.748,3.8492336,-12.160973,-5.9536943,-0.7314483,0.15310687,-2.440458
0.75,4.0227413,-12.334073,-5.9954257,-0.6779386,0.20110041,-2.4442506
0.752,4.218048,-12.524282,-6.0382624,-0.62213063,0.25140214,-2.4503553
0.754,4.431758,-12.729845,-6.083145,-0.56436396,0.3027894,-2.458373
0.756,4.6600404,-12.94852,-6.131066,-0.50496745,0.35388416,-2.4677482
0.758,4.8984814,-13.177183,-6.1829042,-0.44427493,0.4031691,-2.4778438
0.76,5.1424775,-13.412666,-6.23908,-0.38263094,0.44897515,-2.4879966
0.762,5.3864594,-13.651516,-6.299591,-0.32044512,0.48965237,-2.4974823
0.764,5.62426,-13.890356,-6.3641305,-0.2581715,0.5236249,-2.5055099
0.766,5.8489156,-14.12511,-6.432369,-0.1963214,0.5495062,-2.5112085
0.768,6.0532475,-14.35141,-6.5041294,-0.13542701,0.56626344,-2.513639
0.77,6.2293587,-14.564362,-6.579693,-0.07604448,0.5732747,-2.5117886
0.772,6.370328,-14.759113,-6.6576023,-0.018765338,0.5703621,-2.5045557
0.774,6.469184,-14.930962,-6.739764,0.035841756,0.5577861,-2.4908183
0.776,6.5217276,-15.076254,-6.8263497,0.08724881,0.536167,-2.4694848
0.778,6.522808,-15.19146,-6.9152956,0.13497415,0.50642145,-2.4395425
0.78,6.4675274,-15.273981,-7.0036554,0.17862694,0.46962348,-2.4001386
0.782,6.3523664,-15.321989,-7.0893617,0.2179072,0.42693007,-2.3506489
0.784,6.175624,-15.334667,-7.1706715,0.252612,0.37948394,-2.2907257
0.786,5.9364376,-15.311911,-7.246082,0.2826594,0.3283319,-2.220326
0.788,5.6352086,-15.254253,-7.3145604,0.30812004,0.27437693,-2.139748
0.79,5.2735605,-15.163088,-7.3747244,0.32921228,0.21836036,-2.049623
0.792,4.8539653,-15.040246,-7.425082,0.34633207,0.16088802,-1.9509343
0.794,4.3805046,-14.88803,-7.4648576,0.36000478,0.10244477,-1.8449835
0.796,3.8580306,-14.70944,-7.4930887,0.37088996,0.043405235,-1.7333877
0.798,3.2930536,-14.508435,-7.508234,0.37976938,-0.015907526,-1.6180451
0.8,2.6930943,-14.289512,-7.5094934,0.38744506,-0.07532954,-1.501127
0.802,2.0663888,-14.05765,-7.4960403,0.3948142,-0.13454765,-1.3850751
0.804,1.4218576,-13.817817,-7.4672985,0.4027148,-0.1933929,-1.2724705
0.806,0.76918244,-13.575217,-7.423273,0.4119132,-0.2518381,-1.1659998
0.808,0.11825657,-13.335136,-7.3636436,0.42310137,-0.30992496,-1.0684476
0.81,-0.52060795,-13.103163,-7.287922,0.4368778,-0.367634,-0.98250127
0.812,-1.1372683,-12.884619,-7.1952944,0.45363486,-0.42494342,-0.91051173
0.814,-1.7223072,-12.684429,-7.08456,0.473534,-0.48196095,-0.85437155
0.816,-2.2664413,-12.507263,-6.9548264,0.49655128,-0.53884494,-0.8154117
0.818,-2.7610981,-12.357186,-6.8055205,0.52249426,-0.59577537,-0.79433566
0.82,-3.1984038,-12.2375965,-6.636679,0.5510159,-0.6529915,-0.7911546
0.822,-3.5708506,-12.151476,-6.448438,0.5816561,-0.710757,-0.80517054
0.824,-3.8720584,-12.101254,-6.2409277,0.613883,-0.76931095,-0.83502245
0.826,-4.097429,-12.08819,-6.01396,0.6471555,-0.82885754,-0.8788085
0.828,-4.2431755,-12.112889,-5.766629,0.68096024,-0.889488,-0.93423396
0.83,-4.306672,-12.17532,-5.4991617,0.71483386,-0.9511131,-0.9987468
0.832,-4.287244,-12.274779,-5.212597,0.7483814,-1.013464,-1.0696918
0.834,-4.185244,-12.409811,-4.907807,0.78127515,-1.076013,-1.1444736
0.836,-4.001886,-12.5782585,-4.586726,0.8132737,-1.1379987,-1.2206504
0.838,-3.7401407,-12.777422,-4.2531576,0.8441938,-1.1984907,-1.2960653
0.84,-3.4046988,-13.00337,-3.9102025,0.8739465,-1.2563393,-1.3688743
0.842,-3.001361,-13.251713,-3.5590174,0.9025141,-1.3102154,-1.437527
0.844,-2.5354426,-13.518407,-3.2019331,0.92995495,-1.3586982,-1.50074
0.846,-2.014057,-13.799062,-2.8434086,0.95639634,-1.4003373,-1.557534
0.848,-1.4452806,-14.0885315,-2.4877825,0.9820441,-1.4337432,-1.6071873
0.85,-0.83827114,-14.381079,-2.1399093,1.0071619,-1.4576819,-1.6491668
0.852,-0.20216918,-14.671444,-1.8026683,1.0320294,-1.4712034,-1.6830866
0.854,0.45273852,-14.954025,-1.479121,1.0569007,-1.4736636,-1.7086079
0.856,1.1161196,-15.22337,-1.1722887,1.0818628,-1.465059,-1.7253875
0.858,1.7786345,-15.474344,-0.8854089,1.1069307,-1.4457082,-1.7331566
0.86,2.4315124,-15.7022505,-0.6205969,1.1319723,-1.4163606,-1.7317114
0.862,3.0659127,-15.902649,-0.37837744,1.1566193,-1.3783321,-1.7208582
0.864,3.672753,-16.071531,-0.15905142,1.180292,-1.3334911,-1.7005247
0.866,4.243576,-16.20528,0.03892517,1.2023191,-1.283983,-1.6708106
0.868,4.7697535,-16.300257,0.21721077,1.2218943,-1.2320493,-1.6319772
0.87,5.2438583,-16.353498,0.37767267,1.2380314,-1.1801038,-1.5844746
0.872,5.660452,-16.362562,0.5224886,1.2496262,-1.130471,-1.5289388
0.874,6.0157313,-16.32579,0.6544118,1.2555621,-1.085105,-1.4661801
0.876,6.3068995,-16.24271,0.7777786,1.254695,-1.0457909,-1.3971623
0.878,6.531928,-16.11272,0.89783764,1.2458854,-1.0140985,-1.3229969
0.88,6.690136,-15.936115,1.020338,1.2280926,-0.99128574,-1.2449161
0.882,6.781336,-15.71331,1.1499767,1.2003722,-0.9783503,-1.164304
0.884,6.8068624,-15.445668,1.2946978,1.1619633,-0.9759798,-1.0826596
0.886,6.767708,-15.133996,1.4602385,1.1122131,-0.9846766,-1.0014974
0.888,6.6688385,-14.7803955,1.650815,1.0505792,-1.0048606,-0.92228705
0.89,6.51652,-14.387165,1.8706684,0.9766171,-1.036925,-0.8464406
0.892,6.3175616,-13.956738,2.125804,0.890025,-1.0810695,-0.7751975
0.894,6.078962,-13.491088,2.421492,0.79055244,-1.1374326,-0.7095636
0.896,5.8085318,-12.9924755,2.762484,0.6779436,-1.2061565,-0.65021884
0.898,5.5151367,-12.463361,3.1531484,0.5519491,-1.2872138,-0.5974445
0.9,5.2081995,-11.906049,3.596851,0.4122721,-1.3804747,-0.55106956
0.902,4.8976135,-11.322893,4.0959415,0.25856692,-1.4856479,-0.5105425
0.904,4.593301,-10.715749,4.652287,0.090483665,-1.6021918,-0.4750005
0.906,4.3052244,-10.086129,5.266453,-0.09229094,-1.729232,-0.44334078
0.908,4.0421844,-9.434935,5.9379106,-0.2899496,-1.8653735,-0.41431805
0.91,3.8124642,-8.762543,6.6658044,-0.5025261,-2.0086346,-0.38666916
0.912,3.623993,-8.0687895,7.4480515,-0.72982675,-2.156528,-0.3591966
0.914,3.4839406,-7.3534846,8.282043,-0.9713961,-2.3059769,-0.33083677
0.916,3.3981924,-6.6159716,9.16478,-1.2264482,-2.4532712,-0.3007118
0.918,3.3710945,-5.8550863,10.091523,-1.4938663,-2.5941868,-0.26818115
0.92,3.405324,-5.0689106,11.056023,-1.7722373,-2.7241683,-0.23286474
0.922,3.5019917,-4.2557535,12.0518,-2.0598557,-2.8384123,-0.19457507
0.924,3.660635,-3.4135985,13.069741,-2.354794,-2.9320145,-0.15329212
0.926,3.8787928,-2.539724,14.101259,-2.6550217,-3.0002837,-0.10920608
0.928,4.15292,-1.6315885,15.136558,-2.9584904,-3.038931,-0.06275123
0.93,4.4778676,-0.6868465,16.165272,-3.2631483,-3.0439901,-0.014561355
0.932,4.8469315,0.29648018,17.176346,-3.5670378,-3.0120566,0.034614086
0.934,5.2526073,1.3197751,18.158478,-3.868464,-2.9405553,0.08392781
0.936,5.6870203,2.3838406,19.099792,-4.1660223,-2.8278885,0.13248038
0.938,6.1407175,3.4896455,19.987776,-4.458653,-2.673612,0.17923805
0.94,6.6036654,4.637608,20.811558,-4.745524,-2.4783907,0.22306255
0.942,7.066208,5.8271775,21.561337,-5.026058,-2.244085,0.262749
0.944,7.5180736,7.057443,22.227135,-5.2999024,-1.9737526,0.29707438
0.946,7.949588,8.3262005,22.800224,-5.5668807,-1.6716676,0.32478833
0.948,8.351679,9.630697,23.273743,-5.8268647,-1.3430262,0.3445874
0.95,8.71661,10.966825,23.64107,-6.0797186,-0.9936579,0.35514623
0.952,9.037983,12.329729,23.895145,-6.325283,-0.62986326,0.3551017
0.954,9.3090515,13.714501,24.032524,-6.5633197,-0.25797164,0.34325325
0.956,9.524868,15.115728,24.053106,-6.7935963,0.11588347,0.31862247
0.958,9.682206,16.526802,23.956808,-7.0159583,0.48589945,0.2805121
0.96,9.779209,17.940485,23.745466,-7.230343,0.8468101,0.22852981
0.962,9.814651,19.349997,23.421028,-7.4368353,1.1938857,0.16261351
0.964,9.789825,20.747719,22.98823,-7.6356773,1.5230844,0.08313584
0.966,9.706863,22.12609,22.453129,-7.8272943,1.8311396,-0.0090920925
0.968,9.569344,23.477617,21.823969,-8.012264,2.1155062,-0.11288047
0.97,9.381648,24.794968,21.109024,-8.19129,2.3743129,-0.22682595
0.972,9.149385,26.071253,20.316605,-8.365171,2.6064224,-0.3493948
0.974,8.879481,27.299528,19.4572,-8.534732,2.8114119,-0.4789672
0.976,8.57875,28.47371,18.541363,-8.700782,2.9894848,-0.61398816
0.978,8.255143,29.587822,17.58073,-8.864077,3.1414335,-0.7529931
0.98,7.916155,30.637407,16.587757,-9.025268,3.26853,-0.89465284
0.982,7.5678453,31.61906,15.575094,-9.184864,3.3724306,-1.0378044
0.984,7.2161875,32.530613,14.554247,-9.343209,3.455094,-1.1814687
0.986,6.8665657,33.370895,13.535246,-9.500467,3.5186448,-1.3247955
0.988,6.52429,34.138657,12.527125,-9.656564,3.5652714,-1.4670117
0.99,6.1940994,34.83379,11.538213,-9.811237,3.5971131,-1.6074126
0.992,5.879799,35.45701,10.576149,-9.964024,3.6162271,-1.745323
0.994,5.584943,36.00965,9.647366,-10.114293,3.6245146,-1.8801544
0.996,5.3101416,36.494434,8.758974,-10.2612705,3.6236482,-2.011394
0.998,5.056632,36.913116,7.915348,-10.40406,3.61512,-2.1385975
1,4.823283,37.269386,7.120302,-10.541685,3.6001387,-2.261449
1.002,4.6086597,37.567154,6.3752327,-10.673163,3.5796907,-2.3797526
1.004,4.41014,37.81023,5.6802273,-10.797529,3.5545442,-2.4934418
1.006,4.224574,38.003143,5.034567,-10.9138775,3.5253718,-2.6025136
1.008,4.0483856,38.150597,4.436207,-11.021422,3.492745,-2.707108
1.01,3.8774934,38.257534,3.881731,-11.119528,3.4571815,-2.807393
1.012,3.7078414,38.328938,3.3670073,-11.207706,3.419232,-2.9035552
1.014,3.5346036,38.369724,2.8872452,-11.285694,3.3794727,-2.9957905
1.016,3.3542314,38.384483,2.4371147,-11.353405,3.3385553,-3.0843053
1.018,3.1632404,38.37788,2.0101547,-11.410958,3.297196,-3.16934
1.02,2.9580932,38.354607,1.6004515,-11.458647,3.2562213,-3.2511613
1.022,2.7361307,38.318893,1.2025528,-11.49686,3.2165608,-3.3300364
1.024,2.495019,38.2749,0.8105612,-11.526091,3.1792326,-3.4061959
1.026,2.2334318,38.22653,0.41863728,-11.546809,3.1454544,-3.4799297
1.028,1.9512849,38.17722,0.021237373,-11.559537,3.1166172,-3.5514412
1.03,1.6493282,38.12989,-0.3865323,-11.564838,3.0941997,-3.620849
1.032,1.3296497,38.087112,-0.80984974,-11.563291,3.0798113,-3.688215
1.034,0.99454546,38.050735,-1.251636,-11.555482,3.0751667,-3.75356
1.036,0.64721465,38.021904,-1.7152505,-11.542,3.0820303,-3.8168478
1.038,0.29102206,38.001377,-2.2025,-11.523378,3.1022441,-3.8779752
1.04,-0.06974101,37.989594,-2.7133696,-11.500122,3.1376934,-3.9367676
1.042,-0.4307282,37.98769,-3.2465048,-11.472594,3.1902866,-3.9929922
1.044,-0.78869766,37.99539,-3.8067112,-11.440984,3.2618623,-4.0463486
1.046,-1.1376046,38.01047,-4.3941717,-11.405277,3.3541288,-4.0965185
1.048,-1.4728715,38.0311,-5.00404,-11.365257,3.468579,-4.143186
1.05,-1.790597,38.056587,-5.631379,-11.3205185,3.6064086,-4.186102
1.052,-2.0864887,38.08508,-6.273206,-11.270482,3.7683268,-4.225102
1.054,-2.3555477,38.11304,-6.9266787,-11.214454,3.9544582,-4.26013
1.056,-2.5937424,38.137863,-7.5896344,-11.151643,4.1642056,-4.2912893
1.058,-2.797535,38.15711,-8.259327,-11.081217,4.3961473,-4.3189077
1.06,-2.9639373,38.167828,-8.930851,-11.00238,4.648014,-4.3435946
1.062,-3.0924335,38.166718,-9.598926,-10.9143505,4.916689,-4.366233
1.064,-3.18296,38.150246,-10.259857,-10.816347,5.1984377,-4.387912
1.066,-3.2350178,38.11523,-10.911625,-10.707575,5.4890404,-4.409937
1.068,-3.2491274,38.05917,-11.551556,-10.587219,5.783966,-4.433766
1.07,-3.2260456,37.97922,-12.177049,-10.454435,6.0784845,-4.4609756
1.072,-3.167472,37.872444,-12.786125,-10.308331,6.368057,-4.4932137
1.074,-3.0759802,37.736298,-13.377353,-10.148046,6.6482797,-4.532022
1.076,-2.954255,37.568684,-13.949966,-9.972986,6.9146357,-4.5788636
1.078,-2.8065062,37.367702,-14.504257,-9.782703,7.163075,-4.6350765
1.08,-2.6368456,37.13181,-15.040597,-9.576995,7.3900785,-4.701664
1.082,-2.4495144,36.859856,-15.56021,-9.35595,7.592583,-4.779273
1.084,-2.249219,36.551674,-16.065271,-9.11991,7.768039,-4.8679953
1.086,-2.0402288,36.206944,-16.558365,-8.869482,7.914438,-4.9673185
1.088,-1.8271227,35.825912,-17.041723,-8.60565,8.0304165,-5.076193
1.09,-1.6137047,35.40895,-17.518036,-8.329816,8.115368,-5.1931043
1.092,-1.4034481,34.95691,-17.989845,-8.043694,8.169483,-5.316118
1.094,-1.1998272,34.47095,-18.45906,-7.7491884,8.193709,-5.442789
1.096,-1.0054054,33.952713,-18.927979,-7.4483237,8.189578,-5.5703597
1.098,-0.82258034,33.404587,-19.398308,-7.1431465,8.159106,-5.6960263
1.1,-0.6533241,32.829037,-19.87135,-6.835671,8.104553,-5.8171253
1.102,-0.49956322,32.22902,-20.348516,-6.5277324,8.02828,-5.9312463
1.104,-0.36268234,31.607765,-20.830315,-6.2208962,7.93262,-6.036405
1.106,-0.241539,30.96756,-21.318045,-5.9163866,7.8197374,-6.1311474
1.108,-0.13647461,30.312523,-21.80996,-5.6150694,7.6915426,-6.2145753
1.11,-0.04570198,29.645248,-22.30513,-5.317543,7.5496244,-6.2862577
1.112,0.032398224,28.968567,-22.801476,-5.024193,7.3952694,-6.346163
1.114,0.0999527,28.285545,-23.295406,-4.735262,7.2294,-6.394565
1.116,0.16004562,27.59834,-23.783632,-4.4509587,7.052618,-6.431939
1.118,0.21584511,26.90936,-24.262562,-4.171523,6.8651953,-6.458853
1.12,0.27042007,26.221062,-24.729103,-3.8972857,6.667087,-6.475856
1.122,0.3282547,25.534813,-25.181175,-3.6286497,6.4579864,-6.483449
1.124,0.3943119,24.85225,-25.613712,-3.3661342,6.237379,-6.4820685
1.126,0.4719925,24.175072,-26.021423,-3.1103752,6.0044813,-6.472089
1.128,0.56528664,23.504591,-26.399813,-2.8619883,5.7584524,-6.453932
1.13,0.6783495,22.841545,-26.745796,-2.6215003,5.498731,-6.4279776
1.132,0.81417084,22.186747,-27.057178,-2.38949,5.2245936,-6.394611
1.134,0.97574997,21.54113,-27.332088,-2.1664903,4.9353104,-6.354368
1.136,1.1650181,20.905954,-27.568573,-1.9529338,4.630543,-6.307974
1.138,1.382721,20.28232,-27.764416,-1.7492001,4.310376,-6.2562695
1.14,1.6283875,19.67142,-27.917904,-1.5555904,3.9751909,-6.200122
1.142,1.9009066,19.074795,-28.028471,-1.3722081,3.6256633,-6.1404247
1.144,2.198658,18.494047,-28.096916,-1.1989062,3.262641,-6.0781083
1.146,2.5191545,17.930765,-28.124388,-1.0354372,2.8871083,-6.0141406
1.148,2.8592281,17.386703,-28.112404,-0.8815079,2.5002098,-5.949562
1.15,3.2145214,16.86354,-28.063267,-0.7367501,2.1032825,-5.8853025
1.152,3.5804548,16.362015,-27.979797,-0.6007668,1.6977156,-5.822039
1.154,3.9526072,15.88402,-27.85992,-0.47309995,1.2849251,-5.7602606
1.156,4.32365,15.431932,-27.707142,-0.35325813,0.8664886,-5.700259
1.158,4.688101,15.006411,-27.528387,-0.24080521,0.44407976,-5.6421328
1.16,5.0406356,14.60704,-27.328901,-0.13535684,0.019436002,-5.58588
1.162,5.3750806,14.234815,-27.110878,-0.03655672,-0.40559787,-5.5314393
1.164,5.6851993,13.891462,-26.875835,0.055923045,-0.82905793,-5.4787445
1.166,5.9658413,13.57723,-26.625011,0.1424145,-1.2488395,-5.4277887
1.168,6.2128263,13.291407,-26.360283,0.22326164,-1.6626902,-5.3786135
1.17,6.422604,13.033773,-26.085777,0.29883507,-2.0683439,-5.3312607
1.172,6.59355,12.804357,-25.805023,0.36950904,-2.4636128,-5.285783
1.174,6.7245893,12.60293,-25.520195,0.43568003,-2.8464673,-5.2422624
1.176,6.8147397,12.428357,-25.23208,0.49777788,-3.2150931,-5.2007556
1.178,6.8643074,12.278805,-24.941574,0.55627656,-3.5679874,-5.161328
1.18,6.873775,12.153399,-24.650389,0.6116547,-3.903995,-5.124003
1.182,6.845327,12.051186,-24.36036,0.6643832,-4.222348,-5.0887356
1.184,6.781516,11.971453,-24.07321,0.71486413,-4.5226912,-5.0554304
1.186,6.6858582,11.913362,-23.790022,0.7634442,-4.8050547,-5.023982
1.188,6.56276,11.875926,-23.511566,0.81036866,-5.0697546,-4.9942656
1.19,6.4168997,11.858433,-23.238604,0.8558084,-5.3173203,-4.9661055
1.192,6.2531066,11.860056,-22.971233,0.89982235,-5.548455,-4.939352
1.194,6.0765696,11.880138,-22.709885,0.94239366,-5.7639647,-4.9138584
1.196,5.892458,11.918234,-22.454876,0.98345006,-5.964674,-4.8894553
1.198,5.7057724,11.97394,-22.20625,1.0228636,-6.151366,-4.8660483
1.2,5.521054,12.047179,-21.96399,1.0605017,-6.324777,-4.8436103
1.202,5.342939,12.137833,-21.728558,1.0962263,-6.4855976,-4.822155
1.204,5.1754217,12.245464,-21.499283,1.1298897,-6.634465,-4.801787
1.206,5.0222216,12.3696375,-21.27547,1.1613826,-6.7719555,-4.7826977
1.208,4.8865304,12.509701,-21.056595,1.1905739,-6.898646,-4.765136
1.21,4.7708163,12.665226,-20.841621,1.2173216,-7.015154,-4.7494597
1.212,4.677555,12.835385,-20.629536,1.2415328,-7.1219964,-4.7361255
1.214,4.6077476,13.019543,-20.41926,1.2631602,-7.21957,-4.7256207
1.216,4.5616026,13.216885,-20.209373,1.2821931,-7.3081827,-4.718515
1.218,4.538339,13.42634,-19.99866,1.2986978,-7.388049,-4.715423
1.22,4.536507,13.646342,-19.785395,1.3127801,-7.45928,-4.716944
1.222,4.554018,13.875261,-19.568031,1.3245637,-7.521884,-4.7236595
1.224,4.588707,14.111005,-19.345776,1.3341956,-7.5757246,-4.7361445
1.226,4.6373606,14.351742,-19.117107,1.3418474,-7.620583,-4.754884
1.228,4.696282,14.595222,-18.880772,1.3476787,-7.6561937,-4.7801695
1.23,4.761761,14.838862,-18.63463,1.3518448,-7.682246,-4.81213
1.232,4.8286533,15.080786,-18.376474,1.3544176,-7.6984997,-4.8507586
1.234,4.8920784,15.318283,-18.107014,1.3554504,-7.704749,-4.8959517
1.236,4.9477963,15.548749,-17.826797,1.3549793,-7.700781,-4.9474688
1.238,4.9908934,15.76996,-17.53513,1.3530369,-7.6863804,-5.0049534
1.24,5.016754,15.980092,-17.231068,1.3496327,-7.6613393,-5.067943
1.242,5.021867,16.17726,-16.91375,1.3447793,-7.6254463,-5.135962
1.244,5.0030265,16.35947,-16.582836,1.3384695,-7.578449,-5.208541
1.246,4.958109,16.524727,-16.23904,1.3306906,-7.520014,-5.285206
1.248,4.885714,16.671612,-15.883873,1.321413,-7.4497347,-5.3655505
1.25,4.785975,16.79934,-15.5190525,1.310542,-7.3671103,-5.4492183
1.252,4.6591067,16.90755,-15.146353,1.297949,-7.2715173,-5.535937
1.254,4.5064025,16.995914,-14.767757,1.2834932,-7.1621904,-5.6255245
1.256,4.3292,17.064661,-14.385147,1.2670287,-7.038225,-5.717866
1.258,4.1303267,17.11416,-14.001,1.2484014,-6.898583,-5.812901
1.26,3.91324,17.14521,-13.618314,1.2274935,-6.74216,-5.910633
1.262,3.6815422,17.159204,-13.239288,1.2042335,-6.567812,-6.0112057
1.264,3.440287,17.157665,-12.865845,1.1786064,-6.3744106,-6.1148615
1.266,3.1945174,17.142351,-12.499766,1.1506356,-6.160928,-6.221935
1.268,2.9495444,17.115572,-12.142985,1.1203705,-5.9263973,-6.332848
1.27,2.7109463,17.07983,-11.797467,1.0879396,-5.670016,-6.448077
1.272,2.4845555,17.037804,-11.465317,1.0535146,-5.39119,-6.5681562
1.274,2.2764552,16.992495,-11.148376,1.0173236,-5.0895743,-6.693684
1.276,2.0925171,16.947397,-10.848305,0.97965384,-4.7651014,-6.825216
1.278,1.9386501,16.90623,-10.566425,0.9408134,-4.4179864,-6.9632087
1.28,1.8205833,16.873087,-10.303419,0.90116286,-4.048696,-7.107982
1.282,1.7440643,16.851753,-10.05991,0.8610935,-3.6579583,-7.2597795
1.284,1.7142901,16.846006,-9.8359375,0.821005,-3.2467475,-7.418731
1.286,1.7362475,16.8596,-9.631835,0.7813432,-2.8161738,-7.5848236
1.288,1.8141818,16.896454,-9.447981,0.742506,-2.3675103,-7.757899
1.29,1.9527497,16.959915,-9.284607,0.70483404,-1.9021063,-7.937744
1.292,2.1545281,17.05368,-9.141896,0.6686313,-1.4213811,-8.124053
1.294,2.4229064,17.181005,-9.019163,0.63416135,-0.9267664,-8.316426
1.296,2.759973,17.344809,-8.9169445,0.6016612,-0.41979766,-8.514368
1.298,3.1678615,17.548134,-8.834551,0.57137156,0.09789109,-8.717273
1.3,3.6480427,17.7933,-8.771633,0.5435395,0.6244881,-8.92445
1.302,4.20195,18.081944,-8.728879,0.51842284,1.1580145,-9.135146
1.304,4.8298736,18.415314,-8.705714,0.49633956,1.6963542,-9.348587
1.306,5.531478,18.794657,-8.701515,0.47763205,2.2373266,-9.564009
1.308,6.3061323,19.220959,-8.716472,0.46267557,2.7787764,-9.780713
1.31,7.1522837,19.694319,-8.750165,0.4518659,3.318734,-9.998045
1.312,8.068178,20.214218,-8.80258,0.44558597,3.8555706,-10.215399
1.314,9.051409,20.780445,-8.874821,0.44420314,4.38814,-10.432148
1.316,10.099093,21.392273,-8.967941,0.4480276,4.9158134,-10.647642
1.318,11.207672,22.048744,-9.082733,0.457366,5.4385147,-10.861122
1.32,12.372786,22.748547,-9.219954,0.4724822,5.9567566,-11.071747
1.322,13.589039,23.490108,-9.380057,0.4936185,6.471441,-11.278551
1.324,14.851033,24.27124,-9.563639,0.52099514,6.9838934,-11.48045
1.326,16.152727,25.089586,-9.7712555,0.5548372,7.4955435,-11.676236
1.328,17.487522,25.942303,-10.003628,0.59531784,8.007765,-11.864643
1.33,18.848164,26.826649,-10.261245,0.64264154,8.522031,-12.044386
1.332,20.227118,27.739227,-10.543779,0.6970248,9.03964,-12.214191
1.334,21.616602,28.676695,-10.850903,0.75865746,9.561507,-12.372766
1.336,23.00913,29.635036,-11.181942,0.827723,10.088273,-12.518745
1.338,24.397171,30.609833,-11.535349,0.90441465,10.620131,-12.650785
1.34,25.77388,31.596273,-11.9095,0.98883057,11.156825,-12.767639
1.342,27.133041,32.589237,-12.302498,1.0810132,11.697649,-12.868048
1.344,28.46869,33.583363,-12.7116375,1.1809392,12.24147,-12.950827
1.346,29.776287,34.57268,-13.134157,1.2884588,12.786903,-13.014838
1.348,31.052553,35.551132,-13.566954,1.4033442,13.332354,-13.058969
1.35,32.294357,36.512566,-14.006678,1.5252304,13.876276,-13.082206
1.352,33.499863,37.450863,-14.449591,1.6536574,14.41729,-13.083603
1.354,34.668373,38.35999,-14.891252,1.7880669,14.954281,-13.062246
1.356,35.800102,39.234055,-15.327444,1.9277401,15.4864235,-13.017289
1.358,36.896904,40.06715,-15.753246,2.071794,16.013086,-12.947888
1.36,37.960808,40.853924,-16.163584,2.219119,16.533794,-12.853367
1.362,38.99512,41.589317,-16.553291,2.3683977,17.048082,-12.733157
1.364,40.004166,42.268867,-16.917105,2.5181327,17.55543,-12.586961
1.366,40.99393,42.888424,-17.250858,2.6666422,18.055058,-12.414759
1.368,41.970535,43.445126,-17.55088,2.8121576,18.545977,-12.2169895
1.37,42.940548,43.936756,-17.81394,2.952857,19.026903,-11.994519
1.372,43.911976,44.36116,-18.0378,3.0869122,19.496307,-11.748714
1.374,44.89196,44.717175,-18.220352,3.2125392,19.952482,-11.481381
1.376,45.888412,45.00452,-18.359781,3.3280525,20.393707,-11.19463
1.378,46.910637,45.223167,-18.45519,3.4318805,20.818289,-10.890788
1.38,47.966995,45.37407,-18.50601,3.5225997,21.224783,-10.572209
1.382,49.064697,45.45909,-18.51212,3.5989404,21.612024,-10.241211
1.384,50.21099,45.48059,-18.474413,3.6597593,21.978867,-9.899916
1.386,51.413486,45.440636,-18.394833,3.7040553,22.324423,-9.550199
1.388,52.679302,45.34211,-18.276361,3.7310047,22.648106,-9.193651
1.39,54.015636,45.18794,-18.122898,3.7398932,22.949394,-8.831577
1.392,55.428722,44.981857,-17.938698,3.7301557,23.227896,-8.464909
1.394,56.925167,44.72768,-17.728725,3.701361,23.48327,-8.09431
1.396,58.510788,44.429386,-17.498009,3.6531591,23.715197,-7.7202315
1.398,60.190804,44.090714,-17.251064,3.585182,23.923433,-7.3428984
1.4,61.970337,43.715736,-16.991842,3.4970593,24.107826,-6.962443
1.402,63.85516,43.308895,-16.724459,3.388319,24.268274,-6.578827
1.404,65.85104,42.87363,-16.454714,3.2583976,24.404781,-6.191868
1.406,67.963066,42.41497,-16.18768,3.1065738,24.517582,-5.8013067
1.408,70.195076,41.938812,-15.929689,2.9320393,24.60741,-5.406934
1.41,72.55278,41.45101,-15.685682,2.7338505,24.675621,-5.0085297
1.412,75.04018,40.959866,-15.460127,2.5109065,24.72407,-4.6059084
1.414,77.66182,40.474567,-15.256886,2.2620559,24.755348,-4.1990547
1.416,80.423515,40.005196,-15.079872,1.9860225,24.772707,-3.7880461
1.418,83.328415,39.564964,-14.93811,1.6814241,24.779945,-3.3728917
1.42,86.37863,39.175327,-14.847137,1.3467541,24.781275,-2.9534392
1.422,89.57773,38.85223,-14.813141,0.9804158,24.781105,-2.5294056
1.424,92.92522,38.59723,-14.828125,0.5808501,24.783958,-2.1003659
1.426,96.41923,38.422432,-14.892586,0.14663696,24.794207,-1.6658151
1.428,100.05221,38.359123,-15.004971,-0.32350492,24.815632,-1.2251561
1.43,103.81685,38.44451,-15.160301,-0.8306892,24.85122,-0.7775786
1.432,107.70643,38.717567,-15.357616,-1.3757615,24.903103,-0.32206202
1.434,111.71777,39.20369,-15.603455,-1.9592474,24.972357,0.14265001
1.436,115.838585,39.94522,-15.908913,-2.5812745,25.058542,0.6180164
1.438,120.05499,40.98478,-16.27895,-3.241542,25.159716,1.105626
1.44,124.337814,42.37279,-16.71685,-3.9394388,25.272345,1.6071899
1.442,128.67993,44.118706,-17.234604,-4.673967,25.391554,2.124441
1.444,133.0678,46.251545,-17.838959,-5.443711,25.511353,2.6590788
1.446,137.48474,48.82832,-18.509449,-6.2469196,25.624552,3.2127085
1.448,141.93372,51.84366,-19.210052,-7.0812416,25.723413,3.7864566
1.45,146.42255,55.33741,-19.997866,-7.944314,25.798267,4.3801823
1.452,150.96811,59.332413,-20.93371,-8.83503,25.835678,4.9929857
1.454,155.4695,63.850403,-21.974976,-9.753308,25.820343,5.6242623
1.456,159.91179,68.95018,-23.103722,-10.698788,25.736221,6.2733316
1.458,164.30228,74.71643,-24.280724,-11.671974,25.563698,6.938896
1.46,168.60785,81.06946,-25.487923,-12.674754,25.280361,7.619178
1.462,172.81769,87.97189,-26.658447,-13.710108,24.861567,8.312351
1.464,176.93445,95.39449,-27.758623,-14.78139,24.280155,9.0183735
1.466,180.96396,103.27701,-28.720009,-15.892471,23.505598,9.738626
1.468,184.93333,111.58801,-29.547398,-17.046635,22.504854,10.475906
1.47,188.8739,120.26575,-30.214912,-18.24529,21.246042,11.235166
1.472,192.8191,129.21565,-30.659966,-19.486034,19.701536,12.027046
1.474,196.81528,138.35222,-30.856487,-20.761543,17.84814,12.868208
1.476,200.90907,147.56213,-30.747496,-22.06137,15.6632805,13.780288
1.478,205.14772,156.71555,-30.262459,-23.370575,13.131458,14.794685
1.48,209.49329,165.69727,-29.3236,-24.662745,10.260851,15.92039
1.482,213.89645,174.3801,-27.851246,-25.910759,7.056435,17.177933
1.484,218.22,182.44647,-25.88,-27.090557,3.5347366,18.584654
1.486,222.7828,189.62938,-23.334759,-28.197495,-0.27288628,20.151278
1.488,227.46387,196.01892,-20.073315,-29.244453,-4.336809,21.870193
1.49,232.22237,201.50737,-16.07952,-30.240631,-8.636487,23.71253
1.492,237.00937,205.92729,-11.263416,-31.182762,-13.138174,25.640965
1.494,241.76358,209.14995,-5.580444,-32.066956,-17.760159,27.603004
1.496,246.42175,211.06625,0.9779577,-32.92266,-22.423014,29.501488
1.498,250.87326,211.60283,8.416495,-33.795025,-27.059282,31.24371
1.5,254.97888,210.72502,16.71959,-34.716366,-31.602165,32.71221
1.502,258.58298,208.44235,25.842367,-35.703793,-35.987347,33.77009
1.504,261.52173,204.80876,35.71163,-36.75179,-40.156994,34.27541
1.506,263.6534,199.89256,46.228165,-37.82092,-44.06159,34.092777
1.508,264.8584,193.76714,57.25741,-38.833027,-47.657257,33.098194
1.51,265.03754,186.51678,68.630165,-39.672794,-50.90354,31.19239
1.512,264.07578,178.29166,80.162254,-40.197483,-53.750546,28.310753
1.514,261.87543,169.2706,91.67821,-40.24392,-56.120033,24.490543
1.516,258.38538,159.63354,102.96352,-39.652897,-57.95564,19.856863
1.518,253.59724,149.56197,113.77373,-38.300095,-59.19494,14.515083
1.52,247.52629,139.24458,123.87944,-36.10929,-59.765297,8.625174
1.522,240.22865,128.86966,133.07623,-33.068077,-59.604225,2.4149094
1.524,231.80035,118.627975,141.17245,-29.235096,-58.66555,-3.8470001
1.526,222.3718,108.71495,147.99951,-24.731346,-56.924164,-9.864531
1.528,212.10594,99.32977,153.42099,-19.730347,-54.38045,-15.335077
1.53,201.18549,90.64285,157.3332,-14.442304,-51.062366,-19.976639
1.532,189.80208,82.797,159.65907,-9.094919,-47.03304,-23.559818
1.534,178.15698,75.917274,160.35219,-3.9140835,-42.394573,-25.911829
1.536,166.44965,70.08701,159.4213,0.9037552,-37.257275,-26.973955
1.538,154.87488,65.34721,156.9196,5.198557,-31.756763,-26.787857
1.54,143.6108,61.713486,152.94107,8.858744,-26.05061,-25.490429
1.542,132.81635,59.177498,147.62067,11.818164,-20.29609,-23.296875
1.544,122.62412,57.71958,141.12662,14.0429535,-14.641651,-20.484522
1.546,113.148705,57.27796,133.64821,15.536252,-9.239527,-17.369484
1.548,104.47462,57.772102,125.37897,16.352787,-4.2526493,-14.256497
1.55,96.665855,59.094635,116.51947,16.61196,0.20763302,-11.389915
1.552,89.73269,61.15404,107.27879,16.456377,4.075557,-8.977397
1.554,83.659454,63.823402,97.845856,16.022667,7.3108416,-7.1379647
1.556,78.421616,66.93845,88.37613,15.444704,9.900386,-5.9123487
1.558,73.95033,70.38747,79.0116,14.845024,11.861762,-5.28556
1.56,70.169785,74.00643,69.95316,14.321808,13.241029,-5.2020226
1.562,66.99281,77.6569,61.3518,13.942769,14.105527,-5.5720735
1.564,64.42593,81.20698,53.2337,13.743418,14.54013,-6.288435
1.566,62.36624,84.50704,45.64608,13.730957,14.636222,-7.238504
1.568,60.69937,87.41797,38.60623,13.883301,14.4782295,-8.348567
1.57,59.35797,89.96544,32.1426,14.162976,14.17902,-9.541405
1.572,58.25613,92.10919,26.230032,14.531044,13.829772,-10.670978
1.574,57.309113,93.801575,20.873888,14.945794,13.494365,-11.638037
1.576,56.44595,95.02708,16.042076,15.370714,13.22114,-12.393002
1.578,55.595016,95.74736,11.763268,15.779029,13.036812,-12.908786
1.58,54.703358,95.96435,8.014236,16.150093,12.94666,-13.18223
1.582,53.73413,95.71097,4.7365866,16.47273,12.940012,-13.226862
1.584,52.654102,95.00876,1.9088545,16.744894,12.996231,-13.066083
1.586,51.44445,93.90497,-0.52135086,16.967308,13.087321,-12.730245
1.588,50.09545,92.45532,-2.6092415,17.138866,13.180633,-12.253057
1.59,48.66884,90.69776,-4.403962,17.257736,13.245176,-11.668422
1.592,47.201706,88.68495,-5.945163,17.324413,13.2562065,-11.008497
1.594,45.76873,86.61486,-7.17731,17.341127,13.199316,-10.3006
1.596,44.04003,84.5697,-8.171287,17.307718,13.068329,-9.561875
1.598,42.169342,82.32696,-9.034872,17.223171,12.861252,-8.798353
1.6,40.179726,79.940414,-9.742495,17.089468,12.580917,-8.011342
1.602,38.084053,77.52093,-10.349591,16.912426,12.238102,-7.202781
1.604,35.891792,75.13222,-10.865121,16.699503,11.848854,-6.3755174
1.606,33.603745,72.82344,-11.279877,16.458038,11.430142,-5.5337
1.608,31.255161,70.62103,-11.603867,16.194687,10.998373,-4.6831336
1.61,28.886612,68.53562,-11.846715,15.914869,10.567684,-3.8294072
1.612,26.533848,66.56566,-12.013294,15.623148,10.148686,-2.9750333
1.614,24.223757,64.70314,-12.107424,15.323568,9.74841,-2.1215882
1.616,21.958122,62.960945,-12.134102,15.019046,9.370121,-1.2734914
1.618,19.728905,61.369328,-12.091953,14.711369,9.01443,-0.4374051
1.62,17.530247,59.95866,-11.97604,14.401642,8.680534,0.37941313
1.622,15.391958,58.71101,-11.79151,14.090556,8.366589,1.1697102
1.624,13.339869,57.608128,-11.565241,13.77864,8.07027,1.9266944
1.626,11.378199,56.64814,-11.293455,13.466513,7.7895746,2.644421
1.628,9.5028,55.835083,-10.958866,13.1550865,7.523414,3.3181338
1.63,7.7196026,55.167194,-10.567728,12.845573,7.2719407,3.9445968
1.632,6.0287743,54.638905,-10.141432,12.539449,7.036357,4.5220203
1.634,4.4256,54.236134,-9.69544,12.238623,6.8187847,5.0499196
1.636,2.903576,53.934673,-9.240601,11.945036,6.621669,5.528572
1.638,1.4569035,53.7014,-8.784506,11.660252,6.446978,5.9589376
1.64,0.083999634,53.519844,-8.329428,11.385782,6.2967844,6.3431787
1.642,-1.2127686,53.390373,-7.8779488,11.122556,6.172695,6.68363
1.644,-2.430399,53.314167,-7.4331417,10.870787,6.074674,6.9825916
1.646,-3.5663862,53.289314,-6.9999676,10.630155,6.00216,7.242604
1.648,-4.61891,53.309334,-6.5866776,10.399794,5.953783,7.466139
1.65,-5.588331,53.364754,-6.2032413,10.17822,5.927083,7.655347
1.652,-6.4785156,53.446285,-5.8575583,9.963483,5.9188833,7.8120775
1.654,-7.294099,53.543373,-5.5539494,9.753319,5.925519,7.9378676
1.656,-8.040545,53.645706,-5.2946424,9.545315,5.9428906,8.033886
1.658,-8.722783,53.74348,-5.0796146,9.3370495,5.966748,8.101078
1.66,-9.344902,53.830105,-4.9098406,9.126298,5.992876,8.140221
1.662,-9.910614,53.901978,-4.7861557,8.911121,6.0172043,8.152029
1.664,-10.416597,53.94931,-4.7024956,8.690045,6.035979,8.137361
1.666,-10.872308,53.968834,-4.653842,8.462157,6.0458922,8.097283
1.668,-11.277095,53.957817,-4.638755,8.227201,6.044193,8.033278
1.67,-11.635666,53.913013,-4.6495857,7.985584,6.0287237,7.9472747
1.672,-11.951084,53.82975,-4.678812,7.7383237,5.997994,7.841779
1.674,-12.226751,53.70501,-4.7215986,7.487049,5.9513006,7.7199516
1.676,-12.467154,53.536644,-4.772616,7.233873,5.888691,7.5855594
1.678,-12.675718,53.323284,-4.827401,6.981214,5.8109636,7.442868
1.68,-12.854654,53.063904,-4.8826566,6.7316484,5.71954,7.296481
1.682,-13.006201,52.75878,-4.93511,6.4876957,5.6163664,7.1511664
1.684,-13.132842,52.409588,-4.9817924,6.2516766,5.5037065,7.0116005
1.686,-13.237021,52.018913,-5.0203953,6.025529,5.383981,6.8821454
1.688,-13.320915,51.590427,-5.049105,5.8106976,5.259506,6.766627
1.69,-13.386582,51.127872,-5.066198,5.608063,5.1323,6.668161
1.692,-13.435817,50.63546,-5.0712476,5.4179745,5.003939,6.5890675
1.694,-13.470914,50.117336,-5.0643044,5.240301,4.8754287,6.5308447
1.696,-13.493797,49.577602,-5.045288,5.074505,4.74715,6.4941783
1.698,-13.505918,49.02021,-5.0141506,4.9197845,4.6188784,6.478994
1.7,-13.50816,48.44969,-4.971339,4.775208,4.4898086,6.4845695
1.702,-13.501011,47.87033,-4.917416,4.6398306,4.3586216,6.5096617
1.704,-13.4848175,47.286377,-4.8530064,4.512801,4.2236867,6.552645
1.706,-13.4596815,46.701824,-4.7786093,4.3934307,4.0831075,6.611559
1.708,-13.42537,46.12008,-4.694676,4.281216,3.9348614,6.6841803
1.71,-13.381914,45.5444,-4.601404,4.175828,3.7769084,6.7681
1.712,-13.32884,44.9772,-4.499119,4.0770826,3.6072214,6.860792
1.714,-13.265717,44.420757,-4.3877816,3.984858,3.4238777,6.9596977
1.716,-13.192414,43.87672,-4.267487,3.899037,3.2249978,7.062269
1.718,-13.108893,43.34621,-4.1379037,3.8194578,3.0088782,7.1659737
1.72,-13.015291,42.829987,-3.99856,3.7458415,2.7740386,7.268353
1.722,-12.911482,42.327637,-3.848494,3.6776862,2.5191429,7.366964
1.724,-12.797396,41.838512,-3.6868,3.614267,2.2430224,7.4594345
1.726,-12.673323,41.36103,-3.5128102,3.5546827,1.9447078,7.543517
1.728,-12.539072,40.892677,-3.325778,3.4978142,1.6235143,7.61715
1.73,-12.394799,40.43054,-3.12422,3.4423451,1.2790252,7.6784134
1.732,-12.240743,39.97081,-2.9065342,3.386788,0.911113,7.7254944
1.734,-12.076991,39.50939,-2.6708908,3.3295116,0.51996887,7.7566533
1.736,-11.90367,39.0419,-2.415082,3.2688272,0.10613671,7.7702284
1.738,-11.721107,38.563778,-2.1367426,3.202972,-0.32950497,7.7646084
1.74,-11.529564,38.070053,-1.8334904,3.130231,-0.785743,7.7382555
1.742,-11.329514,37.555885,-1.502635,3.0490372,-1.260938,7.689706
1.744,-11.121377,37.016373,-1.1414232,2.9580214,-1.7530569,7.6176233
1.746,-10.905479,36.447163,-0.7471733,2.8560581,-2.2596307,7.520925
1.748,-10.68226,35.84436,-0.31742954,2.7423654,-2.7777398,7.3988667
1.75,-10.451988,35.20509,0.14949417,2.6165676,-3.303962,7.251106
1.752,-10.2147255,34.526806,0.6550503,2.4787335,-3.8344035,7.077797
1.754,-9.970583,33.80799,1.2000122,2.329312,-4.3648047,6.8796573
1.756,-9.719688,33.047924,1.7845526,2.169117,-4.890625,6.658039
1.758,-9.46237,32.246975,2.40763,1.9992589,-5.407139,6.4148774
1.76,-9.198954,31.40659,3.067708,1.8210695,-5.9095583,6.1526713
1.762,-8.929858,30.529278,3.762105,1.6359723,-6.39324,5.874377
1.764,-8.655783,29.618523,4.4875717,1.445428,-6.853767,5.5832667
1.766,-8.377003,28.678616,5.2403455,1.2508578,-7.287077,5.282778
1.768,-8.094085,27.714523,6.0158424,1.053581,-7.6896286,4.9763765
1.77,-7.8076067,26.73172,6.8088236,0.8547907,-8.058391,4.6674356
1.772,-7.517922,25.735996,7.6135473,0.65555763,-8.390969,4.35915
1.774,-7.226198,24.733536,8.424005,0.45688403,-8.68558,4.054422
1.776,-6.933117,23.730618,9.233996,0.2597168,-8.940927,3.7558248
1.778,-6.639262,22.733335,10.037407,0.06493294,-9.156198,3.4655395
1.78,-6.345496,21.747677,10.828056,-0.12671572,-9.331021,3.1852827
1.782,-6.052314,20.77896,11.600114,-0.31454098,-9.465447,2.916346
1.784,-5.760867,19.83214,12.348095,-0.49796677,-9.559834,2.6597476
1.786,-5.471709,18.91154,13.066528,-0.67652166,-9.614778,2.4162698
1.788,-5.185442,18.020721,13.750639,-0.8498697,-9.631116,2.1864724
1.79,-4.90302,17.162981,14.396361,-1.0178261,-9.609854,1.9707314
1.792,-4.625017,16.341324,15.00006,-1.1803129,-9.552142,1.7692225
1.794,-4.351621,15.557515,15.558823,-1.337399,-9.45929,1.5819737
1.796,-4.0829873,14.813153,16.070343,-1.4892561,-9.3327465,1.4088805
1.798,-3.8195615,14.109077,16.532537,-1.636116,-9.174048,1.2497559
1.8,-3.5617561,13.445795,16.944416,-1.7782155,-8.984831,1.1043069
1.802,-3.3094983,12.823232,17.305977,-1.9158136,-8.7667885,0.9721949
1.804,-3.0620718,12.241251,17.617413,-2.049167,-8.5216675,0.85309994
1.806,-2.818862,11.699684,17.87892,-2.178555,-8.251265,0.746685
1.808,-2.5793085,11.197907,18.090748,-2.304277,-7.9573436,0.6526135
1.81,-2.3431563,10.734766,18.253803,-2.4266846,-7.6417165,0.5705209
1.812,-2.1098528,10.308972,18.36937,-2.5462143,-7.3061953,0.5000112
1.814,-1.8790245,9.919194,18.439142,-2.6633983,-6.952611,0.4406277
1.816,-1.6501007,9.56405,18.465162,-2.77886,-6.582813,0.3918339
1.818,-1.4226356,9.242425,18.449577,-2.8932962,-6.1987114,0.353009
1.82,-1.1955333,8.952875,18.394562,-3.0074174,-5.802264,0.3234272
1.822,-0.96794415,8.694414,18.3023,-3.1219175,-5.39544,0.30223787
1.824,-0.7391038,8.465906,18.17487,-3.2374089,-4.980219,0.28849202
1.826,-0.50785685,8.266268,18.014622,-3.3544035,-4.558592,0.28111354
1.828,-0.27334833,8.0946865,17.823645,-3.4733026,-4.1325636,0.2789522
1.83,-0.034767628,7.950329,17.604345,-3.594371,-3.7041166,0.2808141
1.832,0.20874166,7.832819,17.358969,-3.7177496,-3.2752109,0.28552717
1.834,0.45791626,7.741796,17.089867,-3.8435006,-2.84776,0.29197088
1.836,0.71351147,7.6770077,16.799238,-3.9716344,-2.4236035,0.2990966
1.838,0.9757781,7.6383953,16.489418,-4.102117,-2.0045013,0.3059429
1.84,1.2451386,7.6256,16.16262,-4.2349224,-1.5921183,0.3116676
1.842,1.5221581,7.6384974,15.821152,-4.370038,-1.1879969,0.31556046
1.844,1.8068852,7.676832,15.467222,-4.5074487,-0.7935522,0.31701243
1.846,2.0996056,7.740187,15.103128,-4.6471334,-0.41003826,0.3155166
1.848,2.4002597,7.8282633,14.731217,-4.789059,-0.038551807,0.3106457
1.85,2.70861,7.940854,14.353503,-4.9331484,0.3199744,0.30200732
1.852,3.0247495,8.077194,13.971979,-5.0792713,0.6647833,0.28920722
1.854,3.3481753,8.23666,13.5886,-5.2272615,0.99529445,0.27182496
1.856,3.6786785,8.418339,13.205349,-5.376881,1.3110948,0.249408
1.858,4.015994,8.621601,12.824335,-5.5278625,1.6119462,0.22148407
1.86,4.3598685,8.845436,12.44762,-5.6798773,1.8977795,0.18763018
1.862,4.709976,9.089097,12.076938,-5.832549,2.1686978,0.14747751
1.864,5.0660057,9.351759,11.713864,-5.9854636,2.4249983,0.10076833
1.866,5.4278173,9.632687,11.35982,-6.1381683,2.66713,0.047389507
1.868,5.7952275,9.931009,11.01609,-6.2901726,2.8957062,-0.012645721
1.87,6.1681657,10.245999,10.683695,-6.440962,3.111515,-0.079176426
1.872,6.546489,10.576889,10.363582,-6.589974,3.3155398,-0.15191293
1.874,6.9302816,10.922988,10.0564,-6.736619,3.5089405,-0.23043585
1.876,7.319537,11.283562,9.762508,-6.8803124,3.6929557,-0.3142612
1.878,7.714266,11.658402,9.482259,-7.0204563,3.8689728,-0.40287638
1.88,8.114339,12.046965,9.215636,-7.1564374,4.038498,-0.49576688
1.882,8.519913,12.448942,8.962448,-7.287676,4.2030807,-0.59244514
1.884,8.931049,12.864173,8.72238,-7.4136357,4.3642607,-0.6924455
1.886,9.347803,13.292514,8.494853,-7.533839,4.523485,-0.79533625
1.888,9.770183,13.73392,8.279194,-7.6479,4.682062,-0.9007168
1.89,10.198462,14.188234,8.074473,-7.755517,4.8410935,-1.0082271
1.892,10.632769,14.655564,7.8799696,-7.8564854,5.0014586,-1.1175541
1.894,11.0734,15.135715,7.6948013,-7.950696,5.1637654,-1.2284503
1.896,11.520593,15.628785,7.5181293,-8.038128,5.3283887,-1.3407191
1.898,11.974722,16.134794,7.3492002,-8.118817,5.4954967,-1.454201
1.9,12.436183,16.653696,7.187108,-8.192837,5.665054,-1.5687875
1.902,12.905635,17.185144,7.031371,-8.260264,5.8369308,-1.6844028
1.904,13.383365,17.729162,6.881446,-8.321175,6.0109334,-1.801002
1.906,13.8700695,18.285503,6.736896,-8.375635,6.18684,-1.9185429
1.908,14.366407,18.853683,6.597309,-8.423685,6.3644695,-2.0369654
1.91,14.872941,19.433355,6.462369,-8.46535,6.543675,-2.1561632
1.912,15.390513,20.023962,6.332014,-8.500634,6.724412,-2.2760134
1.914,15.920359,20.624828,6.206201,-8.5295315,6.906746,-2.3963702
1.916,16.463385,21.235031,6.084566,-8.552003,7.090829,-2.517075
1.918,17.020288,21.853764,5.9668064,-8.567997,7.2769303,-2.6379697
1.92,17.592041,22.479837,5.853252,-8.577442,7.465445,-2.7589014
1.922,18.179718,23.111876,5.743928,-8.580216,7.6568465,-2.8797426
1.924,18.784416,23.748545,5.638815,-8.576142,7.851714,-3.0003924
1.926,19.406832,24.38791,5.5376835,-8.56497,8.050688,-3.1208432
1.928,20.048172,25.02774,5.4402866,-8.54638,8.254455,-3.241144
1.93,20.708954,25.665844,5.346299,-8.519941,8.463773,-3.361402
1.932,21.38997,26.299774,5.2551737,-8.485182,8.679354,-3.4817991
1.934,22.091324,26.927134,5.166374,-8.441552,8.901892,-3.602603
1.936,22.81303,27.545496,5.0789566,-8.388453,9.132075,-3.7241373
1.938,23.555458,28.152115,4.9920626,-8.325249,9.370521,-3.8468106
1.94,24.31888,28.743942,4.9046288,-8.25138,9.617766,-3.9710217
1.942,25.103424,29.317398,4.8154488,-8.166273,9.874236,-4.097138
1.944,25.908974,29.868536,4.7230644,-8.069454,10.14025,-4.2254453
1.946,26.734867,30.393173,4.6257915,-7.9605017,10.416006,-4.356162
1.948,27.579617,30.886806,4.5217857,-7.8390822,10.701476,-4.489417
1.95,28.441088,31.345232,4.4092636,-7.7049875,10.996411,-4.625131
1.952,29.316298,31.764233,4.286703,-7.5580983,11.300363,-4.76311
1.954,30.202656,32.139717,4.152937,-7.3983593,11.612706,-4.903042
1.956,31.09705,32.46702,4.006809,-7.2257805,11.93266,-5.0445323
1.958,31.996035,32.741768,3.8472328,-7.040416,12.259324,-5.187088
1.96,32.895603,32.95948,3.673565,-6.842296,12.591661,-5.330109
1.962,33.791447,33.116283,3.4853687,-6.6314745,12.928661,-5.4728885
1.964,34.679165,33.20836,3.282175,-6.4079056,13.26931,-5.6146536
1.966,35.5536,33.23249,3.0635853,-6.1714973,13.612603,-5.754503
1.968,36.409317,33.18564,2.8294144,-5.9220796,13.9575405,-5.8913746
1.97,37.240746,33.065414,2.579731,-5.659402,14.303153,-6.0240726
1.972,38.0416,32.870033,2.3147507,-5.3830957,14.648397,-6.151264
1.974,38.805363,32.598293,2.0350924,-5.092743,14.992044,-6.271508
1.976,39.525352,32.25,1.7414684,-4.787934,15.332616,-6.3833055
1.978,40.1946,31.825943,1.4350471,-4.4683576,15.668191,-6.4851456
1.98,40.80607,31.327717,1.1171904,-4.133895,15.996272,-6.57557
1.982,41.352913,30.758072,0.78959274,-3.7846417,16.313782,-6.6533623
1.984,41.828087,30.120674,0.45426083,-3.4209743,16.616955,-6.717649
1.986,42.22512,29.420269,0.113610744,-3.0436225,16.90133,-6.767891
1.988,42.538147,28.662268,-0.2297101,-2.6537514,17.161774,-6.803846
1.99,42.761616,27.853117,-0.5727539,-2.252985,17.392601,-6.8255033
1.992,42.89107,26.999931,-0.9121094,-1.84342,17.587852,-6.8329153
1.994,42.92325,26.110422,-1.2441164,-1.4275951,17.741568,-6.8261285
1.996,42.85559,25.193146,-1.5651793,-1.0085382,17.848087,-6.805129
1.998,42.686512,24.257374,-1.8716828,-0.5896807,17.902424,-6.769691
2,42.416416,23.312271,-2.1597152,-0.17479801,17.900616,-6.719434
2.002,42.04709,22.366833,-2.4253852,0.23212242,17.839985,-6.6538215
2.004,41.58211,21.43029,-2.664849,0.6269932,17.719313,-6.5723906
2.006,41.026363,20.511448,-2.8745723,1.0057659,17.538916,-6.474701
2.008,40.386017,19.618652,-3.0512028,1.3645825,17.300556,-6.360498
2.01,39.66867,18.7597,-3.1918225,1.6999731,17.007381,-6.2298274
2.012,38.883026,17.941725,-3.2941113,2.0090303,16.66367,-6.083116
2.014,38.03893,17.170769,-3.3561206,2.2895331,16.27464,-5.921215
2.016,37.146893,16.452152,-3.3766112,2.540052,15.846099,-5.74539
2.018,36.217903,15.790092,-3.3547344,2.7599993,15.384137,-5.5572104
2.02,35.263107,15.187924,-3.2903547,2.9496422,14.894939,-5.358567
2.022,34.293636,14.647852,-3.1839595,3.1100855,14.384562,-5.1515446
2.024,33.32007,14.171017,-3.0366015,3.2431037,13.8587,-4.9384556
2.026,32.353127,13.75753,-2.8497357,3.3510752,13.322586,-4.7216673
2.028,31.402729,13.4063835,-2.6254377,3.4368062,12.780898,-4.5037584
2.03,30.477541,13.11599,-2.366662,3.5033703,12.237688,-4.287422
2.032,29.58522,12.883858,-2.0765285,3.554002,11.696455,-4.0753574
2.034,28.732185,12.706713,-1.7583323,3.5919044,11.160138,-3.8701887
2.036,27.92382,12.580881,-1.4156251,3.6200871,10.631117,-3.674293
2.038,27.163929,12.502249,-1.0522084,3.6412513,10.111304,-3.4897265
2.04,26.455536,12.466021,-0.67199516,3.6577604,9.60225,-3.3182113
2.042,25.800198,12.467031,-0.27891493,3.671602,9.10524,-3.161124
2.044,25.19883,12.499876,0.122915745,3.6843493,8.621321,-3.019415
2.046,24.650974,12.559156,0.5296788,3.6971607,8.151352,-2.8936284
2.048,24.154915,12.639702,0.9374027,3.7108257,7.6960707,-2.7839057
2.05,23.708298,12.736444,1.3421474,3.7257972,7.2560997,-2.690002
2.052,23.308187,12.84503,1.7402344,3.742265,6.8320503,-2.611422
2.054,22.951366,12.961165,2.1282635,3.7602205,6.4245157,-2.547491
2.056,22.634716,13.080681,2.502987,3.7795334,6.0341096,-2.4974198
2.058,22.355211,13.199652,2.8615494,3.7999706,5.6613965,-2.4603872
2.06,22.10978,13.314182,3.201024,3.8212485,5.3068714,-2.435607
2.062,21.89501,13.420671,3.5185823,3.8430417,4.9708815,-2.4223866
2.064,21.707071,13.515924,3.8117113,3.8649774,4.65356,-2.4201384
2.066,21.542019,13.597649,4.0783186,3.8866065,4.35476,-2.428415
2.068,21.396296,13.663622,4.3168006,3.907432,4.0739875,-2.4469147
2.07,21.26638,13.71237,4.526059,3.926888,3.8103893,-2.4754758
2.072,21.148788,13.74273,4.705443,3.944314,3.562753,-2.5140505
2.074,21.040245,13.753937,4.854937,3.9589903,3.3294969,-2.5626364
2.076,20.938072,13.745503,4.975189,3.9701412,3.1087508,-2.621204
2.078,20.839748,13.717546,5.067094,3.9769828,2.8984382,-2.6895947
2.08,20.742905,13.670637,5.1321783,3.9787455,2.6963975,-2.7675133
2.082,20.64578,13.605686,5.1723366,3.9747043,2.5004501,-2.8543575
2.084,20.54677,13.524063,5.189696,3.964224,2.3084786,-2.949259
2.086,20.444563,13.427252,5.1868353,3.9467573,2.1184988,-3.0511415
2.088,20.338387,13.316973,5.166305,3.9218454,1.9287318,-3.1587405
2.09,20.227383,13.195316,5.130907,3.8891618,1.7376925,-3.2706196
2.092,20.110834,13.064415,5.0835056,3.848495,1.5442137,-3.3852398
2.094,19.988695,12.926518,5.0269313,3.7997522,1.3474576,-3.5010185
2.096,19.860844,12.783796,4.9642897,3.7429326,1.1469347,-3.6164234
2.098,19.72743,12.638569,4.8985915,3.6781464,0.94248474,-3.7300575
2.1,19.588768,12.493638,4.8326025,3.6055975,0.73425317,-3.8407266
2.102,19.445127,12.351578,4.7688904,3.5255578,0.52265304,-3.9474719
2.104,19.29678,12.214739,4.709708,3.4383705,0.30830938,-4.049603
2.106,19.144669,12.085081,4.657368,3.3444052,0.091996215,-4.146687
2.108,18.989971,11.96396,4.613986,3.244083,-0.12540868,-4.238534
2.11,18.833336,11.853007,4.5811863,3.1378481,-0.34296542,-4.3251677
2.112,18.675488,11.753532,4.560302,3.0261858,-0.559728,-4.406803
2.114,18.517159,11.666262,4.55239,2.909616,-0.7748008,-4.483769
2.116,18.359467,11.591688,4.5585127,2.78867,-0.9873562,-4.556455
2.118,18.203289,11.529923,4.5793543,2.66392,-1.1966721,-4.6253076
2.12,18.049742,11.480669,4.6156,2.5359898,-1.4021301,-4.6907654
2.122,17.899902,11.443345,4.667802,2.4055421,-1.6031728,-4.753264
2.124,17.754753,11.417263,4.7363577,2.273285,-1.7993132,-4.8132243
2.126,17.615284,11.40122,4.8216352,2.1399024,-1.9901444,-4.870952
2.128,17.482496,11.39394,4.9237638,2.0060265,-2.175277,-4.9266133
2.13,17.357395,11.3937,5.0428176,1.8722687,-2.3543081,-4.9802403
2.132,17.240818,11.398966,5.178776,1.7391739,-2.5268059,-5.031738
2.134,17.133402,11.4079485,5.331568,1.6072569,-2.6922288,-5.080886
2.136,17.035488,11.418937,5.501016,1.4769795,-2.849941,-5.127286
2.138,16.947563,11.430196,5.686875,1.3487496,-2.999165,-5.170403
2.14,16.86974,11.439959,5.888599,1.2229178,-3.1389976,-5.209544
2.142,16.802036,11.446537,6.105579,1.0998254,-3.2683804,-5.2439165
2.144,16.74426,11.44828,6.336999,0.9797824,-3.3861475,-5.272675
2.146,16.696096,11.443768,6.5819097,0.8630937,-3.4910147,-5.2949896
2.148,16.656733,11.431689,6.838913,0.75008243,-3.5816622,-5.310123
2.15,16.625286,11.410902,7.1065164,0.64111775,-3.6567729,-5.317512
2.152,16.600424,11.380464,7.3829927,0.5366114,-3.7150779,-5.3168216
2.154,16.580957,11.339563,7.6663966,0.437042,-3.75542,-5.3080125
2.156,16.56541,11.2875,7.9545307,0.3429805,-3.7768326,-5.2913103
2.158,16.55197,11.223811,8.244942,0.2550476,-3.7786083,-5.267177
2.16,16.538977,11.148272,8.5352545,0.1738809,-3.7603536,-5.2362423
2.162,16.52441,11.060798,8.822807,0.10006434,-3.7220352,-5.1992073
2.164,16.506516,10.961489,9.104781,0.03412211,-3.664028,-5.156752
2.166,16.48356,10.8507,9.378658,-0.023561954,-3.5870967,-5.1094337
2.168,16.453741,10.729072,9.641609,-0.07278931,-3.4924169,-5.05764
2.17,16.415329,10.597233,9.891275,-0.113565326,-3.3815088,-5.001574
2.172,16.367125,10.456085,10.125266,-0.14613289,-3.2561758,-4.941263
2.174,16.30783,10.30663,10.341579,-0.17094892,-3.11844,-4.8766327
2.176,16.236576,10.150052,10.538451,-0.18867767,-2.9704273,-4.8075233
2.178,16.15269,9.987525,10.714501,-0.20012641,-2.814284,-4.7337847
2.18,16.055857,9.820507,10.868617,-0.20617664,-2.6520681,-4.6553845
2.182,15.946085,9.6503105,11.000006,-0.2077719,-2.485701,-4.572398
2.184,15.823573,9.478437,11.108357,-0.2058801,-2.3169498,-4.4849963
2.186,15.688842,9.3063545,11.19363,-0.20147651,-2.147368,-4.393425
2.188,15.542622,9.135469,11.256383,-0.19550043,-1.9783171,-4.298041
2.19,15.385963,8.967137,11.297265,-0.18882439,-1.8109347,-4.1993265
2.192,15.220225,8.802595,11.317437,-0.18219459,-1.6461688,-4.0978775
2.194,15.0468,8.642876,11.318292,-0.17625472,-1.4847751,-3.9943845
2.196,14.8671665,8.489023,11.301261,-0.17153296,-1.3273343,-3.8896196
2.198,14.682831,8.341939,11.268215,-0.1684162,-1.1742764,-3.7844124
2.2,14.495659,8.202064,11.220918,-0.1671648,-1.025869,-3.6796253
2.202,14.307322,8.069948,11.161338,-0.16792262,-0.88220793,-3.5761297
2.204,14.119418,7.9459114,11.091414,-0.1707069,-0.74326384,-3.4747458
2.206,13.933346,7.83034,11.012752,-0.17541626,-0.6088666,-3.376227
2.208,13.7505665,7.7231255,10.927014,-0.18186241,-0.478749,-3.2811887
2.21,13.572696,7.6238384,10.835902,-0.18978907,-0.35252637,-3.190117
2.212,13.400877,7.5320044,10.740786,-0.19886589,-0.22971347,-3.1033483
2.214,13.236298,7.4473515,10.643089,-0.20873123,-0.10976754,-3.0210552
2.216,13.079674,7.3694987,10.5439,-0.21899259,0.007901728,-2.943254
2.218,12.931828,7.298125,10.443959,-0.2292696,0.12391618,-2.8698177
2.22,12.7932205,7.2328377,10.34398,-0.23920304,0.23888445,-2.8005376
2.222,12.664235,7.173265,10.244392,-0.2484529,0.35340798,-2.7351344
2.224,12.544987,7.1191444,10.145384,-0.25672805,0.46802503,-2.6733007
2.226,12.435465,7.0699935,10.0471525,-0.2637846,0.58319247,-2.614712
2.228,12.335782,7.025554,9.94955,-0.26943654,0.699261,-2.5590737
2.23,12.245567,6.9854727,9.852438,-0.27356276,0.8164433,-2.5061414
2.232,12.164427,6.9494476,9.755559,-0.27609867,0.9348212,-2.4557166
2.234,12.091879,6.91714,9.658603,-0.27703586,1.0543296,-2.407652
2.236,12.027309,6.88838,9.561192,-0.2764243,1.1747332,-2.3618708
2.238,11.970072,6.862998,9.463016,-0.27436978,1.295658,-2.3183348
2.24,11.919332,6.84093,9.363719,-0.2710156,1.4166,-2.277074
2.242,11.874271,6.821918,9.263205,-0.26654136,1.5369359,-2.2381501
2.244,11.834255,6.80591,9.161226,-0.2611593,1.6559441,-2.2016642
2.246,11.798554,6.7927747,9.057778,-0.25509113,1.7728558,-2.1677334
2.248,11.766315,6.7823777,8.952852,-0.2485789,1.8868454,-2.1364942
2.25,11.736981,6.774504,8.846647,-0.24184054,1.9970834,-2.1080608
2.252,11.70971,6.76899,8.7394905,-0.23509544,2.1027584,-2.0825396
2.254,11.684019,6.7656,8.631684,-0.22854018,2.2030969,-2.06
2.256,11.659252,6.7641535,8.5237255,-0.22232717,2.2974005,-2.0404682
2.258,11.635059,6.7643747,8.416279,-0.21660101,2.3850656,-2.0239449
2.26,11.611112,6.765911,8.309933,-0.21146917,2.4655764,-2.0103626
2.262,11.587014,6.7685456,8.205393,-0.20701808,2.5385323,-1.9996382
2.264,11.562376,6.7719936,8.103347,-0.20330888,2.6036386,-1.9916487
2.266,11.537019,6.776141,8.004647,-0.20039779,2.6607099,-1.9862332
2.268,11.511006,6.780551,7.910117,-0.19829512,2.7096682,-1.9832146
2.27,11.484031,6.785104,7.820433,-0.19701266,2.7505212,-1.9824226
2.272,11.456216,6.7894173,7.7364354,-0.19656086,2.7833629,-1.9836869
2.274,11.427668,6.7933245,7.6588454,-0.19691986,2.8083613,-1.9868382
2.276,11.398293,6.7966805,7.5880876,-0.19806898,2.8257616,-1.991729
2.278,11.368316,6.7992077,7.524908,-0.19996184,2.8358727,-1.9982275
2.28,11.337839,6.800784,7.469611,-0.20253521,2.839068,-2.006226
2.282,11.306787,6.801202,7.4226704,-0.20574093,2.835781,-2.0156083
2.284,11.27536,6.8003073,7.384212,-0.20949739,2.8264918,-2.0262632
2.286,11.243546,6.7979927,7.3544383,-0.21372706,2.811723,-2.0380685
2.288,11.211282,6.794258,7.3333917,-0.21834683,2.7920187,-2.050887
2.29,11.178831,6.788862,7.321062,-0.22327775,2.7679462,-2.0645595
2.292,11.145967,6.781825,7.3172345,-0.22842866,2.7400844,-2.0788887
2.294,11.112733,6.773093,7.321712,-0.2337107,2.7090006,-2.0936544
2.296,11.079019,6.7627096,7.33428,-0.23904544,2.6752443,-2.1086204
2.298,11.044732,6.750632,7.3543816,-0.2443428,2.6393383,-2.1235301
2.3,11.009812,6.7367997,7.3816805,-0.24953806,2.6017847,-2.138126
2.302,10.97414,6.721199,7.415615,-0.25454903,2.5630732,-2.1521332
2.304,10.937634,6.703845,7.4556146,-0.2593273,2.5236518,-2.1652882
2.306,10.900305,6.6846766,7.50121,-0.26383388,2.4839478,-2.1773338
2.308,10.861999,6.6635923,7.5516768,-0.26803446,2.4443474,-2.1880355
2.31,10.822746,6.640637,7.606676,-0.2719326,2.4052153,-2.1971853
2.312,10.782632,6.615688,7.6655254,-0.275522,2.366897,-2.2045867
2.314,10.741565,6.588719,7.7275352,-0.27883577,2.3297405,-2.2101114
2.316,10.699763,6.5595617,7.792244,-0.28192168,2.2940614,-2.2136476
2.318,10.657379,6.5281987,7.859159,-0.28483754,2.2601776,-2.215125
2.32,10.614524,6.4945345,7.9276876,-0.28766167,2.228396,-2.2145035
2.322,10.571465,6.4585447,7.9974794,-0.29047763,2.1990178,-2.2117722
2.324,10.528432,6.4200754,8.068061,-0.29338205,2.172316,-2.2069309
2.326,10.485684,6.3790517,8.139064,-0.2964633,2.1485634,-2.1999962
2.328,10.443439,6.335485,8.210166,-0.2998187,2.127994,-2.190987
2.33,10.401938,6.2892776,8.280904,-0.30354017,2.1108103,-2.1799226
2.332,10.361359,6.2404943,8.351043,-0.3077129,2.0971656,-2.1668212
2.334,10.322045,6.189024,8.420273,-0.31242746,2.0871553,-2.1517034
2.336,10.2840805,6.1350102,8.488235,-0.3177629,2.0808096,-2.134576
2.338,10.247522,6.0783997,8.554751,-0.323817,2.0781133,-2.115443
2.34,10.212486,6.019352,8.619652,-0.3306986,2.0789766,-2.094319
2.342,10.178875,5.9580116,8.682502,-0.33853525,2.0832386,-2.071226
2.344,10.1466675,5.8945656,8.743261,-0.34745538,2.0906963,-2.046186
2.346,10.115734,5.8291287,8.801632,-0.35760903,2.101075,-2.0192528
2.348,10.085862,5.7619214,8.857573,-0.36914754,2.114082,-1.990473
2.35,10.056861,5.6931047,8.9108925,-0.38221604,2.129401,-1.9599237
2.352,10.028461,5.622877,8.96139,-0.3969714,2.1466932,-1.9276907
2.354,10.00041,5.551387,9.009115,-0.41353917,2.1656065,-1.8938727
2.356,9.972304,5.4788957,9.0539055,-0.43203646,2.1858094,-1.8585746
2.358,9.943941,5.4055595,9.095805,-0.45254564,2.2069874,-1.8219002
2.36,9.915041,5.331533,9.134779,-0.47513843,2.2288547,-1.7839241
2.362,9.885421,5.2569733,9.170694,-0.4998703,2.2511854,-1.744704
2.364,9.854802,5.1821227,9.20357,-0.526775,2.273775,-1.7042896
2.366,9.822895,5.1070538,9.233554,-0.5558777,2.2964702,-1.662705
2.368,9.7895565,5.0319967,9.260776,-0.5871942,2.3191457,-1.6199436
2.37,9.754664,4.95707,9.285439,-0.6207396,2.341711,-1.5760002
2.372,9.718222,4.882283,9.307659,-0.65653634,2.3640954,-1.5308578
2.374,9.680185,4.8078146,9.327704,-0.6946064,2.3862374,-1.4845002
2.376,9.640551,4.7337594,9.34584,-0.73498785,2.4080791,-1.4368974
2.378,9.599279,4.6603928,9.36251,-0.7777091,2.4295652,-1.3880278
2.38,9.556487,4.587942,9.377988,-0.822815,2.4506307,-1.3378687
2.382,9.512282,4.51656,9.392665,-0.87034166,2.4712229,-1.2863991
2.384,9.466661,4.446395,9.40692,-0.9203205,2.491285,-1.2336137
2.386,9.420057,4.3775387,9.421299,-0.972775,2.5107658,-1.1795143
2.388,9.372068,4.310311,9.436496,-1.027699,2.5296552,-1.1241161
2.39,9.323441,4.2449517,9.452604,-1.0850487,2.5479743,-1.06744
2.392,9.274773,4.181389,9.469827,-1.144757,2.5657945,-1.0095246
2.394,9.224319,4.120775,9.490382,-1.2067015,2.5832825,-0.9504052
2.396,9.173791,4.062718,9.513836,-1.270716,2.6007078,-0.8901226
2.398,9.123934,4.0068283,9.540377,-1.3365738,2.6184506,-0.8287101
2.4,9.074087,3.9533648,9.570584,-1.4039823,2.637046,-0.7661932
2.402,9.02384,3.9027555,9.604354,-1.4725776,2.6571784,-0.7025735
2.404,8.972709,3.8551555,9.6410885,-1.5419321,2.6797028,-0.6378011
2.406,8.920957,3.8111198,9.681621,-1.6115398,2.7056236,-0.5718087
2.408,8.867977,3.771405,9.725702,-1.6808292,2.736082,-0.50448155
2.41,8.813367,3.7366147,9.772822,-1.7491763,2.7723482,-0.4356776
2.412,8.756774,3.7071207,9.822277,-1.8159091,2.815738,-0.36521658
2.414,8.697887,3.683465,9.872979,-1.8803226,2.8675537,-0.2929119
2.416,8.63608,3.666205,9.923474,-1.9417148,2.928989,-0.21850008
2.418,8.570743,3.6559913,9.972208,-1.9994668,3.0010939,-0.1417509
2.42,8.501005,3.6535387,10.017194,-2.0531247,3.084599,-0.062547326
2.422,8.426281,3.6596942,10.0563135,-2.102318,3.17981,0.019296259
2.424,8.34603,3.675155,10.087208,-2.146762,3.286994,0.10374421
2.426,8.259508,3.7007315,10.107152,-2.1864452,3.4059498,0.19050834
2.428,8.166296,3.7371068,10.113307,-2.2216628,3.5358171,0.27916792
2.43,8.065825,3.7849798,10.102701,-2.2529027,3.6754541,0.36916026
2.432,7.957661,3.8450203,10.072372,-2.2807965,3.8234775,0.45972687
2.434,7.84149,3.9178336,10.019412,-2.306147,3.9781556,0.5499143
2.436,7.7172437,4.0040574,9.940984,-2.3299284,4.137565,0.63861907
2.438,7.5847354,4.104022,9.834511,-2.353075,4.299789,0.7246513
2.44,7.44417,4.21822,9.697642,-2.3765507,4.4628906,0.8067812
2.442,7.295988,4.3467216,9.52831,-2.4013054,4.624931,0.88388306
2.444,7.140888,4.4896226,9.32505,-2.428196,4.7840257,0.9550109
2.446,6.9799294,4.6467657,9.086724,-2.4579663,4.9383025,1.0194926
2.448,6.8142757,4.8178463,8.812831,-2.4912775,5.0858827,1.0769429
2.45,6.6454573,5.0022306,8.503315,-2.5286894,5.2249327,1.1272223
2.452,6.4751635,5.198971,8.158983,-2.5706744,5.353658,1.1703713
2.454,6.305274,5.4071383,7.780981,-2.6176457,5.470368,1.2065551
2.456,6.137815,5.625544,7.371358,-2.669932,5.5735416,1.235949
2.458,5.9748554,5.852778,6.9325104,-2.727763,5.6618586,1.2586788
2.46,5.8186264,6.0872464,6.467572,-2.791294,5.734271,1.2747784
2.462,5.6710787,6.327419,5.979937,-2.8605673,5.7900057,1.2842047
2.464,5.5343018,6.5715075,5.4734635,-2.9355118,5.828539,1.2868671
2.466,5.4101105,6.8177123,4.952268,-3.0159645,5.8496246,1.2826626
2.468,5.3000727,7.0642214,4.42074,-3.1016538,5.8532476,1.2715731
2.47,5.2054863,7.309326,3.8832402,-3.1922255,5.8395977,1.2536457
2.472,5.127357,7.5514545,3.344273,-3.2871745,5.809046,1.2291443
2.474,5.0663466,7.78897,2.808016,-3.3858798,5.7622404,1.1985228
2.476,5.0228143,8.020549,2.278407,-3.487723,5.7000456,1.1622372
2.478,4.9964957,8.244962,1.7591977,-3.5920744,5.6232433,1.1209638
2.48,4.9867325,8.461275,1.2536259,-3.6981947,5.533002,1.0754662
2.482,4.992364,8.668856,0.7645658,-3.8053045,5.4308243,1.026417
2.484,5.012065,8.867126,0.294451,-3.9127789,5.3180823,0.97442645
2.486,5.0440254,9.05577,-0.15470755,-4.020133,5.1960793,0.9201014
2.488,5.0861745,9.23473,-0.5815656,-4.1269555,5.0661397,0.8640169
2.49,5.1361847,9.403969,-0.98481035,-4.2329535,4.9293995,0.80669737
2.492,5.1915617,9.563829,-1.3638732,-4.3380404,4.7867,0.74858373
2.494,5.249711,9.71472,-1.7181861,-4.4421873,4.6386795,0.690051
2.496,5.307934,9.857102,-2.047705,-4.545438,4.485767,0.6313465
2.498,5.3640575,9.991462,-2.3528237,-4.6479197,4.3281894,0.57260895
2.5,5.415211,10.118391,-2.6334565,-4.749788,4.1660337,0.5138972
2.502,5.458992,10.238567,-2.8897862,-4.851184,3.99931,0.4552307
2.504,5.4950094,10.351728,-3.123866,-4.952224,3.8279686,0.39664996
2.506,5.5197554,10.459057,-3.3350856,-5.0529966,3.6519704,0.33823448
2.508,5.5315084,10.561287,-3.523832,-5.1535325,3.471312,0.28010905
2.51,5.529917,10.658456,-3.690904,-5.2538176,3.286099,0.2224622
2.512,5.5145392,10.75053,-3.8365293,-5.353821,3.0965822,0.16554189
2.514,5.4848948,10.837534,-3.9609313,-5.453463,2.9031723,0.109669775
2.516,5.440048,10.919395,-4.065604,-5.5526342,2.7064571,0.055210173
2.518,5.380321,10.995821,-4.150989,-5.651168,2.5072002,0.0025519133
2.52,5.305627,11.0668125,-4.2175326,-5.7488537,2.3063173,-0.04786873
2.522,5.216241,11.132719,-4.2656927,-5.8454623,2.1048303,-0.09561211
2.524,5.1124554,11.193673,-4.2960653,-5.9407387,1.9038324,-0.14019571
2.526,4.995166,11.249769,-4.3091526,-6.0344753,1.7044156,-0.18112272
2.528,4.865424,11.301115,-4.3057213,-6.126494,1.5076237,-0.21787292
2.53,4.7244196,11.347757,-4.286726,-6.216662,1.3144228,-0.24988788
2.532,4.5730915,11.389835,-4.2530813,-6.304906,1.1256723,-0.27661747
2.534,4.412716,11.427439,-4.2057137,-6.391191,0.94211054,-0.2975362
2.536,4.244644,11.460702,-4.145647,-6.4755235,0.76433134,-0.3121397
2.538,4.0701838,11.489841,-4.0739408,-6.557946,0.59280896,-0.31999177
2.54,3.8908162,11.515066,-3.9917002,-6.638506,0.42790675,-0.320723
2.542,3.7081003,11.536442,-3.9001966,-6.7172184,0.26989555,-0.3140971
2.544,3.5235891,11.553987,-3.8005812,-6.7940645,0.11901283,-0.30001336
2.546,3.338687,11.567673,-3.6941085,-6.868968,-0.024531126,-0.27851325
2.548,3.1548553,11.577656,-3.5818756,-6.9417934,-0.16051793,-0.24979302
2.55,2.9734616,11.583801,-3.464889,-7.0123158,-0.2887032,-0.21417838
2.552,2.795823,11.58617,-3.3441305,-7.080247,-0.40882325,-0.17208406
2.554,2.6228843,11.584741,-3.2206397,-7.1452413,-0.52059627,-0.12399846
2.556,2.4554749,11.579447,-3.0952291,-7.206906,-0.6237116,-0.070453346
2.558,2.2946153,11.570257,-2.9687886,-7.2648187,-0.71784496,-0.011975557
2.56,2.140872,11.557313,-2.8422165,-7.3185554,-0.80268836,0.050920725
2.562,1.9947028,11.540745,-2.7163296,-7.3676934,-0.87794065,0.11777061
2.564,1.8563972,11.520552,-2.591915,-7.4118476,-0.94333696,0.18817782
2.566,1.7260766,11.497007,-2.4698067,-7.450678,-0.99868345,0.26180714
2.568,1.6037717,11.470371,-2.350725,-7.4838877,-1.0438659,0.3383696
2.57,1.4894681,11.441002,-2.2354612,-7.511258,-1.0788572,0.4176163
2.572,1.383008,11.409157,-2.1246352,-7.532631,-1.1037414,0.49933255
2.574,1.284018,11.37528,-2.0189338,-7.547938,-1.1187112,0.5833043
2.576,1.1921935,11.339729,-1.918922,-7.5571427,-1.1240864,0.6693092
2.578,1.1069188,11.303061,-1.8252571,-7.5602655,-1.1202888,0.75709933
2.58,1.0275955,11.265822,-1.7383606,-7.557363,-1.1078491,0.8463865
2.582,0.95347023,11.2284775,-1.6587772,-7.5485497,-1.0874348,0.93684584
2.584,0.8839979,11.191595,-1.5867369,-7.5339475,-1.0597844,1.028078
2.586,0.8183274,11.155863,-1.5226002,-7.5137143,-1.025734,1.1196754
2.588,0.75582457,11.121941,-1.4665372,-7.4880486,-0.98621917,1.2112199
2.59,0.69578075,11.090476,-1.4186015,-7.4571686,-0.94223714,1.3022809
2.592,0.6375871,11.0620985,-1.3786993,-7.4213023,-0.8948374,1.3924656
2.594,0.58061695,11.037504,-1.3466711,-7.3807344,-0.84514284,1.4814285
2.596,0.52439547,11.0173,-1.3223891,-7.335788,-0.7942958,1.5688848
2.598,0.4685266,11.002008,-1.305337,-7.286796,-0.7434442,1.6546066
2.6,0.4126904,10.992219,-1.2952337,-7.234158,-0.69373345,1.7384481
2.602,0.35671353,10.988241,-1.291378,-7.1782613,-0.64628077,1.820292
2.604,0.30057287,10.990361,-1.2932248,-7.1195316,-0.60216904,1.9000744
2.606,0.24409294,10.998697,-1.3000412,-7.0583763,-0.562408,1.9777623
2.608,0.1874454,11.013201,-1.3109508,-6.995199,-0.5279124,2.0533266
2.61,0.13062334,11.033861,-1.3250642,-6.93038,-0.4994912,2.1267033
2.612,0.073805094,11.060471,-1.3415422,-6.864227,-0.47777963,2.1977894
2.614,0.017336845,11.092719,-1.3593671,-6.79698,-0.4631946,2.266416
2.616,-0.038463593,11.130107,-1.3775506,-6.7288003,-0.4559412,2.3323395
2.618,-0.093192816,11.172183,-1.3951163,-6.659709,-0.45598722,2.3952508
2.62,-0.14637518,11.218115,-1.4112837,-6.5896344,-0.46301913,2.4547904
2.622,-0.19773626,11.266939,-1.4252782,-6.518398,-0.47648907,2.510606
2.624,-0.24704838,11.317964,-1.4365616,-6.4457397,-0.4956565,2.56239
2.626,-0.2941966,11.370241,-1.4447451,-6.371325,-0.51959753,2.6099057
2.628,-0.33926535,11.423058,-1.4494753,-6.294794,-0.5472729,2.6530359
2.63,-0.38215208,11.475755,-1.4506092,-6.215804,-0.57759833,2.6918237
2.632,-0.4230852,11.527553,-1.4483547,-6.134072,-0.60951376,2.7264836
2.634,-0.4622934,11.577824,-1.4429827,-6.049392,-0.64201164,2.7573967
2.636,-0.5003097,11.625948,-1.4349718,-5.961669,-0.6741979,2.7851002
2.638,-0.5377314,11.671549,-1.4250679,-5.8709545,-0.7053375,2.8102312
2.64,-0.5753336,11.714235,-1.4140205,-5.7774243,-0.7348411,2.833446
2.642,-0.61372685,11.753722,-1.4028869,-5.6813374,-0.76227164,2.8553596
2.644,-0.65398216,11.7899685,-1.392807,-5.5830383,-0.78736544,2.8765016
2.646,-0.6969693,11.822911,-1.3849864,-5.4829216,-0.81000614,2.8972626
2.648,-0.7436843,11.852629,-1.3805904,-5.381386,-0.83020353,2.917883
2.65,-0.79521704,11.8791485,-1.3808613,-5.2788,-0.8481345,2.9384627
2.652,-0.8527161,11.902754,-1.3869219,-5.1755033,-0.8640988,2.958957
2.654,-0.9173145,11.923761,-1.3997808,-5.071787,-0.878525,2.9792361
2.656,-0.9899702,11.942472,-1.4202261,-4.9679174,-0.8919687,2.999154
2.658,-1.0715744,11.959173,-1.449048,-4.864128,-0.9050846,3.0185206
2.66,-1.1631067,11.974232,-1.4866328,-4.760676,-0.91860485,3.037156
2.662,-1.2653267,11.988062,-1.5333219,-4.6578074,-0.9333446,3.054944
2.664,-1.3787665,12.000956,-1.5889955,-4.5557966,-0.95017684,3.0718389
2.666,-1.5037754,12.013342,-1.6534691,-4.4550033,-0.9700562,3.0878692
2.668,-1.6407235,12.025399,-1.7260528,-4.3558106,-0.99396026,3.1031675
2.67,-1.7894897,12.037171,-1.8056889,-4.258654,-1.0228794,3.1179411
2.672,-1.9498305,12.048663,-1.8912058,-4.164012,-1.0577974,3.1324518
2.674,-2.1214151,12.059932,-1.9810205,-4.072359,-1.0996418,3.1469822
2.676,-2.3035147,12.070692,-2.073361,-3.9841366,-1.149243,3.1617587
2.678,-2.4954011,12.080568,-2.1662154,-3.8997078,-1.2072703,3.176929
2.68,-2.6961904,12.089398,-2.2574296,-3.8193457,-1.2742152,3.1925273
2.682,-2.9048543,12.09696,-2.344592,-3.7431612,-1.3503487,3.2084477
2.684,-3.1200633,12.102278,-2.4258084,-3.6710935,-1.43563,3.224398
2.686,-3.340394,12.104686,-2.4985142,-3.6028805,-1.529707,3.2399213
2.688,-3.5641391,12.103549,-2.5605326,-3.5380683,-1.6319251,3.2544355
2.69,-3.7900653,12.0982275,-2.6098166,-3.4760313,-1.7413051,3.2672524
2.692,-4.0163145,12.087824,-2.6443396,-3.4159794,-1.8565813,3.2776608
2.694,-4.2415643,12.071587,-2.6625943,-3.3570538,-1.9762709,3.2850077
2.696,-4.4643655,12.048404,-2.6631932,-3.2983282,-2.0986981,3.2887287
2.698,-4.683438,12.017483,-2.645207,-3.2388942,-2.2220883,3.2883775
2.7,-4.897573,11.978134,-2.6078749,-3.1779032,-2.3446035,3.2836885
2.702,-5.105711,11.929791,-2.5510988,-3.1146078,-2.4644065,3.2745893
2.704,-5.3071747,11.871948,-2.4750037,-3.048408,-2.5797114,3.2611654
2.706,-5.5012856,11.80444,-2.3800507,-2.9788587,-2.6888566,3.2436414
2.708,-5.687725,11.727121,-2.2671795,-2.9057055,-2.790352,3.2223356
2.71,-5.8661437,11.640117,-2.1374364,-2.8288484,-2.8829231,3.1976223
2.712,-6.0366116,11.543776,-1.9923115,-2.7483206,-2.9655573,3.169899
2.714,-6.1992555,11.438459,-1.8335161,-2.6643076,-3.0375662,3.139499
2.716,-6.354226,11.324917,-1.6627316,-2.5770948,-3.0985966,3.1068037
2.718,-6.502,11.203888,-1.482038,-2.487023,-3.148575,3.0721307
2.72,-6.642917,11.076143,-1.2932487,-2.3944416,-3.1876762,3.0357125
2.722,-6.777774,10.942833,-1.0985026,-2.299757,-3.216366,2.9977448
2.724,-6.9073195,10.805024,-0.89955854,-2.2033987,-3.2352755,2.95838
2.726,-7.0324383,10.663847,-0.698154,-2.105842,-3.245176,2.9177794
2.728,-7.153864,10.520615,-0.49566126,-2.0076041,-3.2469332,2.8761148
2.73,-7.2721376,10.376608,-0.2931795,-1.9092475,-3.2414243,2.833593
2.732,-7.387668,10.232979,-0.09168196,-1.8113835,-3.2295167,2.7904072
2.734,-7.501115,10.090769,0.108094215,-1.7146175,-3.211994,2.7467341
2.736,-7.6129727,9.951095,0.3056774,-1.619558,-3.189569,2.7027278
2.738,-7.7230678,9.814488,0.50077534,-1.5267471,-3.1628633,2.658516
2.74,-7.8322515,9.68155,0.6934366,-1.4366409,-3.1324084,2.6142051
2.742,-7.9407644,9.552888,0.88400316,-1.3495874,-3.098616,2.5698547
2.744,-8.048639,9.428893,1.0729313,-1.2657943,-3.061804,2.525509
2.746,-8.155991,9.309789,1.2607036,-1.1853491,-3.0221913,2.48114
2.748,-8.262772,9.195663,1.4481215,-1.1081927,-2.9798787,2.436663
2.75,-8.368809,9.086382,1.6359334,-1.0341665,-2.9348664,2.3919277
2.752,-8.473843,8.981868,1.8247008,-0.96300447,-2.8870332,2.3467307
2.754,-8.5776,8.881914,2.0152671,-0.8943642,-2.8361783,2.3007956
2.756,-8.679805,8.786312,2.2082927,-0.82782966,-2.782011,2.2537878
2.758,-8.780188,8.694796,2.4043312,-0.76294255,-2.7241893,2.205353
2.76,-8.8783045,8.606934,2.603993,-0.6992314,-2.6623116,2.1551788
2.762,-8.9736805,8.522179,2.8075225,-0.63619745,-2.5959582,2.1030016
2.764,-9.065942,8.43982,3.0150132,-0.5734128,-2.5247242,2.0486696
2.766,-9.154816,8.35916,3.2263458,-0.51051354,-2.448256,1.9921473
2.768,-9.23979,8.279469,3.4411871,-0.44717816,-2.3662145,1.9335301
2.77,-9.320644,8.200132,3.6588695,-0.38319454,-2.2783082,1.8729768
2.772,-9.396875,8.120417,3.8784351,-0.3184835,-2.1843026,1.8107613
2.774,-9.468216,8.0399065,4.098762,-0.25304917,-2.0839872,1.7472074
2.776,-9.534419,7.9580364,4.31849,-0.18693843,-1.9771588,1.6826344
2.778,-9.595201,7.8745475,4.5358667,-0.120225444,-1.863596,1.6173296
2.78,-9.650181,7.789225,4.7488227,-0.05298972,-1.7430391,1.5515054
2.782,-9.699265,7.7020235,4.9553757,0.014677474,-1.615222,1.4853109
2.784,-9.741962,7.6127987,5.1531773,0.08268188,-1.4798881,1.4188607
2.786,-9.7781925,7.521813,5.3398914,0.15092495,-1.336819,1.3522549
2.788,-9.807655,7.4292994,5.512952,0.21929769,-1.1859086,1.2855942
2.79,-9.829955,7.335294,5.670016,0.2876652,-1.0272136,1.2189956
2.792,-9.844736,7.240057,5.808641,0.35584718,-0.8610257,1.1526427
2.794,-9.852038,7.1444874,5.926923,0.42362833,-0.68790984,1.0867748
2.796,-9.851566,7.0490203,6.022512,0.49076167,-0.50874335,1.0217085
2.798,-9.843226,6.953871,6.0935783,0.5569796,-0.3247056,0.9577632
2.8,-9.829323,6.861057,6.145298,0.6220229,-0.13725951,0.8952465
2.802,-9.80815,6.769759,6.171866,0.6856414,0.051909238,0.83438444
2.804,-9.779725,6.6803837,6.172943,0.7476169,0.24094784,0.77529234
2.806,-9.744146,6.5934906,6.1485176,0.807753,0.42794904,0.71792954
2.808,-9.701787,6.50939,6.099069,0.8658583,0.6109929,0.6620859
2.81,-9.653066,6.428282,6.0253572,0.9217339,0.78822863,0.607409
2.812,-9.598464,6.350333,5.9287786,0.97513866,0.95795155,0.5534546
2.814,-9.538543,6.2757235,5.81087,1.025793,1.1185863,0.49974173
2.816,-9.474016,6.204508,5.673523,1.0733274,1.2687579,0.44580963
2.818,-9.405538,6.136775,5.5189443,1.1173285,1.4072568,0.39128745
2.82,-9.333917,6.0725393,5.349408,1.1572974,1.5330429,0.33599925
2.822,-9.259834,6.011762,5.1673594,1.192688,1.6452467,0.27994442
2.824,-9.184062,5.9544888,4.9753513,1.2229561,1.7431698,0.22326541
2.826,-9.107293,5.9005404,4.7757025,1.2476016,1.826271,0.16626716
2.828,-9.030105,5.849827,4.5709267,1.26693,1.8949282,0.11107701
2.83,-8.953254,5.8022413,4.363113,1.280578,1.9494019,0.057270825
2.832,-8.877096,5.757567,4.1544805,1.2886819,1.9903331,0.005540192
2.834,-8.802047,5.715618,3.9467847,1.2916027,2.0187268,-0.043479025
2.836,-8.728358,5.6762786,3.741663,1.289917,2.0359244,-0.08925891
2.838,-8.656514,5.639201,3.5402627,1.2843466,2.0434964,-0.13143694
2.84,-8.587064,5.6043224,3.3436513,1.275701,2.043144,-0.1697979
2.842,-8.520267,5.571548,3.1527653,1.2647858,2.0365763,-0.2042802
2.844,-8.456023,5.5406885,2.9684734,1.2523686,2.0254078,-0.23495609
2.846,-8.3944645,5.5114794,2.791178,1.2391142,2.0110624,-0.26203543
2.848,-8.336193,5.4842014,2.6213572,1.2255673,1.9947332,-0.2857927
2.85,-8.280455,5.4588118,2.4589934,1.2121414,1.977371,-0.30658233
