Time_s_,Acc_x_m_s_2_,Acc_y_m_s_2_,Acc_z_m_s_2_,Gyro_x_1_s_,Gyro_y_1_s_,Gyro_z_1_s_
0,-1.7134987,3.4562767,-1.2059758,-0.859656,0.1128442,0.4181472
0.002,-1.7340715,3.4273264,-1.26342,-0.8554894,0.12994424,0.4035741
0.004,-1.7490357,3.3912225,-1.330606,-0.84990025,0.15054613,0.38697577
0.006,-1.758132,3.347088,-1.4086167,-0.8424779,0.17572668,0.3684535
0.008,-1.760402,3.294084,-1.4989271,-0.83273715,0.20688654,0.34807706
0.01,-1.7550099,3.2309022,-1.6029711,-0.82018983,0.24541439,0.32583958
0.012,-1.7411289,3.1561413,-1.7221123,-0.8042102,0.29298398,0.3020178
0.014,-1.7181174,3.0687587,-1.8576708,-0.7841077,0.35136157,0.27709463
0.016,-1.6853474,2.967687,-2.0112147,-0.75920653,0.42220062,0.25161582
0.018,-1.6424084,2.851695,-2.1837811,-0.7289319,0.5068676,0.22620931
0.02,-1.5881898,2.7189326,-2.37524,-0.69293845,0.6061148,0.20149788
0.022,-1.5230328,2.568745,-2.586057,-0.6512626,0.7197479,0.17799696
0.024,-1.4478562,2.4010875,-2.8160343,-0.604432,0.8463705,0.15604483
0.026,-1.3632281,2.2161195,-3.0647187,-0.5534993,0.9832825,0.13578841
0.028,-1.2702348,2.0143971,-3.3311677,-0.49944583,1.1283296,0.116579965
0.03,-1.1698301,1.7962074,-3.6133637,-0.44500437,1.2740101,0.099083856
0.032,-1.0632904,1.561276,-3.9081678,-0.39251333,1.4146284,0.082959004
0.034,-0.9509927,1.3087366,-4.2110934,-0.3444835,1.5441531,0.06778608
0.036,-0.8356497,1.0392537,-4.517668,-0.30341256,1.6566696,0.053033054
0.038,-0.720778,0.7551865,-4.8239384,-0.27153438,1.7468462,0.03803508
0.04,-0.6097207,0.45834804,-5.1245575,-0.2506354,1.8102009,0.02196917
0.042,-0.50445557,0.14933354,-5.414263,-0.24194938,1.8432946,0.0038779378
0.044,-0.40738153,-0.17113,-5.690605,-0.24614125,1.8438833,-0.017313406
0.046,-0.3206681,-0.5023689,-5.949231,-0.26332855,1.8109398,-0.04274203
0.048,-0.24505758,-0.84344137,-6.184061,-0.2931251,1.7445847,-0.073551774
0.05,-0.18290067,-1.1924956,-6.390439,-0.33465335,1.6461855,-0.11075449
0.052,-0.13380027,-1.5482185,-6.5638223,-0.38663033,1.5182468,-0.15512343
0.054,-0.097430706,-1.9086752,-6.7039165,-0.4476217,1.364018,-0.2071414
0.056,-0.0759294,-2.2751064,-6.813283,-0.5161138,1.1876049,-0.2668315
0.058,-0.06619406,-2.6415575,-6.8843145,-0.5902107,0.99441904,-0.33389142
0.06,-0.06621575,-3.0069327,-6.918996,-0.6679521,0.7900863,-0.4079814
0.062,-0.07505584,-3.3691208,-6.9200478,-0.7472834,0.5806705,-0.4884522
0.064,-0.09487295,-3.7247891,-6.886325,-0.82600665,0.3726083,-0.5743388
0.066,-0.12380195,-4.0725017,-6.81656,-0.9019685,0.17206103,-0.6647019
0.068,-0.15775514,-4.411231,-6.71654,-0.9730397,-0.0151210725,-0.75873065
0.07,-0.19638777,-4.738098,-6.5926294,-1.0371717,-0.18369746,-0.85592747
0.072,-0.23819041,-5.051819,-6.448697,-1.0922894,-0.32904255,-0.9561648
0.074,-0.2781949,-5.352669,-6.2921095,-1.1362884,-0.4473954,-1.0595691
0.076,-0.31191325,-5.6412287,-6.1321406,-1.1671184,-0.5360223,-1.1664503
0.078,-0.33515167,-5.9185305,-5.9772615,-1.1828249,-0.59316075,-1.2771828
0.08,-0.34395742,-6.1851687,-5.8370595,-1.1817977,-0.61820537,-1.3921342
0.082,-0.33507705,-6.4405813,-5.716263,-1.1630243,-0.6117815,-1.5114892
0.084,-0.30716562,-6.681513,-5.6212435,-1.1261871,-0.57578784,-1.635034
0.086,-0.2592988,-6.9043045,-5.555174,-1.0719416,-0.51396954,-1.7622018
0.088,-0.19099808,-7.105823,-5.5160146,-1.0020008,-0.43159664,-1.8917289
0.09,-0.103699684,-7.281465,-5.5019984,-0.9190901,-0.33522937,-2.0214307
0.092,0.0002617836,-7.4263124,-5.511223,-0.82685447,-0.2327295,-2.1483796
0.094,0.11885166,-7.5369253,-5.541105,-0.72969955,-0.13284463,-2.2692578
0.096,0.24923277,-7.6107607,-5.5899186,-0.632414,-0.044219196,-2.380384
0.098,0.38760614,-7.6460853,-5.6555057,-0.53953654,0.025443494,-2.477849
0.1,0.52974844,-7.642924,-5.73534,-0.45495343,0.06953859,-2.5582068
0.102,0.67055464,-7.602402,-5.825773,-0.38147992,0.08361173,-2.6189008
0.104,0.8051605,-7.5268803,-5.922633,-0.32055402,0.06621683,-2.658326
0.106,0.9285326,-7.4195423,-6.02157,-0.2722668,0.018808305,-2.676173
0.108,1.0366559,-7.2838955,-6.117975,-0.23530537,-0.05401218,-2.673651
0.11,1.1259949,-7.124056,-6.2071457,-0.20707351,-0.14454812,-2.6533935
0.112,1.1935453,-6.9444704,-6.284808,-0.18412101,-0.2428543,-2.619175
0.114,1.2379124,-6.7510033,-6.346759,-0.1625967,-0.33773538,-2.5757186
0.116,1.2584488,-6.549967,-6.3861313,-0.13873494,-0.4178812,-2.528317
0.118,1.2528639,-6.3463426,-6.3993597,-0.10939646,-0.47317234,-2.4823372
0.12,1.2259648,-6.146742,-6.3921194,-0.07249308,-0.4959386,-2.4425528
0.122,1.1805825,-5.9578,-6.362289,-0.027258098,-0.4820791,-2.412558
0.124,1.116607,-5.784891,-6.303915,0.025595963,-0.43167412,-2.3943508
0.126,1.0389459,-5.6328635,-6.217343,0.08383143,-0.34926063,-2.3882842
0.128,0.95463824,-5.5061746,-6.1020703,0.14399552,-0.24298891,-2.3932233
0.13,0.8674395,-5.4065886,-5.9551754,0.20185125,-0.12351763,-2.4067528
0.132,0.78301597,-5.3361177,-5.777358,0.25287822,-0.0026681125,-2.4255414
0.134,0.7088778,-5.29776,-5.5698237,0.29301006,0.10838324,-2.4457433
0.136,0.65242076,-5.293149,-5.3326125,0.31922254,0.2006475,-2.4635816
0.138,0.61643815,-5.3206367,-5.068876,0.3298787,0.26840955,-2.475964
0.14,0.60463333,-5.378607,-4.776456,0.3250132,0.31022096,-2.4807968
0.142,0.6200423,-5.4646893,-4.4577727,0.30618942,0.32834333,-2.4774845
0.144,0.6638112,-5.57563,-4.11718,0.2762342,0.32805938,-2.4670255
0.146,0.7382879,-5.708882,-3.7577982,0.23886868,0.3168014,-2.451677
0.148,0.8447821,-5.8626823,-3.3848362,0.19809437,0.30263576,-2.434435
0.15,0.9830291,-6.0345397,-3.0041163,0.15772694,0.29288098,-2.4186754
0.152,1.1498692,-6.2207766,-2.6216626,0.120826334,0.29272103,-2.4078674
0.154,1.342417,-6.4185743,-2.2423928,0.089542836,0.30574468,-2.404498
0.156,1.5568519,-6.625469,-1.8744665,0.06500715,0.3337359,-2.4096987
0.158,1.7878761,-6.8399563,-1.5270731,0.047444582,0.3763674,-2.423557
0.16,2.0319607,-7.0613227,-1.2082015,0.03667131,0.43261322,-2.4450173
0.162,2.283091,-7.2873335,-0.9268279,0.032422185,0.50138235,-2.4720745
0.164,2.5351744,-7.5153847,-0.6896168,0.034385026,0.5813417,-2.5020847
0.166,2.7838416,-7.7428274,-0.50577605,0.042477548,0.67179906,-2.5319812
0.168,3.0227787,-7.9652615,-0.3844247,0.056878954,0.77258396,-2.5588427
0.17,3.2449758,-8.177268,-0.33053946,0.07794422,0.88367015,-2.5803392
0.172,3.4461913,-8.374747,-0.34821546,0.10624711,1.0053327,-2.5947707
0.174,3.6254997,-8.554457,-0.4443984,0.14230032,1.1373705,-2.6012533
0.176,3.778002,-8.711559,-0.62304676,0.18636137,1.2788982,-2.5996838
0.178,3.8983893,-8.84182,-0.8798926,0.23833959,1.4282649,-2.5906863
0.18,3.9860466,-8.943269,-1.2101014,0.2975467,1.582737,-2.575526
0.182,4.03955,-9.012428,-1.6097375,0.36271492,1.7385968,-2.5558732
0.184,4.0556803,-9.045482,-2.0693746,0.43211922,1.891347,-2.533711
0.186,4.034115,-9.0404215,-2.577306,0.50357527,2.0358312,-2.5112703
0.188,3.976503,-8.996635,-3.1224809,0.5744916,2.1665816,-2.490924
0.19,3.8846774,-8.915282,-3.6929293,0.6420184,2.2781773,-2.4749737
0.192,3.7625809,-8.800003,-4.276999,0.70321167,2.3655539,-2.465501
0.194,3.616014,-8.656125,-4.864752,0.7552333,2.424152,-2.4643557
0.196,3.4516714,-8.490175,-5.446574,0.7955609,2.4502537,-2.4730637
0.198,3.276465,-8.308555,-6.0129175,0.82211405,2.4412293,-2.4927292
0.2,3.0973413,-8.117746,-6.553883,0.8334725,2.3957818,-2.5239303
0.202,2.9208899,-7.923878,-7.057923,0.82911426,2.3142262,-2.5667193
0.204,2.752558,-7.732005,-7.51355,0.8093229,2.1984286,-2.620532
0.206,2.5969496,-7.545852,-7.9101877,0.77522236,2.0522354,-2.6839552
0.208,2.4584684,-7.368309,-8.238934,0.7287107,1.8808362,-2.7549646
0.21,2.3410234,-7.20122,-8.492668,0.6723387,1.690472,-2.8310323
0.212,2.2482505,-7.046096,-8.667168,0.60909176,1.4885893,-2.9090843
0.214,2.1823168,-6.9038334,-8.761045,0.5420569,1.2830071,-2.9858084
0.216,2.144871,-6.7757597,-8.775116,0.47416523,1.0812557,-3.0579972
0.218,2.136484,-6.6636167,-8.712278,0.4081589,0.89051527,-3.122961
0.22,2.1569242,-6.5688457,-8.577284,0.3463649,0.7167989,-3.1788898
0.222,2.2057405,-6.4926615,-8.375875,0.29058635,0.5647248,-3.2246928
0.224,2.2810476,-6.434973,-8.1148205,0.24195781,0.43732393,-3.2600431
0.226,2.3811696,-6.395171,-7.8033247,0.2007936,0.33580106,-3.2855003
0.228,2.5060303,-6.373763,-7.4475403,0.16680077,0.26020086,-3.3021612
0.23,2.6497195,-6.3690047,-7.0475283,0.13915026,0.2094363,-3.3114238
0.232,2.8106036,-6.3793087,-6.613348,0.11659038,0.18160218,-3.3147202
0.234,2.9899375,-6.4046154,-6.1570444,0.09768844,0.17445064,-3.3133266
0.236,3.1843812,-6.4447384,-5.683241,0.08087748,0.1854313,-3.3082917
0.238,3.3899922,-6.499262,-5.1981955,0.06454873,0.21189678,-3.300353
0.24,3.6061885,-6.5692987,-4.7105117,0.047168016,0.25128466,-3.2899382
0.242,3.831356,-6.655546,-4.224271,0.027303487,0.30103177,-3.2772362
0.244,4.062406,-6.757308,-3.7443037,0.0036785007,0.35862577,-3.2623248
0.246,4.295989,-6.874573,-3.2765965,-0.024804473,0.42168552,-3.245163
0.248,4.533017,-7.0094914,-2.8241475,-0.059002638,0.4880829,-3.2255402
0.25,4.772212,-7.162496,-2.3948922,-0.09949687,0.55595165,-3.2031255
0.252,5.012457,-7.333825,-1.9915081,-0.14657706,0.6237056,-3.1774962
0.254,5.252329,-7.5239015,-1.6163555,-0.20025957,0.6900328,-3.1482122
0.256,5.489617,-7.733038,-1.273209,-0.26024076,0.75385934,-3.1148152
0.258,5.7217155,-7.9610605,-0.9637301,-0.32592198,0.8143344,-3.0769515
0.26,5.945243,-8.206756,-0.6906402,-0.39640275,0.8708398,-3.0344071
0.262,6.1570325,-8.468156,-0.45633364,-0.4705235,0.9229466,-2.9872022
0.264,6.3535347,-8.742205,-0.2629491,-0.5469365,0.9704884,-2.935566
0.266,6.531514,-9.024866,-0.11306417,-0.6241458,1.0135741,-2.8799338
0.268,6.6880894,-9.312238,-0.009819031,-0.70055634,1.052631,-2.8209155
0.27,6.8203907,-9.600783,0.045284033,-0.7745443,1.0884258,-2.7593408
0.272,6.926014,-9.887937,0.052364588,-0.84452647,1.1220323,-2.6961937
0.274,7.0033197,-10.171587,0.012787342,-0.90903515,1.1547402,-2.6325562
0.276,7.050273,-10.449272,-0.07254219,-0.9667664,1.1879662,-2.5696049
0.278,7.065173,-10.71826,-0.20298648,-1.01658,1.2231909,-2.50864
0.28,7.047024,-10.975621,-0.37771058,-1.0575105,1.2617351,-2.4510753
0.282,6.995602,-11.218278,-0.59610367,-1.0888311,1.3046741,-2.3984032
0.284,6.911381,-11.443628,-0.8568225,-1.110079,1.3526955,-2.352096
0.286,6.7957773,-11.649924,-1.1585348,-1.1210693,1.4060137,-2.3135703
0.288,6.6505356,-11.835838,-1.4991205,-1.1218601,1.4643699,-2.2841377
0.29,6.4783335,-12.000893,-1.8760142,-1.1127093,1.5271008,-2.2648997
0.292,6.2817516,-12.145533,-2.2861702,-1.0940754,1.59318,-2.2566543
0.294,6.063376,-12.270201,-2.7261844,-1.0666032,1.6612731,-2.2598639
0.296,5.82571,-12.375177,-3.1925578,-1.0311027,1.7298212,-2.274756
0.298,5.5720463,-12.461138,-3.6815264,-0.98855925,1.797011,-2.3012946
0.3,5.3057165,-12.529284,-4.188636,-0.94008785,1.8608338,-2.3391275
0.302,5.030464,-12.580818,-4.7089744,-0.8868614,1.9191803,-2.3875637
0.304,4.7500906,-12.617447,-5.237924,-0.830106,1.9699262,-2.445513
0.306,4.4681993,-12.640509,-5.7707644,-0.7711046,2.010998,-2.511471
0.308,4.18811,-12.651419,-6.3024764,-0.7111683,2.0405521,-2.58348
0.31,3.9131336,-12.651528,-6.8279057,-0.6515884,2.0570354,-2.6593137
0.312,3.6459363,-12.641953,-7.3425884,-0.5936238,2.0592072,-2.7366521
0.314,3.3888466,-12.623766,-7.841815,-0.5385369,2.0461478,-2.8132496
0.316,3.144136,-12.598017,-8.320338,-0.48758483,2.0172668,-2.8870342
0.318,2.9134378,-12.565667,-8.773066,-0.44199294,1.9723934,-2.9562635
0.32,2.6984808,-12.527331,-9.19532,-0.40290642,1.9118357,-3.0196145
0.322,2.50053,-12.483327,-9.582994,-0.37133494,1.8363998,-3.0761876
0.324,2.3206375,-12.43405,-9.9326,-0.3480524,1.7473931,-3.1254535
0.326,2.1598473,-12.379661,-10.242034,-0.33354023,1.6466042,-3.1672947
0.328,2.019559,-12.320485,-10.509967,-0.327869,1.5362782,-3.201972
0.33,1.9007556,-12.2569275,-10.735528,-0.33066013,1.4189944,-3.2300515
0.332,1.8040326,-12.189766,-10.917822,-0.34109962,1.2975081,-3.2523193
0.334,1.7297683,-12.119706,-11.056627,-0.35796034,1.174671,-3.269735
0.336,1.6783295,-12.047485,-11.152779,-0.37963519,1.0533018,-3.2833989
0.338,1.6500297,-11.973745,-11.207271,-0.40422326,0.9361344,-3.2944975
0.34,1.6449893,-11.89931,-11.221874,-0.42966038,0.8257404,-3.3042421
0.342,1.663585,-11.8250065,-11.198975,-0.45386863,0.7244473,-3.3138099
0.344,1.7064297,-11.751617,-11.142188,-0.47494334,0.63428324,-3.324292
0.346,1.7740188,-11.680087,-11.055187,-0.49123967,0.556917,-3.3366327
0.348,1.8665726,-11.611246,-10.941844,-0.50147045,0.49364877,-3.3515763
0.35,1.9847634,-11.546158,-10.805618,-0.5047474,0.44532466,-3.369551
0.352,2.1291382,-11.485767,-10.649378,-0.5006305,0.41232455,-3.3907473
0.354,2.2999668,-11.431362,-10.476135,-0.48909828,0.39449835,-3.4152434
0.356,2.497224,-11.383956,-10.289505,-0.47053754,0.39109838,-3.4430113
0.358,2.7197852,-11.344478,-10.093198,-0.44561428,0.40083444,-3.4739523
0.36,2.9655595,-11.313378,-9.891033,-0.4151355,0.42199385,-3.5078917
0.362,3.2324655,-11.290281,-9.685932,-0.38001037,0.45248735,-3.5445604
0.364,3.5186841,-11.274432,-9.480026,-0.34125936,0.4899962,-3.5835068
0.366,3.8225799,-11.265584,-9.275038,-0.29990104,0.53211284,-3.624103
0.368,4.141835,-11.263422,-9.072292,-0.25690824,0.57643676,-3.6655898
0.37,4.473389,-11.26727,-8.87293,-0.21319358,0.6206242,-3.7071257
0.372,4.8134418,-11.276438,-8.6778145,-0.16960675,0.6624439,-3.747788
0.374,5.157091,-11.2901535,-8.48703,-0.1269581,0.69986033,-3.7865305
0.376,5.499163,-11.308062,-8.299881,-0.086028755,0.73109937,-3.822249
0.378,5.833699,-11.3287525,-8.115887,-0.047577552,0.75474274,-3.8538063
0.38,6.154331,-11.350395,-7.9356723,-0.012338921,0.7697756,-3.8799698
0.382,6.4546633,-11.370522,-7.7598295,0.018972918,0.7756045,-3.8994784
0.384,6.7292366,-11.386384,-7.5887346,0.045662403,0.7720871,-3.9110992
0.386,6.972911,-11.39559,-7.4224653,0.06705142,0.7594981,-3.9137197
0.388,7.1804185,-11.396317,-7.259842,0.082449816,0.7384151,-3.906421
0.39,7.346206,-11.386865,-7.0994234,0.09120439,0.7096691,-3.888444
0.392,7.4649563,-11.365616,-6.940399,0.09278463,0.6742449,-3.8592672
0.394,7.532137,-11.330333,-6.7833495,0.08681719,0.63320196,-3.818681
0.396,7.5446334,-11.278677,-6.629,0.07308567,0.5875752,-3.7668412
0.398,7.5008206,-11.209221,-6.4778934,0.05155373,0.53825235,-3.704154
0.4,7.400508,-11.12165,-6.330287,0.022372544,0.4860227,-3.631288
0.402,7.245117,-11.0162,-6.1863303,-0.014134599,0.4315436,-3.5491996
0.404,7.0373106,-10.893765,-6.0467305,-0.05749765,0.3753587,-3.4591277
0.406,6.780651,-10.756115,-5.912466,-0.107063256,0.31793666,-3.3626344
0.408,6.4795513,-10.604952,-5.7848845,-0.16201551,0.25975013,-3.2616296
0.41,6.13952,-10.44206,-5.665194,-0.22133356,0.20133293,-3.158409
0.412,5.765823,-10.2693815,-5.554661,-0.28387097,0.1433307,-3.0555737
0.414,5.3656015,-10.089173,-5.454149,-0.34836507,0.086568594,-2.9560242
0.416,4.9466434,-9.9036045,-5.3652306,-0.41197172,0.031702876,-2.8628788
0.418,4.5163155,-9.714466,-5.2919264,-0.47507516,-0.019371986,-2.7792623
0.42,4.0837545,-9.524472,-5.2340236,-0.53509605,-0.06535101,-2.7079859
0.422,3.6577199,-9.336442,-5.192605,-0.5903418,-0.104536414,-2.6512356
0.424,3.2471397,-9.153198,-5.170128,-0.6392995,-0.13527071,-2.6103842
0.426,2.8604379,-8.977194,-5.167078,-0.68069583,-0.15606737,-2.5859709
0.428,2.5057108,-8.810486,-5.184009,-0.71353674,-0.16573709,-2.577674
0.43,2.1900818,-8.655246,-5.221178,-0.73724616,-0.16352272,-2.584328
0.432,1.9202539,-8.5131855,-5.278264,-0.7517199,-0.1492145,-2.6041298
0.434,1.7025199,-8.385817,-5.3546557,-0.75737065,-0.12323618,-2.634912
0.436,1.5420152,-8.274227,-5.449389,-0.7550987,-0.086658835,-2.6743908
0.438,1.4425952,-8.179418,-5.561382,-0.7461587,-0.04117918,-2.7204423
0.44,1.4077175,-8.1023445,-5.689185,-0.73199916,0.01101625,-2.77126
0.442,1.4397144,-8.043667,-5.8308682,-0.7140825,0.06743705,-2.8254251
0.444,1.5402195,-8.004344,-5.983462,-0.69388646,0.12527025,-2.881873
0.446,1.7094898,-7.9854765,-6.1432586,-0.6727826,0.18166232,-2.9396737
0.448,1.946554,-7.988029,-6.306888,-0.65201783,0.2337867,-2.997952
0.45,2.2497325,-8.012547,-6.470992,-0.6325913,0.27898127,-3.0558345
0.452,2.6157787,-8.059648,-6.632699,-0.61518043,0.31520337,-3.1123645
0.454,3.0397763,-8.129129,-6.789105,-0.6002712,0.34085697,-3.1664345
0.456,3.5155373,-8.220444,-6.937082,-0.5881824,0.3549142,-3.2167315
0.458,4.0374146,-8.333045,-7.073684,-0.57908,0.3570906,-3.2617671
0.46,4.597331,-8.465541,-7.1967916,-0.5730525,0.34770393,-3.2999706
0.462,5.1875353,-8.617048,-7.3026876,-0.570137,0.3276292,-3.329744
0.464,5.8001585,-8.785557,-7.3886147,-0.5702934,0.29830813,-3.3496027
0.466,6.426673,-8.969505,-7.4532204,-0.5733852,0.26151514,-3.3583267
0.468,7.059252,-9.167097,-7.4957986,-0.5792343,0.21918428,-3.354967
0.47,7.68962,-9.376503,-7.5160065,-0.58848447,0.17352784,-3.3388352
0.472,8.309376,-9.595493,-7.5145197,-0.5988389,0.12581575,-3.3096595
0.474,8.910164,-9.821584,-7.492134,-0.61133575,0.07812774,-3.2676108
0.476,9.484346,-10.051773,-7.449608,-0.6254723,0.0319041,-3.2133431
0.478,10.02572,-10.283105,-7.3887777,-0.64063835,-0.011630416,-3.1478796
0.48,10.529039,-10.513199,-7.3122725,-0.65616333,-0.05151701,-3.0725293
0.482,10.990031,-10.739896,-7.223118,-0.671363,-0.087072015,-2.9888992
0.484,11.405728,-10.961275,-7.1247177,-0.6854727,-0.11785138,-2.8988647
0.486,11.773498,-11.175142,-7.0206027,-0.6976955,-0.14361715,-2.8045032
0.488,12.092247,-11.379505,-6.914587,-0.7071957,-0.1641885,-2.7079666
0.49,12.361599,-11.572665,-6.810281,-0.71325195,-0.17958605,-2.611358
0.492,12.582113,-11.753683,-6.7117147,-0.71528864,-0.18992019,-2.5166175
0.494,12.754637,-11.922202,-6.623084,-0.71286976,-0.19518703,-2.4253287
0.496,12.880857,-12.077835,-6.5482483,-0.7058675,-0.1956343,-2.338715
0.498,12.963028,-12.219828,-6.491847,-0.6942947,-0.19149506,-2.257634
0.5,13.003551,-12.347618,-6.4582353,-0.6783613,-0.1831153,-2.1824875
0.502,13.004772,-12.46035,-6.450583,-0.65843874,-0.17088479,-2.1131165
0.504,12.968957,-12.557718,-6.47068,-0.6350941,-0.15529019,-2.048931
0.506,12.897614,-12.639135,-6.5205135,-0.6090921,-0.1371212,-1.9891117
0.508,12.792749,-12.703822,-6.602214,-0.58122075,-0.117215455,-1.9327087
0.51,12.655638,-12.75041,-6.7168045,-0.55227005,-0.09653914,-1.8787336
0.512,12.487619,-12.777964,-6.8647523,-0.523011,-0.07625872,-1.8262517
0.514,12.290131,-12.785832,-7.0452137,-0.49411777,-0.05758083,-1.7744493
0.516,12.064128,-12.773151,-7.256667,-0.46611762,-0.04174632,-1.7227318
0.518,11.810169,-12.739434,-7.497044,-0.43944374,-0.030042887,-1.6707493
0.52,11.528776,-12.684261,-7.764093,-0.41435307,-0.023639917,-1.6183772
0.522,11.2209,-12.607288,-8.054355,-0.39093143,-0.023557782,-1.5657346
0.524,10.887145,-12.508398,-8.364093,-0.36914527,-0.030631125,-1.5131422
0.526,10.52833,-12.388359,-8.688611,-0.348871,-0.045489907,-1.461017
0.528,10.146533,-12.248694,-9.020886,-0.32991672,-0.068543196,-1.40984
0.53,9.742128,-12.090009,-9.358197,-0.31206614,-0.09997818,-1.3601085
0.532,9.316944,-11.913613,-9.695527,-0.29511932,-0.1397838,-1.312377
0.534,8.873007,-11.721293,-10.026313,-0.27889806,-0.18775612,-1.2672143
0.536,8.413125,-11.515437,-10.345425,-0.26327193,-0.24358994,-1.2252252
0.538,7.940605,-11.298776,-10.647458,-0.24815986,-0.3068799,-1.1870545
0.54,7.4591513,-11.074081,-10.927198,-0.23353294,-0.37720084,-1.1534094
0.542,6.972802,-10.84453,-11.179927,-0.21943769,-0.45418334,-1.1250374
0.544,6.4857507,-10.613582,-11.401178,-0.20590326,-0.53736526,-1.1026802
0.546,6.00265,-10.384807,-11.586716,-0.19300836,-0.62634665,-1.0870116
0.548,5.52826,-10.161483,-11.733028,-0.18087238,-0.72091377,-1.078651
0.55,5.067325,-9.9470215,-11.83723,-0.16953179,-0.8206506,-1.0780021
0.552,4.6247225,-9.744792,-11.896849,-0.15908182,-0.92521167,-1.0852236
0.554,4.204965,-9.557829,-11.910324,-0.1496517,-1.0342668,-1.100255
0.556,3.81215,-9.388451,-11.87668,-0.14142087,-1.1474878,-1.1227951
0.558,3.4504237,-9.238749,-11.795131,-0.13465971,-1.2645562,-1.1522884
0.56,3.1232018,-9.110474,-11.665353,-0.12973458,-1.385186,-1.1879745
0.562,2.8335042,-9.005031,-11.487065,-0.12711644,-1.5091295,-1.2289878
0.564,2.5845847,-8.92374,-11.26018,-0.12736446,-1.6361557,-1.2744007
0.566,2.3794065,-8.867518,-10.986074,-0.13111866,-1.7660062,-1.3233076
0.568,2.2190404,-8.836642,-10.666492,-0.13904858,-1.8984007,-1.3748177
0.57,2.105199,-8.831259,-10.302661,-0.15181917,-2.033024,-1.428075
0.572,2.0384805,-8.850625,-9.898307,-0.1699813,-2.1694725,-1.4822874
0.574,2.0187693,-8.8940325,-9.456057,-0.19398826,-2.3072267,-1.5367365
0.576,2.0466447,-8.959956,-8.977651,-0.22414887,-2.4455867,-1.5907519
0.578,2.1208935,-9.045995,-8.465744,-0.26058722,-2.5836654,-1.6437535
0.58,2.239573,-9.149127,-7.9226437,-0.30326062,-2.7203712,-1.6951809
0.582,2.3998816,-9.266507,-7.350857,-0.3519293,-2.8544288,-1.7444705
0.584,2.5993376,-9.395049,-6.7535934,-0.40618706,-2.984388,-1.7909865
0.586,2.8348234,-9.53113,-6.13502,-0.46550488,-3.108707,-1.833991
0.588,3.1025019,-9.670466,-5.4992537,-0.5292648,-3.225772,-1.8726995
0.59,3.3988779,-9.808294,-4.8499994,-0.5967655,-3.333929,-1.9062991
0.592,3.71968,-9.939703,-4.1906977,-0.6672759,-3.4316103,-1.9340054
0.594,4.0601215,-10.059904,-3.5244856,-0.74007475,-3.5173843,-1.9550973
0.596,4.4152293,-10.164215,-2.8548307,-0.8144816,-3.5900486,-1.9690061
0.598,4.7797213,-10.24794,-2.1851768,-0.8899348,-3.648713,-1.9753602
0.6,5.148342,-10.306298,-1.5190806,-0.9660007,-3.6927512,-1.9739916
0.602,5.51544,-10.334718,-0.86001253,-1.0424305,-3.7218132,-1.9649105
0.604,5.8755074,-10.328572,-0.21106577,-1.1191998,-3.7359204,-1.948263
0.606,6.2230053,-10.283604,0.42477846,-1.196496,-3.7353964,-1.9243156
0.608,6.552583,-10.195959,1.0449133,-1.2747076,-3.720882,-1.8934488
0.61,6.8594055,-10.062385,1.6471853,-1.3543748,-3.693231,-1.8561536
0.612,7.1386228,-9.880059,2.2294931,-1.4361315,-3.6533928,-1.8130078
0.614,7.3856506,-9.64666,2.790429,-1.5206751,-3.6024017,-1.7646537
0.616,7.5968657,-9.360594,3.3288379,-1.6087356,-3.5413823,-1.7117963
0.618,7.768503,-9.0206585,3.843686,-1.7010098,-3.471445,-1.6552813
0.62,7.897813,-8.626652,4.3335676,-1.7980947,-3.3936095,-1.5960903
0.622,7.982691,-8.178795,4.7974977,-1.9004812,-3.3087902,-1.5353613
0.624,8.021944,-7.6779146,5.234857,-2.008533,-3.2177515,-1.4743221
0.626,8.015474,-7.125515,5.6454115,-2.1225204,-3.1211128,-1.414182
0.628,7.964261,-6.523677,6.0293245,-2.2426002,-3.0193722,-1.3560977
0.63,7.8694735,-5.874855,6.3866134,-2.3688328,-2.9129932,-1.3011429
0.632,7.7336226,-5.1818995,6.716798,-2.5011895,-2.802422,-1.2502303
0.634,7.5594068,-4.448015,7.019451,-2.6395724,-2.6881187,-1.2041202
0.636,7.3501463,-3.6763835,7.2942495,-2.7838237,-2.5706446,-1.1633714
0.638,7.1097097,-2.870363,7.5409503,-2.9337273,-2.45068,-1.1283629
0.64,6.842724,-2.0334973,7.759507,-3.0890324,-2.3290398,-1.0992751
0.642,6.554064,-1.1691481,7.94977,-3.249471,-2.2067013,-1.076102
0.644,6.248836,-0.28083754,8.112031,-3.4147735,-2.0847309,-1.0586941
0.646,5.932367,0.6278715,8.24655,-3.584647,-1.9642107,-1.0467721
0.648,5.6102104,1.5533,8.354264,-3.7587848,-1.8461866,-1.0399822
0.65,5.28784,2.4917295,8.436577,-3.9368608,-1.7315989,-1.0379151
0.652,4.970707,3.4397035,8.495018,-4.1185217,-1.621191,-1.0401036
0.654,4.664112,4.394012,8.531179,-4.303386,-1.5154848,-1.046039
0.656,4.3728876,5.351781,8.5468,-4.491035,-1.4147297,-1.0552297
0.658,4.1013517,6.310586,8.5437355,-4.6809688,-1.3188204,-1.0671821
0.66,3.8534017,7.2681828,8.524222,-4.8726234,-1.2273748,-1.0814159
0.662,3.6327794,8.222392,8.490708,-5.06536,-1.1397313,-1.0974343
0.664,3.4425888,9.171315,8.44612,-5.258473,-1.0550194,-1.114747
0.666,3.2858417,10.113157,8.393779,-5.451235,-0.9722386,-1.1328839
0.668,3.164323,11.046238,8.336558,-5.6428995,-0.890259,-1.1514237
0.67,3.0796483,11.969084,8.277078,-5.832721,-0.80787575,-1.1699575
0.672,3.0323842,12.880885,8.217068,-6.019991,-0.7239401,-1.1881086
0.674,3.0226252,13.780989,8.157631,-6.2040677,-0.63743293,-1.2055151
0.676,3.0498424,14.669111,8.100004,-6.3843403,-0.54739916,-1.2218516
0.678,3.113307,15.544909,8.045222,-6.5602555,-0.4530475,-1.2368836
0.68,3.2117043,16.408373,7.9937525,-6.731323,-0.35379806,-1.2504997
0.682,3.3428946,17.259481,7.9459143,-6.8971395,-0.24931476,-1.2627072
0.684,3.5044928,18.098272,7.9015903,-7.0573936,-0.13946655,-1.273628
0.686,3.693284,18.92481,7.859878,-7.211871,-0.024386585,-1.2834766
0.688,3.9063988,19.738823,7.819502,-7.360457,0.09554386,-1.2925915
0.69,4.141144,20.539808,7.7778416,-7.503118,0.21977127,-1.3014388
0.692,4.393958,21.327719,7.7320313,-7.6398654,0.34758824,-1.3105278
0.694,4.6607246,22.102564,7.679715,-7.77076,0.47822416,-1.3204172
0.696,4.9366,22.865007,7.6191845,-7.8958693,0.6109314,-1.3316574
0.698,5.2173233,23.614489,7.5482445,-8.015251,0.745043,-1.3447617
0.7,5.4978447,24.35065,7.4646697,-8.128948,0.880003,-1.3601799
0.702,5.7736597,25.07291,7.36586,-8.23698,1.0154092,-1.378242
0.704,6.0405045,25.780926,7.2491307,-8.339328,1.1510752,-1.3991791
0.706,6.2940254,26.474035,7.1121016,-8.4359255,1.2870033,-1.4231635
0.708,6.5300827,27.15156,6.952879,-8.526666,1.4233768,-1.450302
0.71,6.7446985,27.812773,6.769981,-8.611399,1.5605462,-1.4806434
0.712,6.934304,28.456888,6.5622025,-8.68997,1.6989541,-1.5142039
0.714,7.0955815,29.082981,6.328432,-8.762278,1.839051,-1.5509754
0.716,7.2257924,29.690046,6.0679145,-8.828307,1.9811614,-1.5909762
0.718,7.3228025,30.276764,5.7801304,-8.888186,2.1254013,-1.6342216
0.72,7.3845854,30.84209,5.4647713,-8.942201,2.2715712,-1.6807237
0.722,7.4103065,31.38485,5.121804,-8.990793,2.419125,-1.7304761
0.724,7.3997498,31.903843,4.75172,-9.034552,2.5671,-1.783422
0.726,7.3531303,32.39805,4.355867,-9.074169,2.7141654,-1.8394806
0.728,7.271552,32.866177,3.9358225,-9.110432,2.858744,-1.898548
0.73,7.1567945,33.307034,3.493319,-9.144107,2.9990246,-1.9604187
0.732,7.0112104,33.719612,3.0304914,-9.175911,3.13317,-2.0248494
0.734,6.837388,34.10307,2.5498824,-9.206436,3.2594073,-2.0915728
0.736,6.6374993,34.4568,2.052494,-9.236144,3.3760834,-2.1602905
0.738,6.4162254,34.77908,1.5395551,-9.265398,3.4817488,-2.2307115
0.74,6.177138,35.069756,1.0161245,-9.294434,3.5752256,-2.3025746
0.742,5.9239974,35.328674,0.48721778,-9.323429,3.6556315,-2.3756387
0.744,5.6610565,35.555595,-0.042857885,-9.352552,3.7223678,-2.4497015
0.746,5.392453,35.750156,-0.5705354,-9.381956,3.77512,-2.524579
0.748,5.121998,35.912773,-1.0926151,-9.411749,3.8138902,-2.6000881
0.75,4.852776,36.044376,-1.6061537,-9.44201,3.838925,-2.6760826
0.752,4.5873923,36.146214,-2.1074414,-9.472732,3.8507297,-2.752418
0.754,4.3273,36.219944,-2.5930996,-9.503772,3.8501024,-2.8290071
0.756,4.073458,36.267445,-3.060525,-9.534853,3.838048,-2.9058366
0.758,3.8261662,36.290882,-3.5077496,-9.565586,3.8157353,-2.9829383
0.76,3.5854414,36.292862,-3.9328384,-9.595436,3.7844644,-3.0603945
0.762,3.3503904,36.27585,-4.3345337,-9.623764,3.7456117,-3.1383524
0.764,3.1198163,36.24262,-4.7121596,-9.649827,3.7006469,-3.2170527
0.766,2.8918486,36.195953,-5.0653176,-9.672807,3.6510344,-3.2967455
0.768,2.6642103,36.138424,-5.39405,-9.691908,3.5981336,-3.377668
0.77,2.4346766,36.073517,-5.700147,-9.706329,3.5433085,-3.4601092
0.772,2.200201,36.004086,-5.9853373,-9.7153425,3.4879313,-3.544327
0.774,1.9583607,35.93257,-6.251886,-9.718332,3.433253,-3.6305046
0.776,1.7064443,35.861378,-6.502556,-9.714819,3.3803494,-3.7187572
0.778,1.4422083,35.792866,-6.74125,-9.704431,3.3301294,-3.8091538
0.78,1.1642189,35.728294,-6.971276,-9.686932,3.2834563,-3.9016726
0.782,0.87136745,35.66914,-7.1940384,-9.662207,3.241145,-3.996237
0.784,0.56269836,35.615993,-7.4119687,-9.630229,3.2041326,-4.092736
0.786,0.23858452,35.569065,-7.626863,-9.590971,3.1735327,-4.190888
0.788,-0.100066185,35.528805,-7.8407006,-9.544344,3.1506748,-4.2903023
0.79,-0.4512167,35.494858,-8.0559845,-9.4901495,3.1371002,-4.390514
0.792,-0.8123541,35.46664,-8.274461,-9.428059,3.1345737,-4.490991
0.794,-1.1800508,35.44297,-8.497292,-9.357602,3.1449227,-4.5912175
0.796,-1.5503416,35.42236,-8.72472,-9.278209,3.1699784,-4.690726
0.798,-1.9189596,35.402966,-8.956924,-9.189187,3.2114487,-4.7891283
0.8,-2.2805796,35.38297,-9.193326,-9.089825,3.2707474,-4.886245
0.802,-2.6295557,35.360138,-9.43317,-8.979446,3.3489413,-4.9821224
0.804,-2.9605103,35.332233,-9.675812,-8.857482,3.446696,-5.0769053
0.806,-3.2678576,35.2963,-9.921175,-8.723459,3.5642319,-5.1708007
0.808,-3.5466833,35.250237,-10.168467,-8.577113,3.7013335,-5.264074
0.81,-3.7922964,35.191708,-10.417594,-8.418322,3.8573194,-5.357005
0.812,-4.000724,35.118546,-10.667971,-8.247073,4.0311694,-5.44989
0.814,-4.168355,35.02844,-10.919378,-8.063507,4.221516,-5.5429535
0.816,-4.2924194,34.919273,-11.171501,-7.867901,4.4266725,-5.636305
0.818,-4.3707495,34.78898,-11.424568,-7.6606045,4.644667,-5.729951
0.82,-4.4022036,34.635525,-11.678999,-7.4420166,4.87322,-5.823826
0.822,-4.3866863,34.457382,-11.935755,-7.212626,5.109804,-5.917798
0.824,-4.324917,34.253242,-12.196022,-6.9730387,5.351512,-6.011592
0.826,-4.218811,34.02215,-12.461419,-6.7239904,5.5951657,-6.104834
0.828,-4.0709467,33.76356,-12.733701,-6.4662957,5.8374867,-6.1970625
0.83,-3.884431,33.47674,-13.014749,-6.200876,6.075137,-6.2876964
0.832,-3.663537,33.161407,-13.306002,-5.9286904,6.304783,-6.376029
0.834,-3.4127083,32.81764,-13.609169,-5.6506867,6.5230265,-6.461275
0.836,-3.136695,32.4457,-13.925618,-5.3677454,6.7265043,-6.542649
0.838,-2.8408022,32.046417,-14.256357,-5.0807123,6.9119406,-6.6193905
0.84,-2.5303526,31.620615,-14.60178,-4.7903943,7.0761385,-6.6908345
0.842,-2.2107067,31.16947,-14.962236,-4.4975877,7.2160397,-6.756386
0.844,-1.8871098,30.69428,-15.337808,-4.203089,7.3287354,-6.8155055
0.846,-1.5636301,30.196747,-15.726732,-3.907736,7.411434,-6.8677683
0.848,-1.2460117,29.679747,-16.12771,-3.612436,7.4615602,-6.91282
0.85,-0.93763447,29.144695,-16.54232,-3.3181608,7.4767885,-6.950349
0.852,-0.6416931,28.593466,-16.970184,-3.025991,7.4550915,-6.980152
0.854,-0.36110878,28.028595,-17.408752,-2.737099,7.3948965,-7.0020237
0.856,-0.09797478,27.452637,-17.854574,-2.4527018,7.2950864,-7.0157833
0.858,0.14610386,26.867847,-18.303875,-2.1740472,7.1551037,-7.021399
0.86,0.37070274,26.276314,-18.752895,-1.902334,6.9750423,-7.018963
0.862,0.57545567,25.680532,-19.198826,-1.638663,6.7556524,-7.0086265
0.864,0.7610502,25.083134,-19.639091,-1.3840089,6.4983907,-6.9905996
0.866,0.9279156,24.486576,-20.070297,-1.1392355,6.205292,-6.965191
0.868,1.0767765,23.893354,-20.48867,-0.9050312,5.878972,-6.9328313
0.87,1.2085114,23.305902,-20.89095,-0.6818807,5.5225515,-6.894026
0.872,1.3242798,22.726583,-21.27362,-0.47014594,5.139545,-6.8492804
0.874,1.4253149,22.157354,-21.633165,-0.2700082,4.7338076,-6.7990675
0.876,1.5129514,21.59992,-21.966455,-0.081468105,4.3093715,-6.743799
0.878,1.5890269,21.056255,-22.270788,0.095638156,3.8703747,-6.683823
0.88,1.6549406,20.527454,-22.543064,0.26163065,3.420906,-6.6194515
0.882,1.7124095,20.015331,-22.781326,0.4169538,2.9649794,-6.5509048
0.884,1.7627301,19.521635,-22.984087,0.5621712,2.5064793,-6.4783354
0.886,1.8075581,19.047558,-23.1501,0.69793385,2.0490513,-6.401828
0.888,1.8486624,18.59425,-23.277912,0.82495236,1.5960994,-6.321397
0.89,1.8872452,18.163294,-23.367332,0.94394577,1.1506932,-6.2370462
0.892,1.9246941,17.755484,-23.42014,1.0555987,0.71553254,-6.1488447
0.894,1.9626436,17.3719,-23.43733,1.1605439,0.29289854,-6.056908
0.896,2.0018892,17.013538,-23.421295,1.2593317,-0.11534071,-5.961433
0.898,2.043037,16.680859,-23.374052,1.3524464,-0.50777006,-5.8627048
0.9,2.0868695,16.374645,-23.297337,1.4402809,-0.8834187,-5.7611113
0.902,2.1342268,16.095364,-23.19347,1.5231473,-1.2417643,-5.657158
0.904,2.1855967,15.843412,-23.064814,1.6013018,-1.5826478,-5.551518
0.906,2.2411606,15.618993,-22.914425,1.6749787,-1.9062444,-5.444928
0.908,2.3014944,15.422194,-22.745016,1.7444009,-2.2130182,-5.3382545
0.91,2.3660333,15.252587,-22.559717,1.809794,-2.5036938,-5.2324467
0.912,2.434464,15.10962,-22.361359,1.871379,-2.7791784,-5.128525
0.914,2.5062866,14.992943,-22.152634,1.929354,-3.0405536,-5.0275164
0.916,2.5809226,14.902233,-21.935951,1.9839013,-3.2890084,-4.930473
0.918,2.657478,14.836966,-21.713732,2.0351994,-3.525742,-4.838404
0.92,2.7352972,14.796169,-21.487686,2.0833886,-3.7519522,-4.7522373
0.922,2.813404,14.778485,-21.259369,2.1285686,-3.9688041,-4.6727533
0.924,2.8903444,14.782626,-21.029757,2.1707783,-4.1773367,-4.6006017
0.926,2.9650187,14.80718,-20.799759,2.2100317,-4.3784404,-4.5362816
0.928,3.036086,14.850608,-20.569653,2.246315,-4.5728483,-4.480144
0.93,3.1025164,14.911341,-20.33967,2.2795846,-4.761092,-4.432365
0.932,3.1634822,14.987512,-20.1096,2.3097227,-4.94357,-4.3930016
0.934,3.2183352,15.077124,-19.878893,2.3365693,-5.1205616,-4.3619914
0.936,3.266831,15.178056,-19.646444,2.3599184,-5.2922544,-4.3392406
0.938,3.3088205,15.2883,-19.411154,2.379529,-5.458766,-4.3246155
0.94,3.3444133,15.406097,-19.172007,2.3951473,-5.620174,-4.3179994
0.942,3.3737638,15.529541,-18.928406,2.4065425,-5.776479,-4.319274
0.944,3.3975182,15.656546,-18.679384,2.4135375,-5.927559,-4.3283114
0.946,3.4163973,15.785025,-18.4239,2.4160125,-6.073121,-4.345016
0.948,3.4316187,15.91302,-18.16082,2.4139462,-6.212699,-4.3693476
0.95,3.4441383,16.03887,-17.888868,2.4073837,-6.3455544,-4.401321
0.952,3.4551923,16.160799,-17.606707,2.3964524,-6.4706793,-4.440946
0.954,3.4659421,16.277122,-17.313208,2.3813653,-6.5867815,-4.4881935
0.956,3.477275,16.386423,-17.007446,2.3624012,-6.692359,-4.5429974
0.958,3.4896703,16.487236,-16.68834,2.339881,-6.785787,-4.6052322
0.96,3.5035017,16.57864,-16.355024,2.3141227,-6.865417,-4.6747637
0.962,3.5185041,16.65994,-16.006996,2.2854557,-6.9296465,-4.7514124
0.964,3.534555,16.73077,-15.644356,2.2541826,-6.9770293,-4.834961
0.966,3.5509667,16.791016,-15.267422,2.2205815,-7.006304,-4.9251676
0.968,3.5670629,16.840239,-14.876566,2.1849113,-7.0164332,-5.0217886
0.97,3.581791,16.878233,-14.47188,2.1474228,-7.0066366,-5.1245904
0.972,3.5939326,16.905167,-14.053762,2.1083572,-6.976346,-5.233384
0.974,3.601801,16.921629,-13.623254,2.0679893,-6.925113,-5.347981
0.976,3.6038456,16.92855,-13.181774,2.0265944,-6.8525786,-5.468198
0.978,3.5986805,16.926949,-12.731212,1.9844441,-6.75848,-5.593794
0.98,3.5847893,16.91788,-12.273467,1.9417876,-6.6426153,-5.724456
0.982,3.560955,16.902622,-11.810852,1.8988533,-6.5048428,-5.8597603
0.984,3.526464,16.88278,-11.346287,1.855843,-6.3451214,-5.9991918
0.986,3.4804482,16.86021,-10.882341,1.8129486,-6.1635423,-6.142156
0.988,3.4228973,16.836681,-10.421619,1.770312,-5.960351,-6.288019
0.99,3.3544483,16.814156,-9.966711,1.7280579,-5.7359896,-6.436099
0.992,3.2760167,16.794416,-9.520049,1.6862794,-5.491085,-6.585726
0.994,3.1896439,16.779182,-9.083839,1.6450626,-5.2264194,-6.7362804
0.996,3.0977488,16.770302,-8.6606455,1.6044611,-4.942938,-6.88731
0.998,3.0029664,16.769695,-8.2526455,1.5645472,-4.6417117,-7.0384936
1,2.908506,16.779333,-7.86199,1.5253847,-4.323847,-7.1895475
1.002,2.8183823,16.801334,-7.490819,1.4870281,-3.990419,-7.3402095
1.004,2.7371626,16.83761,-7.140421,1.4495413,-3.6424572,-7.4902806
1.006,2.6694436,16.889917,-6.8125076,1.4129755,-3.2809687,-7.639653
1.008,2.620685,16.959856,-6.5078053,1.3773755,-2.9069004,-7.7882547
1.01,2.595883,17.048985,-6.227008,1.3427442,-2.521076,-7.9360614
1.012,2.6003451,17.158897,-5.970621,1.3090743,-2.124229,-8.083034
1.014,2.639585,17.290424,-5.7393203,1.2763635,-1.7169831,-8.229101
1.016,2.7184663,17.444733,-5.5327725,1.2445917,-1.2998501,-8.374173
1.018,2.8420968,17.622818,-5.350299,1.213786,-0.8732166,-8.518158
1.02,3.0144992,17.825825,-5.1913667,1.1840065,-0.43742537,-8.660994
1.022,3.2389212,18.054825,-5.0554886,1.1553364,0.0072745085,-8.802616
1.024,3.51864,18.310318,-4.9420443,1.1278981,0.4607035,-8.9429245
1.026,3.8562083,18.592773,-4.8507915,1.1018527,0.9227046,-9.08181
1.028,4.253355,18.902674,-4.7815375,1.077409,1.3930732,-9.219179
1.03,4.711186,19.240612,-4.734367,1.0548122,1.871522,-9.354995
1.032,5.230138,19.607254,-4.7097406,1.0343194,2.3576837,-9.489298
1.034,5.8097663,20.002853,-4.7081637,1.0162039,2.851192,-9.622185
1.036,6.4489923,20.42744,-4.7299623,1.0007684,3.3515947,-9.75382
1.038,7.1457067,20.8813,-4.7761164,0.9883013,3.8582983,-9.88437
1.04,7.8975263,21.364403,-4.8481717,0.97913265,4.3707314,-10.013908
1.042,8.701007,21.877018,-4.947633,0.9735737,4.8882513,-10.142445
1.044,9.552273,22.418995,-5.0762186,0.97191954,5.4101653,-10.269897
1.046,10.446585,22.990189,-5.2354946,0.97442484,5.935689,-10.396027
1.048,11.378356,23.590109,-5.427014,0.9813328,6.463928,-10.520345
1.05,12.3419075,24.217922,-5.6521406,0.992836,6.9938726,-10.64216
1.052,13.331286,24.87244,-5.911964,1.0090575,7.524374,-10.760654
1.054,14.339606,25.552473,-6.2074785,1.030055,8.054176,-10.874926
1.056,15.360453,26.256086,-6.539455,1.0558662,8.581936,-10.984008
1.058,16.38719,26.981144,-6.908379,1.0864887,9.1063595,-11.086805
1.06,17.413342,27.724909,-7.314156,1.1219215,9.626347,-11.182112
1.062,18.432592,28.48425,-7.7559404,1.1622086,10.1410055,-11.268634
1.064,19.439363,29.255713,-8.231821,1.2074418,10.649736,-11.345001
1.066,20.42819,30.035313,-8.739796,1.2577796,11.152281,-11.409718
1.068,21.39421,30.819109,-9.276609,1.3134174,11.64875,-11.461235
1.07,22.333826,31.602303,-9.83887,1.3746243,12.139582,-11.497915
1.072,23.24396,32.379986,-10.422398,1.4416842,12.625484,-11.518124
1.074,24.122034,33.14692,-11.022326,1.5149031,13.107324,-11.520212
1.076,24.96675,33.898018,-11.633498,1.5945559,13.586029,-11.502698
1.078,25.77799,34.62839,-12.250744,1.6808519,14.062454,-11.464294
1.08,26.556292,35.333282,-12.868481,1.7738657,14.537308,-11.404023
1.082,27.303553,36.007812,-13.480762,1.8734732,15.011049,-11.3211975
1.084,28.023249,36.64735,-14.081442,1.9793372,15.483828,-11.21544
1.086,28.719664,37.24775,-14.664553,2.0908556,15.9553995,-11.086711
1.088,29.39764,37.80497,-15.224181,2.2071686,16.425024,-10.935285
1.09,30.062414,38.315533,-15.754832,2.327116,16.89159,-10.761738
1.092,30.72249,38.77736,-16.252373,2.4492955,17.353662,-10.566866
1.094,31.384644,39.188335,-16.711946,2.5720758,17.809439,-10.351738
1.096,32.056114,39.547215,-17.13145,2.693697,18.25689,-10.117479
1.098,32.74663,39.852726,-17.509436,2.8122926,18.693924,-9.865408
1.1,33.464966,40.1044,-17.844082,2.9259956,19.118488,-9.596912
1.102,34.2197,40.30294,-18.134693,3.032961,19.528635,-9.313458
1.104,35.019547,40.449562,-18.382648,3.1314063,19.92263,-9.016501
1.106,35.87333,40.54612,-18.589457,3.219686,20.299032,-8.707486
1.108,36.7897,40.594357,-18.757597,3.2962878,20.656698,-8.387816
1.11,37.7773,40.595863,-18.888788,3.3598995,20.994823,-8.0588665
1.112,38.843163,40.553368,-18.986265,3.4094405,21.31289,-7.7219877
1.114,39.9926,40.47077,-19.055456,3.4440684,21.610577,-7.3785424
1.116,41.231018,40.35163,-19.101318,3.4631503,21.887686,-7.029886
1.118,42.56263,40.199852,-19.129202,3.4663038,22.144096,-6.6774
1.12,43.99025,40.01962,-19.143692,3.4533381,22.37984,-6.322407
1.122,45.51712,39.813927,-19.147867,3.4241035,22.594622,-5.966121
1.124,47.1443,39.586964,-19.145903,3.3784597,22.787832,-5.6097803
1.126,48.87211,39.342827,-19.143154,3.3162968,22.95896,-5.254505
1.128,50.700253,39.08461,-19.143332,3.2373796,23.107224,-4.90116
1.13,52.62767,38.814995,-19.14761,3.1412525,23.23149,-4.550394
1.132,54.65354,38.53587,-19.156769,3.0273666,23.33068,-4.2025547
1.134,56.7764,38.249763,-19.171505,2.8950732,23.40383,-3.8576708
1.136,58.994423,37.959297,-19.191235,2.7435598,23.449915,-3.5155847
1.138,61.305763,37.66735,-19.215355,2.5718927,23.468115,-3.1758864
1.14,63.708897,37.377155,-19.243645,2.3790069,23.45809,-2.8378272
1.142,66.204056,37.09192,-19.27567,2.1638825,23.42009,-2.5003912
1.144,68.79082,36.816067,-19.31136,1.9255613,23.354881,-2.1624725
1.146,71.46897,36.554512,-19.351208,1.6630626,23.26382,-1.8228402
1.148,74.23848,36.313496,-19.39413,1.3753903,23.148941,-1.479992
1.15,77.0982,36.101437,-19.440681,1.0615767,23.013062,-1.1321313
1.152,80.04442,35.930252,-19.491674,0.7205678,22.859629,-0.77724135
1.154,83.072914,35.810654,-19.543808,0.3514564,22.692755,-0.41320628
1.156,86.18227,35.748158,-19.589754,-0.04646218,22.517239,-0.038000464
1.158,89.36716,35.760628,-19.6246,-0.4738475,22.33811,0.35039353
1.16,92.62689,35.872208,-19.647419,-0.93126965,22.16039,0.7540355
1.162,95.95775,36.10916,-19.663467,-1.4190977,21.989145,1.1749635
1.164,99.35438,36.49395,-19.67097,-1.937542,21.829144,1.6150482
1.166,102.8112,37.064007,-19.671951,-2.486722,21.684406,2.0759366
1.168,106.32362,37.858627,-19.671633,-3.066574,21.557972,2.5591564
1.17,109.87354,38.925766,-19.671646,-3.676953,21.451874,3.06621
1.172,113.47406,40.276787,-19.682076,-4.3175426,21.367092,3.5985599
1.174,117.112656,41.94398,-19.715237,-4.988083,21.303078,4.157606
1.176,120.759125,43.992355,-19.763351,-5.6883373,21.257778,4.7445474
1.178,124.42558,46.4115,-19.787771,-6.418038,21.227404,5.360247
1.18,128.13637,49.256683,-19.87499,-7.177136,21.205666,6.0050383
1.182,131.92178,52.54844,-20.10244,-7.966056,21.183472,6.6785297
1.184,135.74127,56.293182,-20.422945,-8.786236,21.148453,7.379873
1.186,139.55684,60.535313,-20.845184,-9.639821,21.085306,8.108349
1.188,143.39621,65.386185,-21.328423,-10.528698,20.976273,8.862923
1.19,147.25685,70.83004,-21.824575,-11.454822,20.800732,9.641341
1.192,151.1271,76.7946,-22.305256,-12.421139,20.533562,10.440697
1.194,155.02167,83.266235,-22.757656,-13.430746,20.147259,11.259535
1.196,158.95178,90.18683,-23.109653,-14.486189,19.612324,12.097312
1.198,162.95143,97.54202,-23.386436,-15.58904,18.897896,12.953506
1.2,167.0604,105.30385,-23.609924,-16.740057,17.973732,13.8273535
1.202,171.3036,113.37233,-23.695667,-17.937977,16.811409,14.722586
1.204,175.7168,121.65261,-23.586708,-19.177395,15.386504,15.647927
1.206,180.34494,130.06137,-23.263134,-20.45168,13.672791,16.614304
1.208,185.19162,138.49162,-22.659874,-21.749996,11.64924,17.643297
1.21,190.23671,146.83199,-21.704147,-23.0544,9.30566,18.755981
1.212,195.43816,154.9697,-20.317726,-24.34574,6.641383,19.957905
1.214,200.61707,162.68605,-18.48397,-25.606441,3.6614609,21.26413
1.216,205.9964,169.6146,-16.20404,-26.832375,0.3841524,22.685747
1.218,211.55522,175.80588,-13.314348,-28.0363,-3.1730413,24.218742
1.22,217.17915,181.2398,-9.771564,-29.229816,-6.9981604,25.841862
1.222,222.83665,185.76218,-5.498696,-30.411613,-11.069852,27.525467
1.224,228.42871,189.24286,-0.42668867,-31.576145,-15.343272,29.237652
1.226,233.88625,191.56743,5.4761925,-32.734055,-19.737946,30.892204
1.228,239.08588,192.66217,12.22521,-33.91991,-24.191315,32.41019
1.23,243.8655,192.4993,19.816372,-35.156975,-28.638355,33.691696
1.232,248.05481,191.09393,28.215816,-36.452744,-33.014843,34.620537
1.234,251.5038,188.49472,37.357803,-37.797203,-37.257484,35.069824
1.236,254.10178,184.74236,47.149975,-39.147995,-41.306374,34.90974
1.238,255.74936,179.86519,57.47381,-40.422512,-45.10466,34.015564
1.24,256.32288,173.95653,68.19405,-41.502434,-48.598186,32.280594
1.242,255.70752,167.14456,79.17276,-42.2407,-51.717213,29.630764
1.244,253.83516,159.57474,90.20691,-42.47502,-54.3768,26.049183
1.246,250.67288,151.3994,101.06512,-42.03922,-56.49917,21.633469
1.248,246.21187,142.77866,111.52448,-40.799507,-58.010796,16.489439
1.25,240.48294,133.88031,121.3695,-38.675537,-58.831696,10.75103
1.252,233.55327,124.88246,130.38647,-35.64844,-58.89228,4.6247253
1.254,225.52707,115.96687,138.374,-31.769835,-58.13641,-1.6273918
1.256,216.54155,107.316696,145.15077,-27.160046,-56.52958,-7.708336
1.258,206.75775,99.119385,150.56291,-21.997557,-54.068367,-13.3058815
1.26,196.35477,91.54475,154.49107,-16.498783,-50.77825,-18.120916
1.262,185.52727,84.72457,156.85324,-10.899124,-46.721718,-21.905945
1.264,174.47421,78.76424,157.60446,-5.431095,-41.9988,-24.479761
1.266,163.38573,73.75022,156.74051,-0.30273247,-36.7428,-25.740862
1.268,152.44656,69.73339,154.30759,4.311326,-31.115086,-25.703327
1.27,141.82384,66.73572,150.40009,8.287918,-25.299156,-24.485022
1.272,131.66785,64.75502,145.15125,11.55991,-19.472511,-22.295727
1.274,122.10622,63.76626,138.71672,14.098759,-13.801568,-19.418354
1.276,113.23851,63.706337,131.27916,15.910593,-8.452536,-16.181355
1.278,105.134155,64.4914,123.03937,17.050165,-3.5823088,-12.918055
1.28,97.84402,66.014366,114.200836,17.627542,0.67648077,-9.893761
1.282,91.36081,68.18458,104.97427,17.788746,4.2635927,-7.344162
1.284,85.680305,70.8703,95.56206,17.669567,7.1538334,-5.4177976
1.286,80.78526,73.90608,86.134865,17.395716,9.35802,-4.1793942
1.288,76.597694,77.1938,76.826836,17.07972,10.918987,-3.6217618
1.29,73.02609,80.5654,67.86353,16.80574,11.909332,-3.68212
1.292,69.97837,83.89644,59.399593,16.62624,12.424682,-4.255762
1.294,67.42309,87.07726,51.44347,16.566856,12.575854,-5.213725
1.296,65.3038,89.972626,44.054512,16.628267,12.469717,-6.4186583
1.298,63.50125,92.42136,37.23251,16.79267,12.211057,-7.743929
1.3,61.940826,94.41229,30.97126,17.026407,11.910171,-9.103336
1.302,60.560448,95.96968,25.279808,17.300016,11.656641,-10.35783
1.304,59.281784,97.049576,20.167875,17.588717,11.502521,-11.383878
1.306,58.04547,97.65419,15.58366,17.86919,11.474855,-12.122788
1.308,56.787186,97.74909,11.561331,18.125286,11.57179,-12.556051
1.31,55.45822,97.330925,8.101084,18.347517,11.770035,-12.694579
1.312,54.03704,96.46481,5.1006746,18.531075,12.033424,-12.570933
1.314,52.50354,95.19731,2.5066328,18.673843,12.31759,-12.228317
1.316,50.839424,93.55958,0.3052492,18.773468,12.575907,-11.713963
1.318,49.064754,91.605385,-1.5594416,18.825893,12.766441,-11.07666
1.32,47.20908,89.387245,-3.136526,18.828405,12.85922,-10.364443
1.322,45.299988,86.95665,-4.466115,18.781664,12.838537,-9.61913
1.324,43.445866,84.44575,-5.529707,18.684557,12.697355,-8.866895
1.326,41.376617,82.056114,-6.315506,18.532682,12.434006,-8.116934
1.328,39.123867,79.58092,-6.9595537,18.32435,12.056292,-7.367992
1.33,36.77782,76.97522,-7.4563923,18.064043,11.584187,-6.615834
1.332,34.321236,74.34677,-7.838868,17.759167,11.04335,-5.857101
1.334,31.791872,71.765976,-8.130221,17.417694,10.461025,-5.0899744
1.336,29.18484,69.28544,-8.328187,17.048426,9.865877,-4.314272
1.338,26.538631,66.92569,-8.4362755,16.660694,9.28486,-3.5315042
1.34,23.906483,64.684494,-8.461185,16.263441,8.740309,-2.7441702
1.342,21.324726,62.551636,-8.406357,15.864647,8.249122,-1.9536624
1.344,18.800854,60.52032,-8.272558,15.471152,7.8221884,-1.1608148
1.346,16.314114,58.619083,-8.065208,15.087953,7.4643364,-0.36942863
1.348,13.856491,56.898193,-7.7954235,14.718118,7.175036,0.4135127
1.35,11.462553,55.35337,-7.483103,14.362825,6.9495344,1.1799102
1.352,9.166468,53.969345,-7.1594,14.021362,6.7797155,1.9220681
1.354,6.974203,52.73607,-6.8083506,13.691373,6.6551576,2.6335444
1.356,4.887995,51.652035,-6.413168,13.369329,6.5645514,3.3092794
1.358,2.9178371,50.716064,-5.981737,13.051014,6.4969254,3.945435
1.36,1.0655861,49.92285,-5.529481,12.732185,6.4424295,4.5391197
1.362,-0.6705265,49.259064,-5.065113,12.409149,6.392928,5.088211
1.364,-2.293335,48.70747,-4.594882,12.079116,6.342508,5.591368
1.366,-3.8074837,48.247555,-4.1232424,11.740523,6.28761,6.0480313
1.368,-5.215559,47.85295,-3.6543713,11.393063,6.2269516,6.4584346
1.37,-6.517523,47.50908,-3.1912746,11.037695,6.161291,6.8235073
1.372,-7.715082,47.221554,-2.736638,10.67656,6.09311,7.1450057
1.374,-8.809638,46.99891,-2.2925816,10.312784,6.026099,7.425474
1.376,-9.800131,46.842987,-1.8620505,9.950178,5.9646435,7.668235
1.378,-10.687519,46.749664,-1.4515262,9.592869,5.9132943,7.8772388
1.38,-11.476956,46.7127,-1.0702009,9.245047,5.8763433,8.056919
1.382,-12.174213,46.724483,-0.72589874,8.910605,5.857381,8.211811
1.384,-12.786755,46.77938,-0.42613292,8.592951,5.8589535,8.346318
1.386,-13.322585,46.872154,-0.17729318,8.294785,5.882219,8.464476
1.388,-13.7898,46.99907,0.015072644,8.017972,5.926708,8.569731
1.39,-14.196582,47.15692,0.14693692,7.763449,5.9902825,8.664867
1.392,-14.5511265,47.343464,0.21525235,7.531229,6.0691004,8.751928
1.394,-14.861258,47.55759,0.21862069,7.3204136,6.157685,8.832296
1.396,-15.135164,47.798637,0.1573292,7.129317,6.2490473,8.906818
1.398,-15.381175,48.065834,0.033410788,6.955611,6.3349767,8.976033
1.4,-15.607851,48.35723,-0.14953995,6.7964716,6.406405,9.040376
1.402,-15.822807,48.67035,-0.38613617,6.6488237,6.4538074,9.100356
1.404,-16.03226,49.00245,-0.6699915,6.509513,6.4676857,9.15677
1.406,-16.244373,49.35158,-0.9927354,6.37548,6.4389243,9.210782
1.408,-16.463367,49.7134,-1.3461506,6.24378,6.359082,9.263997
1.41,-16.691647,50.082638,-1.7231748,6.1116786,6.220909,9.318493
1.412,-16.931955,50.454144,-2.1144981,5.976643,6.018506,9.376694
1.414,-17.186184,50.82103,-2.5093336,5.836364,5.747465,9.441071
1.416,-17.454798,51.176186,-2.8965225,5.688769,5.405021,9.513899
1.418,-17.738182,51.51132,-3.2644777,5.532016,4.9899755,9.596955
1.42,-18.034657,51.817127,-3.6020217,5.3644376,4.502549,9.691202
1.422,-18.341185,52.08327,-3.8986301,5.1846027,3.9443066,9.796582
1.424,-18.654572,52.29978,-4.1444173,4.9913425,3.3180003,9.91185
1.426,-18.97004,52.45639,-4.3294773,4.783738,2.6273444,10.034447
1.428,-19.281618,52.543106,-4.445358,4.561219,1.8769364,10.160543
1.43,-19.58364,52.550644,-4.484459,4.323699,1.0721526,10.285173
1.432,-19.870262,52.47029,-4.439754,4.0716796,0.21909319,10.402542
1.434,-20.135712,52.293694,-4.3047004,3.8061862,-0.67538047,10.506275
1.436,-20.372154,52.01275,-4.073777,3.5289345,-1.6033146,10.589507
1.438,-20.57301,51.62104,-3.7434788,3.2423792,-2.5555823,10.645563
1.44,-20.733803,51.113754,-3.3108277,2.9494042,-3.522333,10.668374
1.442,-20.852783,50.48781,-2.7737284,2.6533108,-4.492916,10.652735
1.444,-20.928228,49.741524,-2.1328592,2.3576565,-5.45578,10.594764
1.446,-20.958792,48.874413,-1.3912334,2.0661168,-6.3985977,10.492259
1.448,-20.943077,47.888298,-0.55186653,1.7821157,-7.3086505,10.344711
1.45,-20.881207,46.789234,0.3821926,1.5085781,-8.173036,10.153461
1.452,-20.776028,45.589592,1.408885,1.2477832,-8.978843,9.921661
1.454,-20.634277,44.29882,2.5223417,1.0012412,-9.713612,9.653878
1.456,-20.458725,42.925198,3.7120643,0.7696227,-10.365813,9.355805
1.458,-20.254116,41.477413,4.968444,0.5528165,-10.925286,9.03389
1.46,-20.024956,39.965405,6.2808185,0.35015404,-11.383566,8.694894
1.462,-19.776428,38.400898,7.6372967,0.16066313,-11.734263,8.345418
1.464,-19.514416,36.796555,9.025264,-0.016759276,-11.973455,7.991472
1.466,-19.244009,35.164787,10.431173,-0.18308353,-12.0996,7.638404
1.468,-18.969551,33.517937,11.840487,-0.339038,-12.113587,7.290736
1.47,-18.69446,31.86811,13.238138,-0.48510408,-12.018822,6.951921
1.472,-18.421452,30.226936,14.608824,-0.62150156,-11.8211355,6.624268
1.474,-18.1529,28.605736,15.937709,-0.7482933,-11.528057,6.3089314
1.476,-17.890469,27.01521,17.21033,-0.8655927,-11.14866,6.006044
1.478,-17.63395,25.464573,18.413021,-0.9739158,-10.693528,5.714997
1.48,-17.38306,23.962011,19.533386,-1.074033,-10.1746025,5.4348497
1.482,-17.137472,22.515177,20.559996,-1.1666363,-9.604615,5.164447
1.484,-16.895874,21.130678,21.48269,-1.2527891,-8.996026,4.9016237
1.486,-16.656912,19.814276,22.293346,-1.3339242,-8.361302,4.6437955
1.488,-16.419395,18.571068,22.985321,-1.411443,-7.712963,4.3888173
1.49,-16.181362,17.404682,23.554304,-1.4864575,-7.0629716,4.135648
1.492,-15.941093,16.317755,23.998734,-1.5594895,-6.4222155,3.8842266
1.494,-15.696672,15.31138,24.319376,-1.6300324,-5.7998238,3.635473
1.496,-15.44635,14.386031,24.518513,-1.6966172,-5.2031565,3.391192
1.498,-15.188775,13.5409775,24.60016,-1.7569247,-4.6377935,3.1537037
1.5,-14.92304,12.774744,24.570208,-1.8080283,-4.1074314,2.9254448
1.502,-14.647955,12.084678,24.435917,-1.8467163,-3.6137936,2.7085
1.504,-14.363108,11.467507,24.206074,-1.870065,-3.1568546,2.5040834
1.506,-14.067795,10.919174,23.890738,-1.8760957,-2.7352138,2.3122861
1.508,-13.761407,10.43527,23.500599,-1.8642865,-2.3463295,2.1321983
1.51,-13.4432125,10.011745,23.046349,-1.8359094,-1.9869152,1.9621089
1.512,-13.113074,9.644503,22.538383,-1.7940829,-1.6533871,1.7998052
1.514,-12.771582,9.32924,21.987595,-1.7436118,-1.3422542,1.6430509
1.516,-12.4164295,9.060831,21.403759,-1.6905247,-1.0503908,1.4899855
1.518,-12.048509,8.836798,20.797228,-1.641474,-0.7752493,1.3393301
1.52,-11.668604,8.654237,20.17919,-1.6031351,-0.5150473,1.1903969
1.522,-11.275696,8.5099745,19.557922,-1.5815852,-0.26873267,1.0430623
1.524,-10.868905,8.401982,18.940311,-1.5817702,-0.035715163,0.8976419
1.526,-10.4478,8.328692,18.332335,-1.6073056,0.18420821,0.754639
1.528,-10.011062,8.288576,17.738462,-1.6603541,0.39078054,0.6144123
1.53,-9.558706,8.280909,17.162271,-1.7415687,0.58366185,0.47688657
1.532,-9.091249,8.305185,16.606922,-1.8502145,0.76283264,0.34138435
1.534,-8.608696,8.360443,16.074816,-1.9846567,0.9285517,0.20667797
1.536,-8.111862,8.446066,15.567138,-2.1428022,1.0810938,0.071430564
1.538,-7.601654,8.560982,15.084646,-2.321767,1.2204134,-0.065031886
1.54,-7.07865,8.703627,14.6273365,-2.5181468,1.3470638,-0.20339346
1.542,-6.543659,8.872587,14.194482,-2.728416,1.4622631,-0.34473228
1.544,-5.998335,9.066689,13.784446,-2.9491894,1.567381,-0.49032962
1.546,-5.445587,9.285139,13.395737,-3.1772985,1.6639183,-0.64142287
1.548,-4.8870225,9.5263195,13.026887,-3.4098368,1.7536204,-0.7989292
1.55,-4.323084,9.788519,12.675792,-3.6442342,1.8383137,-0.96337247
1.552,-3.753171,10.070124,12.340484,-3.8783097,1.9197906,-1.1349366
1.554,-3.1783438,10.369945,12.02046,-4.110352,1.9998109,-1.3134423
1.556,-2.6005764,10.687325,11.715393,-4.3391247,2.080013,-1.4982667
1.558,-2.021616,11.020479,11.423741,-4.563931,2.161772,-1.6883385
1.56,-1.4427805,11.366198,11.142479,-4.7845774,2.2461257,-1.8821809
1.562,-0.8635044,11.719091,10.867308,-5.0013456,2.333817,-2.0779958
1.564,-0.2810402,12.079859,10.597874,-5.2148886,2.4253855,-2.2738023
1.566,0.30269957,12.451858,10.336235,-5.426149,2.5211387,-2.4675426
1.568,0.88733816,12.838138,10.081837,-5.6362085,2.621219,-2.6572628
1.57,1.4724903,13.240835,9.834042,-5.846117,2.7256646,-2.8412638
1.572,2.0587502,13.660645,9.592512,-6.056704,2.834487,-3.0182104
1.574,2.6472368,14.097772,9.356903,-6.2684746,2.9477415,-3.1872535
1.576,3.2380924,14.553413,9.12694,-6.481474,3.0655942,-3.3480573
1.578,3.831149,15.028773,8.902708,-6.6952825,3.1883633,-3.5008006
1.58,4.426351,15.525176,8.684381,-6.908978,3.3164253,-3.6461205
1.582,5.0241013,16.043785,8.472442,-7.1212583,3.4502308,-3.7849658
1.584,5.62468,16.585379,8.267255,-7.330506,3.5904372,-3.9184122
1.586,6.228309,17.150967,8.069082,-7.534937,3.73766,-4.04759
1.588,6.8355756,17.741194,7.878616,-7.732605,3.8927975,-4.1734686
1.59,7.44687,18.356602,7.6965876,-7.9214616,4.056925,-4.296801
1.592,8.063191,18.997229,7.5237713,-8.099528,4.2310324,-4.4180255
1.594,8.68499,19.663038,7.360841,-8.26492,4.4161024,-4.5371203
1.596,9.313975,20.353432,7.2085123,-8.41591,4.6130266,-4.65362
1.598,9.952851,21.067705,7.0669966,-8.551081,4.8225646,-4.7666225
1.6,10.603545,21.804998,6.9360185,-8.6693325,5.0453386,-4.8749056
1.602,11.268885,22.563787,6.815296,-8.769938,5.2818046,-4.977066
1.604,11.951891,23.34218,6.7050147,-8.852549,5.532295,-5.071665
1.606,12.655783,24.138052,6.605198,-8.917141,5.7970614,-5.1573706
1.608,13.383532,24.94912,6.5156317,-8.9639845,6.076291,-5.233113
1.61,14.138422,25.772387,6.43579,-8.99357,6.3701024,-5.298168
1.612,14.923613,26.605127,6.365179,-9.006529,6.6785774,-5.352274
1.614,15.742153,27.444296,6.3024077,-9.00359,7.001784,-5.3956137
1.616,16.597696,28.286322,6.245668,-8.985438,7.3398004,-5.428773
1.618,17.493828,29.127209,6.1931887,-8.952705,7.692672,-5.4526634
1.62,18.433708,29.962465,6.142989,-8.905883,8.060433,-5.4684258
1.622,19.419823,30.787134,6.0926247,-8.845293,8.44308,-5.4772987
1.624,20.454102,31.59551,6.0396385,-8.771042,8.840543,-5.4804873
1.626,21.53738,32.381607,5.981678,-8.683061,9.252751,-5.479071
1.628,22.669926,33.13886,5.916134,-8.580966,9.679672,-5.473985
1.63,23.850792,33.86089,5.84042,-8.464082,10.121309,-5.4660983
1.632,25.078772,34.541073,5.751752,-8.33145,10.577614,-5.4562016
1.634,26.35163,35.17296,5.6471148,-8.181896,11.048533,-5.4450016
1.636,27.66608,35.750084,5.52341,-8.014059,11.53399,-5.4331613
1.638,29.017632,36.266415,5.377718,-7.8265,12.03375,-5.421363
1.64,30.400967,36.71606,5.2072296,-7.6177683,12.547527,-5.4103336
1.642,31.809788,37.09323,5.009432,-7.3866267,13.074559,-5.4008193
1.644,33.23703,37.392365,4.782219,-7.1320577,13.613803,-5.3935432
1.646,34.67436,37.608543,4.5238495,-6.853245,14.163988,-5.389252
1.648,36.112682,37.737453,4.2328615,-6.549735,14.723361,-5.388672
1.65,37.542603,37.775463,3.9083872,-6.2214007,15.289721,-5.3925056
1.652,38.953873,37.719498,3.5497227,-5.868395,15.860229,-5.4014683
1.654,40.335938,37.567394,3.1566381,-5.491251,16.43138,-5.416195
1.656,41.677597,37.31767,2.729292,-5.090818,16.999044,-5.4371204
1.658,42.967922,36.970078,2.2683835,-4.668309,17.55851,-5.464464
1.66,44.19556,36.5252,1.775099,-4.2253046,18.104437,-5.498112
1.662,45.34943,35.984726,1.2508562,-3.763689,18.631086,-5.537649
1.664,46.418827,35.35139,0.69742256,-3.2856343,19.132318,-5.582376
1.666,47.393387,34.628872,0.11746764,-2.7934985,19.601742,-5.631343
1.668,48.263054,33.822273,-0.48605156,-2.289812,20.03274,-5.683401
1.67,49.019073,32.937214,-1.1088791,-1.7772655,20.418531,-5.73721
1.672,49.654087,31.980179,-1.7465811,-1.2587395,20.752274,-5.791201
1.674,50.16152,30.958923,-2.394247,-0.7374015,21.027103,-5.8435497
1.676,50.53617,29.881714,-3.046589,-0.21672964,21.236322,-5.892214
1.678,50.77419,28.757809,-3.6978283,0.2993865,21.373589,-5.9349747
1.68,50.87342,27.597029,-4.3419027,0.80662584,21.433165,-5.969538
1.682,50.83342,26.409729,-4.9726295,1.3003087,21.410336,-5.9936085
1.684,50.655525,25.206818,-5.5837383,1.7754483,21.30178,-6.0049973
1.686,50.342785,23.999107,-6.1690464,2.227006,21.105972,-6.001871
1.688,49.899967,22.797739,-6.722498,2.6501637,20.823423,-5.982909
1.69,49.33349,21.61346,-7.2383137,3.0405416,20.456678,-5.9473553
1.692,48.651417,20.456865,-7.7113113,3.3943582,20.010292,-5.8950257
1.694,47.86322,19.337975,-8.136898,3.708644,19.49071,-5.826262
1.696,46.97985,18.266079,-8.511007,3.981349,18.905819,-5.741893
1.698,46.012974,17.24967,-8.83053,4.211295,18.264503,-5.643007
1.7,44.97518,16.296352,-9.093218,4.3981805,17.57628,-5.5307813
1.702,43.879616,15.412587,-9.297672,4.5425167,16.850842,-5.4064226
1.704,42.740013,14.603443,-9.443338,4.6456027,16.097733,-5.2711296
1.706,41.56907,13.8728695,-9.53095,4.709358,15.326071,-5.126036
1.708,40.37922,13.223442,-9.561631,4.7363596,14.544275,-4.972361
1.71,39.183365,12.656369,-9.537081,4.729714,13.759804,-4.811558
1.712,37.99327,12.171615,-9.460275,4.693014,12.979101,-4.645367
1.714,36.81994,11.768127,-9.335118,4.6302786,12.207586,-4.475851
1.716,35.67338,11.443367,-9.165956,4.545806,11.449617,-4.3053737
1.718,34.562904,11.193711,-8.957206,4.4440317,10.708614,-4.136527
1.72,33.496296,11.014559,-8.713659,4.3293595,9.987183,-3.9720387
1.722,32.480206,10.900406,-8.440655,4.205989,9.2872715,-3.8146544
1.724,31.5196,10.84514,-8.143399,4.0777793,8.610323,-3.6669753
1.726,30.617706,10.842312,-7.8270864,3.948079,7.9573936,-3.5313368
1.728,29.77655,10.884976,-7.4973164,3.819636,7.3293076,-3.4097013
1.73,28.99718,10.965927,-7.1594133,3.6944866,6.7266665,-3.3035686
1.732,28.279867,11.077684,-6.818034,3.5739672,6.1499615,-3.213941
1.734,27.624065,11.213237,-6.4779596,3.4587069,5.599517,-3.1413298
1.736,27.028755,11.365316,-6.143528,3.3486984,5.0754356,-3.085876
1.738,26.491837,11.527107,-5.8185577,3.243421,4.5776043,-3.0474226
1.74,26.010992,11.691662,-5.50641,3.141981,4.1056247,-3.0256596
1.742,25.58285,11.852421,-5.209792,3.0432127,3.6587837,-3.020178
1.744,25.203789,12.003351,-4.9308567,2.9458137,3.2360456,-3.0305328
1.746,24.869995,12.13889,-4.671132,2.8484561,2.8360624,-3.0562744
1.748,24.57759,12.254261,-4.4317045,2.7498925,2.457231,-3.0969439
1.75,24.322285,12.345465,-4.2133064,2.6489744,2.097717,-3.1520364
1.752,24.100025,12.409401,-4.0161653,2.5447133,1.7555474,-3.2209837
1.754,23.906528,12.443676,-3.840046,2.4363408,1.428705,-3.3030875
1.756,23.73785,12.44673,-3.6843166,2.323322,1.1152127,-3.3974686
1.758,23.59011,12.417763,-3.547822,2.2053583,0.81325144,-3.5030358
1.76,23.459404,12.356744,-3.4291677,2.0824342,0.5212579,-3.6184578
1.762,23.342335,12.264228,-3.3265224,1.9547668,0.23796165,-3.742183
1.764,23.23573,12.14152,-3.2378979,1.8227845,-0.037574768,-3.8724186
1.766,23.136702,11.99053,-3.161138,1.6870892,-0.3059361,-4.0072107
1.768,23.042671,11.813564,-3.0940638,1.5483646,-0.5674194,-4.144507
1.77,22.951427,11.613401,-3.0344071,1.4073206,-0.8220608,-4.2822404
1.772,22.86116,11.393156,-2.9798865,1.264672,-1.0697024,-4.4184046
1.774,22.770294,11.156288,-2.9283047,1.1210601,-1.3100625,-4.551181
1.776,22.677605,10.906498,-2.8776712,0.9770383,-1.542814,-4.679019
1.778,22.582005,10.64773,-2.8263497,0.83302504,-1.7676721,-4.8006706
1.78,22.483059,10.383942,-2.7731276,0.68933094,-1.9844065,-4.915203
1.782,22.380203,10.119035,-2.716907,0.546156,-2.1928585,-5.0219855
1.784,22.273306,9.856552,-2.6569471,0.4036218,-2.3930116,-5.12068
1.786,22.162561,9.600016,-2.5926404,0.261765,-2.5849605,-5.2111626
1.788,22.048399,9.352453,-2.5235615,0.12057084,-2.7688937,-5.2934895
1.79,21.931437,9.116426,-2.44947,-0.01998514,-2.9450467,-5.367874
1.792,21.812386,8.894276,-2.3701463,-0.15992367,-3.1137092,-5.434637
1.794,21.69176,8.687689,-2.285542,-0.2992472,-3.275138,-5.4941473
1.796,21.570454,8.49809,-2.195776,-0.43789476,-3.429551,-5.546821
1.798,21.449245,8.326527,-2.101071,-0.5757397,-3.577098,-5.593099
1.8,21.32913,8.173557,-2.001576,-0.7125814,-3.7178223,-5.6333985
1.802,21.210705,8.039383,-1.8976083,-0.8481478,-3.8516636,-5.6681137
1.804,21.094873,7.924094,-1.78936,-0.98210925,-3.9784546,-5.6975946
1.806,20.982117,7.8272715,-1.6772051,-1.1140674,-4.097934,-5.722166
1.808,20.873205,7.7483864,-1.5614214,-1.2436047,-4.209764,-5.7420692
1.81,20.768698,7.686398,-1.4423714,-1.3702905,-4.313543,-5.757476
1.812,20.669096,7.640398,-1.3203437,-1.49368,-4.408867,-5.768502
1.814,20.574718,7.6091456,-1.1956635,-1.6133624,-4.495311,-5.7752132
1.816,20.485939,7.591414,-1.0687933,-1.7289379,-4.572474,-5.7776637
1.818,20.402943,7.585791,-0.9400277,-1.8400214,-4.639967,-5.7759166
1.82,20.325829,7.5906787,-0.80981135,-1.9462574,-4.6974525,-5.7700477
1.822,20.25453,7.6048,-0.67858434,-2.047283,-4.7445946,-5.7601614
1.824,20.188948,7.626526,-0.5467081,-2.1427333,-4.781083,-5.746405
1.826,20.128908,7.6544495,-0.41452026,-2.2322593,-4.806621,-5.7289696
1.828,20.07396,7.6869802,-0.2824173,-2.3154826,-4.82093,-5.7080398
1.83,20.023785,7.7228146,-0.15087748,-2.3920538,-4.823782,-5.683808
1.832,19.977764,7.760701,-0.020200253,-2.4616218,-4.8149543,-5.656465
1.834,19.935486,7.7993083,0.10923767,-2.5238514,-4.7942944,-5.626169
1.836,19.89618,7.8375454,0.23719406,-2.578439,-4.7617335,-5.5930395
1.838,19.859152,7.874502,0.36332035,-2.625159,-4.7173038,-5.557148
1.84,19.823803,7.9094124,0.4872489,-2.6638107,-4.661159,-5.5185437
1.842,19.789396,7.941678,0.60841036,-2.6942816,-4.593599,-5.4772477
1.844,19.755335,7.9707465,0.7265496,-2.7165482,-4.5150714,-5.4332504
1.846,19.720928,7.996377,0.841187,-2.730686,-4.426149,-5.386551
1.848,19.68543,8.018303,0.9519832,-2.7368853,-4.327564,-5.337167
1.85,19.648212,8.03658,1.0585334,-2.735428,-4.2201557,-5.285171
1.852,19.608631,8.051305,1.1603634,-2.7267191,-4.1048374,-5.2306533
1.854,19.566221,8.062492,1.2571509,-2.7112553,-3.9825797,-5.1737895
1.856,19.520563,8.07041,1.348542,-2.689626,-3.8543878,-5.11477
1.858,19.471312,8.07543,1.4342003,-2.6624756,-3.7212408,-5.0538425
1.86,19.418238,8.078014,1.5139582,-2.6304946,-3.584068,-4.991256
1.862,19.361095,8.078744,1.5875719,-2.5943892,-3.443717,-4.927289
1.864,19.299765,8.078394,1.6548276,-2.5548632,-3.300931,-4.8622103
1.866,19.234211,8.0774765,1.7155919,-2.5125716,-3.1563282,-4.7962527
1.868,19.164503,8.076509,1.7697232,-2.4681184,-3.0104132,-4.7296224
1.87,19.090853,8.076028,1.8171425,-2.4220426,-2.8635623,-4.6624823
1.872,19.013208,8.076642,1.8577428,-2.3748071,-2.7160258,-4.594926
1.874,18.931746,8.078767,1.8915093,-2.3267825,-2.5679166,-4.527033
1.876,18.8469,8.082905,1.9183836,-2.2782583,-2.4192834,-4.458825
1.878,18.758919,8.089418,1.9384632,-2.2294295,-2.2700505,-4.390315
1.88,18.668098,8.098581,1.9516692,-2.1804018,-2.1201048,-4.3215075
1.882,18.57482,8.110523,1.9580388,-2.1312103,-1.9692762,-4.252389
1.884,18.479557,8.125341,1.9575815,-2.081829,-1.8173527,-4.1829557
1.886,18.382738,8.143133,1.9502387,-2.0321755,-1.6641489,-4.113231
1.888,18.284603,8.163698,1.9360926,-1.9821281,-1.5094728,-4.0432816
1.89,18.185577,8.186769,1.9151568,-1.9315143,-1.3531508,-3.973189
1.892,18.086157,8.212071,1.8875899,-1.8801243,-1.1950427,-3.9030852
1.894,17.986649,8.239238,1.8534389,-1.827741,-1.0350552,-3.8331246
1.896,17.887466,8.267615,1.8130298,-1.7741457,-0.8731508,-3.7634952
1.898,17.789007,8.296569,1.7666855,-1.7191262,-0.7093456,-3.694413
1.9,17.691418,8.325573,1.7148523,-1.6624895,-0.5437155,-3.626102
1.902,17.595095,8.353835,1.6579807,-1.6040794,-0.37636244,-3.558818
1.904,17.500504,8.380581,1.5967107,-1.5437725,-0.20745528,-3.4928236
1.906,17.407711,8.405053,1.5318623,-1.4815098,-0.037187696,-3.4283648
1.908,17.316992,8.4263935,1.464175,-1.4172819,0.1342045,-3.3656917
1.91,17.22857,8.443772,1.3944948,-1.3511395,0.30645442,-3.3050194
1.912,17.142733,8.456385,1.32373,-1.283177,0.4792751,-3.2465434
1.914,17.059618,8.463469,1.2528305,-1.2135434,0.65234387,-3.1904197
1.916,16.97934,8.464376,1.1827271,-1.1424018,0.8252789,-3.1367416
1.918,16.902102,8.458244,1.1145034,-1.0699207,0.9976803,-3.0855536
1.92,16.828186,8.444554,1.0490739,-0.996302,1.1690967,-3.0368369
1.922,16.75748,8.422735,0.987396,-0.9217117,1.3390532,-2.990517
1.924,16.690052,8.392441,0.9303142,-0.846296,1.507059,-2.9464693
1.926,16.6259,8.353281,0.878824,-0.7701947,1.6726067,-2.9045482
1.928,16.565123,8.304947,0.83364856,-0.69352365,1.8351967,-2.864578
1.93,16.507744,8.247372,0.7955309,-0.61636895,1.9943902,-2.826408
1.932,16.453835,8.180454,0.7651907,-0.5387998,2.149785,-2.7899132
1.934,16.403223,8.104422,0.7431444,-0.46086448,2.301072,-2.7550113
1.936,16.356073,8.019417,0.7299721,-0.38256362,2.44802,-2.7216766
1.938,16.312431,7.925728,0.72601306,-0.3038957,2.590476,-2.6899123
1.94,16.272219,7.8238277,0.7316115,-0.22482878,2.7283852,-2.6597488
1.942,16.235432,7.7142887,0.74711156,-0.14532495,2.8617585,-2.631204
1.944,16.202108,7.597821,0.7726455,-0.065334104,2.990686,-2.6043057
1.946,16.172333,7.4752035,0.8082423,0.015192082,3.1153362,-2.5790367
1.948,16.146147,7.3472123,0.8540088,0.096316084,3.235932,-2.55535
1.95,16.123524,7.2147245,0.9098567,0.17809916,3.352754,-2.5331345
1.952,16.104448,7.0788765,0.97569495,0.2605885,3.4661071,-2.5122416
1.954,16.089006,6.9407086,1.0512569,0.34381148,3.5763187,-2.4924808
1.956,16.077126,6.8012266,1.1362281,0.42779392,3.6837237,-2.4736245
1.958,16.069036,6.6616726,1.2302604,0.5125464,3.788662,-2.4554117
1.96,16.064709,6.523167,1.3329687,0.59807956,3.8914464,-2.4375854
1.962,16.064049,6.3868036,1.4438386,0.68438625,3.992351,-2.4198856
1.964,16.06696,6.2537465,1.5622275,0.7714498,4.09163,-2.4020612
1.966,16.073475,6.125069,1.687508,0.8592379,4.189474,-2.3838787
1.968,16.083225,6.001837,1.819005,0.9477253,4.28604,-2.365131
1.97,16.096128,5.88485,1.9559532,1.0368569,4.381445,-2.3456392
1.972,16.111702,5.7751946,2.097544,1.1265655,4.475753,-2.3252664
1.974,16.129795,5.673472,2.242922,1.2167908,4.5690064,-2.303899
1.976,16.150223,5.5800886,2.3912125,1.3074632,4.661211,-2.2814646
1.978,16.172342,5.4955564,2.5414042,1.3984853,4.7523518,-2.257939
1.98,16.195677,5.42004,2.6924834,1.489782,4.842413,-2.2333384
1.982,16.219946,5.3537564,2.8434565,1.5812719,4.9313555,-2.2077272
1.984,16.244543,5.2967997,2.9933643,1.6728591,5.019145,-2.1811965
1.986,16.268913,5.249067,3.1412525,1.7644463,5.105737,-2.1538827
1.988,16.292444,5.210356,3.2860563,1.8559237,5.1910896,-2.1259363
1.99,16.314661,5.1804037,3.4268956,1.9471612,5.2751617,-2.0975323
1.992,16.335056,5.1587553,3.5628293,2.0380335,5.35788,-2.0688343
1.994,16.352913,5.1448355,3.6930273,2.1283731,5.4391537,-2.0399911
1.996,16.367714,5.137981,3.8167803,2.2180054,5.518865,-2.0111077
1.998,16.37899,5.1376133,3.9333239,2.3067079,5.596858,-1.9822364
2,16.386126,5.143137,4.0421176,2.3942506,5.6729465,-1.9533646
2.002,16.38852,5.1537104,4.142428,2.4803398,5.746934,-1.92445
2.004,16.385866,5.1686096,4.2339697,2.5646787,5.818603,-1.895408
2.006,16.377728,5.187077,4.3162346,2.6469417,5.887694,-1.8661095
2.008,16.3637,5.2084184,4.3890023,2.7267866,5.9539137,-1.8364185
2.01,16.34351,5.231867,4.4520955,2.8038664,6.0169964,-1.8061948
2.012,16.316702,5.256712,4.505389,2.8778474,6.076656,-1.7753317
2.014,16.283062,5.282322,4.549011,2.948409,6.132619,-1.7437774
2.016,16.24242,5.3080673,4.583051,3.015256,6.184609,-1.7115091
2.018,16.1946,5.3334603,4.6079226,3.078125,6.23234,-1.6785401
2.02,16.139574,5.3578525,4.6239347,3.1367643,6.2755103,-1.6448947
2.022,16.077162,5.3808866,4.6315155,3.1909454,6.31378,-1.6105726
2.024,16.007656,5.402079,4.6311293,3.2404222,6.346795,-1.575569
2.026,15.931025,5.421095,4.623394,3.2849731,6.374195,-1.5398195
2.028,15.847434,5.4377832,4.608806,3.3243508,6.3956146,-1.503222
2.03,15.757128,5.4518347,4.5880413,3.3582847,6.4107275,-1.4656456
2.032,15.660423,5.4631033,4.561676,3.3865185,6.4192657,-1.4269457
2.034,15.557914,5.4714108,4.5303802,3.4087734,6.421075,-1.3870232
2.036,15.449873,5.476847,4.4947815,3.424792,6.4161243,-1.345816
2.038,15.336832,5.479323,4.4554195,3.4343262,6.4044847,-1.3033593
2.04,15.21931,5.4789047,4.4129095,3.437158,6.3863597,-1.259753
2.042,15.097818,5.475664,4.367793,3.4331121,6.362035,-1.2151818
2.044,14.973149,5.469618,4.3206444,3.4220455,6.3318496,-1.1698766
2.046,14.845854,5.4609275,4.2719316,3.4038563,6.2961593,-1.1240952
2.048,14.716463,5.4498196,4.222215,3.3784957,6.255278,-1.0780934
2.05,14.585787,5.436339,4.172019,3.3459358,6.209441,-1.032087
2.052,14.454466,5.4207034,4.121707,3.306196,6.1587944,-0.98624015
2.054,14.323044,5.4031363,4.0717907,3.2593112,6.10336,-0.9406711
2.056,14.192094,5.383846,4.0226345,3.2053375,6.043068,-0.89542294
2.058,14.062278,5.3631153,3.9747348,3.144331,5.977758,-0.85050535
2.06,13.9340515,5.341234,3.928497,3.076345,5.907254,-0.8059113
2.062,13.807884,5.318369,3.8843043,3.0014277,5.831342,-0.7615999
2.064,13.684234,5.2948294,3.8425553,2.9196146,5.7497735,-0.7175432
2.066,13.563459,5.2708817,3.803704,2.8309288,5.6623473,-0.67368436
2.068,13.445818,5.246682,3.7680073,2.7354038,5.568904,-0.6299463
2.07,13.331585,5.222548,3.7358546,2.6330671,5.4693313,-0.5862819
2.072,13.221021,5.1987925,3.707623,2.5239778,5.3636,-0.5426364
2.074,13.114284,5.1756716,3.683586,2.4082375,5.2517376,-0.49898002
2.076,13.011249,5.1534133,3.6640651,2.2859776,5.133856,-0.45532715
2.078,12.912204,5.132221,3.6493473,2.1573954,5.010103,-0.41169232
2.08,12.816931,5.112494,3.63961,2.0226848,4.8806777,-0.36815196
2.082,12.725541,5.094283,3.6351411,1.8821123,4.745818,-0.32479948
2.084,12.637777,5.0779037,3.6361666,1.7359521,4.605793,-0.2817552
2.086,12.553329,5.063796,3.6427884,1.5844811,4.4608965,-0.23917368
2.088,12.472292,5.052088,3.6553376,1.427983,4.3114314,-0.19721007
2.09,12.394423,5.0429783,3.6739259,1.2667454,4.157731,-0.1560345
2.092,12.319487,5.036463,3.6986713,1.101056,4.000164,-0.11579773
2.094,12.247129,5.032674,3.729619,0.9312104,3.8391178,-0.07665199
2.096,12.17701,5.031576,3.7667127,0.75750005,3.6750174,-0.038703293
2.098,12.108969,5.0332623,3.8100092,0.58023715,3.5083222,-0.0020108223
2.1,12.04267,5.0377645,3.8594968,0.39974952,3.339531,0.033409655
2.102,11.977718,5.045184,3.9150553,0.21637952,3.1691833,0.06759824
2.104,11.913855,5.0555677,3.976457,0.03048706,2.997857,0.100631505
2.106,11.850744,5.068909,4.043481,-0.15753436,2.8261428,0.1326592
2.108,11.788192,5.0852566,4.1160088,-0.34729838,2.654667,0.1638563
2.11,11.725813,5.104631,4.193691,-0.53839934,2.484039,0.1944497
2.112,11.663459,5.1271152,4.276323,-0.7304566,2.3148634,0.2246773
2.114,11.600853,5.152832,4.3634434,-0.923121,2.1476998,0.25480038
2.116,11.537744,5.1818213,4.4547544,-1.1160642,1.9830636,0.2850927
2.118,11.474165,5.2141128,4.5499096,-1.3090339,1.8213947,0.31585252
2.12,11.409977,5.249716,4.6484337,-1.50181,1.6630605,0.34736753
2.122,11.345188,5.2887316,4.750016,-1.6942241,1.5083586,0.37994543
2.124,11.279742,5.331167,4.8541203,-1.8861533,1.3575237,0.4138689
2.126,11.213705,5.3771753,4.960319,-2.0774927,1.2107003,0.44940555
2.128,11.147135,5.4266863,5.068185,-2.2681565,1.0680153,0.48680407
2.13,11.080087,5.479905,5.177327,-2.4580426,0.92954254,0.5262941
2.132,11.012932,5.5367975,5.2874765,-2.6470432,0.79531646,0.5680494
2.134,10.9457655,5.5973577,5.3982897,-2.8350296,0.66536045,0.6122223
2.136,10.879021,5.6616435,5.5094457,-3.0218616,0.5396645,0.6589292
2.138,10.81283,5.729679,5.620656,-3.207385,0.41821373,0.7082587
2.14,10.747527,5.801527,5.7317348,-3.3914428,0.30095983,0.76028705
2.142,10.683542,5.87716,5.8424196,-3.5738857,0.18786204,0.8150643
2.144,10.621072,5.9566593,5.952422,-3.7545867,0.078853965,0.8726166
2.146,10.560708,6.039959,6.0615854,-3.93344,-0.026140213,0.93296194
2.148,10.502819,6.127215,6.1697598,-4.110364,-0.12720037,0.99610543
2.15,10.447854,6.2183304,6.2767997,-4.28528,-0.22441053,1.0620415
2.152,10.396307,6.313272,6.382663,-4.4581423,-0.31785727,1.1307714
2.154,10.348381,6.4122686,6.4872193,-4.628912,-0.40761495,1.2022874
2.156,10.30434,6.515407,6.590416,-4.7975626,-0.49377084,1.2765954
2.158,10.264634,6.6227612,6.692191,-4.964059,-0.5764022,1.3536911
2.16,10.229249,6.734671,6.7924585,-5.128378,-0.65556455,1.4335526
2.162,10.198526,6.851297,6.8913507,-5.2904663,-0.7313068,1.5161583
2.164,10.172721,6.973066,6.9888573,-5.4502583,-0.8036556,1.6014707
2.166,10.151987,7.1001787,7.0851088,-5.60768,-0.872622,1.6894352
2.168,10.136361,7.23299,7.180022,-5.762632,-0.9381883,1.7799523
2.17,10.125826,7.371706,7.2737174,-5.9150076,-1.0003018,1.8729086
2.172,10.120497,7.5166254,7.366176,-6.0646863,-1.0588791,1.9681385
2.174,10.120405,7.6678886,7.4574056,-6.2115636,-1.1138415,2.0654697
2.176,10.125324,7.825701,7.5472703,-6.355554,-1.1650949,2.164689
2.178,10.13503,7.9903727,7.6358776,-6.4965763,-1.212538,2.2655854
2.18,10.149313,8.162065,7.723221,-6.634582,-1.2560627,2.367909
2.182,10.168062,8.341147,7.8094826,-6.769532,-1.2955873,2.4714
2.184,10.191064,8.527866,7.894643,-6.901423,-1.3310258,2.5757847
2.186,10.218267,8.722211,7.978695,-7.030259,-1.3622966,2.680796
2.188,10.249423,8.924131,8.061469,-7.1560674,-1.3893845,2.78618
2.19,10.284517,9.133603,8.142932,-7.2788973,-1.4122949,2.8917384
2.192,10.323186,9.350631,8.222946,-7.398779,-1.431087,2.9973106
2.194,10.365215,9.575171,8.301358,-7.5157456,-1.4458663,3.1028285
2.196,10.410772,9.807102,8.37819,-7.6298046,-1.4567811,3.2083037
2.198,10.459466,10.046518,8.45341,-7.740966,-1.4640334,3.313836
2.2,10.511126,10.293137,8.526781,-7.8492174,-1.4678493,3.419591
2.202,10.565337,10.546836,8.598163,-7.954558,-1.4684815,3.525801
2.204,10.62209,10.807485,8.667446,-8.057001,-1.4661849,3.632738
2.206,10.68153,11.074912,8.734558,-8.15656,-1.4611862,3.7406492
2.208,10.743588,11.349001,8.799314,-8.253303,-1.4536922,3.8497665
2.21,10.808466,11.629512,8.861501,-8.34731,-1.443825,3.960218
2.212,10.876137,11.916212,8.920998,-8.438686,-1.4316328,4.0720415
2.214,10.946612,12.208998,8.977576,-8.527547,-1.4171097,4.18511
2.216,11.019943,12.507683,9.031228,-8.614011,-1.4001842,4.299178
2.218,11.096167,12.811861,9.081806,-8.698183,-1.3807511,4.4139166
2.22,11.175381,13.1212435,9.129055,-8.780128,-1.3586855,4.5289435
2.222,11.257595,13.435606,9.172823,-8.859877,-1.3338761,4.6438603
2.224,11.3426895,13.754682,9.212839,-8.937432,-1.3062401,4.7582827
2.226,11.430741,14.078287,9.248899,-9.0127535,-1.2756686,4.8718705
2.228,11.52152,14.406227,9.280645,-9.085748,-1.2420473,4.984308
2.23,11.6150875,14.738338,9.307928,-9.156303,-1.2053175,5.0953083
2.232,11.711191,15.074597,9.330391,-9.224322,-1.1654515,5.204665
2.234,11.809723,15.414989,9.34771,-9.289698,-1.1224561,5.31221
2.236,11.910376,15.759377,9.359592,-9.352316,-1.076335,5.417838
2.238,12.013068,16.107985,9.365574,-9.412065,-1.0271478,5.521456
2.24,12.117392,16.460724,9.365343,-9.468872,-0.9749918,5.6229987
2.242,12.222992,16.817554,9.358477,-9.522664,-0.920032,5.722392
2.244,12.329521,17.178602,9.344402,-9.57343,-0.86255074,5.8195686
2.246,12.436664,17.543774,9.322716,-9.621265,-0.80294466,5.914499
2.248,12.543972,17.913094,9.292953,-9.666309,-0.7416949,6.0071363
2.25,12.650961,18.286388,9.254677,-9.7087965,-0.67938566,6.0974517
2.252,12.757141,18.663605,9.207472,-9.749022,-0.6166606,6.1854496
2.254,12.86209,19.044563,9.15102,-9.787327,-0.55420065,6.271117
2.256,12.965202,19.428928,9.084944,-9.824051,-0.492661,6.354431
2.258,13.065882,19.816189,9.008938,-9.859507,-0.43264103,6.4353576
2.26,13.163587,20.205791,8.922718,-9.893942,-0.37468767,6.513865
2.262,13.257685,20.597174,8.826087,-9.9275055,-0.31929827,6.5898895
2.264,13.347984,20.989079,8.719038,-9.960263,-0.26692772,6.6633906
2.266,13.433953,21.380516,8.601579,-9.992187,-0.21801424,6.734313
2.268,13.515099,21.770266,8.473833,-10.023171,-0.17303228,6.802592
2.27,13.590697,22.156784,8.336156,-10.053076,-0.13247061,6.8681903
2.272,13.660463,22.538355,8.188696,-10.081699,-0.09684086,6.931043
2.274,13.723619,22.913057,8.032122,-10.108837,-0.066700935,6.9910917
2.276,13.779244,23.279192,7.8669176,-10.134274,-0.042622566,7.048234
2.278,13.826856,23.634758,7.693918,-10.157761,-0.025135517,7.1023507
2.28,13.866139,23.977844,7.513836,-10.179029,-0.01472497,7.1532407
2.282,13.896391,24.306477,7.3273726,-10.197755,-0.011767626,7.2006025
2.284,13.916851,24.618507,7.13557,-10.213528,-0.016425133,7.2439966
2.286,13.927453,24.911592,6.9389944,-10.225843,-0.028681278,7.282814
2.288,13.927734,25.183435,6.7382336,-10.234109,-0.04833269,7.3163586
2.29,13.917404,25.431673,6.5338936,-10.23766,-0.07499194,7.3438473
2.292,13.896031,25.654196,6.3261147,-10.235743,-0.10806823,7.364476
2.294,13.862827,25.849165,6.115658,-10.227531,-0.14678478,7.377491
2.296,13.817848,26.01484,5.90236,-10.212156,-0.19017386,7.38222
2.298,13.760619,26.14991,5.6864195,-10.188714,-0.23711228,7.3781285
2.3,13.691275,26.253504,5.4673514,-10.156252,-0.286299,7.364832
2.302,13.60895,26.324308,5.245106,-10.113811,-0.33636212,7.3421087
2.304,13.514116,26.361906,5.01877,-10.060489,-0.3858564,7.3099513
2.306,13.406212,26.366049,4.7871923,-9.995387,-0.4332888,7.2685437
2.308,13.284894,26.33681,4.549262,-9.917695,-0.47718024,7.2183037
2.31,13.149854,26.274803,4.303951,-9.826688,-0.5160997,7.1597605
2.312,13.001073,26.18082,4.0500464,-9.721732,-0.5487102,7.093549
2.314,12.838078,26.056044,3.786231,-9.602339,-0.5737946,7.0203614
2.316,12.66029,25.902126,3.5111644,-9.468153,-0.59031487,6.9409633
2.318,12.467277,25.72066,3.2235818,-9.318989,-0.5974841,6.856145
2.32,12.258191,25.513674,2.9224586,-9.154886,-0.5948037,6.766692
2.322,12.032753,25.283373,2.6070406,-8.976076,-0.5821091,6.673358
2.324,11.790539,25.032015,2.2770367,-8.7830925,-0.55960417,6.5767956
2.326,11.531078,24.76216,1.9320908,-8.576735,-0.5278941,6.4775343
2.328,11.253883,24.476196,1.5727116,-8.358111,-0.4880278,6.3760424
2.33,10.958439,24.17659,1.1999625,-8.1285095,-0.44143867,6.272734
2.332,10.644555,23.865816,0.8153613,-7.889492,-0.38992143,6.1678505
2.334,10.312087,23.546227,0.4213003,-7.642781,-0.33568344,6.061633
2.336,9.960925,23.220045,0.02055049,-7.390223,-0.28123948,5.954327
2.338,9.591136,22.889263,-0.38326323,-7.133715,-0.22939634,5.8462152
2.34,9.202921,22.55587,-0.78589714,-6.8751254,-0.18314765,5.7376266
2.342,8.796927,22.22134,-1.1825302,-6.616262,-0.14559183,5.6290016
2.344,8.374029,21.88721,-1.5679588,-6.3587937,-0.11979434,5.520897
2.346,7.935382,21.554783,-1.9364709,-6.1042194,-0.108684435,5.4139657
2.348,7.482187,21.225079,-2.2822304,-5.85382,-0.11493392,5.3089094
2.35,7.0159845,20.899181,-2.5991778,-5.6086416,-0.14077595,5.2064295
2.352,6.538775,20.577673,-2.8816442,-5.36943,-0.18788368,5.1071877
2.354,6.052685,20.261131,-3.1238592,-5.136598,-0.25724602,5.0117536
2.356,5.5600095,19.949907,-3.3207645,-4.9101973,-0.34904492,4.920498
2.358,5.0633764,19.64395,-3.467854,-4.6898775,-0.46261182,4.8335676
2.36,4.56539,19.34327,-3.5614367,-4.474925,-0.5964029,4.750872
2.362,4.068825,19.04744,-3.5986605,-4.2642884,-0.7480506,4.672122
2.364,3.5765562,18.755924,-3.5777826,-4.0566306,-0.9144476,4.596858
2.366,3.0915031,18.468025,-3.4982486,-3.8504167,-1.0918179,4.524481
2.368,2.616478,18.182938,-3.3607335,-3.6440046,-1.2759032,4.4542503
2.37,2.154378,17.899773,-3.1671798,-3.4357579,-1.4620837,4.385345
2.372,1.7077477,17.617395,-2.9206002,-3.2241406,-1.6455673,4.3169074
2.374,1.2787063,17.33495,-2.6253207,-3.0077713,-1.8215576,4.248121
2.376,0.8695286,17.051167,-2.286601,-2.7855692,-1.9854527,4.17824
2.378,0.48204678,16.765093,-1.9106114,-2.5567386,-2.1330385,4.1066575
2.38,0.11818415,16.475735,-1.504473,-2.3208258,-2.2605662,4.0329237
2.382,-0.22127181,16.182428,-1.0755789,-2.0777254,-2.3648412,3.9567153
2.384,-0.53508455,15.884451,-0.63202155,-1.827746,-2.4434073,3.8778658
2.386,-0.8224549,15.581003,-0.18178761,-1.5714736,-2.4945788,3.7964578
2.388,-1.0833771,15.27175,0.2669748,-1.3098042,-2.517374,3.7126625
2.39,-1.3182023,14.956485,0.7064417,-1.0438989,-2.5115972,3.6267836
2.392,-1.5273769,14.635201,1.1293683,-0.7751258,-2.4777653,3.539237
2.394,-1.7117345,14.308377,1.5286115,-0.5050441,-2.417064,3.4505134
2.396,-1.8725475,13.976699,1.8982999,-0.23532075,-2.3312354,3.36114
2.398,-2.0113196,13.640943,2.2329798,0.03229618,-2.222527,3.2716258
2.4,-2.129739,13.30216,2.5280566,0.29602635,-2.0935156,3.1824493
2.402,-2.2297213,12.96127,2.7801857,0.5541343,-1.947015,3.0940127
2.404,-2.312868,12.619617,2.9863572,0.8049544,-1.7859843,3.0065942
2.406,-2.3817482,12.278622,3.1452413,1.0469334,-1.6134286,2.9203296
2.408,-2.4382896,11.939589,3.2559533,1.2786542,-1.4323184,2.8352318
2.41,-2.4848914,11.603569,3.318872,1.4988899,-1.2455076,2.7512147
2.412,-2.5230708,11.272408,3.3345456,1.7066097,-1.0556979,2.6681046
2.414,-2.555485,10.947164,3.3049555,1.9009988,-0.8653863,2.585654
2.416,-2.5839927,10.62909,3.2325697,2.081478,-0.67682934,2.5036182
2.418,-2.6100698,10.319235,3.120051,2.2476814,-0.49204597,2.4217997
2.42,-2.6354172,10.018603,2.9706666,2.3994322,-0.312818,2.340042
2.422,-2.6616998,9.728006,2.7879183,2.536764,-0.14068598,2.2582777
2.424,-2.6903474,9.44805,2.5756946,2.659857,0.023045115,2.1764894
2.426,-2.7225718,9.179226,2.3379054,2.7690313,0.1772625,2.0947375
2.428,-2.7594254,8.92198,2.0787625,2.8647146,0.32107112,2.0131135
2.43,-2.8014302,8.676469,1.8022664,2.9474442,0.45378658,1.9317356
2.432,-2.8492885,8.4426775,1.5123895,3.01782,0.5748983,1.8507128
2.434,-2.9034145,8.220487,1.2129742,3.076505,0.6840799,1.7701414
2.436,-2.9640899,8.009484,0.9079387,3.124195,0.78116655,1.6900982
2.438,-3.0312943,7.809384,0.60058004,3.16161,0.8661588,1.6106396
2.44,-3.1050334,7.619669,0.2942291,3.1894827,0.9392131,1.531795
2.442,-3.1851113,7.439506,-0.008082062,3.2085378,1.0006137,1.4535728
2.444,-3.2711985,7.2681656,-0.30372834,3.2194676,1.0507451,1.3759673
2.446,-3.3630815,7.1048355,-0.5901586,3.222924,1.0900643,1.2989551
2.448,-3.4600704,6.9486914,-0.86523604,3.2195108,1.1190708,1.2225032
2.45,-3.561738,6.798902,-1.1271507,3.2097673,1.1382915,1.1465538
2.452,-3.6674354,6.654601,-1.3744023,3.1941783,1.1482812,1.0710558
2.454,-3.7766905,6.514961,-1.6054761,3.1731684,1.1495943,0.9959383
2.456,-3.88884,6.379083,-1.8195188,3.1470988,1.1427641,0.9211282
2.458,-4.0032973,6.2461934,-2.015535,3.116273,1.1283363,0.84657073
2.46,-4.119038,6.115431,-2.1931148,3.080962,1.1068416,0.77222455
2.462,-4.2356663,5.986121,-2.351592,3.041409,1.0788208,0.69808054
2.464,-4.3525133,5.8575473,-2.490831,2.997845,1.0448041,0.62418014
2.466,-4.4688377,5.7290726,-2.6106162,2.9505117,1.0053194,0.5506112
2.468,-4.5840287,5.60025,-2.7111366,2.8996427,0.9608912,0.47751054
2.47,-4.697494,5.470733,-2.792458,2.845466,0.9120365,0.4050542
2.472,-4.8086796,5.340111,-2.855029,2.7882557,0.8592783,0.33345097
2.474,-4.9171405,5.208196,-2.8992815,2.7282999,0.80314004,0.26294369
2.476,-5.0225434,5.074993,-2.9257593,2.6659155,0.7441681,0.19376656
2.478,-5.1242986,4.940322,-2.9350033,2.6014526,0.6829105,0.1261482
2.48,-5.2222567,4.804262,-2.9275908,2.535272,0.6199361,0.06028682
2.482,-5.3158684,4.666921,-2.904459,2.4677691,0.5558233,-0.003652811
2.484,-5.404739,4.528409,-2.866403,2.399342,0.4911597,-0.065555304
2.486,-5.4885755,4.3889613,-2.81434,2.3304052,0.42655548,-0.1253435
2.488,-5.567198,4.248785,-2.7492504,2.261363,0.36258817,-0.18297124
2.49,-5.6403384,4.108185,-2.6721382,2.19261,0.29980397,-0.2384378
2.492,-5.7076035,3.9673402,-2.5840678,2.1245298,0.23872961,-0.2917604
2.494,-5.768835,3.8265986,-2.4862046,2.0574667,0.17982563,-0.34295866
2.496,-5.823861,3.6863513,-2.379609,1.9917436,0.12349739,-0.39205876
2.498,-5.872409,3.546881,-2.2653728,1.9276365,0.0700964,-0.43909028
2.5,-5.914138,3.4084268,-2.1445787,1.8653853,0.01990091,-0.4840945
2.502,-5.948996,3.2712803,-2.0183287,1.8051769,-0.026868358,-0.52711785
2.504,-5.976747,3.135704,-1.8876303,1.7471429,-0.070039675,-0.56820935
2.506,-5.9972143,3.0019615,-1.7535297,1.6913874,-0.10949932,-0.6074493
2.508,-6.009935,2.8701978,-1.616884,1.6379831,-0.1451639,-0.64490217
2.51,-6.015032,2.7406504,-1.4785773,1.5869586,-0.17695071,-0.6806475
2.512,-6.0122275,2.6136153,-1.3394899,1.5383232,-0.20483097,-0.714768
2.514,-6.001599,2.4891675,-1.2002892,1.4920589,-0.22877248,-0.7473259
2.516,-5.9828763,2.367546,-1.0617591,1.4481177,-0.24875246,-0.7783786
2.518,-5.9561043,2.2489433,-0.92450655,1.406431,-0.26475936,-0.8079728
2.52,-5.921396,2.1335971,-0.7891749,1.3669254,-0.27679408,-0.8361198
2.522,-5.878626,2.0217357,-0.65623975,1.3295221,-0.28487384,-0.86280257
2.524,-5.8280025,1.9136034,-0.5261773,1.294132,-0.28903577,-0.8880071
2.526,-5.7694592,1.8092798,-0.3995595,1.2606702,-0.28933018,-0.91172147
2.528,-5.703284,1.7090666,-0.27658272,1.2290434,-0.28583303,-0.93393564
2.53,-5.629636,1.6131858,-0.15768111,1.1991593,-0.27864376,-0.9546493
2.532,-5.5486593,1.5217605,-0.043124557,1.1709452,-0.26787108,-0.97388756
2.534,-5.46052,1.434974,0.06681037,1.1443437,-0.25364363,-0.99171984
2.536,-5.365572,1.3529006,0.17190635,1.1192985,-0.23609065,-1.0082383
2.538,-5.264062,1.2756991,0.27206016,1.0957823,-0.21536553,-1.0235357
2.54,-5.156307,1.2035913,0.36706614,1.0737554,-0.1916345,-1.0377529
2.542,-5.042704,1.1366816,0.45684028,1.0531917,-0.16506225,-1.0510359
2.544,-4.9235525,1.074995,0.5412699,1.0340698,-0.1358165,-1.0635345
2.546,-4.799297,1.0186814,0.6203376,1.0163683,-0.104065984,-1.0754073
2.548,-4.6702776,0.9677739,0.69401073,1.0000651,-0.0700022,-1.0868201
2.55,-4.5367537,0.9222716,0.7622659,0.985126,-0.033808246,-1.0979058
2.552,-4.3993893,0.8823093,0.82512987,0.9715228,0.00430274,-1.1087933
2.554,-4.258406,0.84787464,0.88257694,0.95922065,0.04412505,-1.1195883
2.556,-4.1142077,0.81906456,0.9346803,0.9481851,0.08543992,-1.1303566
2.558,-3.9673219,0.7959338,0.9815324,0.9383553,0.12800288,-1.1411611
2.56,-3.8179197,0.77848005,1.023308,0.9296618,0.171577,-1.1520158
2.562,-3.6665816,0.76684254,1.0602314,0.9220123,0.21589807,-1.1629316
2.564,-3.513685,0.76103944,1.0923269,0.9153199,0.2606941,-1.1738942
2.566,-3.3595204,0.76116925,1.1199794,0.90948844,0.30569828,-1.1848735
2.568,-3.2044444,0.7673073,1.143368,0.9044009,0.35063323,-1.1958388
2.57,-3.048781,0.77959996,1.1627798,0.8999582,0.39521852,-1.2067503
2.572,-2.8928092,0.79813564,1.1785231,0.8960506,0.4391882,-1.2175709
2.574,-2.73674,0.82299036,1.1908362,0.8925781,0.48228827,-1.2282858
2.576,-2.5809102,0.85429007,1.1998899,0.8894645,0.5242889,-1.2388928
2.578,-2.42551,0.89207673,1.206142,0.88666713,0.56499755,-1.2493868
2.58,-2.2706308,0.9363081,1.209781,0.88415205,0.6042527,-1.2598025
2.582,-2.116388,0.9870116,1.2111311,0.8819248,0.6419387,-1.2701776
2.584,-1.9630431,1.0440663,1.210526,0.88002485,0.67799973,-1.2805779
2.586,-1.810509,1.1073755,1.2082632,0.87850976,0.71242124,-1.2910858
2.588,-1.65896,1.1768391,1.2044811,0.8774516,0.74524075,-1.3017964
2.59,-1.5083432,1.252104,1.1994507,0.8769491,0.77653766,-1.3128395
2.592,-1.3587058,1.3328385,1.1933666,0.8771023,0.8064214,-1.3243657
2.594,-1.2099302,1.4187491,1.186458,0.878006,0.8350066,-1.336524
2.596,-1.0620122,1.5094069,1.1788142,0.87977135,0.86240494,-1.3494611
2.598,-0.914947,1.6043822,1.1705213,0.8824811,0.88870573,-1.3633274
2.6,-0.76876307,1.7032155,1.1617147,0.88620067,0.9139735,-1.378249
2.602,-0.62333405,1.8054721,1.1524229,0.89098763,0.93825233,-1.3943306
2.604,-0.4785691,1.9106722,1.1427119,0.89686763,0.96152365,-1.411649
2.606,-0.33435583,2.0183053,1.13264,0.90382934,0.9837546,-1.4302219
2.608,-0.1907728,2.1280112,1.1221437,0.9118551,1.0048797,-1.450042
2.61,-0.047864437,2.2394252,1.1112583,0.9208921,1.0248249,-1.4710612
2.612,0.09464401,2.3521109,1.1000373,0.93087494,1.0435016,-1.4931967
2.614,0.23676282,2.465734,1.088516,0.941714,1.060817,-1.5163226
2.616,0.37843785,2.580072,1.076787,0.95332074,1.0766851,-1.5402997
2.618,0.5196018,2.6949294,1.0648227,0.9655919,1.09103,-1.5649595
2.62,0.6603757,2.8100173,1.0527974,0.97842366,1.1037796,-1.5901272
2.622,0.8008528,2.9250543,1.0407428,0.99173427,1.1148819,-1.6156255
2.624,0.9411403,3.039941,1.028622,1.0054449,1.1243024,-1.641277
2.626,1.081055,3.154545,1.0167165,1.0195062,1.1320304,-1.6669164
2.628,1.2206575,3.2686965,1.0050315,1.0338863,1.1380742,-1.6924121
2.63,1.360041,3.3823097,0.9938407,1.0485876,1.1424524,-1.717674
2.632,1.4991603,3.4952776,0.9831764,1.0636411,1.1452178,-1.742643
2.634,1.638122,3.6074936,0.9732418,1.0790949,1.146456,-1.7673031
2.636,1.7767433,3.719043,0.9643539,1.0950341,1.1462709,-1.791686
2.638,1.9150931,3.8296647,0.95666426,1.1115421,1.144782,-1.8158472
2.64,2.0533261,3.9391494,0.95036817,1.1287322,1.14213,-1.839852
2.642,2.1913316,4.0473957,0.9456585,1.1467181,1.1384693,-1.8637651
2.644,2.3292124,4.154081,0.9426758,1.1656084,1.1339508,-1.8876574
2.646,2.466993,4.259091,0.9417016,1.1855099,1.1287398,-1.9115772
2.648,2.604642,4.3620415,0.94274,1.2065454,1.1230073,-1.9355646
2.65,2.742155,4.462617,0.94605815,1.2288063,1.1169187,-1.9596403
2.652,2.8794024,4.5605183,0.9517134,1.2523797,1.1106393,-1.9837947
2.654,3.0163574,4.6554923,0.95983773,1.2773523,1.104326,-2.0080228
2.656,3.1529849,4.747101,0.97047126,1.3037887,1.0981225,-2.032293
2.658,3.2892847,4.835104,0.98384446,1.3317492,1.0921733,-2.0565841
2.66,3.4249525,4.9190907,0.9999075,1.3612871,1.0866059,-2.0808809
2.662,3.5600445,4.998837,1.0187922,1.3924191,1.0815141,-2.1051426
2.664,3.694293,5.074091,1.040558,1.4251616,1.0769646,-2.1293235
2.666,3.8275678,5.1444564,1.0651034,1.4595151,1.0730009,-2.15338
2.668,3.959778,5.2098584,1.0923966,1.4954529,1.069622,-2.1772516
2.67,4.0905695,5.270056,1.1223927,1.5329368,1.0667908,-2.2008545
2.672,4.2198615,5.324899,1.1550543,1.5719125,1.0644193,-2.22407
2.674,4.3475103,5.3742914,1.1903615,1.6123104,1.0623932,-2.2467666
2.676,4.4733424,5.4182343,1.2281755,1.6540484,1.0605689,-2.2688103
2.678,4.597187,5.4565616,1.2684734,1.6970265,1.0587811,-2.2900665
2.68,4.7187448,5.4891925,1.3112049,1.7411332,1.0568597,-2.3104086
2.682,4.8379726,5.516274,1.3560486,1.7862617,1.0546774,-2.3297527
2.684,4.9546494,5.537597,1.4030348,1.8322964,1.0521069,-2.3480616
2.686,5.068699,5.553223,1.4520407,1.8791296,1.0490631,-2.3653584
2.688,5.1799016,5.563196,1.5028875,1.9266751,1.045501,-2.381699
2.69,5.2881017,5.5676565,1.5554221,1.974844,1.0414076,-2.3971887
2.692,5.393061,5.5666666,1.6095874,2.02357,1.0367867,-2.4119446
2.694,5.494835,5.5604663,1.6650763,2.072792,1.0316529,-2.4260879
2.696,5.5932684,5.5491056,1.7218778,2.1224604,1.0260181,-2.4396882
2.698,5.6883025,5.532851,1.7798691,2.1725135,1.0198798,-2.4527447
2.7,5.7798023,5.512065,1.8387165,2.2228928,1.0132077,-2.4652042
2.702,5.867743,5.4870234,1.8984199,2.2735078,1.0059397,-2.4769244
2.704,5.951977,5.4581137,1.9587724,2.3242452,0.9979875,-2.4877114
2.706,6.0326533,5.4258227,2.0197294,2.374969,0.9892368,-2.4973001
2.708,6.1099434,5.3903627,2.081079,2.425511,0.9795534,-2.505407
2.71,6.183807,5.3522215,2.1426911,2.4756932,0.96880305,-2.5117254
2.712,6.254131,5.3118114,2.2045527,2.5253108,0.9568373,-2.5159862
2.714,6.3211155,5.2695003,2.2665036,2.5741675,0.9435309,-2.517974
2.716,6.3848996,5.225689,2.3283336,2.622074,0.9287784,-2.517537
2.718,6.445691,5.180694,2.390033,2.6688728,0.9125114,-2.514643
2.72,6.5036507,5.134703,2.4514332,2.7144268,0.89469165,-2.509328
2.722,6.558543,5.088163,2.5123603,2.7586367,0.8753305,-2.5017292
2.724,6.6108,5.0412135,2.572691,2.8014379,0.85445976,-2.4920878
2.726,6.6604114,4.9940715,2.6323276,2.8427997,0.8321392,-2.4807072
2.728,6.707678,4.946814,2.6910841,2.8827212,0.80845046,-2.4679065
2.73,6.7526126,4.8997984,2.748778,2.9212186,0.7834786,-2.4540064
2.732,6.7952523,4.8530884,2.8053613,2.9583316,0.75730526,-2.4393106
2.734,6.8358583,4.8066826,2.8607583,2.9940863,0.72998583,-2.4240737
2.736,6.874454,4.760726,2.9147222,3.0285034,0.7015389,-2.40847
2.738,6.9112954,4.715169,2.9670553,3.061563,0.6719737,-2.3925974
2.74,6.946447,4.6699758,3.0175698,3.093232,0.64126074,-2.3764927
2.742,6.9799633,4.6251783,3.0662367,3.1234527,0.6093596,-2.3601134
2.744,7.0118127,4.5808887,3.1128078,3.1521273,0.57621694,-2.3433774
2.746,7.042183,4.5370045,3.1571722,3.17913,0.54176736,-2.3261676
2.748,7.071146,4.493843,3.19908,3.20433,0.50595105,-2.30836
2.75,7.098588,4.4516635,3.2385757,3.2275777,0.46869218,-2.2898412
2.752,7.124522,4.410636,3.275594,3.2487173,0.42992747,-2.2705042
2.754,7.1491327,4.3712163,3.310104,3.267602,0.38959742,-2.2502546
2.756,7.1724677,4.3336186,3.342069,3.2840927,0.34764576,-2.2290225
2.758,7.1945953,4.2983103,3.371574,3.2980785,0.3040129,-2.2067528
2.76,7.215651,4.2655888,3.398696,3.3094692,0.258646,-2.183422
2.762,7.235808,4.2358375,3.4235213,3.318198,0.21150696,-2.1590102
2.764,7.2550974,4.2094584,3.446226,3.3242197,0.16255474,-2.133546
2.766,7.2737947,4.186677,3.4669871,3.3275294,0.11176002,-2.1070552
2.768,7.291959,4.16773,3.4859724,3.3281279,0.059083104,-2.0795946
2.77,7.309931,4.152795,3.503456,3.3260508,0.004522562,-2.0512512
2.772,7.3278184,4.1419,3.5195796,3.3213263,-0.05192125,-2.022146
2.774,7.3458114,4.135105,3.5346546,3.3140073,-0.110224485,-1.992454
2.776,7.364189,4.1322994,3.5489864,3.3041587,-0.1703254,-1.9623857
2.778,7.383078,4.133292,3.5627904,3.2918448,-0.23213041,-1.932191
2.78,7.402757,4.13776,3.5763404,3.2771478,-0.29550207,-1.9021808
2.782,7.4232736,4.1454434,3.5899177,3.2601657,-0.3602829,-1.872658
2.784,7.4448247,4.1559906,3.6038327,3.2410133,-0.4262933,-1.8439279
2.786,7.467518,4.1689405,3.6182516,3.2198014,-0.4933269,-1.8162483
2.788,7.4914856,4.18394,3.6333725,3.1966758,-0.56115425,-1.7898235
2.79,7.5168986,4.200508,3.6494553,3.1717672,-0.6295662,-1.7647758
2.792,7.5437818,4.2181296,3.6667647,3.1452286,-0.698357,-1.741126
2.794,7.5722456,4.236417,3.6854486,3.1171796,-0.7673397,-1.718801
2.796,7.6023808,4.2548714,3.7056065,3.0877213,-0.83636785,-1.6976477
2.798,7.634253,4.273146,3.7273602,3.0569448,-0.90529966,-1.6774409
2.8,7.6678853,4.2906313,3.750776,3.024919,-0.97400373,-1.6579189
2.802,7.703165,4.307124,3.775899,2.9916878,-1.0423535,-1.6388292
2.804,7.7402754,4.3221464,3.8028555,2.9572763,-1.11022,-1.619926
2.806,7.7790694,4.3354607,3.8315086,2.9217248,-1.1774778,-1.6010296
2.808,7.8194933,4.346811,3.861889,2.8850415,-1.243998,-1.5820155
2.81,7.861595,4.3559012,3.8940673,2.8472624,-1.3096465,-1.5628221
2.812,7.905345,4.3626046,3.9277842,2.8084264,-1.3742819,-1.5434581
2.814,7.9507246,4.366683,3.9630694,2.7685895,-1.4377797,-1.5239825
2.816,7.997558,4.3679476,3.9997733,2.7278228,-1.5000317,-1.5044978
2.818,8.045803,4.3664436,4.0377803,2.686208,-1.5609457,-1.4850984
2.82,8.095481,4.3620834,4.0769258,2.6438355,-1.6204493,-1.4659028
2.822,8.146483,4.3547316,4.1169868,2.6008072,-1.6784799,-1.4470077
2.824,8.198643,4.344492,4.1579537,2.5572138,-1.7350061,-1.4284937
2.826,8.251962,4.3313947,4.1996703,2.5131621,-1.7900013,-1.410399
2.828,8.306326,4.3154516,4.2419496,2.4687264,-1.8434529,-1.3927349
2.83,8.3615465,4.2969227,4.284716,2.423974,-1.8953635,-1.3754807
2.832,8.41777,4.2757726,4.32775,2.378979,-1.945708,-1.3585773
2.834,8.474568,4.2523084,4.3710012,2.333794,-1.994478,-1.3419412
2.836,8.531949,4.2266073,4.414209,2.288455,-2.041646,-1.3254964
2.838,8.589668,4.198943,4.4573026,2.2430055,-2.087192,-1.3091472
2.84,8.64768,4.1694536,4.5001197,2.1974993,-2.1310782,-1.2927927
2.842,8.705815,4.1384697,4.542575,2.1519833,-2.1732876,-1.2763495
2.844,8.763765,4.1064143,4.584502,2.106519,-2.2137918,-1.2597399
2.846,8.82147,4.073489,4.625823,2.0611727,-2.2525694,-1.2428968
2.848,8.878713,4.0402465,4.666607,2.016007,-2.2896242,-1.2257695
2.85,8.935368,4.0070524,4.706587,1.9710956,-2.3249567,-1.2083178
2.852,8.9912615,3.9741735,4.7457886,1.9265046,-2.3585875,-1.1905088
2.854,9.04638,3.9421046,4.7842584,1.8823019,-2.390551,-1.1723258
2.856,9.100504,3.9111102,4.8218536,1.8385501,-2.420877,-1.1537442
2.858,9.153577,3.881507,4.8586764,1.7953268,-2.4496088,-1.1347687
2.86,9.205415,3.8535829,4.8946066,1.7526903,-2.4767632,-1.1153905
2.862,9.256138,3.8275204,4.9296136,1.7107103,-2.5023508,-1.0956025
2.864,9.3054495,3.8034687,4.9637403,1.6694536,-2.5263638,-1.0754071
2.866,9.353412,3.7815561,4.996915,1.6289749,-2.5487895,-1.0548136
2.868,9.400021,3.7618556,5.029107,1.5893339,-2.5695963,-1.0338333
2.87,9.445194,3.744428,5.0602784,1.5505855,-2.5887294,-1.0124946
2.872,9.488977,3.7292886,5.090459,1.5127894,-2.60612,-0.9908651
2.874,9.531388,3.7162037,5.1195793,1.4759897,-2.6217113,-0.96901166
2.876,9.572367,3.705224,5.1476054,1.4402206,-2.6354508,-0.947029
2.878,9.612003,3.6962147,5.174414,1.4055103,-2.6472976,-0.9250436
2.88,9.650363,3.6888602,5.2000113,1.3718625,-2.657237,-0.9031744
2.882,9.687586,3.6829953,5.2244396,1.3392978,-2.6652741,-0.8815553
2.884,9.723671,3.6783652,5.2474794,1.3078094,-2.6714358,-0.8603058
2.886,9.758874,3.674716,5.269124,1.2773831,-2.6757984,-0.8395231
2.888,9.793079,3.6717138,5.2893653,1.2480015,-2.678441,-0.8192862
2.89,9.826551,3.669168,5.308138,1.2196541,-2.6794636,-0.79963803
2.892,9.859435,3.666728,5.325359,1.1923151,-2.6789684,-0.78058994
2.894,9.891722,3.6640878,5.340961,1.1659656,-2.677067,-0.76212823
2.896,9.923584,3.661035,5.35497,1.140585,-2.6738496,-0.74421895
2.898,9.955098,3.6573663,5.3673725,1.1161616,-2.6694002,-0.7268139
2.9,9.986352,3.6528702,5.3780637,1.092685,-2.6637907,-0.7098615
2.902,10.0174675,3.6472979,5.387121,1.0701494,-2.6570683,-0.69330454
2.904,10.048423,3.640598,5.394449,1.0485547,-2.6492603,-0.6770874
2.906,10.079273,3.6326385,5.400138,1.0279067,-2.6403894,-0.6611718
2.908,10.110026,3.6231902,5.4041944,1.0082111,-2.6304636,-0.6455275
2.91,10.1407585,3.612442,5.4066424,0.98947614,-2.6194787,-0.6301261
2.912,10.171604,3.6003551,5.407404,0.9716968,-2.6074212,-0.61494327
2.914,10.202206,3.5869489,5.406597,0.9548867,-2.5942955,-0.59995794
2.916,10.232787,3.5723019,5.4043193,0.93905,-2.5800962,-0.58515203
2.918,10.263195,3.5565393,5.4005494,0.92417526,-2.5648127,-0.5704979
2.92,10.292835,3.5401077,5.395787,0.9102759,-2.548438,-0.55596554
2.922,10.322102,3.5228271,5.3898873,0.8973511,-2.5309782,-0.5415249
2.924,10.350931,3.5048974,5.3828287,0.8853749,-2.5124433,-0.5271373
2.926,10.3792925,3.4864967,5.3747344,0.8743347,-2.4928515,-0.51275456
2.928,10.407039,3.4677947,5.3657827,0.8642185,-2.4722123,-0.4983406
2.93,10.434091,3.4489293,5.3560314,0.8550079,-2.45056,-0.48385608
2.932,10.46046,3.4301252,5.3455734,0.8466913,-2.427918,-0.46925235
2.934,10.486006,3.4114945,5.334498,0.8392536,-2.4043245,-0.45449615
2.936,10.510586,3.3931959,5.3229313,0.83267295,-2.37983,-0.4395628
2.938,10.534194,3.3753529,5.310967,0.8269405,-2.3544827,-0.42443788
2.94,10.5568495,3.3580554,5.2987,0.82203734,-2.3283484,-0.40912127
2.942,10.578454,3.3414469,5.2862844,0.8179454,-2.3014946,-0.39361167
2.944,10.599002,3.3255806,5.273757,0.8146415,-2.273998,-0.3779235
2.946,10.618484,3.3105695,5.2612734,0.81210524,-2.245946,-0.3620757
2.948,10.636877,3.2964847,5.248909,0.8102324,-2.2184772,-0.34671158
2.95,10.654177,3.2833347,5.2367105,0.8089935,-2.1911924,-0.33157706
2.952,10.670385,3.2711697,5.224694,0.808322,-2.1643765,-0.31680804
2.954,10.685587,3.259913,5.2130003,0.8081414,-2.1383202,-0.3025484
2.956,10.699825,3.249659,5.2016215,0.80837435,-2.1133175,-0.2889307
2.958,10.7130785,3.2402296,5.1905546,0.8089337,-2.08963,-0.27607262
2.96,10.72538,3.231649,5.1799717,0.80973667,-2.0674613,-0.26405263
2.962,10.736822,3.223929,5.1697083,0.8107122,-2.046957,-0.25292456
2.964,10.747394,3.2168527,5.1597924,0.81179464,-2.0281959,-0.2427144
2.966,10.757198,3.2105556,5.150276,0.8129407,-2.0111854,-0.23341364
2.968,10.766201,3.2048488,5.141104,0.8140949,-1.9958644,-0.22499102
2.97,10.774589,3.199664,5.1323466,0.8152281,-1.9821409,-0.21739382
