Time_s_,Acc_x_m_s_2_,Acc_y_m_s_2_,Acc_z_m_s_2_,Gyro_x_1_s_,Gyro_y_1_s_,Gyro_z_1_s_
0,-0.69257593,0.4639341,-0.7691617,0.0034298897,-1.1985701,1.5344414
0.002,-0.71498704,0.45014286,-0.66522497,-0.021927416,-1.2626022,1.5100098
0.004,-0.736739,0.4346401,-0.55790204,-0.049889326,-1.3323131,1.4826251
0.006,-0.75784904,0.41757888,-0.4473209,-0.080329955,-1.4073974,1.4521962
0.008,-0.77838993,0.3990827,-0.33384374,-0.11296153,-1.4870872,1.4188116
0.01,-0.7982731,0.37902004,-0.21817224,-0.14731175,-1.5700536,1.3827368
0.012,-0.8173197,0.3574867,-0.10109607,-0.18271565,-1.6543907,1.3444202
0.014,-0.8355403,0.334659,0.016196012,-0.21832287,-1.7376738,1.3045067
0.016,-0.85304475,0.3108272,0.13238513,-0.25313318,-1.8170748,1.2638044
0.018,-0.8696876,0.28623292,0.24618462,-0.28610492,-1.8895942,1.2231765
0.02,-0.8855597,0.26131743,0.35603714,-0.31622684,-1.9523711,1.1834747
0.022,-0.9007629,0.23650241,0.46048385,-0.34263736,-2.0029652,1.1454483
0.024,-0.91533613,0.21211672,0.55812204,-0.36469686,-2.039612,1.1096575
0.026,-0.9292941,0.18852946,0.6476107,-0.38202006,-2.0614116,1.0764219
0.028,-0.9429386,0.1661587,0.7276759,-0.3954125,-2.0706697,1.0447419
0.03,-0.956517,0.14554054,0.79715,-0.4035505,-2.0647044,1.0160272
0.032,-0.9702853,0.12698662,0.8552132,-0.4069112,-2.0455012,0.98988104
0.034,-0.98450065,0.110981464,0.9011558,-0.40607446,-2.0153782,0.96589327
0.036,-0.999197,0.097753465,0.9346284,-0.40171492,-1.9768245,0.94368815
0.038,-1.0144243,0.087515,0.9556143,-0.3945672,-1.932386,0.9229192
0.04,-1.0304375,0.08050871,0.9645822,-0.38550615,-1.8845935,0.9032972
0.042,-1.0471015,0.076635,0.96243656,-0.37553447,-1.835926,0.8845674
0.044,-1.0643315,0.07572651,0.95049065,-0.3657155,-1.7887197,0.86641943
0.046,-1.0819193,0.07747263,0.9302963,-0.3571267,-1.7451923,0.848454
0.048,-1.0995568,0.0813697,0.90385616,-0.35072297,-1.707383,0.8301985
0.05,-1.1170244,0.086839914,0.8734841,-0.34727496,-1.6770959,0.8111541
0.052,-1.1339046,0.0933184,0.841599,-0.34736162,-1.6558352,0.79080194
0.054,-1.1496327,0.099940896,0.81089175,-0.35132146,-1.6447034,0.76864004
0.056,-1.1650263,0.106066644,0.7856734,-0.35923368,-1.6443417,0.7442373
0.058,-1.1775522,0.11029798,0.7667539,-0.3709169,-1.6548653,0.717223
0.06,-1.1867623,0.11192763,0.7566874,-0.38595986,-1.6758703,0.687371
0.062,-1.1921196,0.10991132,0.757683,-0.4037394,-1.7064327,0.65462995
0.064,-1.1928747,0.10319275,0.7714853,-0.4234795,-1.7451762,0.61917543
0.066,-1.1885055,0.090899825,0.7994237,-0.44435197,-1.7903495,0.5813931
0.068,-1.1785285,0.072687745,0.842724,-0.46551615,-1.8399215,0.5418279
0.07,-1.1628451,0.04875195,0.90255743,-0.48618233,-1.8917546,0.50110245
0.072,-1.140847,0.018878877,0.97927785,-0.50563127,-1.9437006,0.45989072
0.074,-1.112113,-0.01755178,1.0725363,-0.52325267,-1.9936912,0.41883212
0.076,-1.0764577,-0.06106615,1.1818206,-0.53852504,-2.0398657,0.37849104
0.078,-1.0339968,-0.11200708,1.3063004,-0.55104864,-2.0806367,0.3393132
0.08,-0.9851146,-0.17012048,1.4451286,-0.5605075,-2.1146958,0.3016029
0.082,-0.92974716,-0.23442918,1.5972934,-0.5666814,-2.1410408,0.265515
0.084,-0.8684777,-0.3041002,1.7608712,-0.56940514,-2.158999,0.23102808
0.086,-0.8016877,-0.37827036,1.9328552,-0.5685655,-2.1681533,0.19796965
0.088,-0.73008615,-0.45626557,2.1100924,-0.5640987,-2.168335,0.16606173
0.09,-0.6541765,-0.53742653,2.2896183,-0.5559928,-2.159576,0.13497701
0.092,-0.57487196,-0.62085754,2.4682386,-0.54431546,-2.142023,0.104394674
0.094,-0.49293077,-0.7053649,2.6425097,-0.52917874,-2.11593,0.07403189
0.096,-0.4092089,-0.78955734,2.808776,-0.5107535,-2.0815942,0.043661922
0.098,-0.3245057,-0.8721855,2.9633007,-0.48929524,-2.0393076,0.013186455
0.1,-0.23955244,-0.95182776,3.1024039,-0.4651019,-1.9893444,-0.017409801
0.102,-0.15556526,-1.027394,3.222735,-0.4385742,-1.9320202,-0.048063546
0.104,-0.07356548,-1.0977082,3.3212073,-0.41015315,-1.8676627,-0.0786151
0.106,0.00563848,-1.1617854,3.394993,-0.38027906,-1.7966237,-0.108822376
0.108,0.08111286,-1.2186018,3.4413452,-0.34934986,-1.7192384,-0.13836825
0.11,0.1521827,-1.2673059,3.4579477,-0.31772047,-1.6358654,-0.1669468
0.112,0.21782339,-1.3069954,3.4424543,-0.28571802,-1.5470061,-0.19426775
0.114,0.2775904,-1.3369346,3.393035,-0.25356403,-1.453227,-0.22008151
0.116,0.33108604,-1.356501,3.308468,-0.22136724,-1.3551812,-0.2441735
0.118,0.3781476,-1.3651776,3.1882749,-0.18912327,-1.2536349,-0.2663327
0.12,0.41867828,-1.3625295,3.0326464,-0.15677851,-1.1495284,-0.28627437
0.122,0.4525891,-1.3483407,2.8422115,-0.12428364,-1.0439351,-0.3035962
0.124,0.4799869,-1.322516,2.6185825,-0.09163052,-0.93805075,-0.31783152
0.126,0.50128305,-1.2851219,2.3640578,-0.058882624,-0.83324826,-0.3285138
0.128,0.5168807,-1.2364502,2.0811396,-0.026195943,-0.73101777,-0.33523843
0.13,0.5274533,-1.1772509,1.7730466,0.00614284,-0.63293105,-0.33771837
0.132,0.53405845,-1.1084795,1.4434171,0.037727058,-0.5406189,-0.3358437
0.134,0.53747606,-1.0311258,1.0961633,0.06802491,-0.4556836,-0.32973596
0.136,0.5382472,-0.9461744,0.73597276,0.09641814,-0.3796342,-0.3197677
0.138,0.53689504,-0.8543731,0.3674173,0.12225665,-0.31385648,-0.30656317
0.14,0.5344144,-0.75698346,-0.0048187748,0.144986,-0.25943676,-0.29093343
0.142,0.5313827,-0.6554114,-0.37606728,0.1642134,-0.21705952,-0.2737637
0.144,0.52822053,-0.55095494,-0.7412731,0.17976663,-0.18693937,-0.2559304
0.146,0.52514553,-0.44490597,-1.0955396,0.19172826,-0.16876191,-0.23820367
0.148,0.52262104,-0.3384576,-1.4341667,0.20040491,-0.16163749,-0.22119187
0.15,0.520499,-0.23267516,-1.7528,0.20630233,-0.16419476,-0.20528139
0.152,0.5185431,-0.12838376,-2.048327,0.21006723,-0.17465737,-0.19064343
0.154,0.5178616,-0.027381659,-2.3179421,0.21239792,-0.19100422,-0.17722185
0.156,0.5186492,0.06865096,-2.5578647,0.21400136,-0.2110613,-0.16485572
0.158,0.51847494,0.16070789,-2.764772,0.21549574,-0.23269893,-0.15335412
0.16,0.5186781,0.2482822,-2.9385352,0.21735258,-0.25401685,-0.14250582
0.162,0.52079666,0.32893038,-3.081008,0.21986681,-0.27349722,-0.13214959
0.164,0.5252289,0.40135407,-3.1928656,0.22320147,-0.29003686,-0.12213138
0.166,0.5317813,0.4655115,-3.274463,0.22743514,-0.30294424,-0.11233758
0.168,0.54056835,0.521428,-3.327612,0.23248053,-0.31192756,-0.102706954
0.17,0.550861,0.5694238,-3.3554487,0.23809089,-0.31707603,-0.09328723
0.172,0.5612639,0.6097703,-3.3605223,0.24396598,-0.3188092,-0.08421918
0.174,0.5758101,0.640531,-3.3453705,0.24983595,-0.31774592,-0.07572434
0.176,0.59614104,0.6606264,-3.3147771,0.25545427,-0.3146295,-0.06809619
0.178,0.61889297,0.6706042,-3.2706835,0.26059958,-0.31026202,-0.06159078
0.18,0.64553666,0.66931796,-3.213564,0.26506588,-0.30541518,-0.056463704
0.182,0.6804022,0.6556074,-3.1493459,0.26867026,-0.3007997,-0.052947745
0.184,0.72504985,0.62913036,-3.0837004,0.2713237,-0.29692745,-0.05112328
0.186,0.77797157,0.59068334,-3.018729,0.27306286,-0.2941315,-0.050813783
0.188,0.84097385,0.54007673,-2.9559665,0.27406684,-0.29248044,-0.051680595
0.19,0.9158808,0.47828197,-2.899977,0.2748061,-0.2913445,-0.053306334
0.192,1.0005016,0.4076438,-2.8554773,0.27584985,-0.2898091,-0.054926507
0.194,1.0925415,0.33044136,-2.8246105,0.27779022,-0.28687453,-0.05538405
0.196,1.1913847,0.24820876,-2.8086753,0.28135332,-0.28111887,-0.053325206
0.198,1.2975943,0.16270208,-2.809232,0.28725153,-0.2708897,-0.047370166
0.2,1.4107808,0.07625711,-2.8283818,0.29607284,-0.25459886,-0.03618175
0.202,1.5304841,-0.009105444,-2.8674076,0.30811286,-0.23098408,-0.018500162
0.204,1.65533,-0.09130931,-2.925775,0.3234453,-0.19908714,0.0067099296
0.206,1.7832215,-0.1673553,-3.0021753,0.34200293,-0.15874553,0.03995402
0.208,1.9116265,-0.23402715,-3.0940037,0.36317816,-0.111061364,0.08115721
0.21,2.0380177,-0.2885772,-3.197296,0.38582814,-0.05790654,0.12985903
0.212,2.159925,-0.32799053,-3.3074343,0.40849286,-0.0019920468,0.18508622
0.214,2.2745593,-0.34929383,-3.4195347,0.42943746,0.052657098,0.24533054
0.216,2.378604,-0.34882104,-3.5293896,0.44679764,0.10132131,0.30876347
0.218,2.468927,-0.32318938,-3.6332726,0.45891258,0.1395741,0.37352264
0.22,2.5426183,-0.2694596,-3.727737,0.46476576,0.16382562,0.4378042
0.222,2.5969963,-0.18509841,-3.8104186,0.46420962,0.17149802,0.4998148
0.224,2.6298628,-0.06895983,-3.8798044,0.458085,0.16181138,0.55804044
0.226,2.6391444,0.07940853,-3.935256,0.4481581,0.13629754,0.61147743
0.228,2.6233292,0.25908494,-3.9769883,0.43714,0.09885418,0.6596199
0.23,2.5815518,0.4684174,-4.0056705,0.42855817,0.055422887,0.7022675
0.232,2.5141447,0.70442545,-4.0220284,0.42647424,0.013511699,0.7393786
0.234,2.4222598,0.9632033,-4.0275936,0.43509978,-0.018448815,0.7710727
0.236,2.308188,1.239894,-4.024562,0.4582578,-0.03199864,0.7974254
0.238,2.1751451,1.5292022,-4.015384,0.49890015,-0.019667264,0.81821465
0.24,2.0271263,1.8251548,-4.0030174,0.5587124,0.024246573,0.8329458
0.242,1.8688059,2.1215246,-3.9907427,0.6378249,0.10287261,0.8410324
0.244,1.7057917,2.4115627,-3.9815292,0.7345855,0.21608868,0.8418555
0.246,1.5443665,2.6881835,-3.9780362,0.84576964,0.36082685,0.83458817
0.248,1.3907049,2.944376,-3.9816585,0.9667057,0.53102744,0.8183687
0.25,1.2505878,3.1739237,-3.9928215,1.0914525,0.71770966,0.79270315
0.252,1.1299652,3.3714185,-4.0110073,1.2133694,0.90997887,0.7576437
0.254,1.0342715,3.5319583,-4.0349913,1.3256552,1.095983,0.7137549
0.256,0.9679756,3.651911,-4.0627947,1.421974,1.2639682,0.66209346
0.258,0.9345138,3.7287695,-4.091774,1.4967384,1.4031544,0.6042551
0.26,0.93686223,3.7612872,-4.1187115,1.5455483,1.504926,0.5423974
0.262,0.97630596,3.7496443,-4.139242,1.5658789,1.5635831,0.4789663
0.264,1.051919,3.6960237,-4.148998,1.5570447,1.575995,0.41627103
0.266,1.162637,3.6032853,-4.144987,1.5199623,1.5419326,0.35643095
0.268,1.3083391,3.4732995,-4.124112,1.4570258,1.4642135,0.30120784
0.27,1.48394,3.3108265,-4.081151,1.3717952,1.3475347,0.25172937
0.272,1.6838707,3.122851,-4.0109854,1.2684897,1.1974878,0.20835268
0.274,1.9033356,2.9152598,-3.911635,1.1515093,1.0202144,0.1708824
0.276,2.1381435,2.6929283,-3.7824407,1.0252352,0.8221847,0.13882291
0.278,2.3834207,2.4608867,-3.622323,0.893777,0.60956824,0.11137125
0.28,2.6352077,2.2237988,-3.4299338,0.76073223,0.38796064,0.08751722
0.282,2.8891222,1.9867191,-3.2061296,0.6290026,0.16242139,0.06638718
0.284,3.1363995,1.7561915,-2.9526372,0.50073826,-0.062424093,0.04752805
0.286,3.3729036,1.536689,-2.6698236,0.3774209,-0.28231734,0.030871876
0.288,3.5998988,1.3304352,-2.3621147,0.25998488,-0.49344295,0.016533349
0.29,3.813397,1.140527,-2.0354037,0.14900334,-0.6924756,0.0047378317
0.292,4.0085864,0.96876264,-1.6909033,0.044802487,-0.8765536,-0.0042892992
0.294,4.185295,0.8150747,-1.3303893,-0.05241543,-1.0433985,-0.0105330795
0.296,4.346537,0.678094,-0.95930266,-0.14249468,-1.1913669,-0.014276862
0.298,4.491596,0.5572643,-0.58242285,-0.22524846,-1.3194458,-0.016075045
0.3,4.6196423,0.45080936,-0.20074093,-0.30046913,-1.4271826,-0.016654223
0.302,4.734582,0.35551393,0.18443227,-0.36790147,-1.5145715,-0.016861767
0.304,4.8398485,0.26920033,0.5682672,-0.42726195,-1.5819908,-0.017586231
0.306,4.9359064,0.19138467,0.9464716,-0.4782635,-1.630116,-0.019646049
0.308,5.02217,0.12196529,1.3158575,-0.52067274,-1.6598324,-0.023673564
0.31,5.0988803,0.06023729,1.6735917,-0.55437183,-1.6722116,-0.030061811
0.312,5.166358,0.006140232,2.0162954,-0.5793425,-1.6685,-0.03895265
0.314,5.2246294,-0.04034722,2.3400373,-0.59574354,-1.6501325,-0.050249428
0.316,5.2738423,-0.07992637,2.6414866,-0.6039969,-1.6186728,-0.06367293
0.318,5.3140497,-0.112970114,2.9162698,-0.60470307,-1.5756855,-0.07874212
0.32,5.344719,-0.13905215,3.1602404,-0.59857655,-1.5226958,-0.09490937
0.322,5.3637466,-0.15704882,3.3703406,-0.5863404,-1.4611561,-0.11159593
0.324,5.3689713,-0.16609406,3.5439372,-0.5687499,-1.3923452,-0.12817201
0.326,5.3587155,-0.16572917,3.6799707,-0.5465697,-1.3173096,-0.14404497
0.328,5.331547,-0.15544367,3.777811,-0.5206419,-1.2369406,-0.15883923
0.33,5.2857866,-0.13417661,3.837704,-0.49193,-1.1520905,-0.17252013
0.332,5.2199016,-0.10097909,3.8608148,-0.46145788,-1.0635469,-0.18527749
0.334,5.132677,-0.05503106,3.8489852,-0.4303593,-0.97233284,-0.19757304
0.336,5.024118,0.00405097,3.8044314,-0.39997727,-0.8799447,-0.21018282
0.338,4.893752,0.077426076,3.7290778,-0.37180668,-0.7883524,-0.2241691
0.34,4.7412415,0.16625667,3.6248124,-0.3473496,-0.69994605,-0.24078403
0.342,4.566608,0.27124727,3.4936824,-0.32801878,-0.6174652,-0.26135746
0.344,4.3700056,0.39275372,3.3384857,-0.3150155,-0.54383224,-0.28716695
0.346,4.1531224,0.52960384,3.1630995,-0.30919924,-0.48180914,-0.3191775
0.348,3.9187326,0.67925096,2.972713,-0.3109839,-0.4336422,-0.3578689
0.35,3.6699896,0.83905303,2.7723496,-0.32030663,-0.40083456,-0.40317085
0.352,3.4104636,1.0057899,2.5665946,-0.3366008,-0.38394046,-0.45449525
0.354,3.1440353,1.1764641,2.3590794,-0.35887173,-0.3824424,-0.5108125
0.356,2.8743172,1.3486655,2.1519651,-0.38582838,-0.39469403,-0.57071316
0.358,2.6052341,1.5201395,1.9466585,-0.41598827,-0.41812456,-0.6326002
0.36,2.3397102,1.6886368,1.7445242,-0.44775465,-0.4495097,-0.6948951
0.362,2.0803668,1.8520892,1.5468249,-0.47946206,-0.48521507,-0.7562586
0.364,1.8296099,2.0081153,1.3546478,-0.5094942,-0.52162564,-0.8156512
0.366,1.5897176,2.1538563,1.1692235,-0.53637505,-0.5554788,-0.8723024
0.368,1.3624701,2.2866883,0.99164057,-0.558816,-0.58408815,-0.92565763
0.37,1.1496918,2.404256,0.82287735,-0.57575154,-0.60561746,-0.9753702
0.372,0.9526031,2.504725,0.66407216,-0.5863304,-0.6189967,-1.021548
0.374,0.77224636,2.5867414,0.5161578,-0.590146,-0.6245203,-1.0635595
0.376,0.60912967,2.6495662,0.3801096,-0.5869906,-0.62285036,-1.1013505
0.378,0.46334594,2.6926212,0.2566061,-0.57691735,-0.61527383,-1.1345909
0.38,0.3347835,2.7156425,0.14603329,-0.560192,-0.603406,-1.1628425
0.382,0.22325242,2.7185068,0.04897821,-0.5373787,-0.5889178,-1.185533
0.384,0.12859273,2.7015061,-0.034226835,-0.5093987,-0.5732642,-1.202021
0.386,0.049911737,2.6654758,-0.10320407,-0.4775746,-0.5575399,-1.2118921
0.388,-0.013162613,2.611562,-0.15788937,-0.4435374,-0.5421766,-1.2149935
0.39,-0.060661554,2.5409503,-0.19845432,-0.4090929,-0.5268088,-1.2114018
0.392,-0.09032619,2.4533384,-0.22340614,-0.37611252,-0.5102961,-1.2014102
0.394,-0.10530424,2.3510885,-0.23153919,-0.34639755,-0.49091715,-1.1855475
0.396,-0.10394186,2.2346096,-0.22673982,-0.32139888,-0.4665059,-1.1644694
0.398,-0.08480251,2.1046562,-0.21294177,-0.30197,-0.4346649,-1.1389173
0.4,-0.047451794,1.9626286,-0.1911912,-0.2882071,-0.39320078,-1.1098342
0.402,0.007778108,1.8100029,-0.1636905,-0.279434,-0.3404504,-1.0783697
0.404,0.0809648,1.6481553,-0.13489157,-0.27429572,-0.27551183,-1.0458546
0.406,0.17208439,1.4782987,-0.10826504,-0.2709899,-0.19847883,-1.0137212
0.408,0.28046438,1.3018965,-0.08626473,-0.26752424,-0.11055916,-0.98353815
0.41,0.40628758,1.1201919,-0.07237086,-0.2619805,-0.014020994,-0.9569572
0.412,0.54805094,0.934981,-0.071422815,-0.2527719,0.08803956,-0.9355634
0.414,0.7044412,0.74761426,-0.08659604,-0.23887953,0.19201624,-0.92064744
0.416,0.8752122,0.5585856,-0.11953792,-0.21992575,0.29414916,-0.9130598
0.418,1.0569053,0.3700562,-0.17391643,-0.19612458,0.3909119,-0.9131783
0.42,1.2446351,0.18466663,-0.25491837,-0.16814071,0.479347,-0.92086697
0.422,1.435569,0.0037146807,-0.36454922,-0.13683459,0.5572944,-0.935408
0.424,1.6288192,-0.17311662,-0.50363296,-0.10318893,0.623507,-0.9556635
0.426,1.8232492,-0.34605974,-0.67402303,-0.06828022,0.67759275,-0.979836
0.428,2.0165505,-0.5147386,-0.87639976,-0.03299749,0.72024846,-1.0064628
0.43,2.2043736,-0.6781502,-1.1096611,0.0018433928,0.75205624,-1.0334538
0.432,2.3816628,-0.8358482,-1.3681475,0.035716295,0.77419543,-1.0592167
0.434,2.5500536,-0.9891883,-1.6479839,0.068283916,0.78813386,-1.0823338
0.436,2.7096944,-1.1384127,-1.9496717,0.09949541,0.7954147,-1.101641
0.438,2.858038,-1.2821712,-2.2677813,0.12951458,0.79748,-1.1162479
0.44,2.9921207,-1.4183011,-2.5978456,0.15860838,0.7956006,-1.1253965
0.442,3.1108937,-1.5446256,-2.936908,0.18709683,0.7908633,-1.1284521
0.444,3.2134867,-1.6585524,-3.2795696,0.21525213,0.78397405,-1.1249862
0.446,3.2984867,-1.7576354,-3.619053,0.24327672,0.7752774,-1.1147393
0.448,3.3653717,-1.8414133,-3.9512575,0.2712721,0.7649624,-1.0976387
0.45,3.4141905,-1.9114338,-4.2728877,0.29905993,0.7530389,-1.0738511
0.452,3.4452434,-1.9690772,-4.579798,0.32615408,0.73941255,-1.0436816
0.454,3.4594452,-2.0147994,-4.8682456,0.3519085,0.724118,-1.00754
0.456,3.456514,-2.0476694,-5.1351137,0.3758269,0.7075632,-0.9661249
0.458,3.4364002,-2.0670123,-5.376026,0.39785185,0.6905759,-0.92067647
0.46,3.4005418,-2.0736575,-5.585519,0.41838765,0.6742998,-0.87305224
0.462,3.3511562,-2.0691051,-5.758708,0.43800074,0.6598234,-0.82550913
0.464,3.2908454,-2.0553842,-5.8912606,0.45746693,0.6485618,-0.7804325
0.466,3.2230167,-2.0352993,-5.979986,0.47770512,0.64153314,-0.7404639
0.468,3.1503282,-2.011246,-6.0227747,0.49941948,0.6387928,-0.7083207
0.47,3.075481,-1.9844282,-6.018424,0.5229907,0.6398431,-0.686195
0.472,2.999862,-1.9556656,-5.9693165,0.5484154,0.64335144,-0.6755348
0.474,2.9236832,-1.9248996,-5.8764434,0.5752387,0.6470138,-0.6769123
0.476,2.8465304,-1.8916522,-5.741032,0.60265666,0.6481348,-0.6899698
0.478,2.7679574,-1.8556284,-5.5634694,0.6298011,0.6441342,-0.7133621
0.48,2.6873498,-1.816321,-5.3439612,0.6559083,0.6328037,-0.74505556
0.482,2.6041863,-1.7731317,-5.0837574,0.68031096,0.6128195,-0.782321
0.484,2.51821,-1.7262646,-4.7836084,0.70240045,0.5840813,-0.8219148
0.486,2.429436,-1.6759768,-4.445327,0.7216102,0.5473213,-0.8608215
0.488,2.3375137,-1.6218907,-4.0708437,0.7373938,0.5040045,-0.8967272
0.49,2.2420034,-1.5633619,-3.662346,0.7491141,0.4561963,-0.92821205
0.492,2.142971,-1.4998009,-3.222969,0.75595766,0.40608096,-0.95491827
0.494,2.0404012,-1.4309888,-2.7557614,0.7569217,0.35545525,-0.97761965
0.496,1.9349177,-1.3576384,-2.2638621,0.7508447,0.30543813,-0.99801487
0.498,1.827053,-1.2805742,-1.7501781,0.7365286,0.2563889,-1.0184442
0.5,1.7174177,-1.2008386,-1.2180626,0.71289957,0.20788386,-1.0415735
0.502,1.6060545,-1.1189156,-0.67222416,0.6792266,0.15899402,-1.0699365
0.504,1.4981773,-1.0378971,-0.11805446,0.6353611,0.108725786,-1.1055584
0.506,1.3935786,-0.95882994,0.44290018,0.58185315,0.056576848,-1.1495857
0.508,1.2933061,-0.8836099,1.0071782,0.5198307,0.002771914,-1.2020713
0.51,1.2002823,-0.81455916,1.5673226,0.4509305,-0.051505685,-1.2618011
0.512,1.1175643,-0.7536466,2.1164634,0.37718654,-0.104093015,-1.326519
0.514,1.0478032,-0.7030754,2.6490047,0.30098873,-0.15198532,-1.393375
0.516,0.9928046,-0.66472137,3.1578004,0.22505873,-0.19167838,-1.4594215
0.518,0.95411664,-0.64019257,3.6353438,0.1519213,-0.22027811,-1.5220941
0.52,0.93236125,-0.6305227,4.0757875,0.08360675,-0.23536631,-1.5792562
0.522,0.9273405,-0.6362051,4.475373,0.021680295,-0.23530173,-1.6295108
0.524,0.93831015,-0.6572745,4.830765,-0.032951176,-0.21998444,-1.6725283
0.526,0.9637606,-0.692989,5.13758,-0.08002487,-0.1903511,-1.7087457
0.528,1.004608,-0.7437476,5.3943515,-0.11980283,-0.14798653,-1.7390696
0.53,1.061139,-0.809,5.601525,-0.15300485,-0.09507242,-1.7646263
0.532,1.1307849,-0.88628435,5.756716,-0.18063536,-0.033998013,-1.7865245
0.534,1.209765,-0.97155523,5.8579674,-0.20380753,0.033072114,-1.8057245
0.536,1.2945899,-1.0616208,5.9056106,-0.22355115,0.10428551,-1.8230472
0.538,1.383021,-1.1542554,5.900497,-0.2407859,0.17809224,-1.8389941
0.54,1.4749961,-1.2482375,5.842769,-0.25629884,0.25325674,-1.8536317
0.542,1.5709982,-1.3425461,5.730482,-0.27077138,0.32872236,-1.8667663
0.544,1.6651467,-1.434666,5.5665455,-0.2847972,0.40347236,-1.8782029
0.546,1.7546932,-1.5238354,5.3579636,-0.29885602,0.47655082,-1.8878422
0.548,1.8404201,-1.6109952,5.106218,-0.31330854,0.54712224,-1.8957119
0.55,1.9236535,-1.6977185,4.81421,-0.3283522,0.61453825,-1.901973
0.552,2.0039518,-1.7849839,4.486888,-0.34399974,0.67844474,-1.9068527
0.554,2.0809028,-1.8731974,4.1267204,-0.3600831,0.7387921,-1.9106172
0.556,2.1550107,-1.962753,3.7359803,-0.37628084,0.7957512,-1.9135299
0.558,2.2265499,-2.0530844,3.3207653,-0.3921609,0.8496838,-1.9158632
0.56,2.2956362,-2.142786,2.8870142,-0.4073165,0.9008478,-1.9179615
0.562,2.3620658,-2.2313533,2.4386866,-0.4214124,0.949322,-1.920185
0.564,2.4255872,-2.320058,1.9797714,-0.43428546,0.9948539,-1.9229394
0.566,2.4855175,-2.4104044,1.5143821,-0.4459499,1.0368866,-1.926557
0.568,2.541246,-2.5034258,1.0454974,-0.45656413,1.0745956,-1.931348
0.57,2.5915892,-2.5994396,0.5766542,-0.4663639,1.1069968,-1.937614
0.572,2.6351933,-2.6988442,0.112819046,-0.47563374,1.1331346,-1.9455258
0.574,2.6711457,-2.802413,-0.34013602,-0.4846452,1.1521775,-1.9550534
0.576,2.6985478,-2.910604,-0.7759222,-0.49364167,1.1635191,-1.9659733
0.578,2.717415,-3.0241485,-1.1887903,-0.50281745,1.1668708,-1.9779289
0.58,2.7276826,-3.1441717,-1.5737976,-0.51231694,1.1622517,-1.9904876
0.582,2.729546,-3.2710767,-1.9244416,-0.52223897,1.1499747,-2.0031896
0.584,2.723389,-3.4046896,-2.2372375,-0.5326245,1.1306348,-2.01557
0.586,2.7092018,-3.5438879,-2.5095935,-0.543458,1.105114,-2.0272293
0.588,2.6870325,-3.6873176,-2.7399912,-0.5546658,1.074553,-2.037847
0.59,2.656362,-3.833885,-2.9269342,-0.56617707,1.0403295,-2.0471792
0.592,2.6166418,-3.982479,-3.068369,-0.5779027,1.003986,-2.0550776
0.594,2.5671082,-4.1313224,-3.1632798,-0.58977276,0.9671999,-2.0614817
0.596,2.5072253,-4.2786427,-3.210778,-0.6017427,0.93171734,-2.0663624
0.598,2.4371693,-4.4230847,-3.21107,-0.61381644,0.8992628,-2.069715
0.6,2.3572745,-4.5633297,-3.1655757,-0.6260338,0.87151045,-2.0715263
0.602,2.2675755,-4.6979628,-3.076207,-0.6384435,0.85001016,-2.071787
0.604,2.1683583,-4.825555,-2.9464335,-0.65113217,0.8360456,-2.0704904
0.606,2.0602226,-4.9445176,-2.7813492,-0.66419965,0.83058786,-2.0676134
0.608,1.9440687,-5.0538454,-2.5872555,-0.6777667,0.8342238,-2.0631604
0.61,1.8206935,-5.1529408,-2.370702,-0.6919471,0.84715414,-2.0571747
0.612,1.6907305,-5.2415667,-2.1379116,-0.7068381,0.8691949,-2.0496721
0.614,1.5546479,-5.3200045,-1.8936666,-0.7225301,0.8997888,-2.0406542
0.616,1.4126868,-5.388732,-1.6430116,-0.73909175,0.9380552,-2.0301123
0.618,1.2652228,-5.448538,-1.3904958,-0.75659686,0.9828507,-2.0180583
0.62,1.1124389,-5.500656,-1.140894,-0.7751354,1.0328045,-2.0045414
0.622,0.95453405,-5.54671,-0.89916265,-0.7948573,1.0863501,-1.989597
0.624,0.79135895,-5.588163,-0.67078674,-0.8160013,1.1418102,-1.9732556
0.626,0.62318563,-5.626947,-0.46042717,-0.83885396,1.1974181,-1.9555963
0.628,0.45070887,-5.665226,-0.272007,-0.86375195,1.2514014,-1.9367689
0.63,0.27455735,-5.7053003,-0.108688354,-0.8910466,1.3020449,-1.9170269
0.632,0.09577274,-5.7497582,0.02717638,-0.9210771,1.3478109,-1.8967121
0.634,-0.08454156,-5.800909,0.1342802,-0.9540918,1.3874724,-1.8762946
0.636,-0.26553845,-5.861715,0.21232843,-0.99017036,1.420236,-1.8563161
0.638,-0.44622374,-5.9348907,0.2614149,-1.0291834,1.4458244,-1.8373891
0.64,-0.62632036,-6.0227103,0.2820915,-1.070708,1.464544,-1.8201058
0.642,-0.80578876,-6.1269436,0.2758448,-1.114039,1.4772637,-1.8049893
0.644,-0.9853349,-6.248853,0.24337268,-1.158168,1.485415,-1.7923977
0.646,-1.1656456,-6.388505,0.18548703,-1.2018383,1.4908671,-1.782506
0.648,-1.347213,-6.5454874,0.10350096,-1.2436126,1.4957179,-1.775313
0.65,-1.5308938,-6.718546,-0.001065135,-1.281968,1.5020638,-1.7706761
0.652,-1.7176204,-6.905583,-0.12653387,-1.3154302,1.511758,-1.7683169
0.654,-1.9089754,-7.1040297,-0.27052462,-1.3427024,1.526169,-1.7678882
0.656,-2.1052766,-7.311262,-0.4310025,-1.3628197,1.5461128,-1.7690679
0.658,-2.3081462,-7.52406,-0.6043538,-1.3751547,1.5717853,-1.7716298
0.66,-2.5184636,-7.7389503,-0.78713477,-1.3794994,1.6027784,-1.7754443
0.662,-2.7368448,-7.9525776,-0.9758841,-1.376066,1.6382052,-1.7804142
0.664,-2.9638457,-8.161558,-1.1666381,-1.3654635,1.6768562,-1.786496
0.666,-3.1998422,-8.36227,-1.3554411,-1.3486047,1.7173104,-1.7936637
0.668,-3.4445848,-8.551354,-1.5383899,-1.3266262,1.7580786,-1.8018183
0.67,-3.6975045,-8.7257805,-1.7114398,-1.3008072,1.7976935,-1.8107202
0.672,-3.9573712,-8.883165,-1.8706576,-1.2724571,1.834779,-1.820032
0.674,-4.2227874,-9.021282,-2.0126274,-1.2428474,1.8681237,-1.8293991
0.676,-4.491025,-9.1386595,-2.1342268,-1.2131312,1.8966513,-1.8385619
0.678,-4.759451,-9.233981,-2.2331297,-1.1842772,1.9194217,-1.8474059
0.68,-5.025482,-9.306875,-2.307238,-1.1570458,1.9357058,-1.8559794
0.682,-5.286436,-9.357497,-2.354656,-1.1318791,1.9450464,-1.8645179
0.684,-5.5394897,-9.386276,-2.3743012,-1.1089616,1.9473649,-1.8733768
0.686,-5.781141,-9.394573,-2.3651462,-1.0882422,1.942893,-1.8829675
0.688,-6.007643,-9.384196,-2.326479,-1.0694199,1.9322548,-1.8936327
0.69,-6.2151103,-9.357483,-2.2588296,-1.0519888,1.9164973,-1.9056249
0.692,-6.3995914,-9.317543,-2.1637783,-1.0353656,1.8969454,-1.9190359
0.694,-6.557417,-9.267803,-2.044023,-1.0189387,1.8751384,-1.9338107
0.696,-6.685336,-9.212439,-1.9033916,-1.0020994,1.852761,-1.949852
0.698,-6.7812386,-9.155239,-1.746766,-0.9842797,1.8314697,-1.9671594
0.7,-6.84359,-9.099758,-1.5803437,-0.9649622,1.8128207,-1.98583
0.702,-6.8707056,-9.049329,-1.4110527,-0.9436648,1.7982113,-2.0060654
0.704,-6.8610353,-9.007112,-1.2459261,-0.91992277,1.7888464,-2.0281446
0.706,-6.8135204,-8.976731,-1.0916317,-0.8932414,1.7857893,-2.05244
0.708,-6.7278976,-8.961776,-0.9548365,-0.86303604,1.7900196,-2.0793684
0.71,-6.604197,-8.965563,-0.84203184,-0.82868236,1.8022386,-2.1091828
0.712,-6.4431505,-8.991219,-0.75959885,-0.7896289,1.8228774,-2.1417997
0.714,-6.2463546,-9.040863,-0.7133448,-0.74547225,1.8519635,-2.1767094
0.716,-6.0167294,-9.115742,-0.7085668,-0.6960592,1.8889613,-2.2129982
0.718,-5.7578316,-9.216274,-0.74993753,-0.6415382,1.9327104,-2.2493331
0.72,-5.4730797,-9.342037,-0.84143806,-0.5824977,1.9813526,-2.2840526
0.722,-5.166976,-9.491944,-0.98668444,-0.5200152,2.032358,-2.3152893
0.724,-4.843849,-9.664238,-1.1882249,-0.45561892,2.0826235,-2.3411748
0.726,-4.5086374,-9.856433,-1.4471756,-0.39119148,2.128622,-2.359914
0.728,-4.1672277,-10.06532,-1.7631397,-0.32879293,2.1666377,-2.3699033
0.73,-3.8254156,-10.28739,-2.1338542,-0.27049923,2.1930914,-2.3698168
0.732,-3.4891834,-10.519224,-2.5559936,-0.21819651,2.204889,-2.3587575
0.734,-3.1646671,-10.756163,-3.024584,-0.17338204,2.1996388,-2.3363018
0.736,-2.8581395,-10.993709,-3.534039,-0.13704783,2.1757705,-2.3024993
0.738,-2.575777,-11.227097,-4.0783467,-0.10953754,2.1326332,-2.257919
0.74,-2.3229384,-11.451361,-4.651725,-0.090538025,2.0705848,-2.2036145
0.742,-2.1053786,-11.662018,-5.246995,-0.07922137,1.9907708,-2.1410306
0.744,-1.9300067,-11.855439,-5.8578234,-0.074379504,1.894968,-2.0718858
0.746,-1.801409,-12.027599,-6.4773865,-0.07449883,1.785479,-1.9980912
0.748,-1.7222178,-12.174001,-7.0975223,-0.0780161,1.6648185,-1.9216534
0.75,-1.6945789,-12.291648,-7.7099195,-0.08344591,1.535464,-1.8445047
0.752,-1.7203095,-12.3788185,-8.305305,-0.08949068,1.3997635,-1.7683665
0.754,-1.8002234,-12.435123,-8.874532,-0.09508857,1.2598023,-1.6947579
0.756,-1.9346678,-12.46069,-9.407881,-0.099444896,1.1173913,-1.6249825
0.758,-2.123093,-12.455922,-9.8967285,-0.10209566,0.97405636,-1.5601822
0.76,-2.3654664,-12.421185,-10.333796,-0.10283798,0.830998,-1.5012531
0.762,-2.6608484,-12.357083,-10.712379,-0.101749256,0.6891087,-1.4486593
0.764,-3.0067744,-12.264387,-11.02776,-0.09904583,0.54925835,-1.4027427
0.766,-3.4013875,-12.143966,-11.275518,-0.09503567,0.4122401,-1.3637868
0.768,-3.8404822,-11.997552,-11.452733,-0.09011629,0.27885228,-1.3319945
0.77,-4.3199897,-11.8268795,-11.556361,-0.08473005,0.14999175,-1.3074785
0.772,-4.834525,-11.633957,-11.584126,-0.07928747,0.02666767,-1.2903565
0.774,-5.378086,-11.421488,-11.535008,-0.074015886,-0.08994306,-1.2807217
0.776,-5.943911,-11.192764,-11.40834,-0.068996124,-0.19861533,-1.2784737
0.778,-6.5251865,-10.95081,-11.204739,-0.06428947,-0.2980702,-1.2833403
0.78,-7.114485,-10.698636,-10.925735,-0.05992975,-0.3871221,-1.2951453
0.782,-7.7045393,-10.438729,-10.574071,-0.055821978,-0.46459982,-1.3137796
0.784,-8.287213,-10.17416,-10.154198,-0.051772065,-0.5293723,-1.3390049
0.786,-8.854742,-9.908086,-9.672093,-0.04759933,-0.5805778,-1.3703277
0.788,-9.399111,-9.643977,-9.134981,-0.043124385,-0.6175771,-1.407083
0.79,-9.911649,-9.385274,-8.551526,-0.038171552,-0.64000684,-1.4484713
0.792,-10.38394,-9.135321,-7.931246,-0.03259228,-0.64775646,-1.4936249
0.794,-10.808184,-8.897529,-7.2843523,-0.026242107,-0.64089996,-1.541665
0.796,-11.177668,-8.674986,-6.6216097,-0.01901178,-0.6197312,-1.5917747
0.798,-11.486304,-8.470804,-5.9540844,-0.010819249,-0.5846941,-1.6431445
0.8,-11.728727,-8.287674,-5.292714,-0.0016741008,-0.53629553,-1.6949803
0.802,-11.900365,-8.128169,-4.6485434,0.008366853,-0.47504857,-1.7465553
0.804,-11.997515,-7.9947624,-4.032029,0.019143455,-0.40156677,-1.797276
0.806,-12.017438,-7.889209,-3.452271,0.030334022,-0.31679636,-1.8466877
0.808,-11.959113,-7.8130913,-2.9178743,0.04141094,-0.22216593,-1.8944257
0.81,-11.822009,-7.7678003,-2.4361494,0.051691767,-0.11981213,-1.9402727
0.812,-11.606909,-7.754654,-2.0124347,0.060402155,-0.012733385,-1.9842013
0.814,-11.316442,-7.774287,-1.6505678,0.0666025,0.0951253,-2.0264006
0.816,-10.954285,-7.8263497,-1.3535252,0.06925305,0.1989764,-2.067354
0.818,-10.5248995,-7.9099555,-1.1233197,0.06730565,0.29342556,-2.107586
0.82,-10.032883,-8.024264,-0.96084267,0.05978857,0.37293705,-2.147639
0.822,-9.4834175,-8.167276,-0.8638026,0.045897402,0.4322507,-2.187979
0.824,-8.884331,-8.3360195,-0.82709444,0.02501022,0.46687844,-2.228876
0.826,-8.243064,-8.527493,-0.8442937,-0.0032975078,0.47353616,-2.2703025
0.828,-7.567913,-8.738136,-0.9073495,-0.039232403,0.4504316,-2.3119915
0.83,-6.867854,-8.963494,-1.008202,-0.082661726,0.397475,-2.3535411
0.832,-6.15108,-9.198824,-1.1388788,-0.13312927,0.3160862,-2.394277
0.834,-5.425527,-9.439383,-1.2915258,-0.1900073,0.20902467,-2.4332316
0.836,-4.6985555,-9.680287,-1.4573092,-0.25267383,0.07991135,-2.4693892
0.838,-3.9771137,-9.916577,-1.6267997,-0.32048845,-0.067097366,-2.5019584
0.84,-3.2680278,-10.142982,-1.7902501,-0.39279303,-0.22756575,-2.5303764
0.842,-2.5773206,-10.353976,-1.9377367,-0.4689841,-0.39716032,-2.5542533
0.844,-1.9101205,-10.545035,-2.0603085,-0.548579,-0.57179785,-2.5733392
0.846,-1.2706299,-10.711368,-2.149506,-0.63125145,-0.74783593,-2.58744
0.848,-0.66178226,-10.848562,-2.1975613,-0.7168714,-0.9222082,-2.5964131
0.85,-0.08649278,-10.952579,-2.1966336,-0.8054894,-1.0924361,-2.6001096
0.852,0.45424604,-11.01919,-2.1401677,-0.89736676,-1.2567065,-2.5984573
0.854,0.96177155,-11.044543,-2.021545,-0.9929188,-1.4137003,-2.5914207
0.856,1.4363116,-11.025671,-1.8356446,-1.0927645,-1.5625536,-2.5789194
0.858,1.8779298,-10.961053,-1.5794039,-1.1976833,-1.7028344,-2.5608747
0.86,2.2885904,-10.848363,-1.2506328,-1.3085308,-1.83435,-2.537228
0.862,2.6709614,-10.685402,-0.8487251,-1.4262424,-1.9571164,-2.5080063
0.864,3.028101,-10.469733,-0.37342697,-1.5518098,-2.071296,-2.4733443
0.866,3.3631887,-10.200039,0.1734373,-1.6862183,-2.1770597,-2.4334962
0.868,3.6790602,-9.875601,0.7895181,-1.8303381,-2.2744195,-2.3888729
0.87,3.9792006,-9.496537,1.4720855,-1.9848654,-2.363168,-2.3400273
0.872,4.2666864,-9.063388,2.2167673,-2.1503017,-2.4428606,-2.2876053
0.874,4.5437336,-8.576739,3.0188243,-2.3268433,-2.5127711,-2.2323215
0.876,4.812164,-8.037464,3.872257,-2.5142915,-2.571847,-2.1749873
0.878,5.0729303,-7.446263,4.7690234,-2.7120268,-2.618799,-2.1164207
0.88,5.326779,-6.8047028,5.6997824,-2.919018,-2.6522179,-2.0573719
0.882,5.5735364,-6.1144958,6.6541796,-3.1338837,-2.6706188,-1.9984882
0.884,5.8127146,-5.3774624,7.6211653,-3.354926,-2.6725192,-1.9402907
0.886,6.0433,-4.596089,8.589484,-3.5801852,-2.6564887,-1.8832287
0.888,6.2647614,-3.7730277,9.546896,-3.807529,-2.6212378,-1.8276486
0.89,6.4754705,-2.912118,10.481892,-4.0347805,-2.5656607,-1.7738441
0.892,6.674191,-2.0173054,11.383456,-4.2598004,-2.4888546,-1.7220687
0.894,6.8589387,-1.0928775,12.241739,-4.480621,-2.3900576,-1.6726124
0.896,7.0280704,-0.14308414,13.047596,-4.6955166,-2.2686782,-1.6258147
0.898,7.17981,0.827563,13.792186,-4.9030414,-2.1243265,-1.5820599
0.9,7.312503,1.814483,14.467651,-5.102054,-1.9568238,-1.5418003
0.902,7.424963,2.8130274,15.067824,-5.291754,-1.7661934,-1.5054781
0.904,7.5166245,3.8181622,15.587817,-5.471703,-1.5527208,-1.473542
0.906,7.5873203,4.8249426,16.023117,-5.6418037,-1.3170892,-1.4463624
0.908,7.63717,5.8287034,16.37035,-5.8023562,-1.0605814,-1.4242438
0.91,7.666593,6.825181,16.628204,-5.9539704,-0.7850232,-1.4074672
0.912,7.676527,7.810337,16.797253,-6.0975146,-0.49271166,-1.3961955
0.914,7.6684837,8.780008,16.878862,-6.2340827,-0.18646428,-1.3905404
0.916,7.644415,9.730279,16.875591,-6.364893,0.13052613,-1.3905218
0.918,7.6074123,10.657297,16.791601,-6.491231,0.45481354,-1.3960389
0.92,7.5602565,11.558117,16.63123,-6.6143765,0.7827519,-1.4069186
0.922,7.505504,12.429989,16.398767,-6.735566,1.1106049,-1.4229984
0.924,7.4460945,13.270581,16.099466,-6.8559318,1.4347043,-1.4440744
0.926,7.38507,14.077798,15.740063,-6.9764614,1.7515669,-1.4699322
0.928,7.3253627,14.850079,15.328722,-7.0979877,2.0580115,-1.5003562
0.93,7.2692065,15.586499,14.874197,-7.2211742,2.351158,-1.5351249
0.932,7.218913,16.28597,14.383545,-7.346466,2.6285462,-1.5740507
0.934,7.178566,16.94702,13.86313,-7.474112,2.8881884,-1.6169937
0.936,7.150666,17.569128,13.319885,-7.6041636,3.128458,-1.663816
0.938,7.1376777,18.152164,12.761207,-7.736522,3.3480678,-1.7143977
0.94,7.139168,18.697289,12.1947975,-7.8709183,3.5461853,-1.7686172
0.942,7.156103,19.20432,11.6264305,-8.006929,3.7224274,-1.82638
0.944,7.1893992,19.674212,11.061449,-8.143973,3.876767,-1.887619
0.946,7.2377114,20.108248,10.505651,-8.281381,4.009557,-1.9522393
0.948,7.3009176,20.508198,9.9661665,-8.418348,4.1214647,-2.0200853
0.95,7.37836,20.87524,9.448474,-8.554013,4.2134256,-2.0909848
0.952,7.469128,21.210072,8.95574,-8.687505,4.286515,-2.1647346
0.954,7.5716763,21.51381,8.489343,-8.817953,4.3419223,-2.2410827
0.956,7.6838856,21.787884,8.050104,-8.944523,4.3808675,-2.3197496
0.958,7.8025618,22.034388,7.6394114,-9.0664,4.4046006,-2.4003935
0.96,7.924596,22.255219,7.257895,-9.18283,4.414349,-2.4826725
0.962,8.0458975,22.451752,6.9051757,-9.293094,4.411311,-2.5662274
0.964,8.162626,22.625528,6.580204,-9.39651,4.396636,-2.6507194
0.966,8.27089,22.778297,6.2811527,-9.492458,4.3714466,-2.7358625
0.968,8.366598,22.91186,6.0056047,-9.580393,4.3368278,-2.8214047
0.97,8.445307,23.027882,5.751086,-9.659853,4.2938385,-2.907168
0.972,8.503042,23.127876,5.5141683,-9.730523,4.243468,-2.992902
0.974,8.535653,23.213163,5.291709,-9.792164,4.1867714,-3.078473
0.976,8.539099,23.285074,5.0802007,-9.844635,4.124718,-3.1638665
0.978,8.509669,23.344528,4.8758936,-9.887965,4.058395,-3.2490997
0.98,8.445142,23.39202,4.6747694,-9.922319,3.988956,-3.334112
0.982,8.342789,23.42854,4.4737673,-9.947981,3.9174914,-3.4187756
0.984,8.200325,23.454811,4.2705746,-9.965386,3.8450465,-3.5029523
0.986,8.016314,23.471306,4.0631537,-9.975114,3.7726145,-3.5864081
0.988,7.7900105,23.478043,3.849299,-9.977885,3.7011862,-3.6687696
0.99,7.5212774,23.475466,3.6265545,-9.97455,3.631909,-3.74959
0.992,7.211411,23.463793,3.3927884,-9.965969,3.5660772,-3.8282535
0.994,6.8630877,23.442883,3.1470203,-9.952985,3.5051079,-3.9039044
0.996,6.4788804,23.412937,2.8895774,-9.9363,3.4506009,-3.9756079
0.998,6.061957,23.373493,2.6226416,-9.916446,3.4043121,-4.0424356
1,5.6163116,23.324905,2.3477569,-9.893717,3.368092,-4.103603
1.002,5.146461,23.267122,2.0661325,-9.868189,3.3438118,-4.158524
1.004,4.6579084,23.200638,1.7783403,-9.839753,3.333304,-4.2068686
1.006,4.1566434,23.126038,1.4853592,-9.808145,3.3381991,-4.248601
1.008,3.6496077,23.044125,1.189107,-9.773066,3.359794,-4.2839913
1.01,3.143311,22.95626,0.8921552,-9.734268,3.398933,-4.3135386
1.012,2.6441445,22.86351,0.59662485,-9.69165,3.4560049,-4.3379908
1.014,2.1585226,22.767384,0.3055725,-9.645306,3.5308611,-4.358203
1.016,1.6927114,22.669525,0.022436142,-9.595545,3.6228433,-4.3750772
1.018,1.2527995,22.571672,-0.2507515,-9.542864,3.7307477,-4.3894997
1.02,0.8447547,22.475365,-0.51355124,-9.487918,3.8528895,-4.4023075
1.022,0.47398472,22.382977,-0.7658572,-9.431382,3.987173,-4.414303
1.024,0.1442349,22.296938,-1.0076523,-9.373906,4.1312246,-4.4263177
1.026,-0.14109492,22.2197,-1.2389154,-9.31598,4.2825766,-4.439273
1.028,-0.37982893,22.153324,-1.459662,-9.258008,4.4387364,-4.453996
1.03,-0.57079315,22.099264,-1.6699433,-9.200186,4.5973945,-4.471257
1.032,-0.713557,22.059116,-1.8706555,-9.142469,4.7563643,-4.4919195
1.034,-0.80856156,22.034012,-2.064106,-9.084613,4.9137077,-4.5168924
1.036,-0.85729647,22.025015,-2.253035,-9.026197,5.0678816,-4.547015
1.038,-0.8627014,22.033026,-2.4407184,-8.966652,5.2177243,-4.5830097
1.04,-0.82876134,22.058794,-2.6304886,-8.905237,5.3623486,-4.625538
1.042,-0.76009834,22.102266,-2.8256435,-8.841075,5.501082,-4.6751795
1.044,-0.6617346,22.162958,-3.0290225,-8.773231,5.6334314,-4.7323227
1.046,-0.5392649,22.239994,-3.2430305,-8.700848,5.7590737,-4.797219
1.048,-0.39876288,22.33221,-3.4707832,-8.623168,5.877813,-4.869946
1.05,-0.24443889,22.43682,-3.7147994,-8.539634,5.9894915,-4.9502845
1.052,-0.0832274,22.55279,-3.9753509,-8.44984,6.094062,-5.037731
1.054,0.07803506,22.677715,-4.253306,-8.353556,6.191549,-5.131512
1.056,0.23497242,22.80877,-4.551565,-8.250745,6.2820673,-5.230638
1.058,0.38263035,22.942543,-4.87426,-8.141487,6.365885,-5.333939
1.06,0.51716053,23.076097,-5.222787,-8.025967,6.443441,-5.440143
1.062,0.6355238,23.206398,-5.5957527,-7.904439,6.5153008,-5.5479164
1.064,0.7355976,23.329628,-5.9902515,-7.777178,6.5821013,-5.6559577
1.066,0.81642413,23.441776,-6.403883,-7.6444626,6.644446,-5.763047
1.068,0.8779969,23.538528,-6.835342,-7.5065656,6.7029114,-5.868159
1.07,0.92116165,23.61618,-7.2830195,-7.3637533,6.757981,-5.9705024
1.072,0.94782925,23.671366,-7.744423,-7.216277,6.810033,-6.0695157
1.074,0.95976305,23.700935,-8.216435,-7.0643935,6.859314,-6.164814
1.076,0.9592643,23.701836,-8.69548,-6.9083567,6.9059267,-6.2561636
1.078,0.9490466,23.671564,-9.177702,-6.7484674,6.94985,-6.343361
1.08,0.9323468,23.607903,-9.659559,-6.5850496,6.9909573,-6.426262
1.082,0.91235685,23.509481,-10.137436,-6.4184213,7.0290694,-6.504747
1.084,0.8923025,23.375263,-10.608255,-6.2489414,7.0640073,-6.578665
1.086,0.8754425,23.20502,-11.068897,-6.0770097,7.0955734,-6.647784
1.088,0.864604,22.998983,-11.5164,-5.903114,7.1234736,-6.711819
1.09,0.8613272,22.75824,-11.947845,-5.7278295,7.1472993,-6.770462
1.092,0.8675909,22.48386,-12.361276,-5.5518045,7.166438,-6.8234024
1.094,0.8848953,22.17744,-12.7556305,-5.3757977,7.1800427,-6.870354
1.096,0.9138794,21.841599,-13.13014,-5.2006254,7.187077,-6.9111075
1.098,0.95499134,21.479073,-13.483404,-5.0270777,7.186307,-6.9455714
1.1,1.008111,21.09283,-13.813807,-4.855895,7.176413,-6.973771
1.102,1.0720425,20.68627,-14.120575,-4.687711,7.156077,-6.995839
1.104,1.1452837,20.26301,-14.404627,-4.5229883,7.124133,-7.011984
1.106,1.2266321,19.826708,-14.667986,-4.3620443,7.0795507,-7.0224304
1.108,1.3147593,19.381283,-14.912933,-4.205025,7.0214925,-7.027387
1.11,1.4084692,18.930595,-15.141277,-4.051892,6.9494133,-7.027035
1.112,1.5064764,18.478352,-15.35425,-3.902462,6.863035,-7.0215073
1.114,1.6072016,18.02795,-15.552593,-3.7564151,6.7623925,-7.010886
1.116,1.7088051,17.582582,-15.73794,-3.613336,6.6477957,-6.9952564
1.118,1.8095455,17.145266,-15.912844,-3.4727142,6.519828,-6.974693
1.12,1.9082031,16.718859,-16.080494,-3.3340366,6.3792415,-6.9492707
1.122,2.0041456,16.306152,-16.244293,-3.1967971,6.2269,-6.919089
1.124,2.0969,15.909452,-16.407818,-3.060562,6.063667,-6.8843026
1.126,2.1859884,15.530653,-16.573467,-2.9249628,5.890363,-6.845157
1.128,2.2712889,15.171276,-16.742575,-2.7897263,5.707752,-6.801965
1.13,2.3524752,14.8326845,-16.915613,-2.6546652,5.516544,-6.755066
1.132,2.4292574,14.515282,-17.09343,-2.5196652,5.317401,-6.704801
1.134,2.5021152,14.219547,-17.277222,-2.3846433,5.110993,-6.65148
1.136,2.5713043,13.945313,-17.468697,-2.2495685,4.8980036,-6.5953493
1.138,2.6371498,13.692808,-17.669338,-2.1143944,4.6791496,-6.536598
1.14,2.7003698,13.461748,-17.879915,-1.9790745,4.455249,-6.4753714
1.142,2.7610407,13.251627,-18.100105,-1.8435426,4.2272005,-6.411764
1.144,2.8196,13.061443,-18.328926,-1.7077289,3.9959226,-6.3458395
1.146,2.8763332,12.890125,-18.565493,-1.5715871,3.7623115,-6.2776685
1.148,2.9317484,12.735969,-18.808922,-1.4350986,3.5271893,-6.2073097
1.15,2.9868755,12.596938,-19.058468,-1.2983117,3.2912643,-6.1348267
1.152,3.0428157,12.4716625,-19.312984,-1.1613585,3.0551002,-6.0603046
1.154,3.099967,12.358679,-19.571014,-1.0244422,2.8190928,-5.983807
1.156,3.1594505,12.256229,-19.831245,-0.88783324,2.5834742,-5.905386
1.158,3.222169,12.162381,-20.092583,-0.7518506,2.3483064,-5.825079
1.16,3.288971,12.07552,-20.353308,-0.61682105,2.1135397,-5.742915
1.162,3.36065,11.994109,-20.61221,-0.48307657,1.8790293,-5.6589584
1.164,3.4378605,11.916801,-20.868269,-0.35094154,1.6445475,-5.5732913
1.166,3.5213366,11.842194,-21.1199,-0.22068906,1.4098281,-5.4860673
1.168,3.6113653,11.769204,-21.365473,-0.09251952,1.1746148,-5.397505
1.17,3.7082462,11.696958,-21.60384,0.033412218,0.9386672,-5.3078685
1.172,3.8121252,11.624939,-21.834093,0.15700507,0.7017803,-5.217474
1.174,3.9229145,11.552807,-22.055862,0.27823746,0.46377695,-5.1266985
1.176,4.040474,11.480499,-22.268513,0.3971542,0.22448766,-5.0359545
1.178,4.1646156,11.407949,-22.47155,0.5138026,-0.01622498,-4.9456573
1.18,4.2947783,11.335494,-22.6647,0.6282337,-0.25849277,-4.856223
1.182,4.429887,11.263914,-22.847988,0.74047434,-0.5024559,-4.768089
1.184,4.5688376,11.193853,-23.021004,0.8504836,-0.74825686,-4.681652
1.186,4.710147,11.126335,-23.183144,0.958187,-0.99597335,-4.5972347
1.188,4.852079,11.062487,-23.334301,1.0634439,-1.2456588,-4.515135
1.19,4.993023,11.00359,-23.474283,1.1660801,-1.4972968,-4.435575
1.192,5.1311903,10.950963,-23.602858,1.2658858,-1.7507908,-4.3587008
1.194,5.264875,10.905928,-23.719782,1.3626375,-2.00595,-4.2846107
1.196,5.392174,10.869806,-23.824955,1.4561415,-2.262454,-4.213363
1.198,5.511649,10.844076,-23.918625,1.5462399,-2.519893,-4.1449614
1.2,5.6219444,10.8299885,-24.00097,1.6328207,-2.7777452,-4.0793724
1.202,5.721885,10.828754,-24.072155,1.7158176,-3.035405,-4.016558
1.204,5.810646,10.841345,-24.132084,1.7952371,-3.2922215,-3.9564497
1.206,5.887437,10.868458,-24.18063,1.8711245,-3.5475588,-3.898957
1.208,5.9516287,10.910795,-24.218071,1.9435512,-3.800797,-3.8439991
1.21,6.003016,10.968647,-24.244669,2.0126038,-4.051336,-3.7915013
1.212,6.041695,11.041748,-24.260227,2.0783713,-4.2986393,-3.7414346
1.214,6.06773,11.129992,-24.26429,2.1409414,-4.542212,-3.6938221
1.216,6.081632,11.232788,-24.256863,2.2003934,-4.7815413,-3.648707
1.218,6.0840473,11.349152,-24.23787,2.2568223,-5.0161285,-3.606194
1.22,6.0757313,11.477736,-24.207043,2.3102899,-5.2454824,-3.5664773
1.222,6.0574493,11.617092,-24.16397,2.3608484,-5.469122,-3.5298238
1.224,6.030221,11.765596,-24.108257,2.408549,-5.686574,-3.496549
1.226,5.994867,11.921316,-24.039232,2.453463,-5.8973684,-3.467002
1.228,5.952219,12.082441,-23.95607,2.4956536,-6.101034,-3.4415283
1.23,5.9033546,12.246644,-23.858204,2.53518,-6.297083,-3.4204292
1.232,5.8487744,12.411709,-23.744812,2.5721269,-6.485029,-3.4039512
1.234,5.7890983,12.575483,-23.615227,2.6065626,-6.664364,-3.3922853
1.236,5.725146,12.736029,-23.468983,2.638538,-6.8345585,-3.3855379
1.238,5.6571693,12.891348,-23.305279,2.6681132,-6.995097,-3.3838124
1.24,5.5853987,13.039585,-23.123634,2.695316,-7.1455107,-3.3872185
1.242,5.510106,13.179052,-22.923468,2.7201576,-7.2852964,-3.3958156
1.244,5.4311323,13.308216,-22.70439,2.7425954,-7.4140253,-3.4096906
1.246,5.3485723,13.425945,-22.466183,2.7625747,-7.5313454,-3.4289224
1.248,5.2623844,13.5308895,-22.20845,2.780023,-7.63701,-3.4535847
1.25,5.172296,13.622152,-21.931013,2.794838,-7.730897,-3.4837384
1.252,5.0784354,13.699024,-21.634083,2.8068883,-7.8129673,-3.5194504
1.254,4.980366,13.761286,-21.318108,2.8160393,-7.8833156,-3.5607462
1.256,4.87765,13.808355,-20.983677,2.8221338,-7.942129,-3.6076603
1.258,4.7703094,13.840263,-20.631378,2.8249974,-7.9896355,-3.6602082
1.26,4.657606,13.857403,-20.261711,2.8244488,-8.026096,-3.718412
1.262,4.538868,13.860004,-19.875595,2.820334,-8.051767,-3.7823005
1.264,4.4142046,13.848442,-19.474222,2.8125257,-8.066823,-3.851904
1.266,4.283116,13.823294,-19.0588,2.8009334,-8.071338,-3.9272127
1.268,4.1454954,13.785479,-18.630102,2.785533,-8.065256,-4.008214
1.27,4.0013666,13.735849,-18.189629,2.7663684,-8.048373,-4.0948725
1.272,3.8511186,13.675347,-17.738575,2.743553,-8.020327,-4.1870756
1.274,3.695061,13.605041,-17.278502,2.7172534,-7.9806023,-4.284613
1.276,3.533654,13.526254,-16.810974,2.6877003,-7.928565,-4.3872323
1.278,3.3678114,13.440244,-16.337658,2.655141,-7.86352,-4.49463
1.28,3.198524,13.348396,-15.860432,2.6198387,-7.784724,-4.606468
1.282,3.0271416,13.252163,-15.381615,2.5820367,-7.6915135,-4.7224016
1.284,2.8557515,13.152866,-14.902956,2.5419405,-7.5832543,-4.8421307
1.286,2.6862144,13.051925,-14.4265175,2.499719,-7.459382,-4.9654303
1.288,2.520903,12.950991,-13.95446,2.455482,-7.31946,-5.092162
1.29,2.3624024,12.85152,-13.488674,2.409295,-7.1630826,-5.222263
1.292,2.2139542,12.755045,-13.031162,2.361144,-6.9898996,-5.3557453
1.294,2.0787055,12.66315,-12.584478,2.3109822,-6.79961,-5.492685
1.296,1.9603176,12.577187,-12.150911,2.2587671,-6.591943,-5.6332297
1.298,1.8622955,12.498785,-11.732413,2.2044759,-6.3666635,-5.7775807
1.3,1.787885,12.429784,-11.331131,2.1481056,-6.1235723,-5.925986
1.302,1.7405891,12.37198,-10.949111,2.0896943,-5.8625402,-6.078704
1.304,1.7238314,12.327269,-10.588131,2.029346,-5.5835214,-6.235991
1.306,1.741219,12.29735,-10.249446,1.9672182,-5.2866335,-6.398117
1.308,1.7959487,12.283984,-9.934294,1.903506,-4.972126,-6.5653067
1.31,1.8912477,12.288812,-9.644096,1.8384477,-4.640409,-6.737687
1.312,2.0299587,12.313367,-9.380211,1.7722974,-4.292088,-6.915311
1.314,2.2148418,12.359533,-9.143361,1.7052958,-3.9279613,-7.098141
1.316,2.448666,12.428914,-8.934289,1.6376734,-3.5489664,-7.2859893
1.318,2.7333663,12.523297,-8.753698,1.5696462,-3.1561584,-7.4785504
1.32,3.0703304,12.644427,-8.602199,1.5013949,-2.750701,-7.6754045
1.322,3.4611096,12.794338,-8.4800415,1.4330778,-2.3338568,-7.8760257
1.324,3.906462,12.974985,-8.38746,1.36483,-1.9069839,-8.079837
1.326,4.406996,13.18836,-8.324226,1.2967887,-1.4714413,-8.286221
1.328,4.9629145,13.436341,-8.290188,1.2290889,-1.0285945,-8.494545
1.33,5.574125,13.720833,-8.285333,1.1618783,-0.5797782,-8.704185
1.332,6.2403975,14.043804,-8.309614,1.095356,-0.12625027,-8.914543
1.334,6.960603,14.407517,-8.363127,1.0297706,0.33086872,-9.125091
1.336,7.7342606,14.8135805,-8.44567,0.96543014,0.7906525,-9.335334
1.338,8.560228,15.263583,-8.556519,0.90271974,1.2523868,-9.544771
1.34,9.436769,15.759872,-8.695093,0.842078,1.715616,-9.752897
1.342,10.36245,16.30436,-8.861773,0.7840078,2.1801782,-9.959196
1.344,11.334878,16.898682,-9.055835,0.729043,2.6461499,-10.163134
1.346,12.351107,17.544292,-9.276179,0.6777282,3.1139023,-10.364127
1.348,13.408407,18.242538,-9.522146,0.63060594,3.5840511,-10.561519
1.35,14.50408,18.993925,-9.79254,0.5881903,4.057418,-10.754612
1.352,15.634988,19.798668,-10.086103,0.5509727,4.534931,-10.94259
1.354,16.79727,20.657131,-10.401587,0.5194073,5.0175686,-11.124594
1.356,17.98657,21.569035,-10.7381,0.49389553,5.5062623,-11.299686
1.358,19.198687,22.53323,-11.094175,0.47480583,6.0019283,-11.466947
1.36,20.429453,23.547422,-11.466876,0.46250677,6.5054097,-11.625416
1.362,21.674877,24.608744,-11.853918,0.4574108,7.017503,-11.774078
1.364,22.931416,25.712969,-12.252924,0.4599905,7.5390067,-11.911899
1.366,24.195541,26.85584,-12.661338,0.47073555,8.070644,-12.037786
1.368,25.463627,28.03181,-13.076573,0.49018908,8.6131,-12.15051
1.37,26.733181,29.234396,-13.49599,0.51903725,9.167186,-12.248819
1.372,28.002316,30.45647,-13.916989,0.55806017,9.733728,-12.33143
1.374,29.269053,31.690197,-14.336334,0.60803175,10.313408,-12.397022
1.376,30.532518,32.926895,-14.750722,0.6697154,10.906776,-12.444287
1.378,31.79266,34.15757,-15.157217,0.7437911,11.514206,-12.472029
1.38,33.04988,35.373016,-15.553041,0.83074236,12.135508,-12.479168
1.382,34.305237,36.56364,-15.935573,0.9307518,12.769909,-12.464849
1.384,35.560226,37.71986,-16.302013,1.0437512,13.416084,-12.428497
1.386,36.817776,38.831863,-16.64998,1.1692562,14.07196,-12.36994
1.388,38.080868,39.890476,-16.977058,1.306293,14.734663,-12.289374
1.39,39.352734,40.886696,-17.281197,1.4534645,15.400734,-12.187264
1.392,40.636963,41.81238,-17.56028,1.6090021,16.066355,-12.06439
1.394,41.93698,42.660324,-17.81323,1.7707729,16.727295,-11.921588
1.396,43.256737,43.423557,-18.03968,1.9362879,17.37916,-11.759911
1.398,44.600822,44.09588,-18.239319,2.1029022,18.017664,-11.580365
1.4,45.973503,44.672684,-18.411572,2.2678843,18.638685,-11.383838
1.402,47.37852,45.15017,-18.556822,2.4285166,19.238369,-11.171141
1.404,48.8201,45.52556,-18.676662,2.58219,19.813316,-10.942945
1.406,50.302505,45.797157,-18.773283,2.72653,20.360584,-10.699802
1.408,51.829548,45.963997,-18.848701,2.859422,20.877716,-10.442226
1.41,53.404533,46.026054,-18.904982,2.9790618,21.362656,-10.170695
1.412,55.030643,45.984406,-18.94488,3.083885,21.813786,-9.885746
1.414,56.710644,45.840797,-18.97125,3.1725817,22.229818,-9.587896
1.416,58.446953,45.59784,-18.987766,3.243954,22.609722,-9.277698
1.418,60.241753,45.25856,-18.998564,3.29694,22.952755,-8.95582
1.42,62.096855,44.826324,-19.006784,3.330584,23.258442,-8.622959
1.422,64.01338,44.305122,-19.015554,3.3439121,23.526579,-8.27982
1.424,65.99211,43.700596,-19.02824,3.3358674,23.757002,-7.927091
1.426,68.03402,43.018646,-19.048115,3.3053439,23.94974,-7.5653124
1.428,70.1416,42.26493,-19.078094,3.2512143,24.105156,-7.1949477
1.43,72.31804,41.44487,-19.121176,3.1722336,24.223778,-6.8164186
1.432,74.56432,40.56653,-19.178759,3.0671144,24.306295,-6.430103
1.434,76.88431,39.63702,-19.251223,2.9345932,24.353931,-6.0363216
1.436,79.279755,38.66638,-19.337994,2.7732687,24.368156,-5.6353245
1.438,81.75204,37.667244,-19.438961,2.5815797,24.350634,-5.227194
1.44,84.30513,36.65438,-19.555378,2.3579717,24.303627,-4.8117366
1.442,86.94006,35.64865,-19.691254,2.1008496,24.229889,-4.388504
1.444,89.656494,34.674225,-19.849106,1.808496,24.132544,-3.956738
1.446,92.446304,33.757133,-20.022385,1.4791803,24.01521,-3.5152597
1.448,95.31198,32.916924,-20.20736,1.1112509,23.882116,-3.0625343
1.45,98.25177,32.183876,-20.396328,0.7032733,23.7379,-2.5965195
1.452,101.26227,31.58554,-20.585686,0.25398922,23.587414,-2.1147633
1.454,104.34015,31.16339,-20.776306,-0.23758554,23.435665,-1.6144428
1.456,107.48764,30.958176,-20.973278,-0.77209187,23.287815,-1.0925779
1.458,110.701996,31.004578,-21.18385,-1.3498044,23.148655,-0.54608727
1.46,113.98354,31.344963,-21.410236,-1.9705939,23.022366,0.028164625
1.462,117.332695,32.05207,-21.67123,-2.6338692,22.912231,0.63321376
1.464,120.748856,33.200363,-21.953804,-3.3387642,22.819935,1.2719773
1.466,124.17931,34.81018,-22.263884,-4.08385,22.745636,1.9471633
1.468,127.66869,36.871502,-22.566551,-4.8669634,22.688211,2.6609824
1.47,131.22255,39.381218,-22.9298,-5.685237,22.645138,3.415153
1.472,134.85683,42.37608,-23.398754,-6.535364,22.61171,4.210299
1.474,138.55794,45.895836,-24.002344,-7.4141674,22.580069,5.045309
1.476,142.27898,49.985718,-24.721872,-8.318242,22.539804,5.9181333
1.478,146.03505,54.72095,-25.466085,-9.2428875,22.480541,6.8263054
1.48,149.83167,60.123257,-26.252777,-10.183588,22.39022,7.7659936
1.482,153.67308,66.18551,-27.117767,-11.136449,22.254297,8.733337
1.484,157.5472,72.814156,-28.01493,-12.098315,22.056355,9.725945
1.486,161.46983,79.980156,-28.949121,-13.067502,21.777029,10.742083
1.488,165.46423,87.64645,-29.932348,-14.043883,21.394543,11.780304
1.49,169.54433,95.71191,-30.883661,-15.028309,20.885527,12.842283
1.492,173.73181,104.07192,-31.733519,-16.022625,20.227472,13.932966
1.494,178.0643,112.64739,-32.47377,-17.032906,19.394726,15.059312
1.496,182.58218,121.350815,-33.09357,-18.064766,18.36098,16.22896
1.498,187.2659,130.1065,-33.578857,-19.125528,17.101234,17.464176
1.5,192.0945,138.80623,-33.864693,-20.22243,15.591161,18.804638
1.502,197.06717,147.31546,-33.853397,-21.353945,13.829538,20.269014
1.504,202.19345,155.49077,-33.44845,-22.518955,11.822569,21.885975
1.506,207.43604,163.1455,-32.57921,-23.72418,9.623432,23.613304
1.508,212.80069,170.1221,-31.175604,-24.969128,7.368284,25.21999
1.51,218.233,176.28955,-29.151287,-26.318167,4.904831,26.955082
1.512,223.7496,181.54413,-26.413687,-27.753582,2.2802563,28.753668
1.514,229.26114,185.84445,-22.896057,-29.255136,-0.39128017,30.469147
1.516,234.66443,189.14522,-18.54946,-30.82684,-3.0334558,31.97323
1.518,239.86691,191.40314,-13.3303585,-32.47323,-5.60083,33.151985
1.52,244.75574,192.59674,-7.226585,-34.19509,-8.064998,33.90851
1.522,249.20685,192.72942,-0.2572497,-35.981777,-10.422037,34.161034
1.524,253.09308,191.84764,7.5256543,-37.799686,-12.697477,33.855568
1.526,256.28976,190.02324,16.05353,-39.58878,-14.948926,32.97244
1.528,258.6745,187.32507,25.245678,-41.264324,-17.264256,31.530485
1.53,260.13867,183.8225,34.9831,-42.715374,-19.740786,29.584549
1.532,260.58295,179.59285,45.117176,-43.80345,-22.45126,27.210789
1.534,259.92587,174.74222,55.459236,-44.372654,-25.414742,24.493029
1.536,258.11295,169.3916,65.799484,-44.2659,-28.575123,21.508093
1.538,255.1265,163.66687,75.9162,-43.344696,-31.805645,18.32563
1.54,250.9881,157.69403,85.58491,-41.509567,-34.922478,15.014114
1.542,245.74493,151.6034,94.586205,-38.71658,-37.69668,11.642996
1.544,239.47845,145.52238,102.70677,-34.98908,-39.888634,8.273356
1.546,232.30498,139.56783,109.75465,-30.421064,-41.29129,4.9755764
1.548,224.3643,133.84837,115.575554,-25.168756,-41.755928,1.8477917
1.55,215.81183,128.46263,120.057976,-19.439522,-41.209644,-0.98464584
1.552,206.81854,123.49029,123.13463,-13.470212,-39.66432,-3.3894844
1.554,197.56288,118.99437,124.77748,-7.504717,-37.21634,-5.2396107
1.556,188.22816,115.02228,124.99417,-1.7763734,-34.046642,-6.403819
1.558,178.97818,111.61015,123.83689,3.520049,-30.367897,-6.802108
1.56,169.96727,108.76489,121.39373,8.242396,-26.42576,-6.3655167
1.562,161.33044,106.479065,117.79222,12.290234,-22.480637,-5.0252724
1.564,153.17883,104.71658,113.19078,15.653594,-18.540562,-3.2054987
1.566,145.59348,103.43381,107.76844,18.28174,-14.855529,-0.97393703
1.568,138.63406,102.58379,101.71431,20.194649,-11.638377,1.5328863
1.57,132.32954,102.103806,95.2137,21.477955,-8.977369,4.0576944
1.572,126.68371,101.900246,88.459915,22.23571,-6.8944874,6.311964
1.574,121.6789,101.88497,81.603676,22.58132,-5.3805876,8.034968
1.576,117.31505,102.01852,74.80061,22.629225,-4.395303,9.037167
1.578,113.4799,102.268715,68.15126,22.486816,-3.8668003,9.212731
1.58,110.10322,102.575455,61.824165,22.255411,-3.691575,8.547033
1.582,107.101845,102.83649,55.914604,22.03019,-3.7390547,7.1122017
1.584,104.418335,102.96054,50.464935,21.891232,-3.8714933,5.0539007
1.586,102.013824,102.86708,45.45349,21.89462,-3.9649353,2.5753214
1.588,99.78638,102.47248,40.800472,22.074314,-3.9163027,-0.09026909
1.59,97.65945,101.76542,36.535435,22.44208,-3.651249,-2.708436
1.592,95.57046,100.76191,32.67458,22.988516,-3.1214848,-5.074446
1.594,93.48237,99.5392,29.143902,23.68621,-2.3085814,-7.031492
1.596,91.34094,98.09032,25.92426,24.493225,-1.2350531,-8.475761
1.598,89.10418,96.41761,22.994822,25.358715,0.046833992,-9.351766
1.6,86.753685,94.57593,20.257866,26.229168,1.4696655,-9.664218
1.602,84.27338,92.60247,17.660927,27.052677,2.956747,-9.476919
1.604,81.643936,90.50144,15.222281,27.781847,4.427149,-8.89189
1.606,78.85564,88.28753,12.950721,28.37801,5.8078327,-8.028354
1.608,75.95395,85.96842,10.848907,28.81142,7.0451536,-7.0048075
1.61,72.966034,83.58574,8.878889,29.062351,8.1061125,-5.928217
1.612,69.88726,81.19647,6.995802,29.121847,8.970974,-4.8885493
1.614,66.70144,78.8516,5.1820564,28.989897,9.634011,-3.952322
1.616,63.42991,76.62296,3.4557877,28.67485,10.1059885,-3.1587925
1.618,60.044174,74.534256,1.8326073,28.190546,10.40797,-2.519209
1.62,56.5692,72.582,0.30947304,27.553558,10.565856,-2.021349
1.622,52.959446,70.74887,-1.1211529,26.78259,10.607668,-1.6386886
1.624,49.270527,68.98506,-2.4476414,25.897594,10.560062,-1.3392181
1.626,45.542274,67.280174,-3.6593246,24.918465,10.444934,-1.0911808
1.628,41.78718,65.644325,-4.7604103,23.864208,10.2793045,-0.86790085
1.63,38.02672,64.08509,-5.7473335,22.752779,10.0763645,-0.6505823
1.632,34.28364,62.605316,-6.616495,21.60116,9.845148,-0.4282198
1.634,30.579626,61.19004,-7.3657303,20.42455,9.590252,-0.19731903
1.636,26.932192,59.828583,-8.008205,19.235695,9.312756,0.03867817
1.638,23.360466,58.535114,-8.568897,18.045324,9.012402,0.2712736
1.64,19.879377,57.331802,-9.058212,16.862585,8.688994,0.48978853
1.642,16.508327,56.234978,-9.480339,15.695221,8.343061,0.68394136
1.644,13.264601,55.235996,-9.825253,14.549887,7.976534,0.84504795
1.646,10.158419,54.3211,-10.085278,13.432333,7.592991,0.96620035
1.648,7.18832,53.479248,-10.258503,12.347431,7.197644,1.0422149
1.65,4.3473034,52.702152,-10.347316,11.2992325,6.7972536,1.0705032
1.652,1.6365108,51.97616,-10.359618,10.291052,6.399906,1.0517411
1.654,-0.94812965,51.291008,-10.298987,9.325464,6.01422,0.9896126
1.656,-3.4137306,50.64087,-10.17339,8.404285,5.648519,0.89024115
1.658,-5.7649956,50.02036,-10.000114,7.52848,5.3101163,0.7616873
1.66,-8.004024,49.425243,-9.801316,6.698118,5.005022,0.6136627
1.662,-10.132993,48.855785,-9.597551,5.9123106,4.737584,0.45696926
1.664,-12.154082,48.315998,-9.404815,5.169137,4.5101066,0.30276966
1.666,-14.069899,47.811287,-9.235426,4.4658356,4.322776,0.16196656
1.668,-15.882066,47.347595,-9.096784,3.798963,4.173755,0.04444337
1.67,-17.59135,46.93079,-8.993104,3.1645231,4.059346,-0.041502
1.672,-19.197815,46.56677,-8.927563,2.5580788,3.9742382,-0.089665055
1.674,-20.701532,46.259537,-8.903001,1.9749707,3.9118094,-0.09628582
1.676,-22.103447,46.008255,-8.919626,1.4105232,3.864441,-0.060179234
1.678,-23.404663,45.807514,-8.974666,0.86021185,3.8238516,0.017393112
1.68,-24.604872,45.649773,-9.063549,0.31979263,3.7813957,0.13304007
1.682,-25.702972,45.52718,-9.179044,-0.21451253,3.7285004,0.28166795
1.684,-26.697035,45.432144,-9.312706,-0.7459058,3.6569734,0.45705244
1.686,-27.582848,45.356167,-9.454029,-1.2768476,3.5593581,0.65238225
1.688,-28.35593,45.29072,-9.591092,-1.8090041,3.4292963,0.86066365
1.69,-29.010996,45.227207,-9.7107935,-2.3431966,3.2618172,1.0751231
1.692,-29.542746,45.15767,-9.799603,-2.8793945,3.0536118,1.2894967
1.694,-29.946255,45.074257,-9.843853,-3.4167404,2.8032422,1.498125
1.696,-30.216312,44.969013,-9.830198,-3.9535718,2.511262,1.695854
1.698,-30.348715,44.834515,-9.7469225,-4.4875298,2.1802702,1.8780165
1.7,-30.340347,44.663574,-9.583931,-5.0156217,1.814896,2.0403996
1.702,-30.18948,44.449966,-9.332448,-5.5343575,1.4216251,2.1792278
1.704,-29.89587,44.189068,-8.986102,-6.0398855,1.0085628,2.2912068
1.706,-29.461037,43.878143,-8.541006,-6.5281115,0.5850582,2.373693
1.708,-28.888859,43.516445,-7.996158,-6.9948993,0.16125894,2.4247894
1.71,-28.184593,43.104973,-7.353458,-7.4361963,-0.25228667,2.4433978
1.712,-27.354671,42.646084,-6.6171827,-7.8481045,-0.6450176,2.4292
1.714,-26.406815,42.14359,-5.7943544,-8.226995,-1.0069075,2.3825765
1.716,-25.350351,41.60282,-4.8940897,-8.569604,-1.3288455,2.3045228
1.718,-24.196201,41.03037,-3.9280229,-8.873041,-1.6027672,2.1964421
1.72,-22.956638,40.43363,-2.9099112,-9.134905,-1.8219357,2.0599194
1.722,-21.644548,39.820076,-1.8546026,-9.35335,-1.9811425,1.896466
1.724,-20.273554,39.197563,-0.7781703,-9.527113,-2.0768404,1.7073616
1.726,-18.857698,38.573654,0.30194378,-9.655577,-2.1071835,1.4936233
1.728,-17.410889,37.955235,1.3687894,-9.738867,-2.0720384,1.2560339
1.73,-15.946229,37.348095,2.4057956,-9.777945,-1.9729097,0.99519587
1.732,-14.476132,36.75744,3.3976078,-9.774576,-1.8127518,0.71169806
1.734,-13.012223,36.187935,4.3300385,-9.731294,-1.5957932,0.40626574
1.736,-11.563578,35.643414,5.1911426,-9.651344,-1.3273973,0.07999468
1.738,-10.138153,35.126953,5.970887,-9.538571,-1.0136986,-0.2655313
1.74,-8.741969,34.640232,6.6621656,-9.397231,-0.66135573,-0.62811327
1.742,-7.3802276,34.18456,7.260735,-9.231851,-0.27728295,-1.0048213
1.744,-6.058065,33.761482,7.764091,-9.046976,0.13161922,-1.3921442
1.746,-4.7783337,33.371967,8.171411,-8.8470745,0.5586972,-1.7861052
1.748,-3.5415497,33.015987,8.484159,-8.636381,0.9977534,-2.1823766
1.75,-2.3476257,32.69325,8.705794,-8.4188,1.4431813,-2.5763488
1.752,-1.1949272,32.4029,8.841663,-8.197821,1.8900702,-2.9633517
1.754,-0.08169365,32.144062,8.898789,-7.9764814,2.3342328,-3.3388433
1.756,0.9953995,31.915483,8.88531,-7.757335,2.7722418,-3.6985898
1.758,2.040331,31.715927,8.810116,-7.542424,3.2014337,-4.0388374
1.76,3.0572662,31.544296,8.68229,-7.333327,3.6198344,-4.3564916
1.762,4.051344,31.399063,8.511589,-7.1311574,4.026172,-4.64917
1.764,5.027235,31.279207,8.307382,-6.9366145,4.419747,-4.915276
1.766,5.9900904,31.18335,8.078379,-6.750098,4.8002896,-5.1539574
1.768,6.944977,31.109947,7.833441,-6.5717597,5.1677275,-5.3650613
1.77,7.8964615,31.05753,7.5807667,-6.4016113,5.5222044,-5.5490465
1.772,8.849059,31.024227,7.3274107,-6.23952,5.863972,-5.7069125
1.774,9.8059845,31.007906,7.0791883,-6.085272,6.1932564,-5.8401904
1.776,10.769844,31.00616,6.8408136,-5.938549,6.5101795,-5.950779
1.778,11.742041,31.016582,6.615524,-5.798938,6.8147683,-6.0408406
1.78,12.723907,31.03649,6.405972,-5.6659565,7.1069403,-6.1126933
1.782,13.715601,31.062733,6.214146,-5.539028,7.3865414,-6.168715
1.784,14.716952,31.092163,6.0413876,-5.4174876,7.6534014,-6.2112503
1.786,15.726958,31.12152,5.887943,-5.300626,7.907334,-6.2425966
1.788,16.744396,31.147114,5.7535367,-5.1877365,8.148187,-6.2649097
1.79,17.767067,31.16531,5.63708,-5.078149,8.375904,-6.280161
1.792,18.79265,31.172394,5.5370007,-4.9712243,8.590528,-6.290086
1.794,19.818254,31.1642,5.4516954,-4.872175,8.793693,-6.295892
1.796,20.840488,31.136745,5.3792553,-4.7727227,8.983531,-6.2992954
1.798,21.8559,31.085896,5.31712,-4.676321,9.161261,-6.301083
1.8,22.860357,31.007824,5.2627935,-4.583121,9.327269,-6.301995
1.802,23.84966,30.89865,5.213843,-4.4932203,9.481939,-6.3025546
1.804,24.819681,30.75425,5.1678534,-4.406469,9.625602,-6.303189
1.806,25.765392,30.571495,5.1223454,-4.322297,9.758561,-6.3043017
1.808,26.68201,30.347065,5.074835,-4.2395697,9.881044,-6.3063354
1.81,27.564945,30.077898,5.0233045,-4.1565084,9.993248,-6.3098044
1.812,28.409174,29.761574,4.9656363,-4.070714,10.09536,-6.3152947
1.814,29.209936,29.396027,4.8999696,-3.979321,10.187614,-6.3235197
1.816,29.962765,28.979452,4.8244247,-3.879271,10.270281,-6.3352356
1.818,30.6627,28.511147,4.737423,-3.767695,10.3437805,-6.351125
1.82,31.305382,27.990849,4.637501,-3.642295,10.408613,-6.3716965
1.822,31.886139,27.419224,4.5230427,-3.501617,10.465399,-6.3971868
1.824,32.400665,26.79741,4.3925934,-3.34519,10.514776,-6.427476
1.826,32.845123,26.127043,4.2448063,-3.1735408,10.557327,-6.4620023
1.828,33.216064,25.410542,4.078347,-2.9879818,10.593519,-6.4997563
1.83,33.51054,24.651056,3.8920603,-2.790379,10.623564,-6.5393014
1.832,33.725967,23.852345,3.6848173,-2.5828838,10.647318,-6.578844
1.834,33.860725,23.018562,3.4554615,-2.367681,10.664216,-6.6162386
1.836,33.913727,22.154224,3.203289,-2.1468158,10.673288,-6.649125
1.838,33.884624,21.26432,2.9276075,-1.9221432,10.673195,-6.6751795
1.84,33.77404,20.354155,2.6280088,-1.6953475,10.662249,-6.6921535
1.842,33.583336,19.429049,2.3043356,-1.4679929,10.638514,-6.6979666
1.844,33.314682,18.494688,1.9567642,-1.2415991,10.599888,-6.6908393
1.846,32.97068,17.556425,1.5856333,-1.0177772,10.544145,-6.669324
1.848,32.554977,16.620024,1.191802,-0.79482627,10.468222,-6.632515
1.85,32.07186,15.690858,0.7766819,-0.58267415,10.372183,-6.579247
1.852,31.526012,14.774317,0.34220028,-0.3776337,10.252678,-6.5094347
1.854,30.922817,13.875581,-0.10919666,-0.18170393,10.108046,-6.4229527
1.856,30.268906,12.999651,-0.5741644,0.003259182,9.936882,-6.319889
1.858,29.570688,12.151215,-1.0489159,0.17553109,9.738103,-6.200489
1.86,28.834236,11.333382,-1.5294638,0.33359617,9.510963,-6.0651426
1.862,28.06589,10.549602,-2.0111036,0.4761383,9.255102,-5.91439
1.864,27.273153,9.803296,-2.4887366,0.6021024,8.970559,-5.7489605
1.866,26.462889,9.09763,-2.9575062,0.71065986,8.657726,-5.569786
1.868,25.642302,8.435031,-3.4121115,0.80123585,8.317368,-5.378026
1.87,24.817987,7.8175178,-3.8469417,0.87357503,7.950699,-5.175132
1.872,23.996595,7.246586,-4.2566566,0.9277457,7.559306,-4.962862
1.874,23.18471,6.722989,-4.635971,0.96416926,7.145193,-4.743233
1.876,22.388363,6.247199,-4.9798365,0.98362184,6.7107077,-4.518462
1.878,21.613285,5.8190637,-5.2835693,0.98724127,6.2585697,-4.290885
1.88,20.864939,5.438137,-5.542865,0.97653186,5.7918277,-4.0629177
1.882,20.14814,5.1033936,-5.7538695,0.9533171,5.3137584,-3.8369222
1.884,19.467062,4.8135853,-5.913503,0.91972136,4.827821,-3.615148
1.886,18.825403,4.566947,-6.019446,0.8781363,4.337582,-3.3996465
1.888,18.226501,4.361226,-6.0698485,0.8310751,3.8465514,-3.1923683
1.89,17.672539,4.1940975,-6.0639563,0.78103167,3.3581343,-2.9950666
1.892,17.165285,4.063018,-6.001706,0.730533,2.8756592,-2.8089988
1.894,16.705761,3.9654124,-5.883963,0.68195623,2.4022615,-2.635143
1.896,16.294415,3.898445,-5.71229,0.63742155,1.940731,-2.47439
1.898,15.930857,3.859515,-5.4891253,0.5987388,1.4935105,-2.3274503
1.9,15.614301,3.8458369,-5.217426,0.567368,1.0627297,-2.1948774
1.902,15.343426,3.8547983,-4.9007916,0.54434025,0.6501519,-2.077019
1.904,15.116233,3.8841012,-4.5432305,0.53028107,0.2571823,-1.9739882
1.906,14.930488,3.9314811,-4.149027,0.52543354,-0.11505318,-1.8856679
1.908,14.783449,3.9950805,-3.7227213,0.52971625,-0.46569014,-1.8117086
1.91,14.672239,4.0733595,-3.2691395,0.5427568,-0.7941325,-1.7515459
1.912,14.593743,4.1649137,-2.793071,0.56398803,-1.0999942,-1.7044194
1.914,14.544515,4.268922,-2.2994044,0.59266543,-1.3830853,-1.6693984
1.916,14.521178,4.3843155,-1.79283,0.62796164,-1.6434366,-1.6454394
1.918,14.520471,4.5101237,-1.2777997,0.66899955,-1.8812492,-1.6314819
1.92,14.538756,4.6460543,-0.7588487,0.71489316,-2.0968885,-1.6265235
1.922,14.572876,4.7916427,-0.24015176,0.7647884,-2.2908914,-1.6296623
1.924,14.619663,4.9464808,0.27466333,0.81783074,-2.4639745,-1.64012
1.926,14.676047,5.110262,0.78215826,0.87323266,-2.6169393,-1.6572291
1.928,14.739689,5.282304,1.2792002,0.9302448,-2.7506874,-1.6804606
1.93,14.808139,5.4619055,1.7632097,0.9882035,-2.8661544,-1.7093799
1.932,14.879346,5.6483917,2.231967,1.0465145,-2.9643166,-1.7436302
1.934,14.951558,5.840706,2.6836867,1.1046708,-3.0461428,-1.7828693
1.936,15.022833,6.0379367,3.1168792,1.1622578,-3.1125875,-1.8268144
1.938,15.091789,6.2388487,3.5304954,1.2189491,-3.164593,-1.8751997
1.94,15.15707,6.4419174,3.9236832,1.2745001,-3.2030985,-1.9277989
1.942,15.217287,6.6456294,4.2957773,1.3287988,-3.2290268,-1.9843441
1.944,15.271276,6.8481636,4.646517,1.3818185,-3.2433453,-2.0445669
1.946,15.317989,7.047555,4.9756947,1.4335201,-3.2471328,-2.1084013
1.948,15.356526,7.2417393,5.2834096,1.4839551,-3.2414715,-2.1757398
1.95,15.385892,7.4284554,5.569868,1.5332098,-3.2273784,-2.2463312
1.952,15.405333,7.6054273,5.83532,1.5813682,-3.2058256,-2.3198967
1.954,15.41444,7.7704754,6.080365,1.6285348,-3.1777806,-2.3961177
1.956,15.412573,7.9213886,6.305704,1.6748214,-3.1441464,-2.4746459
1.958,15.399513,8.05604,6.5120707,1.7203298,-3.105729,-2.5550838
1.96,15.374611,8.172779,6.700299,1.7651547,-3.0632195,-2.6369536
1.962,15.337731,8.270033,6.8712196,1.8093493,-3.017224,-2.7196794
1.964,15.2888365,8.346628,7.0257864,1.852948,-2.9682164,-2.8025503
1.966,15.2275715,8.401357,7.1648827,1.8959622,-2.916578,-2.8847365
1.968,15.154195,8.433645,7.2895226,1.9383669,-2.8626044,-2.9653077
1.97,15.069683,8.444211,7.4009304,1.9801164,-2.8064952,-3.043222
1.972,14.974602,8.433155,7.500141,2.0211582,-2.7483664,-3.11736
1.974,14.869156,8.400334,7.588085,2.0614648,-2.6882625,-3.1865847
1.976,14.754298,8.346192,7.6661263,2.100995,-2.6261659,-3.2497663
1.978,14.631079,8.271643,7.735406,2.1397486,-2.5620012,-3.3058558
1.98,14.501013,8.177816,7.796817,2.1777592,-2.4955907,-3.3539336
1.982,14.365326,8.06628,7.851612,2.215147,-2.4266882,-3.3932505
1.984,14.22551,7.938894,7.9007387,2.2520697,-2.3549685,-3.4232678
1.986,14.083271,7.797428,7.9453015,2.2887473,-2.280036,-3.4436607
1.988,13.94017,7.643985,7.98598,2.3254256,-2.2014503,-3.4543037
1.99,13.797854,7.480522,8.023785,2.3623931,-2.1187062,-3.4552546
1.992,13.657994,7.3090916,8.059307,2.3999476,-2.0312939,-3.4467177
1.994,13.522216,7.1316595,8.093284,2.4383492,-1.9387228,-3.4289727
1.996,13.391975,6.950307,8.126258,2.4778173,-1.8405184,-3.4023604
1.998,13.26862,6.7670045,8.158715,2.518519,-1.7362796,-3.3672009
2,13.153255,6.583665,8.191029,2.5605526,-1.6256926,-3.3237603
2.002,13.046941,6.402066,8.22318,2.603933,-1.5085728,-3.2722654
2.004,12.950414,6.2237697,8.255354,2.6486073,-1.3848861,-3.212902
2.006,12.8642025,6.050221,8.287572,2.694457,-1.2547504,-3.1458483
2.008,12.788568,5.8826847,8.319587,2.7412794,-1.1184543,-3.0713418
2.01,12.723483,5.72239,8.351184,2.788857,-0.97643256,-2.9897335
2.012,12.66867,5.5701323,8.382055,2.8369424,-0.82926714,-2.9015276
2.014,12.623734,5.4266167,8.411936,2.8852868,-0.6777108,-2.8074107
2.016,12.587893,5.2925053,8.44038,2.9336612,-0.5226072,-2.7082615
2.018,12.560369,5.168114,8.466959,2.9818606,-0.36490536,-2.6051173
2.02,12.540274,5.0536513,8.491223,3.029709,-0.20561755,-2.4991386
2.022,12.526376,4.949362,8.512681,3.0770693,-0.0457685,-2.391528
2.024,12.517277,4.8550415,8.530731,3.1238286,0.11362755,-2.283458
2.026,12.511857,4.7705407,8.544925,3.169858,0.2715814,-2.1760168
2.028,12.508773,4.695691,8.554794,3.2150362,0.42718494,-2.0701349
2.03,12.506662,4.630038,8.559931,3.2592366,0.579608,-1.9665539
2.032,12.504379,4.5730457,8.560009,3.3023014,0.72811097,-1.8657867
2.034,12.5005,4.524288,8.55455,3.344048,0.87204933,-1.7681398
2.036,12.494024,4.4832687,8.543307,3.3842683,1.0109001,-1.6737078
2.038,12.483666,4.44952,8.526082,3.4227724,1.1442089,-1.5824414
2.04,12.468657,4.4224443,8.502579,3.4593687,1.2716178,-1.4941878
2.042,12.448174,4.401379,8.472608,3.4939032,1.3928366,-1.4087464
2.044,12.421492,4.386014,8.436024,3.5262446,1.5076407,-1.3258835
2.046,12.388218,4.3757496,8.392857,3.5563185,1.6158516,-1.2454053
2.048,12.347852,4.370125,8.34297,3.5840964,1.7173431,-1.1671628
2.05,12.299899,4.368754,8.286539,3.6096058,1.8120034,-1.0910505
2.052,12.24427,4.3713446,8.223625,3.632896,1.8997576,-1.0170127
2.054,12.180725,4.3774576,8.154415,3.654053,1.9805583,-0.9450366
2.056,12.109482,4.3869944,8.079245,3.673183,2.0543787,-0.87512445
2.058,12.030364,4.399631,7.9982376,3.6904044,2.1212215,-0.80727524
2.06,11.943576,4.4151945,7.911772,3.7058392,2.1811173,-0.7414741
2.062,11.849262,4.4334893,7.8203244,3.7196023,2.2341316,-0.6777061
2.064,11.747585,4.4542713,7.7242613,3.7317626,2.2803397,-0.6159132
2.066,11.63892,4.477521,7.6239266,3.7423902,2.3198385,-0.5560365
2.068,11.523402,4.5030556,7.5197396,3.7515051,2.352772,-0.49801058
2.07,11.4015,4.530796,7.412138,3.7590926,2.3792758,-0.44175768
2.072,11.273558,4.5607843,7.3016686,3.7650936,2.3995109,-0.38720155
2.074,11.139984,4.5929694,7.1887836,3.7694237,2.4136438,-0.33427015
2.076,11.001346,4.627548,7.073943,3.771967,2.421821,-0.28290096
2.078,10.858107,4.664625,6.957791,3.7725809,2.4241698,-0.23302208
2.08,10.710882,4.70424,6.8408217,3.771125,2.4208193,-0.18455857
2.082,10.560389,4.7466865,6.723424,3.7674506,2.4118562,-0.13743432
2.084,10.407229,4.7922254,6.6061893,3.7614021,2.3973293,-0.09156202
2.086,10.25211,4.8410835,6.489526,3.7528353,2.3772655,-0.046837784
2.088,10.09565,4.893443,6.3739023,3.7416174,2.3516502,-0.003177479
2.09,9.938669,4.9494753,6.2599254,3.7276115,2.3204443,0.039498776
2.092,9.781943,5.0092187,6.148013,3.710691,2.2836008,0.0812646
2.094,9.626149,5.0727677,6.038876,3.6907675,2.2410715,0.12219331
2.096,9.47198,5.1400757,5.9329095,3.6677744,2.1928287,0.16232173
2.098,9.320199,5.211012,5.8309083,3.641676,2.1388702,0.20165323
2.1,9.171352,5.2854757,5.7333374,3.612457,2.0792396,0.24018347
2.102,9.025911,5.3633785,5.6407814,3.5801458,2.0140445,0.27787328
2.104,8.884619,5.44439,5.553713,3.544788,1.9434528,0.31464723
2.106,8.747851,5.528119,5.4727616,3.5064979,1.8676927,0.350409
2.108,8.616028,5.6142397,5.3983464,3.4653895,1.7870545,0.3850521
2.11,8.489554,5.7022753,5.3309503,3.421613,1.7018921,0.41846162
2.112,8.368745,5.7918262,5.271099,3.3753462,1.6126097,0.45052698
2.114,8.253742,5.8824515,5.2191486,3.3267992,1.5196415,0.48114443
2.116,8.144694,5.9737854,5.175465,3.2761867,1.4234586,0.5102332
2.118,8.041844,6.0652084,5.1404824,3.2237332,1.3245418,0.53772277
2.12,7.9451823,6.156252,5.1144285,3.1696703,1.2233849,0.56358206
2.122,7.8547373,6.2463665,5.0975657,3.1142297,1.1204522,0.58779263
2.124,7.7704782,6.335023,5.0899687,3.057648,1.0162084,0.61035424
2.126,7.6923637,6.421651,5.091702,3.0001283,0.91109085,0.6312834
2.128,7.620105,6.505948,5.1028476,2.9418793,0.80552065,0.6506187
2.13,7.5535517,6.5873504,5.123345,2.8830886,0.69989944,0.6684
2.132,7.4925213,6.665466,5.1530247,2.8239467,0.5946232,0.6846773
2.134,7.4366293,6.740112,5.191815,2.7646265,0.49005646,0.69951415
2.136,7.3855762,6.810927,5.239471,2.705284,0.3865828,0.7129932
2.138,7.338871,6.877762,5.295642,2.646093,0.28457648,0.7251997
2.14,7.296226,6.94049,5.359984,2.5872142,0.1844114,0.73624015
2.142,7.257175,6.9991136,5.4321327,2.5287979,0.08645743,0.7462698
2.144,7.2215176,7.0534844,5.5115075,2.4709907,-0.008910596,0.7554459
2.146,7.188637,7.1036673,5.597499,2.413931,-0.101310074,0.7639537
2.148,7.1582055,7.1497383,5.6894417,2.3577325,-0.19039059,0.7719794
2.15,7.129575,7.191727,5.7866774,2.3024797,-0.27582633,0.77973646
2.152,7.1026087,7.2298574,5.8884873,2.2482383,-0.35730207,0.7874359
2.154,7.0766454,7.26429,5.994106,2.1950483,-0.43453372,0.79526925
2.156,7.051421,7.2951846,6.1026316,2.1429214,-0.5072973,0.80341315
2.158,7.0265603,7.322812,6.2133865,2.0918567,-0.57540363,0.8120183
2.16,7.001813,7.347498,6.325438,2.041839,-0.6387078,0.821205
2.162,6.9767747,7.369316,6.4379635,1.9928534,-0.6971145,0.8310449
2.164,6.951208,7.3886843,6.550141,1.9448911,-0.7505903,0.84157586
2.166,6.924752,7.4058213,6.661212,1.8979337,-0.79913545,0.8528013
2.168,6.897317,7.4209003,6.770519,1.8519622,-0.8428021,0.8647059
2.17,6.868737,7.4343486,6.877236,1.8069646,-0.88169056,0.8772478
2.172,6.838892,7.4463315,6.9807715,1.7629292,-0.9159234,0.89037675
2.174,6.8075676,7.457307,7.080544,1.7198257,-0.9456752,0.90407014
2.176,6.7749796,7.4674006,7.1760645,1.6776148,-0.97114474,0.91832876
2.178,6.7410398,7.477045,7.2670155,1.636219,-0.9925539,0.9331675
2.18,6.7059116,7.4865046,7.3529763,1.5955603,-1.0101417,0.94864166
2.182,6.6697497,7.4959707,7.433656,1.5555263,-1.0241492,0.96483445
2.184,6.632642,7.5058765,7.5087357,1.5159922,-1.0348175,0.98182476
2.186,6.5947685,7.5164537,7.578223,1.4768142,-1.0423764,0.9996996
2.188,6.556389,7.528093,7.6417994,1.4378409,-1.0470442,1.0185266
2.19,6.517745,7.541155,7.699533,1.3989096,-1.049041,1.0383674
2.192,6.47897,7.555977,7.7513456,1.3598564,-1.0485572,1.0592694
2.194,6.440419,7.572958,7.7972507,1.3205198,-1.0457945,1.081255
2.196,6.4022503,7.5923796,7.8373365,1.280756,-1.0409535,1.1043304
2.198,6.364847,7.6146827,7.8715925,1.2404075,-1.0342251,1.1285319
2.2,6.328292,7.640106,7.9002624,1.1993273,-1.025824,1.1538801
2.202,6.2927227,7.669075,7.923344,1.1573892,-1.0159584,1.1804096
2.204,6.2583847,7.7018304,7.9410324,1.1144929,-1.0048403,1.2081523
2.206,6.2254567,7.7385626,7.9535766,1.0705339,-0.99270827,1.2371264
2.208,6.1938763,7.7794237,7.961111,1.0254328,-0.97980183,1.2673244
2.21,6.163652,7.8244805,7.963815,0.9791312,-0.96635956,1.2987137
2.212,6.1349263,7.8738184,7.961915,0.93157727,-0.9526122,1.3312237
2.214,6.107464,7.9273787,7.9557323,0.8827349,-0.9387923,1.3647268
2.216,6.0813017,7.9851513,7.9453583,0.8325976,-0.92512214,1.3990526
2.218,6.056181,8.047008,7.931219,0.7811718,-0.9117864,1.433985
2.22,6.0320373,8.112911,7.9134154,0.7284876,-0.8989618,1.4692835
2.222,6.0085626,8.182684,7.892339,0.6745769,-0.88678753,1.504693
2.224,5.9856873,8.256171,7.8682227,0.6195116,-0.8753714,1.5399504
2.226,5.963224,8.333032,7.84141,0.5633471,-0.8648063,1.5748143
2.228,5.940878,8.413189,7.8120775,0.5061593,-0.8551453,1.6090657
2.23,5.918535,8.496254,7.780525,0.44802746,-0.84643346,1.6425333
2.232,5.89594,8.582118,7.7469225,0.38901725,-0.8387103,1.6751157
2.234,5.8729095,8.670404,7.7115936,0.32919544,-0.8320153,1.7067635
2.236,5.849107,8.7609825,7.6748695,0.26859426,-0.82638216,1.7374915
2.238,5.824651,8.853442,7.636963,0.20722109,-0.8218637,1.7673743
2.24,5.7990685,8.947811,7.59815,0.1450918,-0.818526,1.7965165
2.242,5.772319,9.043881,7.5587482,0.08217561,-0.81644595,1.8250515
2.244,5.744297,9.141595,7.518847,0.018452883,-0.81572515,1.8531077
2.246,5.7148757,9.24082,7.4789047,-0.046117216,-0.8164814,1.8808031
2.248,5.684064,9.341401,7.439187,-0.11156875,-0.81883705,1.9082434
2.25,5.6517906,9.443255,7.400029,-0.17793009,-0.82292175,1.9354943
2.252,5.618101,9.546232,7.361648,-0.24521637,-0.828896,1.9625742
2.254,5.582913,9.650293,7.3244257,-0.3134482,-0.83690023,1.9894791
2.256,5.546442,9.75511,7.288775,-0.38264906,-0.84710747,2.0161715
2.258,5.508957,9.860521,7.2549944,-0.4528405,-0.85966396,2.042575
2.26,5.470629,9.966323,7.2236,-0.5240354,-0.8747019,2.0685797
2.262,5.4315543,10.072113,7.1949215,-0.5962607,-0.89231503,2.0940473
2.264,5.392181,10.177507,7.1694117,-0.6695493,-0.91253215,2.1187675
2.266,5.3527403,10.282092,7.1475215,-0.7438975,-0.9353175,2.1424956
2.268,5.3137727,10.3853245,7.129746,-0.8192883,-0.9605492,2.164951
2.27,5.275674,10.486672,7.1164308,-0.89565945,-0.98800516,2.1858046
2.272,5.2388344,10.585548,7.108207,-0.9728892,-1.0173823,2.2047207
2.274,5.2038918,10.681261,7.1053953,-1.0507791,-1.0482781,2.221354
2.276,5.171282,10.773108,7.1084414,-1.129057,-1.0802096,2.2354085
2.278,5.1413684,10.860479,7.117742,-1.2073933,-1.1126597,2.2466717
2.28,5.1147346,10.942562,7.1337123,-1.2853698,-1.1450644,2.2550287
2.282,5.091776,11.018877,7.156546,-1.3625607,-1.1768701,2.2604873
2.284,5.07294,11.08872,7.1864934,-1.4385304,-1.2074981,2.2632017
2.286,5.0584292,11.151779,7.223794,-1.5128467,-1.2364035,2.2634342
2.288,5.0485954,11.207575,7.2684937,-1.5851531,-1.2630513,2.2615373
2.29,5.043561,11.255825,7.320596,-1.6551267,-1.2869335,2.2579217
2.292,5.0434384,11.296452,7.380044,-1.72252,-1.3075639,2.2530231
2.294,5.048434,11.329306,7.4468546,-1.7871732,-1.3244853,2.2472622
2.296,5.0586133,11.354392,7.520599,-1.8489505,-1.3372754,2.2410185
2.298,5.0738254,11.371819,7.601047,-1.907784,-1.3455408,2.2345953
2.3,5.0940866,11.381815,7.6878233,-1.96362,-1.3489377,2.2282126
2.302,5.1192408,11.384422,7.780575,-2.0164156,-1.3471866,2.2220116
2.304,5.148947,11.380079,7.8787208,-2.0661466,-1.34005,2.2160902
2.306,5.182989,11.369064,7.9817743,-2.1127694,-1.3273383,2.2104719
2.308,5.220994,11.351836,8.089094,-2.1562471,-1.3089211,2.205114
2.31,5.2626,11.328771,8.200087,-2.196533,-1.284703,2.1999462
2.312,5.3073716,11.300482,8.314154,-2.2335804,-1.2546401,2.194871
2.314,5.3546762,11.267377,8.430449,-2.2673364,-1.2187055,2.1897664
2.316,5.403997,11.230001,8.548363,-2.297761,-1.1769118,2.184494
2.318,5.454876,11.18893,8.667224,-2.324808,-1.129306,2.1789477
2.32,5.5066214,11.144807,8.786294,-2.3484483,-1.0759721,2.1730473
2.322,5.558721,11.098108,8.904967,-2.3686619,-1.0170197,2.1667762
2.324,5.61059,11.049441,9.022489,-2.38544,-0.9525947,2.160194
2.326,5.6616993,10.999464,9.138294,-2.3988209,-0.88289887,2.1534045
2.328,5.7115936,10.948588,9.251767,-2.408873,-0.80816543,2.1465986
2.33,5.759687,10.897358,9.362333,-2.4157126,-0.7286828,2.1400125
2.332,5.8056984,10.846296,9.469501,-2.4195192,-0.64477783,2.1338975
2.334,5.849014,10.795889,9.572777,-2.4205327,-0.5568163,2.1285064
2.336,5.889316,10.746761,9.671718,-2.4190238,-0.4651872,2.1240525
2.338,5.9265037,10.699271,9.766003,-2.4152987,-0.37031707,2.1206613
2.34,5.9602623,10.653934,9.855396,-2.4096823,-0.27261654,2.118392
2.342,5.99057,10.611184,9.939672,-2.4024816,-0.17249638,2.1172116
2.344,6.0173206,10.571488,10.018674,-2.393984,-0.07035141,2.1169803
2.346,6.040506,10.535073,10.092168,-2.3844151,0.03347048,2.1174865
2.348,6.0602007,10.502327,10.160294,-2.3739429,0.13865712,2.1184762
2.35,6.076689,10.473369,10.222891,-2.3626704,0.24494879,2.1196802
2.352,6.090211,10.448305,10.280109,-2.3506384,0.3521286,2.120842
2.354,6.100937,10.42721,10.332189,-2.337829,0.4600133,2.1217482
2.356,6.109134,10.410115,10.379007,-2.3242018,0.56847215,2.1222422
2.358,6.115163,10.397227,10.420854,-2.3096995,0.67739743,2.122222
2.36,6.1195254,10.3884,10.457878,-2.294281,0.7867043,2.121688
2.362,6.12241,10.383674,10.490305,-2.277928,0.8963437,2.120703
2.364,6.1242785,10.382936,10.51831,-2.2606597,1.0062633,2.1193557
2.366,6.1255307,10.386102,10.541919,-2.2425382,1.1164169,2.117754
2.368,6.1264253,10.393003,10.561367,-2.2236636,1.2267635,2.1160235
2.37,6.127468,10.403429,10.576697,-2.204157,1.3372655,2.1142724
2.372,6.128955,10.417129,10.588029,-2.184153,1.4478756,2.1125426
2.374,6.131185,10.433853,10.595346,-2.163788,1.5585544,2.1108258
2.376,6.134617,10.453233,10.598783,-2.1431715,1.6692468,2.1090617
2.378,6.1391783,10.475021,10.598283,-2.1223986,1.7798834,2.1071486
2.38,6.1452117,10.498888,10.593912,-2.1015198,1.890389,2.1049583
2.382,6.152817,10.524591,10.585552,-2.080569,2.0006597,2.1023226
2.384,6.162135,10.55179,10.573297,-2.059554,2.1105688,2.0990736
2.386,6.173324,10.580179,10.55702,-2.038465,2.219993,2.0950515
2.388,6.186453,10.609439,10.536687,-2.0172994,2.3287864,2.0901237
2.39,6.2014837,10.639296,10.512204,-1.9960654,2.4367976,2.0841753
2.392,6.218337,10.6694355,10.483573,-1.974783,2.5438704,2.0771394
2.394,6.2370553,10.6997,10.450748,-1.9534956,2.649842,2.068971
2.396,6.257497,10.7297945,10.4137535,-1.9322888,2.7545638,2.0596647
2.398,6.2796636,10.759603,10.372439,-1.9112587,2.8578887,2.0492544
2.4,6.303462,10.789136,10.326949,-1.8905317,2.95967,2.037786
2.402,6.328587,10.818354,10.277239,-1.8702528,3.0597625,2.0253282
2.404,6.354903,10.847368,10.223241,-1.8505766,3.1580207,2.0119944
2.406,6.382151,10.876281,10.165035,-1.831672,3.2542894,1.9979054
2.408,6.4101186,10.905335,10.102769,-1.8137218,3.3484106,1.9832242
2.41,6.4384975,10.934711,10.036393,-1.7969116,3.4402137,1.9681053
2.412,6.46721,10.96482,9.965998,-1.7814125,3.529512,1.952713
2.414,6.495989,10.995747,9.891597,-1.7673919,3.6161246,1.9371789
2.416,6.5244355,11.02788,9.813318,-1.7550013,3.6998682,1.9216113
2.418,6.552309,11.061377,9.731282,-1.7443731,3.7805734,1.9060862
2.42,6.5794106,11.096558,9.6453495,-1.7355988,3.8580651,1.8906236
2.422,6.6052265,11.133434,9.555748,-1.7287309,3.9321625,1.8751779
2.424,6.629572,11.172227,9.462631,-1.7237992,4.002711,1.8596501
2.426,6.6521273,11.213005,9.366047,-1.7207899,4.0695624,1.8439165
2.428,6.672658,11.255744,9.266047,-1.7196593,4.1325574,1.8278027
2.43,6.690715,11.300299,9.162847,-1.7203565,4.1915536,1.8110981
2.432,6.705941,11.34653,9.05656,-1.7228054,4.2463946,1.793579
2.434,6.717912,11.394234,8.947361,-1.7269316,4.296943,1.7750498
2.436,6.7262645,11.443092,8.835478,-1.7326615,4.3430624,1.7553458
2.438,6.7306147,11.493046,8.721013,-1.739927,4.384628,1.734321
2.44,6.730595,11.543716,8.604334,-1.7486904,4.4214983,1.7118957
2.442,6.725891,11.594755,8.485535,-1.7589082,4.453543,1.6880295
2.444,6.716268,11.645938,8.364975,-1.7705624,4.480662,1.6627548
2.446,6.7013807,11.696879,8.242875,-1.7836537,4.502752,1.6361424
2.448,6.680826,11.747351,8.119638,-1.7981856,4.519736,1.6083019
2.45,6.6546354,11.796987,7.9955797,-1.8141607,4.5315685,1.5793798
2.452,6.6224685,11.845496,7.871092,-1.8315873,4.5382266,1.5495358
2.454,6.5842915,11.89263,7.7465115,-1.8504652,4.5397086,1.5189508
2.456,6.540201,11.938133,7.6222734,-1.8707794,4.5360594,1.4877867
2.458,6.489951,11.98174,7.4986515,-1.8924962,4.5273433,1.4561864
2.46,6.433728,12.023249,7.37624,-1.9155843,4.513647,1.424305
2.462,6.3714943,12.0624485,7.255211,-1.9399786,4.4950876,1.3922646
2.464,6.3034773,12.0992,7.136075,-1.9656038,4.4717946,1.3601846
2.466,6.229925,12.133268,7.0191517,-1.9923885,4.4439254,1.3281686
2.468,6.150961,12.164337,6.9048386,-2.0202553,4.4116483,1.2963222
2.47,6.0669312,12.192261,6.7935114,-2.0491033,4.3751445,1.264711
2.472,5.978226,12.216743,6.6853924,-2.078833,4.334606,1.2333953
2.474,5.8852177,12.237583,6.580905,-2.1093366,4.2902403,1.2024295
2.476,5.78827,12.254372,6.4804306,-2.1404998,4.2422667,1.1718512
2.478,5.6878643,12.266882,6.3841033,-2.1721883,4.1908994,1.1416957
2.48,5.584364,12.274865,6.292241,-2.204279,4.136361,1.1119978
2.482,5.478324,12.277869,6.2050405,-2.236606,4.0788856,1.0827825
2.484,5.370314,12.2755375,6.1228247,-2.2690198,4.018717,1.054086
2.486,5.2606883,12.267595,6.0457187,-2.3013425,3.956109,1.0259314
2.488,5.150058,12.2536,5.973837,-2.3334062,3.8913372,0.9983262
2.49,5.039009,12.233256,5.9073906,-2.365036,3.824679,0.97127455
2.492,4.9280863,12.206236,5.8464184,-2.396041,3.7564356,0.94477206
2.494,4.8175993,12.172326,5.7909617,-2.426236,3.6869378,0.9188076
2.496,4.708087,12.131241,5.741118,-2.4554365,3.616527,0.8933595
2.498,4.6001706,12.082743,5.696875,-2.4834607,3.54556,0.8683969
2.5,4.4941587,12.026772,5.658276,-2.5101225,3.4743907,0.8438748
2.502,4.390573,11.963115,5.6251464,-2.5352395,3.4034033,0.8197463
2.504,4.289763,11.891729,5.597403,-2.558638,3.3329558,0.7959833
2.506,4.1921797,11.81268,5.5748615,-2.5801463,3.2634163,0.77256244
2.508,4.0981426,11.726071,5.557487,-2.5996137,3.1951413,0.74945784
2.51,4.007907,11.631989,5.5449777,-2.6169019,3.1284814,0.7266563
2.512,3.9217613,11.530754,5.537097,-2.6318808,3.0637665,0.7041638
2.514,3.840013,11.422589,5.5336785,-2.6444306,3.0013146,0.6819805
2.516,3.7628794,11.307975,5.534363,-2.654456,2.9414132,0.6601167
2.518,3.6903663,11.187147,5.538739,-2.66187,2.8843288,0.638589
2.52,3.6226254,11.060771,5.5465493,-2.666614,2.8302994,0.61742085
2.522,3.5597105,10.929237,5.5574546,-2.6686282,2.7795167,0.59664226
2.524,3.5016246,10.793215,5.5711374,-2.6678827,2.7321513,0.57630485
2.526,3.4485607,10.65334,5.587154,-2.6643553,2.6883311,0.55645394
2.528,3.4002857,10.5102415,5.605169,-2.658044,2.6481328,0.53712296
2.53,3.3567204,10.364632,5.6249156,-2.6489615,2.611609,0.5183536
2.532,3.3179297,10.217088,5.6459746,-2.6371386,2.5787838,0.5002034
2.534,3.2835822,10.068341,5.6679206,-2.6226206,2.5496502,0.48271704
2.536,3.2535534,9.919128,5.6904387,-2.6054757,2.5241704,0.46593863
2.538,3.2275693,9.770049,5.713234,-2.5857773,2.5022864,0.44990814
2.54,3.205512,9.621891,5.735991,-2.5636308,2.4839156,0.43463862
2.542,3.1869965,9.475319,5.758372,-2.5391312,2.4689457,0.42015052
2.544,3.1719177,9.331039,5.7801223,-2.512381,2.4572575,0.40643704
2.546,3.1598246,9.189523,5.8009624,-2.4834979,2.4487052,0.39347565
2.548,3.1504953,9.051188,5.8206553,-2.4525833,2.443121,0.3812408
2.55,3.1436965,8.91659,5.8390284,-2.4197462,2.4403014,0.3696897
2.552,3.1389174,8.786125,5.855871,-2.3850915,2.4400392,0.35877585
2.554,3.135868,8.660104,5.8709745,-2.3487267,2.4421287,0.3484404
2.556,3.1341567,8.538792,5.884262,-2.3107483,2.446338,0.33860123
2.558,3.1333864,8.422424,5.8955116,-2.2712617,2.452433,0.32914668
2.56,3.133247,8.31116,5.9046965,-2.2303634,2.4601903,0.31997377
2.562,3.1333556,8.205049,5.9116497,-2.1881394,2.4693885,0.31096667
2.564,3.133321,8.104056,5.9163494,-2.1446521,2.4798124,0.30200648
2.566,3.1327763,8.0082,5.918743,-2.0999765,2.4912748,0.29296017
2.568,3.1314347,7.9172707,5.918739,-2.0541646,2.5035949,0.2837187
2.57,3.1289365,7.8310847,5.9162498,-2.0072718,2.5166214,0.27417344
2.572,3.125079,7.749415,5.9113727,-1.9593488,2.5302086,0.26425773
2.574,3.1197367,7.671915,5.903982,-1.91042,2.544241,0.25392556
2.576,3.1124225,7.598392,5.894111,-1.8605338,2.5586228,0.24315774
2.578,3.1030996,7.52844,5.8816657,-1.8097432,2.573278,0.23197621
2.58,3.0914671,7.4616513,5.8665795,-1.7580934,2.5881357,0.22042108
2.582,3.077547,7.397669,5.8489285,-1.7056224,2.6031675,0.20856142
2.584,3.061284,7.335967,5.828596,-1.652397,2.618328,0.19646597
2.586,3.0425808,7.2763186,5.805445,-1.5984749,2.6335778,0.18418503
2.588,3.0214171,7.2180767,5.7795215,-1.543911,2.6488953,0.1717763
2.59,2.997903,7.1609488,5.75065,-1.488761,2.6642613,0.1592803
2.592,2.9720159,7.1045275,5.7189155,-1.4330739,2.679651,0.14671731
2.594,2.9437027,7.0484376,5.684148,-1.3769095,2.695047,0.13410664
2.596,2.9131017,6.992336,5.646276,-1.3203224,2.7104287,0.1214447
2.598,2.8803227,6.9359503,5.6052775,-1.2633682,2.7257576,0.10873771
2.6,2.845493,6.878929,5.5610623,-1.2061102,2.7409992,0.09599292
2.602,2.8087242,6.821122,5.5136642,-1.1486101,2.7561169,0.08323705
2.604,2.7700863,6.7623334,5.463049,-1.0909303,2.771074,0.070512295
2.606,2.7296844,6.702523,5.409185,-1.0331484,2.7858138,0.057871103
2.608,2.687731,6.6415453,5.352129,-0.97535783,2.8002803,0.045392156
2.61,2.64434,6.579316,5.2919436,-0.91765,2.8144047,0.03316462
2.612,2.5996754,6.5160093,5.228648,-0.8601184,2.8281345,0.02129209
2.614,2.5537455,6.4515634,5.162391,-0.8028817,2.8413854,0.009857655
2.616,2.5066833,6.3861074,5.0932946,-0.74603933,2.854084,-0.0010360479
2.618,2.4586177,6.3197412,5.021492,-0.68971,2.866138,-0.01129818
2.62,2.4095316,6.2527065,4.947181,-0.6340007,2.877437,-0.020848751
2.622,2.3596056,6.1851325,4.8705263,-0.57900727,2.8878746,-0.029615164
2.624,2.308736,6.1173363,4.7918353,-0.5248159,2.8973136,-0.03754902
2.626,2.257014,6.0494637,4.711379,-0.47150922,2.9056191,-0.04462695
2.628,2.204581,5.9818263,4.629486,-0.41918364,2.9126282,-0.050833702
2.63,2.1513968,5.914509,4.5462766,-0.36790794,2.9181874,-0.056175828
2.632,2.097312,5.847868,4.4621124,-0.31774807,2.9221196,-0.06067145
2.634,2.0424426,5.782005,4.3773756,-0.26878405,2.9242573,-0.06434822
2.636,1.9867618,5.717001,4.292347,-0.22108446,2.9244146,-0.06723237
2.638,1.9301953,5.653022,4.207407,-0.17468402,2.9224377,-0.06935811
2.64,1.8726556,5.590148,4.122849,-0.12963153,2.9181619,-0.07074952
2.642,1.8142282,5.5284734,4.038976,-0.08597219,2.9114418,-0.071439385
2.644,1.7547987,5.467904,3.9562013,-0.043735854,2.9021454,-0.0714494
2.646,1.6944063,5.4084544,3.8747034,-0.0029328167,2.8901699,-0.07082236
2.648,1.6328754,5.35,3.7949145,0.03642042,2.8754268,-0.06961167
2.65,1.5701993,5.2923765,3.7170174,0.07432863,2.8578634,-0.06788242
2.652,1.5065135,5.235459,3.6413424,0.11079508,2.8374608,-0.06572914
2.654,1.4415877,5.179017,3.5679808,0.14584383,2.8142178,-0.06324971
2.656,1.3755839,5.122926,3.4972012,0.17949487,2.7881699,-0.060554028
2.658,1.3083947,5.0670686,3.4291682,0.21178064,2.7593796,-0.057751417
2.66,1.2401248,5.0111713,3.3639836,0.24273649,2.7279289,-0.05491817
2.662,1.1707822,4.9551377,3.301756,0.27240187,2.6938953,-0.052132726
2.664,1.1004333,4.8988733,3.242573,0.30081218,2.6574023,-0.049424052
2.666,1.0293168,4.8420987,3.18644,0.32799742,2.618559,-0.04680288
2.668,0.95741284,4.7848043,3.1334372,0.35399783,2.5774906,-0.0442487
2.67,0.88479054,4.726814,3.0833712,0.37882298,2.5343223,-0.04172945
2.672,0.8115457,4.6681795,3.0362372,0.40250015,2.4891877,-0.039184093
2.674,0.7379991,4.6089463,2.9919555,0.42505133,2.4422264,-0.036547303
2.676,0.6640408,4.5490546,2.9503813,0.446478,2.3935602,-0.033750296
2.678,0.5899595,4.488602,2.9115539,0.46677572,2.3433216,-0.030709743
2.68,0.51588506,4.427792,2.8751636,0.48594818,2.2916193,-0.027366161
2.682,0.44185913,4.366809,2.8411899,0.503986,2.2385569,-0.02366221
2.684,0.36808088,4.3058515,2.8094242,0.52088106,2.1842291,-0.019539833
2.686,0.294695,4.2451496,2.7798188,0.5366286,2.1287026,-0.014956415
2.688,0.22188821,4.1849213,2.752268,0.55123585,2.0720441,-0.009867549
2.69,0.149762,4.1254973,2.7267168,0.56470555,2.0143013,-0.0042409897
2.692,0.07835141,4.067109,2.7030811,0.5770404,1.9554983,0.0019510388
2.694,0.007921994,4.0100374,2.681313,0.58826303,1.8956779,0.008692086
2.696,-0.06140688,3.9546163,2.6615474,0.5983975,1.8348589,0.015977621
2.698,-0.1295397,3.9010093,2.643671,0.60747206,1.7730637,0.023769677
2.7,-0.19636813,3.8494337,2.62788,0.61552393,1.7103145,0.03203094
2.702,-0.26181018,3.8001316,2.6140826,0.62261105,1.6466614,0.040700495
2.704,-0.32566375,3.7533202,2.6024365,0.6287724,1.5821452,0.049709678
2.706,-0.38793087,3.709057,2.5930874,0.63406974,1.5168145,0.05897695
2.708,-0.44836265,3.6673641,2.5862143,0.6385809,1.4507437,0.06840235
2.71,-0.50715846,3.6284325,2.5818775,0.6423828,1.3840281,0.07788402
2.712,-0.5641662,3.5921853,2.5802479,0.64555556,1.3167605,0.08729994
2.714,-0.61926043,3.558642,2.5815115,0.64819026,1.2490594,0.09652519
2.716,-0.67233527,3.5277715,2.5858073,0.6503738,1.1810589,0.10543227
2.718,-0.72358143,3.499591,2.5932627,0.65219784,1.1128821,0.11391541
2.72,-0.7728547,3.4740033,2.604076,0.6537617,1.0446746,0.12187803
2.722,-0.82021725,3.4508967,2.6183305,0.6551535,0.97657967,0.12926003
2.724,-0.8655188,3.4302552,2.6361485,0.656464,0.9087401,0.13601857
2.726,-0.9089103,3.41189,2.6575,0.6577644,0.8413068,0.14213313
2.728,-0.9503943,3.3957186,2.6825516,0.6591313,0.7744291,0.14761087
2.73,-0.98987675,3.3815248,2.71121,0.66063845,0.70825994,0.15247744
2.732,-1.0274901,3.3692791,2.7434955,0.66235614,0.64293784,0.15676641
2.734,-1.0631462,3.3587406,2.7792735,0.6643408,0.5786058,0.16052635
2.736,-1.0969063,3.3499389,2.8184845,0.6666544,0.5154016,0.16379601
2.738,-1.1289208,3.342671,2.8610072,0.6693296,0.45344576,0.1666179
2.74,-1.1591523,3.3367982,2.9067268,0.6724136,0.39285123,0.16902941
2.742,-1.1874647,3.3322804,2.9554348,0.6759282,0.333713,0.17105667
2.744,-1.2141228,3.3290298,3.0069106,0.67989266,0.27610907,0.17272343
2.746,-1.2391999,3.3270664,3.0609941,0.6843255,0.22009271,0.17406543
2.748,-1.2625608,3.326253,3.117432,0.68922466,0.16570537,0.17512521
2.75,-1.2842184,3.326565,3.1759534,0.69458866,0.11297896,0.17591724
2.752,-1.3044734,3.3281157,3.2364006,0.70039415,0.061919242,0.17647275
2.754,-1.3232622,3.3309038,3.2985604,0.70662683,0.012529621,0.17681102
2.756,-1.340675,3.3348787,3.3622622,0.7132666,-0.035199843,0.17696217
2.758,-1.3565917,3.3401809,3.4271758,0.72029126,-0.08126639,0.1769559
2.76,-1.371197,3.346789,3.49321,0.7276902,-0.1256576,0.17680344
2.762,-1.3846011,3.354752,3.5601053,0.7354511,-0.168378,0.17652565
2.764,-1.3967984,3.3641431,3.627871,0.7435801,-0.20942482,0.17612442
2.766,-1.4079192,3.375034,3.6961641,0.75209224,-0.24875632,0.1756017
2.768,-1.4180365,3.387431,3.7649097,0.76100457,-0.2863496,0.17496142
2.77,-1.427294,3.4013848,3.8339295,0.7703352,-0.3221756,0.17419699
2.772,-1.4356612,3.416983,3.9031558,0.7800956,-0.3561911,0.17329603
2.774,-1.4433002,3.4343035,3.9724717,0.7903023,-0.38836002,0.17224565
2.776,-1.4502659,3.453487,4.041733,0.8009755,-0.4186498,0.17103831
2.778,-1.4565842,3.4745162,4.1108084,0.81212336,-0.447028,0.16969556
2.78,-1.4624224,3.4975798,4.1798487,0.8237461,-0.47348058,0.16824055
2.782,-1.4675598,3.5226812,4.2486596,0.83582807,-0.4979998,0.16669558
2.784,-1.4722981,3.5497017,4.317191,0.84835595,-0.52059674,0.16510788
2.786,-1.4764339,3.5789247,4.3853765,0.86131364,-0.54128623,0.1635413
2.788,-1.4800816,3.610328,4.4530916,0.8746654,-0.56009597,0.16205376
2.79,-1.4831481,3.6437597,4.520467,0.8883808,-0.57708114,0.16072404
2.792,-1.4856161,3.6792598,4.587333,0.9024206,-0.5922961,0.15958917
2.794,-1.4874794,3.7166715,4.653738,0.91673136,-0.6057993,0.15868375
2.796,-1.4885868,3.7558327,4.7195992,0.93128383,-0.6176547,0.15800986
2.798,-1.4890282,3.7967339,4.7849436,0.94604677,-0.6279226,0.1575405
2.8,-1.4886427,3.839113,4.8497157,0.96099097,-0.6366471,0.15720248
2.802,-1.4873934,3.8828676,4.9138412,0.97611016,-0.64387417,0.15689331
2.804,-1.4853461,3.9278026,4.9774256,0.9914048,-0.6496396,0.156481
2.806,-1.4823732,3.9735928,5.040243,1.0068976,-0.65395683,0.15583137
2.808,-1.478358,4.0201626,5.10245,1.0226114,-0.6568485,0.15481946
2.81,-1.473447,4.0672884,5.1638603,1.0385928,-0.65832734,0.15332252
2.812,-1.4674711,4.1148643,5.224508,1.0548768,-0.65841854,0.15126398
2.814,-1.4604677,4.1625085,5.2843885,1.071486,-0.6571481,0.14862394
2.816,-1.4524992,4.210304,5.3433676,1.0884323,-0.65454173,0.14541057
2.818,-1.4436011,4.2579875,5.4013233,1.1057125,-0.65064424,0.14170396
2.82,-1.4336786,4.305512,5.4582586,1.1232886,-0.6455005,0.13760805
2.822,-1.4227866,4.352862,5.514034,1.1411064,-0.6391493,0.13324651
2.824,-1.4111271,4.399949,5.5686045,1.1590862,-0.631632,0.12878504
2.826,-1.3987181,4.4467936,5.621852,1.1771396,-0.623004,0.124369204
2.828,-1.3855555,4.493452,5.6736355,1.1951723,-0.6133185,0.1201421
2.83,-1.3716941,4.539949,5.723816,1.2130854,-0.6026292,0.11620614
2.832,-1.3571833,4.5863667,5.7723694,1.2308012,-0.590987,0.112630814
2.834,-1.3420949,4.6327996,5.8191395,1.2482611,-0.578455,0.109469324
2.836,-1.3265126,4.6794977,5.8641334,1.2654151,-0.5651034,0.10673535
2.838,-1.3104789,4.7265334,5.9071693,1.2822266,-0.55101234,0.10440457
2.84,-1.2941427,4.7741137,5.9482994,1.298676,-0.5362697,0.10244012
2.842,-1.277432,4.822301,5.987465,1.314759,-0.5209802,0.100800484
2.844,-1.2605157,4.8712573,6.024559,1.3304671,-0.5052308,0.09942764
2.846,-1.2433772,4.921111,6.0595994,1.3457965,-0.48911667,0.09828499
2.848,-1.2259898,4.971967,6.0924926,1.3607458,-0.47274512,0.09732923
2.85,-1.208504,5.0239058,6.12338,1.3753035,-0.45621908,0.09654419
2.852,-1.1909399,5.0768986,6.152194,1.3894582,-0.439631,0.09590444
2.854,-1.173356,5.131038,6.178993,1.403198,-0.4230826,0.09541336
2.856,-1.1557577,5.186271,6.2037773,1.4165094,-0.4066625,0.09507796
2.858,-1.1382983,5.242607,6.226619,1.4293718,-0.39045683,0.09490183
2.86,-1.1209121,5.3001237,6.2475944,1.4417639,-0.37454087,0.094876766
2.862,-1.1036496,5.3585863,6.266844,1.4536704,-0.35897937,0.09500703
2.864,-1.0861846,5.419059,6.2849684,1.4650725,-0.34383065,0.09528847
2.866,-1.0691957,5.4796743,6.3009243,1.4759659,-0.32914376,0.09570104
2.868,-1.0525788,5.5411673,6.3153925,1.4863502,-0.314963,0.09624757
2.87,-1.0362496,5.603442,6.328377,1.4962229,-0.3013285,0.096919194
2.872,-1.0202734,5.66641,6.3400254,1.5055889,-0.2882926,0.09771526
2.874,-1.0046268,5.72996,6.350404,1.5144587,-0.27590305,0.098652035
2.876,-0.989407,5.7940454,6.3596783,1.5228249,-0.26421666,0.099741876
2.878,-0.9745873,5.858515,6.3679085,1.5307063,-0.25329593,0.100995675
2.88,-0.96025527,5.923232,6.3751936,1.5380902,-0.24320516,0.102430865
2.882,-0.9463067,5.9880357,6.381623,1.5449673,-0.23400493,0.1040497
2.884,-0.93278855,6.0527015,6.3871794,1.5513476,-0.22575948,0.10585286
2.886,-0.9197256,6.1171722,6.3920603,1.5572227,-0.2185361,0.10781443
2.888,-0.90701294,6.181203,6.396268,1.5625873,-0.21239263,0.10989022
2.89,-0.894704,6.244635,6.3997717,1.5674406,-0.20738211,0.11203713
2.892,-0.882943,6.307237,6.402752,1.5717976,-0.20353827,0.11419856
2.894,-0.8715253,6.3690176,6.40512,1.5756603,-0.20090604,0.11631159
2.896,-0.8605232,6.4296722,6.4070053,1.5790493,-0.19951132,0.11834446
2.898,-0.8499045,6.4889965,6.408464,1.581971,-0.19938263,0.1202709
2.9,-0.83978665,6.547023,6.4093976,1.5844426,-0.2005478,0.12209273
2.902,-0.82995784,6.6035247,6.4099374,1.5864601,-0.20301004,0.123820156
2.904,-0.8206086,6.658518,6.410065,1.5880209,-0.20677823,0.12548041
2.906,-0.8116383,6.7119417,6.409876,1.5891232,-0.21185265,0.12712514
2.908,-0.8030933,6.763763,6.4092755,1.5897583,-0.2182153,0.12881814
2.91,-0.794967,6.813961,6.4084125,1.5899177,-0.22586437,0.13062108
2.912,-0.78728765,6.862588,6.4072847,1.5895876,-0.23477893,0.13261975
2.914,-0.78007525,6.9096446,6.405833,1.5887531,-0.24494109,0.13488692
2.916,-0.77332205,6.9552097,6.404212,1.5873998,-0.25633392,0.13748735
2.918,-0.76703167,6.999371,6.4023786,1.5855155,-0.26894674,0.14050287
2.92,-0.76122564,7.042146,6.400455,1.5830915,-0.2827653,0.14399889
2.922,-0.7558455,7.0836606,6.3984632,1.5801135,-0.29778418,0.14801684
2.924,-0.7509496,7.1241817,6.3964405,1.5765725,-0.31399494,0.15258448
2.926,-0.7465204,7.163544,6.394453,1.5724713,-0.33138376,0.1577043
2.928,-0.7426164,7.202099,6.3926406,1.5678198,-0.3499553,0.16335517
2.93,-0.73928046,7.2398686,6.390995,1.5626338,-0.3696971,0.16948658
2.932,-0.7364208,7.276886,6.389633,1.5569284,-0.3906085,0.17601456
2.934,-0.7338975,7.313276,6.388533,1.5507516,-0.4126874,0.18283603
2.936,-0.73181546,7.3491197,6.387766,1.5441264,-0.43593055,0.18984495
2.938,-0.73018056,7.384494,6.3875074,1.5370855,-0.46033847,0.19691417
2.94,-0.7290271,7.419367,6.38775,1.5296817,-0.4859076,0.20393145
2.942,-0.72837955,7.4538026,6.3885756,1.521945,-0.5126294,0.21079844
2.944,-0.72821116,7.4877534,6.3900433,1.5139114,-0.54048526,0.21745272
2.946,-0.72833216,7.5212264,6.3921027,1.5055847,-0.5694662,0.22386166
2.948,-0.72879934,7.554207,6.394911,1.4969697,-0.5995432,0.23002213
2.95,-0.72951454,7.5867195,6.3985004,1.488052,-0.6306786,0.23595227
2.952,-0.730578,7.61886,6.4028482,1.4788121,-0.6628418,0.24171157
2.954,-0.7319077,7.650698,6.408047,1.469217,-0.6959803,0.24736694
2.956,-0.7335637,7.682173,6.414116,1.4592367,-0.73005044,0.25301027
2.958,-0.7352745,7.713406,6.4211974,1.4488394,-0.76500434,0.2587234
2.96,-0.73706967,7.7444468,6.429265,1.4379829,-0.8008047,0.26458797
2.962,-0.73895687,7.775461,6.4383507,1.4266334,-0.83740395,0.2706749
2.964,-0.7406995,7.8063912,6.448477,1.4147713,-0.87476385,0.2770526
2.966,-0.7424351,7.83737,6.4597726,1.4023821,-0.9128563,0.2837488
2.968,-0.7438683,7.868402,6.472179,1.389453,-0.95164543,0.29078874
2.97,-0.7451923,7.899492,6.485811,1.3759816,-0.9911098,0.29816458
2.972,-0.7460709,7.9307146,6.500655,1.3619764,-1.0312179,0.30584103
2.974,-0.7468159,7.961219,6.5162773,1.3474444,-1.0719378,0.3137526
2.976,-0.746802,7.992772,6.53389,1.332411,-1.1132447,0.3218138
2.978,-0.74608314,8.024224,6.552866,1.316899,-1.1551108,0.3299056
2.98,-0.7448225,8.05567,6.5733266,1.300929,-1.1974912,0.33789548
2.982,-0.74287534,8.08687,6.595236,1.2845367,-1.2403293,0.34563652
2.984,-0.7401534,8.117694,6.6186724,1.267767,-1.2835703,0.35298517
2.986,-0.73658687,8.14795,6.6436954,1.2506554,-1.3271376,0.3598043
2.988,-0.73220575,8.177571,6.670348,1.2332458,-1.3709543,0.36598688
2.99,-0.7270253,8.206447,6.698654,1.2155905,-1.4149386,0.3714465
2.992,-0.72092104,8.234322,6.72867,1.1977242,-1.4589875,0.37613276
2.994,-0.71395016,8.261151,6.760445,1.1796849,-1.503,0.38003582
2.996,-0.70606905,8.286806,6.794029,1.1615098,-1.5468743,0.38316816
2.998,-0.69740033,8.311254,6.8293867,1.1432202,-1.590502,0.38556948
3,-0.68783164,8.334415,6.8665695,1.1248494,-1.6337692,0.38730434
3.002,-0.6773591,8.356243,6.9055023,1.106406,-1.6765615,0.38846105
3.004,-0.6661681,8.376696,6.946247,1.0879034,-1.718774,0.38912058
3.006,-0.6541567,8.395749,6.9887,1.0693371,-1.7602991,0.3893667
3.008,-0.64136624,8.413589,7.0327787,1.0506986,-1.8010377,0.38928235
3.01,-0.62776303,8.430046,7.0785694,1.0319844,-1.8409109,0.3889252
3.012,-0.6135092,8.44521,7.125859,1.0131809,-1.8798344,0.3883539
3.014,-0.59858197,8.459174,7.174678,0.99428976,-1.9177372,0.387589
3.016,-0.58302116,8.4719515,7.2248487,0.97531486,-1.9545637,0.38662907
3.018,-0.5668204,8.483583,7.276396,0.9562595,-1.9902613,0.38545954
3.02,-0.55011827,8.494037,7.3292294,0.9371486,-2.0247738,0.3840503
3.022,-0.5328375,8.503237,7.3832464,0.91800296,-2.0580645,0.38234353
3.024,-0.5151076,8.511302,7.4383245,0.89885193,-2.0900788,0.3802809
3.026,-0.49692282,8.518159,7.4944525,0.8797344,-2.120766,0.37780684
3.028,-0.47829154,8.523618,7.5514555,0.8606874,-2.1500702,0.37486428
3.03,-0.45923498,8.527745,7.6092625,0.8417496,-2.1779153,0.37139565
3.032,-0.4399456,8.530402,7.6678185,0.8229657,-2.2042294,0.3673647
3.034,-0.42028645,8.531448,7.7269692,0.8043779,-2.2289422,0.36273807
3.036,-0.40031135,8.530895,7.7866955,0.78603494,-2.251974,0.3575003
3.038,-0.38010165,8.528578,7.8468113,0.76798093,-2.2732415,0.3516605
3.04,-0.35953495,8.524328,7.9073486,0.75026065,-2.2926693,0.3452477
3.042,-0.33879274,8.518245,7.968072,0.7329222,-2.3101816,0.33828735
3.044,-0.31790286,8.510266,8.0290165,0.7159956,-2.3257132,0.33083034
3.046,-0.2968176,8.500238,8.090137,0.69951427,-2.3391917,0.32293957
3.048,-0.27553064,8.488194,8.151273,0.6834932,-2.3505647,0.31467927
3.05,-0.25404882,8.474215,8.212238,0.6679461,-2.3597875,0.30612183
3.052,-0.23234785,8.45836,8.2730875,0.65286297,-2.366832,0.29733914
3.054,-0.21049565,8.440736,8.33367,0.6382427,-2.3716688,0.28838724
3.056,-0.18855305,8.421385,8.393923,0.6240758,-2.3742864,0.27931762
3.058,-0.16646239,8.400473,8.453668,0.6103393,-2.3746793,0.27017963
3.06,-0.14427646,8.378076,8.512777,0.5970377,-2.3728418,0.2609998
3.062,-0.1219963,8.35426,8.571316,0.5841548,-2.368773,0.25179636
3.064,-0.09959923,8.329229,8.629159,0.5716938,-2.362472,0.24257451
3.066,-0.077031344,8.303198,8.686156,0.5596557,-2.353949,0.23332596
3.068,-0.054534093,8.276269,8.742175,0.54805356,-2.3432035,0.22405082
3.07,-0.032051608,8.248646,8.797048,0.53689665,-2.3302395,0.21473634
3.072,-0.009549171,8.220423,8.850784,0.5261926,-2.3150632,0.20538038
3.074,0.012881279,8.191822,8.903305,0.5159553,-2.2977078,0.19598141
3.076,0.035377145,8.163046,8.954466,0.5061885,-2.2781935,0.18655148
3.078,0.057688206,8.1342325,9.004136,0.49689722,-2.2565405,0.17711666
3.08,0.08000353,8.105419,9.052273,0.4880718,-2.2328086,0.16771004
3.082,0.10204172,8.076887,9.098738,0.47969243,-2.2070618,0.15837586
3.084,0.12388086,8.04874,9.143511,0.47173747,-2.1793635,0.14917442
3.086,0.14570674,8.021063,9.186465,0.4641839,-2.1497827,0.14014375
3.088,0.16719177,7.993977,9.227542,0.45699242,-2.118402,0.1313284
3.09,0.18865895,7.9674416,9.26665,0.45012742,-2.085305,0.12275976
3.092,0.20978874,7.941681,9.303803,0.44356966,-2.050584,0.11444256
3.094,0.23067808,7.916705,9.338855,0.43729773,-2.01433,0.1063675
3.096,0.25133622,7.892597,9.371803,0.4312877,-1.9766337,0.09851676
3.098,0.27173254,7.8691854,9.402574,0.42553598,-1.9376025,0.09084129
3.1,0.29203093,7.8465776,9.431238,0.42003945,-1.8973432,0.08327404
3.102,0.31197676,7.824744,9.457722,0.4148033,-1.8559498,0.075748384
3.104,0.331613,7.803712,9.482128,0.40984344,-1.8135096,0.06817865
3.106,0.3510101,7.7833757,9.504337,0.4051684,-1.7701076,0.060510248
3.108,0.37030575,7.7636213,9.524439,0.40078363,-1.725833,0.05269304
3.11,0.3893391,7.744458,9.542408,0.39669997,-1.6807688,0.04469526
3.112,0.40812805,7.725933,9.558329,0.39292365,-1.6349938,0.036506057
3.114,0.42673448,7.70792,9.57219,0.3894368,-1.5885859,0.02813372
3.116,0.44507334,7.6904106,9.5840025,0.38622126,-1.5416278,0.01960814
3.118,0.4632193,7.673333,9.593822,0.38324022,-1.4941934,0.010982245
3.12,0.48106313,7.6568093,9.601609,0.38046655,-1.4463696,0.0023072958
3.122,0.49869254,7.6407695,9.607414,0.37784195,-1.3982453,-0.0063608885
3.124,0.5161693,7.6251774,9.611281,0.37532377,-1.3499082,-0.014962047
3.126,0.53348684,7.6100426,9.613239,0.37286788,-1.3014485,-0.023449183
3.128,0.55060244,7.595403,9.613186,0.37042722,-1.2529602,-0.03177221
3.13,0.56763,7.5813537,9.611151,0.36796784,-1.2045443,-0.03989747
3.132,0.5844649,7.567897,9.607275,0.36544603,-1.1563126,-0.047816083
3.134,0.6012919,7.5550466,9.601483,0.3628354,-1.1083527,-0.055536225
3.136,0.61794543,7.542836,9.593794,0.36011982,-1.0607724,-0.06305875
3.138,0.634518,7.5313354,9.584213,0.35726145,-1.0136893,-0.07041623
3.14,0.65109664,7.520507,9.572849,0.3542227,-0.9672182,-0.07764001
3.142,0.6677537,7.510242,9.559711,0.35098112,-0.92146903,-0.08478274
3.144,0.68443036,7.500621,9.54488,0.34749794,-0.87655115,-0.09189608
3.146,0.701239,7.4916244,9.5283985,0.3437295,-0.83258224,-0.0990314
3.148,0.7181648,7.483105,9.510349,0.3396615,-0.789664,-0.106234804
3.15,0.73505336,7.475126,9.490805,0.33527216,-0.7478952,-0.11354154
3.152,0.75211185,7.467416,9.469952,0.3305394,-0.7073593,-0.12098114
3.154,0.76932013,7.45994,9.447843,0.32544875,-0.6681355,-0.12858869
3.156,0.7865652,7.4526906,9.424636,0.3199925,-0.6302713,-0.13638431
3.158,0.80398136,7.445471,9.400429,0.31417808,-0.5938138,-0.14437285
3.16,0.82148063,7.4381614,9.375483,0.3080253,-0.558787,-0.15258664
3.162,0.8389965,7.430605,9.349807,0.3015523,-0.52518404,-0.16102424
3.164,0.8565812,7.422711,9.323623,0.2947834,-0.49298525,-0.16969796
3.166,0.87420833,7.414422,9.297089,0.28776017,-0.46215466,-0.1786037
3.168,0.8915923,7.405577,9.270316,0.28052405,-0.43264794,-0.1877326
3.17,0.90893316,7.396145,9.243534,0.2731112,-0.40440944,-0.19707467
3.172,0.9262388,7.3860536,9.216796,0.26556778,-0.37737638,-0.20659876
3.174,0.9433552,7.3752213,9.190224,0.25791323,-0.3514774,-0.21626548
3.176,0.9602071,7.3636174,9.163973,0.2501959,-0.32664153,-0.22602174
3.178,0.9769455,7.351221,9.138163,0.24242498,-0.3028069,-0.2358195
3.18,0.9929273,7.338457,9.113317,0.23461178,-0.27990493,-0.24560261
3.182,1.0084835,7.325052,9.089116,0.22676405,-0.2578818,-0.2553127
3.184,1.0236274,7.311057,9.065649,0.2188783,-0.23669311,-0.26487696
3.186,1.0382419,7.2964945,9.043004,0.21094151,-0.21630377,-0.27423382
3.188,1.0523952,7.281524,9.02131,0.20293683,-0.1966836,-0.28331602
3.19,1.0659975,7.2662783,9.000537,0.19483797,-0.17780483,-0.29206792
3.192,1.0791755,7.250763,8.980719,0.18662742,-0.15965644,-0.3004449
3.194,1.091873,7.235162,8.961908,0.1782919,-0.14220847,-0.3084035
3.196,1.103943,7.2195673,8.944145,0.16981503,-0.12545346,-0.31591973
3.198,1.1156034,7.2041216,8.927344,0.16118161,-0.109367505,-0.3229731
3.2,1.1267526,7.188919,8.911577,0.15239944,-0.09390049,-0.3295678
3.202,1.1375015,7.174036,8.896793,0.14346668,-0.079021856,-0.33572343
3.204,1.1477878,7.1595826,8.883061,0.13440657,-0.064675406,-0.34146294
3.206,1.1576519,7.145603,8.870297,0.12524495,-0.05079094,-0.3468157
3.208,1.1671598,7.132291,8.858485,0.11633299,-0.037759695,-0.35168904
3.21,1.1762171,7.119534,8.847564,0.107553355,-0.025297448,-0.35619357
3.212,1.1849453,7.1075077,8.837483,0.098994136,-0.013414878,-0.36034712
3.214,1.1934332,7.096057,8.828174,0.09075043,-0.0021359436,-0.36415744
3.216,1.2015376,7.085315,8.8196335,0.08291042,0.008501831,-0.36763668
3.218,1.2092456,7.075302,8.811834,0.07555372,0.018462494,-0.37078443
3.22,1.2166978,7.0659533,8.804701,0.06872809,0.02771337,-0.3736116
3.222,1.2238978,7.057188,8.798184,0.062471256,0.036237985,-0.37612736
3.224,1.2308252,7.049065,8.792238,0.0568061,0.044037104,-0.37834698
3.226,1.2375425,7.0415306,8.786847,0.05171132,0.051119924,-0.38030234
3.228,1.2439425,7.0345607,8.7819195,0.047171433,0.0575145,-0.3820107
3.23,1.2501932,7.027998,8.777465,0.043134555,0.063262396,-0.38350323
