Time_s_,Acc_x_m_s_2_,Acc_y_m_s_2_,Acc_z_m_s_2_,Gyro_x_1_s_,Gyro_y_1_s_,Gyro_z_1_s_
0,-0.23466878,0.056921657,0.16860723,0.36806032,-0.11174497,-0.16125889
0.002,-0.23150738,0.053051844,0.14712285,0.36770582,-0.11739719,-0.1637007
0.004,-0.22850007,0.049428336,0.12481137,0.36715153,-0.12425487,-0.16653012
0.006,-0.22574264,0.045903336,0.10163885,0.36635232,-0.1325215,-0.16979277
0.008,-0.22348377,0.042676214,0.07774074,0.36528143,-0.14238949,-0.17354552
0.01,-0.22170255,0.039689418,0.05319347,0.36390695,-0.15403411,-0.17782085
0.012,-0.2203638,0.036991592,0.02802888,0.36221626,-0.16758312,-0.18263264
0.014,-0.21946883,0.034645632,0.0023080371,0.36020383,-0.18311182,-0.18795867
0.016,-0.21905518,0.03264898,-0.023840778,0.3578935,-0.20061222,-0.19374853
0.018,-0.21923357,0.031213649,-0.050262403,0.3553321,-0.21998163,-0.19992885
0.02,-0.21996816,0.030343182,-0.07665656,0.3525904,-0.24099317,-0.20638977
0.022,-0.2212506,0.030006044,-0.10280707,0.34975514,-0.26331222,-0.21301499
0.024,-0.223084,0.030185394,-0.12852138,0.34694114,-0.28650248,-0.21965937
0.026,-0.22550173,0.030878417,-0.15350407,0.3442775,-0.31005922,-0.22617914
0.028,-0.22829598,0.032066047,-0.17751552,0.34187388,-0.3338148,-0.23257446
0.03,-0.23137155,0.033657372,-0.20018232,0.33990046,-0.3567172,-0.23850802
0.032,-0.23465364,0.035531163,-0.22127348,0.33849397,-0.37823188,-0.24388617
0.034,-0.2377542,0.03755641,-0.24051663,0.33778968,-0.39784312,-0.24863422
0.036,-0.240387,0.039534703,-0.2575979,0.33791804,-0.41510764,-0.25268352
0.038,-0.24218115,0.041273415,-0.2721981,0.33898434,-0.4296632,-0.25598323
0.04,-0.24286991,0.042595655,-0.28403646,0.34106085,-0.4412651,-0.25848967
0.042,-0.24214825,0.04322663,-0.29291314,0.34417772,-0.4497776,-0.260185
0.044,-0.23960179,0.043048516,-0.29870772,0.3483321,-0.45517612,-0.26107588
0.046,-0.23478174,0.04167919,-0.30123013,0.35347116,-0.45753753,-0.26118317
0.048,-0.22723146,0.038956136,-0.30046993,0.35949808,-0.45701015,-0.26054138
0.05,-0.21674019,0.03463295,-0.29624343,0.36629003,-0.453823,-0.25917527
0.052,-0.20276096,0.028436705,-0.28863078,0.3736871,-0.44824427,-0.2571115
0.054,-0.18498036,0.02023305,-0.27758682,0.3815056,-0.44056576,-0.25437966
0.056,-0.16314143,0.009667575,-0.26374805,0.38955238,-0.43107715,-0.2509985
0.058,-0.13709208,-0.003061846,-0.24627784,0.3976611,-0.42007327,-0.24697323
0.06,-0.10690565,-0.018056266,-0.22520152,0.40566626,-0.40785325,-0.2423184
0.062,-0.072683334,-0.035119146,-0.20041579,0.41342515,-0.3947124,-0.23702225
0.064,-0.03456899,-0.054238696,-0.17210974,0.42082113,-0.38093984,-0.23108244
0.066,0.007123325,-0.075180836,-0.14034498,0.42775846,-0.36682904,-0.22451109
0.068,0.05212084,-0.09778093,-0.105226554,0.43417785,-0.3526369,-0.21732149
0.07,0.099704206,-0.12170687,-0.06677965,0.44003266,-0.3385825,-0.20952645
0.072,0.14940596,-0.14644332,-0.025045458,0.44530356,-0.3248226,-0.20113163
0.074,0.20052247,-0.17167953,0.019608527,0.4499945,-0.31146774,-0.19214578
0.076,0.25225392,-0.19698581,0.06696969,0.45413348,-0.2985401,-0.18255845
0.078,0.30381805,-0.22199781,0.11646727,0.4577427,-0.28600013,-0.17237137
0.08,0.35440874,-0.24610752,0.16783592,0.4608614,-0.27372894,-0.161566
0.082,0.40311134,-0.2688251,0.22057721,0.463534,-0.2615486,-0.15011574
0.084,0.4493113,-0.28975582,0.2741516,0.46580452,-0.24924703,-0.13798766
0.086,0.4920524,-0.30845165,0.32791024,0.46771267,-0.23661408,-0.12515688
0.088,0.5306791,-0.32452676,0.3812431,0.46927157,-0.22348684,-0.11162178
0.09,0.5645102,-0.33763278,0.4335459,0.47047612,-0.20975676,-0.097408675
0.092,0.59306425,-0.3473853,0.48389924,0.47129625,-0.1953802,-0.08257298
0.094,0.6161195,-0.3536511,0.53169,0.47169423,-0.1803926,-0.067244
0.096,0.6333849,-0.35632864,0.57607496,0.47161508,-0.16492039,-0.05157474
0.098,0.64484143,-0.35529065,0.61644745,0.4709892,-0.14918195,-0.03574722
0.1,0.6503793,-0.3505515,0.65216756,0.46974456,-0.13347214,-0.019971222
0.102,0.650277,-0.34217623,0.6829523,0.46782744,-0.11815503,-0.0044636354
0.104,0.6447879,-0.330241,0.70837736,0.46517563,-0.10356727,0.010566384
0.106,0.63415587,-0.31489086,0.72797674,0.46177045,-0.09002347,0.024944045
0.108,0.61888695,-0.2961655,0.7414968,0.45762038,-0.07777023,0.038522184
0.11,0.5998001,-0.2745246,0.74870497,0.45277065,-0.066967726,0.05117636
0.112,0.5776142,-0.25043836,0.74955237,0.44728512,-0.057696596,0.06283905
0.114,0.55309343,-0.22420433,0.7441386,0.4412731,-0.049931347,0.07348513
0.116,0.5271288,-0.1962705,0.7327802,0.43485874,-0.043558553,0.083111055
0.118,0.50064164,-0.16703612,0.715917,0.4281811,-0.038409844,0.09174066
0.12,0.474352,-0.13695407,0.6941342,0.42138726,-0.034258023,0.09943103
0.122,0.44881982,-0.1064077,0.6680483,0.41460776,-0.030867323,0.10625747
0.124,0.4249422,-0.075902164,0.63844043,0.4079665,-0.02803196,0.11230462
0.126,0.4033139,-0.045862913,0.60604495,0.4015714,-0.025569528,0.11766843
0.128,0.38464344,-0.016796917,0.5716784,0.39551535,-0.023322254,0.12244438
0.13,0.36947477,0.010877848,0.5361422,0.38987154,-0.021181121,0.1267251
0.132,0.35845828,0.03679052,0.500374,0.38472217,-0.019022822,0.13060617
0.134,0.3518557,0.060628146,0.46525264,0.38012734,-0.016746491,0.13416618
0.136,0.35002953,0.08200301,0.43163976,0.37615484,-0.01425451,0.13747352
0.138,0.35295004,0.1007908,0.4003527,0.37287545,-0.011441499,0.14059807
0.14,0.36065286,0.11686316,0.3721368,0.37034047,-0.008176982,0.14362246
0.142,0.37306786,0.13010463,0.34764087,0.36861145,-0.0043127686,0.1466118
0.144,0.38990498,0.14049846,0.32750458,0.36772618,0.0003155321,0.14963523
0.146,0.41106534,0.14804432,0.31188834,0.36769602,0.005834505,0.15276273
0.148,0.43636194,0.15280809,0.30099642,0.36850125,0.012354612,0.15605281
0.15,0.46545535,0.15489636,0.29504868,0.37007615,0.019967988,0.1595554
0.152,0.49789196,0.15459675,0.29435173,0.37233293,0.028759316,0.16329902
0.154,0.5330231,0.1521002,0.2990255,0.3751428,0.03876011,0.16729492
0.156,0.57026505,0.14785731,0.3088229,0.3783572,0.04996881,0.17153557
0.158,0.6087917,0.14220935,0.32368934,0.3818348,0.062321305,0.17598242
0.16,0.6481157,0.13553369,0.34308448,0.38540158,0.07573967,0.18058507
0.162,0.6873314,0.12835556,0.36665654,0.38890725,0.09012532,0.18527111
0.164,0.72573555,0.121085495,0.39372855,0.39221185,0.10535991,0.18997982
0.166,0.76264024,0.11422354,0.4237226,0.39519745,0.1213229,0.19463894
0.168,0.79712033,0.10828364,0.455947,0.3977673,0.13788188,0.19918847
0.17,0.8286292,0.10373312,0.48958194,0.39983192,0.1548735,0.20357427
0.172,0.85626245,0.10094392,0.5237357,0.40132472,0.17216173,0.20777538
0.174,0.8794473,0.10040972,0.5576395,0.40219077,0.18958834,0.2117787
0.176,0.8975751,0.10252756,0.5904818,0.40240222,0.20700075,0.21558079
0.178,0.9099941,0.1077055,0.6216055,0.40193218,0.22423798,0.21921116
0.18,0.91619945,0.11633319,0.6503693,0.4007494,0.2410819,0.22270079
0.182,0.91585636,0.12853575,0.6763062,0.39882794,0.2572922,0.22609745
0.184,0.90867466,0.14460409,0.69887674,0.39615393,0.27263758,0.22944635
0.186,0.8944893,0.16463625,0.71766376,0.3927018,0.286821,0.23276529
0.188,0.873305,0.18864498,0.73254704,0.38845864,0.29954207,0.23606025
0.19,0.8452445,0.21650779,0.7433245,0.38341475,0.31049475,0.23928599
0.192,0.8105253,0.24803981,0.7499051,0.37757853,0.3193906,0.24234036
0.194,0.76951957,0.2830897,0.7523001,0.3709825,0.32597268,0.24508129
0.196,0.7227939,0.32123733,0.7506248,0.36368325,0.3300548,0.2473324
0.198,0.67112464,0.3621808,0.7451532,0.35578287,0.33153465,0.24888292
0.2,0.615198,0.40538022,0.7362195,0.34740964,0.3304394,0.24951904
0.202,0.5559362,0.45031196,0.72445095,0.3387441,0.32692182,0.24905446
0.204,0.49408486,0.4965343,0.7104924,0.33000228,0.32127324,0.2473188
0.206,0.4305419,0.54349726,0.6950566,0.32143354,0.31390178,0.24421124
0.208,0.3662302,0.5906719,0.6786719,0.3133005,0.3053347,0.23969822
0.21,0.30233854,0.63747346,0.66190135,0.3058682,0.2961589,0.2338306
0.212,0.23996282,0.6834414,0.64513695,0.29937604,0.28702623,0.22672229
0.214,0.1800302,0.7279539,0.62900186,0.29407665,0.27857476,0.21854578
0.216,0.1236797,0.77064097,0.61397904,0.2901647,0.2714141,0.20954128
0.218,0.0718039,0.8110206,0.6005378,0.28779557,0.2660562,0.19995183
0.22,0.025054812,0.84890246,0.58902764,0.2870729,0.26290923,0.19000372
0.222,-0.015714258,0.8841939,0.57972443,0.28803355,0.26221532,0.17991371
0.224,-0.04981351,0.9165338,0.5731455,0.29064578,0.2640744,0.16985558
0.226,-0.076693654,0.94591546,0.5695685,0.29481408,0.26841336,0.15993467
0.228,-0.09591657,0.97227925,0.5690828,0.3003719,0.2750189,0.15022448
0.23,-0.10694736,0.9957591,0.5718733,0.3070898,0.28353,0.14074004
0.232,-0.10960239,1.0163624,0.5781552,0.31469586,0.29347685,0.13144353
0.234,-0.1040594,1.0343877,0.5879186,0.32289684,0.30433604,0.12226714
0.236,-0.09008813,1.0500243,0.60124516,0.3313748,0.3155202,0.11309275
0.238,-0.067902446,1.0636089,0.618065,0.33980668,0.32642072,0.10379255
0.24,-0.037706554,1.07554,0.6381345,0.3478952,0.33650833,0.0942444
0.242,1.758337e-05,1.0861912,0.66137743,0.35538718,0.34532714,0.0843384
0.244,0.04510522,1.0959694,0.68767273,0.36207017,0.35252336,0.07399222
0.246,0.09679395,1.105344,0.716779,0.36779228,0.35788897,0.0631576
0.248,0.15452528,1.114627,0.7484287,0.37245864,0.36137977,0.05181463
0.25,0.2175343,1.1242095,0.782321,0.37603247,0.363091,0.03998828
0.252,0.28513002,1.1345296,0.818185,0.37853846,0.36325023,0.02775909
0.254,0.3563548,1.1460971,0.85553205,0.3800433,0.36219028,0.015246257
0.256,0.43022475,1.1592147,0.89401674,0.3806466,0.36031377,0.0026066005
0.258,0.50565195,1.1742775,0.93338746,0.38050073,0.35804904,-0.009968877
0.26,0.58182627,1.1917242,0.97308743,0.3797577,0.35580513,-0.022291169
0.262,0.6579001,1.2118016,1.0125458,0.3785981,0.35393816,-0.034174576
0.264,0.73307323,1.2348925,1.051259,0.37719637,0.3527149,-0.04544875
0.266,0.8065362,1.2612169,1.0888584,0.3757394,0.35227332,-0.055975392
0.268,0.87771547,1.2908797,1.1248428,0.3743832,0.35267892,-0.06565584
0.27,0.9459466,1.3239214,1.1590693,0.37329298,0.3538937,-0.07444787
0.272,1.0106468,1.3603822,1.1913428,0.37260193,0.35582614,-0.082344055
0.274,1.0712564,1.4003253,1.2217934,0.37242165,0.35834557,-0.08934526
0.276,1.1274459,1.4435682,1.2502576,0.37284392,0.36131233,-0.09547219
0.278,1.1791928,1.4898816,1.2767928,0.3739404,0.3645961,-0.10074861
0.28,1.2261491,1.539162,1.30142,0.37575856,0.36808282,-0.10518636
0.282,1.268534,1.5911797,1.3244524,0.37833226,0.37171063,-0.10880713
0.284,1.3063147,1.6455624,1.346034,0.3816933,0.3754632,-0.111621335
0.286,1.3395692,1.7020518,1.3663421,0.3858737,0.37938818,-0.11363518
0.288,1.368754,1.7602946,1.3854072,0.39090067,0.38355103,-0.11485538
0.29,1.3943388,1.8198472,1.4033935,0.39680743,0.38804477,-0.11529395
0.292,1.4167176,1.8803275,1.4203694,0.4036309,0.39299828,-0.11498132
0.294,1.4363704,1.9413545,1.4365687,0.41140515,0.39854214,-0.11398825
0.296,1.4538043,2.0026178,1.4520841,0.42015806,0.40482426,-0.11240931
0.298,1.4695624,2.0637329,1.4669988,0.42990196,0.41196093,-0.11035
0.3,1.4842254,2.1244092,1.4813616,0.44063836,0.42001206,-0.10791841
0.302,1.4984523,2.1843002,1.4951663,0.45234886,0.42899004,-0.10521296
0.304,1.5128083,2.2431178,1.5084267,0.4649638,0.43882942,-0.10234277
0.306,1.5278631,2.300695,1.5213125,0.47839105,0.44939262,-0.099429935
0.308,1.5439976,2.3567455,1.5340289,0.49252135,0.46043664,-0.096605495
0.31,1.5618788,2.4110603,1.5467217,0.50721115,0.47163653,-0.09400086
0.312,1.5816185,2.4634783,1.5594394,0.5223042,0.48261473,-0.09173849
0.314,1.6038585,2.5137336,1.5720917,0.53766227,0.49298966,-0.08994046
0.316,1.628876,2.561863,1.5846839,0.55314684,0.5023919,-0.08869776
0.318,1.6569481,2.6076887,1.5975311,0.5686483,0.51049525,-0.088076994
0.32,1.6880931,2.6512108,1.6109517,0.5840833,0.5170702,-0.0880931
0.322,1.7224007,2.6924405,1.6254263,0.59940296,0.52198607,-0.08873814
0.324,1.7597882,2.7314756,1.6412245,0.6145842,0.5252516,-0.08993751
0.326,1.800043,2.768322,1.6587265,0.62965,0.5269754,-0.091585964
0.328,1.8430402,2.8031151,1.6782039,0.64462495,0.52734953,-0.09357688
0.33,1.8884366,2.8358853,1.6999383,0.6595506,0.52664447,-0.09579474
0.332,1.9358586,2.8667517,1.7242427,0.6744705,0.5251578,-0.09813473
0.334,1.9846277,2.8959732,1.7511193,0.6893874,0.5231589,-0.100512266
0.336,2.034101,2.9238465,1.780707,0.7042728,0.5208508,-0.10286349
0.338,2.0837967,2.950486,1.813186,0.71907824,0.5184086,-0.10514033
0.34,2.1328566,2.9761822,1.8484322,0.7337296,0.5159381,-0.107287824
0.342,2.1806917,3.0012515,1.8863924,0.7481487,0.5135031,-0.10924643
0.344,2.226624,3.025825,1.92711,0.7622587,0.5111561,-0.11094701
0.346,2.2697012,3.0502272,1.9705093,0.77601004,0.5089187,-0.112298906
0.348,2.3090084,3.0746527,2.0165327,0.789395,0.5068317,-0.11318955
0.35,2.3436046,3.0994403,2.0650206,0.8024501,0.50497836,-0.11351648
0.352,2.3726025,3.124909,2.1154857,0.81528676,0.5035221,-0.11317441
0.354,2.3951693,3.151308,2.167437,0.82805204,0.5026885,-0.11210242
0.356,2.41076,3.1788497,2.2203727,0.8409492,0.50272167,-0.11026192
0.358,2.4188137,3.2076693,2.2737887,0.8542179,0.5038971,-0.10763329
0.36,2.4186792,3.237995,2.327293,0.8680916,0.5064752,-0.10422963
0.362,2.4098358,3.270075,2.3804274,0.88278127,0.5106902,-0.100094885
0.364,2.3921413,3.3038669,2.4328423,0.8984722,0.5166867,-0.095299184
0.366,2.3656042,3.3395483,2.484223,0.9152815,0.52450085,-0.08994502
0.368,2.330512,3.3770032,2.5341668,0.93327683,0.53404725,-0.08415967
0.37,2.286962,3.4161346,2.5824552,0.9524704,0.545139,-0.07810184
0.372,2.2354364,3.456843,2.6289911,0.97282135,0.5575081,-0.07197109
0.374,2.1765428,3.4988823,2.673876,0.9942329,0.5707725,-0.06597802
0.376,2.1109014,3.5421488,2.7172275,1.0165665,0.5844932,-0.06032744
0.378,2.0394711,3.5864553,2.7592182,1.0396508,0.59820825,-0.055247486
0.38,1.9634275,3.6316087,2.7998576,1.0632945,0.6114633,-0.050965667
0.382,1.884063,3.677252,2.8391953,1.0873038,0.62381804,-0.04767412
0.384,1.8029705,3.7229016,2.8771446,1.111475,0.63486636,-0.045581013
0.386,1.7215035,3.7682488,2.9139533,1.135611,0.64424217,-0.04486555
0.388,1.6413738,3.81294,2.9498038,1.1595358,0.65165913,-0.045681685
0.39,1.5639923,3.8564522,2.9849572,1.1830835,0.65688705,-0.048166007
0.392,1.4907658,3.8983567,3.0196083,1.2060761,0.65974516,-0.052446008
0.394,1.4231212,3.9383516,3.0541265,1.2283695,0.66011715,-0.058655977
0.396,1.3623086,3.9761212,3.0886292,1.2498217,0.65794086,-0.066905886
0.398,1.309451,4.0113397,3.123455,1.2702999,0.6531797,-0.07726467
0.4,1.2657028,4.0438175,3.158677,1.289683,0.64581656,-0.089779854
0.402,1.2320015,4.0733757,3.1943598,1.3078463,0.6358456,-0.10446432
0.404,1.2091918,4.099742,3.2306626,1.3246975,0.6232418,-0.121281385
0.406,1.197617,4.122946,3.2677267,1.3401507,0.60799307,-0.14015219
0.408,1.1975477,4.142884,3.305826,1.3541579,0.5901072,-0.16092831
0.41,1.2088208,4.159558,3.34508,1.3667051,0.56965256,-0.18341893
0.412,1.2313498,4.1731353,3.3855944,1.3778323,0.5467948,-0.20737877
0.414,1.2644936,4.1837263,3.4274566,1.3876612,0.5218382,-0.2325252
0.416,1.3078127,4.191449,3.4705575,1.3963859,0.49526617,-0.25851792
0.418,1.3605938,4.1965036,3.5148408,1.4042914,0.4677682,-0.28501013
0.42,1.421973,4.199133,3.5603018,1.4117391,0.4402331,-0.3116224
0.422,1.4911175,4.199566,3.6071033,1.4191396,0.41372034,-0.3379515
0.424,1.5666512,4.1979637,3.6552315,1.4269428,0.38937855,-0.36361364
0.426,1.6475785,4.1944895,3.7047114,1.4355979,0.36839285,-0.38822174
0.428,1.7325011,4.18943,3.755466,1.4455484,0.3518924,-0.41144735
0.43,1.8203154,4.182944,3.807302,1.4571989,0.34084576,-0.43300208
0.432,1.9098833,4.175116,3.8600087,1.4708693,0.3359639,-0.4526673
0.434,1.9999846,4.1660566,3.9134393,1.4867785,0.337648,-0.4703017
0.436,2.0897002,4.155861,3.967638,1.5050384,0.34594178,-0.4858596
0.438,2.1779199,4.1445565,4.0224934,1.5256324,0.36056465,-0.49934843
0.44,2.2637484,4.132294,4.077921,1.5484325,0.3809105,-0.5108568
0.442,2.3463435,4.119154,4.13366,1.5732123,0.40610245,-0.5205584
0.444,2.425135,4.105128,4.189519,1.599658,0.43506345,-0.52867365
0.446,2.4993906,4.090256,4.245389,1.6273706,0.46656394,-0.5354812
0.448,2.5684297,4.074638,4.3011694,1.6558852,0.4993221,-0.54128546
0.45,2.6317182,4.0583262,4.356916,1.6847231,0.5320838,-0.5464145
0.452,2.688931,4.041423,4.4124546,1.7133912,0.56368405,-0.55121994
0.454,2.7396917,4.023935,4.4675493,1.7414067,0.59310013,-0.5560353
0.456,2.7838335,4.006037,4.5218716,1.7683368,0.6194747,-0.5611633
0.458,2.821257,3.9877965,4.5752063,1.793807,0.6421536,-0.5668875
0.46,2.851813,3.9693873,4.6274056,1.8175265,0.66067773,-0.57345885
0.462,2.875271,3.9510798,4.678412,1.8392949,0.6747591,-0.58107585
0.464,2.8915818,3.9330397,4.728255,1.8589966,0.68428534,-0.58988214
0.466,2.9006562,3.915533,4.776913,1.8766074,0.68927014,-0.5999632
0.468,2.9025114,3.8988428,4.8244576,1.8921585,0.6898431,-0.6113517
0.47,2.8972654,3.8831882,4.8706226,1.9057543,0.6861993,-0.62404835
0.472,2.8849292,3.8688004,4.915276,1.9175304,0.67860484,-0.63801515
0.474,2.8656316,3.8561144,4.9582148,1.9276636,0.66737765,-0.65320814
0.476,2.8394127,3.8453104,4.9992185,1.9363694,0.6528947,-0.66956925
0.478,2.8064365,3.8367808,5.0379863,1.9438753,0.63560176,-0.6870384
0.48,2.767354,3.830558,5.074233,1.9504222,0.6160181,-0.70557785
0.482,2.722538,3.8268454,5.1078963,1.9562727,0.594787,-0.72514904
0.484,2.6724262,3.8256345,5.1386285,1.9617153,0.57262087,-0.7457183
0.486,2.6177502,3.826953,5.166447,1.967062,0.5503048,-0.7672534
0.488,2.5590534,3.830753,5.191251,1.9726341,0.528672,-0.78969425
0.49,2.4969378,3.836862,5.212962,1.9787546,0.5085698,-0.81300044
0.492,2.432398,3.8449976,5.231775,1.9857558,0.49080086,-0.8371347
0.494,2.3660588,3.854761,5.24771,1.9939227,0.47610962,-0.86204123
0.496,2.2989154,3.8657625,5.260703,2.0035155,0.46511298,-0.8876231
0.498,2.2314823,3.8775876,5.2705765,2.0147173,0.4582821,-0.9137775
0.5,2.1649148,3.8897784,5.2770424,2.0276697,0.45593476,-0.9403666
0.502,2.1000896,3.901885,5.279752,2.04244,0.45821053,-0.9672358
0.504,2.0377426,3.9134822,5.278497,2.059012,0.46508396,-0.99422
0.506,1.978806,3.9240272,5.273323,2.07734,0.47639656,-1.0211322
0.508,1.9238168,3.9330096,5.263895,2.097308,0.49185365,-1.0478058
0.51,1.8735979,3.93994,5.2499237,2.1187425,0.51105386,-1.0740807
0.512,1.8285466,3.9444585,5.2312675,2.1414108,0.53350836,-1.0998237
0.514,1.7892182,3.9461935,5.20751,2.1650429,0.55866826,-1.1249189
0.516,1.756299,3.944783,5.1783338,2.1893282,0.58596337,-1.1492981
0.518,1.7300324,3.9400005,5.1433644,2.2139342,0.6147635,-1.1729394
0.52,1.7108171,3.931693,5.10261,2.2385037,0.6443912,-1.1958692
0.522,1.6984358,3.9195895,5.056217,2.2626832,0.6741181,-1.2181385
0.524,1.6931142,3.903749,5.0042663,2.286119,0.70318747,-1.2398272
0.526,1.6945806,3.8843136,4.9468937,2.308472,0.7307962,-1.2610251
0.528,1.7026439,3.8615131,4.8844523,2.3294382,0.75616467,-1.2818351
0.53,1.7169833,3.8354537,4.8174577,2.3487568,0.77854985,-1.3023593
0.532,1.737269,3.8064084,4.7464933,2.3662434,0.7973119,-1.32268
0.534,1.7633696,3.7747073,4.6723638,2.3817942,0.8119456,-1.3428584
0.536,1.794632,3.7406306,4.5958295,2.395393,0.8221223,-1.3629212
0.538,1.8307514,3.7043145,4.517543,2.4070957,0.82776415,-1.3828609
0.54,1.8710319,3.6662133,4.438371,2.417046,0.8290704,-1.4026068
0.542,1.9148277,3.626761,4.3589954,2.425484,0.82646096,-1.4220641
0.544,1.9618813,3.586276,4.2803316,2.4327145,0.8205972,-1.4410918
0.546,2.0114532,3.5450163,4.2028775,2.439088,0.8123424,-1.4595282
0.548,2.0632865,3.5032716,4.1274157,2.4450257,0.80269825,-1.4772093
0.55,2.1168828,3.461332,4.0546184,2.4509346,0.79270065,-1.4940099
0.552,2.1718593,3.4191704,3.9850214,2.4572306,0.7833844,-1.5097954
0.554,2.227816,3.3770757,3.9192276,2.464268,0.77569735,-1.5244645
0.556,2.284604,3.3349504,3.8576026,2.4723604,0.7704388,-1.5379468
0.558,2.3419151,3.2928212,3.800432,2.4817543,0.7681876,-1.5502099
0.56,2.3996744,3.2506883,3.747828,2.4925847,0.76927394,-1.5612533
0.562,2.4575472,3.2084532,3.6998882,2.5049229,0.77380276,-1.5710945
0.564,2.5154963,3.1661592,3.6564941,2.5187573,0.7816349,-1.5797763
0.566,2.5735667,3.1236067,3.6176581,2.5340042,0.792434,-1.5873433
0.568,2.6318805,3.0805907,3.5830612,2.5505006,0.8056977,-1.593874
0.57,2.6906552,3.0368865,3.5522957,2.5680413,0.8207971,-1.5994481
0.572,2.7502449,2.9921436,3.5249066,2.5864,0.83704275,-1.6041585
0.574,2.8106775,2.9462402,3.5003605,2.6053407,0.85375404,-1.608121
0.576,2.8722653,2.8988414,3.4782379,2.6246321,0.8702833,-1.6114705
0.578,2.9352155,2.8497505,3.4579437,2.644052,0.8860657,-1.6143602
0.58,2.9995713,2.7988093,3.439174,2.6633973,0.90061516,-1.6169527
0.582,3.0655303,2.745805,3.421625,2.6824934,0.9135411,-1.6194066
0.584,3.133175,2.6905808,3.405006,2.7011762,0.92454773,-1.6218657
0.586,3.202551,2.6332622,3.3888495,2.7192857,0.93341666,-1.6244504
0.588,3.2735984,2.5737839,3.372642,2.7366877,0.9400069,-1.6272501
0.59,3.346148,2.5123012,3.3559206,2.753247,0.94424367,-1.6303111
0.592,3.4199471,2.44907,3.3382049,2.7688782,0.9461233,-1.6336447
0.594,3.494735,2.3844411,3.3192432,2.7835076,0.94565475,-1.637221
0.596,3.5701761,2.3187013,3.2985928,2.7970872,0.942931,-1.6409594
0.598,3.6459293,2.2521634,3.2757466,2.8096254,0.93809044,-1.6447443
0.6,3.7216733,2.185346,3.2502575,2.8211741,0.9313094,-1.64845
0.602,3.7965736,2.1187506,3.2216332,2.831828,0.92284036,-1.6519462
0.604,3.8702934,2.0530138,3.1895726,2.8417344,0.9130259,-1.6550709
0.606,3.9422984,1.9884746,3.153895,2.8510852,0.90221,-1.6576713
0.608,4.0120173,1.925575,3.1146207,2.8600879,0.8907261,-1.6596037
0.61,4.0788355,1.8646371,3.0719092,2.8689384,0.8788793,-1.6607304
0.612,4.142099,1.8059094,3.0256448,2.8778327,0.86693186,-1.6609198
0.614,4.2014174,1.7497617,2.9756098,2.8869433,0.8550562,-1.6600802
0.616,4.2563834,1.6963171,2.9216146,2.8964083,0.8432922,-1.6581546
0.618,4.306827,1.645786,2.863699,2.9063354,0.831537,-1.6551278
0.62,4.352474,1.5981199,2.802139,2.9168072,0.819557,-1.65104
0.622,4.3935237,1.5531572,2.7372108,2.9278636,0.80700386,-1.6459708
0.624,4.4297624,1.5108149,2.669434,2.939505,0.7934586,-1.6400425
0.626,4.461238,1.4707781,2.599329,2.951684,0.7784304,-1.6334083
0.628,4.488388,1.4327209,2.5273564,2.9643316,0.7614051,-1.6262287
0.63,4.5114665,1.3962435,2.4542336,2.9773512,0.74188066,-1.618717
0.632,4.531088,1.3611016,2.3806407,2.9906332,0.71937597,-1.6110764
0.634,4.5477104,1.3265585,2.307493,3.0040588,0.69350994,-1.6035137
0.636,4.5620303,1.2921695,2.2357104,3.0175173,0.66392994,-1.5962393
0.638,4.574591,1.257431,2.165915,3.030891,0.63037455,-1.5894299
0.64,4.586152,1.2219069,2.0986035,3.0440912,0.59267926,-1.5832332
0.642,4.597662,1.1851453,2.0342069,3.0570443,0.55079293,-1.5777435
0.644,4.6096015,1.146842,1.9732832,3.0696998,0.50477016,-1.5730245
0.646,4.6229863,1.1064544,1.9163796,3.0820322,0.45479536,-1.5690981
0.648,4.6383376,1.0638446,1.8640927,3.0940626,0.40118575,-1.5659481
0.65,4.6565285,1.0185164,1.8169273,3.1058397,0.34434116,-1.5635413
0.652,4.678073,0.9702265,1.7754568,3.1174238,0.28478348,-1.561827
0.654,4.703466,0.9188683,1.7399611,3.1289067,0.2230947,-1.5607288
0.656,4.7332487,0.8643209,1.7108299,3.1403804,0.15988445,-1.5601658
0.658,4.7676773,0.80647063,1.6882296,3.151946,0.09574199,-1.5600832
0.66,4.807105,0.74519813,1.6722168,3.1637144,0.031203866,-1.5604322
0.662,4.8517776,0.6806171,1.6629356,3.1758058,-0.033265233,-1.5611777
0.664,4.9019127,0.6125922,1.6602304,3.1883116,-0.0973258,-1.5622851
0.666,4.9574895,0.5412805,1.6640314,3.2013283,-0.16075665,-1.5637381
0.668,5.0185976,0.4667244,1.674336,3.2149534,-0.2234084,-1.5655069
0.67,5.085079,0.38893783,1.6912473,3.2292705,-0.2851659,-1.5675468
0.672,5.1569924,0.30784667,1.7148216,3.2443905,-0.3459164,-1.5698006
0.674,5.2338743,0.22350013,1.7453392,3.260441,-0.40551257,-1.5721732
0.676,5.3152165,0.1358403,1.7828898,3.2775614,-0.4637289,-1.5745484
0.678,5.400628,0.045018077,1.8276674,3.2959027,-0.5202689,-1.5767679
0.68,5.489545,-0.049078584,1.8797848,3.315617,-0.57474816,-1.5786295
0.682,5.5813813,-0.14626586,1.9393348,3.3368132,-0.62677556,-1.5799221
0.684,5.675886,-0.24657124,2.0061672,3.359577,-0.67599267,-1.5804439
0.686,5.7722373,-0.34990793,2.0801177,3.3839252,-0.7220888,-1.5800289
0.688,5.8701334,-0.4563092,2.161125,3.4097924,-0.76490027,-1.5785506
0.69,5.969168,-0.5657386,2.2488801,3.437043,-0.8043849,-1.5759723
0.692,6.0687923,-0.67806196,2.3430018,3.4654875,-0.8406678,-1.57236
0.694,6.168314,-0.7930908,2.4429133,3.494865,-0.8740516,-1.5678451
0.696,6.2674437,-0.91070676,2.5482137,3.52487,-0.904956,-1.5626183
0.698,6.3658433,-1.0307178,2.6583066,3.5551784,-0.93388784,-1.5569088
0.7,6.462949,-1.1528189,2.7727144,3.5854418,-0.96139246,-1.5509549
0.702,6.55849,-1.2768595,2.8904922,3.6153266,-0.9880151,-1.5449816
0.704,6.6521325,-1.402643,3.0110948,3.6445222,-1.0142924,-1.5391635
0.706,6.743511,-1.5299067,3.1337245,3.6727486,-1.0407666,-1.5336084
0.708,6.832288,-1.6582355,3.2578087,3.699775,-1.0679573,-1.5283843
0.71,6.9181943,-1.7873827,3.3826318,3.7253914,-1.0963767,-1.52351
0.712,7.001277,-1.9171566,3.5075924,3.7494335,-1.1265051,-1.518962
0.714,7.0815005,-2.047381,3.6320353,3.7717755,-1.1587627,-1.5147048
0.716,7.158773,-2.1777716,3.7553966,3.792355,-1.1935208,-1.5106851
0.718,7.2331886,-2.308184,3.877276,3.8111713,-1.2310354,-1.5068768
0.72,7.304678,-2.4384866,3.9974098,3.8282561,-1.271434,-1.5032649
0.722,7.373513,-2.5687335,4.1156383,3.8436925,-1.3146988,-1.4998575
0.724,7.4396367,-2.6988907,4.231819,3.8576095,-1.3606436,-1.4966966
0.726,7.502967,-2.8289685,4.3457475,3.8701491,-1.4088703,-1.493836
0.728,7.5635424,-2.9590473,4.457257,3.8814776,-1.4588208,-1.4913324
0.73,7.6212196,-3.0892007,4.565958,3.8917973,-1.5098081,-1.4892304
0.732,7.67636,-3.219647,4.671419,3.9012973,-1.5610521,-1.4875668
0.734,7.729263,-3.3506773,4.773143,3.9101458,-1.6117538,-1.4863588
0.736,7.7801795,-3.4826307,4.870445,3.918503,-1.6611255,-1.4855852
0.738,7.829211,-3.6157365,4.9627705,3.9264958,-1.7084264,-1.4851874
0.74,7.8765473,-3.7503598,5.049319,3.934251,-1.7530379,-1.4851196
0.742,7.92211,-3.8867445,5.1293564,3.9418592,-1.7944643,-1.4853514
0.744,7.965999,-4.025115,5.202099,3.9494042,-1.8323729,-1.4858253
0.746,8.0080595,-4.165857,5.266958,3.9569566,-1.8665704,-1.4865077
0.748,8.048266,-4.3092723,5.3232727,3.964578,-1.8970088,-1.4874146
0.75,8.086373,-4.4554176,5.370529,3.972325,-1.9237807,-1.4885508
0.752,8.122569,-4.6045837,5.4091973,3.980271,-1.9470738,-1.4899241
0.754,8.154655,-4.7562675,5.438015,3.9884982,-1.9671433,-1.4915352
0.756,8.182717,-4.910371,5.4529753,3.9970942,-1.984286,-1.4933716
0.758,8.209342,-5.067623,5.4532557,4.0062003,-1.9988115,-1.4954166
0.76,8.233674,-5.2277384,5.441474,4.01598,-2.010997,-1.4976258
0.762,8.254686,-5.390229,5.419441,4.026649,-2.0210786,-1.4999144
0.764,8.269727,-5.554254,5.384219,4.038477,-2.0292323,-1.5021834
0.766,8.28105,-5.720314,5.3321033,4.0517745,-2.0355706,-1.5042987
0.768,8.290982,-5.8885527,5.2639375,4.066866,-2.040196,-1.5061196
0.77,8.297659,-6.0576167,5.182116,4.084095,-2.0431843,-1.5074942
0.772,8.300793,-6.226774,5.0879197,4.103816,-2.044615,-1.5082706
0.774,8.300885,-6.395871,4.9821815,4.1263638,-2.0446222,-1.5083027
0.776,8.298786,-6.5644813,4.865868,4.1520143,-2.0434191,-1.5074267
0.778,8.295096,-6.7317505,4.7401295,4.1809654,-2.0413306,-1.5054905
0.78,8.289743,-6.8966794,4.602804,4.2132936,-2.0388932,-1.502356
0.782,8.287792,-7.0595856,4.453828,4.2489204,-2.036866,-1.497963
0.784,8.292336,-7.220632,4.299926,4.2877154,-2.0359244,-1.4922843
0.786,8.303386,-7.3780727,4.152103,4.3295574,-2.0366385,-1.4852608
0.788,8.309471,-7.526543,4.011969,4.374097,-2.0400996,-1.4768724
0.79,8.30957,-7.665194,3.8739052,4.420829,-2.0474784,-1.4672298
0.792,8.319983,-7.798892,3.735266,4.469269,-2.059551,-1.4565179
0.794,8.347314,-7.9299083,3.5946198,4.518976,-2.0766566,-1.4448807
0.796,8.387949,-8.0556555,3.4530053,4.5695643,-2.0990045,-1.4322629
0.798,8.43984,-8.176092,3.325337,4.6205664,-2.127053,-1.4185708
0.8,8.501532,-8.290253,3.221588,4.6716037,-2.1610284,-1.4037845
0.802,8.574787,-8.396181,3.138291,4.7223945,-2.2008104,-1.3879302
0.804,8.660585,-8.492006,3.072432,4.7725906,-2.2462177,-1.3709446
0.806,8.757658,-8.576586,3.025189,4.8217735,-2.2971196,-1.3525976
0.808,8.868022,-8.650804,2.9998603,4.869512,-2.353355,-1.3326381
0.81,8.992429,-8.715786,2.9991665,4.9155254,-2.4144719,-1.3108237
0.812,9.128789,-8.771717,3.0247157,4.9593782,-2.480468,-1.2869923
0.814,9.274956,-8.818458,3.0767663,5.0003424,-2.5519505,-1.2611685
0.816,9.429586,-8.856296,3.1545768,5.037438,-2.6296673,-1.2337008
0.818,9.591846,-8.885986,3.2560315,5.0696893,-2.7142131,-1.2051144
0.82,9.760866,-8.907998,3.379306,5.096737,-2.8049066,-1.1755128
0.822,9.935752,-8.9229355,3.5252163,5.1187477,-2.9005196,-1.144798
0.824,10.115112,-8.931809,3.6941817,5.1364594,-2.999429,-1.1133447
0.826,10.2981415,-8.935167,3.8833742,5.1502953,-3.1010082,-1.0822089
0.828,10.484345,-8.933502,4.0885997,5.1607466,-3.204536,-1.0522023
0.83,10.673427,-8.927441,4.3057203,5.1694646,-3.3064613,-1.023225
0.832,10.865227,-8.917492,4.530612,5.178657,-3.4019275,-0.9946979
0.834,11.059641,-8.904185,4.7592983,5.190658,-3.4862194,-0.9659054
0.836,11.255884,-8.887575,4.9875994,5.2083917,-3.5538216,-0.93586385
0.838,11.453048,-8.867544,5.211213,5.2350955,-3.5988212,-0.90325963
0.84,11.650163,-8.843658,5.425763,5.273807,-3.6153698,-0.86639833
0.842,11.845907,-8.815193,5.626753,5.327159,-3.5976467,-0.8231851
0.844,12.038749,-8.781069,5.809806,5.396874,-3.5408182,-0.7712529
0.846,12.226625,-8.739904,5.9713454,5.483451,-3.441813,-0.7082131
0.848,12.407178,-8.690105,6.1083207,5.586163,-3.2993655,-0.6319339
0.85,12.577677,-8.629744,6.218138,5.7030115,-3.114244,-0.5408809
0.852,12.735047,-8.556843,6.2990127,5.8309755,-2.889229,-0.4340899
0.854,12.875761,-8.469271,6.349824,5.96626,-2.6291273,-0.31110728
0.856,12.996609,-8.36484,6.3701906,6.104665,-2.3406682,-0.17224717
0.858,13.094009,-8.241606,6.3605857,6.2419577,-2.0321627,-0.018808007
0.86,13.164511,-8.097887,6.3222938,6.3741946,-1.7129328,0.14710033
0.862,13.204522,-7.932193,6.2562976,6.497851,-1.3929636,0.32286775
0.864,13.213075,-7.743888,6.1659417,6.6098285,-1.0824916,0.50554895
0.866,13.186723,-7.53195,6.056857,6.707781,-0.79076904,0.6921053
0.868,13.121231,-7.29536,5.9313545,6.7901196,-0.5257604,0.87963796
0.87,13.016886,-7.034497,5.789497,6.8557854,-0.29421157,1.0655551
0.872,12.874453,-6.7504005,5.6335497,6.904064,-0.10136449,1.2474927
0.874,12.696258,-6.444414,5.4704943,6.934325,0.048791945,1.4230772
0.876,12.48085,-6.117124,5.3065376,6.946532,0.15475959,1.5905044
0.878,12.228639,-5.7698903,5.1429367,6.941324,0.21736431,1.749012
0.88,11.944729,-5.4057846,4.9805193,6.9205103,0.23999691,1.8985245
0.882,11.632741,-5.0271783,4.8215528,6.886168,0.2265079,2.0387144
0.884,11.296122,-4.636297,4.6689463,6.839759,0.17926931,2.168913
0.886,10.9384365,-4.2357483,4.525125,6.7829843,0.10145211,2.288982
0.888,10.563868,-3.8286874,4.392003,6.717806,-0.002527237,2.399404
0.89,10.177434,-3.4180944,4.273815,6.645722,-0.12886083,2.5009122
0.892,9.779741,-3.0057192,4.171632,6.567902,-0.27436662,2.594252
0.894,9.374714,-2.5938165,4.0807333,6.485475,-0.43621135,2.6800194
0.896,8.968639,-2.1861134,3.995397,6.399467,-0.6120161,2.7587156
0.898,8.575544,-1.7882673,3.9206562,6.3107133,-0.7998636,2.8307686
0.9,8.195465,-1.4001008,3.865375,6.219822,-0.9980887,2.8965325
0.902,7.814867,-1.017526,3.8319802,6.127206,-1.2051967,2.9563591
0.904,7.434355,-0.6406133,3.8202324,6.0332556,-1.4195951,3.0106518
0.906,7.0635853,-0.27383363,3.8268933,5.9383574,-1.6397086,3.059838
0.908,6.7071652,0.08173382,3.838581,5.8428016,-1.8644135,3.104218
0.91,6.3674564,0.424554,3.8520088,5.7468967,-2.0925639,3.1440945
0.912,6.0430584,0.7529634,3.8760917,5.6510205,-2.322799,3.1798625
0.914,5.7334266,1.0662204,3.9156213,5.555504,-2.553832,3.211917
0.916,5.439462,1.3651444,3.9691458,5.460651,-2.7844687,3.2406564
0.918,5.1583524,1.65249,4.0338173,5.3667502,-3.0136542,3.2664464
0.92,4.888861,1.9304849,4.1080823,5.2740526,-3.2405334,3.2895913
0.922,4.6321473,2.1997962,4.192028,5.1827607,-3.4644456,3.3103008
0.924,4.3885117,2.4608214,4.2865663,5.0930495,-3.6849022,3.3286905
0.926,4.1569667,2.7142298,4.392813,5.005048,-3.9015393,3.3447762
0.928,3.936499,2.9606857,4.5117416,4.9188976,-4.1139755,3.358481
0.93,3.7258327,3.2005475,4.643138,4.834793,-4.321763,3.3696547
0.932,3.5239522,3.434419,4.7839613,4.752983,-4.52433,3.378084
0.934,3.3301175,3.6630926,4.9326563,4.673813,-4.7209272,3.38357
0.936,3.1430671,3.8868113,5.090798,4.59769,-4.910584,3.385929
0.938,2.9614944,4.1058936,5.2602897,4.5250673,-5.0921125,3.385078
0.94,2.7849796,4.320295,5.442011,4.456417,-5.2641134,3.3810213
0.942,2.6114664,4.53067,5.6360826,4.3921957,-5.42502,3.3738928
0.944,2.4401808,4.7367783,5.842216,4.332822,-5.5731673,3.3639216
0.946,2.2715516,4.9381313,6.0598516,4.2786403,-5.706889,3.3514123
0.948,2.105022,5.134631,6.28837,4.229883,-5.8246784,3.336741
0.95,1.9401228,5.326174,6.526533,4.1866813,-5.925246,3.3203309
0.952,1.7761807,5.5126786,6.773018,4.1490593,-6.007613,3.3026667
0.954,1.6124189,5.6939936,7.026745,4.116918,-6.071178,3.2842495
0.956,1.4481733,5.8697653,7.286454,4.0900598,-6.115709,3.2655454
0.958,1.2823703,6.039862,7.550354,4.068186,-6.1413875,3.2469974
0.96,1.114121,6.204049,7.8167167,4.0508995,-6.148781,3.2289863
0.962,0.94280076,6.362071,8.083735,4.037738,-6.1387444,3.211842
0.964,0.7678635,6.5137706,8.349439,4.0281773,-6.112397,3.1957703
0.966,0.5881047,6.6589828,8.61181,4.0216556,-6.0710287,3.180828
0.968,0.4029858,6.7977033,8.868771,4.017592,-6.015986,3.1669793
0.97,0.21195602,6.929892,9.118023,4.0154214,-5.948615,3.1540942
0.972,0.014510632,7.055588,9.357466,4.0146375,-5.8701115,3.1419625
0.974,-0.19014168,7.1749363,9.584808,4.0148125,-5.781519,3.1304224
0.976,-0.40244102,7.2879877,9.798036,4.0155683,-5.6837854,3.119371
0.978,-0.6227188,7.394846,9.995333,4.016616,-5.5776763,3.1087642
0.98,-0.85133576,7.4955473,10.175379,4.0177765,-5.4636917,3.0986025
0.982,-1.0882418,7.5901995,10.336906,4.0189424,-5.3422275,3.0888844
0.984,-1.333451,7.6786013,10.47901,4.0200796,-5.213588,3.0796275
0.986,-1.5868399,7.7608404,10.600344,4.0212307,-5.078003,3.070886
0.988,-1.8478272,7.8366556,10.699527,4.0224595,-4.935653,3.0626812
0.99,-2.1153598,7.905976,10.775234,4.0238733,-4.786759,3.0550485
0.992,-2.3884058,7.9686737,10.826471,4.0255756,-4.6316395,3.0480382
0.994,-2.6661339,8.024882,10.852299,4.027628,-4.4707785,3.0417204
0.996,-2.947413,8.074584,10.852001,4.0300474,-4.30483,3.036178
0.998,-3.2309575,8.118147,10.82525,4.032776,-4.1346674,3.0314965
1,-3.5154574,8.155575,10.771938,4.0356827,-3.961368,3.0277438
1.002,-3.799469,8.187089,10.692169,4.0385866,-3.7861054,3.0249634
1.004,-4.08123,8.212714,10.5861025,4.0412726,-3.6100948,3.0231018
1.006,-4.3589697,8.232823,10.454213,4.043523,-3.434527,3.0220149
1.008,-4.6314163,8.247663,10.297155,4.0451584,-3.2604809,3.0214999
1.01,-4.8970375,8.257462,10.115781,4.046038,-3.0888612,3.0213456
1.012,-5.1541696,8.262777,9.9107485,4.0460873,-2.9203463,3.0213625
1.014,-5.4012527,8.264009,9.682785,4.0452967,-2.7554202,3.021439
1.016,-5.6367702,8.2617855,9.432819,4.043685,-2.5944326,3.0215235
1.018,-5.8596306,8.256812,9.161783,4.04127,-2.4376664,3.02167
1.02,-6.068896,8.249854,8.870905,4.038064,-2.2854295,3.0219622
1.022,-6.2642117,8.241835,8.5618515,4.0340533,-2.1380734,3.0224838
1.024,-6.445122,8.2336445,8.236237,4.02916,-1.9960331,3.0232606
1.026,-6.6112137,8.226023,7.8958893,4.023238,-1.8599343,3.0243025
1.028,-6.7623053,8.219765,7.5422087,4.0161147,-1.7304871,3.0254738
1.03,-6.8980803,8.21576,7.1765814,4.007639,-1.6083926,3.0265663
1.032,-7.0191283,8.215261,6.800495,3.9976492,-1.4943763,3.0273638
1.034,-7.1264114,8.219587,6.4156356,3.9860048,-1.389139,3.0276656
1.036,-7.221042,8.229982,6.02409,3.972615,-1.2932129,3.0273066
1.038,-7.304982,8.247949,5.6283813,3.9574497,-1.2069217,3.0261295
1.04,-7.3798795,8.274742,5.2310224,3.9405184,-1.1303958,3.0240045
1.042,-7.4476633,8.311312,4.834615,3.9219375,-1.0634935,3.0208182
1.044,-7.510481,8.358642,4.4415183,3.9018698,-1.0058107,3.016462
1.046,-7.5701966,8.417497,4.0538673,3.8805585,-0.9566181,3.0108323
1.048,-7.629285,8.488559,3.6733384,3.8583167,-0.9149204,3.00385
1.05,-7.690687,8.572857,3.301617,3.835475,-0.8795254,2.9954896
1.052,-7.755761,8.670629,2.9405165,3.812399,-0.8490695,2.985767
1.054,-7.8273525,8.78257,2.5916076,3.7894735,-0.8220545,2.9747312
1.056,-7.908352,8.909241,2.2565513,3.7670693,-0.7970091,2.9624763
1.058,-8.000873,9.050553,1.9368309,3.7455146,-0.77255654,2.949138
1.06,-8.106714,9.206164,1.6340258,3.7251046,-0.7474939,2.9348664
1.062,-8.227206,9.37546,1.3492391,3.7060814,-0.72088313,2.919801
1.064,-8.363314,9.557743,1.0827012,3.688618,-0.69206893,2.9040236
1.066,-8.515678,9.752556,0.83401203,3.6728387,-0.6606598,2.8875532
1.068,-8.684509,9.959048,0.6031232,3.6588259,-0.62655354,2.8703365
1.07,-8.869738,10.176362,0.38982034,3.6466107,-0.5898359,2.8522468
1.072,-9.071149,10.403649,0.1937232,3.636209,-0.5507349,2.8331044
1.074,-9.288164,10.639849,0.014365673,3.6275945,-0.5096017,2.8127093
1.076,-9.519426,10.883902,-0.14884114,3.6207235,-0.46680856,2.7908401
1.078,-9.763716,11.134583,-0.2964716,3.6155996,-0.4227058,2.7673104
1.08,-10.019299,11.390805,-0.42938852,3.6122246,-0.37757444,2.7419307
1.082,-10.284316,11.651372,-0.5484004,3.610641,-0.33157462,2.7145572
1.084,-10.556528,11.915095,-0.6542878,3.61089,-0.28475058,2.6850736
1.086,-10.833678,12.180849,-0.7481775,3.6130524,-0.23707098,2.6533978
1.088,-11.113581,12.44771,-0.8312757,3.617194,-0.18844002,2.6194568
1.09,-11.394033,12.714568,-0.90486526,3.6233652,-0.13875741,2.583213
1.092,-11.672925,12.980555,-0.96999073,3.631567,-0.08794105,2.5446234
1.094,-11.9483185,13.2450285,-1.0279064,3.6417892,-0.035984516,2.5036526
1.096,-12.218288,13.507116,-1.0794263,3.6539154,0.016964853,2.460277
1.098,-12.481286,13.766274,-1.1253562,3.6678152,0.070617676,2.414489
1.1,-12.736019,14.021866,-1.1666017,3.6832922,0.12447944,2.3662574
1.102,-12.981354,14.273537,-1.2040749,3.7001326,0.1779348,2.31554
1.104,-13.21619,14.520911,-1.2384877,3.7181187,0.23027557,2.2622616
1.106,-13.439722,14.763629,-1.2707477,3.7370286,0.2807313,2.2063477
1.108,-13.651627,15.001393,-1.3015299,3.7566304,0.32854077,2.1477187
1.11,-13.851788,15.234131,-1.3314533,3.77674,0.3730265,2.086306
1.112,-14.040407,15.461922,-1.3608608,3.797188,0.4136426,2.0220625
1.114,-14.218088,15.685056,-1.3898196,3.8178375,0.4500306,1.9549608
1.116,-14.385693,15.903809,-1.4181514,3.8385582,0.48199818,1.8850108
1.118,-14.543863,16.118664,-1.4456506,3.8592582,0.5095122,1.8122755
1.12,-14.693912,16.330208,-1.4715681,3.8798404,0.5326632,1.7368834
1.122,-14.837031,16.538929,-1.4947286,3.9001994,0.5516438,1.6589769
1.124,-14.974842,16.74562,-1.5139365,3.920248,0.56666535,1.5787362
1.126,-15.108675,16.951017,-1.5279179,3.9398863,0.57793736,1.496328
1.128,-15.240313,17.156097,-1.5353308,3.959014,0.58563787,1.4119104
1.13,-15.371308,17.361736,-1.5348477,3.9775238,0.58983785,1.3256071
1.132,-15.503268,17.568893,-1.5248494,3.9952927,0.59056544,1.2374791
1.134,-15.637577,17.77862,-1.5035815,4.0122595,0.5878217,1.1475343
1.136,-15.775942,17.991972,-1.4692802,4.028344,0.5815358,1.0557138
1.138,-15.91951,18.209633,-1.4200754,4.0435038,0.57162297,0.9619335
1.14,-16.069555,18.43237,-1.35428,4.0577164,0.5580386,0.8660821
1.142,-16.226994,18.660873,-1.2703662,4.0709715,0.54077965,0.76803994
1.144,-16.392908,18.894613,-1.1674366,4.083276,0.5199094,0.6677145
1.146,-16.567421,19.135925,-1.0431607,4.0946374,0.49553278,0.56501126
1.148,-16.750635,19.384134,-0.8970876,4.1050615,0.46784222,0.45984185
1.15,-16.942453,19.639502,-0.728667,4.1145964,0.43711972,0.35213614
1.152,-17.142502,19.902027,-0.53767586,4.123277,0.40370226,0.24183297
1.154,-17.34986,20.171543,-0.3240428,4.131152,0.36796877,0.12889194
1.156,-17.563753,20.447649,-0.08809757,4.1382704,0.33029294,0.01324141
1.158,-17.782867,20.729908,0.1699276,4.144718,0.2910589,-0.10521722
1.16,-18.005896,21.017649,0.44921732,4.150571,0.250608,-0.22660768
1.162,-18.231293,21.309843,0.7485378,4.1558948,0.20919275,-0.3510809
1.164,-18.457016,21.60556,1.0660963,4.1607304,0.16698891,-0.47882378
1.166,-18.681114,21.9036,1.3997636,4.1650887,0.12408465,-0.61002815
1.168,-18.901096,22.202469,1.7470791,4.16894,0.08048171,-0.7448776
1.17,-19.115051,22.50098,2.1056151,4.172246,0.036140442,-0.88350594
1.172,-19.321112,22.797737,2.4728966,4.174906,-0.009024143,-1.0260279
1.174,-19.5169,23.091396,2.8464813,4.1768208,-0.055122674,-1.1725154
1.176,-19.700321,23.380104,3.224236,4.1778846,-0.102252245,-1.3229985
1.178,-19.869377,23.662352,3.6033022,4.1780176,-0.15048546,-1.477495
1.18,-20.02213,23.936535,3.9806356,4.1771603,-0.1998631,-1.6359824
1.182,-20.156675,24.201118,4.35395,4.1752844,-0.2504177,-1.7984233
1.184,-20.271624,24.454725,4.7211246,4.172397,-0.30215153,-1.9647682
1.186,-20.365683,24.695913,5.0801864,4.1685176,-0.3550586,-2.1349819
1.188,-20.437878,24.923508,5.4292965,4.163647,-0.40912163,-2.3090048
1.19,-20.487555,25.136288,5.7670045,4.1578,-0.46429828,-2.4867644
1.192,-20.514154,25.333206,6.092008,4.1509743,-0.5205338,-2.6682081
1.194,-20.517302,25.513155,6.4030666,4.1431355,-0.57776666,-2.853253
1.196,-20.496864,25.675251,6.699387,4.1342506,-0.635921,-3.0417774
1.198,-20.453009,25.818596,6.980381,4.1242537,-0.69493043,-3.233653
1.2,-20.386019,25.942776,7.24558,4.1130924,-0.7547484,-3.42869
1.202,-20.296417,26.047277,7.494919,4.1007085,-0.8153849,-3.6266701
1.204,-20.18475,26.1317,7.728432,4.0870495,-0.8768805,-3.8273494
1.206,-20.051764,26.195951,7.9465303,4.0721035,-0.9393325,-4.030479
1.208,-19.898338,26.240004,8.149719,4.055873,-1.0028533,-4.235781
1.21,-19.725307,26.26409,8.338749,4.0383987,-1.0676134,-4.442965
1.212,-19.533731,26.268543,8.514586,4.019725,-1.1338633,-4.6517353
1.214,-19.324413,26.253834,8.678074,3.9999216,-1.2018509,-4.8618083
1.216,-19.097988,26.220697,8.830294,3.979077,-1.2718171,-5.0729117
1.218,-18.855114,26.170038,8.97191,3.957272,-1.3440039,-5.2847805
1.22,-18.596151,26.102894,9.10382,3.9345808,-1.418667,-5.4971743
1.222,-18.321667,26.020535,9.227108,3.91109,-1.4960415,-5.709862
1.224,-18.031868,25.92424,9.343132,3.8868375,-1.57639,-5.922676
1.226,-17.72702,25.815481,9.453407,3.8618755,-1.6600069,-6.1354656
1.228,-17.407207,25.695744,9.55935,3.836207,-1.74719,-6.3480997
1.23,-17.072037,25.566635,9.662271,3.8098245,-1.8382504,-6.5604496
1.232,-16.721346,25.42973,9.763424,3.7826736,-1.9335052,-6.772402
1.234,-16.35453,25.286661,9.864304,3.7547002,-2.0332696,-6.983898
1.236,-15.971112,25.139118,9.966532,3.7258258,-2.137816,-7.194906
1.238,-15.570066,24.988388,10.071636,3.6959763,-2.2473855,-7.405404
1.24,-15.15069,24.835958,10.181093,3.6650767,-2.3621235,-7.615396
1.242,-14.712191,24.68322,10.2961855,3.6330507,-2.4821255,-7.824892
1.244,-14.25399,24.53143,10.417812,3.5998049,-2.6073928,-8.033936
1.246,-13.775175,24.381548,10.546863,3.565238,-2.7378314,-8.242551
1.248,-13.275106,24.234701,10.6840725,3.5292277,-2.8732514,-8.450745
1.25,-12.753091,24.09172,10.830244,3.4916239,-3.0134246,-8.658517
1.252,-12.208562,23.952984,10.985819,3.4522552,-3.1580563,-8.865832
1.254,-11.640434,23.819542,11.151227,3.4109278,-3.306827,-9.072624
1.256,-11.048647,23.689829,11.325579,3.3674138,-3.4594216,-9.278808
1.258,-10.432536,23.564762,11.509579,3.321488,-3.6155555,-9.484262
1.26,-9.791861,23.444178,11.703096,3.2728953,-3.7750273,-9.688839
1.262,-9.126855,23.32795,11.905888,3.221394,-3.9377897,-9.892384
1.264,-8.437816,23.21554,12.11795,3.1667242,-4.103919,-10.094704
1.266,-7.72554,23.106796,12.339621,3.108629,-4.27365,-10.295615
1.268,-6.9908733,23.001453,12.57119,3.0468533,-4.4474535,-10.494903
1.27,-6.2348137,22.899092,12.812733,2.9811172,-4.625991,-10.69235
1.272,-5.4582205,22.79939,13.06407,2.911131,-4.8100815,-10.887774
1.274,-4.6621947,22.702034,13.325082,2.8365743,-5.000613,-11.080974
1.276,-3.8480306,22.606833,13.595709,2.7570932,-5.198537,-11.271762
1.278,-3.0170026,22.51375,13.875915,2.6723018,-5.4047556,-11.459925
1.28,-2.1706595,22.422747,14.165904,2.5817726,-5.6200924,-11.64525
1.282,-1.3106308,22.33413,14.466187,2.4850695,-5.845195,-11.827537
1.284,-0.43911123,22.24833,14.777161,2.381716,-6.080524,-12.006588
1.286,0.44189835,22.165956,15.099002,2.27124,-6.32634,-12.182179
1.288,1.3303652,22.087795,15.432236,2.153131,-6.582737,-12.354082
1.29,2.2242315,22.014618,15.7774105,2.0269253,-6.8495574,-12.522083
1.292,3.1214375,21.947296,16.13454,1.8921565,-7.1264744,-12.685993
1.294,4.020321,21.886763,16.503658,1.7484328,-7.413011,-12.84565
1.296,4.919035,21.834072,16.884253,1.5953634,-7.70859,-13.000919
1.298,5.8163166,21.790201,17.27585,1.4326502,-8.012514,-13.151681
1.3,6.7108297,21.756182,17.677635,1.2600381,-8.323982,-13.297849
1.302,7.602031,21.732807,18.08863,1.0773683,-8.642051,-13.439351
1.304,8.488895,21.720804,18.507736,0.88459575,-8.965645,-13.57613
1.306,9.371057,21.720783,18.933397,0.68178135,-9.293522,-13.708154
1.308,10.248741,21.73321,19.363848,0.4691007,-9.624327,-13.835346
1.31,11.122521,21.758215,19.797043,0.24687938,-9.956545,-13.957617
1.312,11.993599,21.795633,20.230816,0.015551522,-10.288606,-14.074842
1.314,12.863579,21.84511,20.662933,-0.22432616,-10.618847,-14.186845
1.316,13.734668,21.905659,21.091198,-0.4721279,-10.945671,-14.293364
1.318,14.609331,21.976038,21.51381,-0.7271582,-11.2676735,-14.394118
1.32,15.490456,22.054947,21.928928,-0.9886973,-11.5837555,-14.488783
1.322,16.38085,22.14052,22.335222,-1.2560502,-11.893232,-14.577036
1.324,17.283468,22.230556,22.731293,-1.5285523,-12.195885,-14.658472
1.326,18.201193,22.322803,23.116238,-1.8056087,-12.49194,-14.732697
1.328,19.137056,22.414692,23.489574,-2.0866735,-12.78206,-14.799313
1.33,20.093529,22.503742,23.851116,-2.3712466,-13.06718,-14.857881
1.332,21.073366,22.586983,24.200375,-2.658796,-13.348353,-14.90792
1.334,22.078814,22.661629,24.537579,-2.9487863,-13.626566,-14.948871
1.336,23.111755,22.724648,24.863214,-3.2406058,-13.902607,-14.980036
1.338,24.173311,22.773254,25.178162,-3.5335479,-14.176868,-15.000624
1.34,25.264147,22.80473,25.483511,-3.8267837,-14.449289,-15.009786
1.342,26.384317,22.816387,25.780947,-4.1193767,-14.719371,-15.006637
1.344,27.533356,22.805386,26.072504,-4.4103365,-14.986275,-14.9903
1.346,28.70951,22.769524,26.360252,-4.6986184,-15.248898,-14.959993
1.348,29.910652,22.706974,26.64627,-4.983151,-15.505885,-14.915065
1.35,31.134365,22.616241,26.93245,-5.2628603,-15.755878,-14.855046
1.352,32.37792,22.49585,27.221138,-5.5367537,-15.997553,-14.779743
1.354,33.638313,22.344795,27.514658,-5.8038497,-16.229702,-14.689082
1.356,34.912445,22.162313,27.81531,-6.0632215,-16.4512,-14.583188
1.358,36.196724,21.948137,28.125168,-6.314016,-16.661097,-14.462303
1.36,37.48764,21.702347,28.446339,-6.555403,-16.858551,-14.326809
1.362,38.781765,21.425386,28.780983,-6.786556,-17.042807,-14.1771555
1.364,40.07628,21.117727,29.131474,-7.006616,-17.213139,-14.013846
1.366,41.368637,20.78033,29.499607,-7.2146535,-17.368813,-13.837375
1.368,42.656506,20.414597,29.887259,-7.409622,-17.509033,-13.648226
1.37,43.937973,20.021952,30.296078,-7.590371,-17.63294,-13.446859
1.372,45.21218,19.603828,30.727367,-7.7556586,-17.73963,-13.233666
1.374,46.47829,19.162365,31.181894,-7.904169,-17.828167,-13.008985
1.376,47.73676,18.69936,31.660133,-8.034536,-17.897604,-12.773127
1.378,48.988155,18.216328,32.162544,-8.145347,-17.947062,-12.526362
1.38,50.233376,17.715588,32.689693,-8.23523,-17.975866,-12.268986
1.382,51.4734,17.19951,33.241867,-8.302851,-17.983547,-12.001238
1.384,52.709965,16.670013,33.81884,-8.346997,-17.969933,-11.723345
1.386,53.94502,16.129213,34.41974,-8.366599,-17.935188,-11.435536
1.388,55.18052,15.579476,35.04321,-8.360722,-17.87982,-11.138012
1.39,56.418507,15.023306,35.68789,-8.328619,-17.804708,-10.83098
1.392,57.660923,14.463236,36.352295,-8.269764,-17.711092,-10.5146265
1.394,58.909573,13.902014,37.03488,-8.183874,-17.600538,-10.189079
1.396,60.1661,13.342649,37.734188,-8.070918,-17.475002,-9.854524
1.398,61.432514,12.78791,38.448326,-7.9311247,-17.33675,-9.511184
1.4,62.71054,12.24079,39.175037,-7.7649684,-17.188412,-9.159396
1.402,64.00178,11.704859,39.911346,-7.573203,-17.032972,-8.79961
1.404,65.30828,11.183905,40.65442,-7.3567553,-16.873678,-8.432413
1.406,66.63194,10.68289,41.401653,-7.1167455,-16.713963,-8.058519
1.408,67.97368,10.207662,42.15061,-6.854393,-16.55744,-7.6788325
1.41,69.335106,9.764802,42.899532,-6.5710096,-16.407715,-7.2942863
1.412,70.718636,9.36121,43.646847,-6.2679296,-16.268314,-6.9058347
1.414,72.1274,9.004146,44.39249,-5.946455,-16.142555,-6.5143614
1.416,73.56451,8.702177,45.13684,-5.607886,-16.033493,-6.1206717
1.418,75.03319,8.465089,45.88111,-5.2534523,-15.943892,-5.725361
1.42,76.535736,8.304796,46.62738,-4.8843603,-15.876226,-5.328846
1.422,78.07663,8.231216,47.377144,-4.50171,-15.83255,-4.9312863
1.424,79.66067,8.25737,48.1323,-4.1064825,-15.81451,-4.532606
1.426,81.29053,8.399242,48.892155,-3.699462,-15.823189,-4.1324873
1.428,82.97838,8.666811,49.656868,-3.2812128,-15.8590555,-3.7304864
1.43,84.730156,9.080004,50.432938,-2.8520281,-15.921957,-3.3259506
1.432,86.546074,9.67204,51.22706,-2.411904,-16.010996,-2.918025
1.434,88.428406,10.473541,52.038017,-1.96049,-16.124462,-2.5056593
1.436,90.393036,11.487509,52.856083,-1.4970967,-16.259876,-2.0877023
1.438,92.443016,12.725918,53.70329,-1.0207411,-16.4141,-1.6629119
1.44,94.56946,14.235601,54.60356,-0.5301566,-16.583252,-1.2299316
1.442,96.78577,16.05952,55.55365,-0.02387786,-16.762861,-0.78723955
1.444,99.09162,18.202082,56.52863,0.49954033,-16.948137,-0.33308244
1.446,101.48314,20.696157,57.52143,1.0415668,-17.134232,0.13448024
1.448,103.95193,23.572723,58.52818,1.6037221,-17.316128,0.6178144
1.45,106.46791,26.858986,59.558746,2.1875224,-17.48873,1.1196243
1.452,109.00205,30.570154,60.63764,2.7943654,-17.647228,1.642466
1.454,111.54016,34.71462,61.788494,3.4254622,-17.787544,2.188751
1.456,113.99923,39.345024,62.989105,4.081889,-17.905664,2.7609847
1.458,116.372925,44.448517,64.279495,4.764386,-17.997713,3.3629208
1.46,118.62944,50.00415,65.71561,5.47313,-18.060093,3.9986196
1.462,120.70307,55.996937,67.34992,6.2079268,-18.08878,4.670987
1.464,122.74368,62.38625,69.161285,6.968646,-18.078747,5.382237
1.466,124.868385,69.13603,71.12469,7.755101,-18.024786,6.1370206
1.468,126.87304,76.267914,73.26375,8.563688,-17.923166,6.942025
1.47,128.70102,83.74871,75.606514,9.390744,-17.76573,7.8044624
1.472,130.33371,91.52278,78.185844,10.234513,-17.53867,8.733176
1.474,131.77875,99.59022,80.91845,11.092486,-17.229809,9.737642
1.476,133.0056,107.78177,84.002525,11.961819,-16.825226,10.826089
1.478,134.02094,116.0078,87.47772,12.83814,-16.306425,12.004156
1.48,134.84552,124.17811,91.35058,13.715116,-15.651806,13.274523
1.482,135.48105,132.08955,95.30728,14.58688,-14.834503,14.6400585
1.484,136.047,139.885,99.47191,15.448938,-13.821403,16.106506
1.486,136.59906,147.44676,103.94861,16.298359,-12.572617,17.67386
1.488,137.1872,154.61534,108.818924,17.129202,-11.042733,19.339382
1.49,137.8123,160.9771,114.15986,17.925817,-9.204145,21.092749
1.492,138.60382,166.576,119.66601,18.673698,-7.0309734,22.916077
1.494,139.65079,171.33484,125.3786,19.359653,-4.5004334,24.789997
1.496,140.87761,175.16756,131.31552,19.973158,-1.6048002,26.694645
1.498,142.44984,177.94026,137.36707,20.49754,1.6536603,28.601576
1.5,144.48074,179.48962,143.41301,20.910757,5.276184,30.448458
1.502,147.10983,179.8996,149.38148,21.193985,9.244064,32.17167
1.504,150.30476,179.18202,155.12286,21.33579,13.503211,33.731213
1.506,154.08102,177.35927,160.4668,21.325176,17.996616,35.066395
1.508,158.4175,174.49634,165.23785,21.13165,22.526207,36.03199
1.51,163.24298,170.70084,169.25021,20.803936,27.11818,36.639313
1.512,168.49834,166.0936,172.34451,20.36797,31.630363,36.926426
1.514,174.23103,160.7547,174.34383,19.891586,35.867046,36.891975
1.516,180.35274,154.72177,175.11792,19.475239,39.762287,36.3217
1.518,186.71988,148.08286,174.56912,19.198381,43.310574,35.14679
1.52,193.09628,141.01361,172.6468,19.07331,46.343647,33.440315
1.522,199.32158,133.65692,169.30829,19.117517,48.74337,31.222418
1.524,205.22255,126.14505,164.55652,19.435448,50.437515,28.551987
1.526,210.60773,118.606674,158.426,20.092854,51.388733,25.48231
1.528,215.31813,111.16484,150.97067,21.105408,51.577038,22.065224
1.53,219.23093,103.916534,142.30396,22.446302,50.986374,18.356941
1.532,222.22472,96.96947,132.60168,24.042553,49.62585,14.374317
1.534,224.19176,90.427475,122.0883,25.768194,47.532475,10.084783
1.536,225.05208,84.38494,111.01814,27.443336,44.75307,5.449198
1.538,224.75584,78.92483,99.65795,28.845427,41.337463,0.45072365
1.54,223.30106,74.09717,88.27644,29.742783,37.348232,-4.87731
1.542,220.72005,69.929794,77.13611,29.93459,32.86686,-10.434593
1.544,217.06279,66.4531,66.49214,29.278292,27.990139,-16.032291
1.546,212.38824,63.711563,56.582455,27.692165,22.796432,-21.409294
1.548,206.79929,61.71598,47.585434,25.171434,17.366161,-26.27323
1.55,200.43034,60.436916,39.64654,21.801147,11.808464,-30.343765
1.552,193.40323,59.855026,32.89856,17.75377,6.2487745,-33.395107
1.554,185.87384,59.974133,27.443909,13.261116,0.81315327,-35.283813
1.556,178.00182,60.761055,23.313438,8.576099,-4.3459063,-36.00579
1.558,169.94469,62.17165,20.48278,3.9436083,-9.057943,-35.69181
1.56,161.86441,64.15018,18.866795,-0.41635704,-13.185422,-34.533493
1.562,153.89575,66.64346,18.337353,-4.314868,-16.536339,-32.726353
1.564,146.1437,69.58792,18.74562,-7.6715236,-19.15897,-30.618023
1.566,138.75066,72.87059,19.958984,-10.399027,-20.92494,-28.466013
1.568,131.75426,76.4361,21.76812,-12.4740715,-21.753521,-26.38921
1.57,125.20392,80.21542,23.960209,-13.905449,-21.731756,-24.312815
1.572,119.15517,84.12015,26.343163,-14.691079,-20.960533,-22.327248
1.574,113.46837,88.076385,28.801197,-14.816924,-19.409256,-20.547804
1.576,108.09528,91.99482,31.214764,-14.34068,-17.177055,-18.939333
1.578,103.26481,95.74118,33.430332,-13.416329,-14.429025,-17.478487
1.58,98.97974,99.252,35.322937,-12.1482725,-11.349907,-16.137445
1.582,95.18987,102.48474,36.798317,-10.621682,-8.114109,-14.916534
1.584,91.822685,105.35248,37.88597,-8.934269,-4.885418,-13.852266
1.586,88.84471,107.924644,38.385452,-7.1934443,-1.8354778,-12.977252
1.588,86.18505,110.16588,38.32831,-5.5059104,0.87282896,-12.318034
1.59,83.7717,112.046936,37.790997,-3.9695325,3.1080894,-11.915318
1.592,81.560265,113.63393,37.095352,-2.6661406,4.774946,-11.803957
1.594,79.41948,114.69602,36.09635,-1.6644286,5.8077044,-11.992587
1.596,77.317154,115.32468,34.74758,-1.0168172,6.1747956,-12.462406
1.598,75.23631,115.6302,33.072777,-0.7488768,5.8959503,-13.176359
1.6,73.20094,115.8896,31.125221,-0.8531623,5.039027,-14.077437
1.602,71.11791,115.90843,29.262802,-1.2968631,3.6948886,-15.091129
1.604,68.96275,115.68587,27.426487,-2.0367699,1.9636087,-16.135462
1.606,66.84594,115.252884,25.60342,-3.0213337,-0.04057789,-17.129477
1.608,64.631546,114.69086,23.888412,-4.1911955,-2.1910677,-18.002596
1.61,62.277306,114.091675,22.33768,-5.4797564,-4.3647957,-18.700909
1.612,59.73828,113.334656,20.933615,-6.816594,-6.4465756,-19.192299
1.614,57.124912,112.43501,19.711964,-8.132831,-8.329723,-19.464048
1.616,54.457947,111.42474,18.69135,-9.368041,-9.92768,-19.517176
1.618,51.767677,110.31969,17.865938,-10.475504,-11.182635,-19.36245
1.62,49.09831,109.124954,17.219368,-11.4231615,-12.063454,-19.017008
1.622,46.449757,107.86188,16.703596,-12.191909,-12.560758,-18.501604
1.624,43.72567,106.59962,16.291164,-12.773891,-12.684908,-17.840738
1.626,40.973957,105.42639,15.92338,-13.171281,-12.463928,-17.063131
1.628,38.26393,104.35769,15.543255,-13.395001,-11.940013,-16.20121
1.63,35.70323,103.33249,15.093489,-13.462685,-11.166608,-15.289213
1.632,33.285515,102.33945,14.557234,-13.396487,-10.204198,-14.360979
1.634,31.011557,101.376434,13.917507,-13.221481,-9.1151905,-13.448003
1.636,28.894363,100.437775,13.17504,-12.964046,-7.9610915,-12.577194
1.638,26.918299,99.515274,12.351244,-12.650629,-6.799535,-11.76886
1.64,25.054073,98.61302,11.447591,-12.307161,-5.6812825,-11.035665
1.642,23.29607,97.714806,10.450817,-11.957304,-4.6491256,-10.383694
1.644,21.64841,96.80095,9.348558,-11.620952,-3.7368689,-9.814461
1.646,20.113571,95.85648,8.142097,-11.314322,-2.9689531,-9.325096
1.648,18.685047,94.87807,6.8470507,-11.049665,-2.360705,-8.908571
1.65,17.350357,93.87553,5.485553,-10.8349,-1.9184508,-8.554512
1.652,16.10207,92.859474,4.0869417,-10.673944,-1.6402717,-8.250542
1.654,14.940636,91.83391,2.6805959,-10.567358,-1.5173073,-7.9836903
1.656,13.870018,90.80243,1.2912669,-10.512836,-1.5349236,-7.741449
1.658,12.885662,89.77355,-0.061278343,-10.505476,-1.6733727,-7.512508
1.66,11.978416,88.7529,-1.3597524,-10.538051,-1.9089332,-7.287421
1.662,11.143528,87.7392,-2.5934484,-10.601515,-2.2153535,-7.0588427
1.664,10.368858,86.733826,-3.76081,-10.685611,-2.565311,-6.8213778
1.666,9.64653,85.73273,-4.863602,-10.779524,-2.9318547,-6.5714345
1.668,8.97279,84.738174,-5.9014564,-10.872563,-3.28963,-6.3070316
1.67,8.347158,83.75686,-6.8714714,-10.954748,-3.6160042,-6.027632
1.672,7.773403,82.79007,-7.776433,-11.01733,-3.891973,-5.7338123
1.674,7.251642,81.84039,-8.622228,-11.053189,-4.1028123,-5.4271193
1.676,6.7820187,80.9102,-9.4157915,-11.057176,-4.238557,-5.1100283
1.678,6.365547,80.001076,-10.165885,-11.026192,-4.293947,-4.785698
1.68,6.0044594,79.112206,-10.883181,-10.959173,-4.2681656,-4.4577994
1.682,5.700569,78.241135,-11.578211,-10.856897,-4.164419,-4.1304307
1.684,5.4546623,77.38302,-12.261673,-10.721739,-3.9893637,-3.8079576
1.686,5.265461,76.5334,-12.944453,-10.557365,-3.752316,-3.4948294
1.688,5.13134,75.686386,-13.636541,-10.368313,-3.464364,-3.1954856
1.69,5.0503616,74.83507,-14.3467655,-10.159673,-3.1376443,-2.9142652
1.692,5.0206223,73.97271,-15.082136,-9.936715,-2.7845645,-2.655304
1.694,5.039337,73.093414,-15.847624,-9.70452,-2.4171114,-2.4223466
1.696,5.1036396,72.19135,-16.64515,-9.467741,-2.0463035,-2.2185788
1.698,5.2106323,71.26011,-17.474813,-9.230346,-1.6818206,-2.0465446
1.7,5.3565445,70.29383,-18.335037,-8.9954815,-1.3317382,-1.9079255
1.702,5.5370035,69.28731,-19.222607,-8.765436,-1.0024617,-1.8034409
1.704,5.746646,68.235085,-20.132195,-8.541671,-0.6988187,-1.732808
1.706,5.979848,67.13267,-21.057133,-8.324949,-0.42426658,-1.6947154
1.708,6.2309475,65.97653,-21.98917,-8.1154995,-0.18112445,-1.686863
1.71,6.4944496,64.76449,-22.918774,-7.913109,0.029263258,-1.706057
1.712,6.765088,63.495594,-23.835596,-7.7173367,0.20623422,-1.7484196
1.714,7.0382204,62.17008,-24.729403,-7.527663,0.34953094,-1.8096256
1.716,7.3094893,60.789467,-25.59053,-7.343574,0.45928454,-1.8851542
1.718,7.5749397,59.35604,-26.409595,-7.1645675,0.535957,-1.9705186
1.72,7.8309307,57.872704,-27.177893,-6.9902,0.58037484,-2.0614305
1.722,8.07459,56.342896,-27.887371,-6.820027,0.59372807,-2.153915
1.724,8.303213,54.770805,-28.530907,-6.653575,0.5775436,-2.2444162
1.726,8.514599,53.16115,-29.101776,-6.490304,0.53363717,-2.329853
1.728,8.707112,51.519382,-29.594517,-6.329546,0.46412385,-2.4075737
1.73,8.878907,49.851395,-30.004734,-6.170464,0.37137973,-2.475319
1.732,9.0292225,48.16328,-30.329,-6.011965,0.2579893,-2.5312161
1.734,9.157135,46.461464,-30.565447,-5.852701,0.12669241,-2.57377
1.736,9.262131,44.752625,-30.713634,-5.691082,-0.019589782,-2.6018229
1.738,9.344022,43.043236,-30.774649,-5.5252833,-0.17778403,-2.6145515
1.74,9.4028845,41.339874,-30.750498,-5.3533363,-0.34468567,-2.6114907
1.742,9.4385805,39.64888,-30.644089,-5.173255,-0.51704,-2.5925024
1.744,9.451019,37.97646,-30.45934,-4.98317,-0.6915536,-2.5577216
1.746,9.440363,36.328293,-30.201042,-4.7814636,-0.8649364,-2.5074763
1.748,9.4066925,34.709717,-29.874651,-4.5669103,-1.0339911,-2.4423149
1.75,9.349672,33.12597,-29.486063,-4.3388124,-1.1957164,-2.3629513
1.752,9.26952,31.581583,-29.041416,-4.0970592,-1.3474457,-2.2701688
1.754,9.166708,30.080595,-28.547249,-3.8421612,-1.4869639,-2.164771
1.756,9.041693,28.626684,-28.00994,-3.5752304,-1.6125985,-2.0475607
1.758,8.895121,27.223122,-27.435745,-3.2978897,-1.7232968,-1.9193518
1.76,8.727955,25.872742,-26.830597,-3.0121827,-1.8186107,-1.7810295
1.762,8.541477,24.577648,-26.199791,-2.7204022,-1.8986329,-1.6334915
1.764,8.337393,23.339857,-25.548174,-2.4249325,-1.9639803,-1.4777721
1.766,8.117217,22.161098,-24.880095,-2.1280942,-2.015607,-1.3149498
1.768,7.882792,21.042406,-24.199,-1.8319693,-2.0546079,-1.1461172
1.77,7.6361713,19.984583,-23.507853,-1.5383005,-2.082122,-0.9723811
1.772,7.3795795,18.98785,-22.80934,-1.2484375,-2.0992448,-0.7947935
1.774,7.1150136,18.052126,-22.105639,-0.96328366,-2.1070125,-0.61429036
1.776,6.8450327,17.17685,-21.398697,-0.6833304,-2.1063526,-0.43169248
1.778,6.5720153,16.361605,-20.690006,-0.40868148,-2.098032,-0.24764132
1.78,6.29845,15.605255,-19.980787,-0.13915634,-2.082736,-0.062602594
1.782,6.0267344,14.907068,-19.271923,0.12561855,-2.0611594,0.123092934
1.784,5.759371,14.265753,-18.56426,0.38610137,-2.034039,0.30924022
1.786,5.4989276,13.6801605,-17.858618,0.64271,-2.0021987,0.4957156
1.788,5.247842,13.148937,-17.156046,0.8957523,-1.966612,0.68241405
1.79,5.007921,12.670736,-16.457483,1.1453835,-1.9284096,0.869218
1.792,4.781471,12.243887,-15.76365,1.3915586,-1.8888818,1.0559242
1.794,4.5701,11.86681,-15.074753,1.6340213,-1.8495059,1.2422304
1.796,4.3752046,11.537849,-14.391037,1.8723251,-1.8119043,1.4277294
1.798,4.1977406,11.255376,-13.713001,2.105875,-1.7777928,1.6118731
1.8,4.038812,11.01795,-13.040898,2.3339884,-1.7489139,1.7940007
1.802,3.898986,10.824009,-12.374468,2.5559826,-1.7269123,1.9734348
1.804,3.7787614,10.672016,-11.713492,2.7712412,-1.7132716,2.1494875
1.806,3.6783307,10.560388,-11.057699,2.9792547,-1.7091916,2.321505
1.808,3.5972629,10.487965,-10.40636,3.179688,-1.7155454,2.4888992
1.81,3.5352886,10.4533615,-9.758743,3.3723674,-1.7328421,2.651217
1.812,3.4916139,10.455202,-9.113806,3.5572944,-1.7612491,2.8081608
1.814,3.4655,10.492214,-8.470853,3.734613,-1.8006263,2.9595962
1.816,3.4559352,10.563139,-7.8290052,3.9045482,-1.850595,3.1054373
1.818,3.461595,10.66684,-7.1875677,4.067398,-1.9105772,3.2457118
1.82,3.4814444,10.80201,-6.545789,4.2234755,-1.9799054,3.380445
1.822,3.514215,10.967457,-5.902988,4.3730426,-2.0579536,3.5096245
1.824,3.558623,11.162128,-5.2586627,4.516306,-2.1441712,3.6331642
1.826,3.6135159,11.384803,-4.61204,4.6533976,-2.238067,3.7508965
1.828,3.6775062,11.634426,-3.9627624,4.7844124,-2.3391817,3.8626015
1.83,3.7496862,11.909857,-3.3103812,4.9094515,-2.4470563,3.9680963
1.832,3.8288703,12.210267,-2.654489,5.028667,-2.5611877,4.067284
1.834,3.914045,12.534677,-1.9946495,5.1422844,-2.6809764,4.1602077
1.836,4.004301,12.882065,-1.3307804,5.2506285,-2.8056865,4.247121
1.838,4.099053,13.251057,-0.66284716,5.3541937,-2.9344323,4.328482
1.84,4.1980205,13.64038,0.009100854,5.4536304,-3.066179,4.404947
1.842,4.300758,14.04875,0.68466467,5.549713,-3.1997428,4.4773088
1.844,4.4072814,14.474763,1.3635917,5.6432633,-3.3339272,4.546414
1.846,4.517736,14.916891,2.0452378,5.735111,-3.4675403,4.613079
1.848,4.6326723,15.37369,2.7288013,5.8260565,-3.5993972,4.678028
1.85,4.7523184,15.843621,3.413365,5.916812,-3.7283733,4.7418365
1.852,4.877368,16.325123,4.097778,6.0079556,-3.8534591,4.8049326
1.854,5.0087175,16.81649,4.780652,6.099898,-3.9737873,4.867541
1.856,5.147246,17.315975,5.460426,6.192889,-4.088644,4.9296923
1.858,5.2939167,17.821955,6.135376,6.2870207,-4.197468,4.991289
1.86,5.450403,18.332584,6.8038216,6.3822746,-4.299846,5.0521107
1.862,5.617327,18.846304,7.463845,6.4785385,-4.395528,5.1118484
1.864,5.7958603,19.361563,8.113576,6.57564,-4.484393,5.1701527
1.866,5.987048,19.876822,8.751007,6.6733756,-4.5664206,5.2266665
1.868,6.1919336,20.390553,9.374073,6.771529,-4.6417336,5.281
1.87,6.4112806,20.9014,9.980879,6.869893,-4.710594,5.3327727
1.872,6.64581,21.408312,10.569561,6.9682207,-4.7733746,5.381588
1.874,6.8960457,21.91019,11.13855,7.066334,-4.830499,5.427067
1.876,7.1625166,22.406172,11.686308,7.1640816,-4.882365,5.4688716
1.878,7.445545,22.895372,12.211443,7.2613425,-4.929351,5.5067434
1.88,7.745201,23.377205,12.712825,7.358038,-4.9717913,5.540461
1.882,8.061424,23.851376,13.189445,7.4541006,-5.009969,5.569833
1.884,8.394117,24.317722,13.64049,7.5494547,-5.0440702,5.594698
1.886,8.742797,24.776476,14.065477,7.644042,-5.07417,5.614909
1.888,9.107038,25.227898,14.46419,7.7378073,-5.1001997,5.630357
1.89,9.486284,25.672728,14.836549,7.830699,-5.1220207,5.6409483
1.892,9.879761,26.111668,15.182901,7.9226236,-5.139422,5.646571
1.894,10.286677,26.545643,15.503668,8.013515,-5.152171,5.6471734
1.896,10.706272,26.97588,15.799546,8.103335,-5.1600075,5.6426964
1.898,11.137656,27.403988,16.071394,8.192077,-5.162653,5.6331167
1.9,11.579912,27.831463,16.320385,8.2797365,-5.1599064,5.618439
1.902,12.031798,28.259876,16.547998,8.366346,-5.1516695,5.5986843
1.904,12.492179,28.690903,16.755533,8.451939,-5.1379585,5.573894
1.906,12.960028,29.126211,16.944466,8.536539,-5.1189103,5.5441747
1.908,13.434244,29.567566,17.116524,8.620115,-5.0948586,5.509745
1.91,13.913665,30.016603,17.273457,8.702526,-5.0663633,5.470919
1.912,14.396957,30.474913,17.41699,8.783489,-5.0341935,5.4280834
1.914,14.88295,30.944023,17.549229,8.862562,-4.999355,5.381726
1.916,15.370166,31.425278,17.671917,8.9391,-4.9630117,5.332433
1.918,15.857509,31.919624,17.787037,9.012341,-4.9265122,5.2808285
1.92,16.343464,32.427845,17.89648,9.081365,-4.891345,5.227533
1.922,16.826828,32.950336,18.002068,9.145201,-4.8590302,5.173119
1.924,17.305946,33.48694,18.105587,9.202854,-4.8310857,5.1180673
1.926,17.779282,34.03727,18.208876,9.253386,-4.808961,5.062689
1.928,18.245392,34.600418,18.313576,9.2959175,-4.7940006,5.0071387
1.93,18.702324,35.17512,18.421053,9.329729,-4.78743,4.9513583
1.932,19.148548,35.75924,18.53251,9.354219,-4.790315,4.8950863
1.934,19.582123,36.350178,18.649063,9.368922,-4.803562,4.8379
1.936,20.001316,36.944626,18.771563,9.373484,-4.827914,4.7792444
1.938,20.40437,37.53873,18.900745,9.367649,-4.864019,4.7184525
1.94,20.78928,38.12804,19.037014,9.35121,-4.912424,4.654794
1.942,21.154055,38.707645,19.180384,9.323999,-4.973634,4.587492
1.944,21.497143,39.27213,19.33068,9.28583,-5.048122,4.51575
1.946,21.816795,39.815792,19.487381,9.236528,-5.136346,4.4387903
1.948,22.111593,40.332733,19.649857,9.1758795,-5.2387524,4.355851
1.95,22.380138,40.817062,19.81702,9.103657,-5.355818,4.266238
1.952,22.62149,41.262707,19.987589,9.0196495,-5.487966,4.16934
1.954,22.834835,41.66374,20.160254,8.923688,-5.6355352,4.0646696
1.956,23.019672,42.014828,20.333311,8.815632,-5.798751,3.951912
1.958,23.175903,42.311306,20.50492,8.695372,-5.977698,3.8309174
1.96,23.302809,42.548653,20.673029,8.562898,-6.172271,3.7017107
1.962,23.402939,42.722157,20.835598,8.41832,-6.38216,3.5645266
1.964,23.475302,42.829384,20.98981,8.261798,-6.6068573,3.419732
1.966,23.521461,42.867844,21.13319,8.093622,-6.8456306,3.267864
1.968,23.543419,42.835785,21.262756,7.9142656,-7.0975237,3.1095655
1.97,23.542572,42.73268,21.375862,7.7243433,-7.3613577,2.945522
1.972,23.521107,42.558777,21.469736,7.524629,-7.635765,2.7764108
1.974,23.481155,42.315228,21.541624,7.316044,-7.9191923,2.6028233
1.976,23.424898,42.00424,21.588858,7.0996256,-8.209947,2.425221
1.978,23.354599,41.62883,21.608963,6.8765125,-8.506218,2.243888
1.98,23.272558,41.192616,21.599411,6.647891,-8.806049,2.0589712
1.982,23.181038,40.699886,21.558086,6.4149456,-9.107376,1.8704255
1.984,23.08196,40.155624,21.482836,6.178819,-9.407997,1.6781185
1.986,22.977598,39.565083,21.371876,5.9405975,-9.705595,1.4818726
1.988,22.869705,38.93421,21.223635,5.7013187,-9.99777,1.2814724
1.99,22.76,38.26914,21.036844,5.4619846,-10.281971,1.0767659
1.992,22.649673,37.57624,20.810783,5.223383,-10.555691,0.8678398
1.994,22.540003,36.86213,20.545012,4.9861484,-10.816492,0.65496695
1.996,22.43215,36.133133,20.239561,4.750867,-11.062049,0.43864346
1.998,22.326763,35.395542,19.89493,4.5179377,-11.290355,0.2196641
2,22.224386,34.65548,19.512442,4.287545,-11.499958,-0.0009623766
2.002,22.125477,33.91867,19.09336,4.0596724,-11.68995,-0.22201085
2.004,22.030132,33.19069,18.63988,3.8341188,-11.8600445,-0.44213498
2.006,21.938385,32.476437,18.154427,3.6105185,-12.010617,-0.65994763
2.008,21.850216,31.780445,17.640116,3.388328,-12.142633,-0.874086
2.01,21.765759,31.106503,17.10038,3.166882,-12.257543,-1.0832876
2.012,21.684715,30.458145,16.538794,2.9454677,-12.357094,-1.2864212
2.014,21.606876,29.838112,15.95937,2.7233214,-12.443181,-1.482547
2.016,21.532148,29.248665,15.366296,2.499734,-12.51761,-1.6709248
2.018,21.46028,28.69143,14.76367,2.274122,-12.581994,-1.8509755
2.02,21.391048,28.167458,14.155637,2.0460446,-12.637712,-2.0223074
2.022,21.324303,27.677242,13.5463915,1.8152342,-12.685823,-2.184706
2.024,21.259882,27.220678,12.939833,1.5816543,-12.727058,-2.338078
2.026,21.19789,26.79723,12.339728,1.345539,-12.761811,-2.4824185
2.028,21.138218,26.405952,11.749508,1.1073835,-12.790163,-2.617739
2.03,21.0806,26.045622,11.17258,0.86794615,-12.811956,-2.7440689
2.032,21.024752,25.71472,10.611885,0.6282306,-12.826849,-2.8614054
2.034,20.971243,25.411245,10.069899,0.3894384,-12.834339,-2.9697266
2.036,20.920338,25.132965,9.548623,0.15287828,-12.833859,-3.0689607
2.038,20.872747,24.877453,9.048846,-0.08003211,-12.824778,-3.1590292
2.04,20.828487,24.642368,8.572844,-0.3078947,-12.806461,-3.2398734
2.042,20.784546,24.426548,8.12347,-0.52937007,-12.778312,-3.3114195
2.044,20.74145,24.2277,7.700279,-0.7432277,-12.739845,-3.3736649
2.046,20.70162,24.04284,7.30196,-0.9482393,-12.690586,-3.4267583
2.048,20.664997,23.86996,6.9289517,-1.143343,-12.630215,-3.470878
2.05,20.630596,23.707352,6.5816917,-1.327692,-12.558599,-3.5062647
2.052,20.59821,23.553253,6.259871,-1.500541,-12.475658,-3.5332782
2.054,20.567635,23.406172,5.9629555,-1.6612701,-12.381413,-3.5522897
2.056,20.538605,23.26458,5.6902766,-1.8094673,-12.276087,-3.5637524
2.058,20.510607,23.12724,5.4410553,-1.9449472,-12.160097,-3.5681312
2.06,20.483215,22.9929,5.2146163,-2.0677323,-12.034005,-3.5659316
2.062,20.455893,22.86063,5.010355,-2.178005,-11.898394,-3.5576632
2.064,20.42796,22.729668,4.827541,-2.2761579,-11.754037,-3.5438967
2.066,20.398748,22.59932,4.6656456,-2.3628032,-11.601907,-3.5252047
2.068,20.367393,22.468596,4.5240793,-2.4387736,-11.443218,-3.5022733
2.07,20.333864,22.337212,4.4024744,-2.5050564,-11.279306,-3.4759026
2.072,20.295368,22.205908,4.300281,-2.5624862,-11.111143,-3.4468963
2.074,20.252941,22.073648,4.217466,-2.6117756,-10.939364,-3.416016
2.076,20.205173,21.940697,4.153635,-2.6537516,-10.764867,-3.3841095
2.078,20.150593,21.807333,4.108612,-2.6892428,-10.588649,-3.3520956
2.08,20.08879,21.673508,4.0816913,-2.7188156,-10.411398,-3.320798
2.082,20.01899,21.539486,4.072277,-2.7427645,-10.233495,-3.290974
2.084,19.940649,21.405434,4.0795193,-2.761177,-10.055042,-3.2633297
2.086,19.853176,21.271576,4.102531,-2.7739763,-9.875856,-3.2384918
2.088,19.756132,21.137962,4.140183,-2.7808702,-9.695475,-3.2169366
2.09,19.649101,21.00497,4.1912827,-2.7813916,-9.513111,-3.1989813
2.092,19.531895,20.87268,4.2543526,-2.774936,-9.327774,-3.1847625
2.094,19.404613,20.7411,4.327854,-2.7607741,-9.138333,-3.17423
2.096,19.266972,20.610424,4.4100137,-2.738125,-8.943617,-3.167161
2.098,19.118961,20.480476,4.499048,-2.7062092,-8.742594,-3.1631532
2.1,18.96091,20.351036,4.592972,-2.6643195,-8.534473,-3.1616936
2.102,18.793142,20.221876,4.689561,-2.6118743,-8.318768,-3.1622038
2.104,18.6159,20.092474,4.7866273,-2.5484936,-8.095371,-3.1640916
2.106,18.429375,19.9625,4.882024,-2.4740074,-7.864605,-3.166799
2.108,18.234127,19.831692,4.973481,-2.3885205,-7.6271,-3.1698651
2.11,18.030626,19.69946,5.0589795,-2.2923574,-7.383761,-3.1729307
2.112,17.81925,19.565495,5.1367636,-2.1861203,-7.13568,-3.1758027
2.114,17.600595,19.42931,5.2050514,-2.0706034,-6.88413,-3.1784258
2.116,17.374903,19.290691,5.262553,-1.9467955,-6.6304665,-3.18085
2.118,17.142654,19.149174,5.308094,-1.8157523,-6.375949,-3.1832128
2.12,16.904272,19.004585,5.3407316,-1.67851,-6.1216383,-3.1856837
2.122,16.660313,18.856571,5.3599806,-1.5360496,-5.868444,-3.1883888
2.124,16.411133,18.705086,5.365559,-1.389276,-5.617186,-3.1913548
2.126,16.157091,18.550032,5.357361,-1.2391365,-5.3688054,-3.1946054
2.128,15.898646,18.391418,5.3355937,-1.0864034,-5.124016,-3.1980777
2.13,15.636156,18.229517,5.300667,-0.9314449,-4.882802,-3.2015064
2.132,15.369951,18.064545,5.2529635,-0.7744677,-4.6449227,-3.204505
2.134,15.100535,17.89692,5.193058,-0.6157639,-4.410267,-3.2067387
2.136,14.828076,17.727072,5.1216593,-0.4555688,-4.1786737,-3.2078657
2.138,14.553156,17.555481,5.0392866,-0.2940216,-3.9498696,-3.2075088
2.14,14.276274,17.382673,4.9465265,-0.13122511,-3.7235456,-3.2053585
2.142,13.99803,17.209265,4.8438716,0.03268683,-3.4994092,-3.2011771
2.144,13.718422,17.036037,4.7320433,0.19754016,-3.277267,-3.1948087
2.146,13.437826,16.863743,4.6114616,0.3630818,-3.057016,-3.1861725
2.148,13.156332,16.693066,4.4832134,0.5289935,-2.8387127,-3.1752424
2.15,12.875298,16.52442,4.3466773,0.6949047,-2.6225424,-3.162047
2.152,12.597506,16.357658,4.2008057,0.8604286,-2.4087908,-3.1466455
2.154,12.322239,16.193592,4.04747,1.0251555,-2.1978533,-3.1290805
2.156,12.047581,16.033611,3.888339,1.1887138,-1.9902388,-3.1094046
2.158,11.774844,15.877798,3.722868,1.3507638,-1.7864885,-3.0876644
2.16,11.50566,15.726254,3.5504854,1.5110123,-1.5871884,-3.0639267
2.162,11.240749,15.579071,3.3715405,1.6692078,-1.3929603,-3.0382514
2.164,10.980526,15.4361925,3.186395,1.8251393,-1.2043996,-3.0107114
2.166,10.725476,15.297796,2.995489,1.9786248,-1.0220699,-2.9813733
2.168,10.476065,15.163832,2.7992048,2.1294677,-0.8464577,-2.9503083
2.17,10.232778,15.034227,2.597756,2.27748,-0.6779909,-2.9176016
2.172,9.996304,14.908869,2.391516,2.422451,-0.51699257,-2.8833017
2.174,9.767172,14.787298,2.1806688,2.564139,-0.36370695,-2.847444
2.176,9.545765,14.669407,1.9655826,2.7022886,-0.21829605,-2.8100255
2.178,9.332514,14.554974,1.746618,2.8366206,-0.08080077,-2.7710142
2.18,9.1278305,14.443792,1.5239623,2.9668713,0.048803926,-2.73036
2.182,8.932213,14.335602,1.2980893,3.0927677,0.1705941,-2.6880221
2.184,8.745876,14.230313,1.0693204,3.214086,0.2847098,-2.6439533
2.186,8.569151,14.127782,0.83792734,3.3306456,0.39133954,-2.598102
2.188,8.402371,14.027867,0.60420656,3.4423275,0.4906932,-2.5504363
2.19,8.245728,13.930506,0.3685732,3.5490494,0.5829818,-2.5009449
2.192,8.099491,13.835625,0.13141489,3.6507998,0.6684123,-2.4496226
2.194,7.96346,13.743155,-0.10682702,3.7476163,0.74715376,-2.3964887
2.196,7.8379583,13.652941,-0.3456968,3.8395755,0.8193517,-2.3415856
2.198,7.723016,13.56522,-0.58474743,3.9267774,0.88511395,-2.2849941
2.2,7.618683,13.47969,-0.8234898,4.0093203,0.9444988,-2.2267983
2.202,7.5249786,13.396345,-1.0614398,4.0873203,0.9975375,-2.1671228
2.204,7.441655,13.315212,-1.2980461,4.1608753,1.0442386,-2.1061356
2.206,7.36885,13.23613,-1.5326266,4.230088,1.084581,-2.0440512
2.208,7.306399,13.159189,-1.764687,4.2950583,1.1185344,-1.9811608
2.21,7.2541056,13.08422,-1.9935772,4.355866,1.1460634,-1.9178103
2.212,7.211899,13.011024,-2.2185478,4.412623,1.1671301,-1.8543854
2.214,7.179506,12.9396105,-2.4390292,4.4654465,1.1817068,-1.7913159
2.216,7.1567273,12.869791,-2.654366,4.514452,1.1898072,-1.7290226
2.218,7.1432104,12.80134,-2.8639145,4.5597754,1.191463,-1.6679035
2.22,7.138711,12.734212,-3.0671985,4.6015587,1.186748,-1.6083158
2.222,7.142973,12.668218,-3.2637014,4.6399326,1.1758107,-1.5505095
2.224,7.155694,12.603255,-3.4527974,4.6750107,1.1588513,-1.494641
2.226,7.176656,12.539124,-3.6341686,4.7068887,1.136127,-1.4407594
2.228,7.205514,12.475879,-3.807385,4.735624,1.1079453,-1.3888001
2.23,7.242014,12.413436,-3.9721084,4.761243,1.0746399,-1.3386185
2.232,7.285658,12.351841,-4.128043,4.7837477,1.036517,-1.2900252
2.234,7.336425,12.291205,-4.274969,4.803109,0.99387145,-1.2428055
2.236,7.393812,12.231667,-4.412796,4.819277,0.9469476,-1.1967609
2.238,7.457737,12.173416,-4.5414367,4.8321886,0.8959235,-1.1517347
2.24,7.527791,12.11657,-4.660863,4.8417916,0.8409091,-1.1076388
2.242,7.603741,12.06145,-4.7711124,4.8480372,0.7819469,-1.0644497
2.244,7.685157,12.008273,-4.87225,4.850895,0.719012,-1.0222064
2.246,7.7719436,11.957203,-4.96432,4.850357,0.65203214,-0.98099494
2.248,7.863851,11.908492,-5.0476246,4.846426,0.5809033,-0.94092155
2.25,7.9606466,11.8624,-5.1223288,4.839137,0.50547266,-0.9021367
2.252,8.062129,11.819193,-5.1886783,4.828561,0.42558002,-0.86480486
2.254,8.168023,11.779156,-5.2468753,4.814794,0.3410859,-0.82910043
2.256,8.278069,11.742445,-5.29728,4.797958,0.2518716,-0.79522467
2.258,8.39212,11.709366,-5.3400955,4.7782173,0.15785146,-0.76336133
2.26,8.509941,11.680003,-5.375621,4.7557383,0.059013605,-0.7336974
2.262,8.631258,11.654489,-5.40419,4.7307334,-0.044594288,-0.7064012
2.264,8.755853,11.632954,-5.426326,4.7034426,-0.15284896,-0.6816069
2.266,8.883614,11.615532,-5.4424477,4.674107,-0.26553845,-0.6594423
2.268,9.014391,11.602243,-5.453124,4.642996,-0.38238072,-0.63997704
2.27,9.147969,11.593038,-5.4586954,4.6103883,-0.5030341,-0.6232527
2.272,9.284073,11.587976,-5.459781,4.5765743,-0.6271193,-0.6092402
2.274,9.422603,11.58707,-5.4568906,4.541814,-0.754231,-0.5978617
2.276,9.563439,11.590166,-5.450743,4.506367,-0.883983,-0.5890041
2.278,9.706609,11.597162,-5.4419727,4.4704485,-1.0159969,-0.58249825
2.28,9.851809,11.607918,-5.431148,4.434248,-1.1499336,-0.57815635
2.282,9.998777,11.62227,-5.4190316,4.397888,-1.2855027,-0.575783
2.284,10.147413,11.640162,-5.4062285,4.3614397,-1.4224825,-0.5751905
2.286,10.297565,11.661154,-5.3934054,4.3249025,-1.5606956,-0.5762333
2.288,10.449091,11.685077,-5.381127,4.288225,-1.7000406,-0.578789
2.29,10.601814,11.7114725,-5.369896,4.251322,-1.8404521,-0.58277655
2.292,10.755441,11.740072,-5.3603053,4.2140346,-1.9819125,-0.5881803
2.294,10.909774,11.770458,-5.3527174,4.1762114,-2.1244323,-0.59501505
2.296,11.064568,11.802215,-5.3475466,4.1376853,-2.2680402,-0.6033197
2.298,11.21958,11.834814,-5.3451347,4.098298,-2.412784,-0.6131571
2.3,11.374431,11.867756,-5.3455186,4.057894,-2.5587392,-0.6246075
2.302,11.528667,11.9006405,-5.348909,4.0163703,-2.7059631,-0.63774914
2.304,11.681978,11.932951,-5.3552003,3.973648,-2.8545082,-0.6526482
2.306,11.833781,11.964342,-5.3643227,3.9296606,-3.004418,-0.6693668
2.308,11.983464,11.994102,-5.375977,3.8843825,-3.1557164,-0.6879655
2.31,12.130509,12.022024,-5.38992,3.8378155,-3.3083816,-0.7084572
2.312,12.274315,12.047512,-5.40581,3.7899961,-3.4623466,-0.73086303
2.314,12.414233,12.070125,-5.4231567,3.7410028,-3.6174927,-0.7551718
2.316,12.549616,12.089444,-5.4414625,3.6909528,-3.7736337,-0.7813462
2.318,12.679896,12.1050415,-5.4602146,3.639998,-3.9305172,-0.8093331
2.32,12.804315,12.116548,-5.4786577,3.588348,-4.0878534,-0.83906066
2.322,12.922189,12.123582,-5.4963136,3.536234,-4.2452917,-0.8704534
2.324,13.032999,12.125773,-5.5124288,3.4839468,-4.4024205,-0.90343547
2.326,13.136132,12.122896,-5.5264516,3.43178,-4.558779,-0.93794584
2.328,13.231038,12.114724,-5.5375805,3.380063,-4.7138724,-0.9739192
2.33,13.317276,12.100903,-5.5452356,3.3291078,-4.867178,-1.0112963
2.332,13.394288,12.0813465,-5.548629,3.2792327,-5.0181494,-1.0500144
2.334,13.461769,12.055904,-5.5472665,3.2307374,-5.166249,-1.0899993
2.336,13.519358,12.024562,-5.5404935,3.183921,-5.310921,-1.1311525
2.338,13.566807,11.987282,-5.5278163,3.1390758,-5.451625,-1.1733431
2.34,13.603909,11.944245,-5.50867,3.0964928,-5.5878434,-1.2163802
2.342,13.630842,11.895477,-5.4825764,3.0564327,-5.7190967,-1.260046
2.344,13.647392,11.8411255,-5.4490585,3.0191574,-5.8449483,-1.304049
2.346,13.653727,11.781523,-5.407761,2.9849262,-5.96501,-1.3480362
2.348,13.649709,11.716871,-5.3581896,2.9539618,-6.078948,-1.3916122
2.35,13.635641,11.647643,-5.300036,2.926485,-6.1864657,-1.4343405
2.352,13.611888,11.574125,-5.233056,2.9026823,-6.287314,-1.4757671
2.354,13.578648,11.496863,-5.156993,2.8827214,-6.381295,-1.5154347
2.356,13.536173,11.416396,-5.0717535,2.8667188,-6.4682755,-1.5528882
2.358,13.484777,11.333254,-4.9770384,2.8547642,-6.5481586,-1.5877147
2.36,13.424816,11.247989,-4.8727436,2.8469272,-6.620899,-1.6195446
2.362,13.356651,11.161093,-4.758848,2.843227,-6.6864896,-1.64807
2.364,13.280587,11.073122,-4.6353254,2.843641,-6.744949,-1.6730232
2.366,13.197061,10.984623,-4.502189,2.8481143,-6.7963543,-1.6942214
2.368,13.106384,10.896012,-4.3594675,2.8565652,-6.8407845,-1.7115195
2.37,13.008759,10.807966,-4.207165,2.868894,-6.8783417,-1.7248294
2.372,12.904693,10.720784,-4.0453987,2.884984,-6.909138,-1.7341028
2.374,12.794304,10.634923,-3.8740985,2.9047036,-6.9332743,-1.7393222
2.376,12.677713,10.550785,-3.6934114,2.9279401,-6.9508758,-1.7405398
2.378,12.5550785,10.468641,-3.5032856,2.9545724,-6.962036,-1.7378037
2.38,12.426651,10.388794,-3.3038342,2.9845142,-6.9668446,-1.7312219
2.382,12.292236,10.311357,-3.0950513,3.017724,-6.965378,-1.7209148
2.384,12.15181,10.236584,-2.8769834,3.0541773,-6.9576807,-1.7070153
2.386,12.005268,10.164594,-2.6496227,3.0938847,-6.9437933,-1.6896784
2.388,11.852356,10.09559,-2.413061,3.136867,-6.9237375,-1.6690423
2.39,11.69298,10.029696,-2.167324,3.1831498,-6.8975244,-1.6452371
2.392,11.526723,9.966881,-1.9123145,3.232808,-6.8651314,-1.6183631
2.394,11.353549,9.907251,-1.6480726,3.28591,-6.8265047,-1.5884868
2.396,11.172924,9.850777,-1.3743657,3.3425407,-6.781561,-1.5556384
2.398,10.984424,9.797422,-1.0911767,3.4027743,-6.730191,-1.5197904
2.4,10.787661,9.747225,-0.79847634,3.4666982,-6.6722517,-1.4808717
2.402,10.58213,9.700138,-0.4961428,3.5343652,-6.607565,-1.4387562
2.404,10.367329,9.656325,-0.1839948,3.6058254,-6.5359488,-1.3932889
2.406,10.142659,9.615873,0.13799715,3.6811023,-6.457198,-1.3442736
2.408,9.90779,9.578927,0.4700048,3.7601762,-6.371131,-1.2915356
2.41,9.662412,9.545455,0.8119646,3.843018,-6.277548,-1.2349005
2.412,9.40656,9.515207,1.1640831,3.9295497,-6.17629,-1.1741862
2.414,9.140041,9.4881525,1.5262562,4.019661,-6.067214,-1.1092472
2.416,8.862737,9.464087,1.8984317,4.1132174,-5.950214,-1.0399365
2.418,8.574519,9.443099,2.2804918,4.2100487,-5.8252363,-0.966153
2.42,8.2753,9.425144,2.6723897,4.3099756,-5.6922445,-0.88777673
2.422,7.965193,9.410154,3.0737493,4.412783,-5.5512214,-0.8047341
2.424,7.6448607,9.397941,3.484036,4.5182323,-5.402186,-0.7169554
2.426,7.3146544,9.38808,3.902705,4.6260896,-5.2451444,-0.6243633
2.428,6.9756246,9.380223,4.3289795,4.7360945,-5.0801053,-0.52687824
2.43,6.6284695,9.373886,4.761837,4.848005,-4.907061,-0.42442065
2.432,6.274383,9.368415,5.2002134,4.9615564,-4.726025,-0.3169434
2.434,5.9146256,9.36295,5.6425843,5.07649,-4.5370173,-0.20438367
2.436,5.5509043,9.356557,6.0874176,5.192513,-4.3400564,-0.08673501
2.438,5.1847534,9.3485155,6.5327888,5.309346,-4.1352196,0.03595841
2.44,4.817881,9.33804,6.9767127,5.426706,-3.9226074,0.16363811
2.442,4.4523954,9.324068,7.4168596,5.5442686,-3.7023811,0.29617393
2.444,4.0903573,9.305563,7.850894,5.661688,-3.474798,0.4334066
2.446,3.734078,9.281319,8.276111,5.77856,-3.2402477,0.5751061
2.448,3.3857749,9.250258,8.689965,5.894451,-2.999216,0.7209793
2.45,3.0476034,9.211435,9.089717,6.008889,-2.7522948,0.87065524
2.452,2.7210565,9.164288,9.472453,6.1213713,-2.5001836,1.0236907
2.454,2.4085855,9.108007,9.835633,6.231348,-2.2436614,1.1795783
2.456,2.1121426,9.04199,10.17679,6.3382845,-1.9835727,1.3378253
2.458,1.8333874,8.965914,10.493423,6.441598,-1.7208238,1.4979374
2.46,1.5740213,8.879333,10.783388,6.540713,-1.4563355,1.6594598
2.462,1.3349247,8.782131,11.044893,6.6350517,-1.19098,1.8220302
2.464,1.1170115,8.673948,11.275913,6.724044,-0.925576,1.9853884
2.466,0.9200187,8.555968,11.475205,6.807143,-0.66088915,2.1493335
2.468,0.74349165,8.429194,11.64179,6.88383,-0.397619,2.3137233
2.47,0.5870433,8.294609,11.774946,6.9536247,-0.13635612,2.4784331
2.472,0.44938326,8.153807,11.87447,7.016109,0.12244487,2.6433496
2.474,0.32903194,8.00852,11.940207,7.0709696,0.37843108,2.808337
2.476,0.22404528,7.8607135,11.972673,7.1179786,0.63133097,2.9732523
2.478,0.13205743,7.712533,11.972453,7.1569805,0.8809664,3.1379178
2.48,0.05072117,7.5661983,11.94059,7.187887,1.1271644,3.3020966
2.482,-0.022723436,7.424056,11.878269,7.210676,1.3697083,3.4653943
2.484,-0.091305256,7.288537,11.786909,7.2253113,1.6083336,3.6272864
2.486,-0.15782118,7.1618204,11.667982,7.2317247,1.8426268,3.787101
2.488,-0.22519565,7.04622,11.523138,7.2298546,2.072062,3.9439583
2.49,-0.29641843,6.9437237,11.354259,7.219617,2.2959106,4.0967774
2.492,-0.37391758,6.8561134,11.163161,7.200843,2.513233,4.244302
2.494,-0.46032596,6.785021,10.951808,7.1732435,2.7227616,4.385139
2.496,-0.5578046,6.731697,10.722174,7.136488,2.9230704,4.5178237
2.498,-0.6681936,6.697027,10.476334,7.0902333,3.1127105,4.6408415
2.5,-0.793257,6.681753,10.21645,7.0341163,3.2902017,4.7528005
2.502,-0.9342127,6.6863823,9.944453,6.967799,3.4541311,4.8525796
2.504,-1.0924044,6.7109737,9.662818,6.890979,3.6032186,4.939429
2.506,-1.2682664,6.7555127,9.373655,6.8034053,3.7363787,5.0130806
2.508,-1.4622874,6.8196774,9.0794935,6.704901,3.8527794,5.0737834
2.51,-1.6748805,6.903113,8.782844,6.5953827,3.9518638,5.1223106
2.512,-1.906007,7.0052366,8.486148,6.474879,4.033367,5.159894
2.514,-2.15434,7.1249886,8.191036,6.343526,4.0972548,5.188167
2.516,-2.4184968,7.26096,7.9,6.2016096,4.1437407,5.2089734
2.518,-2.6992116,7.4127235,7.616679,6.0495553,4.1732497,5.224192
2.52,-2.9967158,7.579952,7.343596,5.8879795,4.1864843,5.235627
2.522,-3.309797,7.76157,7.082874,5.7176814,4.18438,5.2448626
2.524,-3.6368353,7.9561243,6.837148,5.5396547,4.16811,5.253144
2.526,-3.9767303,8.16234,6.6087003,5.355045,4.139029,5.2613153
2.528,-4.328537,8.378992,6.3998394,5.1651335,4.0987673,5.269832
2.53,-4.6912756,8.604666,6.2124343,4.9713254,4.049161,5.278775
2.532,-5.0639105,8.838143,6.048086,4.7750974,3.9922543,5.287941
2.534,-5.4455376,9.077936,5.9079638,4.5779195,3.93027,5.2969685
2.536,-5.83498,9.322833,5.7927465,4.3812327,3.8655891,5.3055024
2.538,-6.2319374,9.571648,5.703092,4.1864576,3.800679,5.3131976
2.54,-6.6356363,9.823444,5.639147,3.9949145,3.7380824,5.319788
2.542,-7.0456276,10.077221,5.6006575,3.8077571,3.6803493,5.325116
2.544,-7.4615974,10.332079,5.587161,3.6259832,3.629871,5.3291874
2.546,-7.883079,10.587018,5.5970707,3.4503937,3.588671,5.3322096
2.548,-8.310071,10.840655,5.628977,3.2816172,3.5586023,5.3345094
2.55,-8.742464,11.092369,5.681159,3.1202397,3.5414171,5.3365984
2.552,-9.179567,11.341309,5.750934,2.9667194,3.5385313,5.339163
2.554,-9.62159,11.587509,5.835724,2.8213527,3.5509179,5.342967
2.556,-10.069219,11.830601,5.932869,2.684322,3.5791209,5.3487897
2.558,-10.522001,12.070595,6.0390596,2.5557678,3.6234243,5.3573604
2.56,-10.980068,12.30735,6.150933,2.4358344,3.6839802,5.3692555
2.562,-11.4428425,12.5408325,6.2649274,2.3246696,3.7608845,5.384863
2.564,-11.910497,12.771547,6.3767657,2.2224336,3.85431,5.404393
2.566,-12.382439,13.000076,6.4820747,2.1293783,3.964605,5.42789
2.568,-12.857952,13.227084,6.5762563,2.0458596,4.0924807,5.455206
2.57,-13.335974,13.453337,6.654574,1.9723209,4.239025,5.486053
2.572,-13.815218,13.6798725,6.7122755,1.9092656,4.405684,5.520097
2.574,-14.293516,13.907738,6.744627,1.8572423,4.5941124,5.557017
2.576,-14.768392,14.136847,6.7460384,1.8167305,4.805938,5.5965805
2.578,-15.23746,14.367619,6.7114673,1.7880526,5.042494,5.6387773
2.58,-15.6985,14.601116,6.6358147,1.7713811,5.304644,5.6838923
2.582,-16.148506,14.837866,6.51408,1.76654,5.5923586,5.732287
2.584,-16.58461,15.078554,6.3418427,1.7729287,5.9045706,5.784366
2.586,-17.003933,15.323788,6.1147447,1.7895191,6.2392154,5.840407
2.588,-17.403616,15.57416,5.8289895,1.8148017,6.5931377,5.900485
2.59,-17.780537,15.8298,5.4813147,1.8467836,6.9621997,5.9642982
2.592,-18.13215,16.091095,5.0689244,1.8830425,7.3414345,6.0310755
2.594,-18.455688,16.358408,4.5901766,1.9208515,7.725098,6.0996
2.596,-18.748716,16.631714,4.04484,1.9572785,8.106943,6.1682825
2.598,-19.008844,16.910831,3.4330072,1.9893165,8.480477,6.23516
2.6,-19.234135,17.195452,2.7555184,2.0140486,8.83917,6.298025
2.602,-19.423292,17.48531,2.0143204,2.0287228,9.17644,6.3545675
2.604,-19.575033,17.779308,1.2122536,2.0307636,9.485771,6.402466
2.606,-19.688545,18.0766,0.3534994,2.0180306,9.761324,6.439528
2.608,-19.763132,18.37597,-0.55730677,1.9889112,9.998228,6.4637594
2.61,-19.79845,18.6759,-1.5149217,1.9423035,10.192627,6.473405
2.612,-19.794436,18.974789,-2.5132093,1.8775907,10.341648,6.466922
2.614,-19.751091,19.270878,-3.5457935,1.7946222,10.443548,6.4430456
2.616,-19.668615,19.561693,-4.606039,1.6937186,10.497724,6.4007187
2.618,-19.547716,19.844921,-5.686848,1.5756185,10.504635,6.339082
2.62,-19.389019,20.118029,-6.78093,1.4414207,10.465644,6.257446
2.622,-19.1935,20.37804,-7.8810816,1.2924718,10.382733,6.155422
2.624,-18.96322,20.622469,-8.979401,1.1303035,10.258305,6.0329456
2.626,-18.699902,20.848915,-10.06897,0.95660365,10.095059,5.890167
2.628,-18.403557,21.054146,-11.144448,0.7731526,9.895884,5.7274613
2.63,-18.074858,21.2348,-12.199619,0.58178973,9.663741,5.5454054
2.632,-17.716766,21.388922,-13.228178,0.3843155,9.401571,5.344746
2.634,-17.331974,21.514671,-14.224613,0.18237817,9.11213,5.126388
2.636,-16.92239,21.610268,-15.183888,-0.022437572,8.798206,4.891598
2.638,-16.490221,21.674255,-16.10157,-0.22864175,8.462578,4.641883
2.64,-16.037807,21.705456,-16.973362,-0.43493283,8.107907,4.37904
2.642,-15.568145,21.70348,-17.795273,-0.6401404,7.736856,4.1051316
2.644,-15.084166,21.66838,-18.564,-0.8432417,7.352083,3.8225265
2.646,-14.588838,21.600496,-19.276674,-1.0434403,6.95615,3.5339012
2.648,-14.084859,21.50034,-19.931183,-1.2400932,6.551646,3.2421753
2.65,-13.575239,21.36904,-20.525848,-1.4326737,6.1411047,2.9504128
2.652,-13.063057,21.208366,-21.059359,-1.6207901,5.726946,2.6617484
2.654,-12.551406,21.020317,-21.530855,-1.8041129,5.3114123,2.3792453
2.656,-12.043484,20.807438,-21.939505,-1.982338,4.896557,2.1057694
2.658,-11.541933,20.57266,-22.285507,-2.1551816,4.4841986,1.8437033
2.66,-11.049747,20.318626,-22.569407,-2.3223543,4.0757527,1.5948749
2.662,-10.57002,20.048458,-22.79159,-2.4835079,3.6723714,1.3604347
2.664,-10.104836,19.764652,-22.953371,-2.6382096,3.2750561,1.1408209
2.666,-9.655808,19.470531,-23.05645,-2.7859876,2.8845758,0.935796
2.668,-9.225341,19.168882,-23.102612,-2.92635,2.5014837,0.7444875
2.67,-8.81483,18.86248,-23.094013,-3.0588338,2.1262617,0.56555516
2.672,-8.425796,18.553988,-23.032904,-3.1830335,1.7593651,0.39733154
2.674,-8.059427,18.245737,-22.921694,-3.2986572,1.4013073,0.23800877
2.676,-7.716572,17.939903,-22.762814,-3.405509,1.0527004,0.08579689
2.678,-7.3978863,17.63852,-22.558828,-3.5035381,0.7142625,-0.060926527
2.68,-7.1038885,17.343319,-22.312578,-3.592842,0.3867873,-0.20340222
2.682,-6.834447,17.05571,-22.026957,-3.673658,0.07116628,-0.34248
2.684,-6.589862,16.777103,-21.70464,-3.7462993,-0.23162532,-0.47862512
2.686,-6.3695803,16.508652,-21.348156,-3.8111024,-0.5205265,-0.61198616
2.688,-6.1731186,16.251389,-20.960299,-3.868403,-0.79444563,-0.742427
2.69,-5.9996357,16.005747,-20.54384,-3.91854,-1.0523604,-0.8696342
2.692,-5.8483973,15.772268,-20.101284,-3.9618173,-1.2934042,-0.9931409
2.694,-5.7183933,15.551449,-19.63541,-3.9985194,-1.5168146,-1.1124012
2.696,-5.608552,15.343462,-19.148561,-4.0288863,-1.7219706,-1.226897
2.698,-5.517616,15.148478,-18.643312,-4.053153,-1.9084469,-1.3361355
2.7,-5.4446225,14.966789,-18.121971,-4.0714784,-2.0759408,-1.4396893
2.702,-5.38806,14.7984,-17.586613,-4.0840445,-2.2243693,-1.5372642
2.704,-5.346522,14.64286,-17.039738,-4.0910635,-2.353873,-1.6286315
2.706,-5.318883,14.500175,-16.484035,-4.09274,-2.4647422,-1.7136964
2.708,-5.3040547,14.370219,-15.921466,-4.0892887,-2.557384,-1.7924849
2.71,-5.300408,14.25265,-15.353937,-4.0809298,-2.6323829,-1.8651087
2.712,-5.3064218,14.146922,-14.783371,-4.0678744,-2.6903977,-1.9317061
2.714,-5.3207455,14.052922,-14.211589,-4.0502815,-2.7320464,-1.9925001
2.716,-5.34209,13.970168,-13.640737,-4.028309,-2.7580268,-2.047726
2.718,-5.369221,13.898253,-13.072491,-4.0021467,-2.769138,-2.097616
2.72,-5.400819,13.836469,-12.508314,-3.97194,-2.7661152,-2.1423764
2.722,-5.4357333,13.784266,-11.949686,-3.937784,-2.7496257,-2.1822033
2.724,-5.472807,13.740993,-11.397985,-3.8997602,-2.720363,-2.2172794
2.726,-5.511097,13.706411,-10.854347,-3.8579273,-2.6789386,-2.2477586
2.728,-5.549357,13.679894,-10.320081,-3.8123012,-2.6258996,-2.2737842
2.73,-5.586538,13.660905,-9.796436,-3.7628777,-2.5617232,-2.2955258
2.732,-5.6215587,13.649155,-9.284445,-3.709615,-2.4868143,-2.3131752
2.734,-5.653498,13.644226,-8.785223,-3.6524768,-2.4015229,-2.326967
2.736,-5.681645,13.645841,-8.299781,-3.5914145,-2.3061614,-2.3371396
2.738,-5.705276,13.653567,-7.828783,-3.5263662,-2.200982,-2.3439004
2.74,-5.7240252,13.667418,-7.3727064,-3.457263,-2.0861788,-2.3474443
2.742,-5.7370577,13.687074,-6.932391,-3.3840332,-1.9619339,-2.3479338
2.744,-5.743938,13.712349,-6.5087895,-3.3065917,-1.8283944,-2.34549
2.746,-5.7443447,13.743015,-6.1025505,-3.2248826,-1.6856987,-2.3401947
2.748,-5.737799,13.778801,-5.7144947,-3.1388278,-1.5340234,-2.3320887
2.75,-5.7241406,13.81963,-5.345421,-3.048363,-1.373578,-2.3211823
2.752,-5.703135,13.865353,-4.9961205,-2.9534137,-1.204653,-2.3074791
2.754,-5.674747,13.915983,-4.667198,-2.8539479,-1.027632,-2.2910058
2.756,-5.6389904,13.971364,-4.35922,-2.7499528,-0.8430387,-2.2718163
2.758,-5.59596,14.031561,-4.0727606,-2.6414616,-0.65150416,-2.2500443
2.76,-5.5456123,14.096399,-3.80828,-2.5285625,-0.4538082,-2.22589
2.762,-5.4881916,14.165569,-3.5661738,-2.4114268,-0.25084817,-2.1996667
2.764,-5.423885,14.238781,-3.3468215,-2.2902925,-0.043614417,-2.1717858
2.766,-5.3529267,14.315666,-3.1503952,-2.1654782,0.16683692,-2.1428003
2.768,-5.2755294,14.395639,-2.9769835,-2.0373623,0.37940192,-2.1133502
2.77,-5.1920547,14.478163,-2.8267071,-1.9063946,0.5929933,-2.0841775
2.772,-5.102911,14.562489,-2.6995265,-1.7730734,0.8065815,-2.0560665
2.774,-5.0084124,14.647896,-2.5952635,-1.6379266,1.0192506,-2.0298226
2.776,-4.9088697,14.733263,-2.5138056,-1.501496,1.2302004,-2.0062118
2.778,-4.804567,14.817627,-2.4548352,-1.3642852,1.4387897,-1.985953
2.78,-4.6959457,14.899972,-2.4179854,-1.2267175,1.6445158,-1.969676
2.782,-4.5832505,14.979,-2.402834,-1.0891223,1.8470604,-1.9578912
2.784,-4.4668813,15.053478,-2.4088492,-0.95168674,2.0462832,-1.9510002
2.786,-4.3472314,15.12217,-2.4356968,-0.81444854,2.2421947,-1.9492522
2.788,-4.2245574,15.183766,-2.4828823,-0.6773072,2.4349246,-1.9527497
2.79,-4.0992675,15.237215,-2.5498552,-0.5400427,2.6246796,-1.9614573
2.792,-3.971506,15.281254,-2.6361365,-0.40238184,2.8116968,-1.9752076
2.794,-3.8417978,15.314877,-2.7412615,-0.2640227,2.996191,-1.993663
2.796,-3.7103353,15.337341,-2.864502,-0.12472534,3.1783352,-2.0163748
2.798,-3.5775108,15.348055,-3.005581,0.015643835,3.3581824,-2.0427575
2.8,-3.4431424,15.346291,-3.163881,0.15703952,3.5356252,-2.0721657
2.802,-3.3076487,15.331689,-3.33879,0.2991897,3.7103906,-2.1039073
2.804,-3.1714644,15.304074,-3.5295334,0.4416055,3.8820477,-2.1372492
2.806,-3.0347052,15.263584,-3.7354903,0.5835775,4.050004,-2.171468
2.808,-2.8975372,15.210424,-3.9558825,0.72423804,4.2135115,-2.2058744
2.81,-2.7603502,15.144909,-4.1897964,0.8625909,4.3717103,-2.2398617
2.812,-2.623392,15.067425,-4.4362426,0.99761283,4.5236425,-2.2729263
2.814,-2.4869332,14.978604,-4.6942406,1.1282765,4.6683393,-2.3046792
2.816,-2.3513322,14.879167,-4.962436,1.2536347,4.804802,-2.3348148
2.818,-2.2168965,14.769881,-5.2396193,1.372858,4.932118,-2.3631382
2.82,-2.083898,14.65166,-5.5243735,1.4852756,5.0494704,-2.3895044
2.822,-1.9527292,14.525431,-5.8152723,1.5903692,5.1561575,-2.4138596
2.824,-1.8235464,14.392093,-6.1107817,1.6877756,5.2515798,-2.4361992
2.826,-1.6964908,14.252543,-6.4091797,1.7772698,5.3353024,-2.456601
2.828,-1.5718503,14.107784,-6.7088137,1.8587182,5.4070497,-2.4752195
2.83,-1.4497199,13.95892,-7.0081058,1.9319913,5.4666038,-2.4922664
2.832,-1.3301344,13.80688,-7.3054914,1.9969515,5.5137997,-2.507903
2.834,-1.2132037,13.652659,-7.5992765,2.053462,5.5486174,-2.5222635
2.836,-1.0986817,13.497169,-7.887888,2.1013541,5.571127,-2.5354447
2.838,-0.98652864,13.341162,-8.169802,2.1404214,5.5814433,-2.547465
2.84,-0.87656665,13.185488,-8.443598,2.1704383,5.579732,-2.5582871
2.842,-0.76861024,13.030836,-8.70803,2.1911597,5.5661798,-2.56779
2.844,-0.66242933,12.877638,-8.961977,2.2023544,5.5409784,-2.5757906
2.846,-0.55756736,12.726306,-9.204382,2.2038345,5.5043273,-2.5820909
2.848,-0.45377254,12.577278,-9.434456,2.1954446,5.4564085,-2.5864832
2.85,-0.35094237,12.430933,-9.651401,2.1771107,5.3973846,-2.5888214
2.852,-0.24866652,12.287333,-9.854645,2.1488283,5.327388,-2.589091
2.854,-0.14663577,12.146459,-10.043593,2.1106606,5.246501,-2.5874002
2.856,-0.044719458,12.00821,-10.217708,2.0627594,5.1547894,-2.5839589
2.858,0.057082176,11.8723345,-10.376468,2.0053263,5.0522866,-2.5791376
2.86,0.15898275,11.738643,-10.5196,1.9386293,4.9390426,-2.5734057
2.862,0.26105022,11.606576,-10.646779,1.8630003,4.8151484,-2.5673075
2.864,0.36326623,11.4756365,-10.757914,1.7788363,4.6807623,-2.5613549
2.866,0.46554232,11.345446,-10.852888,1.6865686,4.5360875,-2.5560064
2.868,0.5676949,11.215464,-10.931846,1.586704,4.3814354,-2.551603
2.87,0.66958714,11.085202,-10.9948015,1.4798024,4.2172623,-2.5483754
2.872,0.77114534,10.95421,-11.042048,1.366472,4.044118,-2.5463908
2.874,0.8721533,10.822194,-11.073943,1.2473638,3.8627012,-2.545561
2.876,0.9723382,10.688801,-11.090902,1.1231833,3.6738627,-2.5456557
2.878,1.0714107,10.553787,-11.093419,0.99466753,3.4785726,-2.5463538
2.88,1.1694702,10.416913,-11.081926,0.86255836,3.2778668,-2.5472453
2.882,1.2660844,10.27828,-11.057208,0.72761345,3.0728238,-2.5478666
2.884,1.3610518,10.137853,-11.01993,0.59060174,2.8646255,-2.5478082
2.886,1.4541703,9.995793,-10.970752,0.4522338,2.6544359,-2.546744
2.888,1.5451844,9.852416,-10.91055,0.31313282,2.4432912,-2.5444188
2.89,1.6339608,9.707982,-10.840224,0.17389026,2.2321594,-2.540627
2.892,1.7204671,9.562954,-10.760545,0.03504339,2.0219777,-2.53523
2.894,1.8045208,9.41785,-10.672502,-0.102917016,1.8135691,-2.528163
2.896,1.8859041,9.273256,-10.576828,-0.23952925,1.6076984,-2.5194278
2.898,1.9645995,9.129678,-10.474447,-0.3743646,1.405031,-2.5090585
2.9,2.0404503,8.987718,-10.366085,-0.507038,1.206161,-2.4971032
2.902,2.113229,8.84793,-10.252619,-0.6371632,1.0116118,-2.483624
2.904,2.1829333,8.711029,-10.134665,-0.7643975,0.8218609,-2.468673
2.906,2.2492814,8.577351,-10.012996,-0.8884135,0.63734406,-2.4522638
2.908,2.312328,8.447358,-9.888139,-1.0089033,0.45847577,-2.434426
2.91,2.3713448,8.321839,-9.760534,-1.1255964,0.28562528,-2.4152002
2.912,2.4265604,8.201175,-9.630741,-1.238255,0.11916071,-2.3945937
2.914,2.4779227,8.085682,-9.499157,-1.3466601,-0.0405865,-2.3726025
2.916,2.5252512,7.975632,-9.366261,-1.4506321,-0.19329944,-2.349195
2.918,2.5683846,7.8713207,-9.232163,-1.5500122,-0.3386886,-2.3243623
2.92,2.6074328,7.773155,-9.097162,-1.644654,-0.47645718,-2.298084
2.922,2.642116,7.6813955,-8.961363,-1.7344255,-0.60635847,-2.2703516
2.924,2.6725392,7.596389,-8.824878,-1.8192085,-0.72820437,-2.241149
2.926,2.6987877,7.518203,-8.687928,-1.8989035,-0.8418268,-2.210487
2.928,2.721038,7.446954,-8.550557,-1.9734241,-0.9471075,-2.1783888
2.93,2.7392018,7.3827863,-8.412628,-2.0427153,-1.0439758,-2.144885
2.932,2.753603,7.3257422,-8.274195,-2.1067338,-1.1323671,-2.110003
2.934,2.764268,7.27586,-8.1353245,-2.1654549,-1.2122617,-2.073778
2.936,2.7714467,7.23321,-7.9960265,-2.2189019,-1.283678,-2.0362473
2.938,2.775439,7.1975555,-7.856304,-2.2670996,-1.3466667,-1.9974287
2.94,2.7764874,7.168866,-7.7161493,-2.3100853,-1.4012991,-1.9573587
2.942,2.7748864,7.1469655,-7.5755215,-2.3479137,-1.4476962,-1.9160793
2.944,2.7709477,7.131592,-7.4344993,-2.3806584,-1.4859992,-1.8736396
2.946,2.7649734,7.122495,-7.293131,-2.408395,-1.5164126,-1.8301
2.948,2.7573605,7.119492,-7.1514916,-2.4312196,-1.5391523,-1.7855552
2.95,2.7484198,7.1221156,-7.009582,-2.449238,-1.5544839,-1.7401049
2.952,2.7383313,7.130147,-6.867487,-2.4625633,-1.562667,-1.6938713
2.954,2.7276878,7.1432185,-6.725348,-2.471313,-1.5639915,-1.6469914
2.956,2.716694,7.1609297,-6.583351,-2.4756074,-1.5587245,-1.599615
2.958,2.705648,7.1828294,-6.44165,-2.4755743,-1.54713,-1.5518777
2.96,2.6948855,7.208443,-6.300432,-2.4713438,-1.529454,-1.5039428
2.962,2.6845124,7.237364,-6.1598525,-2.4630535,-1.5059345,-1.4559474
2.964,2.674857,7.2692122,-6.020261,-2.4508495,-1.4767907,-1.4080168
2.966,2.6661198,7.303584,-5.881874,-2.4348629,-1.4422548,-1.3602747
2.968,2.6586215,7.3399568,-5.7450037,-2.415239,-1.4025311,-1.3128124
2.97,2.652476,7.3778596,-5.609861,-2.392112,-1.357843,-1.2657151
2.972,2.64788,7.4170175,-5.476655,-2.365593,-1.3083977,-1.219054
2.974,2.6449733,7.457078,-5.3455625,-2.3357942,-1.2544371,-1.172883
2.976,2.6439574,7.4976144,-5.2169056,-2.3028276,-1.1961942,-1.1272475
2.978,2.6449587,7.538347,-5.090726,-2.26678,-1.1338989,-1.0821815
2.98,2.6480699,7.578926,-4.9674454,-2.2277334,-1.067789,-1.0377046
2.982,2.6534328,7.619174,-4.8471646,-2.1857696,-0.9981061,-0.99383694
2.984,2.661079,7.658818,-4.730075,-2.1409705,-0.9250894,-0.95060235
2.986,2.6711364,7.6977253,-4.616318,-2.0934057,-0.84897316,-0.90801644
2.988,2.6838255,7.7357693,-4.506166,-2.043164,-0.76998115,-0.86610603
2.99,2.6990242,7.772855,-4.3998165,-1.9903228,-0.6883302,-0.8248979
2.992,2.7170577,7.8087626,-4.2973566,-1.9349816,-0.6042207,-0.7844192
2.994,2.737962,7.8435364,-4.1989746,-1.8772441,-0.5178395,-0.74468887
2.996,2.7618759,7.877192,-4.104921,-1.817223,-0.4293595,-0.70573395
2.998,2.788835,7.909592,-4.0152936,-1.7550355,-0.33894107,-0.6675691
3,2.8189607,7.9408402,-3.930268,-1.6908187,-0.24670757,-0.6302019
3.002,2.8522997,7.9710183,-3.8502052,-1.6247082,-0.15279874,-0.59361863
3.004,2.8888667,8.000111,-3.7750793,-1.5568532,-0.057339564,-0.5578071
3.006,2.9287903,8.028156,-3.7052472,-1.4874157,0.039529547,-0.5227381
3.008,2.9721088,8.055181,-3.6408079,-1.4165586,0.13766117,-0.48838896
3.01,3.0188758,8.0811615,-3.5820417,-1.3444556,0.2368914,-0.45473868
3.012,3.0691235,8.106296,-3.5290785,-1.2712884,0.3370329,-0.42177895
3.014,3.1229005,8.130414,-3.4821417,-1.1972394,0.43788272,-0.38949975
3.016,3.1800613,8.153662,-3.4414365,-1.1224946,0.53921163,-0.35791638
3.018,3.2406178,8.176039,-3.406969,-1.0472449,0.64077693,-0.32706124
3.02,3.3046093,8.197452,-3.378951,-0.9716976,0.7423108,-0.29696885
3.022,3.3718774,8.217884,-3.3575237,-0.8960502,0.84353733,-0.26769498
3.024,3.4424288,8.237236,-3.3427656,-0.8205084,0.944165,-0.23929301
3.026,3.5159197,8.255556,-3.3346086,-0.7453073,1.0438713,-0.21180317
3.028,3.5923681,8.272662,-3.3330898,-0.67065454,1.1423296,-0.18526816
3.03,3.6715217,8.288268,-3.338331,-0.59676665,1.2392167,-0.15973115
3.032,3.7533154,8.302364,-3.3501832,-0.5238751,1.3342,-0.13522825
3.034,3.8374984,8.3146715,-3.3685548,-0.45220467,1.4269539,-0.111775264
3.036,3.923743,8.325039,-3.3932528,-0.38197705,1.5171425,-0.08938876
3.038,4.0118117,8.333263,-3.42409,-0.31342864,1.6044428,-0.06807942
3.04,4.1015058,8.3391075,-3.4609728,-0.24679182,1.688519,-0.04785823
3.042,4.1924624,8.342427,-3.5035295,-0.18228462,1.7690564,-0.028746448
3.044,4.2844186,8.343074,-3.551618,-0.120131515,1.8457576,-0.010768257
3.046,4.377023,8.34082,-3.6049106,-0.060540836,1.9183513,0.006052643
3.048,4.4700093,8.335647,-3.6631114,-0.003706513,1.9865987,0.02168864
3.05,4.562987,8.327339,-3.7258356,0.050205156,2.0503235,0.036124267
3.052,4.6556726,8.31589,-3.7927527,0.10104425,2.1093953,0.049341314
3.054,4.747874,8.301231,-3.8634677,0.14870168,2.163755,0.061351493
3.056,4.8390975,8.283509,-3.9375722,0.19308794,2.2133975,0.072173834
3.058,4.9291058,8.26272,-4.01465,0.23415478,2.2583742,0.081866145
3.06,5.017643,8.238983,-4.0943694,0.27187312,2.2987673,0.09051907
3.062,5.104457,8.212377,-4.17631,0.30624828,2.334691,0.09822556
3.064,5.189166,8.183173,-4.260103,0.33729613,2.3662536,0.105121374
3.066,5.271534,8.151561,-4.3453937,0.36506093,2.393569,0.11132629
3.068,5.3513985,8.117785,-4.4318314,0.38958922,2.4167352,0.11698006
3.07,5.428612,8.082095,-4.5191402,0.41094223,2.4358373,0.12219823
3.072,5.5028977,8.044841,-4.6069875,0.42918345,2.4509404,0.12708426
3.074,5.574083,8.006279,-4.6950097,0.44438553,2.462106,0.13171892
3.076,5.641973,7.966638,-4.7829003,0.4566018,2.4693801,0.13616556
3.078,5.7064652,7.926393,-4.8703537,0.46590522,2.4728274,0.14047715
3.08,5.767435,7.885694,-4.95693,0.4723718,2.4725196,0.14467523
3.082,5.8248844,7.844794,-5.04244,0.4760637,2.468554,0.14876796
3.084,5.878696,7.8039,-5.1265383,0.47706643,2.461024,0.15278697
3.086,5.928754,7.763359,-5.208826,0.4754502,2.4500363,0.15676478
3.088,5.9751177,7.72329,-5.2889266,0.471287,2.4356978,0.16071445
3.09,6.017667,7.6838403,-5.3664784,0.46465924,2.4181192,0.16465113
3.092,6.0563893,7.6451488,-5.4411674,0.4556477,2.397386,0.16857493
3.094,6.091402,7.607397,-5.51253,0.44431108,2.3735745,0.17246406
3.096,6.12263,7.5706367,-5.580207,0.43072468,2.346732,0.17629664
3.098,6.1501846,7.5350976,-5.643777,0.41496295,2.316913,0.18006784
3.1,6.17408,7.500807,-5.702775,0.39710906,2.2841637,0.18376422
3.102,6.1946673,7.4682374,-5.757244,0.37725094,2.248567,0.18741035
3.104,6.2118454,7.437107,-5.8067865,0.35548693,2.2102423,0.19107775
3.106,6.225731,7.407474,-5.8511195,0.33192873,2.16937,0.19487992
3.108,6.2365627,7.3794117,-5.890134,0.3067008,2.1261938,0.19897191
3.11,6.2444444,7.3529234,-5.923693,0.2799378,2.0810258,0.20354721
3.112,6.249486,7.328011,-5.951734,0.25177962,2.034229,0.20880586
3.114,6.252025,7.3047895,-5.974395,0.22239657,1.9862188,0.21493925
3.116,6.2521677,7.2832274,-5.9917183,0.19195129,1.9374379,0.22214377
3.118,6.2501235,7.263379,-6.003983,0.16064674,1.8883313,0.23054907
3.12,6.246135,7.245219,-6.0113873,0.12867369,1.8393192,0.24026224
3.122,6.2404256,7.2286806,-6.0142283,0.09623144,1.7907883,0.25132197
3.124,6.233219,7.2137303,-6.0129457,0.06353224,1.7430798,0.26374727
3.126,6.2247953,7.200299,-6.0078826,0.030776016,1.696478,0.27750278
3.128,6.2153535,7.188264,-5.9995203,-0.0018379493,1.6512005,0.29254568
3.13,6.2050276,7.1775928,-5.988287,-0.033142738,1.6086154,0.30798116
3.132,6.1940265,7.1681905,-5.974569,-0.06349394,1.5681956,0.32407838
3.134,6.182596,7.1599374,-5.9587955,-0.09260462,1.5301832,0.3406045
3.136,6.1710353,7.1526933,-5.9413686,-0.120215796,1.4947706,0.3573047
3.138,6.1592283,7.1464367,-5.922705,-0.14610943,1.4621056,0.37390816
3.14,6.147361,7.1411495,-5.9030447,-0.17010608,1.432285,0.3901533
3.142,6.1355743,7.1365657,-5.882842,-0.19209504,1.4053283,0.40582317
3.144,6.123883,7.132673,-5.8622866,-0.21204099,1.3811861,0.42073482
3.146,6.1124854,7.1294074,-5.841711,-0.22996518,1.35974,0.43475744
3.148,6.101345,7.126714,-5.8212776,-0.24594115,1.3408188,0.44781637
3.15,6.09055,7.1244683,-5.8010516,-0.26009604,1.3242159,0.45988032
3.152,6.080186,7.1225934,-5.781249,-0.2725795,1.3096855,0.47093788
