Time_s_,Acc_x_m_s_2_,Acc_y_m_s_2_,Acc_z_m_s_2_,Gyro_x_1_s_,Gyro_y_1_s_,Gyro_z_1_s_
0,-0.39428967,0.111907184,0.13600378,0.7389741,-0.64991117,-0.28610522
0.002,-0.34891126,0.07366514,0.1694085,0.74445736,-0.65749764,-0.2885523
0.004,-0.30157468,0.034439582,0.20396262,0.750609,-0.6654507,-0.29081696
0.006,-0.2514501,-0.0059611946,0.23975721,0.75748515,-0.673681,-0.2927994
0.008,-0.19830512,-0.047601663,0.2766151,0.76510954,-0.682073,-0.2943907
0.01,-0.1421199,-0.09058665,0.31453812,0.77346194,-0.69046474,-0.2954902
0.012,-0.08324984,-0.13486028,0.35348326,0.78249776,-0.69863594,-0.29601222
0.014,-0.021644805,-0.18040752,0.39341187,0.79211605,-0.7063779,-0.29587778
0.016,0.042492133,-0.2270262,0.43421042,0.802162,-0.71347,-0.29502368
0.018,0.1092741,-0.2743943,0.4757476,0.81242937,-0.71970356,-0.29341865
0.02,0.17843914,-0.32219556,0.5176692,0.8226703,-0.7248644,-0.29107156
0.022,0.2496753,-0.37010348,0.5597095,0.8326285,-0.7287574,-0.28801066
0.024,0.32294336,-0.4179006,0.6014873,0.84202915,-0.73125017,-0.28426155
0.026,0.3979324,-0.46540812,0.6425669,0.8505957,-0.73228353,-0.2798677
0.028,0.47444412,-0.51243865,0.68266433,0.8583232,-0.7321731,-0.2749426
0.03,0.55203605,-0.55886996,0.72127527,0.8645747,-0.7306701,-0.2693911
0.032,0.6302451,-0.60451853,0.75814533,0.86912477,-0.7281977,-0.26322904
0.034,0.7086908,-0.6492759,0.79300535,0.8717914,-0.72521555,-0.25645712
0.036,0.78682774,-0.69285405,0.8255778,0.87242424,-0.7222832,-0.24904384
0.038,0.8638789,-0.7350241,0.8558349,0.8708836,-0.72007704,-0.24098586
0.04,0.93929005,-0.7757084,0.88383603,0.86701906,-0.71939635,-0.23229994
0.042,1.0129503,-0.8150139,0.90990615,0.860734,-0.721118,-0.22304352
0.044,1.0845388,-0.8531039,0.9343859,0.8519569,-0.7261416,-0.2133095
0.046,1.1536278,-0.89014494,0.95782536,0.8406698,-0.73537403,-0.20321399
0.048,1.219508,-0.9262325,0.98120713,0.82689756,-0.7496804,-0.19288483
0.05,1.2818191,-0.96145916,1.0050874,0.81070256,-0.7697784,-0.18244986
0.052,1.3404719,-0.99620163,1.0300087,0.7921964,-0.7961649,-0.17200705
0.054,1.3953123,-1.0307609,1.0563736,0.77152705,-0.82905006,-0.16159791
0.056,1.4480462,-1.0670844,1.0860709,0.7488827,-0.86826557,-0.15117893
0.058,1.4958314,-1.103313,1.1178427,0.724497,-0.91323406,-0.14062282
0.06,1.5383554,-1.1395872,1.1520951,0.6986354,-0.96292853,-0.12969534
0.062,1.5757297,-1.1762354,1.1892358,0.6716176,-1.0158986,-0.11808609
0.064,1.6081318,-1.2137998,1.2294862,0.64381635,-1.0703397,-0.105420955
0.066,1.635613,-1.252266,1.2727705,0.6156397,-1.1242404,-0.09132079
0.068,1.6583204,-1.2916917,1.318931,0.58755684,-1.1754402,-0.075441375
0.07,1.6762946,-1.3319795,1.367351,0.5601153,-1.2217908,-0.057490952
0.072,1.6896303,-1.37291,1.4172032,0.53390193,-1.2613004,-0.037243262
0.074,1.6989361,-1.4143726,1.4679004,0.50948226,-1.2923186,-0.01453574
0.076,1.704332,-1.4561119,1.518393,0.4873463,-1.313581,0.01072818
0.078,1.7057505,-1.4976767,1.5676062,0.46794358,-1.3241981,0.03856726
0.08,1.7032471,-1.53852,1.6144425,0.4516339,-1.323657,0.06898413
0.082,1.6968863,-1.5780463,1.6577586,0.43866292,-1.3118149,0.10197467
0.084,1.6866001,-1.6153941,1.6961007,0.42918217,-1.2888889,0.13752273
0.086,1.6720545,-1.6495663,1.728099,0.42323583,-1.2553825,0.17559968
0.088,1.6531101,-1.6796724,1.7527024,0.42079213,-1.211972,0.21613804
0.09,1.6298041,-1.704832,1.7686504,0.42178726,-1.1593739,0.25906357
0.092,1.6021756,-1.7244778,1.7751484,0.4261339,-1.0982637,0.3042665
0.094,1.5701759,-1.7377253,1.771214,0.43373746,-1.0292194,0.3515634
0.096,1.5334752,-1.7439759,1.7564509,0.44449782,-0.9526884,0.40069744
0.098,1.4920275,-1.742704,1.7307093,0.45828727,-0.8690357,0.45132414
0.1,1.4454036,-1.7333157,1.6938679,0.47495353,-0.7785855,0.50308985
0.102,1.3930187,-1.7148292,1.645981,0.4943243,-0.6817062,0.55566174
0.104,1.3338408,-1.6864052,1.5870013,0.5161528,-0.57890147,0.6087565
0.106,1.267184,-1.6474006,1.5173153,0.5401744,-0.4708049,0.66217864
0.108,1.1927744,-1.5973289,1.4375038,0.56608546,-0.35820526,0.715817
0.11,1.1109967,-1.536053,1.3486698,0.5935485,-0.24207097,0.7696283
0.112,1.0219866,-1.4637136,1.2508535,0.62220025,-0.12354007,0.82363904
0.114,0.92410886,-1.3798497,1.142249,0.65167147,-0.0038909018,0.8778825
0.116,0.8178834,-1.2854092,1.0246935,0.6815789,0.11552486,0.9323676
0.118,0.7033737,-1.1808491,0.90043354,0.7115451,0.233347,0.9870069
0.12,0.5799042,-1.0660179,0.7705384,0.7412152,0.34829813,1.041593
0.122,0.44871286,-0.94250417,0.6357749,0.77024937,0.45920116,1.0957887
0.124,0.310356,-0.8121949,0.49703172,0.7983242,0.5649762,1.1491308
0.126,0.16514966,-0.67687505,0.35546756,0.82518506,0.66470003,1.2010576
0.128,0.01344277,-0.5381842,0.21233669,0.8506904,0.7576389,1.2509735
0.13,-0.14408636,-0.39752978,0.06888036,0.8748278,0.8432008,1.2982645
0.132,-0.30634385,-0.25656933,-0.073351495,0.89765453,0.92088926,1.3423505
0.134,-0.4722154,-0.117142916,-0.2126748,0.9193244,0.99032027,1.3826987
0.136,-0.6400311,0.018640637,-0.3471393,0.939996,1.0511448,1.4188143
0.138,-0.8084717,0.14877224,-0.4748909,0.9597532,1.1030531,1.4503003
0.14,-0.97607917,0.27151474,-0.59361887,0.97851163,1.145677,1.4768164
0.142,-1.1408503,0.3849926,-0.7010326,0.99603766,1.1786833,1.4981194
0.144,-1.3010366,0.48762512,-0.79499763,1.0119619,1.2019012,1.514064
0.146,-1.4545692,0.57790333,-0.8732467,1.0254997,1.2147603,1.5245891
0.148,-1.5993311,0.6545485,-0.9335425,1.0355985,1.216526,1.5299666
0.15,-1.7339007,0.7166252,-0.9736574,1.041275,1.2069545,1.5305197
0.152,-1.8569212,0.76371956,-0.9918636,1.0415521,1.185951,1.5264801
0.154,-1.966824,0.7952234,-0.9861753,1.035495,1.1534488,1.5180795
0.156,-2.0621274,0.81093526,-0.9550748,1.0223681,1.1095879,1.5056541
0.158,-2.140726,0.81052697,-0.8976196,1.0016928,1.0547717,1.4896195
0.16,-2.2019641,0.7941419,-0.8132046,0.9732677,0.98971325,1.4704064
0.162,-2.2450838,0.76195645,-0.701398,0.93725336,0.9155431,1.4484515
0.164,-2.2695434,0.714204,-0.5617891,0.89417,0.8338605,1.4242456
0.166,-2.275006,0.65145624,-0.39511535,0.84485614,0.7467753,1.3983886
0.168,-2.2612638,0.57432324,-0.20330581,0.7904223,0.6569199,1.3716427
0.17,-2.228526,0.4835608,0.011166953,0.732237,0.5673851,1.3449321
0.172,-2.1774783,0.37995797,0.24551266,0.67187446,0.48165148,1.3192976
0.174,-2.1088886,0.26465464,0.4958349,0.6110306,0.40340716,1.2957919
0.176,-2.0240471,0.13885719,0.7575197,0.55145717,0.3363133,1.2753559
0.178,-1.9249446,0.004720032,1.0253856,0.4948892,0.28384048,1.2587364
0.18,-1.812291,-0.13680422,1.294866,0.44291347,0.24896035,1.2464556
0.182,-1.6878666,-0.2849229,1.5605962,0.39687562,0.2340083,1.2387571
0.184,-1.5537164,-0.43788084,1.8162162,0.35776216,0.24048157,1.235644
0.186,-1.4117894,-0.5937126,2.0558891,0.32613856,0.2688883,1.2368795
0.188,-1.2638917,-0.75054616,2.2741287,0.30216482,0.318798,1.2420604
0.19,-1.1114323,-0.90635705,2.466095,0.28559053,0.38884473,1.2506322
0.192,-0.95624775,-1.0591338,2.6277838,0.2757557,0.47663823,1.2618761
0.194,-0.80007654,-1.2069265,2.7561924,0.27164078,0.57892346,1.2750859
0.196,-0.6454341,-1.3475872,2.849139,0.2719059,0.691658,1.2895315
0.198,-0.49431813,-1.4794717,2.906112,0.2749427,0.81009114,1.3044168
0.2,-0.34843284,-1.600863,2.9268508,0.27921683,0.929428,1.3189144
0.202,-0.20923942,-1.7102226,2.911121,0.28308454,1.0445921,1.3319997
0.204,-0.077703774,-1.8065901,2.8604832,0.28477302,1.1502421,1.3428518
0.206,0.04538411,-1.889124,2.7774198,0.2827391,1.2416537,1.3508373
0.208,0.15934986,-1.9572585,2.6652534,0.27574325,1.3150284,1.3553171
0.21,0.26334912,-2.0108001,2.5283687,0.26288468,1.3676264,1.3556857
0.212,0.35644388,-2.0497465,2.3716788,0.24377596,1.398086,1.3515232
0.214,0.438702,-2.0746717,2.2005384,0.21853727,1.4064987,1.3426921
0.216,0.51005054,-2.0864563,2.0198233,0.18773043,1.3943158,1.3293986
0.218,0.5706188,-2.0862305,1.8340762,0.15237027,1.3643157,1.3121518
0.22,0.6207794,-2.0753412,1.6473758,0.11383867,1.3203809,1.2916542
0.222,0.6610685,-2.0549846,1.4640288,0.07381445,1.2671568,1.2687484
0.224,0.6932294,-2.026941,1.2890246,0.034099877,1.2096739,1.2443377
0.226,0.71722883,-1.9920597,1.1231079,-0.0035201907,1.1529024,1.2193187
0.228,0.73413724,-1.9521163,0.966953,-0.037343442,1.1015282,1.1946055
0.23,0.74594414,-1.9093273,0.8224007,-0.065855145,1.0596943,1.1711214
0.232,0.75314087,-1.8644329,0.6910802,-0.087857544,1.0305748,1.1496447
0.234,0.756693,-1.8182919,0.5741872,-0.10251665,1.0162358,1.130773
0.236,0.75932986,-1.7723126,0.46945435,-0.1093992,1.017607,1.1148803
0.238,0.7617448,-1.7278781,0.37548617,-0.10847938,1.0345232,1.1020714
0.24,0.76596844,-1.6874316,0.29300082,-0.100078225,1.0658376,1.0922154
0.242,0.7728601,-1.652306,0.2202998,-0.08483416,1.1095989,1.084878
0.244,0.7828368,-1.6229494,0.15589622,-0.06355196,1.1633399,1.0794116
0.246,0.7958493,-1.599582,0.099428505,-0.03711921,1.2243361,1.0750114
0.248,0.81255233,-1.5823109,0.049816072,-0.0064204335,1.2897086,1.070711
0.25,0.8339906,-1.5717133,0.00564187,0.02772832,1.3566498,1.0655551
0.252,0.86079156,-1.5687478,-0.034246422,0.064635634,1.422725,1.0586768
0.254,0.8937954,-1.5744641,-0.07036685,0.10371238,1.4859383,1.049322
0.256,0.9330284,-1.5896714,-0.10346399,0.14449567,1.5448022,1.0368793
0.258,0.97892505,-1.6146952,-0.134339,0.18664467,1.598301,1.0209239
0.26,1.0321587,-1.6498476,-0.1635462,0.22987509,1.6459005,1.0012002
0.262,1.0927875,-1.6951795,-0.19086435,0.2739129,1.6874412,0.9775942
0.264,1.160851,-1.7503126,-0.21619555,0.31837863,1.722976,0.9500134
0.266,1.2363044,-1.8150086,-0.23922877,0.3627209,1.7524524,0.918435
0.268,1.3184466,-1.8885169,-0.25959218,0.406179,1.7753414,0.8828589
0.27,1.4065536,-1.9700724,-0.27594465,0.4477557,1.7906088,0.8432003
0.272,1.4990104,-2.0584917,-0.28664213,0.4862752,1.796776,0.7994442
0.274,1.5939119,-2.152215,-0.29033616,0.52029026,1.7914855,0.7515136
0.276,1.6890924,-2.249711,-0.28488076,0.548081,1.7716132,0.69929504
0.278,1.7819502,-2.3491724,-0.26771444,0.5678544,1.7337327,0.64264953
0.28,1.8702369,-2.448985,-0.23686919,0.57780993,1.674316,0.58129257
0.282,1.9514253,-2.5471337,-0.19127658,0.57624274,1.5900294,0.5148105
0.284,2.0230799,-2.6417792,-0.12960064,0.5617782,1.4782866,0.44281244
0.286,2.0826764,-2.7311945,-0.050257094,0.5336464,1.3378248,0.36513597
0.288,2.1277003,-2.813756,0.048301622,0.49196562,1.1690829,0.28190386
0.29,2.1541615,-2.886442,0.1665288,0.43789354,0.9743069,0.19361296
0.292,2.159556,-2.9465337,0.3049907,0.37366658,0.75769013,0.10117738
0.294,2.1418285,-2.9922783,0.46421665,0.30252057,0.5252655,0.0058492646
0.296,2.099545,-3.0222354,0.64377403,0.22847149,0.28455856,-0.09081275
0.298,2.0320816,-3.0356467,0.84218657,0.15595305,0.044091936,-0.18708438
0.3,1.9390275,-3.0322232,1.0567999,0.08943501,-0.1872486,-0.28126612
0.302,1.8207493,-3.0117788,1.2841083,0.03300129,-0.40084505,-0.37178892
0.304,1.6781584,-2.974411,1.5198938,-0.0100058615,-0.5890045,-0.45728338
0.306,1.5136745,-2.9207878,1.7597607,-0.03723702,-0.7455395,-0.53671265
0.308,1.3295113,-2.8517363,1.9985658,-0.047456294,-0.86607325,-0.60940593
0.31,1.1281663,-2.7687163,2.2323046,-0.04054159,-0.9482267,-0.6751153
0.312,0.91275,-2.6734486,2.4574432,-0.01742357,-0.9916364,-0.7340623
0.314,0.6868351,-2.5682259,2.6694155,0.020237327,-0.99774444,-0.78680825
0.316,0.4548443,-2.455794,2.8636148,0.070320725,-0.9694356,-0.8341869
0.318,0.22136801,-2.339341,3.0361147,0.13053507,-0.91069406,-0.8771399
0.32,-0.008322835,-2.2224073,3.183036,0.1985701,-0.8260373,-0.9166417
0.322,-0.22904336,-2.1086247,3.3012471,0.27225712,-0.72004974,-0.953477
0.324,-0.4362201,-2.0011704,3.388569,0.3496148,-0.5973457,-0.9880397
0.326,-0.6252154,-1.9030852,3.4437184,0.42874172,-0.46258745,-1.0203444
0.328,-0.7916231,-1.8173516,3.4666293,0.5078985,-0.31995595,-1.0497588
0.33,-0.93176967,-1.7464241,3.4582398,0.58536744,-0.17332983,-1.0750668
0.332,-1.0420308,-1.6925706,3.419695,0.65932184,-0.026553601,-1.0945916
0.334,-1.1190836,-1.6577287,3.3526988,0.72793865,0.11678618,-1.1063329
0.336,-1.160023,-1.6433805,3.2594693,0.7894589,0.2533592,-1.1083127
0.338,-1.1623688,-1.6507238,3.1424887,0.8422051,0.37999025,-1.0988686
0.34,-1.1240463,-1.6806855,3.0043027,0.8846452,0.49371007,-1.0768573
0.342,-1.043725,-1.7336072,2.8481634,0.9154147,0.5918175,-1.0417672
0.344,-0.920785,-1.8091962,2.6771424,0.9333927,0.6719537,-0.99379057
0.346,-0.7557305,-1.9070781,2.4969811,0.93775153,0.73209107,-0.9338314
0.348,-0.5373344,-2.0314467,2.3142502,0.9279182,0.77046645,-0.86339897
0.35,-0.2579282,-2.1832237,2.131844,0.90353173,0.78554326,-0.7844546
0.352,0.071021795,-2.3550503,1.9491467,0.8644285,0.7760437,-0.69923913
0.354,0.43638444,-2.539908,1.7726729,0.8105389,0.740897,-0.6100732
0.356,0.8312769,-2.7319655,1.6105466,0.7418044,0.67907625,-0.5192528
0.358,1.247782,-2.9224162,1.4715108,0.6581325,0.5896207,-0.42893225
0.36,1.6845417,-3.1073086,1.3635812,0.5594175,0.47172165,-0.34094548
0.362,2.1532953,-3.2930636,1.2870347,0.4455923,0.32484543,-0.2567973
0.364,2.6418993,-3.4735591,1.226354,0.31665322,0.14880154,-0.177625
0.366,3.1549823,-3.6502237,1.187432,0.1727498,-0.056139942,-0.104170516
0.368,3.6745682,-3.816569,1.2036633,0.014206201,-0.2891681,-0.036781173
0.37,4.1781826,-3.9614873,1.289778,-0.15849152,-0.548965,0.024566486
0.372,4.6646023,-4.0783334,1.431464,-0.34470937,-0.8337175,0.08024381
0.374,5.136199,-4.1639104,1.6062945,-0.54367137,-1.141159,0.13093446
0.376,5.59238,-4.2191024,1.810828,-0.754516,-1.4685891,0.17758752
0.378,6.021925,-4.242612,2.056451,-0.97622496,-1.8126608,0.22155672
0.38,6.4092994,-4.2280817,2.351876,-1.2071986,-2.1684077,0.26433736
0.382,6.7436366,-4.16603,2.6955495,-1.4454764,-2.5299788,0.30663502
0.384,7.0177402,-4.047155,3.0806878,-1.6898702,-2.893227,0.3488669
0.386,7.2259464,-3.864981,3.500582,-1.9395005,-3.2546682,0.3919336
0.388,7.361979,-3.6162033,3.9502735,-2.1929195,-3.6101305,0.43594766
0.39,7.4182177,-3.2988183,4.4246755,-2.4478066,-3.9542372,0.47948298
0.392,7.3874817,-2.9120727,4.916454,-2.7003174,-4.2783113,0.5210848
0.394,7.264707,-2.456518,5.4160185,-2.9448051,-4.5715256,0.558297
0.396,7.0472918,-1.9350715,5.912924,-3.1761687,-4.8289576,0.58686525
0.398,6.736399,-1.3537371,6.396818,-3.389851,-5.049175,0.6022135
0.4,6.335781,-0.7207451,6.8565855,-3.5797524,-5.2253904,0.6005594
0.402,5.851454,-0.04588437,7.280795,-3.7383137,-5.3470736,0.57801324
0.404,5.292262,0.65941954,7.6577907,-3.857147,-5.40408,0.5292577
0.406,4.6700754,1.3813498,7.9768324,-3.927782,-5.3893743,0.4491735
0.408,3.9985456,2.105369,8.228427,-3.9421167,-5.2978477,0.3353727
0.41,3.2923424,2.816494,8.404637,-3.893188,-5.124778,0.18890685
0.412,2.5683553,3.4997668,8.499168,-3.7763934,-4.8662157,0.013605773
0.414,1.8454044,4.1404443,8.507851,-3.5905464,-4.520574,-0.18485743
0.416,1.1422901,4.7251487,8.428947,-3.3386223,-4.0900183,-0.39945093
0.418,0.47709465,5.2426414,8.263718,-3.02807,-3.5811214,-0.621802
0.42,-0.13346672,5.6836596,8.01584,-2.670621,-3.0050583,-0.8424487
0.422,-0.674937,6.0417986,7.691454,-2.2813725,-2.3773699,-1.0515783
0.424,-1.1351511,6.3137345,7.299016,-1.8773699,-1.7173902,-1.2400304
0.426,-1.504426,6.4984865,6.849001,-1.4759803,-1.0473167,-1.4001487
0.428,-1.7761776,6.5978165,6.3533072,-1.0933709,-0.39078385,-1.5263636
0.43,-1.9479084,6.616884,5.824872,-0.7432072,0.22886696,-1.6155437
0.432,-2.019842,6.5627365,5.277594,-0.43590733,0.79014224,-1.667318
0.434,-1.995465,6.444051,4.725618,-0.17849776,1.2745055,-1.683898
0.436,-1.8811536,6.2711782,4.182556,0.025839627,1.6689234,-1.6694063
0.438,-1.6857321,6.0556555,3.6607194,0.17814654,1.9681697,-1.6302016
0.44,-1.4196453,5.8089657,3.1708467,0.2820413,2.172624,-1.5745757
0.442,-1.0947094,5.542242,2.7222807,0.3423801,2.2867248,-1.5105101
0.444,-0.7238431,5.266393,2.3221292,0.36499143,2.3185935,-1.4448379
0.446,-0.32020378,4.9912453,1.9752609,0.35614133,2.2782774,-1.3840985
0.448,0.10352087,4.7253666,1.6843895,0.32238293,2.1787128,-1.3328274
0.45,0.5353956,4.475827,1.4501141,0.27189946,2.0391994,-1.29297
0.452,0.9648726,4.247773,1.270763,0.21265131,1.8775436,-1.2653465
0.454,1.3832264,4.044554,1.1433568,0.15006036,1.7027199,-1.2499762
0.456,1.782783,3.867985,1.0634067,0.08774662,1.5204587,-1.244959
0.458,2.1495156,3.7221534,1.0234011,0.02822584,1.3371811,-1.2463654
0.46,2.4766147,3.606401,1.0176555,-0.026860595,1.1597443,-1.2508245
0.462,2.7764685,3.5115213,1.0444901,-0.076977074,0.9921615,-1.2571375
0.464,3.0579138,3.430738,1.0942415,-0.12249686,0.8344983,-1.2653058
0.466,3.3204527,3.3603582,1.1571544,-0.16425197,0.68441904,-1.2752229
0.468,3.5636055,3.2954018,1.2263598,-0.20332956,0.5391701,-1.2862929
0.47,3.7805543,3.2371318,1.2976042,-0.24087419,0.39652735,-1.2978654
0.472,3.9577212,3.1943274,1.3736687,-0.27788958,0.2550143,-1.3098776
0.474,4.1077156,3.160935,1.4668962,-0.3150902,0.11387251,-1.3228914
0.476,4.2262316,3.1382165,1.5657704,-0.35287976,-0.026918441,-1.3375729
0.478,4.3293223,3.1195111,1.6408999,-0.39134166,-0.16654682,-1.3541964
0.48,4.429665,3.097078,1.6911446,-0.43022522,-0.30341107,-1.3725181
0.482,4.5168486,3.0701826,1.7399933,-0.46890995,-0.43534064,-1.3918347
0.484,4.5816755,3.0416317,1.8069798,-0.5064815,-0.5598842,-1.411147
0.486,4.621499,3.0164905,1.8863838,-0.5418178,-0.6745694,-1.4292479
0.488,4.6444874,2.9953902,1.9612312,-0.5737351,-0.7770932,-1.4448239
0.49,4.659533,2.9741056,2.0225425,-0.60116565,-0.86563754,-1.4566506
0.492,4.6680346,2.947192,2.0729423,-0.6232408,-0.93904376,-1.4638083
0.494,4.667845,2.911361,2.1182704,-0.6393126,-0.9968082,-1.4656711
0.496,4.6566954,2.8670235,2.1612327,-0.64892167,-1.0390631,-1.4619703
0.498,4.6342764,2.8168392,2.2014933,-0.6518085,-1.066553,-1.4527857
0.5,4.602577,2.7629573,2.2384264,-0.64781666,-1.0804579,-1.438432
0.502,4.563837,2.7064052,2.2730126,-0.63684297,-1.0822809,-1.4193403
0.504,4.519024,2.6476269,2.3069482,-0.6188593,-1.0738213,-1.3960785
0.506,4.4687686,2.5874257,2.3408697,-0.5938857,-1.0569749,-1.3692892
0.508,4.4125795,2.5270438,2.374533,-0.5620517,-1.0334995,-1.3395865
0.51,4.350104,2.4675307,2.408153,-0.5236397,-1.0049645,-1.307575
0.512,4.2813363,2.4093997,2.4424582,-0.47910526,-0.97262603,-1.273812
0.514,4.2062707,2.3529167,2.4781222,-0.4290555,-0.93737733,-1.2387757
0.516,4.1249247,2.2989264,2.5153413,-0.37418574,-0.8997309,-1.2028888
0.518,4.037989,2.2479692,2.5539,-0.31528074,-0.8599134,-1.166604
0.52,3.946774,2.2005086,2.59352,-0.25315195,-0.8179227,-1.1303805
0.522,3.851607,2.1568375,2.6339202,-0.18858302,-0.77357,-1.0946133
0.524,3.7521276,2.117343,2.6744895,-0.122329086,-0.72660923,-1.0596988
0.526,3.648222,2.0824466,2.7140563,-0.055072576,-0.67683274,-1.026032
0.528,3.5403423,2.0524743,2.751027,0.012629122,-0.6240758,-0.99396324
0.53,3.4292645,2.027789,2.784072,0.08034074,-0.5683053,-0.963776
0.532,3.3162932,2.008217,2.8119142,0.14773582,-0.50966597,-0.9356385
0.534,3.2019172,1.9939051,2.8333602,0.21458739,-0.44849765,-0.9095753
0.536,3.0862677,1.9857589,2.8475204,0.28072745,-0.38535017,-0.8854911
0.538,2.9697752,1.9843278,2.853645,0.3460268,-0.32089284,-0.8632031
0.54,2.853396,1.9894506,2.8510122,0.4103746,-0.2558214,-0.8424776
0.542,2.7376347,2.0011897,2.8386784,0.4736489,-0.19082546,-0.8230808
0.544,2.623128,2.0197532,2.8155966,0.53572124,-0.1265226,-0.8047892
0.546,2.5107827,2.0445442,2.7809317,0.5964464,-0.06338229,-0.7873932
0.548,2.4014516,2.0749457,2.7340016,0.6557115,-0.0017808378,-0.77077925
0.55,2.2959948,2.110241,2.6746466,0.71340936,0.058004543,-0.75497067
0.552,2.1953673,2.1497626,2.6030912,0.7694769,0.1157691,-0.7401295
0.554,2.1006641,2.1924047,2.5197864,0.8238907,0.17137215,-0.72654873
0.556,2.0127382,2.2372217,2.425416,0.87665725,0.2245833,-0.7146745
0.558,1.9325454,2.28319,2.320915,0.9277611,0.27506292,-0.7051125
0.56,1.8607818,2.329182,2.2073433,0.9771568,0.3223338,-0.6985371
0.562,1.7983524,2.3741517,2.0859814,1.0247276,0.36562213,-0.6956217
0.564,1.7458546,2.4171338,1.9582458,1.0702245,0.40383834,-0.6970046
0.566,1.7039788,2.45748,1.825852,1.1132569,0.43558633,-0.7032506
0.568,1.6733595,2.4944444,1.6906879,1.1533287,0.4592995,-0.71478736
0.57,1.6544151,2.5273514,1.5549284,1.1898476,0.4732908,-0.73186076
0.572,1.6471095,2.5559812,1.4211376,1.2221452,0.47591683,-0.7545223
0.574,1.650879,2.5804172,1.2917432,1.2495825,0.46580774,-0.7826162
0.576,1.6650512,2.6011634,1.1690369,1.2716205,0.44199008,-0.81578994
0.578,1.6886227,2.6185846,1.0554898,1.2878939,0.4040716,-0.8535021
0.58,1.7210197,2.6333897,0.95345795,1.2982634,0.35232356,-0.89508015
0.582,1.7609727,2.646421,0.8650499,1.3028711,0.2877301,-0.93972725
0.584,1.8067821,2.6588187,0.79231113,1.3021394,0.21200842,-0.9865735
0.586,1.8568038,2.671866,0.7369213,1.2967753,0.12748992,-1.0347215
0.588,1.909187,2.6868858,0.70040804,1.2877233,0.03703624,-1.0833143
0.59,1.9621898,2.705205,0.6836579,1.2761241,-0.056121707,-1.1315283
0.592,2.0139236,2.7281432,0.687107,1.2632447,-0.14855781,-1.1785946
0.594,2.0625515,2.756953,0.7106229,1.250376,-0.23683655,-1.2238405
0.596,2.106342,2.7927752,0.7538643,1.2387966,-0.31770426,-1.2667087
0.598,2.1433563,2.8367205,0.81580496,1.2296671,-0.3882196,-1.3068081
0.6,2.1722322,2.889462,0.89502776,1.2239922,-0.44589174,-1.3439344
0.602,2.1917336,2.951588,0.98947424,1.2225639,-0.48873863,-1.3780186
0.604,2.2011478,3.023019,1.0969361,1.2259688,-0.51542175,-1.4090996
0.606,2.2001314,3.1033058,1.2150642,1.2345393,-0.5252888,-1.4373082
0.608,2.1886468,3.1917102,1.3412734,1.2483582,-0.5184118,-1.462851
0.61,2.166757,3.287271,1.4731778,1.2673208,-0.4954641,-1.485972
0.612,2.1349797,3.3885977,1.608499,1.2911607,-0.4576764,-1.5069158
0.614,2.0939667,3.4941092,1.7451502,1.3194718,-0.40682214,-1.5259433
0.616,2.0446846,3.601896,1.881273,1.3517245,-0.3450346,-1.543323
0.618,1.9882026,3.7098281,2.015332,1.3873383,-0.2746864,-1.5593019
0.62,1.9258904,3.8155217,2.1462755,1.4256912,-0.19831336,-1.5740669
0.622,1.8590658,3.9167123,2.2732334,1.4661055,-0.11853477,-1.5877855
0.624,1.7888553,4.011308,2.3960598,1.5079038,-0.037893176,-1.6006068
0.626,1.7166487,4.0970035,2.5148275,1.5504408,0.04124254,-1.6126511
0.628,1.6439338,4.1717606,2.6300163,1.5930676,0.116722524,-1.624042
0.63,1.5725577,4.2331996,2.7421212,1.635191,0.18675941,-1.6349001
0.632,1.5039687,4.2794175,2.8516524,1.6763064,0.249991,-1.6453177
0.634,1.4396337,4.308764,2.9592676,1.7160033,0.3055033,-1.6553555
0.636,1.380901,4.3199377,3.0659554,1.7539713,0.35283273,-1.6650484
0.638,1.328767,4.31176,3.1726189,1.7899946,0.39194965,-1.6743716
0.64,1.2838678,4.283689,3.2800622,1.8239932,0.42324334,-1.6832665
0.642,1.2461476,4.23572,3.3891213,1.8559808,0.4474361,-1.6916043
0.644,1.2158706,4.168107,3.5006864,1.8860537,0.46549803,-1.6992255
0.646,1.1932303,4.0811043,3.6151288,1.9143302,0.47849894,-1.7059801
0.648,1.1780154,3.9756994,3.732537,1.9409378,0.48752332,-1.7117493
0.65,1.1697501,3.8532858,3.8531961,1.9659413,0.49355233,-1.7164712
0.652,1.1677103,3.715405,3.9769294,1.9893426,0.49733537,-1.7201345
0.654,1.1710012,3.5638578,4.1033006,2.0110474,0.49934554,-1.7228142
0.656,1.1788493,3.4009194,4.231735,2.0308685,0.49974632,-1.7246717
0.658,1.1902494,3.2286444,4.361701,2.0485425,0.4984247,-1.7259158
0.66,1.2039325,3.0494847,4.4921017,2.0637696,0.4950953,-1.7268175
0.662,1.2187307,2.8659832,4.6217136,2.0762672,0.48940176,-1.7276964
0.664,1.2334044,2.6807342,4.7497888,2.085798,0.48104852,-1.728882
0.666,1.2472544,2.4960785,4.8756886,2.0922444,0.46989673,-1.7306982
0.668,1.2589955,2.3145163,4.9980235,2.0955973,0.45609057,-1.7334172
0.67,1.2679641,2.1385047,5.1153703,2.096026,0.4400559,-1.7372588
0.672,1.2732226,1.9700849,5.227199,2.093886,0.42249143,-1.7423623
0.674,1.273938,1.811035,5.333095,2.089709,0.4043699,-1.748826
0.676,1.2692826,1.6629009,5.4325595,2.0841825,0.3869077,-1.7566643
0.678,1.2587962,1.5269613,5.5252604,2.0781064,0.37146038,-1.7658219
0.68,1.2425338,1.4039385,5.6108613,2.0723398,0.35941607,-1.7761812
0.682,1.2207025,1.2943815,5.688751,2.0677547,0.35219765,-1.7875448
0.684,1.193574,1.1985914,5.7587833,2.0652008,0.35119635,-1.799669
0.686,1.1618695,1.1162953,5.8209124,2.0654428,0.3576734,-1.8122932
0.688,1.1265755,1.047286,5.8753023,2.0691504,0.37272233,-1.8251328
0.69,1.088567,0.99080193,5.9226456,2.0769024,0.39726108,-1.8379017
0.692,1.0485106,0.94621134,5.9634647,2.0892076,0.43196988,-1.8503379
0.694,1.0077002,0.912388,5.9980817,2.1064584,0.47719306,-1.8621826
0.696,0.9677271,0.8880217,6.0267515,2.1289878,0.5329794,-1.8731991
0.698,0.93024194,0.87158626,6.049799,2.1571023,0.5992099,-1.8831558
0.7,0.8966497,0.86158204,6.0678563,2.1910224,0.67544585,-1.8918765
0.702,0.8686031,0.8563165,6.0814238,2.2308655,0.7608612,-1.8992152
0.704,0.84745604,0.8541845,6.0908628,2.2766469,0.85440886,-1.9050043
0.706,0.83478165,0.85354155,6.0963535,2.3282409,0.9548646,-1.9091061
0.708,0.83177865,0.8528081,6.098052,2.3853357,1.060813,-1.9114318
0.71,0.839626,0.85061693,6.0961766,2.4474077,1.1707234,-1.9119823
0.712,0.85918105,0.8456379,6.091015,2.5136952,1.2830003,-1.9108584
0.714,0.89101934,0.8370158,6.0825276,2.5832298,1.3959343,-1.9082819
0.716,0.9354163,0.82394844,6.0705695,2.6548805,1.5078263,-1.9046082
0.718,0.9925279,0.8057615,6.0549426,2.7273936,1.6170199,-1.9003291
0.72,1.0624932,0.7816812,6.0351157,2.7994885,1.7219654,-1.8960555
0.722,1.1451749,0.7511364,6.010247,2.8699973,1.8213469,-1.8924872
0.724,1.2399666,0.713847,5.9792595,2.9378762,1.9141119,-1.8903428
0.726,1.3468653,0.669211,5.941455,3.002276,1.999409,-1.8903149
0.728,1.4647632,0.61694527,5.8963027,3.0625844,2.0765295,-1.8929845
0.73,1.5926911,0.5569217,5.84371,3.118434,2.1448836,-1.8988048
0.732,1.7318466,0.4880189,5.786277,3.1696873,2.2040088,-1.908062
0.734,1.8793998,0.41032916,5.724634,3.21637,2.253494,-1.9208689
0.736,2.02882,0.32639617,5.6523995,3.2586071,2.2928967,-1.9371834
0.738,2.181819,0.23546165,5.565028,3.2965496,2.3217225,-1.9567788
0.74,2.3403478,0.13595593,5.4658427,3.3303728,2.3395004,-1.9792653
0.742,2.5021107,0.027552456,5.361942,3.360224,2.3457894,-2.0041177
0.744,2.661748,-0.08795047,5.2560306,3.3861997,2.3402076,-2.0307007
0.746,2.8170176,-0.20934254,5.147318,3.408382,2.322545,-2.0582883
0.748,2.9687424,-0.33671004,5.036067,3.4268787,2.2928555,-2.0861301
0.75,3.116473,-0.47013602,4.9236517,3.4418037,2.2513933,-2.1134372
0.752,3.2593107,-0.609866,4.8116717,3.4532926,2.1985686,-2.1394272
0.754,3.396109,-0.75541925,4.7011695,3.4615898,2.1352205,-2.1633391
0.756,3.525669,-0.9059836,4.593297,3.4670153,2.0625124,-2.184555
0.758,3.6472719,-1.0607421,4.4895196,3.469911,1.981743,-2.2026575
0.76,3.760625,-1.219172,4.391857,3.4706273,1.8943166,-2.2174208
0.762,3.8650765,-1.3802586,4.3025866,3.4694154,1.8015271,-2.2288451
0.764,3.9597533,-1.5428233,4.2234592,3.4665766,1.7049689,-2.2370188
0.766,4.0441895,-1.70555,4.155575,3.4627168,1.6071371,-2.2422156
0.768,4.1181836,-1.8671992,4.099241,3.4583216,1.5100983,-2.2450247
0.77,4.18235,-2.0268571,4.0550256,3.4536598,1.4147704,-2.2461884
0.772,4.236855,-2.1835554,4.02342,3.4491189,1.3219812,-2.2463968
0.774,4.281453,-2.3360507,4.0042195,3.4451995,1.2331821,-2.2461092
0.776,4.315989,-2.4832745,3.9967024,3.4421995,1.1497631,-2.2457082
0.778,4.3409576,-2.6244516,4.0007625,3.440297,1.0725816,-2.245625
0.78,4.3563643,-2.758916,4.0161653,3.4397829,1.0022916,-2.2462018
0.782,4.3623266,-2.8857882,4.0417786,3.4410663,0.9394598,-2.2475724
0.784,4.3591895,-3.0044901,4.0762763,3.4445229,0.8843615,-2.2496183
0.786,4.347496,-3.1147637,4.1180763,3.4503844,0.8370404,-2.2521
0.788,4.3275185,-3.216442,4.1655273,3.4587562,0.79743195,-2.2547278
0.79,4.2993646,-3.3094506,4.2170887,3.4695425,0.7653537,-2.2572074
0.792,4.2634907,-3.3939996,4.2713423,3.4824727,0.74054897,-2.2592444
0.794,4.220617,-3.47053,4.326633,3.4971113,0.7227582,-2.260554
0.796,4.1716666,-3.5399024,4.381501,3.512924,0.7116928,-2.2609372
0.798,4.117332,-3.60327,4.4345293,3.5293698,0.70694613,-2.2603066
0.8,4.058832,-3.6620338,4.484394,3.5459573,0.70785093,-2.2587063
0.802,3.9974499,-3.7174587,4.5302396,3.5622966,0.71338654,-2.2562742
0.804,3.933802,-3.7703614,4.571672,3.578144,0.72224796,-2.2532735
0.806,3.8685327,-3.8217363,4.6085224,3.593334,0.73279977,-2.2500467
0.808,3.802423,-3.8723052,4.6406603,3.607727,0.7430583,-2.246941
0.81,3.7363613,-3.9226575,4.6679945,3.6211386,0.7508993,-2.244334
0.812,3.6715662,-3.9734094,4.6905136,3.6333601,0.7542862,-2.2425938
0.814,3.6092222,-4.025211,4.7085867,3.644167,0.7515234,-2.2420685
0.816,3.5504951,-4.0786247,4.722623,3.6533644,0.7414935,-2.2430496
0.818,3.496232,-4.133961,4.733095,3.660665,0.7232746,-2.245855
0.82,3.4471698,-4.1912413,4.7406206,3.6656637,0.6961118,-2.2506933
0.822,3.4041133,-4.2504215,4.7458186,3.6683674,0.66070086,-2.2575521
0.824,3.367614,-4.311396,4.7494287,3.6690686,0.6188414,-2.2663999
0.826,3.338273,-4.3737326,4.7521906,3.667995,0.5719189,-2.277255
0.828,3.3164778,-4.436956,4.7546673,3.6654096,0.52068245,-2.2901
0.83,3.3023503,-4.5002856,4.757468,3.6617808,0.46615803,-2.3046448
0.832,3.2959864,-4.5629525,4.7610035,3.657573,0.40979052,-2.3203757
0.834,3.29781,-4.6246324,4.765514,3.652965,0.35280275,-2.3368306
0.836,3.3074434,-4.6846285,4.770737,3.647966,0.29600203,-2.353745
0.838,3.32521,-4.7424083,4.7762055,3.6425815,0.23996437,-2.3709881
0.84,3.3510249,-4.7975187,4.781065,3.636831,0.18495977,-2.388463
0.842,3.3832452,-4.8494296,4.7825794,3.6307147,0.13090241,-2.4061055
0.844,3.4242194,-4.8986597,4.7806463,3.6242108,0.07752395,-2.4238718
0.846,3.4777703,-4.947365,4.780576,3.617283,0.024448156,-2.4417145
0.848,3.5395987,-4.9943113,4.783469,3.6099179,-0.028731346,-2.4595332
0.85,3.6068578,-5.038443,4.783188,3.602127,-0.08231914,-2.4771247
0.852,3.6816664,-5.0806956,4.772964,3.5939407,-0.13643777,-2.4941792
0.854,3.7675204,-5.123371,4.7527475,3.585439,-0.19097257,-2.5103188
0.856,3.864119,-5.167783,4.725695,3.576745,-0.24562496,-2.525172
0.858,3.969051,-5.2136626,4.692938,3.5680542,-0.3000558,-2.5383966
0.86,4.082004,-5.2613287,4.6546335,3.559637,-0.3538304,-2.5497174
0.862,4.2038136,-5.311138,4.610879,3.551841,-0.40647578,-2.5589132
0.864,4.3354044,-5.364434,4.561905,3.5450494,-0.4575761,-2.5657787
0.866,4.477618,-5.422543,4.508029,3.5396202,-0.5068847,-2.5701337
0.868,4.630772,-5.4864607,4.449148,3.5358691,-0.5543503,-2.5717883
0.87,4.7949057,-5.5565863,4.3848863,3.5340562,-0.6000203,-2.5705242
0.872,4.97056,-5.6334887,4.315044,3.5343916,-0.64398557,-2.5660877
0.874,5.1584105,-5.717694,4.2402415,3.536997,-0.6864403,-2.5582047
0.876,5.358553,-5.8097043,4.161628,3.54186,-0.7276905,-2.546649
0.878,5.5710735,-5.9095335,4.080655,3.5488887,-0.76807547,-2.5313034
0.88,5.7954087,-6.0168447,3.9983816,3.5579162,-0.8079037,-2.5121803
0.882,6.03106,-6.131171,3.9155397,3.5686936,-0.847489,-2.4894493
0.884,6.2780313,-6.252085,3.8328564,3.5809195,-0.8871294,-2.4633842
0.886,6.535688,-6.3788204,3.751293,3.59425,-0.92708486,-2.4342854
0.888,6.803257,-6.510479,3.6714516,3.6083584,-0.96755654,-2.4023964
0.89,7.0797677,-6.646007,3.5938363,3.6229596,-1.0086272,-2.367882
0.892,7.363731,-6.784132,3.5184898,3.6378348,-1.0502856,-2.3308382
0.894,7.6537566,-6.9234734,3.4455557,3.6528714,-1.0924122,-2.2912142
0.896,7.948054,-7.0624294,3.3752496,3.6680434,-1.1347018,-2.2488499
0.898,8.245109,-7.199978,3.3074381,3.683443,-1.1766871,-2.2035315
0.9,8.54302,-7.334811,3.2416842,3.6992433,-1.2177917,-2.1550899
0.902,8.83964,-7.4655943,3.1772287,3.715626,-1.2573719,-2.1033905
0.904,9.132834,-7.5908413,3.1133313,3.7327707,-1.2947787,-2.0483603
0.906,9.419529,-7.708622,3.0486705,3.750816,-1.3294063,-1.9900104
0.908,9.697881,-7.8174767,2.982364,3.769831,-1.3607193,-1.9284289
0.91,9.965666,-7.9161086,2.913394,3.7898116,-1.3883561,-1.8637946
0.912,10.219531,-8.003014,2.8397012,3.8106217,-1.4122213,-1.7963837
0.914,10.458008,-8.077744,2.7595835,3.832064,-1.4325159,-1.7265153
0.916,10.680312,-8.140135,2.6717467,3.8538692,-1.4497112,-1.6545527
0.918,10.885128,-8.189969,2.5758038,3.8757753,-1.4645135,-1.5808761
0.92,11.0710125,-8.227104,2.4715996,3.8975232,-1.4778192,-1.5058703
0.922,11.23676,-8.251606,2.359508,3.9188626,-1.490713,-1.4299086
0.924,11.379764,-8.262598,2.2384348,3.939553,-1.5043926,-1.3533826
0.926,11.497686,-8.25926,2.107204,3.959389,-1.5200968,-1.276701
0.928,11.5910425,-8.242195,1.9657321,3.9782262,-1.5389249,-1.2002559
0.93,11.660138,-8.212025,1.8145595,3.995986,-1.5617715,-1.1243865
0.932,11.705297,-8.168927,1.655129,4.0126147,-1.5894132,-1.0493994
0.934,11.725516,-8.113119,1.4885373,4.0280576,-1.6225171,-0.97560513
0.936,11.72004,-8.044905,1.3152113,4.042313,-1.6615394,-0.90332645
0.938,11.688889,-7.9645348,1.1352034,4.0553856,-1.7068083,-0.83291006
0.94,11.632479,-7.8721848,0.9493823,4.0672817,-1.7585369,-0.76467276
0.942,11.553194,-7.7694077,0.75983477,4.078075,-1.8166516,-0.6989049
0.944,11.450863,-7.6554556,0.5683398,4.087858,-1.8809245,-0.6358869
0.946,11.323143,-7.5292053,0.37753868,4.096763,-1.9510999,-0.5758327
0.948,11.169854,-7.39179,0.19051123,4.10492,-2.026834,-0.5189661
0.95,10.993746,-7.2450523,0.008478165,4.1125107,-2.1076121,-0.46550047
0.952,10.797001,-7.0892773,-0.16843033,4.119746,-2.1927133,-0.41562402
0.954,10.580446,-6.924908,-0.33938265,4.1269155,-2.2812,-0.3694495
0.956,10.34451,-6.752466,-0.50292397,4.134374,-2.3720155,-0.32707465
0.958,10.090718,-6.572323,-0.65830183,4.1425657,-2.464028,-0.28847313
0.96,9.82077,-6.384593,-0.8043933,4.151985,-2.5561304,-0.25351512
0.962,9.535745,-6.1898413,-0.93888855,4.163068,-2.647404,-0.22213066
0.964,9.236568,-5.9889917,-1.0595481,4.176155,-2.737042,-0.19422495
0.966,8.926157,-5.784292,-1.1638899,4.191549,-2.8242302,-0.16959429
0.968,8.607835,-5.5780115,-1.2496874,4.2093897,-2.9084454,-0.1479299
0.97,8.28231,-5.3705525,-1.3163221,4.2296405,-2.9895754,-0.12885666
0.972,7.9516077,-5.1638284,-1.3616798,4.252204,-3.0675998,-0.11187816
0.974,7.6196594,-4.960465,-1.3841033,4.2767854,-3.1428795,-0.09658337
0.976,7.2898498,-4.7619667,-1.383666,4.3028646,-3.2162018,-0.08271098
0.978,6.965087,-4.5702133,-1.3593087,4.3301525,-3.287807,-0.069747925
0.98,6.6487823,-4.3878417,-1.3100939,4.3586845,-3.3571672,-0.056913137
0.982,6.3441563,-4.2165723,-1.2362032,4.3884964,-3.4237506,-0.0435431
0.984,6.054162,-4.057835,-1.1397026,4.4196215,-3.4869883,-0.029122591
0.986,5.780418,-3.9116426,-1.0220766,4.452342,-3.5456147,-0.013062
0.988,5.5255814,-3.778573,-0.88490367,4.4871964,-3.5976782,0.005284786
0.99,5.292447,-3.6595643,-0.7297666,4.524767,-3.641014,0.02648449
0.992,5.084005,-3.5555115,-0.5585754,4.5657496,-3.6730976,0.05111146
0.994,4.902216,-3.466721,-0.37347484,4.61101,-3.690971,0.079732895
0.996,4.748332,-3.3928604,-0.17718244,4.661506,-3.6915512,0.11292696
0.998,4.623273,-3.333364,0.027217388,4.7182727,-3.6717267,0.15131092
1,4.527868,-3.287529,0.23592019,4.782177,-3.6288366,0.19525671
1.002,4.463069,-3.254787,0.44525957,4.8539734,-3.5607514,0.2450459
1.004,4.4285064,-3.2339492,0.6515939,4.934241,-3.4659066,0.30100226
1.006,4.423094,-3.2234302,0.85139203,5.0230837,-3.343902,0.36319613
1.008,4.4449368,-3.2211285,1.0412214,5.120072,-3.195473,0.43147492
1.01,4.492118,-3.225099,1.2175975,5.2243223,-3.022019,0.50571823
1.012,4.5622683,-3.2333684,1.3770747,5.3344316,-2.8255093,0.5856931
1.014,4.6527596,-3.2438474,1.5163393,5.448651,-2.6085267,0.67122436
1.016,4.7613406,-3.2546344,1.6325219,5.565037,-2.3740754,0.76238585
1.018,4.8844514,-3.2633367,1.7227075,5.6815867,-2.1253533,0.85927415
1.02,5.0188823,-3.2674966,1.7845123,5.796358,-1.8656878,0.9620013
1.022,5.1623845,-3.2653482,1.816942,5.9075723,-1.5983069,1.0706868
1.024,5.310913,-3.2542105,1.8189187,6.013642,-1.3264031,1.1853943
1.026,5.4596877,-3.2311482,1.789223,6.1130896,-1.053509,1.3059316
1.028,5.605361,-3.19381,1.7267635,6.204711,-0.7831794,1.4319265
1.03,5.745231,-3.140256,1.6313615,6.287473,-0.5191629,1.56273
1.032,5.8762817,-3.0686612,1.5034692,6.3601947,-0.26611495,1.6970477
1.034,5.996894,-2.9779458,1.3456845,6.4216967,-0.029061079,1.8331556
1.036,6.1050544,-2.8671982,1.1608593,6.4711947,0.1876955,1.9693542
1.038,6.1970043,-2.7346473,0.95137477,6.5082636,0.38056195,2.1039886
1.04,6.2702255,-2.5794113,0.7194555,6.5326204,0.54633224,2.2354002
1.042,6.323002,-2.4013882,0.46761656,6.5442343,0.6826521,2.362143
1.044,6.3553624,-2.2008536,0.19919229,6.5435305,0.7885382,2.4832003
1.046,6.3673806,-1.9784973,-0.08141065,6.531289,0.8641892,2.597958
1.048,6.358803,-1.7355889,-0.3696401,6.5085206,0.9108174,2.7062087
1.05,6.3290763,-1.4734616,-0.66184807,6.476427,0.93064827,2.8081245
1.052,6.2769184,-1.1928157,-0.95506954,6.4363966,0.9267843,2.9041898
1.054,6.2039104,-0.89678764,-1.2457873,6.389967,0.9031003,2.9952443
1.056,6.113177,-0.5884186,-1.531234,6.3385515,0.8635076,3.0821466
1.058,6.00528,-0.26870298,-1.8088739,6.2834015,0.8116665,3.1655664
1.06,5.878691,0.061287,-2.0742888,6.2257266,0.7512501,3.246206
1.062,5.7339277,0.3988463,-2.3234873,6.1665955,0.68551415,3.3246489
1.064,5.5735145,0.74094653,-2.5544477,6.106814,0.6169262,3.4011717
1.066,5.400182,1.0849029,-2.766368,6.0470486,0.5473606,3.4759414
1.068,5.215316,1.4282815,-2.9583344,5.987794,0.47830027,3.5489872
1.07,5.0209527,1.7687266,-3.1302526,5.929405,0.41078985,3.6202283
1.072,4.8195086,2.1046598,-3.2832327,5.872072,0.34534603,3.689619
1.074,4.6130714,2.4349532,-3.417945,5.815845,0.28204897,3.75703
1.076,4.4024386,2.7596369,-3.5356479,5.7607355,0.22074223,3.8222954
1.078,4.187619,3.0786502,-3.636964,5.70673,0.1611233,3.8852952
1.08,3.9720986,3.3900266,-3.7218022,5.6538115,0.10280791,3.9460003
1.082,3.7570992,3.693858,-3.7920368,5.601969,0.04541117,4.0044217
1.084,3.5424283,3.9907675,-3.8490028,5.5512404,-0.011348963,4.06062
1.086,3.3287933,4.2804723,-3.8933313,5.5016766,-0.067599565,4.114708
1.088,3.117659,4.563212,-3.9273438,5.45337,-0.1233675,4.166846
1.09,2.9097924,4.8398285,-3.9536602,5.406436,-0.17865488,4.2172074
1.092,2.705767,5.110339,-3.9739652,5.360954,-0.2334544,4.265956
1.094,2.506155,5.374894,-3.988854,5.3169622,-0.2878214,4.313216
1.096,2.311998,5.6331744,-4.0001636,5.2744446,-0.3419452,4.3590627
1.098,2.122982,5.8859057,-4.0100937,5.2332525,-0.39618623,4.4034843
1.1,1.9385529,6.1343565,-4.0208793,5.1931353,-0.45111063,4.4463906
1.102,1.7579703,6.3798466,-4.034334,5.153781,-0.5074475,4.4876237
1.104,1.5809633,6.6231456,-4.0518284,5.114847,-0.56605196,4.526965
1.106,1.407515,6.8649163,-4.0744185,5.0759716,-0.6278229,4.5641327
1.108,1.2372164,7.1059384,-4.102533,5.0368686,-0.69359046,4.5987954
1.11,1.0691234,7.3470693,-4.135969,4.99739,-0.7639576,4.6306696
1.112,0.9023011,7.589375,-4.174481,4.9575086,-0.8393039,4.659531
1.114,0.7361512,7.833442,-4.2173986,4.917351,-0.9197161,4.6852016
1.116,0.5702071,8.079653,-4.264134,4.8772,-1.0048912,4.7075567
1.118,0.40375054,8.328651,-4.3137035,4.837485,-1.0941342,4.726519
1.12,0.23590934,8.580931,-4.3649673,4.7987165,-1.1864387,4.7420726
1.122,0.06589234,8.8368225,-4.4166512,4.7614536,-1.2805083,4.7542377
1.124,-0.10725582,9.096562,-4.467729,4.726232,-1.3748597,4.763089
1.126,-0.2843063,9.360422,-4.5170546,4.6935563,-1.4678643,4.7687225
1.128,-0.46602046,9.628585,-4.5636845,4.663868,-1.5578425,4.7712617
1.13,-0.6531085,9.901066,-4.6067905,4.637495,-1.6431538,4.7708235
1.132,-0.84608364,10.177803,-4.64559,4.6146755,-1.7223516,4.767497
1.134,-1.0452368,10.45865,-4.6796026,4.595549,-1.7942154,4.7613397
1.136,-1.2503711,10.743084,-4.7082887,4.58018,-1.8578727,4.752381
1.138,-1.4615886,11.030645,-4.731366,4.5685806,-1.912838,4.740602
1.14,-1.6789509,11.321058,-4.7486377,4.5606947,-1.9590659,4.7259736
1.142,-1.9023434,11.6140375,-4.7600207,4.5564165,-1.996968,4.708463
1.144,-2.1311514,11.909097,-4.765454,4.5555754,-2.0273724,4.688038
1.146,-2.3650708,12.205968,-4.7652044,4.5579896,-2.0514336,4.664663
1.148,-2.6036496,12.504413,-4.7593746,4.5634384,-2.0705063,4.6383133
1.15,-2.846522,12.804108,-4.7480044,4.5716953,-2.0859845,4.608986
1.152,-3.0931559,13.104941,-4.7311645,4.5825667,-2.099229,4.576687
1.154,-3.34297,13.406679,-4.708543,4.5958786,-2.111435,4.541416
1.156,-3.5959485,13.709205,-4.679763,4.611465,-2.1235688,4.503126
1.158,-3.8520017,14.012708,-4.644287,4.6291947,-2.1362748,4.4617314
1.16,-4.110775,14.317104,-4.6014953,4.648976,-2.149844,4.417124
1.162,-4.372319,14.622585,-4.550877,4.670734,-2.1642246,4.36918
1.164,-4.636563,14.929263,-4.4921126,4.6943846,-2.1790562,4.3177576
1.166,-4.903553,15.2371855,-4.4246173,4.7198815,-2.193657,4.262716
1.168,-5.173359,15.546219,-4.3479476,4.7471933,-2.2071295,4.203978
1.17,-5.4461575,15.856367,-4.261839,4.7762823,-2.2184763,4.1415615
1.172,-5.7224474,16.16754,-4.1655016,4.807111,-2.2267253,4.0755997
1.174,-6.0027,16.479845,-4.0582905,4.8395863,-2.2310152,4.0063043
1.176,-6.2870135,16.793127,-3.9395483,4.8736057,-2.2306776,3.9339647
1.178,-6.5756793,17.107088,-3.8090045,4.9090605,-2.2253222,3.8588643
1.18,-6.8692017,17.421593,-3.6663048,4.945785,-2.2149262,3.7813277
1.182,-7.167754,17.736288,-3.5112422,4.9835668,-2.1998444,3.7016268
1.184,-7.471526,18.050846,-3.3437428,5.022174,-2.1807275,3.6200154
1.186,-7.7806525,18.364847,-3.1636987,5.061349,-2.158433,3.5366664
1.188,-8.094368,18.677675,-2.9714682,5.1008344,-2.1339393,3.4516857
1.19,-8.412614,18.989147,-2.7672958,5.1403418,-2.1082616,3.3651116
1.192,-8.734747,19.298676,-2.5516357,5.179594,-2.0823417,3.2769125
1.194,-9.060244,19.606,-2.3250406,5.2183285,-2.05698,3.1869648
1.196,-9.388019,19.910532,-2.0881028,5.256318,-2.0327778,3.0951061
1.198,-9.716954,20.211811,-1.8413483,5.293355,-2.010199,3.0011306
1.2,-10.045695,20.509398,-1.5855685,5.3292313,-1.9895844,2.9048185
1.202,-10.372813,20.803123,-1.3215454,5.3637714,-1.9712228,2.805925
1.204,-10.696688,21.092752,-1.0503787,5.3967876,-1.9553801,2.7042036
1.206,-11.015378,21.377785,-0.7732624,5.4280777,-1.942313,2.5994182
1.208,-11.327156,21.658014,-0.49126297,5.4574547,-1.9323354,2.491322
1.21,-11.630351,21.933096,-0.20543385,5.4847536,-1.9257544,2.3796847
1.212,-11.923392,22.2029,0.08331922,5.509809,-1.9229369,2.264305
1.214,-12.204721,22.46711,0.3741502,5.5324507,-1.9242926,2.145012
1.216,-12.47291,22.725456,0.6662879,5.552527,-1.9302187,2.0216672
1.218,-12.726751,22.977642,0.95895207,5.5698977,-1.9410828,1.8941629
1.22,-12.965053,23.223478,1.2514873,5.5844364,-1.9571879,1.7624583
1.222,-13.186975,23.462711,1.5434026,5.596051,-1.9787253,1.6265709
1.224,-13.391721,23.69504,1.8339639,5.6046658,-2.0057402,1.4865537
1.226,-13.578725,23.920265,2.1227295,5.610278,-2.038103,1.3425099
1.228,-13.747581,24.137981,2.4093165,5.612934,-2.0754256,1.1945982
1.23,-13.898505,24.348185,2.693657,5.6127105,-2.117097,1.0430129
1.232,-14.031925,24.550756,2.975992,5.609725,-2.1623025,0.88798285
1.234,-14.148585,24.745665,3.2569447,5.6041183,-2.210062,0.7297478
1.236,-14.2495775,24.932808,3.5369792,5.5960445,-2.2593474,0.56858397
1.238,-14.335818,25.11213,3.8168225,5.5856347,-2.3091826,0.4047463
1.24,-14.408578,25.283672,4.096775,5.5729804,-2.3587325,0.23850656
1.242,-14.4690485,25.447624,4.3771667,5.5581026,-2.4073968,0.07008958
1.244,-14.518594,25.60403,4.658386,5.541002,-2.454805,-0.100293994
1.246,-14.558222,25.752983,4.940864,5.521592,-2.5008638,-0.272447
1.248,-14.589258,25.894592,5.2250643,5.4997516,-2.5457604,-0.44620597
1.25,-14.612889,26.028902,5.5113506,5.4752975,-2.5898917,-0.62147176
1.252,-14.630267,26.156132,5.8001356,5.448023,-2.6337948,-0.798216
1.254,-14.642576,26.276394,6.091527,5.417681,-2.6780844,-0.9764732
1.256,-14.6507435,26.389647,6.3860173,5.3840146,-2.7233772,-1.156296
1.258,-14.655767,26.495811,6.6837583,5.346779,-2.770268,-1.3377844
1.26,-14.658379,26.595068,6.984894,5.305738,-2.8192625,-1.5210505
1.262,-14.6593485,26.68725,7.289729,5.2606425,-2.8707652,-1.7061756
1.264,-14.659252,26.772446,7.5980606,5.2112894,-2.925087,-1.8932151
1.266,-14.658053,26.850372,7.909656,5.15752,-2.982372,-2.082208
1.268,-14.656087,26.920769,8.224225,5.099236,-3.0425828,-2.27315
1.27,-14.653194,26.98316,8.541274,5.03642,-3.1055248,-2.4659834
1.272,-14.649193,27.037083,8.860033,4.969117,-3.1708658,-2.660599
1.274,-14.6439,27.082071,9.17972,4.897484,-3.2381094,-2.8568518
1.276,-14.636834,27.117691,9.499405,4.821764,-3.3066149,-3.0545802
1.278,-14.627477,27.143568,9.818146,4.742301,-3.375622,-3.2535973
1.28,-14.615458,27.159334,10.135017,4.6594834,-3.4442456,-3.4536958
1.282,-14.600214,27.164618,10.448691,4.573762,-3.5115967,-3.6546853
1.284,-14.580837,27.158783,10.757845,4.485639,-3.576734,-3.8563554
1.286,-14.556721,27.14143,11.06077,4.395614,-3.6387658,-4.0584984
1.288,-14.526571,27.112087,11.355893,4.3041806,-3.6968772,-4.2609205
1.29,-14.48925,27.070421,11.641388,4.2118125,-3.7503781,-4.4634323
1.292,-14.4436,27.016352,11.915724,4.1189113,-3.7987514,-4.665859
1.294,-14.388151,26.949644,12.177493,4.0258565,-3.8416352,-4.8680224
1.296,-14.321973,26.870352,12.425695,3.932981,-3.8788795,-5.0697517
1.298,-14.243964,26.77858,12.6592865,3.8405666,-3.910535,-5.2709045
1.3,-14.152768,26.674515,12.877066,3.7488441,-3.9367962,-5.471347
1.302,-14.04741,26.558407,13.078171,3.6580348,-3.9579728,-5.6709642
1.304,-13.926775,26.430439,13.26179,3.5683365,-3.9744928,-5.8696475
1.306,-13.79002,26.291115,13.427367,3.4799178,-3.9868622,-6.067301
1.308,-13.636395,26.140846,13.574467,3.3929439,-3.995634,-6.263844
1.31,-13.465304,25.980053,13.703016,3.3075356,-4.001365,-6.4592032
1.312,-13.276036,25.809204,13.812885,3.2237759,-4.004608,-6.653294
1.314,-13.067979,25.62864,13.904215,3.1417084,-4.005926,-6.8460345
1.316,-12.841229,25.438894,13.977167,3.0613542,-4.005834,-7.0373507
1.318,-12.59567,25.240273,14.03174,2.9826498,-4.004866,-7.227152
1.32,-12.331275,25.03323,14.068232,2.9055066,-4.0035324,-7.415337
1.322,-12.048233,24.81794,14.086964,2.8298094,-4.0023184,-7.601798
1.324,-11.746661,24.59484,14.088526,2.7554424,-4.0016603,-7.7864146
1.326,-11.426955,24.364092,14.073778,2.682301,-4.0019174,-7.969062
1.328,-11.089642,24.126038,14.043402,2.6103153,-4.003393,-8.149613
1.33,-10.735169,23.880802,13.997849,2.5394168,-4.006356,-8.327946
1.332,-10.363978,23.628635,13.937555,2.4695675,-4.011076,-8.503935
1.334,-9.976616,23.36977,13.863087,2.4007185,-4.0178785,-8.677473
1.336,-9.5735655,23.104416,13.775282,2.332813,-4.027136,-8.84848
1.338,-9.155301,22.83297,13.6748295,2.265746,-4.039304,-9.01687
1.34,-8.722057,22.555586,13.56296,2.1993814,-4.0549045,-9.18258
1.342,-8.274565,22.2727,13.440754,2.133527,-4.074558,-9.345563
1.344,-7.8129263,21.984573,13.309384,2.0679095,-4.098966,-9.505772
1.346,-7.337555,21.691738,13.16999,2.0022352,-4.128901,-9.663153
1.348,-6.849037,21.394602,13.024017,1.9361701,-4.1651797,-9.817652
1.35,-6.3477902,21.093729,12.873458,1.8693538,-4.2085967,-9.969199
1.352,-5.8344316,20.789772,12.720414,1.8014256,-4.2599154,-10.117704
1.354,-5.309496,20.483639,12.5669565,1.7320517,-4.319814,-10.263076
1.356,-4.773912,20.176304,12.4149,1.6609365,-4.3888264,-10.405186
1.358,-4.228015,19.868958,12.266219,1.5878091,-4.467288,-10.543914
1.36,-3.6723433,19.562729,12.122696,1.5124695,-4.5553217,-10.679111
1.362,-3.1072884,19.258738,11.986418,1.4347596,-4.6528683,-10.810636
1.364,-2.5333934,18.958168,11.8596,1.3545647,-4.7597046,-10.938351
1.366,-1.9512019,18.662289,11.744287,1.2718241,-4.875469,-11.062117
1.368,-1.3616185,18.37265,11.642706,1.1864833,-4.9997187,-11.181806
1.37,-0.7656765,18.090553,11.556795,1.0985004,-5.1319237,-11.297297
1.372,-0.16397643,17.81726,11.48779,1.0078124,-5.2715425,-11.408477
1.374,0.44266915,17.553839,11.437133,0.91435146,-5.418037,-11.515251
1.376,1.0534512,17.301506,11.405957,0.8179903,-5.5709863,-11.6175165
1.378,1.6676974,17.061188,11.395053,0.71852523,-5.7301364,-11.715208
1.38,2.2845716,16.833652,11.405227,0.6156818,-5.895383,-11.808258
1.382,2.9031014,16.619568,11.437068,0.50908935,-6.0668163,-11.896609
1.384,3.5224397,16.419506,11.491152,0.3983088,-6.244685,-11.980229
1.386,4.14161,16.233639,11.567649,0.28285447,-6.429304,-12.059134
1.388,4.7594757,16.062014,11.666384,0.16222417,-6.6210384,-12.133334
1.39,5.3746176,15.904467,11.786817,0.03593299,-6.820219,-12.202843
1.392,5.986514,15.760679,11.928518,-0.09643611,-7.0270524,-12.267648
1.394,6.593624,15.630306,12.090846,-0.2351777,-7.241533,-12.327681
1.396,7.1951203,15.51288,12.273249,-0.38044715,-7.4633427,-12.382803
1.398,7.789617,15.4080715,12.474814,-0.53219867,-7.6918206,-12.432853
1.4,8.376045,15.315372,12.694704,-0.6902408,-7.925952,-12.477618
1.402,8.9532,15.234423,12.931731,-0.85421216,-8.164418,-12.516862
1.404,9.519985,15.164988,13.184471,-1.0235997,-8.405659,-12.550329
1.406,10.075316,15.106794,13.45153,-1.1977465,-8.647965,-12.57779
1.408,10.618463,15.059792,13.731835,-1.3759391,-8.889579,-12.599056
1.41,11.148686,15.023885,14.02413,-1.5573995,-9.12879,-12.613948
1.412,11.6652975,14.999547,14.327161,-1.7412934,-9.363993,-12.622324
1.414,12.167738,14.986974,14.639704,-1.9268117,-9.593779,-12.624111
1.416,12.655674,14.9867735,14.96042,-2.1131473,-9.816912,-12.619257
1.418,13.129127,14.998825,15.287993,-2.2995646,-10.032381,-12.607729
1.42,13.588433,15.024414,15.620784,-2.4853947,-10.239426,-12.5895195
1.422,14.034191,15.064064,15.957686,-2.67003,-10.437489,-12.56465
1.424,14.467218,15.118373,16.297337,-2.8529353,-10.626283,-12.533159
1.426,14.889057,15.187724,16.63868,-3.0336323,-10.8057,-12.4951315
1.428,15.3011675,15.272456,16.98096,-3.21173,-10.975796,-12.450677
1.43,15.7052765,15.372543,17.323149,-3.3868423,-11.136709,-12.399993
1.432,16.103775,15.487784,17.664438,-3.5586271,-11.288612,-12.3433
1.434,16.49906,15.617633,18.004036,-3.7267246,-11.431756,-12.280909
1.436,16.894089,15.761111,18.341322,-3.8907604,-11.566461,-12.213083
1.438,17.291739,15.91678,18.67631,-4.050407,-11.693155,-12.140158
1.44,17.694736,16.083054,19.009336,-4.205336,-11.812366,-12.062433
1.442,18.105827,16.25789,19.340702,-4.3552694,-11.92473,-11.980248
1.444,18.527565,16.43903,19.670628,-4.499979,-12.031015,-11.893941
1.446,18.962631,16.62406,19.999144,-4.6392503,-12.132099,-11.803852
1.448,19.413742,16.809921,20.326633,-4.7729454,-12.228866,-11.710224
1.45,19.882935,16.993608,20.65342,-4.900946,-12.322319,-11.613272
1.452,20.372461,17.171972,20.980217,-5.0231586,-12.413361,-11.513146
1.454,20.883532,17.341972,21.308016,-5.1394787,-12.502803,-11.4099045
1.456,21.417088,17.500568,21.638048,-5.249772,-12.591232,-11.303507
1.458,21.973476,17.644863,21.97158,-5.353895,-12.679014,-11.193798
1.46,22.552794,17.772041,22.309887,-5.4516735,-12.766265,-11.080517
1.462,23.154636,17.879353,22.654379,-5.5429344,-12.852844,-10.963316
1.464,23.777754,17.964466,23.00661,-5.6275163,-12.938458,-10.841822
1.466,24.420637,18.025352,23.368017,-5.7053,-13.0226755,-10.715617
1.468,25.081453,18.060118,23.739794,-5.776241,-13.105053,-10.58432
1.47,25.757982,18.067295,24.123213,-5.84037,-13.185135,-10.447609
1.472,26.44813,18.04576,24.518896,-5.8977704,-13.262468,-10.3052635
1.474,27.149427,17.99471,24.92746,-5.948573,-13.336676,-10.157179
1.476,27.859518,17.91351,25.349438,-5.9929304,-13.407458,-10.003371
1.478,28.576527,17.80157,25.785133,-6.030946,-13.474609,-9.843994
1.48,29.29866,17.65869,26.234898,-6.062644,-13.537957,-9.679276
1.482,30.023672,17.48542,26.699316,-6.0879397,-13.597355,-9.509504
1.484,30.749859,17.28205,27.17854,-6.1065903,-13.652637,-9.334986
1.486,31.475946,17.048845,27.672215,-6.118214,-13.703592,-9.156038
1.488,32.201237,16.786282,28.179718,-6.1223245,-13.750023,-8.972941
1.49,32.925205,16.495056,28.69995,-6.1183467,-13.791697,-8.785983
1.492,33.64789,16.175774,29.231808,-6.105629,-13.828453,-8.595358
1.494,34.369495,15.829263,29.773933,-6.0835147,-13.860251,-8.401235
1.496,35.09063,15.456407,30.32555,-6.051414,-13.887218,-8.2037525
1.498,35.812183,15.058556,30.886059,-6.008816,-13.90964,-8.003006
1.5,36.535713,14.636855,31.455164,-5.955303,-13.928019,-7.799076
1.502,37.262234,14.192497,32.032726,-5.8905764,-13.943061,-7.5920963
1.504,37.99403,13.726669,32.61875,-5.8144164,-13.9555235,-7.3821077
1.506,38.732887,13.241043,33.212578,-5.7267303,-13.966299,-7.169099
1.508,39.48129,12.736637,33.81462,-5.6275196,-13.976265,-6.9530373
1.51,40.240555,12.215998,34.424274,-5.516876,-13.986246,-6.7338433
1.512,41.013172,11.681307,35.04107,-5.394988,-13.996986,-6.511403
1.514,41.801296,11.13504,35.664898,-5.26208,-14.009068,-6.2855597
1.516,42.608013,10.580128,36.29599,-5.118429,-14.023008,-6.0560637
1.518,43.435444,10.019977,36.935196,-4.9643273,-14.039232,-5.8225284
1.52,44.285557,9.458574,37.58422,-4.800044,-14.05803,-5.584503
1.522,45.16139,8.899371,38.244713,-4.6258054,-14.079583,-5.341472
1.524,46.065125,8.3473835,38.9181,-4.4417834,-14.104046,-5.0929017
1.526,46.998802,7.8083262,39.605602,-4.2480764,-14.131435,-4.838269
1.528,47.96367,7.2890124,40.30834,-4.0446644,-14.16155,-4.5771346
1.53,48.961597,6.795232,41.027855,-3.8314471,-14.193958,-4.3091154
1.532,49.99402,6.3338537,41.765358,-3.608279,-14.228029,-4.033905
1.534,51.06181,5.9130774,42.52217,-3.374912,-14.262922,-3.7512307
1.536,52.16686,5.540708,43.29958,-3.1310287,-14.297602,-3.4608727
1.538,53.31065,5.225477,44.098778,-2.876257,-14.330982,-3.1626558
1.54,54.494347,4.9769673,44.920723,-2.6101346,-14.361946,-2.856401
1.542,55.718624,4.80541,45.766907,-2.3321419,-14.389362,-2.5419223
1.544,56.98117,4.724476,46.637672,-2.0417738,-14.412256,-2.2188966
1.546,58.28681,4.740785,47.532448,-1.7385099,-14.429705,-1.8867991
1.548,59.636467,4.8631773,48.450966,-1.421834,-14.440876,-1.5449452
1.55,61.03048,5.103328,49.395863,-1.0912577,-14.445017,-1.1926259
1.552,62.467545,5.477132,50.36204,-0.74640745,-14.44146,-0.82902443
1.554,63.94597,6.0017934,51.341682,-0.38707995,-14.429708,-0.45321703
1.556,65.46601,6.6912136,52.33709,-0.01332289,-14.409513,-0.064362764
1.558,67.02873,7.5607266,53.356155,0.37457272,-14.381017,0.33819348
1.56,68.63399,8.626461,54.396824,0.77610797,-14.344759,0.7549643
1.562,70.281204,9.91078,55.45261,1.1905421,-14.301679,1.1865146
1.564,71.96735,11.441664,56.516518,1.6169629,-14.252936,1.6333585
1.566,73.69178,13.2431,57.58612,2.0543196,-14.19976,2.0960207
1.568,75.44764,15.340257,58.660736,2.5014873,-14.143196,2.57527
1.57,77.23276,17.743683,59.74366,2.9573188,-14.083703,3.072187
1.572,79.037544,20.461494,60.8403,3.420622,-14.021116,3.5881543
1.574,80.84531,23.520014,61.93837,3.8903508,-13.954117,4.1247363
1.576,82.66017,26.932459,63.045395,4.3654385,-13.880207,4.6842203
1.578,84.46183,30.719585,64.16839,4.8445625,-13.796039,5.2700787
1.58,86.28288,34.88018,65.32298,5.3264675,-13.697087,5.886551
1.582,88.07631,39.42393,66.54341,5.810608,-13.576765,6.5385737
1.584,89.83656,44.346146,67.86411,6.2968016,-13.426658,7.231328
1.586,91.57275,49.642326,69.307304,6.7838364,-13.238913,7.9698277
1.588,93.3726,55.29325,70.87514,7.2702923,-13.004545,8.759632
1.59,95.31773,61.291313,72.5464,7.7558117,-12.711156,9.607588
1.592,97.35208,67.63255,74.33112,8.240257,-12.344589,10.5208435
1.594,99.45822,74.30307,76.280685,8.723106,-11.8904295,11.50639
1.596,101.65473,81.261696,78.41341,9.20336,-11.333002,12.569959
1.598,103.96303,88.45534,80.767685,9.679286,-10.654715,13.714844
1.6,106.41248,95.836266,83.351906,10.1475935,-9.837038,14.942532
1.602,109.01867,103.28996,86.0912,10.603601,-8.860638,16.253738
1.604,111.83994,110.82657,88.93563,11.042894,-7.703229,17.64675
1.606,114.93156,118.43019,91.93968,11.459522,-6.3407993,19.117357
1.608,118.27368,125.81895,95.21531,11.844252,-4.748788,20.659203
1.61,121.913315,132.92873,98.73781,12.18362,-2.9010923,22.264809
1.612,125.8305,139.68207,102.48144,12.455498,-0.78650475,23.920166
1.614,130.08884,145.98125,106.384186,12.641101,1.6081438,25.614874
1.616,134.70602,151.7638,110.375824,12.726749,4.2916512,27.33731
1.618,139.68762,156.96362,114.38812,12.701637,7.266821,29.070986
1.62,145.01389,161.50618,118.33299,12.560493,10.523978,30.799362
1.622,150.67603,165.2945,122.12808,12.308149,14.037819,32.503918
1.624,156.70676,168.25346,125.68591,11.952659,17.76984,34.160065
1.626,163.06664,170.37291,128.9014,11.512895,21.669514,35.73047
1.628,169.68211,171.66049,131.6509,11.026609,25.672653,37.165672
1.63,176.49554,172.12378,133.80756,10.546425,29.700249,38.41445
1.632,183.44116,171.7754,135.25153,10.135492,33.662945,39.429306
1.634,190.4241,170.64565,135.86566,9.860851,37.449097,40.13773
1.636,197.32574,168.78186,135.54861,9.805561,40.96888,40.45571
1.638,204.02089,166.24474,134.21478,10.038383,44.152363,40.306805
1.64,210.37726,163.10413,131.80356,10.605212,46.942154,39.61513
1.642,216.25763,159.43803,128.28351,11.529298,49.30475,38.31287
1.644,221.52481,155.32281,123.65751,12.793872,51.216602,36.35208
1.646,226.0502,150.83632,117.947105,14.337643,52.656254,33.707905
1.648,229.71143,146.04933,111.202446,16.056866,53.59859,30.38507
1.65,232.40294,141.02803,103.509674,17.811531,54.007923,26.425648
1.652,234.03496,135.84154,94.98851,19.44115,53.84751,21.918636
1.654,234.53506,130.55698,85.79283,20.782309,53.081875,16.994726
1.656,233.8557,125.23859,76.09943,21.685658,51.67668,11.808237
1.658,231.98257,119.93979,66.10255,22.030565,49.60793,6.524351
1.66,228.9253,114.708664,56.00734,21.737495,46.873768,1.3084564
1.662,224.72304,109.58518,46.031,20.774754,43.501213,-3.6847553
1.664,219.4424,104.60465,36.387573,19.157722,39.545662,-8.321405
1.666,213.17175,99.80278,27.271446,16.945019,35.097466,-12.492021
1.668,206.01987,95.21206,18.857872,14.219932,30.256538,-16.12382
1.67,198.11472,90.86251,11.310005,11.085119,25.135227,-19.173115
1.672,189.59906,86.77666,4.7628098,7.6580563,19.85249,-21.621132
1.674,180.62823,82.971954,-0.6854019,4.0608606,14.531998,-23.475866
1.676,171.3592,79.469284,-4.977871,0.41330338,9.296445,-24.764782
1.678,161.95337,76.28552,-8.0941925,-3.16616,4.262319,-25.527939
1.68,152.56071,73.44544,-10.050241,-6.5765142,-0.4624613,-25.813349
1.682,143.32875,70.96437,-10.893005,-9.740238,-4.7788324,-25.678902
1.684,134.39442,68.83311,-10.682676,-12.595429,-8.594557,-25.197405
1.686,125.8583,67.048485,-9.525234,-15.094804,-11.829647,-24.44934
1.688,117.82579,65.59204,-7.542634,-17.20606,-14.413427,-23.493923
1.69,110.3363,64.455666,-4.8761377,-18.923925,-16.323336,-22.388655
1.692,103.48661,63.608505,-1.6846733,-20.244402,-17.564922,-21.19717
1.694,97.301476,63.02391,1.8810606,-21.171932,-18.162119,-19.971489
1.696,91.77734,62.664047,5.6893787,-21.728895,-18.170486,-18.755278
1.698,86.84124,62.49471,9.631388,-21.943426,-17.663418,-17.587725
1.7,82.448006,62.462486,13.618837,-21.849575,-16.727541,-16.499107
1.702,78.67008,62.51046,17.537125,-21.489197,-15.461697,-15.5142765
1.704,75.49939,62.593624,21.257097,-20.911497,-13.972297,-14.656902
1.706,72.8773,62.68923,24.710512,-20.174425,-12.374342,-13.95354
1.708,70.74098,62.776596,27.830833,-19.341415,-10.7772665,-13.426086
1.71,69.02102,62.824463,30.599422,-18.476814,-9.272975,-13.081392
1.712,67.66259,62.853455,33.06997,-17.641188,-7.935894,-12.912763
1.714,66.57621,62.76644,35.251038,-16.886305,-6.821581,-12.905912
1.716,65.69198,62.52616,37.06527,-16.252548,-5.965376,-13.041177
1.718,65.009964,62.32008,38.432472,-15.767004,-5.3820033,-13.2934475
1.72,64.45781,62.07929,39.43277,-15.442911,-5.067384,-13.63266
1.722,64.02713,61.772003,40.130905,-15.281257,-5.003365,-14.025693
1.724,63.629543,61.399384,40.607666,-15.2725115,-5.1620493,-14.43839
1.726,63.235703,60.94229,40.92633,-15.399688,-5.510252,-14.837736
1.728,62.824577,60.40625,41.127525,-15.641249,-6.0133777,-15.193785
1.73,62.390785,59.816925,41.254818,-15.974801,-6.6383276,-15.4815235
1.732,61.907555,59.224392,41.330254,-16.377708,-7.3560624,-15.681803
1.734,61.315125,58.65563,41.371803,-16.825773,-8.140983,-15.781202
1.736,60.62591,58.089966,41.40547,-17.295717,-8.970144,-15.771976
1.738,59.865578,57.51861,41.46285,-17.767841,-9.825662,-15.651314
1.74,59.025665,56.955406,41.566795,-18.225601,-10.69335,-15.420572
1.742,58.097496,56.42271,41.728687,-18.654884,-11.559879,-15.084663
1.744,57.092163,55.934402,41.958355,-19.043953,-12.411961,-14.65053
1.746,56.02842,55.497177,42.25583,-19.383135,-13.236149,-14.126184
1.748,54.91725,55.115494,42.61845,-19.664267,-14.018402,-13.520134
1.75,53.766174,54.792274,43.036915,-19.880346,-14.744116,-12.841129
1.752,52.583176,54.52814,43.49737,-20.025578,-15.398576,-12.097969
1.754,51.374756,54.326435,43.982456,-20.09533,-15.96746,-11.299739
1.756,50.14347,54.188496,44.48652,-20.086082,-16.437397,-10.456043
1.758,48.89563,54.117294,45.00357,-19.995306,-16.796509,-9.577073
1.76,47.634895,54.113167,45.52111,-19.82148,-17.03506,-8.673433
1.762,46.367302,54.167175,46.02145,-19.564241,-17.146057,-7.755964
1.764,45.1028,54.26701,46.483147,-19.224579,-17.125671,-6.835511
1.766,43.84259,54.406403,46.88762,-18.804886,-16.973537,-5.9223557
1.768,42.587868,54.58024,47.21757,-18.309093,-16.69275,-5.0256033
1.77,41.343166,54.780785,47.456306,-17.742794,-16.28969,-4.152957
1.772,40.111717,55.00145,47.58908,-17.113173,-15.77369,-3.310709
1.774,38.895092,55.236923,47.603535,-16.428751,-15.156507,-2.5036278
1.776,37.69499,55.481834,47.489254,-15.699169,-14.451766,-1.7349663
1.778,36.51396,55.72951,47.238754,-14.935013,-13.674698,-1.0066624
1.78,35.354504,55.972454,46.848755,-14.147558,-12.841677,-0.31962395
1.782,34.21742,56.203854,46.321106,-13.348412,-11.969626,0.32601738
1.784,33.102036,56.417595,45.66143,-12.549028,-11.075489,0.9307523
1.786,32.007442,56.6082,44.878178,-11.760357,-10.175768,1.4955602
1.788,30.932858,56.770653,43.981457,-10.992493,-9.286076,2.0219002
1.79,29.877266,56.900604,42.981842,-10.254415,-8.420645,2.511652
1.792,28.838612,56.994717,41.8908,-9.553689,-7.592,2.96702
1.794,27.815771,57.050262,40.72129,-8.896337,-6.810732,3.390366
1.796,26.806496,57.06661,39.487373,-8.286787,-6.0853643,3.7840562
1.798,25.809149,57.044746,38.204487,-7.727896,-5.422309,4.150341
1.8,24.822231,56.986465,36.889206,-7.22105,-4.825837,4.4913116
1.802,23.844267,56.894264,35.55754,-6.7662888,-4.298258,4.808875
1.804,22.87385,56.771126,34.225147,-6.362451,-3.840034,5.10481
1.806,21.909523,56.61982,32.907127,-6.0073457,-3.449945,5.380778
1.808,20.949038,56.443615,31.617592,-5.69793,-3.1252198,5.6383877
1.81,19.99016,56.24549,30.368721,-5.430464,-2.8617444,5.879155
1.812,19.030447,56.02823,29.1712,-5.200678,-2.6541555,6.1045036
1.814,18.067987,55.7949,28.033648,-5.003942,-2.4960816,6.315779
1.816,17.101627,55.548187,26.963001,-4.8354387,-2.3804207,6.5142355
1.818,16.130844,55.2909,25.964266,-4.6903267,-2.2995086,6.7010546
1.82,15.155627,55.02595,25.040968,-4.5638986,-2.2453008,6.87731
1.822,14.176201,54.756348,24.194756,-4.4517426,-2.209721,7.0440025
1.824,13.193523,54.485176,23.425434,-4.3499503,-2.1849248,7.202145
1.826,12.209067,54.21508,22.73109,-4.255281,-2.1635978,7.3526444
1.828,11.224489,53.948025,22.10837,-4.165159,-2.1391435,7.496352
1.83,10.24252,53.685463,21.552437,-4.0777197,-2.105826,7.6341095
1.832,9.266296,53.42845,21.057135,-3.991728,-2.0587869,7.7668066
1.834,8.29881,53.17766,20.614897,-3.906491,-1.9939655,7.8953314
1.836,7.3432684,52.933697,20.217335,-3.821661,-1.9079955,8.020496
1.838,6.4037046,52.69663,19.854773,-3.7370977,-1.7980536,8.143009
1.84,5.4850283,52.46581,19.51672,-3.6526415,-1.6616355,8.263517
1.842,4.5919666,52.240482,19.192669,-3.5679336,-1.4963459,8.382537
1.844,3.729168,52.019386,18.871496,-3.48233,-1.299883,8.500317
1.846,2.9011707,51.801258,18.541956,-3.3948967,-1.0699884,8.616818
1.848,2.1121483,51.58426,18.192738,-3.3043952,-0.80452883,8.731586
1.85,1.3662791,51.36668,17.812647,-3.2093997,-0.5016527,8.843785
1.852,0.6672754,51.146523,17.390697,-3.1084542,-0.16010112,8.952082
1.854,0.018465996,50.922085,16.91644,-3.0002882,0.22046587,9.054674
1.856,-0.57749844,50.691574,16.380688,-2.8840008,0.6391205,9.149275
1.858,-1.1183627,50.452904,15.775522,-2.7592711,1.0934374,9.233179
1.86,-1.602742,50.204227,15.094452,-2.6263957,1.5793555,9.30344
1.862,-2.0307212,49.944164,14.332588,-2.486364,2.0910788,9.3569145
1.864,-2.4033842,49.6713,13.486424,-2.3408253,2.6212106,9.390459
1.866,-2.7229812,49.384644,12.553996,-2.1919372,3.160964,9.4010725
1.868,-2.9925976,49.08296,11.534703,-2.042215,3.700541,9.386072
1.87,-3.2161837,48.76532,10.429379,-1.8943119,4.2296534,9.343222
1.872,-3.3985317,48.43081,9.241,-1.7508717,4.737997,9.270836
1.874,-3.5447552,48.07882,7.9741797,-1.6143372,5.215712,9.167812
1.876,-3.6605015,47.70847,6.6350174,-1.4868252,5.65388,9.033659
1.878,-3.7519298,47.31908,5.23092,-1.3700192,6.044857,8.868492
1.88,-3.8250246,46.910194,3.7704716,-1.2651052,6.3826036,8.673022
1.882,-3.8857555,46.481186,2.2634382,-1.1728702,6.6626635,8.448517
1.884,-3.939618,46.03137,0.7206259,-1.0937066,6.882207,8.196757
1.886,-3.9915633,45.56,-0.84653664,-1.0277063,7.039916,7.919958
1.888,-4.045952,45.066235,-2.4263487,-0.9747058,7.135843,7.6208405
1.89,-4.106517,44.549286,-4.0070667,-0.93434775,7.1711755,7.3025374
1.892,-4.1763115,44.00857,-5.5771627,-0.9061265,7.1480494,6.968514
1.894,-4.2574835,43.443638,-7.1252365,-0.8893987,7.0693855,6.622444
1.896,-4.3513765,42.854218,-8.640647,-0.8837882,6.937269,6.270666
1.898,-4.4583645,42.24022,-10.1136,-0.887676,6.757776,5.9135103
1.9,-4.577919,41.601616,-11.534944,-0.9000795,6.534439,5.5563517
1.902,-4.7087936,40.93855,-12.896291,-0.91951114,6.2719393,5.202767
1.904,-4.84949,40.25139,-14.190323,-0.94424444,5.975168,4.8558083
1.906,-4.9975348,39.540592,-15.41073,-0.97235173,5.649223,4.5179024
1.908,-5.1502876,38.806606,-16.552544,-1.0017275,5.2993083,4.1907735
1.91,-5.305126,38.05045,-17.611944,-1.0301132,4.930734,3.8754632
1.912,-5.458949,37.273254,-18.585804,-1.0552107,4.548743,3.5723004
1.914,-5.6089354,36.47637,-19.472342,-1.0748053,4.158432,3.2809887
1.916,-5.752162,35.661575,-20.270294,-1.0868078,3.76467,3.000814
1.918,-5.8856516,34.830814,-20.979713,-1.0893692,3.3719492,2.7307897
1.92,-6.00708,33.986313,-21.601273,-1.0809863,2.984208,2.4698634
1.922,-6.1142178,33.13057,-22.136093,-1.0605553,2.6047027,2.2171109
1.924,-6.205523,32.265953,-22.585884,-1.0273771,2.2359455,1.9718721
1.926,-6.2797704,31.395084,-22.952908,-0.981176,1.8796667,1.7338185
1.928,-6.3362293,30.520933,-23.240246,-0.92208076,1.5368648,1.5029588
1.93,-6.3741345,29.6464,-23.451473,-0.85055166,1.2079202,1.2795624
1.932,-6.393173,28.774467,-23.590467,-0.7673265,0.8927191,1.06403
1.934,-6.3933773,27.907873,-23.661198,-0.67333615,0.590773,0.85679245
1.936,-6.3751454,27.04946,-23.667671,-0.5695881,0.30143964,0.6582023
1.938,-6.3387074,26.202095,-23.614168,-0.4571256,0.023990199,0.4685033
1.94,-6.2849174,25.36858,-23.50493,-0.3369222,-0.24226005,0.2878031
1.942,-6.2146206,24.551361,-23.343632,-0.20986122,-0.49794742,0.11606754
1.944,-6.128594,23.752962,-23.133844,-0.076735854,-0.74358165,-0.0468363
1.946,-6.027684,22.975698,-22.879368,0.061808188,-0.9795244,-0.20112224
1.948,-5.9127383,22.221788,-22.583673,0.20522979,-1.2060297,-0.3470354
1.95,-5.7847376,21.493198,-22.250088,0.3533348,-1.4223987,-0.4863366
1.952,-5.644512,20.791714,-21.88198,0.50516593,-1.6307847,-0.6156791
1.954,-5.4928927,20.11866,-21.482298,0.6608046,-1.8298434,-0.7377946
1.956,-5.330222,19.475157,-21.053946,0.8198949,-2.019652,-0.85289633
1.958,-5.1571217,18.86206,-20.59974,0.9820746,-2.2003098,-0.96123093
1.96,-4.9739866,18.27985,-20.122229,1.1469507,-2.3719718,-1.0630682
1.962,-4.781336,17.728989,-19.62381,1.3140628,-2.5348477,-1.1587329
1.964,-4.58,17.209475,-19.10653,1.482858,-2.689282,-1.248596
1.966,-4.370473,16.721397,-18.57267,1.6527276,-2.835725,-1.3330147
1.968,-4.1533213,16.264687,-18.024298,1.8230147,-2.9747467,-1.4123746
1.97,-3.929006,15.838931,-17.463402,1.9930198,-3.1069934,-1.4870819
1.972,-3.697526,15.443376,-16.891754,2.1620407,-3.2332044,-1.5575705
1.974,-3.4592175,15.077257,-16.310884,2.3293815,-3.3541508,-1.6242883
1.976,-3.214435,14.73959,-15.722301,2.4943836,-3.4705982,-1.687691
1.978,-2.9639075,14.429494,-15.127352,2.6564472,-3.5832791,-1.7482023
1.98,-2.7081308,14.145967,-14.527433,2.8150594,-3.692848,-1.8061998
1.982,-2.447535,13.887938,-13.923982,2.9698048,-3.7998285,-1.8619816
1.984,-2.1826484,13.654257,-13.318455,3.120365,-3.9045975,-1.9157679
1.986,-1.9140232,13.444166,-12.712084,3.2665281,-4.0073595,-1.9676704
1.988,-1.6422486,13.256649,-12.106167,3.4081755,-4.108149,-2.0177011
1.99,-1.367743,13.090767,-11.50177,3.5452845,-4.2068524,-2.0657783
1.992,-1.0909142,12.945683,-10.900053,3.677924,-4.3032,-2.1117527
1.994,-0.8122721,12.820692,-10.30219,3.806224,-4.3968554,-2.155415
1.996,-0.53226995,12.71517,-9.709393,3.930366,-4.487394,-2.1965256
1.998,-0.2511425,12.628523,-9.122685,4.0505767,-4.5743766,-2.2348347
2,0.030525208,12.560223,-8.543054,4.167079,-4.657402,-2.2701223
2.002,0.31248522,12.509749,-7.971277,4.280093,-4.736149,-2.3022227
2.004,0.5944042,12.47674,-7.408167,4.38982,-4.8103914,-2.3310473
2.006,0.87612796,12.460623,-6.8542223,4.4963984,-4.8800097,-2.3566031
2.008,1.1571968,12.461141,-6.309773,4.5999465,-4.9450426,-2.3790007
2.01,1.4375648,12.477767,-5.7750387,4.7005267,-5.005652,-2.39844
2.012,1.7171514,12.510097,-5.249995,4.798167,-5.0621066,-2.4152036
2.014,1.9957733,12.5578,-4.734438,4.892882,-5.1147647,-2.4296422
2.016,2.2733238,12.620329,-4.2280264,4.984672,-5.164058,-2.442141
2.018,2.5499144,12.697208,-3.7301629,5.0735545,-5.210423,-2.4530795
2.02,2.8255405,12.788029,-3.240154,5.1595697,-5.2542787,-2.4628425
2.022,3.100326,12.892227,-2.7576103,5.2427936,-5.2959466,-2.4717412
2.024,3.3746147,13.00918,-2.281592,5.3233504,-5.3356576,-2.4799943
2.026,3.6483226,13.138212,-1.8112234,5.4014406,-5.3735003,-2.4877367
2.028,3.9216657,13.278754,-1.3457131,5.477279,-5.409421,-2.4950132
2.03,4.195106,13.430134,-0.88424563,5.551142,-5.4432273,-2.5017812
2.032,4.4688087,13.591691,-0.4259904,5.6233225,-5.4745855,-2.5079076
2.034,4.743101,13.76275,0.029967546,5.694149,-5.503042,-2.513192
2.036,5.0181494,13.942774,0.48419595,5.7639484,-5.5280766,-2.5174086
2.038,5.294482,14.13092,0.93748236,5.8330383,-5.5491157,-2.5203195
2.04,5.572276,14.326581,1.3903422,5.9017386,-5.565574,-2.5217042
2.042,5.8517437,14.528997,1.8433399,5.970337,-5.5769057,-2.5213985
2.044,6.1331,14.737637,2.2969043,6.0390778,-5.582607,-2.5193095
2.046,6.4164977,14.951666,2.7514176,6.108168,-5.582296,-2.5154188
2.048,6.7019277,15.1701765,3.207159,6.1777306,-5.5757036,-2.5097945
2.05,6.9894114,15.392383,3.6643496,6.2478666,-5.562741,-2.5025916
2.052,7.2787957,15.617499,4.1231937,6.318619,-5.54344,-2.494062
2.054,7.5699306,15.844541,4.5838227,6.389941,-5.517965,-2.48454
2.056,7.8625183,16.072708,5.0465317,6.461742,-5.4866176,-2.4743943
2.058,8.156294,16.300829,5.511423,6.5338774,-5.449762,-2.463995
2.06,8.450615,16.528019,5.978519,6.6061673,-5.407839,-2.4537053
2.062,8.745149,16.753231,6.4479284,6.6783943,-5.361328,-2.443832
2.064,9.039344,16.975534,6.919547,6.75031,-5.310726,-2.4346516
2.066,9.332474,17.193985,7.393127,6.821627,-5.2565017,-2.4263382
2.068,9.623924,17.407602,7.8686175,6.8920608,-5.199077,-2.4190035
2.07,9.912796,17.61553,8.346099,6.961338,-5.1388407,-2.4126492
2.072,10.198755,17.816908,8.825183,7.029191,-5.0761223,-2.4072027
2.074,10.481226,18.011063,9.3053465,7.095395,-5.0112114,-2.4025075
2.076,10.759348,18.197388,9.786186,7.159774,-4.944339,-2.3983374
2.078,11.032424,18.375172,10.267202,7.2222023,-4.8756566,-2.3944056
2.08,11.299878,18.543911,10.747816,7.2826347,-4.805256,-2.3903623
2.082,11.560992,18.703074,11.227661,7.3410883,-4.7331533,-2.3858232
2.084,11.815103,18.852057,11.705983,7.3976364,-4.6593213,-2.3804035
2.086,12.061552,18.990444,12.18239,7.4523897,-4.583683,-2.373757
2.088,12.299598,19.117735,12.656369,7.505477,-4.506161,-2.365569
2.09,12.528457,19.233553,13.127514,7.5570393,-4.4266925,-2.3556125
2.092,12.747524,19.337261,13.595454,7.607194,-4.3452315,-2.3437896
2.094,12.956422,19.428133,14.059937,7.6560116,-4.2617784,-2.3301167
2.096,13.154405,19.505695,14.52068,7.7034874,-4.176384,-2.3147454
2.098,13.340744,19.56961,14.977281,7.7495604,-4.0891542,-2.2979493
2.1,13.514934,19.619299,15.4293375,7.7940884,-4.000277,-2.2800872
2.102,13.676373,19.654083,15.876526,7.836838,-3.9099247,-2.261547
2.104,13.8244705,19.673672,16.318249,7.877494,-3.8182688,-2.2427158
2.106,13.9588585,19.677557,16.754028,7.915674,-3.7254324,-2.2239513
2.108,14.079253,19.665264,17.18324,7.9510245,-3.6314254,-2.205552
2.11,14.185434,19.636442,17.604973,7.983133,-3.5361228,-2.187754
2.112,14.277126,19.590816,18.01825,8.011619,-3.4392893,-2.1706936
2.114,14.354517,19.528164,18.421825,8.036161,-3.3405607,-2.154392
2.116,14.417334,19.448645,18.81437,8.056511,-3.2394514,-2.1387787
2.118,14.466113,19.35215,19.194096,8.072506,-3.1354074,-2.123702
2.12,14.501028,19.238953,19.559275,8.084097,-3.0278482,-2.1089923
2.122,14.522818,19.109333,19.907734,8.091302,-2.9161968,-2.0944676
2.124,14.531929,18.963772,20.237125,8.09417,-2.7999237,-2.0799673
2.126,14.529332,18.802895,20.545156,8.092813,-2.6785707,-2.0653777
2.128,14.515913,18.62738,20.829327,8.087318,-2.5517836,-2.0507054
2.13,14.492968,18.437744,21.087185,8.077803,-2.4193785,-2.0360503
2.132,14.461413,18.234905,21.316334,8.064364,-2.2813158,-2.021589
2.134,14.422597,18.019861,21.514292,8.047058,-2.1376946,-2.0076044
2.136,14.377975,17.793781,21.678667,8.0259075,-1.9887338,-1.9944506
2.138,14.328897,17.557825,21.80739,8.0009165,-1.8347661,-1.9824849
2.14,14.276758,17.313221,21.898508,7.9720306,-1.6761858,-1.9720247
2.142,14.222864,17.06146,21.950274,7.939148,-1.5134768,-1.9633722
2.144,14.168729,16.804035,21.961483,7.902121,-1.3471367,-1.9567127
2.146,14.115725,16.542479,21.931225,7.860774,-1.1777251,-1.9521414
2.148,14.064914,16.2786,21.858906,7.814905,-1.00578,-1.9496608
2.15,14.017399,16.014174,21.744461,7.76433,-0.8318789,-1.9491239
2.152,13.974209,15.751159,21.588297,7.7088346,-0.6566355,-1.9502611
2.154,13.936205,15.491332,21.391327,7.6482363,-0.48068094,-1.9527249
2.156,13.904089,15.236548,21.154755,7.582368,-0.30475354,-1.9561241
2.158,13.878383,14.988826,20.880377,7.5110807,-0.12964869,-1.9599681
2.16,13.859443,14.750076,20.570461,7.4342475,0.043788433,-1.9637078
2.162,13.847403,14.522028,20.227295,7.351717,0.21467018,-1.9667717
2.164,13.842323,14.306598,19.8538,7.2633357,0.3820789,-1.96866
2.166,13.844116,14.10508,19.452923,7.1689267,0.5451207,-1.9689707
2.168,13.852464,13.919014,19.028149,7.068329,0.7029357,-1.9674417
2.17,13.866884,13.749568,18.583218,6.961379,0.8546822,-1.9639759
2.172,13.886772,13.597619,18.121845,6.847933,0.9995372,-1.9586542
2.174,13.911453,13.463923,17.647974,6.72785,1.1366653,-1.951749
2.176,13.940325,13.348789,17.165636,6.6010556,1.2652361,-1.9436938
2.178,13.973071,13.252398,16.678442,6.467521,1.3844261,-1.9350879
2.18,14.008681,13.174651,16.19024,6.3272805,1.4934088,-1.9266014
2.182,14.045954,13.115062,15.705194,6.18044,1.5913625,-1.9189378
2.184,14.084102,13.072958,15.226971,6.0271397,1.6775259,-1.9127568
2.186,14.12261,13.0472,14.759024,5.867577,1.7511704,-1.9086857
2.188,14.160856,13.036705,14.304568,5.7020216,1.811615,-1.907213
2.19,14.198405,13.040003,13.866543,5.530802,1.8582561,-1.9087152
2.192,14.234827,13.055504,13.447298,5.354313,1.890558,-1.9134848
2.194,14.269892,13.0816,13.049145,5.173027,1.9080977,-1.9217556
2.196,14.303379,13.116503,12.673947,4.987475,1.9105763,-1.9336789
2.198,14.335122,13.158379,12.323091,4.7982574,1.8977989,-1.9493856
2.2,14.36514,13.205385,11.997773,4.6060214,1.8697373,-1.9689689
2.202,14.393435,13.255521,11.698756,4.4114866,1.826493,-1.992513
2.204,14.419775,13.306978,11.426515,4.215417,1.7683635,-2.020131
2.206,14.444558,13.357802,11.181152,4.01863,1.695831,-2.0519083
2.208,14.468057,13.405929,10.962711,3.8219805,1.6095145,-2.0878909
2.21,14.490157,13.449815,10.770684,3.6263247,1.5101888,-2.1281047
2.212,14.510892,13.487949,10.604512,3.4325523,1.3988359,-2.1725376
2.214,14.530615,13.518588,10.463379,3.2415502,1.2765855,-2.2211058
2.216,14.549301,13.54047,10.346109,3.054156,1.1446481,-2.2736683
2.218,14.566747,13.552508,10.251417,2.8711448,1.0042908,-2.3299787
2.22,14.583003,13.553728,10.177826,2.6931808,0.8568279,-2.389724
2.222,14.598094,13.5432625,10.123759,2.5208073,0.7035944,-2.4525492
2.224,14.611725,13.520548,10.087531,2.354465,0.54596347,-2.5180688
2.226,14.623966,13.484898,10.0673065,2.1944885,0.38532412,-2.5858705
2.228,14.634637,13.436206,10.0612755,2.0410976,0.22309989,-2.6555252
2.23,14.643525,13.374269,10.067495,1.8944283,0.06070757,-2.726617
2.232,14.650268,13.299404,10.0843525,1.7545378,-0.10045415,-2.7987041
2.234,14.654923,13.211733,10.109836,1.6214061,-0.25906235,-2.871321
2.236,14.657228,13.111741,10.142132,1.494968,-0.41389057,-2.9439802
2.238,14.657118,13.000067,10.179424,1.375132,-0.5638919,-3.0161927
2.24,14.654442,12.877463,10.219866,1.2617874,-0.7082192,-3.0874693
2.242,14.649321,12.744652,10.261944,1.1548057,-0.84627694,-3.1573465
2.244,14.641735,12.602583,10.304104,1.0540488,-0.97773796,-3.2253788
2.246,14.63182,12.4521055,10.345006,0.9593576,-1.1025262,-3.2911813
2.248,14.619762,12.294119,10.38333,0.87056744,-1.2208122,-3.3544283
2.25,14.60566,12.129692,10.41812,0.7875148,-1.3329358,-3.4148855
2.252,14.589796,11.959672,10.4484215,0.71001303,-1.4393773,-3.4723897
2.254,14.572191,11.785186,10.473423,0.6378608,-1.5406916,-3.5268655
2.256,14.553088,11.607161,10.492495,0.57081944,-1.6374559,-3.5782964
2.258,14.532759,11.426441,10.50523,0.50861526,-1.7302264,-3.6267097
2.26,14.511566,11.243801,10.511339,0.45095342,-1.8195239,-3.6721659
2.262,14.489763,11.059965,10.510632,0.39749527,-1.905797,-3.714732
2.264,14.467464,10.875628,10.50306,0.34790874,-1.9894607,-3.7544723
2.266,14.444831,10.691562,10.488783,0.30181593,-2.0709465,-3.7914677
2.268,14.4221115,10.508203,10.467989,0.2588492,-2.1506388,-3.8258069
2.27,14.399371,10.325989,10.440848,0.21869159,-2.2288175,-3.8575583
2.272,14.376912,10.145348,10.407717,0.18105257,-2.305749,-3.8868058
2.274,14.355224,9.966515,10.368793,0.14566445,-2.3816712,-3.9136283
2.276,14.333782,9.789917,10.324475,0.11228824,-2.4567673,-3.938092
2.278,14.312871,9.615627,10.275008,0.080706,-2.5311873,-3.9602654
2.28,14.292639,9.443821,10.220703,0.050724506,-2.605032,-3.9802327
2.282,14.273048,9.274445,10.161916,0.022181869,-2.6783376,-3.9980874
2.284,14.254154,9.107402,10.098843,-0.0050826073,-2.7510633,-4.0139422
2.286,14.23584,8.942781,10.031846,-0.031188011,-2.8231013,-4.027941
2.288,14.218033,8.78038,9.9613085,-0.05625844,-2.8942816,-4.0402327
2.29,14.200836,8.620213,9.88703,-0.080390215,-2.9643688,-4.050968
2.292,14.184458,8.462129,9.809003,-0.10366869,-3.0330594,-4.0602975
2.294,14.168777,8.306009,9.727458,-0.12615848,-3.1000175,-4.0683293
2.296,14.153607,8.151904,9.642523,-0.14790535,-3.1648679,-4.075137
2.298,14.138828,7.999776,9.554276,-0.16892743,-3.2272134,-4.080772
2.3,14.124151,7.849689,9.462738,-0.1892122,-3.2866652,-4.0852084
2.302,14.109531,7.701535,9.368009,-0.2087233,-3.3428388,-4.0883927
2.304,14.094999,7.55533,9.270167,-0.22743058,-3.3953753,-4.0902495
2.306,14.080412,7.4109254,9.169158,-0.24527204,-3.4439478,-4.090688
2.308,14.065838,7.268373,9.065109,-0.26218832,-3.4882789,-4.0895996
2.31,14.05104,7.1276207,8.958048,-0.27810776,-3.5281932,-4.0869083
2.312,14.035915,6.988949,8.848109,-0.29299617,-3.5635781,-4.0825243
2.314,14.0205145,6.8523974,8.735528,-0.30682933,-3.5944011,-4.076429
2.316,14.004599,6.7178993,8.620589,-0.31963134,-3.6207244,-4.068634
2.318,13.987986,6.585749,8.503644,-0.33145946,-3.6427212,-4.059228
2.32,13.970806,6.4557476,8.385281,-0.34240913,-3.6606517,-4.0483785
2.322,13.952883,6.3280544,8.265895,-0.35260332,-3.6748548,-4.0363216
2.324,13.934146,6.202745,8.146083,-0.36217737,-3.685731,-4.0233626
2.326,13.914396,6.0797634,8.026497,-0.37125784,-3.6937032,-4.0098224
2.328,13.89361,5.959159,7.907824,-0.379965,-3.699224,-3.9960287
2.33,13.8717985,5.840904,7.790762,-0.3883925,-3.7027295,-3.9822342
2.332,13.848742,5.725063,7.6758766,-0.39659828,-3.704589,-3.9686258
2.334,13.824286,5.6115465,7.563886,-0.40460026,-3.7050908,-3.9552526
2.336,13.798523,5.5005007,7.455289,-0.41237617,-3.7044008,-3.9420524
2.338,13.771138,5.391831,7.3506975,-0.41986132,-3.702567,-3.928835
2.34,13.742306,5.28565,7.2504826,-0.42698705,-3.699494,-3.9153118
2.342,13.712041,5.1818466,7.154817,-0.4336561,-3.6949449,-3.901147
2.344,13.680229,5.080493,7.06404,-0.43975317,-3.6885967,-3.8860073
2.346,13.646915,4.981623,6.9781065,-0.44514644,-3.680041,-3.8695893
2.348,13.61216,4.8852596,6.8969655,-0.44969743,-3.6688306,-3.851667
2.35,13.575998,4.7915015,6.820454,-0.45325798,-3.6545072,-3.832098
2.352,13.538606,4.700454,6.748215,-0.45566547,-3.6366534,-3.810848
2.354,13.500038,4.6120954,6.679792,-0.45673996,-3.614898,-3.7879772
2.356,13.460471,4.526518,6.6146593,-0.4562933,-3.5889654,-3.7636201
2.358,13.419998,4.443836,6.552301,-0.45412064,-3.5586636,-3.7379444
2.36,13.37882,4.36407,6.492041,-0.45004472,-3.5239286,-3.7111554
2.362,13.337152,4.2872543,6.433325,-0.4439014,-3.4847841,-3.6834743
2.364,13.295203,4.2133923,6.375467,-0.43555665,-3.4413254,-3.6551006
2.366,13.253222,4.1426744,6.3179636,-0.42490205,-3.3937604,-3.626209
2.368,13.211332,4.0751085,6.2602696,-0.41189435,-3.342361,-3.5969412
2.37,13.169667,4.010816,6.2019095,-0.39652452,-3.287458,-3.5674086
2.372,13.128404,3.9499135,6.1425147,-0.378851,-3.2294145,-3.5376701
2.374,13.087808,3.8925571,6.0817423,-0.35896486,-3.168614,-3.5077343
2.376,13.048136,3.8387127,6.019526,-0.33700848,-3.1054707,-3.477598
2.378,13.009482,3.7885482,5.9557724,-0.3131547,-3.0404096,-3.4472277
2.38,12.97204,3.742176,5.8905187,-0.28761202,-2.9738536,-3.4165995
2.382,12.935865,3.6997538,5.8239937,-0.26059973,-2.9062083,-3.3856773
2.384,12.900691,3.661479,5.7563267,-0.23233324,-2.837889,-3.3544667
2.386,12.867239,3.6273813,5.687746,-0.20304602,-2.7692814,-3.322969
2.388,12.835393,3.5977635,5.618444,-0.17298162,-2.7007601,-3.291211
2.39,12.805131,3.5726056,5.5486226,-0.14235026,-2.6326537,-3.259227
2.392,12.77659,3.5522137,5.478453,-0.111371994,-2.565254,-3.2270534
2.394,12.749718,3.5366578,5.408266,-0.08024195,-2.4987736,-3.1947272
2.396,12.724507,3.5260959,5.3380938,-0.049124718,-2.4333792,-3.162271
2.398,12.701003,3.5204635,5.268158,-0.01817961,-2.3691652,-3.1296992
2.4,12.67927,3.5196526,5.198641,0.012465745,-2.306159,-3.0970209
2.402,12.659209,3.523708,5.129588,0.042724058,-2.244317,-3.0642414
2.404,12.640886,3.5324717,5.06089,0.07254462,-2.1835594,-3.0313601
2.406,12.6242285,3.5458794,4.992541,0.10190505,-2.1237707,-2.9983668
2.408,12.609161,3.563663,4.924164,0.13081445,-2.0648217,-2.9652584
2.41,12.595743,3.5857487,4.8556137,0.15931615,-2.0065775,-2.9320228
2.412,12.583985,3.6118376,4.7864585,0.18747617,-1.9489152,-2.898643
2.414,12.573621,3.6417642,4.7162724,0.21537471,-1.8917317,-2.8651206
2.416,12.56483,3.67524,4.644604,0.24308604,-1.8349539,-2.8314369
2.418,12.557491,3.7119803,4.5710135,0.2706901,-1.7785397,-2.79759
2.42,12.55177,3.7515528,4.4950514,0.298246,-1.7224939,-2.7635872
2.422,12.547524,3.7936416,4.416277,0.3257861,-1.6668507,-2.7294385
2.424,12.544882,3.8378325,4.3342032,0.3533094,-1.611687,-2.6951842
2.426,12.543878,3.8839266,4.248422,0.3807915,-1.557104,-2.6608884
2.428,12.544648,3.9313254,4.1586266,0.40816492,-1.503247,-2.626648
2.43,12.547156,3.979968,4.06443,0.43533233,-1.4502757,-2.5925677
2.432,12.551635,4.0293713,3.9656596,0.46217084,-1.3983676,-2.558792
2.434,12.557981,4.079352,3.8623781,0.48855156,-1.3477441,-2.5254793
2.436,12.566316,4.1296606,3.7544062,0.51432973,-1.2986274,-2.4927943
2.438,12.576968,4.180086,3.6417947,0.53934926,-1.251265,-2.46089
2.44,12.590054,4.230414,3.5247128,0.56349427,-1.2059206,-2.4299176
2.442,12.605533,4.2805533,3.4034464,0.58665437,-1.1628587,-2.400008
2.444,12.623762,4.330402,3.278242,0.6087201,-1.1223395,-2.3712363
2.446,12.644689,4.3799424,3.1495423,0.6296256,-1.0845926,-2.343638
2.448,12.668559,4.4292307,3.017716,0.64933,-1.0498137,-2.317189
2.45,12.695428,4.4782186,2.883188,0.6677896,-1.0181519,-2.291811
2.452,12.725383,4.5270095,2.7464888,0.6849746,-0.98970306,-2.2673767
2.454,12.758504,4.575614,2.6081352,0.700866,-0.9645207,-2.2437415
2.456,12.794784,4.6242466,2.468698,0.7154507,-0.9426199,-2.2207606
2.458,12.834183,4.6730137,2.328628,0.7287332,-0.9240011,-2.1983232
2.46,12.876716,4.721942,2.1885672,0.7407239,-0.9086454,-2.1763694
2.462,12.922162,4.7712297,2.049006,0.751469,-0.8965535,-2.1548824
2.464,12.97064,4.8209414,1.9103599,0.76101667,-0.88774633,-2.1339085
2.466,13.021886,4.8710947,1.7731111,0.76944166,-0.8822414,-2.113528
2.468,13.075748,4.921651,1.6377192,0.77684486,-0.88007355,-2.0938444
2.47,13.13217,4.972641,1.5046322,0.7833398,-0.8812894,-2.0749483
2.472,13.190807,5.023995,1.3741286,0.7890299,-0.8859263,-2.0569215
2.474,13.251298,5.0756326,1.2466263,0.79402786,-0.8939875,-2.0397952
2.476,13.313408,5.1273136,1.1223456,0.79844,-0.9054789,-2.023568
2.478,13.376857,5.178874,1.0015283,0.802357,-0.9203727,-2.0082047
2.48,13.441396,5.2301354,0.88441116,0.8058549,-0.93862534,-1.9936552
2.482,13.506651,5.2808237,0.77116656,0.80900246,-0.9601637,-1.979869
2.484,13.572062,5.330549,0.66203856,0.8118589,-0.98490244,-1.9668194
2.486,13.637471,5.379172,0.556997,0.81448936,-1.0127542,-1.9544878
2.488,13.702383,5.4263554,0.456039,0.8169476,-1.0436075,-1.9428846
2.49,13.766556,5.471776,0.35936946,0.819295,-1.0773598,-1.9320302
2.492,13.829444,5.515329,0.266984,0.82159436,-1.1138824,-1.9219644
2.494,13.890905,5.5567193,0.17889309,0.82390994,-1.1530539,-1.9126908
2.496,13.950578,5.5958395,0.09499085,0.8262948,-1.1947436,-1.904191
2.498,14.008059,5.632483,0.015391469,0.82881093,-1.2388245,-1.89642
2.5,14.0632305,5.666644,-0.060041726,0.83149517,-1.2851791,-1.889297
2.502,14.115611,5.6982207,-0.13135159,0.83438885,-1.3336837,-1.8827096
2.504,14.165114,5.7272787,-0.19862223,0.8375393,-1.3842218,-1.8765175
2.506,14.211564,5.753708,-0.26193452,0.84098506,-1.4366748,-1.8705668
2.508,14.2546625,5.7777786,-0.32146215,0.84475404,-1.490932,-1.8646945
2.51,14.294334,5.7995234,-0.3772539,0.8488634,-1.5468849,-1.8587319
2.512,14.33038,5.819156,-0.42948592,0.8533354,-1.604433,-1.8525323
2.514,14.362618,5.8369226,-0.4780841,0.8581867,-1.6634948,-1.8459687
2.516,14.390953,5.8528624,-0.5232068,0.86343414,-1.7239954,-1.8389399
2.518,14.415501,5.8672395,-0.5647949,0.86910343,-1.785861,-1.8313813
2.52,14.436074,5.8802195,-0.60299003,0.87520075,-1.8490245,-1.8232509
2.522,14.452576,5.892152,-0.637883,0.8817416,-1.9134142,-1.8145225
2.524,14.465119,5.903171,-0.66961193,0.8887443,-1.9789441,-1.8051919
2.526,14.473585,5.913638,-0.6984535,0.8962324,-2.0455098,-1.7952464
2.528,14.478025,5.923866,-0.7246565,0.9042306,-2.11298,-1.784679
2.53,14.478307,5.934209,-0.7485534,0.9127691,-2.181182,-1.7734582
2.532,14.474598,5.9448767,-0.77035767,0.9218904,-2.2499154,-1.761547
2.534,14.466847,5.956179,-0.7902261,0.9316396,-2.318957,-1.7488744
2.536,14.45508,5.9682345,-0.8084353,0.9420705,-2.3880725,-1.7353668
2.538,14.439439,5.9812756,-0.8253157,0.9532565,-2.457015,-1.720927
2.54,14.420002,5.99541,-0.8410976,0.9652648,-2.5255492,-1.7054597
2.542,14.39674,6.010912,-0.8562105,0.9781813,-2.5934548,-1.6888707
2.544,14.369914,6.0278893,-0.8710861,0.99208945,-2.660539,-1.6710804
2.546,14.339684,6.046625,-0.8859475,1.0070785,-2.7266374,-1.6520079
2.548,14.305924,6.0672216,-0.90125775,1.0232232,-2.7915952,-1.631607
2.55,14.268811,6.0900326,-0.91737914,1.0406083,-2.8552852,-1.6098299
2.552,14.228822,6.1150875,-0.93465793,1.0592856,-2.9175973,-1.5866387
2.554,14.185899,6.142709,-0.95347434,1.0792933,-2.9784143,-1.5619811
2.556,14.140269,6.17292,-0.97412837,1.1006488,-3.03761,-1.5358192
2.558,14.092209,6.205868,-0.9967667,1.1233366,-3.0950477,-1.5080949
2.56,14.041819,6.2416573,-1.0216045,1.1473159,-3.15059,-1.4787531
2.562,13.989346,6.280348,-1.0487266,1.1725097,-3.2040815,-1.4477487
2.564,13.935039,6.322004,-1.078154,1.1988251,-3.2553632,-1.4150778
2.566,13.879089,6.3665752,-1.1097952,1.226145,-3.304299,-1.3807585
2.568,13.821815,6.4139824,-1.1434035,1.2543348,-3.3507879,-1.344866
2.57,13.76336,6.4642196,-1.178673,1.2832719,-3.3947773,-1.3075491
2.572,13.704097,6.517201,-1.2152464,1.3128412,-3.4362912,-1.2690372
2.574,13.644073,6.5728292,-1.252606,1.3429698,-3.4754505,-1.229639
2.576,13.583689,6.630992,-1.2901996,1.3736216,-3.5124354,-1.1897413
2.578,13.5231495,6.6916027,-1.3274462,1.4047878,-3.5475037,-1.149759
2.58,13.462705,6.7544727,-1.3637519,1.4365184,-3.5809612,-1.1101019
2.582,13.402649,6.81955,-1.3984486,1.4688886,-3.6131186,-1.0711241
2.584,13.343483,6.8866234,-1.4309448,1.5020087,-3.6442566,-1.0330648
2.586,13.285415,6.9555807,-1.4606622,1.5359851,-3.6745663,-0.996012
2.588,13.228776,7.026335,-1.4871421,1.5709229,-3.7041245,-0.9599048
2.59,13.173757,7.098708,-1.5099094,1.606899,-3.7328765,-0.9245098
2.592,13.120644,7.1726613,-1.5286746,1.6439581,-3.7606194,-0.8894783
2.594,13.070126,7.248105,-1.543302,1.6821159,-3.7870288,-0.8543819
2.596,13.022131,7.32475,-1.553709,1.7213511,-3.81169,-0.8187853
2.598,12.977089,7.4026394,-1.559772,1.7616471,-3.8341331,-0.7822963
2.6,12.935173,7.4816422,-1.56188,1.8029749,-3.8538947,-0.7446369
2.602,12.896733,7.561474,-1.5602679,1.8453356,-3.8705697,-0.7056556
2.604,12.861765,7.6420946,-1.55527,1.8887451,-3.883814,-0.6653472
2.606,12.830608,7.7232995,-1.5473627,1.933259,-3.893418,-0.6238462
2.608,12.803344,7.805031,-1.5371972,1.978951,-3.8992925,-0.5813765
2.61,12.780117,7.8870935,-1.5252912,2.025889,-3.9015017,-0.53820807
2.612,12.761075,7.9693565,-1.5122101,2.0741715,-3.9002187,-0.49463063
2.614,12.746185,8.051672,-1.4986279,2.1238842,-3.8957214,-0.4509068
2.616,12.7353945,8.134015,-1.4850671,2.1750903,-3.8883836,-0.40725082
2.618,12.728682,8.216231,-1.4719989,2.2278044,-3.878645,-0.36381084
2.62,12.726017,8.298192,-1.4599813,2.282018,-3.8669605,-0.32069826
2.622,12.727351,8.379801,-1.4493715,2.337709,-3.8538005,-0.27795738
2.624,12.732563,8.460999,-1.4404895,2.3948216,-3.8396292,-0.23561239
2.626,12.741733,8.541792,-1.4335597,2.4532952,-3.8248732,-0.1936633
2.628,12.754502,8.622248,-1.4286858,2.5130615,-3.8099124,-0.15211183
2.63,12.770861,8.702213,-1.4259244,2.574035,-3.7950735,-0.11097515
2.632,12.7906065,8.781789,-1.425213,2.636148,-3.780619,-0.07028055
2.634,12.813718,8.861109,-1.4264622,2.6993408,-3.7667496,-0.030069232
2.636,12.839972,8.9401655,-1.4293963,2.7635612,-3.753613,0.00959003
2.638,12.8692875,9.01909,-1.4339244,2.8287573,-3.741289,0.048614144
2.64,12.901622,9.098057,-1.4397564,2.894908,-3.7298326,0.08694142
2.642,12.936777,9.177315,-1.4467471,2.9619815,-3.7192454,0.12449825
2.644,12.974605,9.257051,-1.4548442,3.0299735,-3.7094932,0.16121763
2.646,13.015085,9.337561,-1.4638844,3.098865,-3.700525,0.1970672
2.648,13.058059,9.419037,-1.4735566,3.168656,-3.6922672,0.23202688
2.65,13.103437,9.501663,-1.483834,3.2393346,-3.684647,0.26610726
2.652,13.151279,9.585556,-1.4944975,3.3108704,-3.677586,0.29933935
2.654,13.201376,9.670888,-1.5054486,3.383226,-3.6710014,0.3317945
2.656,13.253683,9.757704,-1.5166746,3.4563427,-3.664819,0.36356527
2.658,13.308283,9.846156,-1.5279917,3.5301533,-3.6589863,0.39475447
2.66,13.364979,9.936266,-1.5394505,3.6045642,-3.6534355,0.42548418
2.662,13.42379,10.028027,-1.5511075,3.6794586,-3.6481435,0.45587707
2.664,13.48446,10.121467,-1.5629858,3.7547073,-3.6430786,0.48604178
2.666,13.547111,10.216707,-1.5751407,3.8301432,-3.6382394,0.51606476
2.668,13.611554,10.313587,-1.5877478,3.905582,-3.6336303,0.5460179
2.67,13.677878,10.412134,-1.6008292,3.9808302,-3.6292553,0.57593036
2.672,13.745912,10.512359,-1.6146551,4.055686,-3.6251445,0.60580933
2.674,13.815475,10.614263,-1.6292611,4.1299458,-3.6213505,0.6356361
2.676,13.886589,10.717697,-1.6447511,4.2034054,-3.6179411,0.66535604
2.678,13.959145,10.822687,-1.6613114,4.2758636,-3.6150045,0.6949277
2.68,14.033089,10.929221,-1.6789905,4.3471394,-3.6126552,0.72430515
2.682,14.108149,11.0373335,-1.6978111,4.417067,-3.6110337,0.7534706
2.684,14.184343,11.1471,-1.7176692,4.485512,-3.6103182,0.78241
2.686,14.261427,11.258608,-1.7385747,4.552374,-3.610711,0.8111438
2.688,14.339364,11.371922,-1.7604349,4.617565,-3.6124384,0.8396798
2.69,14.417875,11.487178,-1.7829795,4.681037,-3.6157467,0.86806047
2.692,14.49695,11.604458,-1.8059506,4.742772,-3.6208706,0.8963211
2.694,14.576288,11.723984,-1.8290815,4.8027835,-3.628028,0.9244778
2.696,14.655645,11.845949,-1.8519228,4.8611097,-3.6374283,0.9525554
2.698,14.734915,11.970527,-1.8740442,4.917811,-3.6492577,0.9805659
2.7,14.8139105,12.097996,-1.8950397,4.9729843,-3.6636543,1.0085027
2.702,14.892404,12.228519,-1.9143724,5.026722,-3.6807005,1.0363457
2.704,14.969934,12.362385,-1.931418,5.07915,-3.7004266,1.0640798
2.706,15.046392,12.499837,-1.9456601,5.13039,-3.7228155,1.0916669
2.708,15.121509,12.640923,-1.9566009,5.180561,-3.7477922,1.1190637
2.71,15.195077,12.785814,-1.9635601,5.229767,-3.775229,1.1462336
2.712,15.266797,12.93473,-1.966042,5.2780833,-3.8049536,1.1731522
2.714,15.336447,13.0877695,-1.9634385,5.325563,-3.8367798,1.1997645
2.716,15.403645,13.244999,-1.9552655,5.372262,-3.870455,1.2260526
2.718,15.468121,13.406565,-1.9409003,5.4181957,-3.9057236,1.2519861
2.72,15.529634,13.572474,-1.9199018,5.463352,-3.9423246,1.2775831
2.722,15.587998,13.742694,-1.8918395,5.5077343,-3.9800103,1.3028715
2.724,15.64295,13.91727,-1.8562326,5.55132,-4.018539,1.3279071
2.726,15.694349,14.096104,-1.8127859,5.5940957,-4.057667,1.352774
2.728,15.741889,14.279139,-1.7611103,5.6360445,-4.0971775,1.3775778
2.73,15.785343,14.466316,-1.7009192,5.6771545,-4.136873,1.4024329
2.732,15.8245735,14.657534,-1.6318736,5.7174554,-4.176564,1.427452
2.734,15.859455,14.852543,-1.5537717,5.7569695,-4.2160883,1.452749
2.736,15.889675,15.051201,-1.4663465,5.7957397,-4.255275,1.4784175
2.738,15.915129,15.253147,-1.3695107,5.8338275,-4.293975,1.5045476
2.74,15.9356,15.458218,-1.2629676,5.8713255,-4.3320303,1.5312045
2.742,15.9508915,15.665961,-1.1466043,5.9082747,-4.3692603,1.5584719
2.744,15.960795,15.875975,-1.020282,5.9447713,-4.4054956,1.5863857
2.746,15.965036,16.087917,-0.8839834,5.980875,-4.440558,1.614981
2.748,15.963454,16.30102,-0.7374828,6.0166636,-4.4742403,1.6442869
2.75,15.955677,16.514824,-0.5807364,6.052214,-4.5063114,1.674322
2.752,15.9414835,16.728674,-0.4137349,6.0875683,-4.5365143,1.7050793
2.754,15.920502,16.94188,-0.23644614,6.1227827,-4.5645685,1.7365676
2.756,15.892422,17.15359,-0.048929214,6.15792,-4.5901723,1.7687776
2.758,15.856811,17.363117,0.1486938,6.193042,-4.612994,1.801708
2.76,15.813402,17.56952,0.35640955,6.22822,-4.632683,1.8353736
2.762,15.761728,17.772017,0.5741279,6.2635484,-4.6488695,1.8698071
2.764,15.701355,17.969717,0.8015659,6.299118,-4.6611624,1.9050641
2.766,15.6320915,18.161636,1.0385418,6.335038,-4.6691604,1.9412254
2.768,15.553479,18.346828,1.2847314,6.3714075,-4.6724606,1.9784129
2.77,15.465242,18.524353,1.5399368,6.40831,-4.6706777,2.0167422
2.772,15.367053,18.6932,1.8037314,6.445822,-4.6634235,2.0563827
2.774,15.258959,18.852472,2.0758677,6.4839983,-4.6503196,2.0974796
2.776,15.140366,19.001087,2.3558125,6.522854,-4.631014,2.1401925
2.778,15.011347,19.13835,2.6431415,6.5623827,-4.6052184,2.1846833
2.78,14.871743,19.263233,2.9372778,6.602524,-4.572686,2.2311144
2.782,14.721617,19.374758,3.2376275,6.643174,-4.53323,2.2796047
2.784,14.561138,19.472136,3.543596,6.684184,-4.4867125,2.3302755
2.786,14.390333,19.55446,3.854486,6.7253566,-4.433056,2.3832266
2.788,14.209317,19.621141,4.169711,6.76645,-4.372224,2.4385366
2.79,14.018515,19.671337,4.488558,6.8071756,-4.304226,2.4962702
2.792,13.818451,19.70438,4.8102155,6.8472214,-4.2290773,2.5564733
2.794,13.609444,19.719847,5.1339197,6.886251,-4.146817,2.6191583
2.796,13.392087,19.717178,5.458886,6.9239798,-4.0574784,2.6843445
2.798,13.167046,19.695923,5.7843733,6.960089,-3.9610643,2.752071
2.8,12.935147,19.655825,6.1094847,6.9943066,-3.8575559,2.822355
2.802,12.696935,19.596659,6.433361,7.026388,-3.7469454,2.8952217
2.804,12.453297,19.518375,6.7550054,7.056138,-3.6291952,2.9707065
2.806,12.205014,19.420864,7.0734925,7.0834236,-3.5042636,3.0488513
2.808,11.953091,19.304115,7.387878,7.108156,-3.372108,3.129683
2.81,11.698424,19.168324,7.6971984,7.130308,-3.232688,3.2132356
2.812,11.441852,19.013695,8.000467,7.1498733,-3.0860074,3.2995024
2.814,11.184197,18.840607,8.296625,7.166876,-2.9321232,3.3884277
2.816,10.926311,18.649492,8.584761,7.1813498,-2.77114,3.479917
2.818,10.668993,18.440784,8.863886,7.1933155,-2.6032295,3.573806
2.82,10.412807,18.2153,9.132969,7.2027516,-2.4286418,3.669887
2.822,10.158297,17.973736,9.391161,7.209612,-2.2476673,3.767883
2.824,9.906139,17.716883,9.637528,7.213789,-2.0606976,3.8674662
2.826,9.656521,17.44574,9.871295,7.215143,-1.8681887,3.968268
2.828,9.410047,17.161003,10.091678,7.213476,-1.6706376,4.069937
2.83,9.166839,16.863926,10.298057,7.208567,-1.4685833,4.1721344
2.832,8.926815,16.5557,10.489812,7.2001886,-1.2625828,4.274512
2.834,8.690208,16.23754,10.666517,7.1881,-1.0532055,4.3767657
2.836,8.456717,15.910859,10.82786,7.172104,-0.8410108,4.478652
2.838,8.2264185,15.577089,10.973503,7.1519938,-0.6265261,4.579953
2.84,7.9988513,15.237919,11.103468,7.1275873,-0.41023755,4.680514
2.842,7.7737346,14.894876,11.21737,7.0987277,-0.19257092,4.7802258
2.844,7.550541,14.549769,11.315349,7.065277,0.02613902,4.8790207
2.846,7.3287525,14.204524,11.397358,7.027105,0.24563909,4.9769044
2.848,7.108028,13.860922,11.463443,6.9840794,0.46578383,5.0739164
2.85,6.888054,13.52097,11.513396,6.936084,0.6865194,5.1701317
2.852,6.668283,13.1865835,11.547413,6.883041,0.907907,5.265666
2.854,6.447711,12.859785,11.565801,6.824889,1.1301425,5.3606534
2.856,6.2258606,12.54272,11.568706,6.7616124,1.353523,5.455226
2.858,6.0022902,12.237427,11.555686,6.6932554,1.5784204,5.5495224
2.86,5.7767353,11.945567,11.526646,6.6198955,1.8052723,5.6436706
2.862,5.5485625,11.669041,11.481659,6.541683,2.0345693,5.737768
2.864,5.3177986,11.4095,11.420342,6.4588184,2.266845,5.8318863
2.866,5.083665,11.168809,11.342655,6.3715973,2.50267,5.926059
2.868,4.8464174,10.948392,11.248095,6.280366,2.742586,6.020301
2.87,4.606099,10.749298,11.136059,6.185517,2.9870594,6.114563
2.872,4.3627386,10.572493,11.006169,6.087483,3.2364447,6.208767
2.874,4.116996,10.418603,10.85793,5.986717,3.490931,6.302825
2.876,3.8681684,10.288303,10.69092,5.883658,3.7504761,6.3966646
2.878,3.6164505,10.182199,10.504589,5.7787023,4.0147777,6.490213
2.88,3.3619568,10.100386,10.298409,5.6721916,4.2831717,6.5833793
2.882,3.1046214,10.043065,10.071839,5.564372,4.5545607,6.676043
2.884,2.8445048,10.009901,9.824356,5.45536,4.827488,6.768045
2.886,2.581645,10.000637,9.555607,5.345174,5.100193,6.859185
2.888,2.3157444,10.01466,9.265269,5.233716,5.3705454,6.949132
2.89,2.0466812,10.051233,8.953338,5.120718,5.6360216,7.0374107
2.892,1.7738986,10.1093645,8.619717,5.0057983,5.8938484,7.1233845
2.894,1.4970008,10.187799,8.264685,4.888526,6.1411004,7.2062216
2.896,1.215435,10.28523,7.8887424,4.768361,6.3747754,7.284813
2.898,0.9286643,10.399866,7.4923744,4.6446724,6.591917,7.357729
2.9,0.6361755,10.529875,7.0760813,4.516835,6.789712,7.423341
2.902,0.33725664,10.673145,6.6408796,4.384214,6.965566,7.4797697
2.904,0.031473756,10.82747,6.187717,4.2461147,7.117196,7.5248957
2.906,-0.2816034,10.990557,5.717713,4.10189,7.242747,7.556527
2.908,-0.602565,11.160035,5.2321577,3.9510186,7.34097,7.5724583
2.91,-0.93163484,11.333282,4.732591,3.7931101,7.411207,7.5705547
2.912,-1.2688555,11.507755,4.220501,3.6279116,7.4533043,7.548876
2.914,-1.6142393,11.68079,3.697466,3.4553356,7.467555,7.505825
2.916,-1.9674131,11.849856,3.1650372,3.2755108,7.454664,7.440277
2.918,-2.327953,12.01247,2.624782,3.0887885,7.415612,7.351713
2.92,-2.6950524,12.166268,2.0781865,2.895688,7.351553,7.240258
2.922,-3.0675137,12.308888,1.5268645,2.6969054,7.263733,7.1067643
2.924,-3.4441218,12.438384,0.97240114,2.4932623,7.1533623,6.952774
2.926,-3.8235354,12.552946,0.41618443,2.2856371,7.0216026,6.780443
2.928,-4.204079,12.651088,-0.14020634,2.0749316,6.8695517,6.5924
2.93,-4.58401,12.73157,-0.6950915,1.8620341,6.698249,6.3916097
2.932,-4.961328,12.793562,-1.2469528,1.6477824,6.5087013,6.181206
2.934,-5.334449,12.836608,-1.7941835,1.432954,6.301958,5.9642777
2.936,-5.7012367,12.860579,-2.3351364,1.2182683,6.0791087,5.7437124
2.938,-6.059933,12.865721,-2.8682156,1.004378,5.841268,5.522061
2.94,-6.4085855,12.852348,-3.391636,0.791867,5.5895615,5.301486
2.942,-6.745313,12.821088,-3.9035478,0.58127576,5.325227,5.0837393
2.944,-7.06866,12.772889,-4.4021873,0.3731386,5.049597,4.870187
2.946,-7.3769603,12.7086315,-4.8856153,0.16795921,4.763977,4.6618576
2.948,-7.6690745,12.629526,-5.3517876,-0.03382474,4.469621,4.459494
2.95,-7.943722,12.536636,-5.7988706,-0.23174411,4.1677237,4.2636995
2.952,-8.200284,12.431338,-6.2246714,-0.42531574,3.859452,4.074953
2.954,-8.437963,12.314913,-6.6274414,-0.61412555,3.5459442,3.8934934
2.956,-8.656433,12.188461,-7.0053053,-0.79773223,3.228408,3.7194738
2.958,-8.855682,12.053304,-7.3565464,-0.9756401,2.9081037,3.552939
2.96,-9.036133,11.910701,-7.6794057,-1.1473973,2.586404,3.3937578
2.962,-9.197729,11.761448,-7.9731674,-1.3125942,2.2646875,3.2416615
2.964,-9.341,11.606439,-8.236868,-1.4708201,1.9444997,3.0962908
2.966,-9.466761,11.446343,-8.469444,-1.6216477,1.6275797,2.9571977
2.968,-9.576273,11.282136,-8.670097,-1.764661,1.315732,2.8238842
2.97,-9.67094,11.114792,-8.838732,-1.8994982,1.0107129,2.6958435
2.972,-9.7516775,10.944624,-8.975663,-2.0258467,0.7142283,2.5725837
2.974,-9.8204,10.772342,-9.081098,-2.14342,0.42785406,2.4536695
2.976,-9.8781595,10.598173,-9.155945,-2.251995,0.15296602,2.3387237
2.978,-9.926948,10.422665,-9.200928,-2.3514128,-0.109301,2.227416
2.98,-9.968603,10.246514,-9.217225,-2.441608,-0.35808527,2.119451
2.982,-10.004638,10.070174,-9.206199,-2.522619,-0.5927854,2.014544
2.984,-10.036889,9.894284,-9.169301,-2.5946188,-0.8130544,1.9124092
2.986,-10.066225,9.719237,-9.108341,-2.657897,-1.0187774,1.8127456
2.988,-10.093933,9.545266,-9.024912,-2.7128835,-1.210025,1.7152563
2.99,-10.121482,9.373063,-8.920716,-2.760099,-1.3869855,1.6196405
2.992,-10.150026,9.203071,-8.797508,-2.8002083,-1.5500592,1.5256491
2.994,-10.180451,9.035839,-8.656918,-2.8339663,-1.6997344,1.4331257
2.996,-10.213552,8.871957,-8.500652,-2.8621173,-1.836519,1.341991
2.998,-10.2500725,8.71187,-8.330255,-2.885408,-1.9609275,1.2522506
3,-10.290584,8.556397,-8.147415,-2.9045687,-2.0734892,1.1639869
3.002,-10.335171,8.406166,-7.953587,-2.9202745,-2.174702,1.0773846
3.004,-10.384144,8.261961,-7.7503405,-2.933153,-2.2650437,0.99271107
3.006,-10.4373665,8.124302,-7.53905,-2.943729,-2.3449526,0.91029584
3.008,-10.494817,7.9939556,-7.320944,-2.9524426,-2.4148383,0.83049643
3.01,-10.556356,7.871532,-7.097041,-2.959627,-2.47506,0.75366616
3.012,-10.6215315,7.757635,-6.8684154,-2.965543,-2.5259435,0.6801022
3.014,-10.689928,7.652563,-6.6361723,-2.9703414,-2.5677786,0.610013
3.016,-10.760969,7.556754,-6.4012356,-2.9740837,-2.6007602,0.5435114
3.018,-10.833927,7.4704113,-6.1645117,-2.9767349,-2.6250353,0.48059046
3.02,-10.908116,7.3937416,-5.9269476,-2.978198,-2.6407096,0.42109156
3.022,-10.982617,7.326739,-5.689286,-2.9783227,-2.6478684,0.3647319
3.024,-11.056761,7.2693353,-5.452084,-2.9769323,-2.6466107,0.3111384
3.026,-11.129642,7.2213516,-5.216092,-2.9738595,-2.637083,0.25984502
3.028,-11.200459,7.1825333,-4.9818406,-2.9689631,-2.6195297,0.2103597
3.03,-11.268567,7.1524653,-4.7497888,-2.962154,-2.5942826,0.16216886
3.032,-11.333111,7.1306753,-4.520408,-2.9534154,-2.5617828,0.11478698
3.034,-11.393341,7.1165304,-4.2941103,-2.9427803,-2.5226011,0.06775224
3.036,-11.448401,7.1092834,-4.0711546,-2.9303691,-2.4774203,0.020660758
3.038,-11.497656,7.1082745,-3.8518744,-2.9163568,-2.4269872,-0.026849985
3.04,-11.540392,7.1125865,-3.6365004,-2.900959,-2.3720963,-0.075090766
3.042,-11.576153,7.121293,-3.425098,-2.8844316,-2.313564,-0.1243161
3.044,-11.604127,7.133526,-3.217724,-2.867032,-2.2521946,-0.1747036
3.046,-11.623949,7.1483846,-3.0144095,-2.8489678,-2.1886492,-0.22641253
3.048,-11.635383,7.1650605,-2.8150382,-2.8304222,-2.1235452,-0.27956837
3.05,-11.638049,7.1827087,-2.6196525,-2.8115637,-2.057419,-0.33419067
3.052,-11.631732,7.2006445,-2.428141,-2.7925003,-1.990667,-0.39022815
3.054,-11.616267,7.218064,-2.2404873,-2.7732701,-1.9235135,-0.4475749
3.056,-11.591585,7.234433,-2.0566332,-2.7538116,-1.856033,-0.5060756
3.058,-11.557583,7.24918,-1.8767207,-2.734014,-1.7881441,-0.5655699
3.06,-11.514338,7.2618346,-1.7007362,-2.7137144,-1.7196178,-0.62586784
3.062,-11.46179,7.2719502,-1.5288581,-2.6926916,-1.6501096,-0.68675995
3.064,-11.400292,7.279124,-1.361211,-2.6706967,-1.5791703,-0.74802125
3.066,-11.329821,7.283162,-1.198061,-2.647442,-1.5062802,-0.80941164
3.068,-11.250593,7.28391,-1.039766,-2.622639,-1.4308714,-0.8706777
3.07,-11.162738,7.281054,-0.88675594,-2.5959835,-1.3523756,-0.9315613
3.072,-11.066847,7.2748175,-0.73922336,-2.5671906,-1.2702414,-0.99182636
3.074,-10.962949,7.265153,-0.59796643,-2.5359983,-1.1839467,-1.0512189
3.076,-10.851337,7.252147,-0.46390283,-2.5021741,-1.0930477,-1.109499
3.078,-10.732387,7.235741,-0.33754194,-2.4655235,-0.99718106,-1.166461
3.08,-10.606161,7.216056,-0.21958756,-2.4258862,-0.8960936,-1.22192
3.082,-10.473321,7.193405,-0.11075413,-2.3831508,-0.7896467,-1.2757142
3.084,-10.33418,7.168125,-0.01170516,-2.3372612,-0.6778401,-1.3276992
3.086,-10.188959,7.140489,0.07679725,-2.2882073,-0.5607928,-1.3777627
3.088,-10.037974,7.1107244,0.15406585,-2.2360425,-0.4387431,-1.4258068
3.09,-9.881631,7.079202,0.21968186,-2.1808655,-0.31204852,-1.4717734
3.092,-9.720173,7.0462637,0.27305138,-2.1228118,-0.18116954,-1.5156174
3.094,-9.554059,7.0121717,0.31380415,-2.062057,-0.046648026,-1.5572977
3.096,-9.383549,6.9772573,0.341671,-1.9988163,0.09090483,-1.5968108
3.098,-9.20905,6.9418654,0.356591,-1.9333224,0.23082232,-1.6341635
3.1,-9.03083,6.906309,0.35849607,-1.8658324,0.37240183,-1.6693766
3.102,-8.849292,6.870929,0.34762824,-1.7965988,0.51491904,-1.7024826
3.104,-8.664776,6.8360476,0.32410395,-1.7258888,0.6576661,-1.7335262
3.106,-8.477643,6.801888,0.288404,-1.6539391,0.79997957,-1.7625504
3.108,-8.288042,6.7688975,0.24083865,-1.5809662,0.94124913,-1.7896069
3.11,-8.096481,6.7371826,0.18200755,-1.5071768,1.08096,-1.8147529
3.112,-7.9031954,6.707035,0.1125443,-1.4327348,1.2186706,-1.8380389
3.114,-7.708609,6.6786566,0.03310156,-1.3577784,1.3540357,-1.8595262
3.116,-7.5130463,6.652367,-0.055580378,-1.2824202,1.486816,-1.8792756
3.118,-7.3167973,6.628417,-0.15280771,-1.2067422,1.6168314,-1.8973622
3.12,-7.1200933,6.60707,-0.25780368,-1.1308296,1.743964,-1.9138526
3.122,-6.923335,6.5885057,-0.36984754,-1.054755,1.8681371,-1.9288244
3.124,-6.726661,6.5730767,-0.48813462,-0.9786234,1.9892988,-1.9423659
3.126,-6.5304646,6.560952,-0.61206484,-0.9025495,2.1074133,-1.9545671
3.128,-6.334993,6.552292,-0.74098563,-0.8266455,2.2224255,-1.9655311
3.13,-6.1404834,6.547366,-0.8742688,-0.7510698,2.3342924,-1.9753792
3.132,-5.9473653,6.5464234,-1.0113041,-0.67599547,2.4429748,-1.9842206
3.134,-5.7556257,6.549638,-1.1516807,-0.60161114,2.5484142,-1.9921836
3.136,-5.565594,6.557275,-1.2947772,-0.52812016,2.6505795,-1.999407
3.138,-5.377549,6.5693607,-1.4401708,-0.4557196,2.749432,-2.0060382
3.14,-5.1914167,6.586114,-1.5874768,-0.38461775,2.8449364,-2.0122373
3.142,-5.0077043,6.6077633,-1.7364076,-0.31500167,2.937048,-2.01817
3.144,-4.826261,6.63435,-1.8866376,-0.24705088,3.0257163,-2.0240233
3.146,-4.647387,6.6660023,-2.037725,-0.18092811,3.1108875,-2.0299973
3.148,-4.471098,6.7026973,-2.1894443,-0.1167815,3.1924834,-2.0362976
3.15,-4.297476,6.7444596,-2.3415382,-0.054724306,3.2704072,-2.04312
3.152,-4.126532,6.7913866,-2.4936407,0.0051544905,3.344541,-2.0506563
3.154,-3.9584172,6.8432894,-2.6454449,0.062796,3.4147596,-2.0590684
3.156,-3.7930136,6.900091,-2.7965252,0.1181488,3.4809346,-2.0685048
3.158,-3.63025,6.9617186,-2.9465048,0.17118776,3.5428965,-2.079072
3.16,-3.4702542,7.0280657,-3.0950224,0.22189033,3.6004472,-2.0908594
3.162,-3.3128922,7.0988283,-3.2417688,0.2702217,3.6533961,-2.1039565
3.164,-3.1581318,7.173935,-3.3861685,0.31614512,3.7015266,-2.1184278
3.166,-3.00591,7.253107,-3.5277681,0.35959905,3.7446332,-2.1343498
3.168,-2.8561058,7.3360643,-3.666124,0.40050954,3.7825162,-2.151802
3.17,-2.7086139,7.4225597,-3.8007333,0.4387747,3.8149898,-2.170857
3.172,-2.5632708,7.5122156,-3.9311528,0.47427583,3.8419013,-2.1915965
3.174,-2.4198375,7.6047373,-4.056845,0.5068784,3.8631043,-2.2140913
3.176,-2.2782784,7.6996617,-4.1774135,0.536444,3.8785157,-2.2383814
3.178,-2.1385083,7.7966924,-4.2922974,0.5628588,3.8880873,-2.2644567
3.18,-2.0039954,7.892904,-4.4007177,0.5860179,3.8918264,-2.2922664
3.182,-1.8718009,7.989986,-4.5028157,0.60583127,3.8898244,-2.3217223
3.184,-1.7419724,8.087476,-4.598266,0.6222644,3.8822107,-2.352676
3.186,-1.6146371,8.184942,-4.686821,0.6353034,3.8691683,-2.3849607
3.188,-1.4898391,8.282043,-4.7683115,0.6449647,3.8509536,-2.4183798
3.19,-1.3677922,8.378291,-4.8425865,0.6512902,3.8278284,-2.4527404
3.192,-1.2485098,8.473419,-4.909609,0.6543504,3.8000894,-2.4878488
3.194,-1.131999,8.566887,-4.969469,0.65423286,3.768055,-2.523508
3.196,-1.0186435,8.658519,-5.0222235,0.6510154,3.7320526,-2.5595481
3.198,-0.9085845,8.748013,-5.068104,0.6447971,3.6923933,-2.5958095
3.2,-0.8018764,8.835075,-5.107374,0.6356777,3.649394,-2.6321468
3.202,-0.69869435,8.919467,-5.1404214,0.62377244,3.6033607,-2.6684341
3.204,-0.59912086,9.00103,-5.1675806,0.60921425,3.554594,-2.7045758
3.206,-0.50328135,9.079645,-5.1891985,0.5921245,3.5033767,-2.740466
3.208,-0.41133642,9.155216,-5.2058363,0.5737231,3.45216,-2.7748182
3.21,-0.32320976,9.2276325,-5.217885,0.5537531,3.4002204,-2.8081744
3.212,-0.23891664,9.296864,-5.2258043,0.5326295,3.3482456,-2.8403046
3.214,-0.15859532,9.362961,-5.230016,0.51080745,3.2969544,-2.8709831
3.216,-0.0821228,9.425946,-5.2310467,0.48875487,3.2470343,-2.899985
3.218,-0.009561777,9.485784,-5.229207,0.46692282,3.1991405,-2.927148
3.22,0.05942297,9.542589,-5.224899,0.44572115,3.153819,-2.9523404
3.222,0.12473464,9.596411,-5.218488,0.42547405,3.1114752,-2.9754994
3.224,0.18665266,9.647365,-5.2103596,0.40642887,3.0723639,-2.996623
3.226,0.24522257,9.69558,-5.2008624,0.38874644,3.0365999,-3.0157464
3.228,0.30062985,9.741004,-5.190118,0.3725071,3.0041761,-3.0329657
3.23,0.35291123,9.78384,-5.1784573,0.3577137,2.9749544,-3.0484123
