Time_s_,Acc_x_m_s_2_,Acc_y_m_s_2_,Acc_z_m_s_2_,Gyro_x_1_s_,Gyro_y_1_s_,Gyro_z_1_s_
0,-0.36706504,0.0385357,-0.34454274,-0.06446865,-0.035610456,0.07444735
0.002,-0.378127,0.03339781,-0.34380278,-0.06459535,-0.03669846,0.07601525
0.004,-0.3897628,0.028015066,-0.34294808,-0.064771384,-0.03799899,0.07778686
0.006,-0.4017156,0.022305954,-0.34198856,-0.06500147,-0.039541665,0.07980482
0.008,-0.4141633,0.016417082,-0.34085584,-0.06527513,-0.04135966,0.08208983
0.01,-0.4269517,0.010234769,-0.3395582,-0.06561037,-0.043489337,0.08465099
0.012,-0.44003108,0.0038317367,-0.33806637,-0.066005155,-0.04595375,0.08751294
0.014,-0.4535503,-0.0027923211,-0.3362448,-0.06645465,-0.048764974,0.09068413
0.016,-0.46725687,-0.009619296,-0.33406276,-0.06694901,-0.051931202,0.09416635
0.018,-0.48129585,-0.01660899,-0.3315021,-0.067479506,-0.05545786,0.09795378
0.02,-0.4955343,-0.023611605,-0.32841128,-0.06803851,-0.05932462,0.10202898
0.022,-0.5098996,-0.03070414,-0.3247605,-0.0686341,-0.06350082,0.10636807
0.024,-0.52435386,-0.037736095,-0.3205681,-0.06927717,-0.06795859,0.11092721
0.026,-0.53872526,-0.04464645,-0.31575382,-0.06998176,-0.07267171,0.11565624
0.028,-0.5528244,-0.051440112,-0.31020498,-0.0707841,-0.07768233,0.12059816
0.03,-0.5667734,-0.057949528,-0.30383247,-0.07169782,-0.08288151,0.12555635
0.032,-0.58045703,-0.06411207,-0.29663137,-0.072739094,-0.08824652,0.1304631
0.034,-0.59367096,-0.06988911,-0.28850633,-0.073933184,-0.093765706,0.13524988
0.036,-0.606358,-0.075184375,-0.2792529,-0.07528083,-0.099415794,0.13983463
0.038,-0.61858946,-0.07995401,-0.2689587,-0.0767837,-0.10517776,0.14415784
0.04,-0.6301687,-0.08407085,-0.25753123,-0.07841681,-0.11100407,0.1481551
0.042,-0.64104205,-0.087553054,-0.24493897,-0.08015089,-0.1168383,0.15177521
0.044,-0.6512059,-0.09044063,-0.23116109,-0.08194043,-0.12260009,0.15497643
0.046,-0.6606574,-0.09267925,-0.2161031,-0.0837446,-0.12818542,0.1577239
0.048,-0.6692674,-0.09430352,-0.19984469,-0.08551884,-0.13349462,0.1599876
0.05,-0.67717445,-0.0952836,-0.18238986,-0.08719775,-0.13842346,0.16176125
0.052,-0.68435806,-0.09557694,-0.16383316,-0.0887791,-0.14286803,0.16304073
0.054,-0.6909986,-0.0952211,-0.14422444,-0.090220094,-0.14673579,0.16384211
0.056,-0.69750524,-0.09441425,-0.12342078,-0.091502756,-0.14994586,0.16417986
0.058,-0.7033565,-0.09302366,-0.101773754,-0.09262462,-0.15243535,0.16407818
0.06,-0.7086922,-0.091085285,-0.07928786,-0.093597665,-0.15416124,0.16355729
0.062,-0.71358263,-0.0887057,-0.056243397,-0.0944611,-0.15509453,0.16266151
0.064,-0.71814185,-0.08595249,-0.032780536,-0.095239066,-0.15522107,0.16143498
0.066,-0.72254217,-0.08302888,-0.008888975,-0.09599391,-0.15455247,0.15989435
0.068,-0.7267321,-0.08001733,0.015281901,-0.09678226,-0.15312713,0.15805584
0.07,-0.73104227,-0.07697588,0.039576888,-0.0976585,-0.15100726,0.15591662
0.072,-0.73544765,-0.07392621,0.06399779,-0.09868625,-0.14827994,0.15345868
0.074,-0.7400035,-0.070914,0.08843237,-0.09992478,-0.14508086,0.1506514
0.076,-0.7449381,-0.06782809,0.112928346,-0.10143516,-0.14157315,0.1474559
0.078,-0.7502389,-0.064772695,0.13747177,-0.10327068,-0.13793445,0.14382581
0.08,-0.7559951,-0.061730534,0.16211233,-0.10548786,-0.13436437,0.13970119
0.082,-0.76227707,-0.058814228,0.18688416,-0.108126074,-0.13106132,0.13501681
0.084,-0.7689191,-0.056100845,0.21186873,-0.1112328,-0.12821698,0.12972012
0.086,-0.7759687,-0.053665757,0.23716679,-0.114828676,-0.12599614,0.12378408
0.088,-0.7834812,-0.05153975,0.26276064,-0.11891868,-0.124518566,0.11720918
0.09,-0.79143333,-0.049681813,0.28862593,-0.1235046,-0.12385351,0.11003445
0.092,-0.79975176,-0.04795018,0.31480125,-0.12856112,-0.123985305,0.1023359
0.094,-0.80822456,-0.046245396,0.3411862,-0.1340588,-0.12485852,0.09422363
0.096,-0.8167159,-0.04471907,0.36747506,-0.13996641,-0.12637405,0.0858338
0.098,-0.8249728,-0.04325944,0.39363068,-0.14622185,-0.12835655,0.07734759
0.1,-0.83286357,-0.04189828,0.41956055,-0.15276274,-0.13059342,0.068946555
0.102,-0.8404211,-0.040405095,0.4453474,-0.15953916,-0.13288788,0.060760394
0.104,-0.84731597,-0.038769215,0.4708451,-0.16649875,-0.1350519,0.052871592
0.106,-0.8533186,-0.036961973,0.49603748,-0.17359273,-0.13692862,0.045334946
0.108,-0.8584683,-0.035013348,0.52094877,-0.18079785,-0.13841127,0.038125418
0.11,-0.8625986,-0.032913595,0.5453657,-0.18810669,-0.1394341,0.031177588
0.112,-0.86547136,-0.030742288,0.56918776,-0.19553182,-0.1399888,0.02438423
0.114,-0.86684954,-0.028594792,0.5922652,-0.20309293,-0.14011233,0.01761289
0.116,-0.86675256,-0.02639833,0.61449045,-0.21079877,-0.13986756,0.010707166
0.118,-0.8650772,-0.024226815,0.63580275,-0.21864249,-0.13930604,0.003510397
0.12,-0.8621226,-0.021915555,0.6560729,-0.22658812,-0.13845408,-0.0041281357
0.122,-0.8579552,-0.01950863,0.675204,-0.23458292,-0.1372945,-0.012371574
0.124,-0.8522467,-0.017253548,0.6930558,-0.24255547,-0.1357336,-0.02135783
0.126,-0.8448416,-0.015097618,0.7096013,-0.25041792,-0.13362913,-0.031171627
0.128,-0.83567727,-0.013008624,0.7250197,-0.25807187,-0.13077521,-0.041822765
0.13,-0.82504797,-0.010979682,0.7394499,-0.26542017,-0.12692575,-0.05321296
0.132,-0.81302893,-0.0091768205,0.7529743,-0.27238286,-0.121810436,-0.06513542
0.134,-0.7996807,-0.007726878,0.76560706,-0.2789106,-0.11517799,-0.07730183
0.136,-0.78503555,-0.006703526,0.7770624,-0.2849861,-0.10685865,-0.089338206
0.138,-0.7688679,-0.006254703,0.7871832,-0.2906304,-0.09676801,-0.10082048
0.14,-0.75089824,-0.00659281,0.79584503,-0.295914,-0.08493652,-0.111352995
0.142,-0.7311647,-0.007872492,0.80296904,-0.300907,-0.07151738,-0.120563045
0.144,-0.7100105,-0.010125786,0.80865276,-0.30569527,-0.05681431,-0.12813228
0.146,-0.68696576,-0.013545752,0.8127242,-0.31038362,-0.041241042,-0.13382012
0.148,-0.6617149,-0.018323332,0.81515104,-0.3150595,-0.025267087,-0.13746405
0.15,-0.63398373,-0.024342626,0.8159825,-0.319804,-0.009367928,-0.13897803
0.152,-0.60338235,-0.031351447,0.81535554,-0.32471308,0.0059854686,-0.13832098
0.154,-0.5699769,-0.039326966,0.8134329,-0.32986265,0.020388857,-0.13545364
0.156,-0.5338016,-0.048092455,0.81068444,-0.33532017,0.033583786,-0.13031058
0.158,-0.49483764,-0.057542026,0.8074265,-0.34112957,0.04535789,-0.122845285
0.16,-0.4526912,-0.06797314,0.8038254,-0.347343,0.055528834,-0.11300346
0.162,-0.4071051,-0.07975677,0.8000064,-0.35400775,0.06395984,-0.10070161
0.164,-0.35787866,-0.0930092,0.7967384,-0.36118916,0.07054399,-0.08587831
0.166,-0.30556035,-0.10708937,0.79458123,-0.36893195,0.075182185,-0.06855663
0.168,-0.25023556,-0.12161982,0.7935197,-0.37726346,0.07779862,-0.048858847
0.17,-0.19217752,-0.13622458,0.79451853,-0.3861927,0.0783139,-0.026999796
0.172,-0.13141124,-0.15081419,0.79869175,-0.39572388,0.07664764,-0.0032928642
0.174,-0.068374515,-0.16533828,0.80649066,-0.40584144,0.07280181,0.021913148
0.176,-0.0035338402,-0.17965129,0.8182324,-0.41652063,0.066868745,0.048279475
0.178,0.062895104,-0.19379576,0.8345345,-0.4277239,0.058986887,0.07548421
0.18,0.13070498,-0.20751294,0.8561811,-0.4394043,0.049341813,0.10325307
0.182,0.19952661,-0.22085166,0.8838419,-0.45154476,0.038158983,0.13142046
0.184,0.26871082,-0.233397,0.9183941,-0.4641556,0.025674745,0.1599565
0.186,0.3377707,-0.24511029,0.96065545,-0.47728968,0.012141168,0.18896931
0.188,0.40642184,-0.25579262,1.011032,-0.4910016,-0.0021333545,0.21867332
0.19,0.4740263,-0.265301,1.0697948,-0.50536954,-0.016809061,0.24930201
0.192,0.5401974,-0.27345157,1.1369634,-0.52044946,-0.031505123,0.28108922
0.194,0.60453916,-0.280199,1.2123847,-0.53628373,-0.045936435,0.31419137
0.196,0.6670184,-0.2855785,1.2958504,-0.55291355,-0.059782505,0.34857044
0.198,0.72709674,-0.2895041,1.387959,-0.5703286,-0.072689116,0.383937
0.2,0.78429437,-0.29207224,1.4885837,-0.5884832,-0.08441654,0.41974938
0.202,0.8384903,-0.29349524,1.5967981,-0.6071899,-0.09470156,0.4553195
0.204,0.88969016,-0.29410198,1.7111629,-0.6261542,-0.1032629,0.4898626
0.206,0.9379226,-0.29415944,1.8306162,-0.64499205,-0.10986546,0.52254915
0.208,0.9832844,-0.29395738,1.9532598,-0.66322875,-0.11424422,0.5526253
0.21,1.026163,-0.2937109,2.077124,-0.68032014,-0.11608666,0.5794749
0.212,1.0668099,-0.29364702,2.200017,-0.69569796,-0.11502433,0.6026835
0.214,1.1054403,-0.29384968,2.3197708,-0.7087601,-0.11063892,0.62202466
0.216,1.1421919,-0.29442054,2.434116,-0.7188852,-0.102511644,0.6374673
0.218,1.1776614,-0.295574,2.540669,-0.72552127,-0.090263516,0.6491994
0.22,1.2120552,-0.29738393,2.6373324,-0.7282065,-0.07356802,0.65759313
0.222,1.2453574,-0.2997536,2.722012,-0.7266259,-0.05217266,0.6632028
0.224,1.2779049,-0.30246505,2.7929378,-0.72060966,-0.025927156,0.6666993
0.226,1.3096128,-0.30513713,2.8484836,-0.71015376,0.0052044094,0.6688647
0.228,1.3406396,-0.30749387,2.887303,-0.69548047,0.041050076,0.67049956
0.23,1.3712604,-0.3092717,2.908614,-0.6770405,0.081275314,0.6724024
0.232,1.4013996,-0.31001773,2.912163,-0.65551215,0.1254029,0.67532694
0.234,1.4305772,-0.3090476,2.8977792,-0.6317853,0.17271283,0.6799019
0.236,1.4583464,-0.3059936,2.8657274,-0.6068609,0.22224729,0.68659806
0.238,1.4847797,-0.3005022,2.8164709,-0.5818092,0.2728444,0.6956633
0.24,1.5097761,-0.29220402,2.7509625,-0.55767894,0.32313117,0.70712215
0.242,1.5330364,-0.28027552,2.6704233,-0.53542936,0.37160924,0.7207425
0.244,1.5542682,-0.26450568,2.5763931,-0.5158374,0.4167997,0.73609316
0.246,1.5729015,-0.24440652,2.4707634,-0.4994329,0.45735657,0.75257885
0.248,1.5884051,-0.21982533,2.3552222,-0.4864583,0.49226427,0.769553
0.25,1.6002827,-0.19059293,2.2314124,-0.47686097,0.520784,0.7864271
0.252,1.6084089,-0.1567161,2.1010966,-0.47032312,0.5425873,0.80272335
0.254,1.6127256,-0.118378475,1.9656862,-0.4663017,0.55782896,0.8180977
0.256,1.6125606,-0.07577132,1.8267531,-0.46416295,0.56696516,0.83227205
0.258,1.6076401,-0.029333115,1.6859041,-0.463167,0.57075036,0.84507364
0.26,1.5975429,0.020136267,1.5442069,-0.4625326,0.5701606,0.85644734
0.262,1.5822111,0.07199499,1.4026016,-0.461541,0.5662399,0.86640835
0.264,1.5619587,0.1257779,1.2618726,-0.4595615,0.55996263,0.87501055
0.266,1.5370741,0.18076146,1.1224989,-0.45611924,0.5521938,0.88232046
0.268,1.507582,0.23640919,0.98533106,-0.45089105,0.54361576,0.88839865
0.27,1.4735532,0.2923539,0.85097766,-0.4437539,0.5346661,0.8933008
0.272,1.4351977,0.34806278,0.7199581,-0.43472472,0.52559173,0.89708066
0.274,1.3927908,0.40283206,0.591895,-0.42396325,0.51645315,0.89981663
0.276,1.3471353,0.45566598,0.46693766,-0.41171384,0.50717324,0.90160847
0.278,1.2988659,0.50607383,0.346227,-0.39829534,0.4975877,0.9025969
0.28,1.2489991,0.5535892,0.2298672,-0.384051,0.48750696,0.90297365
0.282,1.1981916,0.5977335,0.118031904,-0.36927757,0.47676426,0.902993
0.284,1.1473787,0.637878,0.0116312355,-0.35422835,0.4652246,0.9029353
0.286,1.0975103,0.6733796,-0.08838494,-0.33908847,0.4528203,0.9030581
0.288,1.0491143,0.704021,-0.18145597,-0.32396412,0.43962684,0.9036115
0.29,1.0027994,0.7296021,-0.26737255,-0.30891633,0.42579523,0.9047398
0.292,0.9595996,0.7502368,-0.34635335,-0.2939241,0.4115433,0.90651494
0.294,0.9204248,0.76561344,-0.4186681,-0.27891102,0.39716762,0.90891397
0.296,0.88625264,0.77569956,-0.4846979,-0.2637377,0.38300633,0.9118622
0.298,0.8577328,0.78044665,-0.54411036,-0.24824348,0.36944637,0.91524243
0.3,0.8356192,0.78002644,-0.59666574,-0.23224564,0.35687488,0.9189081
0.302,0.820444,0.77475476,-0.64214146,-0.21555133,0.34566304,0.9227292
0.304,0.8126483,0.76486385,-0.6804586,-0.19798747,0.3361139,0.9265911
0.306,0.8126121,0.75075424,-0.71175665,-0.1794457,0.32844096,0.9304068
0.308,0.82074064,0.73255664,-0.7370277,-0.15990694,0.32274824,0.9341
0.31,0.8375872,0.7105888,-0.75650835,-0.13943657,0.31899977,0.93760216
0.312,0.86307335,0.68516934,-0.7697568,-0.118190385,0.31697395,0.94082856
0.314,0.89704674,0.6569899,-0.7765789,-0.09642,0.31627673,0.94367
0.316,0.93948936,0.6263585,-0.77724755,-0.07444152,0.3163398,0.94598544
0.318,0.9901837,0.59359527,-0.7720319,-0.05265975,0.31646305,0.947593
0.32,1.0488013,0.5588879,-0.7613502,-0.031514775,0.31586927,0.94823456
0.322,1.1151682,0.5223063,-0.7457644,-0.011451207,0.3137909,0.94759274
0.324,1.1887822,0.48406702,-0.7258127,0.0071776696,0.309607,0.9453329
0.326,1.2694025,0.44458234,-0.7021642,0.024184957,0.30293226,0.94116473
0.328,1.356245,0.4044255,-0.6754608,0.0395916,0.29374653,0.934941
0.33,1.4487203,0.3640461,-0.64654565,0.053646598,0.28244388,0.9266767
0.332,1.5460565,0.32402098,-0.6162385,0.066828,0.26986647,0.9165968
0.334,1.6474242,0.28467172,-0.5856472,0.07975577,0.25717396,0.90510327
0.336,1.7517755,0.24630892,-0.55577517,0.09314689,0.24574828,0.89275604
0.338,1.8578522,0.20953101,-0.52768326,0.10770546,0.2369523,0.8802059
0.34,1.9641545,0.17517924,-0.5025915,0.1240401,0.23195373,0.86811084
0.342,2.069241,0.14394528,-0.4820661,0.14257878,0.23154521,0.85699505
0.344,2.1716266,0.11646235,-0.46726814,0.16349468,0.23599657,0.8471945
0.346,2.2697265,0.093402386,-0.45920274,0.18673143,0.24505132,0.83878934
0.348,2.3620296,0.075421095,-0.45892957,0.21201856,0.25794488,0.8316036
0.35,2.4471142,0.062989354,-0.46743625,0.23892987,0.27354452,0.82523584
0.352,2.5236902,0.056396008,-0.48539582,0.26698768,0.29052165,0.8191173
0.354,2.5906038,0.056202292,-0.51343954,0.29570368,0.30758265,0.8126224
0.356,2.6469958,0.06248057,-0.55247444,0.3246633,0.32362235,0.80514836
0.358,2.6919806,0.07520223,-0.60369945,0.35356674,0.3378871,0.796226
0.36,2.7253475,0.09391737,-0.6673701,0.38225174,0.34999508,0.78554416
0.362,2.7466424,0.11852956,-0.7437147,0.41066188,0.35993296,0.7729851
0.364,2.7556617,0.14899528,-0.8328649,0.43878037,0.367984,0.75858885
0.366,2.7523456,0.18533361,-0.93463105,0.4666096,0.37463313,0.7425221
0.368,2.7368996,0.2274952,-1.0489894,0.49416018,0.38042992,0.72504544
0.37,2.7099636,0.27504218,-1.1756241,0.5214193,0.385893,0.70646685
0.372,2.6722598,0.3269241,-1.3141291,0.5483508,0.39140218,0.68709856
0.374,2.6248128,0.3821032,-1.4636513,0.57488394,0.3971231,0.66725165
0.376,2.568554,0.43958962,-1.6230893,0.6009129,0.4029894,0.6471879
0.378,2.504931,0.4984386,-1.7912403,0.6262814,0.40870282,0.6270782
0.38,2.4353337,0.5579934,-1.9667048,0.6508106,0.4137544,0.6069749
0.382,2.3611574,0.61761117,-2.1479473,0.67432207,0.41746068,0.5868054
0.384,2.2840776,0.6765083,-2.3332229,0.6966523,0.41901696,0.5664216
0.386,2.205495,0.7338337,-2.5208514,0.7176691,0.41760084,0.5456186
0.388,2.1265018,0.78882515,-2.7092671,0.73726785,0.4124142,0.5241887
0.39,2.0482514,0.8408785,-2.8965113,0.7553057,0.40266958,0.5019703
0.392,1.9719081,0.8897139,-3.0801384,0.77167964,0.3877427,0.47887725
0.394,1.8985806,0.9351438,-3.2576337,0.7862637,0.36719355,0.45491648
0.396,1.8293256,0.97695637,-3.4266398,0.79892135,0.3408056,0.43020445
0.398,1.7648159,1.0148172,-3.5846882,0.8095069,0.3086238,0.40500233
0.4,1.7057688,1.0483942,-3.7293448,0.81782305,0.27089968,0.3797262
0.402,1.6521503,1.0777562,-3.8583124,0.82368004,0.2281053,0.354917
0.404,1.6039146,1.1034122,-3.9696853,0.8268901,0.18088534,0.33120283
0.406,1.5608296,1.1260948,-4.0618176,0.82728946,0.13005432,0.30922705
0.408,1.5220586,1.1466807,-4.133709,0.8247947,0.07656592,0.28955996
0.41,1.4870989,1.1659538,-4.184605,0.8194384,0.02150333,0.27256364
0.412,1.4550333,1.1848047,-4.2141175,0.8114158,-0.03396517,0.25833735
0.414,1.4245448,1.204346,-4.2222114,0.8010886,-0.088568866,0.24673685
0.416,1.3940406,1.2255328,-4.209313,0.78902346,-0.1409541,0.23737791
0.418,1.3622767,1.2495468,-4.176185,0.77598196,-0.18968828,0.22971514
0.42,1.3275756,1.2773011,-4.1241236,0.76288944,-0.23329306,0.22313732
0.422,1.2886053,1.3097081,-4.054879,0.75075334,-0.2702583,0.21702981
0.424,1.2439432,1.3473501,-3.9701838,0.7406274,-0.2991516,0.21088369
0.426,1.1921692,1.3908371,-3.8720164,0.73353827,-0.31864962,0.20432475
0.428,1.1320354,1.4404912,-3.7621384,0.73039955,-0.32765484,0.19708622
0.43,1.062752,1.4965202,-3.6426,0.7319072,-0.32543138,0.18896271
0.432,0.98393357,1.5587876,-3.5157437,0.7384941,-0.3116725,0.1797869
0.434,0.89549744,1.6268746,-3.3840249,0.75026155,-0.28656742,0.16944034
0.436,0.7975848,1.7001197,-3.2498353,0.7669671,-0.25082374,0.15781388
0.438,0.6907853,1.7776185,-3.1154606,0.7880531,-0.20562345,0.14486468
0.44,0.57603735,1.858438,-2.98303,0.8126598,-0.15261637,0.13066858
0.442,0.45460755,1.9413593,-2.8544755,0.83969927,-0.093764156,0.115463935
0.444,0.32815975,2.0252454,-2.731389,0.8679372,-0.031243712,0.099647455
0.446,0.19870639,2.1088762,-2.6150458,0.89602256,0.032590926,0.08379082
0.448,0.06834638,2.1910224,-2.5066285,0.9226008,0.095329225,0.068619385
0.45,-0.060599685,2.27038,-2.4069898,0.9463989,0.15462285,0.054941416
0.452,-0.18580389,2.3459187,-2.31663,0.9663097,0.20828313,0.04353212
0.454,-0.30478227,2.4168296,-2.2359838,0.98144054,0.25436252,0.035047755
0.456,-0.41549194,2.482471,-2.1653414,0.9911195,0.2912286,0.030041993
0.458,-0.5159887,2.5425498,-2.1047018,0.994942,0.3176193,0.028929055
0.46,-0.6045003,2.5968504,-2.0538373,0.9927716,0.33268437,0.03203039
0.462,-0.67973435,2.6454263,-2.0122554,0.984712,0.33598763,0.039564908
0.464,-0.7407106,2.6884403,-1.9793876,0.97107327,0.32750264,0.051725134
0.466,-0.78706264,2.7264323,-1.9542148,0.9523624,0.30759043,0.06864673
0.468,-0.81878114,2.7602806,-1.9354992,0.9292339,0.27695972,0.090366766
0.47,-0.8364986,2.7911334,-1.9224751,0.9024694,0.23660356,0.116810426
0.472,-0.8415333,2.819983,-1.9141748,0.8729186,0.18773419,0.14774549
0.474,-0.8345859,2.8475008,-1.9105422,0.841462,0.13171211,0.18276688
0.476,-0.8169435,2.8747816,-1.9111743,0.808977,0.069983065,0.22135445
0.478,-0.7903527,2.9029827,-1.9147778,0.77628165,0.0039976835,0.26287788
0.48,-0.7573489,2.9336948,-1.9203119,0.7440876,-0.06482743,0.30665386
0.482,-0.72049046,2.9688172,-1.9267949,0.71299326,-0.13516422,0.3520083
0.484,-0.6822604,3.0097933,-1.9334507,0.6834985,-0.20582858,0.3983091
0.486,-0.645411,3.057695,-1.9394739,0.6559875,-0.27581355,0.44498712
0.488,-0.61289394,3.1133428,-1.9436256,0.63071907,-0.34427816,0.4915465
0.49,-0.5874013,3.1772838,-1.9448109,0.6078761,-0.41055048,0.53760976
0.492,-0.5714923,3.250197,-1.9426332,0.5875461,-0.47411415,0.5828943
0.494,-0.567685,3.3325763,-1.9365118,0.56976455,-0.5345376,0.62723935
0.496,-0.57811713,3.4245338,-1.9254723,0.55453974,-0.59142727,0.67060477
0.498,-0.6046034,3.5265844,-1.9093289,0.5418146,-0.6444013,0.71308494
0.5,-0.64879394,3.6388965,-1.8885096,0.53149736,-0.6930984,0.7548765
0.502,-0.71176517,3.7615237,-1.8638047,0.5234602,-0.73709977,0.7962996
0.504,-0.7943188,3.8942924,-1.8360577,0.5175284,-0.7759391,0.8377969
0.506,-0.89637053,4.036781,-1.8060869,0.5134829,-0.80926096,0.8798397
0.508,-1.017608,4.188262,-1.7745669,0.5110743,-0.8368199,0.9229177
0.51,-1.1576622,4.3478565,-1.7422767,0.5100199,-0.85850835,0.96751213
0.512,-1.3152462,4.5147457,-1.7099144,0.5099733,-0.8744203,1.0140722
0.514,-1.4895484,4.6879625,-1.6785758,0.5105347,-0.88490164,1.0630013
0.516,-1.6780195,4.865922,-1.6488128,0.51125,-0.8906064,1.1147058
0.518,-1.8782556,5.047433,-1.6213765,0.5116317,-0.8924753,1.1695377
0.52,-2.087924,5.2308035,-1.5975704,0.51116985,-0.8916615,1.2277614
0.522,-2.3041067,5.414696,-1.5780523,0.5093808,-0.8895414,1.2894675
0.524,-2.5239463,5.598089,-1.5632485,0.505793,-0.8876712,1.3545254
0.526,-2.7440872,5.7798233,-1.5530531,0.49995494,-0.88767815,1.4226419
0.528,-2.961834,5.9589615,-1.546765,0.491475,-0.8910987,1.4933362
0.53,-3.1746008,6.13449,-1.5437214,0.48003927,-0.8993415,1.5658933
0.532,-3.3795257,6.3048277,-1.5422276,0.46548098,-0.9134974,1.6394503
0.534,-3.5751,6.469121,-1.5409085,0.44786203,-0.9342085,1.7131145
0.536,-3.7583342,6.6261387,-1.5390337,0.42746603,-0.96155,1.786021
0.538,-3.9274788,6.775031,-1.5353305,0.4048078,-0.9949556,1.8574355
0.54,-4.081428,6.9151335,-1.5285248,0.3806315,-1.0332563,1.9268119
0.542,-4.2192645,7.04634,-1.5180588,0.3559087,-1.0747206,1.9937999
0.544,-4.340448,7.1686363,-1.5028653,0.33172566,-1.1171982,2.0582185
0.546,-4.444749,7.282115,-1.4820589,0.30920583,-1.1583632,2.1199675
0.548,-4.5317287,7.3868313,-1.4550161,0.2894408,-1.1957897,2.178903
0.55,-4.6014853,7.482961,-1.4208266,0.2733268,-1.2273376,2.2348342
0.552,-4.6549788,7.5711746,-1.3787366,0.26146305,-1.2513571,2.287479
0.554,-4.692803,7.6517844,-1.3285211,0.25414163,-1.2667437,2.3363826
0.556,-4.715617,7.7251253,-1.2701808,0.25128257,-1.2731905,2.380856
0.558,-4.724559,7.791543,-1.2034807,0.25246084,-1.2711774,2.4199688
0.56,-4.720816,7.8513002,-1.1281435,0.25696445,-1.2618027,2.4526587
0.562,-4.7054424,7.9046946,-1.0441173,0.2638563,-1.2468232,2.4777763
0.564,-4.679529,7.9517765,-0.9515076,0.27208692,-1.2284122,2.4941719
0.566,-4.6439953,7.9926295,-0.8506992,0.28053486,-1.2090352,2.5007274
0.568,-4.5997963,8.027121,-0.74221855,0.28803158,-1.1913133,2.49645
0.57,-4.5479355,8.055356,-0.62646395,0.29352874,-1.1776365,2.480479
0.572,-4.4894943,8.077191,-0.50364,0.29612577,-1.1701462,2.4521296
0.574,-4.4249096,8.091749,-0.37367463,0.29507828,-1.1706684,2.4109588
0.576,-4.353792,8.098142,-0.23710752,0.28985584,-1.1804783,2.3568518
0.578,-4.2765408,8.095579,-0.09465605,0.2802245,-1.2002892,2.2900257
0.58,-4.1942086,8.083382,0.053323567,0.26626927,-1.2302879,2.2110252
0.582,-4.10661,8.060254,0.20652348,0.24833256,-1.270075,2.120694
0.584,-4.013057,8.024295,0.3648559,0.22692579,-1.3187532,2.0202115
0.586,-3.9124985,7.973386,0.52685875,0.20267445,-1.3750584,1.9110537
0.588,-3.8048315,7.9063864,0.6907947,0.17620987,-1.4375503,1.7949113
0.59,-3.6897125,7.8218355,0.8552332,0.14808673,-1.504744,1.673613
0.592,-3.566188,7.7180986,1.0188533,0.11871779,-1.575238,1.5490264
0.594,-3.4333136,7.5936418,1.1799581,0.08831179,-1.6477959,1.4229321
0.596,-3.2918956,7.4483137,1.3368871,0.056824684,-1.7213839,1.2969103
0.598,-3.138935,7.280841,1.4885947,0.02401352,-1.7951856,1.1722903
0.6,-2.9710028,7.087637,1.6314362,-0.010458708,-1.8685032,1.0501361
0.602,-2.7827559,6.863039,1.7641747,-0.046974897,-1.9408145,0.9312347
0.604,-2.5745912,6.606166,1.8878022,-0.08580673,-2.011447,0.81610465
0.606,-2.348133,6.3206224,2.0013075,-0.12694156,-2.0794964,0.70509607
0.608,-2.1002586,6.007602,2.0997689,-0.1701026,-2.143971,0.5984756
0.61,-1.828004,5.6647053,2.1769931,-0.21471936,-2.2036264,0.49652398
0.612,-1.5293187,5.28839,2.2320588,-0.25992334,-2.256895,0.3995372
0.614,-1.2040145,4.8792405,2.2642307,-0.30454183,-2.3020067,0.30783778
0.616,-0.8528348,4.43979,2.271548,-0.347193,-2.3371325,0.22181275
0.618,-0.48191452,3.9729154,2.251181,-0.3864603,-2.3606133,0.14183378
0.62,-0.092559874,3.477642,2.2081096,-0.42093557,-2.370869,0.06824726
0.622,0.31939715,2.95291,2.141224,-0.4493032,-2.3665414,0.0013203621
0.624,0.75224197,2.4028888,2.0408564,-0.47060585,-2.34696,-0.058724523
0.626,1.2046125,1.8326557,1.9060265,-0.4844491,-2.3123698,-0.111733496
0.628,1.6746081,1.2449176,1.7407926,-0.49069995,-2.2631936,-0.1577155
0.63,2.157891,0.64057475,1.5497096,-0.489375,-2.2002833,-0.19680369
0.632,2.6517503,0.019782066,1.3412404,-0.48092103,-2.1255903,-0.22878689
0.634,3.1573439,-0.6139542,1.1306081,-0.466358,-2.0421903,-0.2531801
0.636,3.664039,-1.2429516,0.9201138,-0.44729215,-1.9535985,-0.26958144
0.638,4.167973,-1.8530315,0.7018562,-0.4253989,-1.8628488,-0.27791744
0.64,4.6701713,-2.4374294,0.47691864,-0.40226024,-1.7733305,-0.2785002
0.642,5.165141,-2.9877257,0.25374302,-0.3794055,-1.6885996,-0.27136168
0.644,5.645357,-3.4985564,0.039407462,-0.3581847,-1.6113906,-0.25606737
0.646,6.105181,-3.967565,-0.16628534,-0.33963716,-1.5434203,-0.23231232
0.648,6.5426655,-4.3925314,-0.3679939,-0.32446742,-1.4853172,-0.20022118
0.65,6.957554,-4.7689047,-0.56467175,-0.31316048,-1.4369605,-0.16001981
0.652,7.3480425,-5.0890946,-0.75010705,-0.3057381,-1.397253,-0.111418754
0.654,7.711421,-5.3445635,-0.9186852,-0.3019659,-1.3653622,-0.054032415
0.656,8.045923,-5.5283813,-1.0656185,-0.30141366,-1.3405759,0.0121148825
0.658,8.349714,-5.6334834,-1.1867306,-0.30327356,-1.3219945,0.086270064
0.66,8.620753,-5.6505647,-1.2782648,-0.30651215,-1.3088558,0.16745666
0.662,8.859315,-5.574218,-1.3382304,-0.3100531,-1.3010468,0.25532398
0.664,9.066676,-5.4030857,-1.3677299,-0.31244004,-1.2986301,0.35066953
0.666,9.243353,-5.1391606,-1.370894,-0.31123716,-1.3004836,0.45485845
0.668,9.388859,-4.7868385,-1.3537529,-0.3032062,-1.3034467,0.5691683
0.67,9.501764,-4.3521147,-1.3237977,-0.28528374,-1.3040197,0.6942273
0.672,9.579988,-3.842917,-1.2893894,-0.25427234,-1.2983468,0.8305295
0.674,9.62097,-3.268485,-1.2592611,-0.20675814,-1.2804683,0.97797555
0.676,9.621656,-2.64019,-1.2423236,-0.13933337,-1.2420236,1.135132
0.678,9.579394,-1.9714918,-1.2475514,-0.048677206,-1.1732688,1.2989553
0.68,9.492853,-1.2777014,-1.2837982,0.06816095,-1.063827,1.4644694
0.682,9.361735,-0.5753031,-1.3586817,0.21305525,-0.9040145,1.6239622
0.684,9.186348,0.1198411,-1.4783859,0.3863051,-0.6854937,1.7666137
0.686,8.967876,0.791816,-1.6467965,0.58636856,-0.40256038,1.8793235
0.688,8.709744,1.4254699,-1.8653625,0.8095511,-0.054515377,1.9486609
0.69,8.416731,2.0070083,-2.134685,1.0500993,0.35239437,1.9622583
0.692,8.094065,2.5253344,-2.453083,1.299974,0.8041481,1.9106338
0.694,7.7476115,2.972498,-2.8148165,1.5491416,1.2801577,1.7892083
0.696,7.384534,3.3427117,-3.2104945,1.7863597,1.7541513,1.599242
0.698,7.0135455,3.632125,-3.6292388,1.9998972,2.1959727,1.3486899
0.7,6.643899,3.8402457,-4.058589,2.1783395,2.5751376,1.0523605
0.702,6.284401,3.9698596,-4.4848375,2.3116026,2.8645978,0.73024666
0.704,5.9435396,4.0269136,-4.893639,2.3919828,3.044268,0.40449917
0.706,5.6305914,4.0183372,-5.2708015,2.4147897,3.1032143,0.09623778
0.708,5.3506584,3.9542212,-5.6035767,2.379171,3.0416756,-0.17637873
0.71,5.1077952,3.8478026,-5.878822,2.2882993,2.870113,-0.3998745
0.712,4.9043436,3.713225,-6.0878468,2.149011,2.6073122,-0.5667582
0.714,4.746865,3.5593245,-6.225771,1.9713284,2.278347,-0.6762833
0.716,4.639571,3.3919184,-6.2878075,1.7676338,1.9118052,-0.7339536
0.718,4.5794835,3.220002,-6.2676287,1.5511155,1.5359113,-0.7497822
0.72,4.5630765,3.055324,-6.1619935,1.3341534,1.1749599,-0.7354805
0.722,4.5863924,2.908262,-5.9763737,1.1275915,0.8476534,-0.7024673
0.724,4.645676,2.783101,-5.7179575,0.9405115,0.5678044,-0.66076386
0.726,4.73587,2.681901,-5.394213,0.77894866,0.3432072,-0.6190226
0.728,4.854716,2.6060996,-5.013683,0.6455043,0.17451158,-0.5838338
0.73,4.992983,2.5596442,-4.591696,0.5397478,0.056955546,-0.5593744
0.732,5.1365743,2.544125,-4.1364555,0.45883614,-0.017079145,-0.54776204
0.734,5.27909,2.5554574,-3.6497371,0.39844257,-0.056645483,-0.54931074
0.736,5.412587,2.5899973,-3.1441069,0.35356677,-0.07136908,-0.56235325
0.738,5.531512,2.646212,-2.6341922,0.31933385,-0.07028031,-0.5836678
0.74,5.63251,2.7240515,-2.1312559,0.29157057,-0.06068887,-0.60964066
0.742,5.71115,2.822181,-1.6468763,0.26692778,-0.04768297,-0.6368465
0.744,5.761403,2.935887,-1.1934038,0.24267054,-0.034230888,-0.6617067
0.746,5.7886524,3.0507371,-0.7670176,0.21679053,-0.021445066,-0.6810748
0.748,5.79086,3.1614532,-0.3569455,0.18812303,-0.00888218,-0.6929148
0.75,5.763717,3.2721207,0.03680277,0.15622501,0.0049157143,-0.69628346
0.752,5.7105703,3.3849735,0.40688992,0.12122196,0.021677196,-0.6912508
0.754,5.637439,3.5032008,0.7514789,0.08364554,0.042864546,-0.6787379
0.756,5.546066,3.6314986,1.0758545,0.044272527,0.06934257,-0.6602592
0.758,5.4364433,3.7715364,1.3853145,0.0039295703,0.101205885,-0.63764715
0.76,5.3088503,3.9205685,1.6782622,-0.036710113,0.13770881,-0.61283654
0.762,5.166064,4.0728226,1.949652,-0.077170685,0.17738624,-0.5877287
0.764,5.0118036,4.222798,2.19551,-0.11713076,0.21834868,-0.5639978
0.766,4.8490148,4.366969,2.4139752,-0.15644984,0.2585963,-0.54293
0.768,4.680662,4.5022626,2.604515,-0.19512792,0.29629743,-0.5253006
0.77,4.510171,4.6235676,2.7665915,-0.23326367,0.33008218,-0.51130074
0.772,4.3388968,4.7298803,2.9014869,-0.27095833,0.35925066,-0.5005455
0.774,4.1674533,4.8230696,3.0119495,-0.30824038,0.38387915,-0.49221218
0.776,3.9981546,4.9057846,3.1006231,-0.3449638,0.4048829,-0.48519972
0.778,3.8338695,4.979578,3.1700754,-0.38079852,0.4238084,-0.4782713
0.78,3.6777759,5.0446157,3.2223291,-0.4152563,0.44270816,-0.47016925
0.782,3.5326915,5.1006784,3.2586446,-0.44764203,0.46398273,-0.4598067
0.784,3.4016013,5.1467333,3.279289,-0.4771476,0.48997784,-0.44645798
0.786,3.2868805,5.1818447,3.2840624,-0.50285053,0.52294296,-0.42970765
0.788,3.1899767,5.2056007,3.2721415,-0.52380836,0.5648578,-0.40946788
0.79,3.1116524,5.21783,3.242199,-0.53914154,0.6173708,-0.38588655
0.792,3.0516968,5.218787,3.192037,-0.54800713,0.6817861,-0.35925236
0.794,3.0104504,5.207814,3.1193917,-0.5496551,0.759127,-0.3299255
0.796,2.9877915,5.184436,3.022461,-0.5434596,0.850167,-0.29827893
0.798,2.9837246,5.1480575,2.8997543,-0.52897,0.9553916,-0.26470703
0.8,2.9984655,5.097947,2.7510214,-0.50592273,1.0749567,-0.22963133
0.802,3.0320888,5.0335727,2.5759277,-0.47430083,1.2084647,-0.19344418
0.804,3.0842938,4.954233,2.3740196,-0.43443713,1.3548365,-0.15649328
0.806,3.1549098,4.859515,2.145051,-0.38712347,1.5121672,-0.119138926
0.808,3.2438898,4.7495856,1.8902634,-0.33362693,1.6775396,-0.08172405
0.81,3.3504853,4.6244855,1.6122161,-0.2757243,1.8469222,-0.04445696
0.812,3.4732985,4.4845023,1.3146716,-0.21571785,2.0152016,-0.007430047
0.814,3.6103487,4.329929,1.0023832,-0.15633518,2.176305,0.0293203
0.816,3.7595844,4.1619725,0.6808182,-0.10062504,2.3233695,0.065827996
0.818,3.9178073,3.9821796,0.35621214,-0.05183518,2.4490824,0.1022017
0.82,4.0823064,3.7922623,0.036087155,-0.013221145,2.5460913,0.13855708
0.822,4.2493606,3.594593,-0.27172387,0.0121126175,2.6075313,0.17495978
0.824,4.415103,3.3918843,-0.55937004,0.021459341,2.6275327,0.21137643
0.826,4.5759716,3.1866803,-0.8194451,0.012696981,2.6017418,0.24755692
0.828,4.728233,2.9815125,-1.0450212,-0.015486956,2.5278172,0.28304446
0.83,4.868517,2.7788332,-1.2296212,-0.06345308,2.4057314,0.31722865
0.832,4.9937124,2.580726,-1.3674703,-0.13053334,2.2380524,0.34944895
0.834,5.1014256,2.3890889,-1.4540397,-0.2150141,2.0298126,0.37908527
0.836,5.1905127,2.2050457,-1.486068,-0.31421292,1.7882912,0.40569302
0.838,5.2599707,2.0290272,-1.4614673,-0.42455745,1.5228114,0.42909133
0.84,5.3093815,1.8611474,-1.3793468,-0.5419264,1.2439004,0.44928017
0.842,5.340067,1.701287,-1.2415383,-0.6619197,0.9626238,0.4664838
0.844,5.3514576,1.5492053,-1.0509689,-0.7801788,0.6898151,0.4809546
0.846,5.3450336,1.4029162,-0.81032014,-0.89275837,0.4351848,0.49282834
0.848,5.321127,1.2608058,-0.52584565,-0.9963776,0.20665395,0.50202274
0.85,5.2822967,1.1198578,-0.20214498,-1.0885751,0.009940147,0.50809956
0.852,5.231495,0.977242,0.15530956,-1.167812,-0.15175319,0.5102328
0.854,5.1706214,0.8311846,0.53772557,-1.2335062,-0.27766073,0.50728333
0.856,5.1018276,0.67961824,0.93365765,-1.2858702,-0.3691278,0.49790993
0.858,5.0270567,0.52091074,1.3319148,-1.3257246,-0.4292936,0.48074192
0.86,4.9500217,0.35335994,1.7212715,-1.3542995,-0.46254477,0.4546408
0.862,4.874774,0.17557347,2.0928175,-1.3730879,-0.4738866,0.41885442
0.864,4.8020782,-0.012124419,2.439698,-1.3835957,-0.4683653,0.37301308
0.866,4.7300835,-0.20878458,2.7588773,-1.3871258,-0.4505827,0.31724855
0.868,4.6569557,-0.4130292,3.0490007,-1.3846558,-0.42432523,0.25220078
0.87,4.582738,-0.62262785,3.3059099,-1.3767719,-0.39220804,0.1789486
0.872,4.5054107,-0.83362734,3.5234785,-1.3635736,-0.3555369,0.098842874
0.874,4.4235725,-1.0416836,3.6959329,-1.344828,-0.3147912,0.0131466985
0.876,4.336945,-1.2439566,3.816358,-1.3199611,-0.26951784,-0.07702547
0.878,4.245314,-1.4401717,3.879558,-1.2882568,-0.21881562,-0.17086661
0.88,4.1490073,-1.6306171,3.881397,-1.2491517,-0.16198754,-0.26788568
0.882,4.049317,-1.8151352,3.8196812,-1.2021981,-0.09860274,-0.3678193
0.884,3.9467614,-1.9920384,3.6948717,-1.1471636,-0.028835326,-0.47084415
0.886,3.8409731,-2.1572728,3.5104024,-1.0842731,0.046115875,-0.57739514
0.888,3.731975,-2.3052244,3.2708378,-1.0143973,0.12384102,-0.6877947
0.89,3.6192544,-2.4293501,2.9820497,-0.93903,0.20082645,-0.80190754
0.892,3.5017357,-2.5231655,2.6513646,-0.86013424,0.27251184,-0.918877
0.894,3.3772743,-2.5803125,2.2870877,-0.7799981,0.33355582,-1.037037
0.896,3.2450607,-2.5959432,1.8990095,-0.701166,0.37833443,-1.1538587
0.898,3.1029973,-2.5662925,1.4961938,-0.626322,0.40149954,-1.2658845
0.9,2.948972,-2.489488,1.0878546,-0.5579974,0.39858162,-1.3688606
0.902,2.7819402,-2.365842,0.68330413,-0.49834305,0.36621004,-1.4583036
0.904,2.5998096,-2.197194,0.29080766,-0.44895792,0.3025968,-1.5301409
0.906,2.4014223,-1.987121,-0.082970224,-0.41060627,0.20823848,-1.5811785
0.908,2.188747,-1.7428217,-0.42987558,-0.38308984,0.08616844,-1.6095831
0.91,1.9558283,-1.4678115,-0.7424362,-0.36521107,-0.057728082,-1.615173
0.912,1.704984,-1.1675572,-1.0251757,-0.35483518,-0.21460503,-1.5995451
0.914,1.4433899,-0.8507408,-1.2808727,-0.34912986,-0.3731065,-1.56603
0.916,1.1694192,-0.5248778,-1.4989473,-0.34479862,-0.52008593,-1.5196035
0.918,0.87750256,-0.19639474,-1.67631,-0.3384822,-0.64179313,-1.4664782
0.92,0.57691956,0.12494415,-1.8227158,-0.32729995,-0.7254283,-1.4133778
0.922,0.27434626,0.43043536,-1.9366724,-0.30927816,-0.7608114,-1.3667932
0.924,-0.02633512,0.7126683,-2.0114512,-0.28358495,-0.74195445,-1.3322792
0.926,-0.32235163,0.9671872,-2.0545979,-0.25067866,-0.6681303,-1.3137339
0.928,-0.6019143,1.1854875,-2.0764213,-0.21216881,-0.54391325,-1.3127333
0.93,-0.8584444,1.3606668,-2.076135,-0.17076795,-0.37927997,-1.3286232
0.932,-1.088108,1.490113,-2.0566432,-0.1299531,-0.18812504,-1.3587176
0.934,-1.2844296,1.5724891,-2.0262964,-0.0934128,0.013649672,-1.3987616
0.936,-1.44065,1.6067648,-1.9872878,-0.064680666,0.20992139,-1.4436274
0.938,-1.5520668,1.5942032,-1.9400426,-0.046393543,0.386665,-1.4878128
0.94,-1.6166131,1.5383193,-1.8867215,-0.03986025,0.53380287,-1.5265901
0.942,-1.6319913,1.4431672,-1.8275445,-0.045002937,0.6463275,-1.5563872
0.944,-1.5971386,1.313367,-1.7618271,-0.0603348,0.72396755,-1.5752256
0.946,-1.5134685,1.1546563,-1.6890472,-0.08315337,0.77037054,-1.5834329
0.948,-1.3832635,0.97357255,-1.6084807,-0.109954536,0.7930014,-1.5826554
0.95,-1.2096381,0.7761837,-1.5197763,-0.13690329,0.80124116,-1.5750238
0.952,-0.9962667,0.5675572,-1.4216864,-0.16031933,0.8036263,-1.5634546
0.954,-0.7461287,0.3524885,-1.3152319,-0.17717862,0.80745363,-1.5510434
0.956,-0.4633695,0.13481992,-1.20051,-0.1855706,0.81843793,-1.540238
0.958,-0.15823072,-0.08108414,-1.0709206,-0.18494397,0.8392234,-1.5327295
0.96,0.1680091,-0.29278904,-0.93268895,-0.17611909,0.86921453,-1.5293816
0.962,0.5108137,-0.4988443,-0.79639876,-0.1609152,0.90611666,-1.5300858
0.964,0.8596024,-0.6984319,-0.65521985,-0.14185941,0.9464296,-1.5342174
0.966,1.2053131,-0.8891664,-0.50285083,-0.12175965,0.98595095,-1.5408331
0.968,1.5478863,-1.0715101,-0.34446996,-0.10309374,1.021247,-1.548528
0.97,1.8826474,-1.245447,-0.18125172,-0.0877015,1.0503078,-1.5556859
0.972,2.2005372,-1.4088662,-0.012704246,-0.07658756,1.0726304,-1.5607809
0.974,2.499843,-1.5628517,0.1531039,-0.069792986,1.089366,-1.5625596
0.976,2.7845755,-1.7109644,0.30637953,-0.06655347,1.1029043,-1.5601892
0.978,3.0527678,-1.8534964,0.4433977,-0.06559259,1.1161942,-1.5533364
0.98,3.2987683,-1.9886252,0.5648834,-0.0654493,1.1320608,-1.5421928
0.982,3.5223618,-2.1170132,0.6716291,-0.06474036,1.1525689,-1.5273843
0.984,3.7232964,-2.2392533,0.76431,-0.062323213,1.1787502,-1.5098504
0.986,3.8985965,-2.3527527,0.8449843,-0.057314813,1.2103826,-1.4907577
0.988,4.0448856,-2.4533765,0.91344166,-0.04942012,1.2459177,-1.4713671
0.99,4.159579,-2.5375476,0.9684408,-0.038865805,1.283533,-1.4525901
0.992,4.2405243,-2.6033583,1.0076058,-0.02622521,1.3208457,-1.4353142
0.994,4.2870064,-2.6512403,1.0289394,-0.012295842,1.3548319,-1.420375
0.996,4.299648,-2.6843832,1.0294387,0.0021746159,1.3835279,-1.4082981
0.998,4.279817,-2.7064092,1.0063212,0.016437352,1.406247,-1.3990479
1,4.229005,-2.7208817,0.9577559,0.029686034,1.4225051,-1.3921024
1.002,4.148889,-2.7301931,0.882818,0.041510582,1.4318614,-1.3873338
1.004,4.0415535,-2.7355793,0.7821163,0.05185634,1.4346652,-1.3849814
1.006,3.907823,-2.7365158,0.65704817,0.060656488,1.4320385,-1.3846512
1.008,3.7493255,-2.7320156,0.5117956,0.06775379,1.4245415,-1.3858001
1.01,3.5671065,-2.7204297,0.3513707,0.073111236,1.4125125,-1.3881459
1.012,3.3618762,-2.7002194,0.18099733,0.07674664,1.3968592,-1.3914171
1.014,3.135319,-2.670249,0.0064780004,0.0785315,1.3784406,-1.3954122
1.016,2.8892853,-2.63026,-0.16673553,0.07821691,1.3573904,-1.4002416
1.018,2.6238468,-2.5790348,-0.3358337,0.0755744,1.3338038,-1.406036
1.02,2.3471365,-2.5206099,-0.49815187,0.07034695,1.3079811,-1.412968
1.022,2.0589037,-2.457637,-0.64229316,0.062125206,1.2798094,-1.4214953
1.024,1.7569001,-2.3902233,-0.763891,0.050449908,1.248956,-1.4321084
1.026,1.4491597,-2.3205152,-0.8710042,0.034913063,1.2151651,-1.4452972
1.028,1.1469347,-2.2519593,-0.96260965,0.015221775,1.1781824,-1.4616117
1.03,0.84587485,-2.1844687,-1.0286951,-0.008819342,1.1378618,-1.4815345
1.032,0.5477426,-2.119313,-1.0716219,-0.037298262,1.0943239,-1.5054002
1.034,0.25683945,-2.0581455,-1.0967312,-0.07014853,1.0479639,-1.533371
1.036,-0.02021408,-2.0045698,-1.0943917,-0.10714728,0.9995221,-1.5654562
1.038,-0.28687263,-1.9558024,-1.0594239,-0.14791113,0.95004964,-1.6014742
1.04,-0.53914654,-1.9114597,-0.9969456,-0.19191903,0.90089035,-1.6410186
1.042,-0.7721126,-1.8733355,-0.90751296,-0.23831475,0.8537238,-1.6835424
1.044,-0.98421633,-1.8420665,-0.7888211,-0.28610682,0.8098749,-1.7285441
1.046,-1.175335,-1.816821,-0.6455903,-0.3342885,0.77098846,-1.7751399
1.048,-1.3446643,-1.7979709,-0.4837849,-0.38168663,0.73901254,-1.8220817
1.05,-1.4901996,-1.7854748,-0.3079912,-0.42712316,0.71479857,-1.8683436
1.052,-1.6116039,-1.7781466,-0.12373471,-0.4695003,0.6988931,-1.9129416
1.054,-1.7092988,-1.7753233,0.06534758,-0.5078316,0.6923342,-1.9545474
1.056,-1.7836998,-1.7767543,0.25698608,-0.54147977,0.69559205,-1.9918394
1.058,-1.835173,-1.7822857,0.4486959,-0.56996536,0.7088592,-2.0237982
1.06,-1.864258,-1.7910082,0.6371112,-0.5928009,0.73249733,-2.049953
1.062,-1.873107,-1.8008815,0.8178616,-0.6095549,0.7670655,-2.0701203
1.064,-1.8630298,-1.8113047,0.98859084,-0.62010515,0.8126997,-2.0842555
1.066,-1.8362665,-1.820693,1.144336,-0.6244899,0.8695282,-2.0925322
1.068,-1.7893311,-1.8298544,1.2773589,-0.62273675,0.93786573,-2.0954623
1.07,-1.7290318,-1.837688,1.3903279,-0.61501014,1.0178199,-2.0936494
1.072,-1.6571722,-1.8441918,1.487135,-0.60148937,1.1093825,-2.08759
1.074,-1.5682292,-1.8513551,1.5565889,-0.5823058,1.2124822,-2.0777218
1.076,-1.4607961,-1.8617845,1.5917877,-0.5575543,1.3269185,-2.0643766
1.078,-1.3411255,-1.8763447,1.595821,-0.5273861,1.4521537,-2.0476494
1.08,-1.2105057,-1.8964436,1.5661731,-0.49210316,1.5873133,-2.0274327
1.082,-1.0656915,-1.9249985,1.4991422,-0.45221245,1.731005,-2.0036862
1.084,-0.9087995,-1.9623499,1.3993316,-0.40845388,1.8811903,-1.9763882
1.086,-0.74493766,-2.007015,1.2709599,-0.36185205,2.0351257,-1.9454651
1.088,-0.5740542,-2.0603185,1.1140499,-0.31386912,2.1892273,-1.910792
1.09,-0.39643943,-2.1240287,0.9293434,-0.2664534,2.3390136,-1.8722633
1.092,-0.2159825,-2.1977909,0.72113204,-0.22202837,2.4791107,-1.8299909
1.094,-0.03726113,-2.2801547,0.4936094,-0.1834172,2.603408,-1.7843232
1.096,0.13711345,-2.3704293,0.25086313,-0.15365493,2.7054324,-1.7356822
1.098,0.30495805,-2.4676738,-0.0021687895,-0.13577545,2.778818,-1.6845534
1.1,0.46313047,-2.5704947,-0.25959313,-0.13246858,2.8180327,-1.6314411
1.102,0.6084269,-2.6774423,-0.51567256,-0.14578617,2.8190389,-1.5768275
1.104,0.7373764,-2.786357,-0.7656349,-0.17686307,2.7798858,-1.5210171
1.106,0.84689033,-2.8948474,-1.0038089,-0.22574222,2.7010756,-1.4640899
1.108,0.93360907,-3.000064,-1.2248478,-0.2912593,2.5856736,-1.4059454
1.11,0.99538994,-3.0996459,-1.423624,-0.37111676,2.4392025,-1.3463008
1.112,1.0308639,-3.1922765,-1.5956568,-0.46210718,2.2691033,-1.284863
1.114,1.0390105,-3.277342,-1.7370352,-0.5603788,2.0842733,-1.2214248
1.116,1.0200803,-3.3544626,-1.8453319,-0.6618773,1.893996,-1.1560588
1.118,0.9756292,-3.4241624,-1.9191036,-0.7626002,1.7073153,-1.0893149
1.12,0.9076414,-3.4874852,-1.9580022,-0.8590089,1.5320361,-1.0223343
1.122,0.81845117,-3.5454123,-1.9627533,-0.94840586,1.3741604,-0.9566846
1.124,0.7106296,-3.5991998,-1.9351037,-1.0289459,1.2376759,-0.8942743
1.126,0.58765125,-3.6504822,-1.8765377,-1.0997473,1.1242348,-0.8372837
1.128,0.45299792,-3.7014792,-1.7892294,-1.1607764,1.0334079,-0.7878163
1.13,0.3096646,-3.7548788,-1.676607,-1.212678,0.9631758,-0.7476093
1.132,0.16105473,-3.8139987,-1.5420421,-1.2565553,0.91052175,-0.71796834
1.134,0.010225058,-3.8827176,-1.3903097,-1.2937247,0.87185895,-0.6996194
1.136,-0.13792443,-3.9658864,-1.2255921,-1.3255138,0.8436583,-0.6925583
1.138,-0.27944362,-4.068028,-1.0510613,-1.3530892,0.8228437,-0.696346
1.14,-0.41124237,-4.1922445,-0.8694974,-1.3773328,0.8069277,-0.71033204
1.142,-0.52972496,-4.3414035,-0.6884178,-1.3987025,0.7942147,-0.73378354
1.144,-0.63185346,-4.5168743,-0.51564586,-1.4172612,0.78371465,-0.76593786
1.146,-0.71730125,-4.718184,-0.35820997,-1.43281,0.7750741,-0.8059879
1.148,-0.78370154,-4.9468293,-0.21927959,-1.4449651,0.76836634,-0.8533225
1.15,-0.83064425,-5.2049646,-0.101207614,-1.4532893,0.76377064,-0.9076248
1.152,-0.85710406,-5.4950657,-0.005196959,-1.4573942,0.76148003,-0.96874666
1.154,-0.86070895,-5.8197465,0.06480336,-1.457045,0.76147723,-1.0365791
1.156,-0.83906555,-6.180011,0.102357745,-1.4520977,0.7635634,-1.1110502
1.158,-0.79010034,-6.5731263,0.100749835,-1.4424411,0.7674692,-1.1921401
1.16,-0.7205548,-6.9916058,0.05758737,-1.4279604,0.7729217,-1.2798033
1.162,-0.6439619,-7.4212766,-0.01739797,-1.4085473,0.7797096,-1.3739215
1.164,-0.5640068,-7.8514314,-0.11568639,-1.3841461,0.7876127,-1.474295
1.166,-0.4821682,-8.273418,-0.24753933,-1.3546964,0.7964117,-1.580511
1.168,-0.40052176,-8.684163,-0.4278096,-1.3199149,0.80604064,-1.6920011
1.17,-0.3210621,-9.081245,-0.6609861,-1.2793561,0.8164349,-1.8081944
1.172,-0.24606156,-9.458896,-0.9505763,-1.2326746,0.8273987,-1.9283125
1.174,-0.1771872,-9.811791,-1.2970395,-1.1798997,0.83815545,-2.0512772
1.176,-0.11840987,-10.137,-1.6957167,-1.1215631,0.84726965,-2.1757324
1.178,-0.07421613,-10.429091,-2.1370428,-1.0587271,0.85260427,-2.3000944
1.18,-0.048309326,-10.676834,-2.610297,-0.99304926,0.8511579,-2.4224114
1.182,-0.042074203,-10.86794,-3.1075706,-0.92677736,0.8393089,-2.540231
1.184,-0.056663036,-10.991787,-3.6196754,-0.8625425,0.81312686,-2.6506004
1.186,-0.09592199,-11.03695,-4.1329403,-0.8032599,0.76817775,-2.7502408
1.188,-0.16479516,-10.991731,-4.634993,-0.7517885,0.69997203,-2.8354523
1.19,-0.26954913,-10.846178,-5.117125,-0.7103472,0.60435355,-2.9023762
1.192,-0.4128902,-10.594606,-5.5756774,-0.6805697,0.47820377,-2.9478517
1.194,-0.595706,-10.235903,-6.005926,-0.6636138,0.3214913,-2.9694037
1.196,-0.8229532,-9.771835,-6.3997855,-0.6591883,0.13754767,-2.9648464
1.198,-1.097713,-9.208508,-6.751704,-0.66550213,-0.0688439,-2.9326098
1.2,-1.4203353,-8.554714,-7.0591054,-0.6790929,-0.2907778,-2.8714974
1.202,-1.7859111,-7.8231516,-7.3202925,-0.69523597,-0.5179197,-2.780675
1.204,-2.1908321,-7.028557,-7.5272775,-0.709018,-0.7374213,-2.6612067
1.206,-2.6354673,-6.184845,-7.6709356,-0.71563804,-0.93517816,-2.5164392
1.208,-3.1130295,-5.309248,-7.753396,-0.71095544,-1.0970159,-2.3515377
1.21,-3.610156,-4.4246416,-7.778385,-0.6924503,-1.2097077,-2.1737752
1.212,-4.117464,-3.5537152,-7.740896,-0.65984225,-1.2625537,-1.9926759
1.214,-4.6267066,-2.7165194,-7.6395655,-0.61550903,-1.249656,-1.8192129
1.216,-5.125266,-1.9329599,-7.481457,-0.56443936,-1.1713071,-1.6645837
1.218,-5.597584,-1.2245884,-7.2730107,-0.5134867,-1.0341643,-1.5391674
1.22,-6.031307,-0.60976946,-7.017238,-0.4705044,-0.85098326,-1.4514008
1.222,-6.414489,-0.102213025,-6.7188888,-0.44343758,-0.63950765,-1.4063398
1.224,-6.7343955,0.28726912,-6.383938,-0.43910402,-0.42028418,-1.4049616
1.226,-6.9800324,0.55090237,-6.017323,-0.4619525,-0.21379563,-1.4442127
1.228,-7.142996,0.6859566,-5.6235833,-0.5133412,-0.037029326,-1.517149
1.23,-7.2162366,0.69435,-5.207009,-0.5914768,0.09841727,-1.6138728
1.232,-7.1949472,0.5816779,-4.771908,-0.6917207,0.18741073,-1.7228508
1.234,-7.077509,0.35698247,-4.3229628,-0.8070729,0.23141532,-1.8326399
1.236,-6.866047,0.032644153,-3.86578,-0.92906255,0.23790273,-1.9334269
1.238,-6.564638,-0.37653828,-3.406097,-1.0488878,0.21881217,-2.0179224
1.24,-6.18,-0.85459805,-2.9472551,-1.1582859,0.1878227,-2.081879
1.242,-5.721703,-1.3836656,-2.491836,-1.2504342,0.15765993,-2.1240797
1.244,-5.1950564,-1.9481663,-2.0519445,-1.3206807,0.13883787,-2.1456265
1.246,-4.6193266,-2.5298383,-1.6345454,-1.3663796,0.13815051,-2.1490757
1.248,-4.015981,-3.1089,-1.2410899,-1.3867445,0.15709761,-2.1381266
1.25,-3.3972225,-3.6700253,-0.87657636,-1.3833191,0.1937316,-2.1169264
1.252,-2.775443,-4.2017355,-0.544076,-1.3591831,0.24562413,-2.0890038
1.254,-2.1652648,-4.693731,-0.24438703,-1.3184142,0.30936563,-2.0572314
1.256,-1.5796653,-5.138144,0.019680515,-1.2652653,0.38058665,-2.023544
1.258,-1.0310844,-5.5287375,0.24239583,-1.2033359,0.45585707,-1.9880335
1.26,-0.5296344,-5.8599653,0.41884732,-1.1358945,0.533409,-1.9498494
1.262,-0.085071206,-6.128177,0.5457424,-1.0658141,0.61289334,-1.9083862
1.264,0.29458797,-6.3321586,0.62338465,-0.99525493,0.6946287,-1.8632085
1.266,0.6056398,-6.4741654,0.65390027,-0.92570186,0.7792771,-1.8140689
1.268,0.8471099,-6.5601315,0.6383114,-0.8579787,0.8680293,-1.7613665
1.27,1.0245694,-6.5995717,0.5736489,-0.7924419,0.9619204,-1.7062961
1.272,1.1473747,-6.604233,0.44979092,-0.72950697,1.0611179,-1.6504328
1.274,1.2149686,-6.5785313,0.26216996,-0.669401,1.1653986,-1.5953606
1.276,1.2279046,-6.524775,0.025913626,-0.61237216,1.2730111,-1.5430719
1.278,1.1889758,-6.4419127,-0.24334106,-0.5586556,1.3819447,-1.4952995
1.28,1.1020354,-6.3315287,-0.5419557,-0.50833815,1.490347,-1.4534528
1.282,0.9732443,-6.1998496,-0.86745626,-0.46141377,1.595422,-1.4188266
1.284,0.8083515,-6.051109,-1.2218614,-0.41754466,1.6941347,-1.3923597
1.286,0.6153728,-5.888112,-1.6083686,-0.37607753,1.7840084,-1.3745506
1.288,0.40158236,-5.7167,-2.0302117,-0.336453,1.8628001,-1.3653581
1.29,0.17205036,-5.5472026,-2.4867342,-0.2983069,1.9280257,-1.3641595
1.292,-0.07009417,-5.3882833,-2.9708087,-0.26136944,1.9772809,-1.3700331
1.294,-0.32200837,-5.2446957,-3.474893,-0.2255112,2.0090866,-1.3818314
1.296,-0.5779693,-5.1213636,-3.9932785,-0.19082677,2.0225806,-1.3984941
1.298,-0.8321996,-5.0216565,-4.517234,-0.15758505,2.0169535,-1.4191189
1.3,-1.0792332,-4.9470344,-5.034836,-0.12617958,1.9919273,-1.4427559
1.302,-1.3175989,-4.8958235,-5.53141,-0.09706101,1.9481771,-1.4686236
1.304,-1.5466092,-4.864547,-5.9967704,-0.07065156,1.8870088,-1.4963591
1.306,-1.7616341,-4.8502045,-6.424686,-0.04722461,1.8101444,-1.5258858
1.308,-1.9606881,-4.8493075,-6.8067226,-0.026815668,1.7198284,-1.5571662
1.31,-2.1427853,-4.860151,-7.133683,-0.009247109,1.618706,-1.5901946
1.312,-2.3106492,-4.8804216,-7.39942,0.0058373213,1.5096833,-1.6249595
1.314,-2.4627054,-4.909409,-7.604898,0.018943071,1.3956643,-1.6614169
1.316,-2.5931902,-4.9490986,-7.7518206,0.030661777,1.2794385,-1.6994306
1.318,-2.7025912,-4.999075,-7.832528,0.04161583,1.1635892,-1.7387497
1.32,-2.7949038,-5.0552955,-7.8422046,0.052445002,1.0504103,-1.7790304
1.322,-2.8676836,-5.1157446,-7.7860656,0.06376465,0.9419265,-1.8198202
1.324,-2.9172113,-5.181091,-7.665173,0.07619597,0.8399518,-1.860519
1.326,-2.9443588,-5.250427,-7.4754934,0.09044549,0.74606526,-1.9003857
1.328,-2.9513297,-5.320056,-7.217734,0.107012704,0.66139513,-1.9386014
1.33,-2.9373784,-5.387556,-6.898686,0.12643205,0.58758223,-1.9739965
1.332,-2.9023788,-5.4523373,-6.5243435,0.14913505,0.525438,-2.0054984
1.334,-2.8481486,-5.513239,-6.1011877,0.17518775,0.47499645,-2.0320415
1.336,-2.7765574,-5.569071,-5.63762,0.20438378,0.4364608,-2.0525658
1.338,-2.6898324,-5.6194425,-5.1431227,0.23611112,0.40968084,-2.0662255
1.34,-2.5909643,-5.6643653,-4.6272492,0.26939106,0.3937441,-2.0725145
1.342,-2.4831245,-5.7038975,-4.098807,0.30320543,0.3874653,-2.0713165
1.344,-2.369255,-5.7378774,-3.5660055,0.33648142,0.38943896,-2.0630844
1.346,-2.2517183,-5.7662845,-3.0370965,0.36797047,0.3979548,-2.048646
1.348,-2.1334665,-5.7895722,-2.5198133,0.3963424,0.41123715,-2.0291111
1.35,-2.0167067,-5.8084397,-2.022789,0.42038086,0.42771506,-2.0057926
1.352,-1.9035866,-5.82448,-1.5547624,0.43908238,0.44600177,-1.9800656
1.354,-1.80061,-5.8375916,-1.1156007,0.4517396,0.46499842,-1.9532462
1.356,-1.7036562,-5.851016,-0.7135388,0.4579592,0.48386404,-1.9264764
1.358,-1.6100847,-5.8701234,-0.3601857,0.4576957,0.5019454,-1.900709
1.36,-1.5252761,-5.8974566,-0.06060511,0.45124048,0.5188255,-1.8766685
1.362,-1.4538081,-5.933502,0.18204269,0.43920872,0.5342475,-1.8548697
1.364,-1.3951998,-5.980691,0.36370784,0.42252508,0.54808265,-1.8356103
1.366,-1.3493942,-6.0410166,0.48218408,0.40239012,0.56032574,-1.8189793
1.368,-1.3164166,-6.1147103,0.5368974,0.38023123,0.5711897,-1.8048741
1.37,-1.2962284,-6.2021155,0.5269778,0.35763904,0.58107686,-1.7930354
1.372,-1.2875314,-6.3040943,0.45269677,0.33624,0.5904412,-1.7831267
1.374,-1.2906153,-6.420534,0.3161099,0.3175936,0.59974945,-1.7747452
1.376,-1.3061326,-6.5507383,0.119915605,0.30310398,0.6092944,-1.7675267
1.378,-1.3336977,-6.6933155,-0.13226217,0.29393825,0.61907727,-1.7611622
1.38,-1.3713783,-6.8468137,-0.43574733,0.2909629,0.6287484,-1.7553442
1.382,-1.4175769,-7.00942,-0.78638625,0.29467952,0.6375742,-1.7497379
1.384,-1.4715476,-7.1784644,-1.1786016,0.30518803,0.64446,-1.7439426
1.386,-1.5330104,-7.350317,-1.6059601,0.32221025,0.64799446,-1.7375106
1.388,-1.600987,-7.5215216,-2.0616539,0.34517977,0.6465617,-1.729965
1.39,-1.6734252,-7.6886816,-2.5384457,0.3733075,0.63859856,-1.7208524
1.392,-1.7486479,-7.848684,-3.0278375,0.40573356,0.6227528,-1.70979
1.394,-1.824405,-7.9995966,-3.5201907,0.44166884,0.59812963,-1.6965617
1.396,-1.8988026,-8.139709,-4.0070505,0.4805115,0.5645562,-1.6811426
1.398,-1.9691994,-8.267548,-4.4805984,0.5219146,0.5225487,-1.6636965
1.4,-2.0330658,-8.381643,-4.9337244,0.56571656,0.47322163,-1.6446614
1.402,-2.0878377,-8.480756,-5.360152,0.61192816,0.41821045,-1.6246347
1.404,-2.1311677,-8.563895,-5.7545667,0.66066813,0.35941255,-1.6043664
1.406,-2.1612923,-8.630583,-6.1124644,0.7120416,0.2987577,-1.5847284
1.408,-2.1768131,-8.681594,-6.4301815,0.7660773,0.23804273,-1.5666143
1.41,-2.17632,-8.718124,-6.704812,0.8226853,0.1788223,-1.5508983
1.412,-2.1588154,-8.741453,-6.9344954,0.8816215,0.12237283,-1.5383133
1.414,-2.1247003,-8.7522335,-7.1189218,0.94254297,0.06979068,-1.5294054
1.416,-2.0739112,-8.752091,-7.258816,1.0050786,0.022102952,-1.5245041
1.418,-2.0058098,-8.7432,-7.356061,1.0688887,-0.01969339,-1.523713
1.42,-1.9212878,-8.727776,-7.4144897,1.1336962,-0.054584324,-1.5268673
1.422,-1.8217432,-8.707677,-7.4390626,1.1992695,-0.08150058,-1.5335667
1.424,-1.7088532,-8.684376,-7.4351807,1.2654293,-0.09944816,-1.5432414
1.426,-1.5848587,-8.659718,-7.408619,1.3320338,-0.107560314,-1.555105
1.428,-1.4530451,-8.634799,-7.366473,1.3989463,-0.10529214,-1.5682338
1.43,-1.3162215,-8.611576,-7.3151765,1.4659355,-0.092591904,-1.5815586
1.432,-1.1777098,-8.591702,-7.261486,1.5325891,-0.07007,-1.5939484
1.434,-1.0407015,-8.576557,-7.212295,1.5983744,-0.03909102,-1.6043634
1.436,-0.90863156,-8.566729,-7.1737304,1.6626337,-0.001789391,-1.6118612
1.438,-0.7857863,-8.5627775,-7.149631,1.7246206,0.038999,-1.6155852
1.44,-0.6758093,-8.565191,-7.1430516,1.7835478,0.07991947,-1.6146486
1.442,-0.5824771,-8.573785,-7.1564198,1.838629,0.117336474,-1.6082456
1.444,-0.50929266,-8.587961,-7.1913786,1.8891404,0.14758095,-1.5957499
1.446,-0.45967877,-8.606741,-7.2487817,1.9344101,0.1672233,-1.5765945
1.448,-0.4361239,-8.628972,-7.3285747,1.9738703,0.17320988,-1.5503842
1.45,-0.4409728,-8.653605,-7.430055,2.0070863,0.16301103,-1.5168829
1.452,-0.47590363,-8.679724,-7.5515203,2.0337408,0.1347483,-1.4759688
1.454,-0.5422888,-8.706423,-7.6903963,2.0536778,0.087272055,-1.4277681
1.456,-0.6410566,-8.7326565,-7.8428307,2.0668573,0.020138681,-1.3726696
1.458,-0.77210665,-8.756935,-8.004481,2.0733144,-0.066430226,-1.3113546
1.46,-0.9347909,-8.777899,-8.170356,2.0732067,-0.17161925,-1.244824
1.462,-1.1271589,-8.794851,-8.333661,2.066834,-0.29415378,-1.1743116
1.464,-1.346943,-8.806978,-8.486414,2.0546563,-0.43241847,-1.1012609
1.466,-1.5911996,-8.81337,-8.620739,2.0372841,-0.58463,-1.0273135
1.468,-1.8560663,-8.813192,-8.7297,2.015415,-0.7490357,-0.95428133
1.47,-2.137106,-8.805883,-8.807129,1.9897544,-0.9239749,-0.8840334
1.472,-2.4298005,-8.790717,-8.847696,1.9610356,-1.1079838,-0.8183709
1.474,-2.7302566,-8.766693,-8.846639,1.9299369,-1.2998344,-0.75901395
1.476,-3.0353198,-8.732948,-8.800567,1.8970232,-1.498541,-0.7074537
1.478,-3.3394563,-8.689147,-8.702473,1.8626827,-1.7032607,-0.66489494
1.48,-3.6397989,-8.633999,-8.550065,1.8271316,-1.9132124,-0.63233256
1.482,-3.9307113,-8.568206,-8.339468,1.7904185,-2.1275687,-0.6104866
1.484,-4.206966,-8.493233,-8.067147,1.7524627,-2.345355,-0.5997408
1.486,-4.4647374,-8.409562,-7.729281,1.7130938,-2.5653691,-0.6001872
1.488,-4.6996913,-8.318353,-7.3230095,1.6720823,-2.7861836,-0.61164045
1.49,-4.9081135,-8.220561,-6.8471355,1.6292045,-3.0061677,-0.63373387
1.492,-5.087057,-8.117067,-6.301802,1.5842919,-3.2235878,-0.6659696
1.494,-5.2342196,-8.008702,-5.687735,1.5371847,-3.4367154,-0.70776033
1.496,-5.347423,-7.89657,-5.0073266,1.4877359,-3.6438863,-0.75834
1.498,-5.425522,-7.7812552,-4.263899,1.4358362,-3.8435907,-0.81681496
1.5,-5.4680557,-7.663556,-3.461296,1.3814218,-4.034408,-0.88226676
1.502,-5.4748077,-7.543864,-2.6042244,1.3244456,-4.2148557,-0.9536303
1.504,-5.446541,-7.421832,-1.6992594,1.264861,-4.3833466,-1.0297763
1.506,-5.383828,-7.297093,-0.7535124,1.2026331,-4.5381923,-1.1094625
1.508,-5.2878284,-7.1689005,0.22471106,1.1378965,-4.67708,-1.1911371
1.51,-5.160634,-7.0363007,1.2264876,1.0707749,-4.797629,-1.2731471
1.512,-5.005045,-6.8980713,2.242378,1.0014743,-4.8972473,-1.3537802
1.514,-4.8232403,-6.753376,3.263036,0.9302886,-4.973256,-1.4313061
1.516,-4.6174693,-6.6010427,4.2787704,0.8575414,-5.0232334,-1.5041285
1.518,-4.390444,-6.439361,5.279574,0.78361356,-5.0452075,-1.5709466
1.52,-4.1446424,-6.266574,6.2555065,0.7088721,-5.037922,-1.6308625
1.522,-3.8822117,-6.081206,7.196929,0.6336403,-5.0010815,-1.6834493
1.524,-3.6041918,-5.882099,8.095299,0.5581773,-4.93545,-1.7288198
1.526,-3.3122997,-5.66756,8.943079,0.4826122,-4.842778,-1.7676692
1.528,-3.0084734,-5.435662,9.733629,0.40691543,-4.7257686,-1.8010185
1.53,-2.6934514,-5.184546,10.463006,0.33087987,-4.5878105,-1.8300841
1.532,-2.3672535,-4.9130306,11.128622,0.2541448,-4.432631,-1.8561287
1.534,-2.0295553,-4.6202655,11.728273,0.17618775,-4.2640686,-1.8802334
1.536,-1.6801686,-4.3048506,12.260636,0.096334755,-4.0858126,-1.9031225
1.538,-1.3181603,-3.9659054,12.726348,0.013822675,-3.9011612,-1.9251282
1.54,-0.9432354,-3.601705,13.126032,-0.07218844,-3.7129507,-1.9461503
1.542,-0.55473995,-3.2107391,13.461796,-0.16261911,-3.5235133,-1.9656546
1.544,-0.15272975,-2.7916627,13.737156,-0.25842005,-3.3346586,-1.9828043
1.546,0.26255345,-2.3436403,13.956856,-0.3605165,-3.1476636,-1.9966586
1.548,0.69106096,-1.8656188,14.125412,-0.46976233,-2.9633732,-2.0063348
1.55,1.1312243,-1.35606,14.248405,-0.5869473,-2.7823067,-2.0111363
1.552,1.5814321,-0.81378603,14.331942,-0.7128295,-2.604664,-2.0105925
1.554,2.0396533,-0.23767292,14.382184,-0.8480925,-2.4304547,-2.00463
1.556,2.5035217,0.3729769,14.405489,-0.9933045,-2.2595654,-1.993649
1.558,2.970056,1.0186129,14.408138,-1.1488607,-2.0917969,-1.9784658
1.56,3.4356987,1.6993773,14.395827,-1.3149524,-1.9268494,-1.9602617
1.562,3.8963428,2.4154255,14.373286,-1.4916533,-1.764745,-1.9405402
1.564,4.347731,3.1663458,14.345071,-1.6787164,-1.6052756,-1.9208351
1.566,4.7855062,3.9510155,14.315007,-1.8756983,-1.4483305,-1.9026914
1.568,5.2049446,4.7679453,14.2860365,-2.0819983,-1.2939074,-1.8875932
1.57,5.601415,5.615796,14.25989,-2.296804,-1.14202,-1.876894
1.572,5.9699106,6.492494,14.238984,-2.519185,-0.99274766,-1.8716725
1.574,6.3070316,7.3959017,14.223141,-2.7480865,-0.84619045,-1.8727162
1.576,6.609496,8.323295,14.213119,-2.9823642,-0.70242167,-1.8805811
1.578,6.873994,9.271268,14.210534,-3.2208364,-0.561531,-1.8956
1.58,7.098448,10.236191,14.216297,-3.462347,-0.4236691,-1.9178807
1.582,7.282058,11.214082,14.230529,-3.705781,-0.28898686,-1.9473885
1.584,7.4249735,12.200731,14.252123,-3.9500759,-0.15772831,-1.9839548
1.586,7.5286226,13.191847,14.280551,-4.194313,-0.030312061,-2.0272727
1.588,7.593685,14.18293,14.312649,-4.4377174,0.09280002,-2.0769389
1.59,7.623465,15.169033,14.347603,-4.679614,0.21117246,-2.1325111
1.592,7.6193976,16.146935,14.382838,-4.919472,0.32441497,-2.1934757
1.594,7.5841656,17.11372,14.416407,-5.1568594,0.43228376,-2.2592604
1.596,7.5220356,18.065468,14.445832,-5.39144,0.5347656,-2.3292587
1.598,7.437082,18.998322,14.469467,-5.622978,0.63209474,-2.4027855
1.6,7.3335323,19.908869,14.486354,-5.85131,0.7247696,-2.4790707
1.602,7.2162485,20.793903,14.495598,-6.076327,0.813499,-2.557321
1.604,7.09,21.650654,14.496058,-6.297868,0.8992989,-2.636611
1.606,6.9590425,22.476791,14.486969,-6.5157714,0.98326373,-2.7160833
1.608,6.827958,23.270224,14.467519,-6.7299175,1.0664761,-2.7949085
1.61,6.70037,24.02922,14.4368305,-6.940199,1.150028,-2.8722267
1.612,6.5798807,24.751902,14.3944,-7.146526,1.2348554,-2.9472985
1.614,6.4698477,25.436794,14.340517,-7.348807,1.3217082,-3.0195484
1.616,6.3726377,26.082888,14.274792,-7.546891,1.4111438,-3.0885808
1.618,6.2899055,26.689625,14.196962,-7.7405887,1.5035479,-3.1541913
1.62,6.2232504,27.256699,14.106749,-7.9296694,1.599159,-3.2162957
1.622,6.1732006,27.784698,14.003971,-8.113847,1.698031,-3.2749677
1.624,6.1390924,28.274431,13.8885975,-8.29282,1.8001378,-3.3304086
1.626,6.119604,28.727116,13.760048,-8.466236,1.9053488,-3.3829508
1.628,6.1132746,29.143959,13.618282,-8.633762,2.0134447,-3.4329891
1.63,6.117938,29.526117,13.463503,-8.795092,2.124086,-3.4809194
1.632,6.130988,29.874607,13.294916,-8.949953,2.2367907,-3.527163
1.634,6.1496334,30.190323,13.111888,-9.098092,2.3509972,-3.5721374
1.636,6.170474,30.474434,12.91342,-9.239275,2.4660368,-3.6162457
1.638,6.18983,30.728064,12.698839,-9.373292,2.5811763,-3.6598835
1.64,6.2036257,30.952602,12.467497,-9.499919,2.6957061,-3.7033825
1.642,6.2077694,31.149027,12.219009,-9.618924,2.808903,-3.7469873
1.644,6.197859,31.318432,11.952905,-9.730081,2.9200473,-3.7908902
1.646,6.169814,31.46188,11.668858,-9.833137,3.0284822,-3.835271
1.648,6.1195307,31.580385,11.366188,-9.9278755,3.1335595,-3.8802688
1.65,6.0431566,31.67506,11.044244,-10.014088,3.2346365,-3.9260187
1.652,5.9372034,31.74681,10.702569,-10.091615,3.33112,-3.972674
1.654,5.7988033,31.796396,10.340714,-10.160375,3.4224436,-4.0203333
1.656,5.6254253,31.824696,9.958079,-10.220392,3.5081306,-4.069043
1.658,5.4150906,31.832203,9.554638,-10.27186,3.5875988,-4.118804
1.66,5.167179,31.81953,9.131239,-10.315058,3.660378,-4.1694593
1.662,4.8810663,31.787891,8.689006,-10.350334,3.7261386,-4.220787
1.664,4.557005,31.737259,8.229189,-10.378151,3.784459,-4.272582
1.666,4.1960154,31.668488,7.753005,-10.399044,3.8350573,-4.3245964
1.668,3.7996912,31.582401,7.2619863,-10.41362,3.8777225,-4.3765116
1.67,3.3707418,31.479935,6.757859,-10.422569,3.9123135,-4.4279995
1.672,2.9125824,31.361582,6.2429285,-10.426656,3.938724,-4.4787116
1.674,2.4295912,31.228012,5.7191567,-10.426687,3.956934,-4.5282483
1.676,1.9269934,31.080116,5.1893086,-10.423487,3.9670312,-4.5761724
1.678,1.410821,30.918697,4.656601,-10.417888,3.9691484,-4.622025
1.68,0.8877535,30.744404,4.124589,-10.41073,3.9635086,-4.6653557
1.682,0.36470985,30.558533,3.5947266,-10.402744,3.9504905,-4.7058306
1.684,-0.15187931,30.362064,3.0710092,-10.394507,3.9307022,-4.743228
1.686,-0.6552372,30.15623,2.5566454,-10.386404,3.9049892,-4.7774763
1.688,-1.1380577,29.942665,2.0542903,-10.378622,3.8744879,-4.808616
1.69,-1.5941324,29.72318,1.5668154,-10.371126,3.8406005,-4.8368144
1.692,-2.0179434,29.49939,1.0969081,-10.363692,3.804932,-4.862366
1.694,-2.4042234,29.273222,0.64686203,-10.355893,3.7692456,-4.8857756
1.696,-2.748639,29.046951,0.21846676,-10.347202,3.7353234,-4.907608
1.698,-3.0478787,28.822758,-0.1872387,-10.337021,3.7048798,-4.9285183
1.7,-3.2997708,28.602797,-0.5695114,-10.324725,3.6794684,-4.9492044
1.702,-3.5030627,28.388992,-0.9283061,-10.309677,3.6604223,-4.9704037
1.704,-3.6578193,28.183346,-1.2642951,-10.291192,3.6488276,-4.992902
1.706,-3.7651534,27.988094,-1.5788722,-10.268546,3.6454763,-5.017465
1.708,-3.8274903,27.805517,-1.8742914,-10.24098,3.6509333,-5.0448723
1.71,-3.848135,27.63743,-2.153111,-10.207683,3.6655698,-5.0758123
1.712,-3.831483,27.485256,-2.4179068,-10.167826,3.6896574,-5.1108694
1.714,-3.782405,27.349995,-2.6717048,-10.120597,3.7233064,-5.1504803
1.716,-3.70681,27.23269,-2.9176817,-10.065269,3.76652,-5.194889
1.718,-3.6106672,27.134289,-3.159556,-10.001253,3.81924,-5.2441125
1.72,-3.5000706,27.054867,-3.4017982,-9.928116,3.8812907,-5.2979555
1.722,-3.3818636,26.994884,-3.6490197,-9.845598,3.9524078,-5.356063
1.724,-3.2619686,26.95397,-3.9057524,-9.753658,4.032258,-5.417914
1.726,-3.146145,26.93178,-4.176011,-9.652338,4.1204643,-5.4828715
1.728,-3.0393019,26.927353,-4.4632425,-9.541836,4.2166524,-5.5502453
1.73,-2.945687,26.939215,-4.7704177,-9.4224,4.320433,-5.6192846
1.732,-2.868232,26.964918,-5.1000047,-9.294306,4.4314694,-5.6892357
1.734,-2.8093703,27.002337,-5.453138,-9.157836,4.549479,-5.759394
1.736,-2.7698424,27.048464,-5.830098,-9.0133095,4.6741343,-5.829114
1.738,-2.7495298,27.100313,-6.2319303,-8.861059,4.805046,-5.897887
1.74,-2.7477136,27.154905,-6.6595073,-8.701413,4.941746,-5.9653435
1.742,-2.7626872,27.20935,-7.1121,-8.534706,5.0837283,-6.031249
1.744,-2.791731,27.260176,-7.5886474,-8.361265,5.230385,-6.095455
1.746,-2.83091,27.304125,-8.087551,-8.181448,5.38108,-6.15782
1.748,-2.8758333,27.3376,-8.606567,-7.9955745,5.535044,-6.2182345
1.75,-2.921295,27.357191,-9.143274,-7.804006,5.69147,-6.276654
1.752,-2.962111,27.359638,-9.695017,-7.6070476,5.849477,-6.332985
1.754,-2.9932046,27.341608,-10.258455,-7.4049773,6.0080757,-6.387098
1.756,-3.00988,27.300127,-10.830702,-7.1980643,6.166122,-6.4388356
1.758,-3.0074906,27.232178,-11.40825,-6.986596,6.3223133,-6.4880495
1.76,-2.9824862,27.135464,-11.986577,-6.7708635,6.475142,-6.534605
1.762,-2.931962,27.00763,-12.56253,-6.5511703,6.622931,-6.578398
1.764,-2.8536563,26.847256,-13.133035,-6.3278437,6.7637534,-6.6194186
1.766,-2.7461863,26.65326,-13.695091,-6.1012564,6.895463,-6.657688
1.768,-2.6089392,26.425053,-14.246479,-5.87188,7.015631,-6.693223
1.77,-2.442523,26.162296,-14.785461,-5.640299,7.121554,-6.7261205
1.772,-2.2481508,25.864613,-15.309655,-5.4071455,7.210356,-6.7565722
1.774,-2.0280762,25.533205,-15.816798,-5.173107,7.279096,-6.784853
1.776,-1.7851009,25.168976,-16.305534,-4.93888,7.324903,-6.811305
1.778,-1.5224085,24.77353,-16.774967,-4.7051244,7.345172,-6.836362
1.78,-1.2438545,24.348698,-17.224567,-4.4724393,7.3377123,-6.860486
1.782,-0.95368767,23.89715,-17.654526,-4.241276,7.300913,-6.884167
1.784,-0.65659904,23.4217,-18.06501,-4.011981,7.233834,-6.907855
1.786,-0.35744858,22.925488,-18.457481,-3.784773,7.1362615,-6.9318814
1.788,-0.061143875,22.412064,-18.833408,-3.5598018,7.008613,-6.9564366
1.79,0.22780895,21.884892,-19.194292,-3.3371575,6.8519597,-6.981591
1.792,0.50534725,21.347692,-19.541574,-3.1169775,6.667883,-7.007155
1.794,0.7678318,20.803896,-19.87695,-2.899467,6.458303,-7.0327177
1.796,1.0119238,20.257107,-20.202152,-2.6849184,6.225334,-7.057726
1.798,1.2346859,19.71083,-20.518839,-2.4736784,5.9712687,-7.081468
1.8,1.4337196,19.168571,-20.828407,-2.2661257,5.698472,-7.103158
1.802,1.6072168,18.633667,-21.132174,-2.0626767,5.409376,-7.121977
1.804,1.7542944,18.10892,-21.431105,-1.8636642,5.1065784,-7.1370363
1.806,1.8747568,17.596943,-21.726002,-1.6693722,4.7926893,-7.1474776
1.808,1.9689441,17.100105,-22.017353,-1.4799807,4.4703293,-7.152528
1.81,2.0383954,16.620178,-22.30494,-1.2955369,4.1421666,-7.1515503
1.812,2.0844955,16.15883,-22.588379,-1.115998,3.8108435,-7.1440296
1.814,2.1094007,15.71714,-22.866951,-0.9412136,3.4788373,-7.1295495
1.816,2.1158848,15.2953,-23.13965,-0.770985,3.1484725,-7.1078334
1.818,2.1072736,14.893549,-23.405266,-0.60509837,2.8218443,-7.078697
1.82,2.0872974,14.511908,-23.66251,-0.44332135,2.5007994,-7.0420575
1.822,2.0598154,14.15016,-23.910374,-0.28545225,2.1869602,-6.9979157
1.824,2.0286326,13.807629,-24.147757,-0.13132071,1.8816442,-6.946273
1.826,1.9984617,13.4829235,-24.37392,0.019167721,1.5858157,-6.8871374
1.828,1.973064,13.1748085,-24.586975,0.16602272,1.300111,-6.8205333
1.83,1.9564133,12.882418,-24.78524,0.30922103,1.0247765,-6.7464905
1.832,1.9525895,12.603887,-24.967829,0.44867557,0.759715,-6.6651006
1.834,1.9646435,12.337942,-25.134092,0.5842817,0.5044978,-6.5764785
1.836,1.9954815,12.083174,-25.283375,0.7159326,0.2584475,-6.480816
1.838,2.0474439,11.838448,-25.415379,0.8435515,0.020648181,-6.378398
1.84,2.122385,11.602722,-25.530115,0.9670733,-0.20998827,-6.2696295
1.842,2.221305,11.375448,-25.627987,1.0865045,-0.4345757,-6.154981
1.844,2.345024,11.156008,-25.710457,1.2018741,-0.65423787,-6.0350475
1.846,2.4934125,10.944294,-25.778746,1.3133074,-0.87002546,-5.9105988
1.848,2.6656437,10.740471,-25.833239,1.420977,-1.0828495,-5.7824955
1.85,2.8603,10.544799,-25.874401,1.5250683,-1.2935098,-5.651634
1.852,3.0754251,10.357677,-25.903233,1.6258008,-1.5027002,-5.519036
1.854,3.308207,10.180211,-25.920778,1.7234175,-1.7109997,-5.385725
1.856,3.5551772,10.013277,-25.928175,1.8181664,-1.9189833,-5.252705
1.858,3.8126593,9.858301,-25.926924,1.9102443,-2.1273525,-5.1210485
1.86,4.0765204,9.716734,-25.918036,1.9997855,-2.336779,-4.991759
1.862,4.3429117,9.590178,-25.902517,2.0868323,-2.5479963,-4.8657064
1.864,4.607745,9.48019,-25.88135,2.1713343,-2.7618542,-4.743649
1.866,4.8671947,9.388194,-25.855062,2.253182,-2.979232,-4.626237
1.868,5.1171055,9.315834,-25.824554,2.3321242,-3.2010026,-4.514023
1.87,5.3542705,9.263931,-25.790937,2.407848,-3.427981,-4.407436
1.872,5.575642,9.233956,-25.754133,2.479998,-3.660857,-4.306778
1.874,5.7783823,9.226444,-25.71398,2.548213,-3.9001215,-4.2122445
1.876,5.9605837,9.241884,-25.670208,2.6121366,-4.1460023,-4.1239223
1.878,6.120568,9.280367,-25.622265,2.6714559,-4.398438,-4.0418754
1.88,6.2572103,9.341648,-25.569098,2.725896,-4.657015,-3.966155
1.882,6.3700757,9.425083,-25.510263,2.7752604,-4.9209995,-3.8968449
1.884,6.458973,9.529871,-25.44497,2.8194103,-5.1893067,-3.8340595
1.886,6.5241814,9.654612,-25.37129,2.8582935,-5.46049,-3.7779446
1.888,6.5664616,9.79764,-25.287487,2.8919377,-5.732854,-3.7286549
1.89,6.5869412,9.957214,-25.191566,2.9204078,-6.0045013,-3.6863742
1.892,6.5872965,10.131073,-25.081673,2.94382,-6.273353,-3.6512594
1.894,6.5694933,10.316677,-24.955734,2.9623404,-6.5372653,-3.6234207
1.896,6.535364,10.511447,-24.81141,2.9761388,-6.7941246,-3.60292
1.898,6.4868517,10.712676,-24.646969,2.9854193,-7.0418997,-3.589785
1.9,6.4258633,10.9177685,-24.46054,2.9903853,-7.2787,-3.5839732
1.902,6.354247,11.123617,-24.250408,2.991268,-7.502784,-3.5854518
1.904,6.2733555,11.327375,-24.014809,2.988324,-7.71261,-3.5941806
1.906,6.184484,11.526499,-23.752413,2.9817688,-7.9068413,-3.6101222
1.908,6.0885415,11.71878,-23.4623,2.971823,-8.084333,-3.633342
1.91,5.986541,11.901753,-23.143932,2.9586847,-8.244131,-3.6639357
1.912,5.878757,12.0734825,-22.796988,2.9425204,-8.385417,-3.7020152
1.914,5.765138,12.232212,-22.421413,2.9234743,-8.507568,-3.7476928
1.916,5.645563,12.376413,-22.017872,2.901628,-8.610079,-3.8010864
1.918,5.5198402,12.505049,-21.587246,2.877024,-8.692554,-3.8622408
1.92,5.3872237,12.61758,-21.130993,2.8496416,-8.754707,-3.9311597
1.922,5.247386,12.713627,-20.651081,2.8194566,-8.796324,-4.0077915
1.924,5.100077,12.793023,-20.14951,2.786416,-8.817251,-4.092041
1.926,4.944851,12.856272,-19.628689,2.7504437,-8.817372,-4.183778
1.928,4.781559,12.903933,-19.091455,2.7114558,-8.796589,-4.2828727
1.93,4.6103106,12.936727,-18.541084,2.6694036,-8.754816,-4.3892293
1.932,4.4317083,12.955713,-17.980766,2.6242566,-8.691917,-4.502767
1.934,4.2471323,12.962227,-17.413757,2.5760236,-8.607761,-4.6234274
1.936,4.057391,12.958081,-16.84342,2.5247521,-8.502159,-4.751137
1.938,3.8647914,12.944867,-16.27371,2.4705396,-8.374912,-4.8858175
1.94,3.6714334,12.924613,-15.70809,2.41349,-8.225864,-5.0273857
1.942,3.480301,12.899328,-15.149572,2.3537402,-8.054853,-5.1757026
1.944,3.294436,12.870807,-14.601083,2.2915163,-7.861779,-5.330531
1.946,3.1171613,12.841091,-14.065418,2.2270465,-7.6466293,-5.491552
1.948,2.9522026,12.8121605,-13.545224,2.160595,-7.409492,-5.6583757
1.95,2.8040056,12.786436,-13.042797,2.0924659,-7.150577,-5.830563
1.952,2.6770244,12.766232,-12.560318,2.0229397,-6.870235,-6.007633
1.954,2.5758376,12.753933,-12.099318,1.9522806,-6.5689516,-6.1891365
1.956,2.505007,12.752027,-11.660899,1.8806953,-6.2473154,-6.3746586
1.958,2.469656,12.762593,-11.245902,1.8083587,-5.906013,-6.563836
1.96,2.4748447,12.787841,-10.85482,1.7354138,-5.5458107,-6.75637
1.962,2.5259802,12.83009,-10.488157,1.6619718,-5.1675553,-6.952036
1.964,2.6281695,12.891873,-10.146143,1.5881275,-4.772124,-7.150715
1.966,2.786388,12.975864,-9.82913,1.5139691,-4.360452,-7.3524256
1.968,3.0051804,13.084816,-9.537508,1.4395697,-3.9334674,-7.557283
1.97,3.2887154,13.221201,-9.271788,1.3650194,-3.4920697,-7.765479
1.972,3.6402292,13.38787,-9.032205,1.2904311,-3.037148,-7.9772716
1.974,4.0627146,13.587856,-8.81852,1.2159343,-2.5695698,-8.192929
1.976,4.558298,13.823847,-8.630847,1.1416957,-2.0901363,-8.412735
1.978,5.1285896,14.09853,-8.4688835,1.0679175,-1.5996058,-8.636934
1.98,5.773993,14.414777,-8.332429,0.9948524,-1.0986538,-8.8657
1.982,6.494088,14.775269,-8.221215,0.9228296,-0.58791375,-9.099098
1.984,7.2881107,15.182648,-8.135238,0.85227567,-0.06797385,-9.337019
1.986,8.154055,15.639506,-8.074833,0.7837187,0.4605825,-9.579182
1.988,9.089657,16.148159,-8.040541,0.7178128,0.99717283,-9.825149
1.99,10.091777,16.710777,-8.033222,0.65532315,1.5411687,-10.074347
1.992,11.156749,17.329472,-8.053032,0.5970886,2.0919209,-10.326056
1.994,12.280597,18.005493,-8.099731,0.5439855,2.648746,-10.579385
1.996,13.458145,18.740082,-8.173121,0.49687898,3.210944,-10.833329
1.998,14.68382,19.533577,-8.272974,0.4565606,3.777826,-11.086795
2,15.951747,20.386034,-8.399002,0.4237182,4.3487372,-11.338578
2.002,17.255238,21.297161,-8.550429,0.39889693,4.923114,-11.587334
2.004,18.588108,22.265995,-8.726345,0.38248277,5.500594,-11.8315525
2.006,19.944437,23.290571,-8.925821,0.37474704,6.0810976,-12.069551
2.008,21.31858,24.368397,-9.147057,0.37588024,6.6647973,-12.299447
2.01,22.704899,25.496078,-9.387923,0.38603473,7.252143,-12.519157
2.012,24.098236,26.669516,-9.646267,0.40535355,7.843783,-12.726437
2.014,25.494318,27.883808,-9.91983,0.43394995,8.440542,-12.918922
2.016,26.888803,29.133,-10.205497,0.47199583,9.043351,-13.094187
2.018,28.277927,30.410622,-10.499639,0.51974535,9.65318,-13.249863
2.02,29.658138,31.70966,-10.798526,0.57749224,10.27094,-13.38364
2.022,31.028057,33.021477,-11.099012,0.64556694,10.897427,-13.493454
2.024,32.386646,34.337097,-11.395937,0.72430897,11.533288,-13.577482
2.026,33.731087,35.64849,-11.684066,0.8139758,12.178983,-13.6342945
2.028,35.061398,36.94573,-11.959928,0.9147668,12.834726,-13.662886
2.03,36.378906,38.218513,-12.219747,1.0267386,13.500389,-13.662654
2.032,37.68449,39.45764,-12.45967,1.1497784,14.175418,-13.633432
2.034,38.980026,40.65351,-12.6763735,1.2835407,14.858697,-13.575474
2.036,40.268116,41.796707,-12.867018,1.4274025,15.548525,-13.489439
2.038,41.551704,42.878212,-13.028461,1.5804591,16.242542,-13.376309
2.04,42.833935,43.889786,-13.158225,1.7414947,16.93779,-13.23737
2.042,44.11852,44.823673,-13.254562,1.9090095,17.630758,-13.074059
2.044,45.40928,45.673008,-13.316601,2.081262,18.317566,-12.887934
2.046,46.710926,46.432304,-13.344389,2.2562943,18.994135,-12.6806
2.048,48.027184,47.097267,-13.339029,2.4319701,19.656393,-12.453625
2.05,49.3633,47.664406,-13.301717,2.6060333,20.300365,-12.208597
2.052,50.72395,48.131523,-13.23451,2.7761264,20.922413,-11.947049
2.054,52.11317,48.49815,-13.140202,2.9397392,21.519371,-11.670298
2.056,53.53504,48.764782,-13.022492,3.0944443,22.088526,-11.379683
2.058,54.993256,48.933105,-12.88485,3.2380025,22.627481,-11.076585
2.06,56.491165,49.00515,-12.730869,3.3681421,23.134018,-10.762365
2.062,58.032375,48.983604,-12.563382,3.4826586,23.606174,-10.438262
2.064,59.620678,48.871758,-12.386621,3.5795653,24.042204,-10.105415
2.066,61.259007,48.674095,-12.205075,3.6570811,24.440575,-9.765061
2.068,62.950527,48.39443,-12.021347,3.71363,24.799843,-9.418274
2.07,64.698326,48.03823,-11.838478,3.7478719,25.118696,-9.06599
2.072,66.5021,47.610058,-11.6607685,3.7586613,25.395966,-8.708948
2.074,68.36679,47.11431,-11.489466,3.7450793,25.630682,-8.347747
2.076,70.292244,46.557556,-11.327353,3.7063546,25.822063,-7.982812
2.078,72.28001,45.945625,-11.172945,3.641785,25.969597,-7.614517
2.08,74.33251,45.282166,-11.024441,3.5506604,26.073135,-7.2431126
2.082,76.45282,44.572807,-10.884766,3.4322,26.13303,-6.8687706
2.084,78.64464,43.824104,-10.755266,3.2855134,26.150312,-6.4916925
2.086,80.91239,43.04262,-10.634678,3.109613,26.126823,-6.112108
2.088,83.25963,42.235847,-10.522446,2.9033241,26.065218,-5.7302227
2.09,85.69341,41.413246,-10.418583,2.6652293,25.968967,-5.346138
2.092,88.220505,40.58576,-10.32449,2.393711,25.842585,-4.959797
2.094,90.84682,39.769035,-10.244133,2.0870657,25.691479,-4.5709076
2.096,93.57468,38.98607,-10.182034,1.7434568,25.521616,-4.179083
2.098,96.40603,38.25282,-10.134232,1.3608751,25.339165,-3.7835917
2.1,99.34715,37.57837,-10.097973,0.9373903,25.150352,-3.3834324
2.102,102.40349,36.984123,-10.081581,0.47124577,24.962051,-2.977437
2.104,105.578064,36.498726,-10.08474,-0.03926611,24.78083,-2.5637064
2.106,108.86718,36.162766,-10.100632,-0.59513855,24.612541,-2.140108
2.108,112.26816,36.00905,-10.131981,-1.1969438,24.46231,-1.7047749
2.11,115.78134,36.070034,-10.189529,-1.8448563,24.33487,-1.2551136
2.112,119.40485,36.383278,-10.287487,-2.5381055,24.234734,-0.78807116
2.114,123.12977,36.999493,-10.431133,-3.2749548,24.165247,-0.30075097
2.116,126.95482,37.956387,-10.625565,-4.052943,24.12809,0.20963883
2.118,130.89093,39.273132,-10.887043,-4.8689036,24.123512,0.74582267
2.12,134.92441,41.02543,-11.2121315,-5.7191553,24.150185,1.3103226
2.122,139.05722,43.208126,-11.595352,-6.599739,24.204481,1.905062
2.124,143.32407,45.832863,-12.021141,-7.506673,24.280115,2.5305552
2.126,147.74007,48.968098,-12.597462,-8.436697,24.366749,3.185091
2.128,152.22246,52.628998,-13.347381,-9.388401,24.450346,3.8659542
2.13,156.76692,56.855938,-14.215159,-10.361927,24.515093,4.57059
2.132,161.38203,61.7239,-15.172244,-11.358187,24.542122,5.2955565
2.134,166.05136,67.20418,-16.249926,-12.379705,24.50817,6.036333
2.136,170.76103,73.24699,-17.350988,-13.431372,24.387577,6.787639
2.138,175.50641,79.81932,-18.418251,-14.518991,24.153072,7.5438247
2.14,180.29773,86.9106,-19.451105,-15.64898,23.775736,8.3007145
2.142,185.14696,94.482895,-20.419882,-16.828108,23.223843,9.056321
2.144,190.06688,102.47379,-21.268734,-18.063122,22.464909,9.810713
2.146,195.07402,110.80624,-21.93367,-19.359337,21.467972,10.569006
2.148,200.19206,119.40175,-22.36705,-20.71888,20.205736,11.345067
2.15,205.45087,128.18065,-22.536488,-22.141872,18.650028,12.158829
2.152,210.87576,137.03558,-22.375484,-23.625288,16.773352,13.040224
2.154,216.48996,145.84508,-21.806255,-25.156502,14.565228,14.018528
2.156,222.3134,154.478,-20.744843,-26.715582,12.024676,15.119397
2.158,228.26697,162.80232,-19.116405,-28.285309,9.154171,16.375896
2.16,234.19237,170.69623,-16.84771,-29.857796,5.973532,17.819708
2.162,240.02673,177.78104,-13.992775,-31.445665,2.5049481,19.466064
2.164,246.03233,183.99478,-10.373592,-33.05227,-1.2400527,21.306015
2.166,251.99599,189.3561,-5.9068146,-34.65934,-5.2368746,23.318573
2.168,257.83133,193.74591,-0.545887,-36.252544,-9.430911,25.473818
2.17,263.4879,197.02948,5.7697744,-37.835037,-13.743124,27.68384
2.172,268.92682,199.08475,13.009168,-39.430916,-18.115202,29.858664
2.174,274.02298,199.82425,21.157192,-41.061874,-22.489523,31.881449
2.176,278.6394,199.20355,30.18843,-42.73466,-26.814888,33.60995
2.178,282.61426,197.22871,40.0474,-44.436,-31.046757,34.887978
2.18,285.78583,193.95471,50.649326,-46.12965,-35.14523,35.558773
2.182,288.02274,189.46902,61.878487,-47.749504,-39.075344,35.48081
2.184,289.2386,183.81737,73.599556,-49.197582,-42.805107,34.542347
2.186,289.36743,177.04932,85.63532,-50.349094,-46.29287,32.665314
2.188,288.3191,169.32721,97.79937,-51.060287,-49.48021,29.80632
2.19,285.9995,160.83258,109.94113,-51.189457,-52.293076,25.96064
2.192,282.38495,151.72302,121.84079,-50.59693,-54.608154,21.265911
2.194,277.49094,142.15442,133.24908,-49.180573,-56.33424,15.869434
2.196,271.33624,132.3077,143.93948,-46.898052,-57.383194,9.896318
2.198,263.99203,122.36844,153.69604,-43.757385,-57.670944,3.539898
2.2,255.55762,112.527245,162.31621,-39.82045,-57.129646,-2.96344
2.202,246.1768,102.9621,169.62123,-35.199142,-55.72319,-9.348116
2.204,236.04239,93.86958,175.46355,-30.044022,-53.444336,-15.325481
2.206,225.3386,85.455696,179.724,-24.534027,-50.316906,-20.608587
2.208,214.26125,77.881744,182.2992,-18.865316,-46.403297,-24.929926
2.21,203.01025,71.27142,183.13516,-13.229407,-41.78417,-28.072273
2.212,191.78348,65.70451,182.23074,-7.793851,-36.553787,-29.903461
2.214,180.76476,61.23632,179.61908,-2.7029972,-30.839863,-30.38385
2.216,170.12543,57.890373,175.37727,1.9248896,-24.787296,-29.56641
2.218,160.01129,55.67315,169.63521,5.9850817,-18.551083,-27.601524
2.22,150.53821,54.562363,162.56276,9.399369,-12.314893,-24.743114
2.222,141.79468,54.50345,154.35545,12.147104,-6.278693,-21.31329
2.224,133.84155,55.405838,145.21822,14.261566,-0.6440971,-17.62645
2.226,126.69997,57.169853,135.36946,15.816457,4.4271193,-14.011011
2.228,120.35321,59.68714,125.03955,16.898523,8.794556,-10.741216
2.23,114.78154,62.781914,114.43712,17.599415,12.352795,-8.0197735
2.232,109.92365,66.346016,103.76465,18.012777,15.037981,-5.972086
2.234,105.677605,70.23184,93.20484,18.232504,16.835968,-4.655197
2.236,101.95848,74.23993,83.01977,18.341965,17.7886,-4.080394
2.238,98.75168,78.233955,73.33505,18.403793,17.989576,-4.2148438
2.24,95.941635,82.06166,64.18954,18.457794,17.570572,-4.9739857
2.242,93.408356,85.564766,55.648026,18.522202,16.691017,-6.228698
2.244,91.06709,88.69988,47.8038,18.603184,15.525934,-7.8214455
2.246,88.83876,91.43047,40.61096,18.686451,14.2283125,-9.6407585
2.248,86.644485,93.70094,34.07157,18.764389,12.98034,-11.492887
2.25,84.41028,95.446785,28.220984,18.83994,11.9215145,-13.149513
2.252,82.08317,96.64694,23.038826,18.909916,11.137259,-14.465302
2.254,79.62846,97.31136,18.47096,18.972752,10.665954,-15.345683
2.256,77.02463,97.465385,14.457123,19.030327,10.510113,-15.744271
2.258,74.259384,97.13708,10.952436,19.08635,10.636988,-15.66532
2.26,71.329704,96.360725,7.9208393,19.144016,10.984939,-15.155132
2.262,68.24698,95.19781,5.2940493,19.201494,11.473365,-14.291292
2.264,65.02963,93.71635,3.0051022,19.24916,12.012191,-13.169971
2.266,61.699585,91.9842,0.99666977,19.271067,12.516097,-11.89304
2.268,58.35278,90.06264,-0.76852036,19.253195,12.917864,-10.55407
2.27,55.100067,88.000656,-2.3197017,19.184713,13.16871,-9.228931
2.272,51.91481,86.04468,-3.584687,19.050398,13.236348,-7.9673038
2.274,48.51667,84.09376,-4.7180467,18.836166,13.105096,-6.789031
2.276,45.11935,82.04078,-5.74234,18.53571,12.773754,-5.696231
2.278,41.74252,79.95796,-6.648717,18.15288,12.265932,-4.6842594
2.28,38.361897,77.926956,-7.451029,17.697979,11.620804,-3.7457075
2.282,34.951504,76.0077,-8.098116,17.18482,10.881028,-2.8726194
2.284,31.564762,74.22797,-8.590158,16.630922,10.091953,-2.0575361
2.286,28.244667,72.588844,-8.942132,16.055956,9.299026,-1.2956244
2.288,25.036608,71.07187,-9.164988,15.477134,8.5428505,-0.57817006
2.29,21.968893,69.64961,-9.268911,14.908772,7.8563986,0.11355114
2.292,19.03939,68.307274,-9.262541,14.364665,7.2654324,0.7945373
2.294,16.216413,67.0944,-9.16666,13.856635,6.7884684,1.4689286
2.296,13.485172,66.05571,-8.986485,13.392917,6.4349585,2.1337426
2.298,10.876035,65.144554,-8.746725,12.977356,6.205593,2.7833736
2.3,8.432103,64.33474,-8.510639,12.609973,6.094242,3.4122674
2.302,6.145974,63.640873,-8.271286,12.287852,6.0891347,4.014953
2.304,4.0066066,63.079918,-8.014236,12.00579,6.1738114,4.5858793
2.306,2.0297894,62.643806,-7.756548,11.757094,6.3287964,5.119479
2.308,0.20766449,62.32059,-7.515791,11.53439,6.5333853,5.610264
2.31,-1.4673543,62.090702,-7.3045807,11.330136,6.766932,6.0530415
2.312,-3.0146904,61.941067,-7.133938,11.137145,7.010208,6.4433117
2.314,-4.467067,61.83294,-7.011839,10.949022,7.2466774,6.7778835
2.316,-5.820798,61.718636,-6.9387226,10.760385,7.463295,7.0552177
2.318,-7.075741,61.59768,-6.901222,10.5670805,7.6509185,7.275651
2.32,-8.235913,61.485035,-6.893261,10.366225,7.804448,7.4413414
2.322,-9.303762,61.39062,-6.9094677,10.156113,7.9225397,7.555981
2.324,-10.277265,61.31046,-6.945648,9.936121,8.007155,7.624605
2.326,-11.15587,61.234367,-7.0018673,9.706541,8.062757,7.6532273
2.328,-11.941853,61.15162,-7.078741,9.468484,8.095418,7.648292
2.33,-12.638929,61.051132,-7.175049,9.223657,8.111966,7.6161823
2.332,-13.251774,60.922363,-7.287546,8.974215,8.119143,7.5628057
2.334,-13.784813,60.75618,-7.4124546,8.722529,8.122853,7.4934006
2.336,-14.242612,60.545967,-7.5446415,8.47098,8.12772,7.4122944
2.338,-14.630071,60.286808,-7.6783447,8.221839,8.136794,7.3227835
2.34,-14.951387,59.974533,-7.807705,7.9771123,8.151469,7.227182
2.342,-15.210974,59.60598,-7.927635,7.738457,8.171514,7.1269474
2.344,-15.412815,59.179134,-8.033911,7.507079,8.195228,7.0228972
2.346,-15.5607195,58.692688,-8.122861,7.283635,8.219697,6.915329
2.348,-15.659013,58.146122,-8.191568,7.0682507,8.241086,6.8041353
2.35,-15.712848,57.538986,-8.238251,6.8605804,8.254989,6.688933
2.352,-15.727069,56.871338,-8.261367,6.6598577,8.256749,6.5692406
2.354,-15.7073,56.144203,-8.260451,6.46496,8.241758,6.4446344
2.356,-15.65957,55.35939,-8.235438,6.2745376,8.205737,6.3149815
2.358,-15.590335,54.519623,-8.18615,6.0871344,8.144925,6.1804767
2.36,-15.505795,53.6286,-8.112774,5.9013395,8.056325,6.0417705
2.362,-15.412374,52.69041,-8.015277,5.7159076,7.9376993,5.899933
2.364,-15.316339,51.70994,-7.8940935,5.529922,7.787658,5.756451
2.366,-15.223993,50.692886,-7.7496033,5.342847,7.605692,5.613231
2.368,-15.14173,49.645493,-7.582283,5.154562,7.392124,5.4724994
2.37,-15.075221,48.574196,-7.3931093,4.9654026,7.148026,5.336755
2.372,-15.029386,47.486282,-7.1841373,4.776149,6.875077,5.2086744
2.374,-15.008156,46.38937,-6.957536,4.587898,6.575475,5.0910287
2.376,-15.013908,45.291214,-6.7155337,4.401985,6.251728,4.986569
2.378,-15.048311,44.199764,-6.4606247,4.2198358,5.9064293,4.8979363
2.38,-15.112148,43.122242,-6.195508,4.0427923,5.5421467,4.8276377
2.382,-15.205599,42.06542,-5.922775,3.8719769,5.1612983,4.777952
2.384,-15.328045,41.035423,-5.6452007,3.708141,4.7658997,4.750825
2.386,-15.477588,40.037594,-5.3648663,3.551532,4.357541,4.7478557
2.388,-15.651093,39.076202,-5.0836797,3.401844,3.9374146,4.770131
2.39,-15.844429,38.154484,-4.802745,3.2582233,3.5063674,4.818149
2.392,-16.052776,37.274834,-4.522646,3.1192634,3.064921,4.8916917
2.394,-16.269844,36.437828,-4.2433004,2.9830816,2.6132972,4.9897203
2.396,-16.488605,35.642765,-3.96434,2.8474417,2.151489,5.110283
2.398,-16.701258,34.887928,-3.6851497,2.7099452,1.679346,5.2504606
2.4,-16.900158,34.170498,-3.4038575,2.5681622,1.196617,5.4063363
2.402,-17.077269,33.4867,-3.118394,2.419789,0.70295346,5.573064
2.404,-17.224836,32.8319,-2.826162,2.2628217,0.19801125,5.745023
2.406,-17.334906,32.200546,-2.5240583,2.0957203,-0.31845048,5.916057
2.408,-17.400337,31.586584,-2.2088802,1.9174926,-0.84644127,6.0797124
2.41,-17.415169,30.983894,-1.8772612,1.727802,-1.385626,6.229541
2.412,-17.374502,30.386549,-1.5255136,1.526943,-1.9351901,6.35944
2.414,-17.27443,29.78901,-1.1503067,1.3158333,-2.4937131,6.463868
2.416,-17.112492,29.186047,-0.7489567,1.0959742,-3.0589664,6.538128
2.418,-16.887396,28.57318,-0.31952047,0.86932707,-3.6279097,6.5785685
2.42,-16.599586,27.946526,0.1394043,0.63817954,-4.1967487,6.5828295
2.422,-16.251106,27.30344,0.6284385,0.40495777,-4.7609663,6.5499167
2.424,-15.8450775,26.642143,1.1476793,0.17207718,-5.3153844,6.4801693
2.426,-15.385977,25.961824,1.6961884,-0.058255196,-5.854365,6.375104
2.428,-14.87927,25.262688,2.2723584,-0.284127,-6.372061,6.2372847
2.43,-14.331585,24.545822,2.8735466,-0.5040271,-6.8626146,6.070118
2.432,-13.750217,23.813204,3.4965205,-0.71687937,-7.320358,5.877612
2.434,-13.142543,23.067326,4.137355,-0.9219701,-7.740056,5.6640263
2.436,-12.516099,22.31113,4.7915382,-1.1189072,-8.117086,5.4336925
2.438,-11.878271,21.548256,5.454178,-1.3075087,-8.447546,5.1907434
2.44,-11.236481,20.782389,6.120095,-1.487706,-8.728338,4.938942
2.442,-10.59703,20.017244,6.7839503,-1.6594806,-8.957255,4.6816144
2.444,-9.965801,19.256678,7.4405327,-1.8228035,-9.133018,4.421686
2.446,-9.348046,18.504238,8.084476,-1.9775612,-9.255188,4.1616745
2.448,-8.747776,17.763103,8.7106285,-2.123552,-9.324077,3.9038079
2.45,-8.168537,17.036291,9.313513,-2.2605083,-9.340683,3.650048
2.452,-7.6125274,16.326359,9.887999,-2.3881238,-9.306613,3.4021862
2.454,-7.0822964,15.635518,10.429716,-2.506074,-9.223947,3.161877
2.456,-6.5798664,14.965995,10.934364,-2.614049,-9.095127,2.9306314
2.458,-6.106457,14.319832,11.398142,-2.711828,-8.922909,2.7097902
2.46,-5.6621437,13.698679,11.817813,-2.7993116,-8.710286,2.5004935
2.462,-5.246828,13.103763,12.190458,-2.8765347,-8.460419,2.303637
2.464,-4.8597546,12.536273,12.514076,-2.9437082,-8.176575,2.1198363
2.466,-4.499741,11.997106,12.787207,-3.0011978,-7.862095,1.9494201
2.468,-4.1651278,11.48693,13.008644,-3.04952,-7.520433,1.792453
2.47,-3.8541539,11.006136,13.177715,-3.0893815,-7.155122,1.6487228
2.472,-3.564806,10.555013,13.294098,-3.1216593,-6.7697587,1.5177723
2.474,-3.295114,10.133843,13.357845,-3.1473615,-6.367943,1.3988991
2.476,-3.0427241,9.742274,13.369651,-3.1675973,-5.953333,1.2912526
2.478,-2.8052154,9.379867,13.330786,-3.183587,-5.52963,1.1939263
2.48,-2.5804722,9.046165,13.242914,-3.1965983,-5.1004896,1.1059884
2.482,-2.3664057,8.740458,13.108615,-3.2079105,-4.66945,1.0264766
2.484,-2.160956,8.462308,12.930727,-3.2187803,-4.239855,0.95442307
2.486,-1.9623961,8.21099,12.712497,-3.2304125,-3.8148434,0.88890064
2.488,-1.7687435,7.985777,12.457724,-3.2439313,-3.3972762,0.82903576
2.49,-1.578073,7.7858443,12.170601,-3.2603517,-2.9896805,0.7740208
2.492,-1.3887367,7.610188,11.855475,-3.2805567,-2.594206,0.7230959
2.494,-1.1983435,7.4578977,11.516825,-3.3052955,-2.2126272,0.67556643
2.496,-1.0056243,7.32846,11.159022,-3.3351784,-1.8463401,0.6307887
2.498,-0.80929875,7.221236,10.786342,-3.3706865,-1.4963324,0.58814037
2.5,-0.6079669,7.1358786,10.402782,-3.4121962,-1.1632495,0.5470637
2.502,-0.40014648,7.071492,10.012251,-3.4599771,-0.8474129,0.5070263
2.504,-0.18475747,7.0276346,9.618296,-3.5142121,-0.54887646,0.46754467
2.506,0.039089918,7.00388,9.224498,-3.574998,-0.26743543,0.4281932
2.508,0.27179003,7.0000167,8.834326,-3.6423793,-0.0026918352,0.38861012
2.51,0.5141647,7.0157924,8.450697,-3.716322,0.24588016,0.34850633
2.512,0.76668906,7.0511227,8.076129,-3.796735,0.4789377,0.30763686
2.514,1.0300431,7.105764,7.7130423,-3.883472,0.6972399,0.26582217
2.516,1.3044573,7.179571,7.3632374,-3.9763265,0.9016417,0.22294831
2.518,1.5902643,7.272422,7.0281897,-4.075052,1.0930599,0.1789645
2.52,1.8875719,7.3843255,6.7091455,-4.1793456,1.2724695,0.13386238
2.522,2.1963634,7.5153027,6.4070635,-4.288872,1.440902,0.08768082
2.524,2.5163696,7.665313,6.1229324,-4.4032116,1.5994612,0.0404948
2.526,2.8476152,7.834509,5.8573756,-4.521911,1.7492691,-0.0076624155
2.528,3.18967,8.022918,5.610837,-4.6444936,1.891432,-0.056784153
2.53,3.5422506,8.230817,5.383443,-4.770435,2.027078,-0.106904745
2.532,3.904935,8.458235,5.1753063,-4.8991733,2.1572995,-0.15811002
2.534,4.277233,8.705396,4.98625,-5.030149,2.283126,-0.21055818
2.536,4.65904,8.972552,4.8160825,-5.1627812,2.4055035,-0.26444125
2.538,5.0499177,9.259813,4.664343,-5.2965126,2.5252903,-0.31997526
2.54,5.4495816,9.56742,4.530635,-5.430789,2.6432424,-0.3774289
2.542,5.857735,9.895238,4.414378,-5.5651007,2.759989,-0.4370674
2.544,6.274255,10.24348,4.314785,-5.6989775,2.8760598,-0.49917006
2.546,6.698805,10.612208,4.2311754,-5.831973,2.991914,-0.56397414
2.548,7.1312075,11.001376,4.1626625,-5.9637055,3.1079257,-0.63168263
2.55,7.5713587,11.410993,4.108303,-6.0938234,3.2244167,-0.7024696
2.552,8.0191,11.8412,4.067379,-6.222006,3.3416624,-0.77645314
2.554,8.474367,12.291876,4.038837,-6.3479443,3.4599319,-0.85369617
2.556,8.937176,12.763051,4.0217,-6.4713507,3.579463,-0.9341976
2.558,9.407457,13.25478,4.015041,-6.5919323,3.7005289,-1.0178875
2.56,9.885557,13.7668295,4.0179257,-6.709411,3.8234103,-1.1046461
2.562,10.371441,14.29911,4.0295787,-6.8234606,3.9484549,-1.1943135
2.564,10.865563,14.8514805,4.0491247,-6.9337454,4.076098,-1.2867312
2.566,11.368132,15.423739,4.075849,-7.0399103,4.206798,-1.3817024
2.568,11.879518,16.015656,4.108861,-7.1415944,4.341072,-1.479026
2.57,12.399965,16.626978,4.147311,-7.2384534,4.4794564,-1.5784928
2.572,12.930052,17.257204,4.190467,-7.330149,4.6225276,-1.6799028
2.574,13.4704895,17.905758,4.2373943,-7.416397,4.7708926,-1.7830497
2.576,14.021856,18.572067,4.2872753,-7.4969254,4.9251127,-1.887755
2.578,14.58469,19.255547,4.3393955,-7.5715322,5.085686,-1.993847
2.58,15.159209,19.955418,4.3930645,-7.639997,5.2530847,-2.1011596
2.582,15.745628,20.67064,4.44757,-7.702129,5.4277153,-2.2095642
2.584,16.344677,21.400078,4.502553,-7.757722,5.609912,-2.3190084
2.586,16.957178,22.14293,4.5572004,-7.8065653,5.7999625,-2.4294655
2.588,17.583757,22.897743,4.6109447,-7.848363,5.9981236,-2.5409384
2.59,18.22498,23.662535,4.663376,-7.882796,6.20462,-2.653491
2.592,18.88124,24.434944,4.7137976,-7.9094586,6.4196815,-2.7672014
2.594,19.55298,25.212479,4.7617464,-7.927884,6.6435347,-2.8821862
2.596,20.240599,25.992836,4.8066654,-7.937537,6.8764567,-2.9985719
2.598,20.944454,26.773174,4.8481026,-7.9378114,7.1186852,-3.116529
2.6,21.665344,27.550358,4.885659,-7.928067,7.3704734,-3.236267
2.602,22.404333,28.32087,4.919054,-7.907615,7.6321073,-3.3580422
2.604,23.161161,29.080652,4.9478197,-7.8757315,7.903878,-3.4821453
2.606,23.936003,29.825274,4.970765,-7.831686,8.186072,-3.6089396
2.608,24.728596,30.550125,4.9871445,-7.774735,8.478942,-3.7388284
2.61,25.538551,31.250122,4.996258,-7.704126,8.782697,-3.8722699
2.612,26.364635,31.920181,4.9973564,-7.6191807,9.097416,-4.009675
2.614,27.205448,32.555157,4.98977,-7.519287,9.423063,-4.151348
2.616,28.0591,33.149567,4.9729843,-7.4039335,9.759571,-4.297528
2.618,28.924175,33.697533,4.946499,-7.2726803,10.106717,-4.4483876
2.62,29.798172,34.193096,4.9098577,-7.1252546,10.464011,-4.6039596
2.622,30.679096,34.630093,4.8627357,-6.9615374,10.830761,-4.7640605
2.624,31.564266,35.002373,4.8047123,-6.7815084,11.20609,-4.92831
2.626,32.450737,35.303894,4.7355194,-6.5853043,11.5889,-5.0961833
2.628,33.335136,35.529015,4.654765,-6.3732014,11.977863,-5.2670307
2.63,34.213535,35.672527,4.5622253,-6.145632,12.371523,-5.4400935
2.632,35.081257,35.729706,4.4578457,-5.90311,12.768425,-5.6145506
2.634,35.933414,35.69656,4.3416715,-5.6460896,13.167236,-5.7895517
2.636,36.764275,35.569874,4.214096,-5.374894,13.566717,-5.9642634
2.638,37.56749,35.347473,4.0755634,-5.0896783,13.965687,-6.137764
2.64,38.335934,35.02825,3.9268084,-4.7902803,14.363139,-6.309058
2.642,39.061905,34.612167,3.7689383,-4.476185,14.758209,-6.4770565
2.644,39.737305,34.100285,3.602996,-4.1465483,15.150051,-6.640563
2.646,40.35344,33.494957,3.4301827,-3.8002381,15.537676,-6.798308
2.648,40.90163,32.80006,3.2519343,-3.435958,15.919841,-6.948853
2.65,41.373077,32.020893,3.0697541,-3.052445,16.294847,-7.090556
2.652,41.759377,31.164194,2.8851523,-2.6487384,16.66035,-7.221494
2.654,42.052048,30.237778,2.699669,-2.22441,17.013245,-7.33948
2.656,42.24344,29.250622,2.514805,-1.7797704,17.349695,-7.4420156
2.658,42.326645,28.2127,2.3320053,-1.3160381,17.66516,-7.526373
2.66,42.2962,27.13471,2.1529436,-0.8354311,17.954525,-7.5897055
2.662,42.147835,26.02781,1.9790306,-0.34112453,18.21245,-7.6292324
2.664,41.878952,24.903625,1.8118281,0.16287231,18.433702,-7.6423836
2.666,41.48866,23.773705,1.6526122,0.671927,18.613535,-7.627001
2.668,40.97795,22.649578,1.5027552,1.1810431,18.748045,-7.5814943
2.67,40.349525,21.542545,1.3636503,1.6850286,18.834356,-7.504899
2.672,39.608177,20.46326,1.2365212,2.178772,18.870901,-7.396918
2.674,38.760628,19.421318,1.1229191,2.657471,18.857454,-7.2578983
2.676,37.81506,18.42545,1.0242734,3.1167717,18.794916,-7.088805
2.678,36.78128,17.483389,0.94221115,3.5527968,18.685034,-6.891005
2.68,35.670757,16.601894,0.8784728,3.9622993,18.530195,-6.6662116
2.682,34.495636,15.786516,0.83483076,4.342683,18.333172,-6.416434
2.684,33.26759,15.041178,0.8121166,4.692017,18.09684,-6.143961
2.686,32.000698,14.368135,0.8114846,5.0089536,17.823929,-5.8513618
2.688,30.708715,13.768946,0.83411646,5.2927384,17.517004,-5.541436
2.69,29.405209,13.2439785,0.88123703,5.543213,17.17858,-5.2172785
2.692,28.103176,12.792485,0.95363235,5.7608995,16.81125,-4.882211
2.694,26.814346,12.412463,1.0512815,5.9468784,16.417683,-4.5397186
2.696,25.549717,12.101028,1.1742249,6.1028175,16.000744,-4.1932745
2.698,24.319553,11.854757,1.3218555,6.2308807,15.563541,-3.8462236
2.7,23.132965,11.670012,1.4928823,6.333697,15.109486,-3.5016742
2.702,21.997887,11.5427,1.6855558,6.414172,14.642218,-3.162494
2.704,20.920975,11.468016,1.8975166,6.4754415,14.1655245,-2.8312397
2.706,19.907518,11.440853,2.12602,6.5207024,13.6832285,-2.510157
2.708,18.961319,11.456265,2.3675156,6.553077,13.199013,-2.2011354
2.71,18.084595,11.50932,2.6181855,6.5754666,12.716279,-1.9058785
2.712,17.278788,11.595507,2.8737454,6.5904765,12.23808,-1.625863
2.714,16.544664,11.71035,3.1301446,6.6002064,11.766956,-1.3621607
2.716,15.882305,11.849718,3.3834794,6.6061897,11.304783,-1.1154699
2.718,15.290839,12.009823,3.629328,6.6095037,10.852704,-0.8863028
2.72,14.768359,12.18713,3.863541,6.6107116,10.411229,-0.67501354
2.722,14.312873,12.378553,4.082176,6.6098714,9.980269,-0.48166886
2.724,13.9218,12.580917,4.281823,6.606602,9.5591755,-0.3060466
2.726,13.5919695,12.791839,4.459429,6.6002364,9.146818,-0.14771426
2.728,13.3193865,13.00949,4.6125636,6.589914,8.7417,-0.006152034
2.73,13.100505,13.232035,4.739621,6.5746946,8.342045,0.11926754
2.732,12.930902,13.458101,4.8396325,6.5536766,7.9459424,0.22918603
2.734,12.806452,13.686708,4.9125404,6.526107,7.551465,0.32426423
2.736,12.723218,13.916581,4.958946,6.49142,7.156752,0.40509507
2.738,12.677145,14.146607,4.9805536,6.449325,6.76014,0.47212404
2.74,12.664789,14.375772,4.9793706,6.3998003,6.360265,0.5256205
2.742,12.683167,14.603108,4.9572687,6.343079,5.9561257,0.5656585
2.744,12.7275715,14.827833,4.9181614,6.279535,5.547047,0.5921063
2.746,12.7957,15.048744,4.8646,6.209667,5.13269,0.6046876
2.748,12.885314,15.26432,4.799748,6.1340766,4.7130446,0.60301536
2.75,12.993651,15.473378,4.7273903,6.0533895,4.2884336,0.58668816
2.752,13.118336,15.674926,4.6508026,5.968246,3.8594072,0.55535555
2.754,13.256893,15.868029,4.573422,5.879241,3.4266615,0.5087625
2.756,13.407415,16.051565,4.4986897,5.786952,2.9910371,0.44682062
2.758,13.567742,16.224455,4.429657,5.691931,2.5534916,0.3696249
2.76,13.73598,16.385475,4.369031,5.5947256,2.115037,0.27746892
2.762,13.910073,16.533585,4.319457,5.495809,1.6767347,0.17086378
2.764,14.088304,16.667948,4.2831135,5.3956556,1.239699,0.05058652
2.766,14.269128,16.78784,4.261675,5.2946715,0.80510634,-0.08237089
2.768,14.450845,16.892708,4.2565737,5.193298,0.37423435,-0.22698294
2.77,14.631499,16.982529,4.268652,5.091813,-0.051587194,-0.3821665
2.772,14.809642,17.057194,4.298418,4.990355,-0.47104043,-0.5466001
2.774,14.983547,17.11701,4.34602,4.8890777,-0.88276184,-0.71885765
2.776,15.151742,17.162489,4.4113674,4.7880487,-1.2854412,-0.8976151
2.778,15.312608,17.194271,4.4938436,4.6871867,-1.6780329,-1.0815732
2.78,15.464985,17.213127,4.592523,4.586321,-2.059587,-1.269445
2.782,15.607548,17.219948,4.7063346,4.4851937,-2.4291961,-1.4600472
2.784,15.738772,17.216114,4.8335624,4.3834558,-2.7861269,-1.652329
2.786,15.857599,17.202793,4.9724274,4.2806993,-3.1298208,-1.8453839
2.788,15.963303,17.180681,5.121212,4.176459,-3.4598515,-2.0384495
2.79,16.055138,17.150452,5.278408,4.0702906,-3.7759206,-2.2309244
2.792,16.132563,17.113012,5.442164,3.9617507,-4.0778675,-2.4223142
2.794,16.195875,17.069881,5.611702,3.8504834,-4.365653,-2.612202
2.796,16.243938,17.022404,5.7854424,3.7362223,-4.6393685,-2.8002367
2.798,16.276464,16.971317,5.961748,3.6188111,-4.899221,-2.9860582
2.8,16.293385,16.917204,6.138988,3.4982061,-5.1455336,-3.1692924
2.802,16.294989,16.860653,6.315971,3.374452,-5.3787374,-3.349511
2.804,16.281698,16.802078,6.4919024,3.247667,-5.5993342,-3.52625
2.806,16.253622,16.741552,6.6661015,3.1180391,-5.8078685,-3.6990387
2.808,16.211288,16.679165,6.8379626,2.9858136,-6.0048666,-3.8673809
2.81,16.15504,16.61476,7.0071926,2.8512473,-6.190854,-4.03079
2.812,16.085413,16.548187,7.173678,2.7146144,-6.3662558,-4.188821
2.814,16.002974,16.479082,7.3374968,2.5762453,-6.5313625,-4.3411016
2.816,15.908435,16.406979,7.4988074,2.4365473,-6.6863413,-4.487354
2.818,15.802631,16.33152,7.6580963,2.2959442,-6.831261,-4.6273108
2.82,15.686431,16.252459,7.815795,2.1548884,-6.9661007,-4.7606688
2.822,15.56034,16.169294,7.9725437,2.01389,-7.0907393,-4.887068
2.824,15.425399,16.081717,8.128907,1.8735777,-7.20497,-5.006105
2.826,15.282403,15.989435,8.285523,1.7345747,-7.308507,-5.117422
2.828,15.132207,15.892126,8.443314,1.5975184,-7.4011326,-5.220714
2.83,14.975677,15.789761,8.602766,1.463134,-7.4825025,-5.315589
2.832,14.813855,15.682053,8.764617,1.3321614,-7.5520506,-5.401642
2.834,14.647489,15.569008,8.929092,1.2052313,-7.6092396,-5.4784045
2.836,14.477318,15.450565,9.096414,1.0828292,-7.6535335,-5.545275
2.838,14.30414,15.326653,9.266711,0.96532714,-7.68429,-5.601539
2.84,14.128612,15.197444,9.439767,0.8529594,-7.700756,-5.646408
2.842,13.951613,15.063039,9.615298,0.7458514,-7.702122,-5.6791353
2.844,13.77371,14.923445,9.7926655,0.64405406,-7.6875215,-5.6991043
2.846,13.595406,14.778877,9.971228,0.54760253,-7.6560426,-5.705941
2.848,13.417453,14.629547,10.149839,0.45656216,-7.6067886,-5.699643
2.85,13.240191,14.475266,10.327409,0.3710792,-7.5389004,-5.680563
2.852,13.063738,14.316159,10.503145,0.29140615,-7.4516606,-5.649472
2.854,12.889713,14.152118,10.674492,0.21788287,-7.344535,-5.607453
2.856,12.71733,13.983351,10.840807,0.15093637,-7.217212,-5.555831
2.858,12.546415,13.810246,11.000768,0.09102678,-7.069661,-5.4959846
2.86,12.377485,13.632819,11.152601,0.038582444,-6.9021544,-5.4292564
2.862,12.210727,13.450976,11.295069,-0.0060486794,-6.7152786,-5.356826
2.864,12.046341,13.264743,11.427029,-0.042604923,-6.5099154,-5.2796474
2.866,11.883931,13.074432,11.547205,-0.07096028,-6.2872562,-5.1984224
2.868,11.723544,12.88023,11.654629,-0.09117484,-6.0487213,-5.113587
2.87,11.565,12.682518,11.7487135,-0.103423,-5.795894,-5.025373
2.872,11.408254,12.481703,11.828875,-0.10795808,-5.530438,-4.9339647
2.874,11.252956,12.278351,11.894692,-0.10506439,-5.254057,-4.839572
2.876,11.098961,12.073088,11.946164,-0.09509194,-4.968474,-4.7423916
2.878,10.946152,11.866701,11.983279,-0.078459024,-4.6753483,-4.6425877
2.88,10.794598,11.659762,12.00629,-0.055613518,-4.376313,-4.540287
2.882,10.643916,11.453221,12.015634,-0.027037978,-4.07293,-4.435594
2.884,10.49412,11.248011,12.011768,0.0067919493,-3.7666893,-4.3286133
2.886,10.345148,11.045031,11.995417,0.045387328,-3.4589868,-4.21945
2.888,10.197088,10.8451395,11.967277,0.088259995,-3.1511395,-4.1081886
2.89,10.050045,10.649359,11.928173,0.1349383,-2.844367,-3.9949193
2.892,9.903965,10.458505,11.878922,0.18494481,-2.5397773,-3.879753
2.894,9.7593355,10.273393,11.820481,0.2377907,-2.2383618,-3.762847
2.896,9.616309,10.0948,11.753804,0.29300874,-1.9409486,-3.6444218
2.898,9.474915,9.923804,11.679516,0.3501111,-1.6482294,-3.524773
2.9,9.335162,9.760988,11.598045,0.4086104,-1.3607631,-3.4042714
2.902,9.197369,9.606772,11.5101185,0.4680496,-1.0789956,-3.283379
2.904,9.062051,9.461073,11.41631,0.5279815,-0.80326056,-3.162604
2.906,8.92955,9.323981,11.317214,0.58798933,-0.5337933,-3.042485
2.908,8.800032,9.1956,11.213434,0.64768034,-0.27078193,-2.9235835
2.91,8.673777,9.076023,11.105433,0.7067129,-0.014372766,-2.8064299
2.912,8.550913,8.96523,10.993823,0.76476455,0.23533028,-2.6915295
2.914,8.431661,8.863273,10.878923,0.82158947,0.47826067,-2.5793333
2.916,8.316258,8.770093,10.761169,0.87698114,0.7143746,-2.4702384
2.918,8.2045555,8.685566,10.640823,0.93077284,0.943683,-2.364568
2.92,8.096766,8.609363,10.518192,0.98285806,1.1662176,-2.2626038
2.922,7.9930124,8.54102,10.393528,1.0331728,1.3820577,-2.1645398
2.924,7.893279,8.480297,10.266927,1.0816836,1.591269,-2.0705
2.926,7.7974534,8.426748,10.138623,1.1283804,1.793921,-1.9805216
2.928,7.7054625,8.379925,10.008681,1.1732438,1.9900751,-1.8945758
2.93,7.61732,8.339252,9.877188,1.2162888,2.1797757,-1.8125747
2.932,7.5329556,8.304467,9.744152,1.2575401,2.3630397,-1.7343656
2.934,7.452097,8.27515,9.609685,1.2969977,2.5398562,-1.6597745
2.936,7.3747363,8.250974,9.473865,1.3346407,2.7101717,-1.5886046
2.938,7.300615,8.231758,9.336663,1.370434,2.873907,-1.5206615
2.94,7.2295475,8.217145,9.198218,1.4043341,3.030935,-1.4557481
2.942,7.1613264,8.206846,9.05861,1.4362508,3.1810918,-1.3937075
2.944,7.09571,8.20085,8.918162,1.4660742,3.3241925,-1.3344083
2.946,7.032632,8.199024,8.7768955,1.493669,3.4600132,-1.27777
2.948,6.971951,8.201153,8.635057,1.5189058,3.5883067,-1.2237453
2.95,6.913495,8.207211,8.492821,1.5416305,3.7088003,-1.1723402
2.952,6.856926,8.216862,8.350319,1.5617083,3.821216,-1.1235883
2.954,6.802405,8.229971,8.207695,1.5789996,3.9252872,-1.0775578
2.956,6.7495503,8.246296,8.065168,1.5933677,4.0207386,-1.0343224
2.958,6.698199,8.265706,7.923061,1.6046969,4.1072993,-0.9939697
2.96,6.6481466,8.288061,7.7815404,1.6128657,4.184732,-0.95656544
2.962,6.599352,8.313128,7.64092,1.6177617,4.252823,-0.9221579
2.964,6.551608,8.340684,7.501561,1.6192853,4.311399,-0.89077693
2.966,6.5047255,8.370591,7.363692,1.6173629,4.360336,-0.86241937
2.968,6.4585805,8.402649,7.227662,1.6119148,4.399541,-0.8370599
2.97,6.4130983,8.436351,7.0938344,1.6028848,4.4289794,-0.81463593
2.972,6.3680053,8.471526,6.962561,1.590227,4.448683,-0.795057
2.974,6.323213,8.50786,6.8341107,1.5739174,4.4587307,-0.77821434
2.976,6.2785616,8.544999,6.708859,1.5539591,4.459258,-0.76400125
2.978,6.2337904,8.582573,6.587205,1.5303756,4.4504642,-0.75228435
2.98,6.1889396,8.620252,6.4692993,1.5032116,4.432602,-0.7429475
2.982,6.143647,8.657677,6.355536,1.4725521,4.405959,-0.73588324
2.984,6.0980406,8.694424,6.2462373,1.4384845,4.3708644,-0.7310037
2.986,6.051907,8.730155,6.141654,1.4011272,4.3276796,-0.7282443
2.988,6.0050755,8.764526,6.042073,1.3606188,4.276789,-0.72756535
2.99,5.957412,8.79727,5.947555,1.3171021,4.2185946,-0.7289432
2.992,5.908923,8.828025,5.8585196,1.2707381,4.1535153,-0.73235047
2.994,5.859603,8.856491,5.775119,1.2216718,4.081977,-0.73776066
2.996,5.8092365,8.882569,5.6974373,1.1700565,4.0043907,-0.7451331
2.998,5.757865,8.905985,5.62559,1.1160477,3.9212046,-0.7543919
3,5.7054486,8.92651,5.559727,1.0597881,3.8328738,-0.7654112
3.002,5.6520257,8.944061,5.5000086,1.0013944,3.7398393,-0.7780352
3.004,5.597568,8.958497,5.4464326,0.9409739,3.6425495,-0.792048
3.006,5.5421004,8.969815,5.399102,0.8786278,3.5414612,-0.807208
3.008,5.4856396,8.978016,5.358043,0.8144467,3.437036,-0.82324815
3.01,5.428416,8.983161,5.3232155,0.74848306,3.3297355,-0.8398823
3.012,5.370377,8.985249,5.294613,0.6807952,3.220017,-0.8568347
3.014,5.311565,8.984473,5.272252,0.61144006,3.1083224,-0.87386525
3.016,5.2521725,8.980865,5.256097,0.54045725,2.9951017,-0.89074534
3.018,5.192228,8.974612,5.2460337,0.46789813,2.880782,-0.90728736
3.02,5.1318793,8.9658575,5.2420135,0.39381456,2.765783,-0.92335963
3.022,5.0712733,8.9546995,5.2438316,0.31827557,2.6505198,-0.93884194
3.024,5.0103283,8.941308,5.251397,0.24136472,2.535376,-0.95366895
3.026,4.949395,8.925764,5.26457,0.16316974,2.4207094,-0.9677912
3.028,4.888635,8.908251,5.283236,0.08379495,2.3068573,-0.98115677
3.03,4.8280883,8.888892,5.3071175,0.0033365488,2.194146,-0.99373096
3.032,4.767841,8.867828,5.3360825,-0.078086734,2.0828695,-1.0054727
3.034,4.7078876,8.845136,5.3699117,-0.16037136,1.9732897,-1.0163229
3.036,4.648512,8.820917,5.4083166,-0.24342144,1.8656707,-1.0262156
3.038,4.5897236,8.79527,5.451069,-0.32716143,1.7602311,-1.035092
3.04,4.5316043,8.7683115,5.4979596,-0.41152167,1.6571696,-1.0428681
3.042,4.474331,8.7401495,5.548805,-0.49645197,1.5566685,-1.0494596
3.044,4.417973,8.710852,5.603259,-0.5819135,1.458874,-1.054767
3.046,4.362525,8.680578,5.6610527,-0.6678891,1.3639104,-1.0586946
3.048,4.3081145,8.649431,5.721871,-0.75436723,1.2718868,-1.0611509
3.05,4.2549057,8.617587,5.7854667,-0.84133625,1.1829088,-1.0620289
3.052,4.202941,8.585152,5.8515115,-0.92880917,1.0970368,-1.0612234
3.054,4.152414,8.552311,5.9197745,-1.0167933,1.0143311,-1.058637
3.056,4.1032567,8.519231,5.9899836,-1.105284,0.93485135,-1.0541767
3.058,4.0556593,8.486189,6.0618143,-1.194284,0.85862976,-1.0477607
3.06,4.009431,8.453383,6.13503,-1.2837963,0.7857033,-1.0393175
3.062,3.964952,8.421066,6.2094035,-1.3738046,0.7160952,-1.0287844
3.064,3.9220245,8.3895035,6.2846446,-1.464279,0.64983076,-1.0161244
3.066,3.8808095,8.359031,6.360485,-1.5551947,0.5869343,-1.0012976
3.068,3.8413367,8.329825,6.4366913,-1.6465124,0.52741843,-0.98427075
3.07,3.80368,8.30229,6.513071,-1.7381904,0.47129488,-0.96502554
3.072,3.7676103,8.276812,6.5893755,-1.8301865,0.4185601,-0.9435504
3.074,3.7332816,8.253618,6.665411,-1.9224694,0.36919892,-0.9198171
3.076,3.7006505,8.233235,6.741072,-2.015009,0.32319373,-0.8938209
3.078,3.66966,8.215889,6.8161855,-2.1077998,0.28051466,-0.86554253
3.08,3.6401901,8.202133,6.89056,-2.2008286,0.24110425,-0.8349469
3.082,3.6122708,8.192291,6.963932,-2.2941024,0.20491719,-0.8020009
3.084,3.5856612,8.186843,7.036284,-2.3876429,0.17188245,-0.76667535
3.086,3.560495,8.186106,7.1074986,-2.48148,0.14193386,-0.7289395
3.088,3.5365896,8.190494,7.1774383,-2.5756288,0.11498433,-0.688776
3.09,3.5136795,8.200385,7.2460766,-2.6700926,0.09093678,-0.64617103
3.092,3.491786,8.216296,7.313294,-2.7648685,0.069714665,-0.60111254
3.094,3.47072,8.238399,7.3790364,-2.8599427,0.051218152,-0.553619
3.096,3.4502902,8.267138,7.4431324,-2.9552805,0.035351634,-0.50373733
3.098,3.430434,8.302698,7.505649,-3.0508456,0.022019029,-0.45153457
3.1,3.410982,8.345301,7.566687,-3.1465707,0.011117458,-0.39710224
3.102,3.3918705,8.395263,7.626123,-3.2423935,0.0025401115,-0.3405552
3.104,3.3728569,8.452638,7.6840334,-3.33824,-0.0038173199,-0.282022
3.106,3.3539252,8.517446,7.7404137,-3.4340248,-0.008055091,-0.22164792
3.108,3.334999,8.589804,7.7954082,-3.529679,-0.010281801,-0.15958369
3.11,3.3157227,8.669683,7.848937,-3.6251388,-0.010605335,-0.09596038
3.112,3.2964022,8.756955,7.9010777,-3.7203374,-0.009128213,-0.03090477
3.114,3.2767103,8.851535,7.9520483,-3.8152223,-0.005960703,0.035469294
3.116,3.2567298,8.953275,8.001999,-3.909759,-0.0012247562,0.10305643
3.118,3.236302,9.061916,8.051015,-4.0039186,0.0049791336,0.17175972
3.12,3.2153492,9.177266,8.0992565,-4.097675,0.012556791,0.24148142
3.122,3.1940324,9.299009,8.1469345,-4.1910057,0.021425486,0.3121351
3.124,3.1723454,9.426895,8.194033,-4.2838974,0.0315125,0.3836305
3.126,3.1501396,9.560636,8.240795,-4.3763304,0.04276955,0.4558655
3.128,3.127543,9.6998825,8.287249,-4.4682684,0.055143952,0.5287396
3.13,3.104576,9.8443575,8.333481,-4.5596895,0.0686121,0.6021613
3.132,3.0814047,9.993825,8.379658,-4.650568,0.083150744,0.6760328
3.134,3.0581844,10.14798,8.426045,-4.74088,0.09875643,0.75025916
3.136,3.0348973,10.306669,8.472619,-4.8306065,0.11541331,0.8247421
3.138,3.0117397,10.469545,8.519518,-4.919725,0.1331178,0.8994032
3.14,2.9888518,10.63638,8.566761,-5.0082293,0.15186596,0.97416997
3.142,2.9665053,10.806925,8.614235,-5.0961084,0.17167866,1.0489768
3.144,2.9447918,10.980952,8.661936,-5.183364,0.19256008,1.1237631
3.146,2.9239688,11.158191,8.709776,-5.2699895,0.2145319,1.1984595
3.148,2.9041018,11.338526,8.7576685,-5.355979,0.2376219,1.2729971
3.15,2.8854709,11.521744,8.80538,-5.4413114,0.26186216,1.3473275
3.152,2.867927,11.707639,8.852716,-5.5259485,0.28729177,1.4214026
3.154,2.8517466,11.896244,8.899521,-5.6098585,0.3139422,1.4952167
3.156,2.8370159,12.087364,8.945545,-5.692959,0.34185028,1.5687723
3.158,2.8238022,12.281094,8.990498,-5.775176,0.37102973,1.642104
3.16,2.8122506,12.477267,9.034092,-5.8564296,0.4014871,1.7152759
3.162,2.802437,12.675975,9.07599,-5.936619,0.43319058,1.7883617
3.164,2.794423,12.876958,9.115858,-6.0157094,0.4660772,1.8614552
3.166,2.7885978,13.080164,9.153481,-6.0936728,0.5000627,1.9346356
3.168,2.7848837,13.285544,9.188452,-6.1705303,0.53500426,2.007957
3.17,2.7836318,13.49308,9.220506,-6.2463484,0.5707272,2.081448
3.172,2.784816,13.702574,9.249295,-6.3212547,0.6070061,2.1551049
3.174,2.7886465,13.913954,9.274614,-6.3953953,0.64358675,2.2288773
3.176,2.7953668,14.127012,9.296178,-6.4689417,0.6802237,2.3026567
3.178,2.805094,14.341547,9.3137045,-6.542079,0.71667814,2.3762662
3.18,2.818129,14.557363,9.327211,-6.6149898,0.752725,2.4494617
3.182,2.8347616,14.774212,9.336575,-6.6878557,0.78819156,2.5219269
3.184,2.8552747,14.991961,9.341797,-6.760809,0.8229246,2.5932822
3.186,2.8798428,15.210114,9.342772,-6.8339534,0.8568218,2.6631265
3.188,2.9088507,15.428415,9.339688,-6.907357,0.8898146,2.731048
3.19,2.9425907,15.646452,9.332651,-6.9810143,0.9218321,2.79666
3.192,2.9814634,15.86384,9.321876,-7.0548964,0.95281243,2.8596516
3.194,3.0257163,16.080177,9.30751,-7.128915,0.98267865,2.919796
3.196,3.0754285,16.295118,9.289796,-7.2029634,1.0113089,2.9769778
3.198,3.1310706,16.508287,9.2690325,-7.2768855,1.0385687,3.0311837
3.2,3.1927547,16.719412,9.245522,-7.350514,1.0642958,3.082502
3.202,3.2607036,16.928179,9.219572,-7.4236946,1.0883293,3.1310835
3.204,3.3349166,17.134485,9.191573,-7.4962797,1.110537,3.1771374
3.206,3.4156156,17.337997,9.161932,-7.5681496,1.1308265,3.2209003
3.208,3.502832,17.53866,9.130752,-7.639181,1.1491508,3.2625952
3.21,3.596521,17.736433,9.09841,-7.7092943,1.1655087,3.3024461
3.212,3.696742,17.931128,9.065035,-7.7784123,1.17994,3.3406482
3.214,3.8031898,18.122791,9.030917,-7.846487,1.1924922,3.3773801
3.216,3.9157057,18.311497,8.996284,-7.9134502,1.2032433,3.4128022
3.218,4.0339985,18.497335,8.961098,-7.9792275,1.2122588,3.4470634
3.22,4.157913,18.680326,8.925544,-8.0437565,1.2196064,3.4803057
3.222,4.286886,18.860596,8.889545,-8.106939,1.2253385,3.5126328
3.224,4.4206758,19.038115,8.852983,-8.168656,1.2295089,3.5441043
3.226,4.5587025,19.212917,8.815745,-8.228774,1.2321684,3.574711
3.228,4.700525,19.385014,8.777693,-8.28714,1.2333548,3.6043568
3.23,4.84559,19.554249,8.738767,-8.343596,1.2330995,3.6328795
3.232,4.993268,19.720568,8.6986065,-8.397974,1.2314217,3.6600552
3.234,5.1428313,19.883747,8.657051,-8.450099,1.2283385,3.6855958
3.236,5.293705,20.043503,8.613806,-8.499803,1.22383,3.7091665
3.238,5.44517,20.199448,8.568632,-8.546944,1.2178471,3.7304366
3.24,5.596334,20.351187,8.52125,-8.591399,1.210293,3.7491047
3.242,5.7463403,20.498299,8.471315,-8.63308,1.2010293,3.7649105
3.244,5.8944798,20.640186,8.418413,-8.671937,1.1899059,3.7776814
3.246,6.0398917,20.776237,8.362291,-8.707935,1.1767249,3.7872984
3.248,6.18194,20.905848,8.302653,-8.741061,1.1612918,3.7937238
3.25,6.31958,21.028433,8.239344,-8.771319,1.1434183,3.7969966
3.252,6.452037,21.143387,8.172163,-8.798706,1.122931,3.7972054
3.254,6.578665,21.250122,8.100816,-8.823203,1.0996995,3.794477
3.256,6.698509,21.348032,8.025174,-8.844773,1.0735977,3.788951
3.258,6.8111515,21.436453,7.944956,-8.863342,1.0445642,3.780788
3.26,6.9157114,21.51492,7.8599567,-8.878797,1.0125656,3.7701533
3.262,7.0118103,21.582752,7.770027,-8.89099,0.9776449,3.7572093
3.264,7.0987597,21.639462,7.6748524,-8.899729,0.93989086,3.74214
3.266,7.175909,21.684671,7.5743437,-8.904777,0.89946556,3.725133
3.268,7.24297,21.717749,7.4682713,-8.905866,0.85661626,3.706381
3.27,7.299173,21.738438,7.356413,-8.9026985,0.8116405,3.6860585
3.272,7.344392,21.746338,7.238693,-8.894983,0.76490235,3.6643348
3.274,7.3781734,21.741354,7.114786,-8.882368,0.71683,3.6413527
3.276,7.4000807,21.723425,6.9846287,-8.864528,0.6679239,3.6172495
3.278,7.4100585,21.692429,6.848081,-8.8411255,0.6187124,3.5921516
3.28,7.407884,21.648394,6.70497,-8.811836,0.5697479,3.566193
3.282,7.3933187,21.591515,6.555135,-8.776366,0.5216081,3.5395255
3.284,7.3664284,21.521994,6.3985395,-8.734428,0.47483325,3.5123138
3.286,7.3270125,21.440094,6.2351646,-8.6857815,0.4299581,3.4847684
3.288,7.2750916,21.346058,6.0650606,-8.630256,0.3874371,3.4571304
3.29,7.2105527,21.240288,5.888111,-8.567732,0.34765458,3.4296775
3.292,7.133566,21.12309,5.7044773,-8.498173,0.31092,3.402719
3.294,7.0438967,20.99502,5.5144696,-8.421603,0.27743053,3.3765812
3.296,6.9419594,20.856504,5.3183355,-8.338127,0.24724412,3.351582
3.298,6.827879,20.707872,5.1165504,-8.24794,0.22028565,3.3280187
3.3,6.7019644,20.549515,4.9098773,-8.151298,0.19635892,3.3061595
3.302,6.5643773,20.381649,4.699184,-8.048489,0.17515373,3.2861893
3.304,6.415778,20.204498,4.485339,-7.9397993,0.15626907,3.2682168
3.306,6.2567973,20.018234,4.2696447,-7.8255124,0.13922381,3.2522001
3.308,6.0877085,19.822943,4.0533075,-7.7058773,0.12348461,3.2380068
3.31,5.909201,19.618792,3.8376026,-7.5810833,0.10849881,3.2253947
3.312,5.7216935,19.40598,3.6241055,-7.451254,0.09370232,3.2140787
3.314,5.5261364,19.184774,3.4144201,-7.316464,0.0785501,3.2037826
3.316,5.3229656,18.955366,3.2101994,-7.1767344,0.06252694,3.194282
3.318,5.112864,18.718203,3.0131078,-7.0320725,0.04515624,3.185477
3.32,4.8965225,18.473803,2.824729,-6.8825064,0.026014805,3.1774063
3.322,4.674394,18.22297,2.6467628,-6.7280874,0.004729748,3.170301
3.324,4.447259,17.966465,2.4805703,-6.5689425,-0.018964529,3.1645136
3.326,4.2155924,17.705338,2.3274527,-6.405287,-0.045245886,3.1604943
3.328,3.979742,17.440834,2.1886783,-6.237444,-0.07424688,3.15876
3.33,3.740141,17.174461,2.0650797,-6.0658503,-0.10599661,3.1598406
3.332,3.4970524,16.90786,1.9574175,-5.891038,-0.14044476,3.164215
3.334,3.2507017,16.642838,1.8661113,-5.713641,-0.17751253,3.1722631
3.336,3.001454,16.381239,1.791368,-5.534344,-0.21711433,3.184256
3.338,2.7492657,16.125088,1.7330761,-5.353887,-0.25918007,3.2003396
3.34,2.4942746,15.876434,1.6908245,-5.1730175,-0.30368817,3.220532
3.342,2.2363992,15.637304,1.6642756,-4.9924192,-0.35065973,3.2447462
3.344,1.9757138,15.409655,1.6527395,-4.812707,-0.40017998,3.2727876
3.346,1.7120486,15.195463,1.6552668,-4.6344166,-0.45237207,3.3043785
3.348,1.4453259,14.996534,1.67099,-4.458006,-0.50739837,3.3391995
3.35,1.175234,14.8145685,1.698823,-4.2838297,-0.56539416,3.3769116
3.352,0.90179884,14.651119,1.7374735,-4.112144,-0.626479,3.4171367
3.354,0.6247152,14.507389,1.7858515,-3.9431438,-0.6907238,3.4594939
3.356,0.34376276,14.384394,1.8427582,-3.7769816,-0.7581397,3.503602
3.358,0.058932066,14.282667,1.9070721,-3.6137807,-0.8286505,3.5490987
3.36,-0.22970422,14.202586,1.9776745,-3.4536088,-0.90209544,3.5956323
3.362,-0.52216256,14.143972,2.0536566,-3.2964923,-0.97820354,3.6428175
3.364,-0.81832445,14.106501,2.1343155,-3.1424468,-1.056633,3.6902456
3.366,-1.1178609,14.089346,2.2188706,-2.9914398,-1.1369454,3.7374625
3.368,-1.420603,14.091444,2.3069053,-2.8434186,-1.2186011,3.783978
3.37,-1.7260025,14.111519,2.397828,-2.698284,-1.3009756,3.8292713
3.372,-2.0336082,14.148178,2.4912958,-2.5559082,-1.3833326,3.8727899
3.374,-2.34277,14.199564,2.5871592,-2.416131,-1.4648259,3.9139965
3.376,-2.6526644,14.263741,2.6850367,-2.2787795,-1.5445122,3.9523072
3.378,-2.962638,14.338727,2.7847657,-2.1436582,-1.6213696,3.9871879
3.38,-3.2715077,14.422119,2.886063,-2.0105255,-1.6942507,4.018134
3.382,-3.5786715,14.511821,2.9886637,-1.8791198,-1.7619052,4.0446324
3.384,-3.882953,14.605239,3.0922618,-1.7491403,-1.8230661,4.0661864
3.386,-4.1833725,14.700081,3.196437,-1.6202863,-1.8764389,4.082356
3.388,-4.4789658,14.794027,3.300809,-1.4922699,-1.9207443,4.092791
3.39,-4.768756,14.884838,3.4048505,-1.3648463,-1.9547602,4.097239
3.392,-5.051705,14.970525,3.5080323,-1.237852,-1.9773585,4.0955763
3.394,-5.327002,15.049047,3.609562,-1.1112272,-1.9875487,4.087802
3.396,-5.593767,15.11882,3.7087164,-0.9850364,-1.9845026,4.0740514
3.398,-5.8513594,15.178404,3.8046622,-0.8594941,-1.9676099,4.0545874
3.4,-6.09898,15.226522,3.896617,-0.73491615,-1.9365282,4.029746
3.402,-6.3360953,15.262221,3.983655,-0.6117191,-1.891164,3.9999237
3.404,-6.562172,15.284778,4.0647984,-0.49036816,-1.8317202,3.9655478
3.406,-6.7769604,15.293682,4.1392813,-0.371364,-1.7586933,3.9270892
3.408,-6.9803214,15.288883,4.206237,-0.25520575,-1.6728688,3.8850164
3.41,-7.1721473,15.270418,4.2647705,-0.14237472,-1.5753043,3.8398347
3.412,-7.352447,15.238749,4.3142776,-0.033316344,-1.4673041,3.7920287
3.414,-7.521326,15.194227,4.35438,0.07153875,-1.3503602,3.7420988
3.416,-7.679171,15.137575,4.3845797,0.17178395,-1.2261184,3.6905465
3.418,-7.8261213,15.069435,4.404828,0.2670248,-1.0963058,3.6378245
3.42,-7.9626036,14.990562,4.415354,0.35686657,-0.96269846,3.5843203
3.422,-8.0888815,14.9016695,4.4163256,0.44093573,-0.82709336,3.5303369
3.424,-8.205824,14.803711,4.408222,0.5188821,-0.6912514,3.4760628
3.426,-8.313907,14.697525,4.391717,0.5903897,-0.55687284,3.421589
3.428,-8.413879,14.583799,4.3676243,0.6552242,-0.42557836,3.3668807
3.43,-8.506537,14.463291,4.336836,0.7132496,-0.2988677,3.3118334
3.432,-8.59256,14.336546,4.300459,0.76443374,-0.1781131,3.2562747
3.434,-8.672912,14.204275,4.259787,0.80885935,-0.06453395,3.1999493
3.436,-8.748347,14.066856,4.215934,0.8467155,0.040850043,3.142623
3.438,-8.819812,13.924782,4.1702003,0.8782895,0.13725078,3.084052
3.44,-8.888147,13.778395,4.123828,0.90396005,0.22412515,3.0240073
3.442,-8.954158,13.627897,4.077981,0.9241808,0.3011918,2.9622743
3.444,-9.018808,13.473661,4.0337734,0.9394315,0.3684256,2.8986845
3.446,-9.082852,13.3159895,3.9921634,0.9502295,0.42603362,2.8331258
3.448,-9.146931,13.155128,3.9539003,0.9571123,0.47444546,2.765549
3.45,-9.211738,12.991436,3.9197865,0.9606154,0.51425993,2.6959765
3.452,-9.277772,12.825278,3.8900476,0.9612801,0.546227,2.6245086
3.454,-9.345513,12.656986,3.8649988,0.95961964,0.5712176,2.5513387
3.456,-9.415044,12.486915,3.8446121,0.9561242,0.5901395,2.476738
3.458,-9.486656,12.315451,3.8287005,0.9512602,0.6039231,2.4010308
3.46,-9.560146,12.143028,3.8169858,0.9454489,0.613487,2.324566
3.462,-9.635657,11.970139,3.8090994,0.9390581,0.6196977,2.247707
3.464,-9.712881,11.797403,3.804308,0.9324226,0.62336797,2.1707892
3.466,-9.7914295,11.625416,3.8020382,0.9258186,0.62522703,2.0941389
