Time_s_,Acc_x_m_s_2_,Acc_y_m_s_2_,Acc_z_m_s_2_,Gyro_x_1_s_,Gyro_y_1_s_,Gyro_z_1_s_
0,0.25583938,-0.23368636,0.48989972,0.05054603,0.06297055,0.36971015
0.002,0.26181245,-0.2213623,0.49117243,0.052538164,0.06051492,0.36888805
0.004,0.2678382,-0.208544,0.49263376,0.054718416,0.05747261,0.36791548
0.006,0.27417746,-0.19504209,0.49434456,0.057091,0.053762704,0.366801
0.008,0.28060383,-0.1807789,0.49618924,0.059636757,0.04932355,0.36556613
0.01,0.28732467,-0.16580923,0.49816462,0.062341828,0.0441114,0.3642331
0.012,0.29416934,-0.14999485,0.5002545,0.06515221,0.038117036,0.36283994
0.014,0.30132484,-0.13348651,0.50235605,0.06801078,0.031378943,0.3614443
0.016,0.30868036,-0.1161986,0.50437164,0.07086154,0.02398416,0.36013174
0.018,0.31613398,-0.098085895,0.50621516,0.073645614,0.016081445,0.35898414
0.02,0.32379967,-0.079111226,0.5078895,0.07630566,0.0078561045,0.35808647
0.022,0.3315925,-0.05922143,0.5092526,0.07878724,-0.0004799664,0.35753524
0.024,0.33941948,-0.038409457,0.51024264,0.08105738,-0.008705225,0.35739878
0.026,0.34737736,-0.016674101,0.51071393,0.08308791,-0.016625803,0.35773212
0.028,0.35533053,0.0059801936,0.5105779,0.084946506,-0.024227101,0.35854822
0.03,0.36336982,0.029626548,0.50985676,0.086507075,-0.031220166,0.35987622
0.032,0.37132576,0.054289997,0.5083953,0.08776906,-0.037545674,0.36169425
0.034,0.37924698,0.07989928,0.50612193,0.088734545,-0.043195955,0.3639654
0.036,0.38718125,0.10645367,0.50295746,0.08941074,-0.048191708,0.36665952
0.038,0.3951468,0.13383459,0.49866474,0.089808725,-0.0525753,0.36973366
0.04,0.40313315,0.16195863,0.49316943,0.089933306,-0.056398995,0.37313664
0.042,0.41108406,0.19086787,0.4863308,0.089816675,-0.059684888,0.37683514
0.044,0.41911548,0.22042766,0.47810242,0.0894876,-0.062467724,0.38081235
0.046,0.42717183,0.25068158,0.46857706,0.08897264,-0.06476283,0.38506478
0.048,0.4352733,0.281569,0.45776898,0.08830894,-0.06655899,0.38960707
0.05,0.44328862,0.3131021,0.4458852,0.08753478,-0.06786204,0.39443344
0.052,0.45134738,0.3451348,0.432998,0.086676724,-0.06866071,0.3995344
0.054,0.45940226,0.37769794,0.41921094,0.08576181,-0.06897222,0.40487567
0.056,0.4677598,0.411367,0.40446618,0.08481194,-0.06882334,0.41040817
0.058,0.47605124,0.4452062,0.3889862,0.08385807,-0.068251505,0.41605818
0.06,0.48428777,0.47915387,0.37277317,0.08292381,-0.06729476,0.42173934
0.062,0.49279672,0.51300675,0.35601336,0.08205139,-0.06600414,0.4273502
0.064,0.50148475,0.54683554,0.33871254,0.08126285,-0.06441615,0.4327983
0.066,0.5104211,0.58067846,0.32087594,0.08061365,-0.062552676,0.43802243
0.068,0.5196145,0.61459017,0.30262312,0.08013922,-0.060438048,0.44298756
0.07,0.52927876,0.6485456,0.28389108,0.07985617,-0.05808356,0.4476866
0.072,0.5393909,0.6824548,0.2649334,0.07981637,-0.055491336,0.4521594
0.074,0.5500316,0.7163558,0.2457297,0.080052525,-0.052662097,0.45645013
0.076,0.5611086,0.7501225,0.22626266,0.08059729,-0.04962811,0.4606114
0.078,0.5727868,0.78362066,0.20658642,0.081472136,-0.046439733,0.4647228
0.08,0.58507437,0.81691897,0.18659118,0.08270058,-0.043194987,0.46883225
0.082,0.5977601,0.84985685,0.16629264,0.084283404,-0.040055476,0.47296745
0.084,0.61094487,0.8825031,0.1454829,0.086209595,-0.037258312,0.4771201
0.086,0.6246123,0.91476053,0.12440819,0.08844148,-0.03507579,0.48126602
0.088,0.638741,0.9467008,0.10301633,0.0909311,-0.033816177,0.4853283
0.09,0.6533006,0.97823036,0.0815663,0.09358407,-0.033827122,0.48921055
0.092,0.668202,1.0093873,0.060176633,0.0963199,-0.035419848,0.49281964
0.094,0.68337953,1.0401231,0.039234847,0.09903982,-0.038846936,0.49605927
0.096,0.69850755,1.0703214,0.01893764,0.10165197,-0.04427042,0.4988431
0.098,0.7137247,1.100077,-0.00025562197,0.104090564,-0.05171946,0.50112003
0.1,0.72873247,1.1292568,-0.018044993,0.106284246,-0.061107337,0.50288284
0.102,0.7436037,1.1578603,-0.03410885,0.108181044,-0.07221424,0.50417626
0.104,0.7581819,1.1858218,-0.04820377,0.10975724,-0.0846917,0.5051138
0.106,0.77243507,1.2132242,-0.060341395,0.11102061,-0.09812963,0.5058386
0.108,0.7863455,1.2400954,-0.070502095,0.11197752,-0.11205991,0.506496
0.11,0.7997914,1.2664635,-0.07873215,0.11264215,-0.12600754,0.50724024
0.112,0.81286335,1.2922978,-0.08515966,0.11303356,-0.13953209,0.50821173
0.114,0.82557946,1.3175867,-0.08990819,0.11319393,-0.15223023,0.50951505
0.116,0.8378124,1.3423275,-0.093285084,0.11316455,-0.1637634,0.51122177
0.118,0.8496461,1.3665261,-0.09556037,0.11301525,-0.17388698,0.5133572
0.12,0.86088294,1.3904061,-0.097154446,0.112810306,-0.18246664,0.51589924
0.122,0.871668,1.4139453,-0.09845883,0.11262559,-0.18948318,0.51879895
0.124,0.8819387,1.437323,-0.099734515,0.11252719,-0.19504544,0.5219837
0.126,0.89166653,1.46054,-0.10131298,0.112533286,-0.19941245,0.5253618
0.128,0.9007877,1.4835427,-0.103350446,0.11266187,-0.20295626,0.52882075
0.13,0.90912867,1.506444,-0.106106445,0.11288424,-0.20616701,0.53222585
0.132,0.9167493,1.5292895,-0.10972963,0.11312668,-0.20964786,0.5354131
0.134,0.92345744,1.5521472,-0.114229485,0.11328418,-0.21404204,0.53821737
0.136,0.92899704,1.5751394,-0.11952033,0.11323522,-0.2199713,0.5404658
0.138,0.93341684,1.5982788,-0.1255835,0.11284576,-0.22797921,0.5419793
0.14,0.9363394,1.6216149,-0.13228342,0.11199761,-0.23845719,0.54259384
0.142,0.9378205,1.645308,-0.13943273,0.110586986,-0.2515884,0.5422158
0.144,0.9374168,1.6694245,-0.14675285,0.108557604,-0.26727885,0.54081655
0.146,0.9349263,1.6940442,-0.15394177,0.10587365,-0.28520143,0.5384398
0.148,0.9302833,1.7193605,-0.16055952,0.10254231,-0.30481037,0.53523505
0.15,0.9233862,1.7453972,-0.16630714,0.098589584,-0.32537758,0.5314383
0.152,0.9141943,1.7722405,-0.17091683,0.094070375,-0.34607953,0.52734023
0.154,0.9026121,1.7999265,-0.17430115,0.089089826,-0.36610237,0.5232606
0.156,0.88867676,1.8284757,-0.17633218,0.08371624,-0.38472712,0.5195256
0.158,0.8723063,1.8579736,-0.17699149,0.07802135,-0.40138727,0.5164273
0.16,0.8535808,1.8885338,-0.17640072,0.072074726,-0.41572088,0.5142109
0.162,0.83259445,1.9202064,-0.17466134,0.06594169,-0.4275987,0.5130178
0.164,0.80950904,1.953088,-0.17177832,0.0596589,-0.43708044,0.51288754
0.166,0.78442085,1.987374,-0.16794658,0.05323185,-0.4444148,0.5137595
0.168,0.75780475,2.0230694,-0.16328293,0.046671376,-0.44996148,0.5155079
0.17,0.729743,2.0601766,-0.1579232,0.039978877,-0.45410806,0.51795095
0.172,0.70040554,2.098779,-0.15219143,0.0331586,-0.45723048,0.5209014
0.174,0.6701958,2.1388621,-0.14636852,0.026208416,-0.45962903,0.524153
0.176,0.63938737,2.1804073,-0.14071834,0.019131929,-0.46150488,0.527534
0.178,0.60857224,2.2234197,-0.1356654,0.011964202,-0.46295115,0.5309304
0.18,0.5780463,2.267738,-0.13161659,0.0047324,-0.4639641,0.5342628
0.182,0.54845035,2.3133855,-0.12919715,-0.0025307536,-0.4644668,0.5374782
0.184,0.52010286,2.3602252,-0.1287119,-0.009784311,-0.4643441,0.5405266
0.186,0.49347723,2.4081438,-0.13058685,-0.016983703,-0.4634708,0.54334563
0.188,0.46903336,2.4572659,-0.13511206,-0.024096474,-0.4617554,0.5458569
0.19,0.4472394,2.507474,-0.1425592,-0.031081468,-0.4591794,0.54796237
0.192,0.42844367,2.5587082,-0.1532667,-0.037895247,-0.45581806,0.5495298
0.194,0.41290522,2.6108248,-0.16743459,-0.044506133,-0.45182103,0.5504058
0.196,0.40085757,2.6637988,-0.18543914,-0.050873175,-0.44742036,0.5504181
0.198,0.39235795,2.7174869,-0.20746118,-0.05695489,-0.4429155,0.54942244
0.2,0.38762796,2.771839,-0.23366623,-0.06268729,-0.4386322,0.5473084
0.202,0.3866018,2.8267303,-0.26415327,-0.06801884,-0.43489185,0.54399824
0.204,0.3892734,2.8820457,-0.29936513,-0.07290393,-0.43200463,0.539432
0.206,0.39556992,2.9378428,-0.3393104,-0.077323064,-0.43021572,0.5335941
0.208,0.40497494,2.994112,-0.38392955,-0.08124323,-0.4296771,0.52650124
0.21,0.41745448,3.050928,-0.43301353,-0.0846127,-0.43049678,0.51820415
0.212,0.43248987,3.1082435,-0.4862043,-0.08740631,-0.4327148,0.50878364
0.214,0.44961643,3.166142,-0.54288137,-0.08960904,-0.43632486,0.49837857
0.216,0.46817672,3.2244005,-0.60238385,-0.09118557,-0.44126073,0.48719034
0.218,0.48770094,3.2830725,-0.6641209,-0.09210482,-0.4474355,0.47546223
0.22,0.50757694,3.3420851,-0.7271048,-0.09235917,-0.45473152,0.46349233
0.222,0.52702606,3.401345,-0.79045665,-0.09197208,-0.46303922,0.45161545
0.224,0.54536116,3.4608421,-0.85309607,-0.090986386,-0.47227073,0.44022998
0.226,0.5617788,3.520519,-0.91394806,-0.08947645,-0.4823494,0.4297547
0.228,0.5758363,3.5801497,-0.97173434,-0.08752698,-0.4932425,0.42064774
0.23,0.585994,3.640234,-1.024907,-0.085264325,-0.50497586,0.41333446
0.232,0.591504,3.7009926,-1.0724462,-0.08285761,-0.5176114,0.4081739
0.234,0.59194064,3.7623553,-1.1130629,-0.08046895,-0.5312459,0.40543556
0.236,0.58658385,3.8244839,-1.1462079,-0.07823163,-0.54599035,0.4052717
0.238,0.5747781,3.8873296,-1.1714813,-0.07626754,-0.5619293,0.40768862
0.24,0.55560875,3.950823,-1.1875551,-0.07465428,-0.57912385,0.41256252
0.242,0.5284896,4.015135,-1.1932193,-0.07343757,-0.59757775,0.4196176
0.244,0.493325,4.0801907,-1.188087,-0.07262102,-0.6172009,0.42848232
0.246,0.44968224,4.146139,-1.1717682,-0.07215768,-0.6378046,0.4387491
0.248,0.39721537,4.2130737,-1.1437047,-0.07196316,-0.65912855,0.4499938
0.25,0.33590627,4.281358,-1.103639,-0.07194194,-0.6808451,0.46181306
0.252,0.26557994,4.3511944,-1.0513123,-0.07198548,-0.70260036,0.47386467
0.254,0.18662667,4.422814,-0.9869967,-0.07200146,-0.72401124,0.48588562
0.256,0.0991478,4.4962854,-0.91160834,-0.07191405,-0.74471796,0.49769774
0.258,0.0032901764,4.5716286,-0.8263684,-0.07169017,-0.764469,0.50923544
0.26,-0.10057616,4.649144,-0.73260957,-0.07130924,-0.7830624,0.52045405
0.262,-0.21157598,4.7290154,-0.6319609,-0.07078019,-0.8003311,0.5313395
0.264,-0.32900882,4.811487,-0.5265334,-0.070081025,-0.81611764,0.5419342
0.266,-0.4518969,4.89642,-0.41880605,-0.06913254,-0.830262,0.5523522
0.268,-0.57926893,4.984099,-0.3110747,-0.06785384,-0.8426944,0.5627485
0.27,-0.71000576,5.074415,-0.20604277,-0.06615341,-0.85336006,0.573363
0.272,-0.84299946,5.167336,-0.10614909,-0.063836336,-0.86203694,0.58454424
0.274,-0.97695565,5.2624254,-0.014249986,-0.06061396,-0.8683394,0.59673697
0.276,-1.1100521,5.3590417,0.0669562,-0.05608055,-0.87174565,0.610483
0.278,-1.2411549,5.456846,0.13491455,-0.049699366,-0.8715488,0.626425
0.28,-1.3690448,5.5557528,0.18746966,-0.040861905,-0.86686075,0.64525
0.282,-1.4923434,5.6555176,0.22274345,-0.028957486,-0.85665566,0.6676273
0.284,-1.6099179,5.7555976,0.23904064,-0.013438106,-0.83983016,0.6942035
0.286,-1.7204742,5.8555994,0.23490728,0.006079495,-0.8153348,0.72553176
0.288,-1.8229628,5.9550104,0.2091003,0.02972114,-0.78234935,0.7620094
0.29,-1.9161296,6.053625,0.16110262,0.057269126,-0.740407,0.80382776
0.292,-1.9992604,6.151103,0.09138249,0.08816895,-0.6894932,0.8509324
0.294,-2.0713289,6.2473254,0.00014442205,0.12146771,-0.63016474,0.9030244
0.296,-2.1308177,6.341784,-0.11229107,0.1559001,-0.5636703,0.95959604
0.298,-2.1776352,6.4346642,-0.24503958,0.18992837,-0.49196494,1.0199491
0.3,-2.2107534,6.5256405,-0.39688426,0.22185999,-0.4177155,1.0832237
0.302,-2.2300103,6.6147394,-0.5652654,0.24995843,-0.3442741,1.1484488
0.304,-2.234746,6.7013845,-0.7473419,0.2725551,-0.275545,1.2145694
0.306,-2.224319,6.784684,-0.9391107,0.2881536,-0.21581464,1.2804664
0.308,-2.1989653,6.864249,-1.1365991,0.29549962,-0.16957457,1.3449732
0.31,-2.15903,6.939337,-1.3359276,0.2936771,-0.14121306,1.4068027
0.312,-2.10447,7.009367,-1.533159,0.28211963,-0.13471,1.4645126
0.314,-2.0356598,7.0736094,-1.724086,0.26058078,-0.15346935,1.5166214
0.316,-1.9531102,7.1312747,-1.9044198,0.22915247,-0.20002607,1.5615716
0.318,-1.8573465,7.1816435,-2.0702152,0.18824609,-0.27587157,1.5978118
0.32,-1.7490878,7.2238283,-2.2174172,0.13860853,-0.38138267,1.6239642
0.322,-1.6290703,7.2570734,-2.342265,0.081309974,-0.5156014,1.6389401
0.324,-1.4980311,7.2805357,-2.4408786,0.017635673,-0.6763891,1.6419587
0.326,-1.3566048,7.293564,-2.5091667,-0.051066518,-0.86078465,1.6327095
0.328,-1.2056501,7.2952704,-2.543212,-0.1234597,-1.0650729,1.6113632
0.33,-1.0459039,7.2848716,-2.5400078,-0.19831187,-1.284982,1.5785445
0.332,-0.8779998,7.26159,-2.4970875,-0.27454942,-1.5159774,1.5352987
0.334,-0.70274305,7.2247334,-2.4125957,-0.35127926,-1.7535245,1.4829755
0.336,-0.52122164,7.173641,-2.2849896,-0.4277495,-1.9932716,1.423176
0.338,-0.33456683,7.1082416,-2.1133194,-0.503333,-2.231223,1.3575435
0.34,-0.14290667,7.0279446,-1.8976814,-0.57753,-2.4638753,1.2876204
0.342,0.05254793,6.9328446,-1.6384542,-0.649902,-2.6882067,1.2148248
0.344,0.2501893,6.823407,-1.3368539,-0.719957,-2.90173,1.1403288
0.346,0.449255,6.699881,-0.99366045,-0.78703773,-3.1023555,1.0650202
0.348,0.64877415,6.5630894,-0.6107172,-0.85021424,-3.288224,0.9895215
0.35,0.84776735,6.413822,-0.1915007,-0.90828943,-3.4575505,0.9142331
0.352,1.0451958,6.2526264,0.26010835,-0.95982766,-3.6084967,0.83941734
0.354,1.2395418,6.0805874,0.74061406,-1.0032252,-3.7390196,0.7653429
0.356,1.429657,5.8987656,1.2451849,-1.0368259,-3.846869,0.6923594
0.358,1.6145873,5.708461,1.768273,-1.0590416,-3.9296234,0.62093836
0.36,1.7935058,5.510974,2.3034644,-1.0684603,-3.9848435,0.55170345
0.362,1.965907,5.307619,2.844248,-1.0639813,-4.010253,0.48544154
0.364,2.1314244,5.0996747,3.384227,-1.0449499,-4.003991,0.4230686
0.366,2.2899415,4.888028,3.9175723,-1.011249,-3.9648857,0.36555144
0.368,2.4416418,4.673344,4.4386153,-0.9633019,-3.8925889,0.31373617
0.37,2.5872676,4.454933,4.942585,-0.902068,-3.7876372,0.26824588
0.372,2.7244225,4.2336144,5.4264445,-0.82897985,-3.6514816,0.2293491
0.374,2.8523502,4.0108137,5.883911,-0.7458999,-3.4864738,0.19690174
0.376,2.9747245,3.7851815,6.3065367,-0.6549449,-3.295771,0.17043978
0.378,3.0938416,3.554504,6.6871796,-0.55832446,-3.083094,0.14921561
0.38,3.2104826,3.3185284,7.021575,-0.45821667,-2.8524544,0.132156
0.382,3.324987,3.078507,7.305437,-0.35661852,-2.608016,0.11804645
0.384,3.4384186,2.8351083,7.5338783,-0.2553028,-2.3539865,0.10559267
0.386,3.5518434,2.5878198,7.7034316,-0.15581632,-2.0945272,0.09350063
0.388,3.6659856,2.3353894,7.811942,-0.059476793,-1.8336464,0.08057672
0.39,3.7810972,2.076786,7.8563027,0.032558262,-1.575143,0.065692425
0.392,3.89893,1.8095427,7.840018,0.11929244,-1.3225234,0.047857724
0.394,4.025149,1.5287362,7.765482,0.19985232,-1.0789824,0.026298396
0.396,4.157796,1.2339035,7.628501,0.2734096,-0.8474409,0.00036895275
0.398,4.29513,0.92632353,7.4311557,0.33915752,-0.63047314,-0.030359464
0.4,4.437524,0.6062012,7.1803336,0.39634132,-0.43034658,-0.06607533
0.402,4.5852833,0.27175725,6.879795,0.44415703,-0.24918994,-0.10680118
0.404,4.736336,-0.08034623,6.5352697,0.4820477,-0.088471934,-0.15254605
0.406,4.8932133,-0.45246005,6.15648,0.509849,0.05094278,-0.2033229
0.408,5.05935,-0.8437233,5.7526402,0.5274871,0.16813104,-0.25885126
0.41,5.227888,-1.246674,5.33393,0.5350779,0.26258704,-0.31834868
0.412,5.3983727,-1.6552901,4.903153,0.53313696,0.33473217,-0.38066384
0.414,5.5756373,-2.0627105,4.459947,0.52251405,0.38566914,-0.4444623
0.416,5.757633,-2.4610705,4.0097504,0.50427413,0.41707432,-0.50811815
0.418,5.9414525,-2.8478084,3.5644724,0.47975877,0.43142006,-0.5695009
0.42,6.124424,-3.2239823,3.1337297,0.4504999,0.432038,-0.62615955
0.422,6.3057203,-3.5908766,2.7209463,0.41771716,0.42226112,-0.67582816
0.424,6.4851456,-3.9441645,2.326483,0.38265848,0.40587506,-0.7159477
0.426,6.6619153,-4.274725,1.9511242,0.34651363,0.3863525,-0.743698
0.428,6.835294,-4.572466,1.5982838,0.31001496,0.3664535,-0.75672114
0.43,7.003694,-4.82794,1.274305,0.27360925,0.34882608,-0.75358874
0.432,7.1656003,-5.033074,0.9873038,0.2377959,0.33601835,-0.7337848
0.434,7.3200426,-5.1796713,0.74597573,0.20348324,0.3303425,-0.69728214
0.436,7.465422,-5.2582,0.55507076,0.17240123,0.3344261,-0.64398825
0.438,7.600594,-5.2607956,0.41198555,0.14728168,0.35132927,-0.57374966
0.44,7.724391,-5.1825013,0.30964267,0.13194552,0.3850188,-0.48666567
0.442,7.8353925,-5.02095,0.23733854,0.1317018,0.44146195,-0.38264433
0.444,7.9323354,-4.776526,0.1820921,0.1529938,0.5281085,-0.26126403
0.446,8.01382,-4.452175,0.12996122,0.20202398,0.652568,-0.12314184
0.448,8.077737,-4.053277,0.06702867,0.28435427,0.8224192,0.02948618
0.45,8.121132,-3.58695,-0.020137489,0.40476796,1.0451683,0.19317733
0.452,8.14082,-3.061522,-0.14422303,0.56661725,1.3271219,0.36381176
0.454,8.133717,-2.4866138,-0.31663954,0.771019,1.6720555,0.53620607
0.456,8.096994,-1.873343,-0.5472957,1.0164168,2.0805075,0.7031292
0.458,8.028793,-1.2342625,-0.84314936,1.2980672,2.5488644,0.85499245
0.46,7.9286933,-0.5829036,-1.207622,1.6078885,3.068941,0.9803772
0.462,7.796999,0.06666374,-1.641218,1.9348035,3.628011,1.0673754
0.464,7.6354623,0.6999512,-2.141338,2.2651062,4.208074,1.1052319
0.466,7.4464912,1.3029168,-2.7010205,2.5833592,4.785923,1.0857131
0.468,7.2332916,1.8633509,-3.3100412,2.8735092,5.3342924,1.0043731
0.47,6.999584,2.3709643,-3.9543338,3.1200821,5.823229,0.86139846
0.472,6.7500877,2.8173294,-4.617273,3.3092556,6.2219715,0.66186345
0.474,6.4901752,3.1961792,-5.2799325,3.4299307,6.5016785,0.41574132
0.476,6.2263803,3.503725,-5.9222326,3.4748874,6.6391115,0.13727427
0.478,5.965236,3.738824,-6.5238967,3.4409876,6.6188965,-0.1571964
0.48,5.7131233,3.9035811,-7.0661774,3.3297176,6.4364824,-0.45099515
0.482,5.478718,4.0003796,-7.533029,3.1474442,6.099278,-0.7285177
0.484,5.268003,4.0331287,-7.9075713,2.9046373,5.6258216,-0.9768399
0.486,5.0826893,4.009719,-8.174903,2.614893,5.044482,-1.1871465
0.488,4.9260144,3.9384518,-8.326265,2.2938037,4.3909006,-1.3554296
0.49,4.801607,3.826475,-8.35908,1.9576653,3.7038436,-1.4822781
0.492,4.7115927,3.6801445,-8.27386,1.6223259,3.0213985,-1.5715046
0.494,4.6556616,3.5073183,-8.073566,1.3020082,2.3769498,-1.6286573
0.496,4.631938,3.3169348,-7.765734,1.0079768,1.7958198,-1.6601839
0.498,4.6378593,3.1174796,-7.361227,0.74817014,1.2946024,-1.6724069
0.5,4.6694193,2.9163828,-6.871841,0.5275579,0.8815564,-1.6700372
0.502,4.7199163,2.7216258,-6.3154573,0.3476832,0.5567417,-1.6563607
0.504,4.7794404,2.5419366,-5.7074795,0.20668039,0.3133218,-1.634057
0.506,4.845173,2.3796406,-5.057211,0.10024069,0.14025424,-1.605602
0.508,4.912116,2.2356825,-4.380305,0.022742815,0.024806507,-1.5727136
0.51,4.972573,2.11221,-3.6945171,-0.031866666,-0.045801677,-1.5357811
0.512,5.019463,2.012834,-3.0113707,-0.069421105,-0.08335352,-1.4942639
0.514,5.0478244,1.9416432,-2.340434,-0.094978586,-0.09768404,-1.4475713
0.516,5.049527,1.9007366,-1.6922787,-0.11256371,-0.09635105,-1.3957987
0.518,5.0194597,1.8877225,-1.0742131,-0.12530574,-0.08472688,-1.3396617
0.52,4.9622345,1.8957511,-0.4904379,-0.13571295,-0.066260226,-1.2799025
0.522,4.875021,1.9224232,0.06026867,-0.14560373,-0.04267322,-1.2171537
0.524,4.7523537,1.966418,0.58136076,-0.1561116,-0.014378112,-1.1520275
0.526,4.597798,2.0264292,1.0700319,-0.16778241,0.018950008,-1.0851179
0.528,4.4151263,2.10634,1.5198693,-0.18069176,0.057914015,-1.0171028
0.53,4.2074018,2.211662,1.9294183,-0.19460158,0.10291359,-0.9487615
0.532,3.9762259,2.3447418,2.303229,-0.20912133,0.15389347,-0.88097984
0.534,3.7244341,2.5009933,2.6460624,-0.22385162,0.21030046,-0.81466454
0.536,3.455139,2.6722364,2.9591265,-0.238397,0.2711002,-0.7507108
0.538,3.1722183,2.8513684,3.2390404,-0.25237766,0.3348196,-0.68994004
0.54,2.8805137,3.0338597,3.4791393,-0.2654118,0.39981967,-0.6329719
0.542,2.5843415,3.2169456,3.6721888,-0.2770943,0.46453798,-0.58018935
0.544,2.2870333,3.3973727,3.8122869,-0.2869858,0.5276911,-0.5316895
0.546,1.992508,3.5705776,3.8988254,-0.29450554,0.58879644,-0.48725557
0.548,1.7033944,3.73379,3.9373155,-0.29906696,0.6480163,-0.44650465
0.55,1.4226451,3.8857234,3.934547,-0.30010775,0.706283,-0.40882453
0.552,1.1533527,4.0256705,3.8965385,-0.296958,0.7654518,-0.37343812
0.554,0.89844036,4.1535263,3.8269749,-0.2889984,0.82786876,-0.33948714
0.556,0.6608863,4.268873,3.726951,-0.27566978,0.89619434,-0.30602503
0.558,0.44361234,4.370755,3.59616,-0.25646597,0.9731438,-0.27219635
0.56,0.24988246,4.457471,3.4334033,-0.23100382,1.0611792,-0.23739076
0.562,0.08226609,4.526914,3.237371,-0.19908807,1.1622415,-0.20119558
0.564,-0.057227135,4.5766134,3.0074778,-0.1607492,1.2774144,-0.16344629
0.566,-0.16777802,4.604988,2.744061,-0.116337955,1.4066385,-0.124182634
0.568,-0.24922132,4.611051,2.447846,-0.066664934,1.548445,-0.08359558
0.57,-0.30265522,4.594392,2.1206279,-0.01307857,1.6998771,-0.04200453
0.572,-0.32956076,4.555168,1.7660624,0.042603076,1.8564982,0.00013820844
0.574,-0.33244014,4.494485,1.3886278,0.098168135,2.0125113,0.042313743
0.576,-0.3129666,4.413331,0.9933881,0.15113533,2.1610484,0.08400452
0.578,-0.27313495,4.3122907,0.5859736,0.19889116,2.2946262,0.124718554
0.58,-0.21550906,4.1924276,0.1724168,0.2388699,2.405649,0.16399103
0.582,-0.14313686,4.0555506,-0.2407729,0.2687266,2.4869356,0.20139904
0.584,-0.060922265,3.9038758,-0.6482116,0.2864877,2.532228,0.23650153
0.586,0.025843024,3.7387288,-1.041216,0.29065704,2.5366023,0.2687797
0.588,0.112969995,3.5613775,-1.4125165,0.28031695,2.4967682,0.29763752
0.59,0.19670868,3.3737173,-1.7568674,0.25512552,2.411317,0.32240808
0.592,0.27315462,3.1774356,-2.067462,0.21530926,2.2807817,0.3423681
0.594,0.3390987,2.9740293,-2.3389244,0.1616056,2.107514,0.35680103
0.596,0.3893149,2.7656305,-2.5674884,0.0952099,1.8955872,0.3651547
0.598,0.42175603,2.552977,-2.7486587,0.017692983,1.6505622,0.367083
0.6,0.434564,2.337351,-2.8822517,-0.069159865,1.3789246,0.36249012
0.602,0.4263026,2.1202517,-2.9680977,-0.16326717,1.088124,0.3516088
0.604,0.39480722,1.9022359,-3.005296,-0.26238522,0.7860126,0.33480576
0.606,0.33971113,1.6836839,-2.995357,-0.3643047,0.4803597,0.31256312
0.608,0.26438558,1.4634147,-2.9417942,-0.46682027,0.17863356,0.28541937
0.61,0.17113769,1.2399063,-2.848652,-0.5678963,-0.112485036,0.2537032
0.612,0.061587065,1.0120051,-2.717976,-0.66560584,-0.38722503,0.21751072
0.614,-0.06203255,0.7802434,-2.5526185,-0.7580894,-0.64094317,0.1766454
0.616,-0.19677508,0.54645383,-2.3586388,-0.84368587,-0.8703652,0.13064519
0.618,-0.3401823,0.31228763,-2.142045,-0.9208592,-1.0729884,0.07911217
0.62,-0.48782247,0.078044325,-1.9080694,-0.9883542,-1.2473396,0.02154683
0.622,-0.63548917,-0.15514097,-1.6628361,-1.0451,-1.39282,-0.042655684
0.624,-0.7786912,-0.38610393,-1.4125067,-1.0900092,-1.5093439,-0.114049435
0.626,-0.9125614,-0.6141768,-1.1625779,-1.1222473,-1.5975795,-0.19306767
0.628,-1.032757,-0.83849216,-0.91738415,-1.1413361,-1.6587346,-0.2798607
0.63,-1.1358922,-1.0582722,-0.6807603,-1.1471334,-1.6944165,-0.37426555
0.632,-1.2158424,-1.2743345,-0.45376945,-1.1400726,-1.7072129,-0.4759558
0.634,-1.2670561,-1.4864552,-0.23846138,-1.1211302,-1.7005718,-0.5844561
0.636,-1.285093,-1.693111,-0.03754735,-1.0917966,-1.6786377,-0.69903326
0.638,-1.2657287,-1.8923051,0.14886957,-1.05403,-1.6462905,-0.81857634
0.64,-1.2069303,-2.08116,0.32326052,-1.010274,-1.6095877,-0.94158757
0.642,-1.1099993,-2.2548718,0.48974812,-0.9634322,-1.5755801,-1.0661113
0.644,-0.97817117,-2.4075155,0.6510366,-0.91655594,-1.5514442,-1.18966
0.646,-0.81251264,-2.5341048,0.8091765,-0.8725739,-1.5439862,-1.3094715
0.648,-0.6166693,-2.6300118,0.9678962,-0.83411956,-1.559393,-1.4228415
0.65,-0.3950659,-2.6928344,1.1308876,-0.8031528,-1.6023467,-1.527007
0.652,-0.15319073,-2.7214158,1.3000553,-0.78056705,-1.6751226,-1.6190729
0.654,0.10283601,-2.7158425,1.4753768,-0.7661428,-1.7771033,-1.696372
0.656,0.3661126,-2.6774874,1.6556166,-0.7585084,-1.9042852,-1.756757
0.658,0.63021505,-2.6091588,1.8379748,-0.7551935,-2.0492206,-1.7989348
0.66,0.88822085,-2.5146012,2.0179098,-0.75288045,-2.2013874,-1.8226495
0.662,1.1334355,-2.398581,2.1905518,-0.74760675,-2.3475814,-1.8288472
0.664,1.3597019,-2.2665467,2.3510177,-0.7350445,-2.472999,-1.8198982
0.666,1.561349,-2.1240273,2.4933732,-0.7110243,-2.5628128,-1.799604
0.668,1.7347224,-1.9771012,2.6121347,-0.67192036,-2.6034677,-1.772867
0.67,1.8767476,-1.831632,2.7009344,-0.6149549,-2.5839999,-1.7452956
0.672,1.9847848,-1.6935607,2.7550812,-0.5386691,-2.4976149,-1.7228191
0.674,2.0567448,-1.56817,2.774797,-0.44303125,-2.3420095,-1.7106472
0.676,2.0929887,-1.4593695,2.7573888,-0.32961488,-2.1200538,-1.7123843
0.678,2.0958076,-1.3696545,2.6980264,-0.20162666,-1.8400319,-1.7295644
0.68,2.0668879,-1.3005968,2.5968122,-0.063360035,-1.5144758,-1.7611713
0.682,2.0090914,-1.2530193,2.4551804,0.08011383,-1.1593118,-1.8037701
0.684,1.926533,-1.2266496,2.2737222,0.2231861,-0.7924905,-1.8518901
0.686,1.8222142,-1.2197154,2.0569487,0.36027747,-0.43189287,-1.8986635
0.688,1.6991849,-1.2293899,1.8129523,0.48616433,-0.09403624,-1.936927
0.69,1.5619543,-1.252377,1.5480462,0.59642136,0.20710537,-1.9604672
0.692,1.4152322,-1.2853589,1.2687318,0.68779516,0.46131688,-1.964996
0.694,1.2649137,-1.325475,0.9831494,0.75854325,0.66315466,-1.9487528
0.696,1.1149846,-1.368872,0.6957387,0.80855423,0.81176996,-1.9128711
0.698,0.96827096,-1.4127908,0.4125446,0.8391085,0.9099307,-1.8611554
0.7,0.8268992,-1.4556185,0.14078271,0.8527139,0.96369636,-1.7992474
0.702,0.6928003,-1.495717,-0.11543903,0.8528332,0.98149157,-1.7338003
0.704,0.5672272,-1.531714,-0.35228547,0.84323597,0.9725819,-1.6717082
0.706,0.45325845,-1.5634184,-0.5674636,0.8275519,0.94621503,-1.6190188
0.708,0.35111827,-1.5905216,-0.7609395,0.80907506,0.9106362,-1.5802829
0.71,0.261397,-1.6144556,-0.9308916,0.7904415,0.8721688,-1.558326
0.712,0.18456954,-1.6378213,-1.0782793,0.77347136,0.83531535,-1.5539005
0.714,0.122080624,-1.6631984,-1.2064316,0.7591719,0.8028364,-1.5659233
0.716,0.07356173,-1.6932402,-1.3180244,0.7477124,0.7757196,-1.5920259
0.718,0.036553025,-1.7297544,-1.4161346,0.7387164,0.75399363,-1.6288314
0.72,0.011148214,-1.7750448,-1.5052532,0.7317396,0.73759806,-1.6724671
0.722,-0.002122283,-1.83095,-1.592481,0.7265441,0.72651863,-1.7192098
0.724,-0.003417313,-1.8992496,-1.6830081,0.7232683,0.72109944,-1.7657347
0.726,0.006019354,-1.9801338,-1.7788538,0.72251654,0.72219825,-1.8091515
0.728,0.025202096,-2.0717719,-1.8820897,0.72529256,0.7310478,-1.8472128
0.73,0.050633788,-2.170056,-1.9947689,0.7328218,0.7492129,-1.8783938
0.732,0.07928634,-2.2709832,-2.1178954,0.74632674,0.778291,-1.9018475
0.734,0.107966185,-2.3700552,-2.2517972,0.76680064,0.81938255,-1.917394
0.736,0.13260984,-2.4622068,-2.3953102,0.79489654,0.8728819,-1.9254209
0.738,0.1503948,-2.5424094,-2.546668,0.83085454,0.9382601,-1.9267509
0.74,0.15930974,-2.605976,-2.7038133,0.8743492,1.0139656,-1.922497
0.742,0.15630078,-2.6487021,-2.8638701,0.92442447,1.0974101,-1.9140215
0.744,0.13895333,-2.6687067,-3.0226364,0.97938216,1.1850923,-1.9028547
0.746,0.10709453,-2.6661806,-3.175,1.0367675,1.2726922,-1.8906951
0.748,0.062039375,-2.6430793,-3.3171341,1.0935134,1.3552686,-1.8793753
0.75,0.006715536,-2.602735,-3.4457958,1.1460993,1.4274759,-1.8707744
0.752,-0.054342747,-2.5501494,-3.5577562,1.1908185,1.4839374,-1.8667908
0.754,-0.11677718,-2.4902964,-3.6471622,1.2239771,1.5195312,-1.8692979
0.756,-0.1780622,-2.4269443,-3.7072804,1.2422311,1.5299819,-1.8800602
0.758,-0.23448777,-2.3638473,-3.733075,1.2429398,1.512195,-1.900726
0.76,-0.2824862,-2.3040102,-3.720123,1.2243547,1.4643539,-1.9326522
0.762,-0.31828654,-2.249908,-3.6638196,1.1858404,1.3865094,-1.9763695
0.764,-0.33857107,-2.2039423,-3.560737,1.1279454,1.2806743,-2.0314143
0.766,-0.34080565,-2.1678457,-3.4098663,1.052373,1.1503551,-2.09654
0.768,-0.3232751,-2.143324,-3.2112947,0.96181923,1.0004228,-2.1696358
0.77,-0.28512573,-2.1317012,-2.9661055,0.8597392,0.83689994,-2.247688
0.772,-0.22664642,-2.1341562,-2.6766417,0.7499401,0.66622615,-2.3271
0.774,-0.14897525,-2.151613,-2.346136,0.63621056,0.49470425,-2.404062
0.776,-0.053888798,-2.184504,-1.9780174,0.5221269,0.32839972,-2.4748206
0.778,0.055413365,-2.2318783,-1.577596,0.4108863,0.17265606,-2.536207
0.78,0.17557776,-2.2921822,-1.1501318,0.30510893,0.031799197,-2.585929
0.782,0.30345887,-2.3632731,-0.70214987,0.20675178,-0.09089351,-2.6226761
0.784,0.43616968,-2.442634,-0.24366301,0.117026985,-0.19328198,-2.6461663
0.786,0.5690377,-2.5281286,0.22043121,0.03642302,-0.2742638,-2.6570442
0.788,0.69690573,-2.6176376,0.6882813,-0.035209678,-0.33371696,-2.6567373
0.79,0.8168852,-2.708651,1.1544627,-0.09853645,-0.3723338,-2.647127
0.792,0.92592424,-2.7986836,1.6144674,-0.15460172,-0.3914415,-2.6302903
0.794,1.0211914,-2.8860397,2.0663652,-0.20473042,-0.3929416,-2.6082966
0.796,1.1011442,-2.9693737,2.5058568,-0.25040102,-0.37911853,-2.583025
0.798,1.1648079,-3.0477803,2.9272065,-0.29304516,-0.35249493,-2.5561266
0.8,1.2114127,-3.1209793,3.3279521,-0.33393025,-0.31568453,-2.5289586
0.802,1.2403592,-3.1886559,3.706204,-0.37414497,-0.2713179,-2.5026097
0.804,1.2518249,-3.250257,4.0598493,-0.4145488,-0.22185367,-2.4779432
0.806,1.2476025,-3.3060992,4.38792,-0.45577988,-0.1694451,-2.455627
0.808,1.2297553,-3.3569093,4.6896176,-0.49825108,-0.11595833,-2.4361153
0.81,1.2011428,-3.4040015,4.963693,-0.5422414,-0.06294653,-2.41966
0.812,1.1650151,-3.4489632,5.208947,-0.5879028,-0.011650398,-2.4063468
0.814,1.1243997,-3.4937766,5.424474,-0.6353103,0.036932364,-2.396143
0.816,1.0818254,-3.5404134,5.6094217,-0.6845285,0.0820227,-2.3889122
0.818,1.0392565,-3.590069,5.762247,-0.73557067,0.12306887,-2.384427
0.82,0.99877334,-3.6435628,5.8812084,-0.78836495,0.15980332,-2.3824275
0.822,0.9624336,-3.7009377,5.9642797,-0.8426754,0.19230655,-2.3826637
0.824,0.9319937,-3.7621646,6.0094905,-0.8980576,0.22102213,-2.384902
0.826,0.90897703,-3.8271902,6.0153356,-0.95388526,0.24679667,-2.3889363
0.828,0.8945962,-3.8961883,5.981356,-1.0093384,0.2708796,-2.3945594
0.83,0.8896495,-3.9692616,5.9080043,-1.0634422,0.29483604,-2.40159
0.832,0.89467275,-4.04722,5.7961574,-1.115127,0.32043585,-2.409852
0.834,0.9096199,-4.1312084,5.6465983,-1.1632459,0.34949934,-2.4191844
0.836,0.93477046,-4.2221437,5.460032,-1.206643,0.38374105,-2.4294963
0.838,0.9701663,-4.320366,5.2367115,-1.2442677,0.42456424,-2.4406936
0.84,1.0160589,-4.4257526,4.9770985,-1.275272,0.47289598,-2.4526281
0.842,1.0724967,-4.5379376,4.682926,-1.2990934,0.5290636,-2.465059
0.844,1.139152,-4.6562705,4.3563633,-1.3154993,0.5926993,-2.4777155
0.846,1.2158574,-4.7795453,4.00005,-1.3246186,0.6627608,-2.490277
0.848,1.3024085,-4.9065676,3.617316,-1.3269508,0.73759454,-2.5023117
0.85,1.3983186,-5.0360355,3.2118812,-1.3233943,0.8150108,-2.5133197
0.852,1.5031291,-5.166912,2.7881434,-1.3151932,0.89239645,-2.5227787
0.854,1.6163703,-5.2980747,2.3511703,-1.3038797,0.96686286,-2.5302317
0.856,1.7371757,-5.4284253,1.9059727,-1.2911544,1.0354838,-2.535335
0.858,1.8647813,-5.5571465,1.4572059,-1.2787187,1.0954607,-2.5378988
0.86,1.9984916,-5.6833086,1.0093509,-1.268133,1.1443609,-2.5378425
0.862,2.1377306,-5.805823,0.5669855,-1.2606596,1.1803606,-2.5351686
0.864,2.2821002,-5.9240837,0.13446869,-1.2571572,1.2024256,-2.5298984
0.866,2.4311433,-6.037405,-0.28436965,-1.2580651,1.2103262,-2.5220728
0.868,2.584296,-6.1450434,-0.68568146,-1.2633804,1.204603,-2.511781
0.87,2.740751,-6.246048,-1.0659313,-1.2726717,1.1864139,-2.4991615
0.872,2.9000616,-6.340288,-1.4218818,-1.2851654,1.1573792,-2.4843893
0.874,3.060925,-6.42723,-1.7499135,-1.2998369,1.1193811,-2.467687
0.876,3.2209444,-6.506303,-2.0474267,-1.3155487,1.0744292,-2.4493356
0.878,3.378869,-6.5777035,-2.313532,-1.3311033,1.0245427,-2.4297092
0.88,3.5338912,-6.6424165,-2.5483124,-1.3452853,0.97170615,-2.4092405
0.882,3.6841998,-6.7003922,-2.7535596,-1.356917,0.9178383,-2.3884084
0.884,3.8273492,-6.7512503,-2.9326944,-1.3648956,0.86475796,-2.3677182
0.886,3.960923,-6.795084,-3.0893257,-1.3682142,0.81420326,-2.3476841
0.888,4.0816665,-6.831811,-3.2268445,-1.3660232,0.76775086,-2.3288143
0.89,4.186245,-6.8604,-3.348566,-1.3576139,0.72678596,-2.3115711
0.892,4.2718515,-6.8798227,-3.4577858,-1.3424189,0.69243264,-2.2963889
0.894,4.335953,-6.8897276,-3.5576315,-1.3200555,0.66553926,-2.283624
0.896,4.3762164,-6.8903275,-3.6516654,-1.2903662,0.64668334,-2.2735615
0.898,4.390331,-6.8817244,-3.7433398,-1.2534484,0.63613427,-2.2663248
0.9,4.375919,-6.8638487,-3.8362043,-1.2096629,0.633843,-2.26181
0.902,4.331229,-6.8365154,-3.9334476,-1.1596067,0.6394851,-2.2596948
0.904,4.2551985,-6.7999926,-4.0379343,-1.1041591,0.65246886,-2.2594285
0.906,4.147118,-6.754658,-4.1521745,-1.0444624,0.6720809,-2.2602592
0.908,4.00686,-6.700979,-4.2776155,-0.9818722,0.69751483,-2.261255
0.91,3.834574,-6.639042,-4.415301,-0.91796553,0.72768843,-2.261442
0.912,3.6314647,-6.568961,-4.565735,-0.85446775,0.76138186,-2.2599351
0.914,3.3994124,-6.491326,-4.7287774,-0.79310423,0.79734385,-2.2561293
0.916,3.1404874,-6.4070873,-4.9039164,-0.7355491,0.8342509,-2.2497845
0.918,2.857124,-6.3168545,-5.089942,-0.68331295,0.87088907,-2.2409797
0.92,2.5520508,-6.221225,-5.2852845,-0.63759637,0.9063151,-2.230137
0.922,2.2288134,-6.120898,-5.487797,-0.59918416,0.93990743,-2.2180085
0.924,1.8916969,-6.016661,-5.695233,-0.56844085,0.9713926,-2.205498
0.926,1.5451876,-5.909378,-5.9049425,-0.5453501,1.0007596,-2.1934829
0.928,1.1941274,-5.800132,-6.1142488,-0.52962047,1.0281229,-2.1826704
0.93,0.8430197,-5.690083,-6.3198605,-0.52068526,1.0535989,-2.1735384
0.932,0.4965855,-5.580658,-6.518038,-0.5178197,1.0772276,-2.166312
0.934,0.15943694,-5.4728403,-6.705053,-0.5202156,1.0988504,-2.1609962
0.936,-0.16409826,-5.3678026,-6.877291,-0.5270616,1.1180817,-2.157467
0.938,-0.46997696,-5.2663145,-7.032025,-0.537487,1.1343522,-2.155615
0.94,-0.754293,-5.169191,-7.167148,-0.55056685,1.1469613,-2.1554818
0.942,-1.0131471,-5.077592,-7.280576,-0.5652847,1.1552172,-2.1573796
0.944,-1.2431028,-4.992583,-7.37039,-0.58058137,1.158501,-2.1618679
0.946,-1.441666,-4.9153585,-7.4344125,-0.5953483,1.1563568,-2.1696916
0.948,-1.6065829,-4.8469696,-7.470109,-0.60849154,1.1485212,-2.1816602
0.95,-1.7366405,-4.7882323,-7.4754333,-0.618968,1.1349516,-2.198511
0.952,-1.8311746,-4.740137,-7.4487605,-0.62589437,1.1157919,-2.220823
0.954,-1.889703,-4.7033443,-7.389029,-0.6286359,1.0913109,-2.2489152
0.956,-1.9125009,-4.6784544,-7.295596,-0.62686557,1.0618469,-2.2827232
0.958,-1.9004202,-4.665877,-7.168283,-0.62055373,1.0278275,-2.3217733
0.96,-1.8542712,-4.665941,-7.0072994,-0.610019,0.9896436,-2.365337
0.962,-1.7750833,-4.679095,-6.813279,-0.59584063,0.94776225,-2.4125004
0.964,-1.6644102,-4.7060857,-6.586964,-0.5787189,0.9028594,-2.4622014
0.966,-1.5240879,-4.747483,-6.329385,-0.55944324,0.855688,-2.5133212
0.968,-1.3566766,-4.8033237,-6.0416064,-0.5388349,0.8071003,-2.5647
0.97,-1.1650321,-4.873226,-5.725188,-0.51762295,0.75814,-2.615203
0.972,-0.9523499,-4.9567237,-5.38256,-0.4964039,0.7100002,-2.6637847
0.974,-0.72220635,-5.05314,-5.0169487,-0.47565886,0.66397965,-2.7094216
0.976,-0.47864822,-5.1614084,-4.632079,-0.4557869,0.62145376,-2.7511275
0.978,-0.22583878,-5.279917,-4.2327604,-0.4370442,0.5838184,-2.788054
0.98,0.032353833,-5.406798,-3.8241448,-0.41955578,0.5524034,-2.8195446
0.982,0.29161614,-5.540021,-3.411665,-0.40333927,0.528346,-2.8450856
0.984,0.5482823,-5.6779914,-3.001297,-0.3884253,0.51251876,-2.864254
0.986,0.798952,-5.8192005,-2.5983143,-0.3748862,0.5054434,-2.8767107
0.988,1.0388097,-5.9611573,-2.2074425,-0.36284912,0.5072112,-2.8822587
0.99,1.2632904,-6.101065,-1.8336753,-0.35248995,0.51749426,-2.880839
0.992,1.4690838,-6.2371926,-1.4818642,-0.3440866,0.53553903,-2.8725173
0.994,1.6534991,-6.3684235,-1.1566896,-0.3380133,0.5601606,-2.85746
0.996,1.8140012,-6.4932632,-0.8628405,-0.33470547,0.58984673,-2.8358912
0.998,1.9488395,-6.610942,-0.60455984,-0.33457068,0.6228992,-2.8081195
1,2.0562642,-6.7211013,-0.38580602,-0.33801714,0.6574912,-2.774544
1.002,2.134352,-6.82298,-0.21061939,-0.34536988,0.6917485,-2.735661
1.004,2.181194,-6.9155545,-0.08190179,-0.35685623,0.7238579,-2.6920047
1.006,2.1957786,-6.9977775,-0.0009845495,-0.37258255,0.75220406,-2.6441722
1.008,2.1779196,-7.06926,0.031737983,-0.39248666,0.7754221,-2.592824
1.01,2.1282687,-7.1301513,0.016496062,-0.4163418,0.7924491,-2.5387418
1.012,2.0475333,-7.1807065,-0.04565668,-0.44374195,0.8025439,-2.4827688
1.014,1.9372108,-7.221278,-0.15262604,-0.47411907,0.8053388,-2.4257333
1.016,1.7992703,-7.25261,-0.30110824,-0.5068151,0.80079305,-2.3684561
1.018,1.6365745,-7.276102,-0.48769498,-0.5411286,0.7891998,-2.311701
1.02,1.4514586,-7.2932773,-0.70752656,-0.5763422,0.7711189,-2.2561095
1.022,1.2465386,-7.3056364,-0.9569979,-0.6117475,0.7472996,-2.2022216
1.024,1.0257932,-7.314627,-1.2333281,-0.6466635,0.71860737,-2.150496
1.026,0.7928146,-7.3214107,-1.5313385,-0.6804481,0.68594426,-2.1013474
1.028,0.55193794,-7.327763,-1.8447746,-0.71248484,0.6502418,-2.055148
1.03,0.30784357,-7.3356476,-2.167303,-0.74220216,0.61247027,-2.0122268
1.032,0.06448406,-7.346348,-2.4937944,-0.76904964,0.5735993,-1.9729515
1.034,-0.17381138,-7.361066,-2.8209438,-0.79247236,0.5346401,-1.9377056
1.036,-0.40267736,-7.38124,-3.1461592,-0.8118846,0.49671596,-1.9068761
1.038,-0.61792296,-7.408374,-3.465321,-0.82664615,0.46102244,-1.8807933
1.04,-0.81541634,-7.4437804,-3.7741652,-0.83608735,0.42880505,-1.8596464
1.042,-0.9915688,-7.488116,-4.069206,-0.8395916,0.40133914,-1.8434067
1.044,-1.1433868,-7.542181,-4.3475327,-0.8366142,0.37982243,-1.8318421
1.046,-1.2685858,-7.606237,-4.6074953,-0.8267336,0.36530495,-1.8245118
1.048,-1.3650627,-7.6803436,-4.8484936,-0.80967057,0.35859045,-1.8208486
1.05,-1.4311754,-7.7644315,-5.070099,-0.7853531,0.3600958,-1.820208
1.052,-1.4665751,-7.8576903,-5.2726545,-0.754012,0.36978537,-1.8218204
1.054,-1.4718345,-7.958851,-5.455886,-0.71613634,0.38716906,-1.8248464
1.056,-1.4480425,-8.066528,-5.619714,-0.67241746,0.41125882,-1.828566
1.058,-1.3975194,-8.178926,-5.7649193,-0.62371355,0.44070905,-1.8323203
1.06,-1.3227317,-8.294195,-5.8930373,-0.571037,0.47390282,-1.8354733
1.062,-1.2269659,-8.409631,-6.0056686,-0.51551294,0.5090368,-1.8374845
1.064,-1.1145521,-8.522692,-6.1042776,-0.45829654,0.54420984,-1.8378932
1.066,-0.9902494,-8.630856,-6.1900244,-0.400488,0.5774447,-1.8364046
1.068,-0.8592671,-8.731573,-6.264178,-0.34308138,0.6068057,-1.8328854
1.07,-0.72743976,-8.822211,-6.3283625,-0.2869278,0.6305649,-1.8273436
1.072,-0.6005604,-8.900254,-6.383923,-0.23274618,0.6472844,-1.81992
1.074,-0.48334062,-8.962008,-6.432701,-0.18111901,0.6558552,-1.8108675
1.076,-0.380314,-9.007081,-6.473968,-0.13247271,0.6555409,-1.8005047
1.078,-0.30158138,-9.035037,-6.5110507,-0.08711083,0.64599586,-1.7891935
1.08,-0.24769592,-9.046952,-6.5448265,-0.04521785,0.6271646,-1.7773229
1.082,-0.22104394,-9.039215,-6.5748386,-0.006882407,0.5992662,-1.7652794
1.084,-0.22693634,-9.011365,-6.604629,0.027925752,0.56271243,-1.7534003
1.086,-0.2688465,-8.9648075,-6.6334567,0.05930708,0.5181044,-1.7419459
1.088,-0.34812164,-8.902299,-6.6602755,0.08744532,0.46614683,-1.7311646
1.09,-0.46526623,-8.826224,-6.6858525,0.112568974,0.4075515,-1.7212709
1.092,-0.620378,-8.738607,-6.7109747,0.13498722,0.34303942,-1.7124666
1.094,-0.8132106,-8.641589,-6.7370796,0.15507293,0.27332,-1.7049456
1.096,-1.0414758,-8.53785,-6.7658753,0.17324603,0.1990866,-1.6988851
1.098,-1.3024241,-8.430177,-6.798072,0.18991128,0.1210423,-1.6944172
1.1,-1.5925848,-8.321824,-6.8335915,0.20547226,0.039871335,-1.6916494
1.102,-1.9080139,-8.216142,-6.872199,0.22030315,-0.043738067,-1.6906325
1.104,-2.2439322,-8.116103,-6.913615,0.23468792,-0.12912628,-1.691367
1.106,-2.5950706,-8.02464,-6.9580398,0.24888341,-0.21562874,-1.6939286
1.108,-2.9556105,-7.944344,-7.0061135,0.26333904,-0.30244476,-1.698581
1.11,-3.3191319,-7.877877,-7.05753,0.2783407,-0.38887066,-1.7049079
1.112,-3.6791306,-7.827541,-7.111573,0.29411602,-0.47404337,-1.7123735
1.114,-4.0292416,-7.7947693,-7.1675496,0.31096494,-0.55724037,-1.720835
1.116,-4.3633356,-7.780799,-7.225001,0.32918125,-0.6378965,-1.730277
1.118,-4.675672,-7.786108,-7.2837086,0.34916663,-0.71520144,-1.7405523
1.12,-4.960617,-7.8108125,-7.3432055,0.37133604,-0.7882223,-1.7513425
1.122,-5.2131395,-7.8545995,-7.4023166,0.39609993,-0.8561838,-1.7623438
1.124,-5.428934,-7.9167037,-7.4595184,0.42386144,-0.91852427,-1.7733072
1.126,-5.604135,-7.995801,-7.5136895,0.4549916,-0.9749048,-1.7840757
1.128,-5.7359047,-8.089937,-7.563557,0.4897459,-1.0252181,-1.7946141
1.13,-5.8213515,-8.197136,-7.608319,0.5281879,-1.0696467,-1.8049918
1.132,-5.85851,-8.315298,-7.6461,0.5701936,-1.1086526,-1.8153706
1.134,-5.8469176,-8.442024,-7.6749735,0.6154354,-1.142918,-1.8259871
1.136,-5.786562,-8.574433,-7.695694,0.66340446,-1.1733618,-1.8371964
1.138,-5.679182,-8.709266,-7.7091484,0.713481,-1.20105,-1.8493958
1.14,-5.5267153,-8.843464,-7.7142735,0.76498765,-1.2271763,-1.8629954
1.142,-5.3314447,-8.974978,-7.7090755,0.81723344,-1.2529055,-1.8783011
1.144,-5.0968165,-9.101345,-7.6911097,0.8695721,-1.2792685,-1.8954957
1.146,-4.8267508,-9.220129,-7.658976,0.92138624,-1.3071398,-1.9145826
1.148,-4.525625,-9.329111,-7.6134458,0.97213167,-1.3371646,-1.9354124
1.15,-4.198368,-9.426311,-7.5557623,1.0213947,-1.3697598,-1.9576983
1.152,-3.8505664,-9.510036,-7.4864097,1.0688889,-1.4051108,-1.9810301
1.154,-3.4875832,-9.578712,-7.405768,1.1144083,-1.4431314,-2.0048742
1.156,-3.1148489,-9.6312065,-7.3135023,1.1577992,-1.4835334,-2.028639
1.158,-2.738455,-9.666681,-7.2091894,1.1989646,-1.5258641,-2.0517547
1.16,-2.3644197,-9.68449,-7.0932784,1.2378143,-1.5696018,-2.073648
1.162,-1.9978213,-9.684541,-6.966179,1.2740898,-1.6142766,-2.0936708
1.164,-1.6434216,-9.667219,-6.827468,1.3076918,-1.6593064,-2.1117172
1.166,-1.3060465,-9.632839,-6.676833,1.338522,-1.7043719,-2.1275907
1.168,-0.9896643,-9.581707,-6.5141354,1.3663843,-1.7491336,-2.1407874
1.17,-0.6984761,-9.514114,-6.3383813,1.3910774,-1.7933131,-2.1509213
1.172,-0.43560314,-9.430794,-6.149091,1.4122703,-1.8370068,-2.157947
1.174,-0.20379734,-9.332499,-5.945971,1.4296191,-1.8804531,-2.161992
1.176,-0.0046253204,-9.219978,-5.729064,1.4427769,-1.923878,-2.163208
1.178,0.16159964,-9.0939245,-5.497751,1.4513872,-1.9676392,-2.1617782
1.18,0.295264,-8.955445,-5.250884,1.455087,-2.0122035,-2.157929
1.182,0.3974576,-8.805702,-4.9872565,1.4534945,-2.0581505,-2.1518946
1.184,0.46931577,-8.646655,-4.7046504,1.4461961,-2.1061153,-2.1439843
1.186,0.5130837,-8.477702,-4.4029665,1.4327308,-2.156772,-2.1345513
1.188,0.5362618,-8.2992735,-4.0780206,1.4126246,-2.2107358,-2.1239274
1.19,0.5377314,-8.111365,-3.7288418,1.3853847,-2.268485,-2.1123269
1.192,0.52093816,-7.918326,-3.355107,1.3505061,-2.33039,-2.099835
1.194,0.49319267,-7.720544,-2.9526625,1.3075212,-2.3966448,-2.0863965
1.196,0.45980978,-7.5171227,-2.522085,1.256037,-2.4671743,-2.0718212
1.198,0.4249282,-7.306836,-2.0635505,1.195746,-2.5417106,-2.055819
1.2,0.39292884,-7.0893393,-1.5752983,1.1265256,-2.6197639,-2.0380738
1.202,0.36878896,-6.864837,-1.0563486,1.0484221,-2.7005675,-2.018234
1.204,0.3577001,-6.633194,-0.5055503,0.9616091,-2.7831583,-1.995945
1.206,0.36334872,-6.393998,0.07822007,0.86641216,-2.866463,-1.9709113
1.208,0.3888985,-6.146405,0.6943595,0.7633581,-2.949245,-1.943004
1.21,0.43700862,-5.8891215,1.3412063,0.6531551,-3.0300539,-1.9122094
1.212,0.5098517,-5.6206617,2.0168517,0.53663564,-3.107263,-1.8786279
1.214,0.60838675,-5.3394313,2.7195547,0.41472727,-3.1791415,-1.842446
1.216,0.73255265,-5.043612,3.4472067,0.288365,-3.2438853,-1.8039204
1.218,0.88125503,-4.7315726,4.1973915,0.15843117,-3.299727,-1.7633609
1.22,1.0526626,-4.4017334,4.9663515,0.025690675,-3.3450284,-1.7211007
1.222,1.2449389,-4.0495787,5.7518635,-0.109259844,-3.3783603,-1.6774683
1.224,1.4543159,-3.6778288,6.547625,-0.24603987,-3.39856,-1.6328415
1.226,1.6784532,-3.2826679,7.3490267,-0.38442874,-3.40479,-1.5876133
1.228,1.9120362,-2.8625903,8.152738,-0.5243616,-3.396431,-1.5422152
1.23,2.1516058,-2.4166274,8.952987,-0.6658591,-3.3730445,-1.4971204
1.232,2.3926115,-1.943586,9.744182,-0.80895567,-3.3342583,-1.4528649
1.234,2.6305652,-1.442783,10.521157,-0.9536681,-3.2797492,-1.4100642
1.236,2.8612244,-0.91401094,11.278755,-1.0999329,-3.2091665,-1.3693904
1.238,3.0806262,-0.35699004,12.01179,-1.2476465,-3.122132,-1.3315048
1.24,3.2853374,0.22808367,12.714766,-1.3966917,-3.018286,-1.2969844
1.242,3.4724464,0.84090185,13.3830385,-1.5469857,-2.89741,-1.2663305
1.244,3.639591,1.480788,14.012414,-1.6984901,-2.75946,-1.2399063
1.246,3.7855802,2.1462412,14.599338,-1.8512502,-2.6045716,-1.2179236
1.248,3.909934,2.835494,15.140108,-2.0054255,-2.433216,-1.200345
1.25,4.0123005,3.5468016,15.630906,-2.1612883,-2.2463384,-1.186981
1.252,4.0928698,4.2787023,16.069206,-2.3191137,-2.044923,-1.1777301
1.254,4.152915,5.029131,16.453758,-2.4792182,-1.8302257,-1.1718403
1.256,4.1940975,5.7959576,16.784016,-2.6419811,-1.6040645,-1.1685414
1.258,4.2182884,6.5769806,17.05994,-2.80764,-1.3681924,-1.16729
1.26,4.227844,7.369766,17.2819,-2.976347,-1.1243606,-1.1674591
1.262,4.225848,8.171656,17.450363,-3.1482582,-0.87453663,-1.1684905
1.264,4.2150397,8.9801855,17.566772,-3.323494,-0.620825,-1.1698833
1.266,4.1985054,9.793032,17.633413,-3.502124,-0.36534774,-1.1711475
1.268,4.179569,10.607978,17.653017,-3.6842387,-0.1102885,-1.1718991
1.27,4.1614323,11.422742,17.62857,-3.8699238,0.1420697,-1.1718353
1.272,4.146608,12.235072,17.56351,-4.059264,0.38943768,-1.1706831
1.274,4.1375427,13.04286,17.460447,-4.2523475,0.629629,-1.168222
1.276,4.1364036,13.844193,17.323017,-4.4492054,0.8605944,-1.1643417
1.278,4.145101,14.637252,17.155876,-4.649832,1.0804532,-1.1590441
1.28,4.1656904,15.420409,16.963509,-4.854166,1.2876043,-1.152493
1.282,4.199129,16.192186,16.75073,-5.0620904,1.4807873,-1.1450317
1.284,4.2467318,16.95132,16.522226,-5.2734194,1.659102,-1.1371325
1.286,4.3087425,17.696695,16.282545,-5.487915,1.8220097,-1.1294004
1.288,4.3848686,18.42731,16.035378,-5.7052226,1.9693573,-1.1225508
1.29,4.474675,19.142532,15.784256,-5.924859,2.1013846,-1.1173183
1.292,4.577385,19.842068,15.532029,-6.1462193,2.2186742,-1.1144036
1.294,4.6919394,20.525679,15.280637,-6.36858,2.322164,-1.1144493
1.296,4.8168335,21.19353,15.032134,-6.591069,2.413165,-1.1179433
1.298,4.950842,21.845575,14.788214,-6.8126793,2.4932923,-1.1252376
1.3,5.0920258,22.481892,14.550199,-7.032309,2.564355,-1.1365191
1.302,5.2379208,23.102772,14.318947,-7.2487607,2.628262,-1.1518865
1.304,5.385825,23.708483,14.094473,-7.460805,2.686973,-1.1712971
1.306,5.5330296,24.299198,13.876469,-7.6672935,2.7421365,-1.1944687
1.308,5.676709,24.87502,13.663834,-7.86714,2.795251,-1.2215447
1.31,5.8135166,25.436165,13.454846,-8.059359,2.847706,-1.2524402
1.312,5.9404106,25.982735,13.246833,-8.24321,2.900179,-1.2868545
1.314,6.0543737,26.514664,13.036879,-8.418109,2.9529285,-1.3246655
1.316,6.152527,27.03182,12.821833,-8.5836,3.0059676,-1.3656964
1.318,6.232462,27.533798,12.598736,-8.739401,3.0590334,-1.4098208
1.32,6.2918854,28.019684,12.364805,-8.885346,3.1116107,-1.4569099
1.322,6.328746,28.488718,12.116983,-9.02138,3.163156,-1.5067241
1.324,6.3413334,28.93988,11.851928,-9.147539,3.2131603,-1.5589345
1.326,6.3285418,29.372028,11.566899,-9.263919,3.2611713,-1.6131644
1.328,6.289542,29.783997,11.259656,-9.370678,3.3068604,-1.6689754
1.33,6.2236156,30.174511,10.9286375,-9.46806,3.3500652,-1.7259381
1.332,6.129861,30.539917,10.570887,-9.55636,3.3907723,-1.7836213
1.334,6.009535,30.882965,10.187679,-9.635912,3.4291046,-1.841651
1.336,5.8624306,31.199211,9.77849,-9.707075,3.465272,-1.8996985
1.338,5.6910973,31.486916,9.342163,-9.770279,3.4995308,-1.9575262
1.34,5.4963818,31.744806,8.88066,-9.826016,3.532184,-2.015
1.342,5.2808695,31.97111,8.395531,-9.874835,3.5635324,-2.0720077
1.344,5.0471144,32.1645,7.888815,-9.917374,3.5938015,-2.1285226
1.346,4.7975636,32.323997,7.363234,-9.954252,3.6231244,-2.1845846
1.348,4.535034,32.448734,6.8218503,-9.986084,3.6515753,-2.2402759
1.35,4.2621193,32.53839,6.2682676,-10.013521,3.6790771,-2.2957146
1.352,3.9815779,32.592808,5.7060776,-10.037194,3.7054176,-2.3510733
1.354,3.6960459,32.61231,5.138946,-10.0576935,3.7303014,-2.4065566
1.356,3.4083548,32.597668,4.5706253,-10.075571,3.7533782,-2.4624138
1.358,3.1215763,32.54985,4.004811,-10.091318,3.774201,-2.518909
1.36,2.8382463,32.470467,3.445044,-10.105387,3.7922819,-2.5762935
1.362,2.561098,32.360996,2.894678,-10.118164,3.8071048,-2.6347866
1.364,2.2920609,32.223183,2.3569412,-10.129961,3.8181505,-2.6945233
1.366,2.0326223,32.05896,1.8350334,-10.141034,3.8249316,-2.7556257
1.368,1.7840385,31.870592,1.3317447,-10.151537,3.826941,-2.8182244
1.37,1.5472646,31.661104,0.84869003,-10.161509,3.8237247,-2.8824863
1.372,1.3231554,31.433138,0.38720655,-10.170893,3.814928,-2.9486184
1.374,1.1116958,31.189297,-0.051769733,-10.1795025,3.8003309,-3.0169048
1.376,0.91286707,30.9324,-0.4681692,-10.187031,3.7799182,-3.0876474
1.378,0.7261386,30.665514,-0.86175203,-10.193068,3.7539272,-3.1611319
1.38,0.5509162,30.391504,-1.2325664,-10.197112,3.7228837,-3.2376008
1.382,0.38639116,30.113289,-1.5816708,-10.19859,3.6875966,-3.3172097
1.384,0.23160553,29.833458,-1.9108324,-10.196865,3.649213,-3.399997
1.386,0.08501315,29.554533,-2.2220066,-10.191254,3.6091995,-3.4859042
1.388,-0.054900885,29.278847,-2.5178761,-10.181078,3.569326,-3.574756
1.39,-0.1901977,29.008408,-2.8008122,-10.165609,3.5316014,-3.6663077
1.392,-0.3224671,28.745123,-3.0733018,-10.1440735,3.4982393,-3.7602692
1.394,-0.4537108,28.490719,-3.3383255,-10.115749,3.471498,-3.856271
1.396,-0.585755,28.246609,-3.5988345,-10.079971,3.4536562,-3.9539006
1.398,-0.72045445,28.014074,-3.8575191,-10.036175,3.4469652,-4.052655
1.4,-0.8593857,27.793753,-4.116946,-9.983883,3.4535255,-4.151905
1.402,-1.003843,27.586344,-4.37961,-9.922808,3.4750688,-4.2510242
1.404,-1.1552458,27.392124,-4.648006,-9.852762,3.5130782,-4.34931
1.406,-1.3136265,27.210823,-4.9236817,-9.773613,3.5687487,-4.445977
1.408,-1.480695,27.042439,-5.208267,-9.685306,3.6428735,-4.540268
1.41,-1.6556902,26.88543,-5.5035644,-9.587796,3.7358756,-4.6314316
1.412,-1.8368169,26.73919,-5.810514,-9.481039,3.8478086,-4.7188196
1.414,-2.0233393,26.602787,-6.127242,-9.364958,3.9782934,-4.801879
1.416,-2.2130678,26.474407,-6.4519744,-9.239489,4.126632,-4.8801937
1.418,-2.403389,26.351969,-6.7843223,-9.104572,4.291787,-4.9534893
1.42,-2.5910249,26.233387,-7.125024,-8.960225,4.472405,-5.0216537
1.422,-2.7728934,26.116741,-7.473401,-8.806555,4.6669207,-5.084638
1.424,-2.9455063,25.999596,-7.827658,-8.643774,4.87354,-5.142484
1.426,-3.105256,25.879433,-8.185798,-8.47219,5.090229,-5.195323
1.428,-3.2488923,25.753447,-8.546186,-8.292204,5.314811,-5.243339
1.43,-3.372366,25.618792,-8.907269,-8.104259,5.5449514,-5.2868414
1.432,-3.472165,25.472446,-9.267121,-7.9088206,5.778245,-5.3261843
1.434,-3.5453653,25.31181,-9.622905,-7.7063684,6.012171,-5.3617516
1.436,-3.589507,25.134098,-9.972181,-7.497366,6.2440863,-5.394009
1.438,-3.6021981,24.936674,-10.3136425,-7.282281,6.4713497,-5.4234705
1.44,-3.5815692,24.717243,-10.646534,-7.0616293,6.69123,-5.45054
1.442,-3.5261235,24.473661,-10.969864,-6.835928,6.9009876,-5.4756985
1.444,-3.435731,24.203985,-11.282568,-6.6057363,7.0979433,-5.49949
1.446,-3.3108463,23.906689,-11.583257,-6.3717003,7.279528,-5.5222564
1.448,-3.1530142,23.580675,-11.871246,-6.134532,7.4433446,-5.544212
1.45,-2.9643917,23.22536,-12.146406,-5.8949413,7.5870814,-5.565594
1.452,-2.7476625,22.84064,-12.408975,-5.653716,7.70862,-5.5866613
1.454,-2.5057545,22.426971,-12.6597395,-5.4117007,7.806232,-5.6076307
1.456,-2.2418194,21.985086,-12.899113,-5.169693,7.878719,-5.6285667
1.458,-1.9594955,21.516062,-13.127417,-4.9284554,7.9253035,-5.6495414
1.46,-1.6627169,21.021732,-13.345355,-4.688709,7.945654,-5.670642
1.462,-1.35571,20.504559,-13.554026,-4.4510794,7.9398823,-5.6919184
1.464,-1.0426474,19.967148,-13.755007,-4.2161016,7.9084435,-5.7134285
1.466,-0.72774696,19.41285,-13.95001,-3.9842732,7.8520517,-5.7352
1.468,-0.41536617,18.845581,-14.140538,-3.7560205,7.771586,-5.75723
1.47,-0.10933304,18.268805,-14.328235,-3.5317473,7.6679287,-5.7795124
1.472,0.18647194,17.686691,-14.515083,-3.3118272,7.541964,-5.80207
1.474,0.4692135,17.103271,-14.7031,-3.0966282,7.394634,-5.8248553
1.476,0.7365694,16.523026,-14.893349,-2.8865154,7.226934,-5.847782
1.478,0.98650265,15.950142,-15.086189,-2.6818175,7.0400734,-5.8706646
1.48,1.2171698,15.387732,-15.281502,-2.4828138,6.835494,-5.8932114
1.482,1.4273024,14.839546,-15.479902,-2.2897246,6.6149173,-5.915021
1.484,1.616601,14.309206,-15.682312,-2.102666,6.380314,-5.9356403
1.486,1.7848616,13.799612,-15.888876,-1.921638,6.133822,-5.954594
1.488,1.9326444,13.313154,-16.099056,-1.7465086,5.8777556,-5.9714375
1.49,2.0602741,12.852127,-16.311718,-1.5770649,5.6144266,-5.985782
1.492,2.1689897,12.418025,-16.525976,-1.4130051,5.3460183,-5.997327
1.494,2.2599654,12.012245,-16.740917,-1.2539623,5.074586,-6.0059633
1.496,2.3353605,11.635571,-16.954565,-1.0996001,4.8019485,-6.0115857
1.498,2.3967028,11.288094,-17.164648,-0.9496354,4.529676,-6.014097
1.5,2.4462333,10.969498,-17.369753,-0.80377567,4.259166,-6.013578
1.502,2.4863472,10.679201,-17.56895,-0.6617869,3.9916892,-6.0100617
1.504,2.5193474,10.416212,-17.760706,-0.5235015,3.728384,-6.0034213
1.506,2.547927,10.179222,-17.943335,-0.3887732,3.4702706,-5.9934425
1.508,2.574247,9.966499,-18.115053,-0.25746524,3.2181487,-5.979919
1.51,2.6002936,9.776408,-18.274282,-0.12948322,2.9725819,-5.962613
1.512,2.627695,9.606717,-18.419502,-0.004736662,2.7338958,-5.9412613
1.514,2.658484,9.45543,-18.549646,0.11685479,2.5021482,-5.9156837
1.516,2.6937284,9.320603,-18.664589,0.23540139,2.277155,-5.8857584
1.518,2.7357259,9.200074,-18.763939,0.35098863,2.0584717,-5.8514533
1.52,2.7847452,9.092846,-18.847218,0.46369296,1.8454235,-5.8128066
1.522,2.840651,8.996659,-18.915068,0.5735463,1.6371741,-5.7699203
1.524,2.904636,8.90983,-18.970175,0.6805301,1.432719,-5.7229548
1.526,2.9767833,8.831451,-19.014196,0.7845902,1.2309451,-5.6721506
1.528,3.0571513,8.760512,-19.04724,0.8856595,1.0307107,-5.617843
1.53,3.1458488,8.695862,-19.069149,0.9836321,0.8309196,-5.560467
1.532,3.2427573,8.63656,-19.081196,1.0784,0.6305378,-5.5005307
1.534,3.347587,8.582373,-19.086376,1.169888,0.42866904,-5.43861
1.536,3.4601731,8.53319,-19.087559,1.2580566,0.22457832,-5.37533
1.538,3.5800471,8.489261,-19.08702,1.3428956,0.017716825,-5.3113003
1.54,3.7059288,8.451154,-19.086777,1.424388,-0.19229758,-5.247082
1.542,3.8370948,8.419214,-19.088886,1.5025164,-0.40570554,-5.1831374
1.544,3.9728274,8.393843,-19.095812,1.5772471,-0.6226388,-5.119772
1.546,4.1124096,8.375856,-19.109406,1.6485054,-0.84315026,-5.057205
1.548,4.2544684,8.366011,-19.130459,1.7161998,-1.067256,-4.9955354
1.55,4.3977065,8.365224,-19.159449,1.780238,-1.2949057,-4.9347467
1.552,4.5405293,8.374506,-19.197018,1.8405421,-1.5259873,-4.874791
1.554,4.682106,8.394874,-19.24374,1.8970727,-1.7603604,-4.8156123
1.556,4.8211665,8.427431,-19.299612,1.9498729,-1.9977634,-4.7571898
1.558,4.957081,8.472983,-19.363441,1.9990411,-2.2378085,-4.699537
1.56,5.0888877,8.532051,-19.433887,2.044758,-2.480033,-4.6426635
1.562,5.215724,8.6050005,-19.509048,2.0872598,-2.7239466,-4.58663
1.564,5.3368387,8.6921425,-19.58655,2.1267965,-2.9689922,-4.531578
1.566,5.4517565,8.793514,-19.664297,2.1636062,-3.2145689,-4.4776473
1.568,5.5600057,8.909214,-19.739935,2.1978855,-3.4600902,-4.4249425
1.57,5.6615763,9.039032,-19.811142,2.2297585,-3.7050376,-4.3735633
1.572,5.7565956,9.18232,-19.875612,2.2593222,-3.948992,-4.3236475
1.574,5.8449373,9.338471,-19.930264,2.2865956,-4.1916018,-4.2753763
1.576,5.9269624,9.506454,-19.9725,2.3115745,-4.4325285,-4.2289796
1.578,6.0030756,9.685171,-20.000317,2.3342166,-4.6713934,-4.184661
1.58,6.073845,9.873686,-20.01192,2.3544984,-4.907754,-4.142636
1.582,6.140105,10.070481,-20.005013,2.3724167,-5.1411047,-4.1031933
1.584,6.201984,10.274142,-19.977736,2.3880363,-5.370772,-4.0666723
1.586,6.259538,10.482838,-19.929596,2.4014435,-5.5959353,-4.0333986
1.588,6.3130336,10.694786,-19.860971,2.4127598,-5.815629,-4.0036645
1.59,6.362677,10.908508,-19.771564,2.4221284,-6.0288315,-3.9777753
1.592,6.407986,11.122392,-19.660744,2.4297056,-6.2344933,-3.9560146
1.594,6.448583,11.33465,-19.528534,2.4356341,-6.4315777,-3.9386327
1.596,6.483682,11.543726,-19.375624,2.4400163,-6.6191278,-3.9258535
1.598,6.5121264,11.748033,-19.203289,2.4429467,-6.796258,-3.917872
1.6,6.5330124,11.945812,-19.012836,2.4444883,-6.9622006,-3.9148107
1.602,6.5448027,12.135607,-18.804823,2.4446578,-7.116336,-3.916761
1.604,6.5463576,12.315743,-18.579908,2.4434433,-7.258162,-3.9237905
1.606,6.536245,12.48486,-18.33977,2.4408367,-7.3872743,-3.9359016
1.608,6.513489,12.641859,-18.086086,2.4368327,-7.5033236,-3.9530592
1.61,6.477039,12.785704,-17.820065,2.4314258,-7.606007,-3.9752069
1.612,6.426058,12.915262,-17.542427,2.4246426,-7.6950297,-4.002249
1.614,6.3600445,13.029377,-17.25386,2.4165099,-7.7701006,-4.034021
1.616,6.2786674,13.127221,-16.955542,2.4070578,-7.830909,-4.07029
1.618,6.1825604,13.208228,-16.6491,2.3963208,-7.8771896,-4.110811
1.62,6.072743,13.271652,-16.33575,2.384315,-7.908757,-4.1552925
1.622,5.950535,13.317089,-16.016293,2.370995,-7.9254527,-4.203449
1.624,5.817345,13.343995,-15.691158,2.356298,-7.9271755,-4.2550235
1.626,5.67453,13.35208,-15.36084,2.340128,-7.913863,-4.30985
1.628,5.524067,13.341526,-15.025669,2.322403,-7.885495,-4.367864
1.63,5.3677616,13.312503,-14.686013,2.303022,-7.842024,-4.429073
1.632,5.207697,13.265513,-14.342103,2.2819037,-7.783382,-4.4936075
1.634,5.045698,13.201014,-13.994019,2.2589612,-7.709461,-4.5616264
1.636,4.883551,13.120008,-13.642305,2.2341366,-7.620039,-4.6333
1.638,4.7227774,13.023792,-13.287413,2.2073941,-7.5148525,-4.7087884
1.64,4.565129,12.913622,-12.9295025,2.178735,-7.393567,-4.788259
1.642,4.4122334,12.791029,-12.569109,2.1482053,-7.25583,-4.871846
1.644,4.2655625,12.65773,-12.206979,2.1158628,-7.1012864,-4.95965
1.646,4.126298,12.515725,-11.84439,2.081749,-6.9296303,-5.051743
1.648,3.995922,12.367243,-11.482353,2.0459192,-6.7406716,-5.148238
1.65,3.8753424,12.214248,-11.122183,2.0083914,-6.534356,-5.2492757
1.652,3.7653918,12.059292,-10.765339,1.9691448,-6.3107452,-5.355038
1.654,3.6669185,11.904512,-10.413607,1.9281187,-6.070037,-5.46569
1.656,3.5803115,11.752476,-10.068775,1.8852254,-5.8125525,-5.5813994
1.658,3.5064166,11.605804,-9.732343,1.8403431,-5.5387316,-5.7023396
1.66,3.4459305,11.466858,-9.406075,1.7933521,-5.2490864,-5.8286667
1.662,3.399805,11.33797,-9.091763,1.7441629,-4.944226,-5.9604797
1.664,3.3688622,11.22153,-8.790846,1.6927172,-4.624812,-6.0977817
1.666,3.3543317,11.119867,-8.505096,1.6390371,-4.291596,-6.2405233
1.668,3.357464,11.035639,-8.2360935,1.5832144,-3.945416,-6.3886495
1.67,3.3800242,10.971577,-7.9848714,1.5254351,-3.5871758,-6.5420704
1.672,3.4242916,10.930273,-7.7524624,1.4659446,-3.2177913,-6.7006135
1.674,3.4923456,10.914183,-7.5395784,1.405042,-2.8382185,-6.8640823
1.676,3.5869343,10.925726,-7.346465,1.3430802,-2.44944,-7.0322776
1.678,3.7110648,10.96729,-7.173189,1.2804217,-2.0523894,-7.2049766
1.68,3.8678937,11.041313,-7.0195518,1.2173957,-1.6479282,-7.3819084
1.682,4.0610747,11.150028,-6.885377,1.1543014,-1.2367841,-7.5627575
1.684,4.293932,11.2959795,-6.771195,1.0913941,-0.8195226,-7.747211
1.686,4.570092,11.48134,-6.6766624,1.0288811,-0.3965273,-7.9349146
1.688,4.8934693,11.70834,-6.6012874,0.9669356,0.0319829,-8.125475
1.69,5.2676854,11.978851,-6.544548,0.90568095,0.46596217,-8.318486
1.692,5.695982,12.295158,-6.506131,0.84524596,0.9055011,-8.513544
1.694,6.181784,12.659317,-6.4853477,0.78574395,1.3508291,-8.710222
1.696,6.7283087,13.073092,-6.481472,0.727339,1.8022985,-8.908103
1.698,7.3379393,13.53812,-6.4943013,0.6702621,2.2603052,-9.106799
1.7,8.012834,14.055836,-6.524057,0.6148511,2.7252922,-9.305967
1.702,8.75452,14.627348,-6.5713186,0.56152654,3.1977663,-9.505274
1.704,9.564064,15.253602,-6.6362343,0.51080775,3.6782558,-9.704436
1.706,10.442093,15.935495,-6.7190695,0.46333098,4.167313,-9.903191
1.708,11.388639,16.673323,-6.820322,0.41978383,4.6655097,-10.101278
1.71,12.402677,17.467144,-6.9406147,0.38086534,5.173422,-10.298433
1.712,13.481943,18.316826,-7.0807066,0.34728336,5.6916103,-10.494302
1.714,14.623321,19.221848,-7.24104,0.31970477,6.2205906,-10.68847
1.716,15.823221,20.18092,-7.42234,0.2987182,6.7608013,-10.880405
1.718,17.077082,21.192413,-7.624718,0.28487587,7.3126626,-11.069424
1.72,18.379875,22.253967,-7.848432,0.2786913,7.8765554,-11.254705
1.722,19.725344,23.362774,-8.093608,0.28065252,8.452764,-11.435217
1.724,21.107334,24.515457,-8.360257,0.29125166,9.04138,-11.609729
1.726,22.518913,25.708141,-8.648113,0.3109727,9.642273,-11.77693
1.728,23.953068,26.936077,-8.956366,0.34030962,10.255078,-11.935358
1.73,25.402771,28.194073,-9.283917,0.37975264,10.879193,-12.083481
1.732,26.860937,29.476067,-9.629145,0.42978144,11.513678,-12.219639
1.734,28.321362,30.775257,-9.990159,0.49083996,12.157353,-12.342159
1.736,29.777477,32.084633,-10.364657,0.563282,12.808741,-12.449318
1.738,31.223974,33.39611,-10.750808,0.6473441,13.46612,-12.539432
1.74,32.655563,34.701836,-11.145583,0.743134,14.127621,-12.61088
1.742,34.067913,35.993553,-11.545984,0.8506236,14.791197,-12.6621
1.744,35.457706,37.262577,-11.94864,0.9695916,15.45471,-12.691681
1.746,36.822453,38.500465,-12.349626,1.0995812,16.115839,-12.698336
1.748,38.160187,39.69884,-12.744974,1.2398405,16.772104,-12.681007
1.75,39.46957,40.84996,-13.131767,1.3892803,17.420826,-12.638888
1.752,40.75131,41.945625,-13.506832,1.5465035,18.059217,-12.571402
1.754,42.006218,42.97871,-13.866595,1.7098083,18.684399,-12.478189
1.756,43.236492,43.943516,-14.206465,1.8772149,19.293472,-12.359157
1.758,44.444775,44.833946,-14.522082,2.0465088,19.88356,-12.214519
1.76,45.632683,45.64636,-14.812391,2.2153,20.451914,-12.044703
1.762,46.804844,46.376156,-15.07773,2.381144,20.995981,-11.850441
1.764,47.966415,47.020164,-15.316364,2.5415578,21.513485,-11.632744
1.766,49.122616,47.576054,-15.525341,2.6941118,22.002342,-11.392879
1.768,50.278004,48.04246,-15.704185,2.836512,22.460674,-11.132254
1.77,51.438736,48.418354,-15.853289,2.9665847,22.88676,-10.852547
1.772,52.6109,48.703327,-15.972648,3.0822408,23.278927,-10.55566
1.774,53.800404,48.89773,-16.062767,3.1815586,23.635588,-10.2435875
1.776,55.013817,49.002483,-16.12491,3.2627819,23.955288,-9.918369
1.778,56.258106,49.01864,-16.161367,3.3242817,24.23677,-9.581942
1.78,57.540142,48.946922,-16.17456,3.364667,24.478954,-9.2360325
1.782,58.86643,48.788345,-16.166094,3.3826823,24.680964,-8.882155
1.784,60.243816,48.54396,-16.136988,3.3772347,24.842316,-8.521405
1.786,61.678677,48.215343,-16.089275,3.347366,24.963028,-8.154519
1.788,63.177254,47.80448,-16.025074,3.292298,25.04357,-7.782035
1.79,64.74475,47.31407,-15.946917,3.2116315,25.085152,-7.404237
1.792,66.38549,46.748528,-15.856813,3.1051009,25.089565,-7.0212603
1.794,68.10755,46.10977,-15.756027,2.9722636,25.05875,-6.6330156
1.796,69.91836,45.401253,-15.647596,2.8127494,24.995403,-6.2392654
1.798,71.82369,44.627464,-15.53347,2.6261935,24.903067,-5.8398294
1.8,73.83031,43.793716,-15.4165745,2.4122114,24.785814,-5.4346886
1.802,75.94353,42.90675,-15.299236,2.170261,24.648056,-5.0238647
1.804,78.16701,41.976425,-15.182442,1.8997073,24.494564,-4.6072845
1.806,80.50576,41.014587,-15.066471,1.5997586,24.330448,-4.184843
1.808,82.9639,40.03473,-14.952427,1.2695198,24.160965,-3.7564173
1.81,85.544205,39.057297,-14.847191,0.9079156,23.991219,-3.3217297
1.812,88.24553,38.106224,-14.752476,0.5137572,23.826052,-2.8803287
1.814,91.064316,37.199974,-14.656212,0.085810184,23.670134,-2.4314528
1.816,93.99774,36.358086,-14.549667,-0.3771124,23.527914,-1.9740014
1.818,97.041824,35.61223,-14.431149,-0.87606,23.403343,-1.5066524
1.82,100.19226,35.001312,-14.308441,-1.4118719,23.299706,-1.0278854
1.822,103.44017,34.56687,-14.183376,-1.9851074,23.219505,-0.5361171
1.824,106.77638,34.351784,-14.054459,-2.5959625,23.16437,-0.029455185
1.826,110.18617,34.399998,-13.922329,-3.2441444,23.135033,0.4941485
1.828,113.6581,34.74695,-13.786221,-3.929584,23.128689,1.0349562
1.83,117.17649,35.439846,-13.648037,-4.6501217,23.14691,1.5966785
1.832,120.72939,36.549232,-13.5167885,-5.4048815,23.18457,2.17994
1.834,124.29135,38.10092,-13.397045,-6.1926174,23.236097,2.7864065
1.836,127.834915,40.1242,-13.256578,-7.0120907,23.294176,3.418069
1.838,131.43073,42.635277,-13.091461,-7.861891,23.350182,4.0770936
1.84,135.0984,45.597046,-12.976229,-8.740499,23.393726,4.7652235
1.842,138.77391,49.098618,-12.934141,-9.647414,23.411396,5.483625
1.844,142.4208,53.197823,-12.982545,-10.583369,23.387695,6.2337885
1.846,146.04044,57.935184,-13.064667,-11.548107,23.3081,7.0176506
1.848,149.63568,63.333317,-13.156022,-12.540512,23.158365,7.8363433
1.85,153.21088,69.38623,-13.239237,-13.5597,22.921938,8.690224
1.852,156.75735,76.012,-13.278929,-14.605707,22.58092,9.5803795
1.854,160.29565,83.18912,-13.283367,-15.679213,22.116938,10.508543
1.856,163.84721,90.860504,-13.241985,-16.780575,21.511816,11.474816
1.858,167.44034,98.95273,-13.103191,-17.910515,20.747576,12.479955
1.86,171.11218,107.38637,-12.820326,-19.068666,19.807682,13.528057
1.862,174.90607,116.07332,-12.387714,-20.253458,18.677307,14.626192
1.864,178.86407,124.94276,-11.825527,-21.464445,17.340994,15.783924
1.866,182.95341,133.90799,-11.106327,-22.7008,15.7871,17.015476
1.868,187.22636,142.8238,-10.154701,-23.961569,14.008576,18.3501
1.87,191.6723,151.56705,-8.904884,-25.24202,12.013153,19.807495
1.872,196.28629,160.01071,-7.305687,-26.53481,9.82098,21.41227
1.874,201.09598,167.94888,-5.3475227,-27.843527,7.462835,23.1943
1.876,206.10718,175.22514,-2.9819927,-29.194832,4.964856,25.167404
1.878,211.28757,181.7098,-0.12961388,-30.60839,2.3399916,27.325619
1.88,216.60428,187.31232,3.2605724,-32.080315,-0.38043785,29.660744
1.882,221.99866,191.95677,7.2225685,-33.609013,-3.1381311,32.16087
1.884,227.37833,195.57718,11.78858,-35.200794,-5.872139,34.744606
1.886,232.6376,198.12415,16.974062,-36.87185,-8.557802,37.339176
1.888,237.66898,199.56389,22.781523,-38.627895,-11.177522,39.84712
1.89,242.34685,199.88728,29.20766,-40.45572,-13.723294,42.14367
1.892,246.51942,199.12915,36.19986,-42.321648,-16.207584,44.082645
1.894,250.04529,197.34514,43.674137,-44.168835,-18.660141,45.51023
1.896,252.79657,194.5967,51.539013,-45.912605,-21.123484,46.283463
1.898,254.64752,190.95905,59.69442,-47.437515,-23.645283,46.281704
1.9,255.48004,186.52684,68.02348,-48.6035,-26.252893,45.423
1.902,255.2077,181.41199,76.375854,-49.2591,-28.933037,43.67778
1.904,253.77634,175.73901,84.57745,-49.258484,-31.635794,41.07662
1.906,251.16383,169.63765,92.448364,-48.474537,-34.275734,37.711052
1.908,247.37367,163.24673,99.804214,-46.81703,-36.72315,33.723625
1.91,242.4413,156.7045,106.46411,-44.24837,-38.821377,29.29287
1.912,236.44394,150.13832,112.257996,-40.79187,-40.41124,24.6157
1.914,229.48947,143.66531,117.036285,-36.53366,-41.350994,19.89355
1.916,221.70728,137.39468,120.67529,-31.615444,-41.534325,15.324087
1.918,213.24878,131.42285,123.08626,-26.221598,-40.904957,11.093359
1.92,204.28134,125.8263,124.22304,-20.562786,-39.469875,7.364006
1.922,194.98344,120.66624,124.07059,-14.853168,-37.29458,4.260231
1.924,185.5359,115.995415,122.63733,-9.29867,-34.50395,1.8813629
1.926,176.11136,111.84844,119.975105,-4.0819273,-31.26377,0.2771759
1.928,166.8704,108.23279,116.178246,0.6595907,-27.758446,-0.55297375
1.93,157.95729,105.136604,111.377365,4.8399644,-24.165716,-0.64944696
1.932,149.49844,102.53711,105.71906,8.395725,-20.64806,-0.103048086
1.934,141.59404,100.40408,99.36505,11.288123,-17.37042,0.932044
1.936,134.32143,98.69966,92.49095,13.532806,-14.479947,2.260038
1.938,127.72659,97.3851,85.27466,15.18882,-12.075289,3.7017837
1.94,121.83288,96.40263,77.89316,16.34571,-10.178726,5.039983
1.942,116.6355,95.67372,70.51868,17.093754,-8.792188,6.088142
1.944,112.1185,95.16189,63.30109,17.52261,-7.8881626,6.712578
1.946,108.24541,94.81562,56.341026,17.723627,-7.40251,6.840224
1.948,104.88559,94.58824,49.751595,17.786062,-7.244503,6.458747
1.95,101.97697,94.46394,43.6793,17.79026,-7.3055744,5.6110954
1.952,99.52127,94.3055,38.17238,17.801361,-7.470705,4.3902464
1.954,97.46689,94.03634,33.24658,17.868721,-7.6392436,2.921894
1.956,95.723625,93.61156,28.838984,18.028461,-7.729917,1.3454018
1.958,94.21056,93.01001,24.923422,18.303673,-7.67236,-0.20474184
1.96,92.85782,92.23547,21.472115,18.700062,-7.4161625,-1.613483
1.962,91.61679,91.34328,18.435173,19.209526,-6.945376,-2.7910562
1.964,90.42177,90.310104,15.797308,19.814213,-6.2677474,-3.67721
1.966,89.22338,89.14325,13.513356,20.489777,-5.405471,-4.2452173
1.968,87.98122,87.8544,11.504686,21.207859,-4.393883,-4.5014105
1.97,86.66075,86.45112,9.714047,21.93825,-3.2766538,-4.479901
1.972,85.23463,84.942444,8.127075,22.652067,-2.0988245,-4.2334495
1.974,83.68821,83.3199,6.7433624,23.32145,-0.90233517,-3.821168
1.976,82.06916,81.59479,5.511674,23.918968,0.27427483,-3.2994566
1.978,80.33229,79.82735,4.356201,24.423588,1.4015517,-2.717156
1.98,78.49559,78.04018,3.239523,24.821762,2.4597893,-2.1152446
1.982,76.553185,76.25827,2.1512651,25.103054,3.4340072,-1.5258149
1.984,74.46632,74.564545,1.1153698,25.259357,4.313532,-0.9702022
1.986,72.22084,72.97244,0.11249161,25.286293,5.092395,-0.4587381
1.988,69.83053,71.47357,-0.89328384,25.182426,5.7684507,0.007127285
1.99,67.29399,70.04101,-1.9006348,24.948706,6.342089,0.43189
1.992,64.62316,68.66115,-2.8982744,24.58849,6.8147106,0.82271147
1.994,61.84455,67.33542,-3.8828125,24.108397,7.188631,1.1865072
1.996,58.977997,66.07103,-4.8452253,23.51854,7.4677143,1.5282154
1.998,56.031235,64.88079,-5.7798004,22.830626,7.6569557,1.8506141
2,53.02349,63.77306,-6.689953,22.057095,7.7618146,2.1549711
2.002,49.989555,62.7378,-7.5517197,21.211124,7.7885528,2.4412127
2.004,46.94749,61.772083,-8.34192,20.306278,7.7440066,2.7081633
2.006,43.906723,60.887535,-9.056749,19.3561,7.6351266,2.9542892
2.008,40.88638,60.094143,-9.703693,18.373808,7.4689355,3.1787124
2.01,37.91107,59.39288,-10.287575,17.37206,7.2525797,3.3814788
2.012,34.99223,58.77636,-10.796147,16.362623,6.9932513,3.5631418
2.014,32.134094,58.235535,-11.212902,15.35619,6.6980286,3.7239408
2.016,29.342876,57.759342,-11.528458,14.3622265,6.3739624,3.8633623
2.018,26.63311,57.33027,-11.738172,13.388909,6.028142,3.9801166
2.02,24.01669,56.93312,-11.840679,12.443046,5.667715,4.072152
2.022,21.496342,56.55995,-11.839802,11.530149,5.2998953,4.1367683
2.024,19.07488,56.20358,-11.745619,10.654407,4.931882,4.170925
2.026,16.757023,55.85619,-11.571098,9.818778,4.5708365,4.1718316
2.028,14.545974,55.511776,-11.331893,9.024983,4.223701,4.137533
2.03,12.443038,55.16785,-11.046477,8.273681,3.8970623,4.0676026
2.032,10.448088,54.823334,-10.730921,7.5646167,3.5969605,3.9634051
2.034,8.559421,54.477264,-10.396699,6.8968377,3.3286924,3.8280528
2.036,6.7743754,54.13021,-10.052933,6.2688913,3.0965889,3.666219
2.038,5.0897694,53.784313,-9.708636,5.6790137,2.9038773,3.4838772
2.04,3.5008278,53.442905,-9.373251,5.125329,2.7525558,3.2878237
2.042,2.0023334,53.107887,-9.056255,4.6059575,2.6434054,3.0851965
2.044,0.5882671,52.77896,-8.7669325,4.119049,2.5759275,2.882975
2.046,-0.7482004,52.454884,-8.513891,3.6627128,2.5483704,2.687553
2.048,-2.014349,52.13513,-8.304392,3.2350655,2.5579288,2.5043883
2.05,-3.217592,51.819523,-8.144345,2.834165,2.6008162,2.3377626
2.052,-4.365343,51.50901,-8.038505,2.457955,2.672327,2.1907196
2.054,-5.464758,51.204456,-7.98992,2.1042435,2.7670512,2.065032
2.056,-6.522604,50.90721,-7.9995213,1.7707019,2.8790345,1.9614396
2.058,-7.5440545,50.61789,-8.066224,1.4548289,3.0019398,1.8798431
2.06,-8.535066,50.338455,-8.18798,1.1539826,3.129175,1.8195722
2.062,-9.500711,50.070324,-8.361059,0.86545134,3.254068,1.779669
2.064,-10.445791,49.8139,-8.580612,0.58647704,3.3698876,1.7590817
2.066,-11.374596,49.568096,-8.840625,0.31431356,3.4699295,1.7568697
2.068,-12.291224,49.330723,-9.133813,0.046328843,3.5476491,1.772336
2.07,-13.198711,49.098164,-9.45215,-0.219916,3.5967634,1.8050297
2.072,-14.09977,48.865925,-9.786109,-0.4866205,3.611332,1.8546588
2.074,-14.995708,48.628857,-10.126088,-0.755687,3.5858872,1.9209688
2.076,-15.886716,48.381386,-10.462327,-1.0286638,3.5155559,2.0035996
2.078,-16.772018,48.117767,-10.784793,-1.3067554,3.3962376,2.1019273
2.08,-17.649261,47.83199,-11.083118,-1.5908273,3.2246437,2.2149715
2.082,-18.5147,47.51814,-11.346619,-1.8814695,2.9984472,2.341398
2.084,-19.363707,47.1708,-11.565271,-2.1789255,2.716454,2.4793174
2.086,-20.190252,46.784657,-11.72956,-2.4831789,2.3786223,2.6262581
2.088,-20.987236,46.354824,-11.830216,-2.7939708,1.9860702,2.779343
2.09,-21.747572,45.877377,-11.858243,-3.1107934,1.5410436,2.9353895
2.092,-22.464262,45.349182,-11.804817,-3.4328132,1.0469134,3.0908725
2.094,-23.130249,44.76819,-11.661545,-3.7589107,0.5081625,3.2420104
2.096,-23.738237,44.13324,-11.42125,-4.087686,-0.06974509,3.3849826
2.098,-24.28072,43.444004,-11.078172,-4.417403,-0.6804559,3.516029
2.1,-24.750912,42.701237,-10.628162,-4.7459836,-1.3168142,3.6314769
2.102,-25.143053,41.907455,-10.068327,-5.0710225,-1.9709656,3.7278776
2.104,-25.453085,41.066822,-9.397369,-5.389869,-2.6344743,3.8020864
2.106,-25.677912,40.184883,-8.615391,-5.69965,-3.2983854,3.8514142
2.108,-25.815996,39.26799,-7.7237563,-5.9974084,-3.953399,3.873811
2.11,-25.867704,38.323574,-6.725771,-6.280216,-4.5899734,3.8678412
2.112,-25.834694,37.359604,-5.6267157,-6.545274,-5.198509,3.832757
2.114,-25.71936,36.384193,-4.4336185,-6.7900925,-5.769534,3.7686095
2.116,-25.525013,35.405594,-3.155569,-7.0126367,-6.293914,3.676241
2.118,-25.256235,34.432034,-1.8030534,-7.2113266,-6.7629786,3.557244
2.12,-24.918858,33.471584,-0.3884833,-7.38507,-7.168714,3.4137774
2.122,-24.51914,32.531975,1.0740328,-7.533265,-7.504004,3.248361
2.124,-24.06397,31.620375,2.5690296,-7.655775,-7.762788,3.0636864
2.126,-23.56035,30.743015,4.07976,-7.7528152,-7.940156,2.8624997
2.128,-23.015358,29.905312,5.5889173,-7.824858,-8.032444,2.647419
2.13,-22.435818,29.11179,7.0788236,-7.872589,-8.037393,2.4208717
2.132,-21.827974,28.365746,8.531966,-7.8968306,-7.954214,2.1850245
2.134,-21.197392,27.669796,9.931389,-7.8985043,-7.783537,1.9417403
2.136,-20.548738,27.025711,11.261148,-7.8786154,-7.527439,1.6925889
2.138,-19.885998,26.434654,12.506044,-7.838386,-7.1894474,1.439069
2.14,-19.21246,25.897154,13.652481,-7.779236,-6.774428,1.1827105
2.142,-18.530392,25.413193,14.688861,-7.702799,-6.2884393,0.92507994
2.144,-17.841059,24.98243,15.605848,-7.6109014,-5.7386165,0.6677712
2.146,-17.144718,24.60405,16.396149,-7.505619,-5.1330833,0.41252315
2.148,-16.441072,24.276974,17.054724,-7.3891716,-4.480772,0.16111541
2.15,-15.729176,23.999527,17.579002,-7.2638073,-3.7910857,-0.08481705
2.152,-15.008244,23.770138,17.968779,-7.1317577,-3.073624,-0.32393467
2.154,-14.276621,23.586817,18.22568,-6.995122,-2.337923,-0.55534744
2.156,-13.532797,23.447197,18.353685,-6.8558116,-1.5932325,-0.77871716
2.158,-12.775232,23.348576,18.35833,-6.715478,-0.84818435,-0.99427867
2.16,-12.002533,23.28819,18.24711,-6.5755725,-0.11060828,-1.2027886
2.162,-11.213371,23.262753,18.028616,-6.437246,0.61268055,-1.4053962
2.164,-10.406067,23.268549,17.712706,-6.3014407,1.3159835,-1.6034336
2.166,-9.580204,23.3021,17.310242,-6.1688924,1.994719,-1.7982502
2.168,-8.735283,23.359888,16.832495,-6.04017,2.6453767,-1.9911062
2.17,-7.871394,23.438095,16.290915,-5.9156904,3.2654436,-2.1830628
2.172,-6.98866,23.532536,15.696721,-5.7957926,3.8532908,-2.3749504
2.174,-6.0877013,23.639376,15.061138,-5.68075,4.407989,-2.5673237
2.176,-5.169582,23.754772,14.394745,-5.5707445,4.929225,-2.7604828
2.178,-4.235209,23.874609,13.707441,-5.465907,5.417111,-2.9545135
2.18,-3.286399,23.995132,13.008295,-5.3663116,5.872078,-3.149383
2.182,-2.3251696,24.112825,12.305701,-5.2719936,6.294836,-3.3449433
2.184,-1.353904,24.224266,11.60759,-5.182889,6.6864114,-3.5409513
2.186,-0.3753593,24.326595,10.920826,-5.098817,7.04806,-3.737033
2.188,0.6076894,24.417023,10.251047,-5.019501,7.3812504,-3.9326463
2.19,1.5923501,24.493181,9.603025,-4.944547,7.687664,-4.127101
2.192,2.575488,24.553013,8.98057,-4.8734217,7.9691844,-4.3195395
2.194,3.554388,24.594658,8.386722,-4.8054633,8.227896,-4.509042
2.196,4.5258727,24.616951,7.823592,-4.7398996,8.465989,-4.694663
2.198,5.4870067,24.618824,7.2924843,-4.675866,8.685773,-4.875435
2.2,6.43528,24.599705,6.794046,-4.612419,8.889622,-5.0504136
2.202,7.3681154,24.559292,6.3282065,-4.548553,9.079885,-5.2187266
2.204,8.283657,24.497332,5.894018,-4.4832335,9.25879,-5.379614
2.206,9.179626,24.414162,5.490352,-4.4154224,9.428392,-5.5324025
2.208,10.053541,24.310425,5.1157784,-4.3441195,9.590527,-5.676481
2.21,10.903691,24.186783,4.7690516,-4.268362,9.746858,-5.811338
2.212,11.727998,24.043886,4.448517,-4.187277,9.8987465,-5.936621
2.214,12.524904,23.882208,4.152123,-4.1000524,10.047252,-6.052153
2.216,13.292927,23.702278,3.8778393,-4.0060253,10.193172,-6.1579247
2.218,14.031155,23.504826,3.6235552,-3.9046135,10.337015,-6.254101
2.22,14.738516,23.290897,3.387066,-3.7953758,10.479057,-6.34103
2.222,15.414095,23.061594,3.1664593,-3.6780024,10.619278,-6.419183
2.224,16.056854,22.818096,2.9599328,-3.5523221,10.757443,-6.4891467
2.226,16.666178,22.561327,2.7661784,-3.4182963,10.893092,-6.551573
2.228,17.241446,22.292465,2.583873,-3.2760425,11.025598,-6.607155
2.23,17.782217,22.01226,2.411905,-3.1258209,11.154152,-6.6565742
2.232,18.287926,21.721533,2.2494955,-2.9680514,11.277874,-6.700483
2.234,18.758703,21.420982,2.0959196,-2.803257,11.39576,-6.739422
2.236,19.194416,21.111492,1.9505923,-2.632043,11.506779,-6.773859
2.238,19.595293,20.793858,1.8131638,-2.4551225,11.609887,-6.8041115
2.24,19.961637,20.468956,1.6832514,-2.2732859,11.704029,-6.8302975
2.242,20.294102,20.137672,1.5604982,-2.0872886,11.788189,-6.852432
2.244,20.59342,19.80088,1.4445438,-1.8978765,11.861477,-6.870501
2.246,20.860348,19.459267,1.3349414,-1.7057751,11.92305,-6.8844495
2.248,21.09605,19.113632,1.231288,-1.5117209,11.972139,-6.894117
2.25,21.30179,18.764668,1.1329918,-1.316414,12.008092,-6.8993025
2.252,21.478823,18.413208,1.0396652,-1.120498,12.030382,-6.899778
2.254,21.628683,18.060127,0.9505987,-0.9245813,12.038563,-6.8952975
2.256,21.752766,17.706232,0.865098,-0.7292181,12.032352,-6.8856087
2.258,21.852736,17.352282,0.78254604,-0.534902,12.011585,-6.870412
2.26,21.930107,16.999084,0.7021427,-0.34203368,11.976189,-6.849378
2.262,21.986454,16.647436,0.62301254,-0.15096074,11.926174,-6.8221745
2.264,22.02322,16.297981,0.5446081,0.038036823,11.861519,-6.78841
2.266,22.041845,15.951545,0.4660759,0.22476459,11.782284,-6.7476926
2.268,22.043762,15.6089945,0.3869257,0.40908033,11.688537,-6.69968
2.27,22.030945,15.270705,0.30693913,0.5908833,11.580255,-6.644104
2.272,22.003918,14.93794,0.22541046,0.7700561,11.457353,-6.580847
2.274,21.963955,14.611383,0.14284515,0.946475,11.31966,-6.5099406
2.276,21.912094,14.292019,0.059226036,1.1199775,11.16699,-6.4316072
2.278,21.84896,13.980786,-0.025137901,1.2903197,10.999149,-6.3462443
2.28,21.775055,13.678612,-0.10971832,1.4572078,10.815939,-6.2543945
2.282,21.69063,13.386987,-0.19365692,1.6202893,10.617283,-6.156706
2.284,21.595884,13.107062,-0.27608204,1.7791781,10.403236,-6.0538673
2.286,21.491016,12.840156,-0.35610104,1.9334794,10.174014,-5.946535
2.288,21.375694,12.587662,-0.43237782,2.0827925,9.930074,-5.8352814
2.29,21.24978,12.350977,-0.50328636,2.2267413,9.67206,-5.7205544
2.292,21.113186,12.131403,-0.56750584,2.3650262,9.400843,-5.602698
2.294,20.965693,11.930307,-0.6237354,2.497446,9.117498,-5.4819994
2.296,20.807251,11.748831,-0.67055607,2.6238072,8.823254,-5.358597
2.298,20.637917,11.588143,-0.7064104,2.7440317,8.519484,-5.232559
2.3,20.457653,11.449213,-0.7298689,2.858152,8.207625,-5.1039925
2.302,20.266905,11.333071,-0.7397833,2.9661531,7.888942,-4.9731445
2.304,20.065947,11.240376,-0.7350521,3.0681005,7.564781,-4.840372
2.306,19.855528,11.171594,-0.71476936,3.1641393,7.23645,-4.7061667
2.308,19.636515,11.126987,-0.6782818,3.2544107,6.905134,-4.571145
2.31,19.409706,11.106345,-0.62502956,3.3390548,6.5718803,-4.4360332
2.312,19.176483,11.109164,-0.55459976,3.4182117,6.237631,-4.3016315
2.314,18.937943,11.134853,-0.46669197,3.4920244,5.9032803,-4.1688066
2.316,18.695654,11.182485,-0.36138153,3.5606406,5.5696397,-4.0384464
2.318,18.451483,11.25091,-0.23860455,3.6242442,5.237512,-3.9114227
2.32,18.206766,11.338964,-0.09885025,3.6830013,4.9076667,-3.788527
2.322,17.963867,11.444786,0.057276726,3.7371266,4.5808854,-3.6704485
2.324,17.724648,11.566948,0.22911644,3.7868857,4.258005,-3.5578246
2.326,17.490908,11.703598,0.41572857,3.8325956,3.9399037,-3.4512072
2.328,17.26436,11.852949,0.61614037,3.8746123,3.6274939,-3.3510437
2.33,17.04676,12.013029,0.82915306,3.9133496,3.321669,-3.2577014
2.332,16.8399,12.181681,1.0534487,3.9492478,3.0233052,-3.1714485
2.334,16.64511,12.356888,1.2878132,3.9827616,2.7332122,-3.0924883
2.336,16.463688,12.536678,1.5309887,4.014305,2.452087,-3.0209684
2.338,16.296772,12.71904,1.7815375,4.044243,2.180485,-2.9569638
2.34,16.145214,12.902172,2.0381074,4.0728574,1.9188026,-2.9005172
2.342,16.009762,13.08422,2.2992172,4.10032,1.6672641,-2.8515935
2.344,15.890651,13.2635,2.563507,4.126687,1.4259413,-2.8100939
2.346,15.788165,13.438358,2.8298998,4.151896,1.194742,-2.7758975
2.348,15.702126,13.607132,3.0971699,4.17577,0.9734518,-2.7488673
2.35,15.63234,13.768321,3.364366,4.198071,0.7617296,-2.7288597
2.352,15.578222,13.920388,3.6305227,4.218496,0.55912524,-2.7157764
2.354,15.539228,14.061959,3.8949766,4.2367387,0.365201,-2.7095523
2.356,15.514562,14.191824,4.157048,4.2526193,0.17962795,-2.7101572
2.358,15.503248,14.308625,4.416245,4.265925,0.0019028187,-2.7176018
2.36,15.504242,14.411242,4.6721354,4.27649,-0.16843182,-2.7318652
2.362,15.516309,14.498606,4.9243526,4.284262,-0.3317104,-2.752888
2.364,15.538081,14.5696945,5.1726685,4.2892795,-0.48817122,-2.7805266
2.366,15.568259,14.623582,5.416779,4.2916384,-0.63794833,-2.814484
2.368,15.605446,14.659589,5.656418,4.2914553,-0.781068,-2.854259
2.37,15.648199,14.676972,5.8914948,4.2888713,-0.9174603,-2.8991814
2.372,15.695068,14.675227,6.1216106,4.283988,-1.0469847,-2.9484305
2.374,15.744555,14.654097,6.3465633,4.27692,-1.1694443,-3.001114
2.376,15.795155,14.613407,6.5662117,4.2677455,-1.2846229,-3.056288
2.378,15.845516,14.552948,6.780286,4.256496,-1.392334,-3.1130257
2.38,15.8935995,14.472947,6.9883146,4.2432218,-1.4924188,-3.1704774
2.382,15.939003,14.37304,7.1905622,4.2279606,-1.5847718,-3.2279344
2.384,15.979901,14.253698,7.3861136,4.2107487,-1.6693683,-3.2848635
2.386,16.015018,14.115201,7.5750055,4.1916633,-1.7462643,-3.3409061
2.388,16.043404,13.958164,7.757077,4.170806,-1.8155642,-3.3958373
2.39,16.064016,13.783177,7.9321327,4.1483183,-1.8774334,-3.449574
2.392,16.076105,13.590714,8.100048,4.1244082,-1.9320374,-3.5021167
2.394,16.078661,13.381765,8.260931,4.0993314,-1.9795568,-3.5535088
2.396,16.07103,13.157293,8.41478,4.073376,-2.0201712,-3.6037807
2.398,16.052567,12.918358,8.56157,4.046858,-2.054029,-3.6528964
2.4,16.022802,12.666142,8.701251,4.0200915,-2.0812492,-3.7006936
2.402,15.981261,12.401833,8.833973,3.9933996,-2.1019208,-3.7468948
2.404,15.927444,12.126664,8.959747,3.96707,-2.116095,-3.7910938
2.406,15.8610115,11.84202,9.078632,3.9413846,-2.1238072,-3.8327708
2.408,15.78163,11.549201,9.190672,3.9165697,-2.1250873,-3.8713317
2.41,15.689292,11.249616,9.295855,3.892819,-2.1199632,-3.9061272
2.412,15.583767,10.944477,9.394216,3.8702648,-2.1084733,-3.936512
2.414,15.46523,10.635249,9.485815,3.8490057,-2.0906909,-3.9618855
2.416,15.333678,10.323343,9.570651,3.8291266,-2.0666995,-3.9817023
2.418,15.1892185,10.010147,9.648726,3.8106878,-2.0366173,-3.9955063
2.42,15.032233,9.697294,9.719994,3.7937372,-2.000622,-4.0029564
2.422,14.863239,9.386232,9.78433,3.7783308,-1.9589219,-4.0038033
2.424,14.682775,9.078466,9.841685,3.7645452,-1.9117277,-3.9979126
2.426,14.491646,8.775455,9.892092,3.7524579,-1.859266,-3.9852612
2.428,14.290533,8.478431,9.935286,3.7421584,-1.8017669,-3.965928
2.43,14.080403,8.188713,9.971296,3.733713,-1.7394669,-3.9400787
2.432,13.862392,7.9074545,9.9999695,3.7271628,-1.6725994,-3.9079397
2.434,13.637751,7.635536,10.021348,3.7224746,-1.6013846,-3.8697886
2.436,13.407604,7.3738627,10.035407,3.719552,-1.5260531,-3.8259082
2.438,13.173346,7.123329,10.042179,3.7182267,-1.4468386,-3.7765658
2.44,12.93632,6.8845344,10.041744,3.7182426,-1.3640006,-3.7220232
2.442,12.697799,6.6582384,10.034145,3.7192564,-1.2778356,-3.6625247
2.444,12.459297,6.4448376,10.019537,3.7208936,-1.1886894,-3.598329
2.446,12.222204,6.2447095,9.998014,3.7227376,-1.096985,-3.5297165
2.448,11.987847,6.0579386,9.969912,3.7243824,-1.0031993,-3.4570367
2.45,11.757454,5.88458,9.935531,3.7254596,-0.9078815,-3.380713
2.452,11.532281,5.724642,9.8953085,3.725635,-0.81165993,-3.3012567
2.454,11.313469,5.577865,9.849589,3.724655,-0.7152288,-3.2192361
2.456,11.101837,5.4440823,9.798702,3.7223191,-0.6193229,-3.1352792
2.458,10.898245,5.3229694,9.74312,3.7184978,-0.5247141,-3.0500345
2.46,10.703355,5.214041,9.683315,3.713096,-0.43219018,-2.9641337
2.462,10.517731,5.1168966,9.6198845,3.706079,-0.34251451,-2.8781514
2.464,10.341697,5.030899,9.553244,3.6974263,-0.25641096,-2.792608
2.466,10.175686,4.9553246,9.483952,3.6871536,-0.17454362,-2.7079244
2.468,10.019618,4.889596,9.412548,3.6752796,-0.097484946,-2.6244514
2.47,9.873618,4.8329515,9.3396225,3.661828,-0.025702715,-2.542451
2.472,9.7377825,4.7847056,9.265521,3.6468112,0.040445566,-2.462109
2.474,9.611862,4.744073,9.190842,3.6302626,0.100726545,-2.3835833
2.476,9.495487,4.710365,9.116068,3.6122124,0.15501207,-2.307003
2.478,9.388237,4.68285,9.041661,3.592707,0.20326537,-2.2324872
2.48,9.289668,4.6611814,8.968085,3.5718188,0.2455411,-2.160144
2.482,9.199638,4.6446075,8.895847,3.5495949,0.28195506,-2.0900917
2.484,9.117619,4.632673,8.825085,3.5261118,0.3126834,-2.0224583
2.486,9.043131,4.624821,8.755958,3.5014486,0.3379165,-1.9573858
2.488,8.975622,4.6206374,8.688858,3.4756746,0.35785758,-1.8950073
2.49,8.914866,4.6196966,8.62381,3.448849,0.37271172,-1.8354557
2.492,8.8600235,4.6216803,8.56088,3.421012,0.38267708,-1.7788296
2.494,8.810681,4.626237,8.5003395,3.3921852,0.38792634,-1.7252301
2.496,8.766329,4.632988,8.442142,3.3623815,0.38861334,-1.6747161
2.498,8.726257,4.641687,8.386433,3.331584,0.38488543,-1.6273171
2.5,8.690151,4.6519117,8.333207,3.299778,0.3768996,-1.5830534
2.502,8.657421,4.6634855,8.282607,3.2669523,0.36480778,-1.5419261
2.504,8.627721,4.676035,8.234371,3.2331128,0.34876382,-1.5039362
2.506,8.60043,4.6894307,8.188761,3.1982799,0.32893443,-1.4690342
2.508,8.575183,4.703544,8.14571,3.162467,0.30551553,-1.4371564
2.51,8.551767,4.7181454,8.105379,3.1257296,0.2787106,-1.4082375
2.512,8.529669,4.733172,8.06772,3.0881202,0.24875396,-1.3822122
2.514,8.508584,4.748639,8.032863,3.0497303,0.21589321,-1.3590208
2.516,8.488387,4.7643986,8.000883,3.010653,0.18037707,-1.3386016
2.518,8.468773,4.7806077,7.971769,2.9709973,0.14244449,-1.3208752
2.52,8.449397,4.797266,7.945741,2.9308434,0.10232276,-1.3057189
2.522,8.430089,4.8143916,7.9228024,2.890274,0.060213268,-1.2929604
2.524,8.410594,4.8320227,7.90312,2.8493412,0.016290724,-1.2824315
2.526,8.390966,4.8502502,7.886795,2.8080628,-0.029259264,-1.2739404
2.528,8.37107,4.869092,7.8740296,2.7664165,-0.07627958,-1.2672786
2.53,8.350814,4.888529,7.8648777,2.7243607,-0.124613345,-1.2622402
2.532,8.33008,4.9085884,7.859457,2.6818316,-0.17411786,-1.2586317
2.534,8.30886,4.929225,7.8578506,2.6387951,-0.22465247,-1.2563059
2.536,8.287011,4.950243,7.860159,2.5952313,-0.27609074,-1.2551571
2.538,8.264547,4.971737,7.866549,2.5511541,-0.3283097,-1.2551278
2.54,8.241762,4.99343,7.8769526,2.5066216,-0.3811556,-1.2562013
2.542,8.218406,5.0153112,7.891568,2.461754,-0.43448788,-1.258411
2.544,8.194516,5.037199,7.910356,2.4166906,-0.48811644,-1.261801
2.546,8.170211,5.05894,7.9334054,2.3715851,-0.54184246,-1.2664224
2.548,8.145452,5.0802937,7.9606686,2.326609,-0.5954224,-1.2722906
2.55,8.120332,5.1012106,7.9920835,2.2819145,-0.6485796,-1.2793965
2.552,8.094903,5.121378,8.027678,2.2376308,-0.7010127,-1.2877066
2.554,8.069185,5.140607,8.067212,2.1938555,-0.75240356,-1.2971442
2.556,8.043274,5.1587887,8.110586,2.1506343,-0.80241317,-1.3075898
2.558,8.017356,5.175821,8.157692,2.1079903,-0.8506842,-1.3189037
2.56,7.991281,5.1916327,8.208183,2.0659492,-0.8968754,-1.3309664
2.562,7.9652433,5.205946,8.261901,2.0245156,-0.9406773,-1.3436457
2.564,7.9392605,5.2187867,8.318487,1.9836882,-0.9818035,-1.3567821
2.566,7.9135017,5.23003,8.377768,1.9434676,-1.0200176,-1.3702211
2.568,7.8881154,5.239644,8.439308,1.9038565,-1.0551008,-1.3838282
2.57,7.863071,5.247616,8.502871,1.864861,-1.0868721,-1.3974754
2.572,7.838495,5.2539153,8.568035,1.8264802,-1.1151896,-1.4110483
2.574,7.81435,5.258657,8.634535,1.7887324,-1.1399536,-1.4244694
2.576,7.7906933,5.2618275,8.702034,1.7516172,-1.1610888,-1.4376606
2.578,7.7677116,5.2635107,8.7702875,1.7151266,-1.1785593,-1.4505117
2.58,7.745414,5.263766,8.838914,1.6792508,-1.1923754,-1.4629406
2.582,7.7237663,5.262657,8.907749,1.6439732,-1.2025522,-1.4748722
2.584,7.702861,5.2602777,8.976496,1.6092534,-1.2091415,-1.4862359
2.586,7.682878,5.256706,9.044923,1.5750394,-1.2121879,-1.4969665
2.588,7.6637692,5.251894,9.112766,1.5412544,-1.2117616,-1.507011
2.59,7.645537,5.2455573,9.179799,1.5078174,-1.2079277,-1.5163251
2.592,7.6279387,5.2378793,9.245953,1.4746411,-1.2007742,-1.5248829
2.594,7.611155,5.228703,9.311219,1.4416318,-1.1903819,-1.53266
2.596,7.5951433,5.218023,9.375551,1.4086926,-1.1768141,-1.5396348
2.598,7.5799584,5.205736,9.438821,1.3757586,-1.1601409,-1.5458182
2.6,7.5654926,5.191862,9.501168,1.3427927,-1.1403865,-1.5512362
2.602,7.551873,5.1761236,9.562521,1.3097664,-1.117566,-1.5559367
2.604,7.5389085,5.1586304,9.622751,1.2766962,-1.0916697,-1.5599873
2.606,7.526726,5.13916,9.682055,1.2436194,-1.0626689,-1.5634496
2.608,7.51529,5.11763,9.740352,1.2105951,-1.0305092,-1.5663761
2.61,7.5045404,5.0941286,9.797726,1.1777136,-0.9951407,-1.5688226
2.612,7.4945416,5.068452,9.854057,1.1450505,-0.95650256,-1.5708176
2.614,7.485273,5.0406165,9.909619,1.1126826,-0.91453475,-1.5723659
2.616,7.4768395,5.010569,9.964191,1.0806743,-0.86917555,-1.5734404
2.618,7.469164,4.9783654,10.017882,1.0490599,-0.82038677,-1.5739903
2.62,7.462176,4.9439583,10.070491,1.0178654,-0.7681377,-1.5739441
2.622,7.4559455,4.9075356,10.122017,0.987092,-0.7124188,-1.5732002
2.624,7.4505,4.869156,10.172281,0.95672476,-0.65323204,-1.5716691
2.626,7.44571,4.8290443,10.221165,0.92673457,-0.5906012,-1.5692705
2.628,7.4416223,4.787267,10.268574,0.89708555,-0.52457273,-1.5659311
2.63,7.4381547,4.7440166,10.314239,0.8677422,-0.45521864,-1.5615944
2.632,7.435339,4.699561,10.35798,0.8386521,-0.38264105,-1.5562334
2.634,7.4332356,4.6541357,10.399435,0.80976063,-0.3069771,-1.5498415
2.636,7.4315352,4.6078825,10.438489,0.7810129,-0.22838661,-1.5424494
2.638,7.430448,4.561095,10.474726,0.75235295,-0.14707324,-1.5341089
2.64,7.4297023,4.5140176,10.507946,0.7237055,-0.063291475,-1.524887
2.642,7.429313,4.4668903,10.537964,0.69498426,0.022663027,-1.5148462
2.644,7.4291267,4.4197955,10.564476,0.666105,0.110462375,-1.5040699
2.646,7.4290056,4.373088,10.587272,0.6369551,0.1997447,-1.4926486
2.648,7.4290185,4.3268094,10.6061535,0.6074158,0.29011005,-1.4806863
2.65,7.4287806,4.2812104,10.6210165,0.5773521,0.3811317,-1.4682858
2.652,7.4282203,4.2363057,10.63173,0.54662514,0.47237518,-1.4555428
2.654,7.4273076,4.1921086,10.6382475,0.5150762,0.5633946,-1.4425564
2.656,7.4257503,4.1489406,10.640592,0.48256248,0.6537562,-1.429405
2.658,7.423402,4.1067877,10.638865,0.4489302,0.74303544,-1.4161566
2.66,7.4201307,4.0656633,10.63316,0.41404688,0.8308388,-1.402877
2.662,7.4158525,4.0257015,10.623606,0.3777999,0.9168056,-1.3896108
2.664,7.4102545,3.9870763,10.610511,0.3400797,1.0006319,-1.3763832
2.666,7.4033556,3.9498115,10.593896,0.30081138,1.0820557,-1.3632048
2.668,7.394833,3.9140081,10.574073,0.25993693,1.1608722,-1.3500682
2.67,7.3849034,3.8797622,10.551357,0.21743196,1.2369449,-1.3369409
2.672,7.3732104,3.8471751,10.525966,0.17328602,1.3102098,-1.3237823
2.674,7.3597465,3.8162966,10.4981985,0.12750763,1.380651,-1.3105216
2.676,7.344541,3.7873607,10.468269,0.08011615,1.4483125,-1.2970858
2.678,7.327362,3.7603483,10.4364605,0.03115052,1.5132804,-1.283377
2.68,7.3082905,3.7354598,10.402907,-0.019358993,1.5756835,-1.2692893
2.682,7.2873473,3.7128158,10.367884,-0.07137442,1.6356554,-1.2547225
2.684,7.2645116,3.692535,10.331585,-0.12487751,1.6933377,-1.2395906
2.686,7.2397876,3.6748009,10.294023,-0.17985606,1.7488497,-1.2238059
2.688,7.2131553,3.6596766,10.255306,-0.23631573,1.8022938,-1.2072967
2.69,7.1846256,3.6473598,10.215568,-0.2942853,1.8537315,-1.190007
2.692,7.1542754,3.637879,10.174927,-0.35381174,1.9031774,-1.171921
2.694,7.1221538,3.631433,10.133441,-0.41494602,1.9506061,-1.1530392
2.696,7.0882907,3.6280947,10.091144,-0.4777543,1.9959475,-1.1333897
2.698,7.0527205,3.6279445,10.048205,-0.54231626,2.0390768,-1.113004
2.7,7.015621,3.631114,10.0045595,-0.60871434,2.0798635,-1.0919144
2.702,6.976905,3.6374993,9.960317,-0.6770333,2.1181529,-1.0701582
2.704,6.936652,3.6471045,9.915602,-0.7473403,2.153791,-1.0477738
2.706,6.8949995,3.660053,9.870595,-0.8197007,2.1866448,-1.0247943
2.708,6.8518877,3.6763,9.825325,-0.8941604,2.2166033,-1.0012301
2.71,6.8074665,3.6957479,9.780024,-0.97073567,2.2435791,-0.9771
2.712,6.761856,3.7183838,9.734982,-1.0494108,2.2675464,-0.9524101
2.714,6.7151356,3.7440138,9.69022,-1.1301446,2.2885222,-0.92715454
2.716,6.6673193,3.7727203,9.645908,-1.2128648,2.3065686,-0.9013331
2.718,6.6185136,3.804313,9.602323,-1.2974656,2.321791,-0.8749324
2.72,6.568753,3.8387475,9.559724,-1.38384,2.334337,-0.8479457
2.722,6.518181,3.8759816,9.518265,-1.4718663,2.344382,-0.8203547
2.724,6.4669137,3.915829,9.478104,-1.5614358,2.3521252,-0.7921252
2.726,6.41504,3.9582162,9.439404,-1.6524348,2.3577747,-0.7632092
2.728,6.3626084,4.003072,9.402372,-1.7447965,2.3615398,-0.7335702
2.73,6.3097086,4.0504627,9.367182,-1.8384521,2.3636153,-0.7031406
2.732,6.256339,4.100292,9.333989,-1.9333544,2.3641844,-0.67185366
2.734,6.202612,4.152613,9.302981,-2.0294752,2.3633938,-0.6396364
2.736,6.148735,4.2074184,9.274169,-2.1267977,2.3613687,-0.6064283
2.738,6.0947404,4.2647295,9.247621,-2.2253053,2.3581872,-0.5721827
2.74,6.0409193,4.324485,9.223385,-2.3249788,2.3539093,-0.5368719
2.742,5.987305,4.3866935,9.201529,-2.425809,2.348558,-0.50050175
2.744,5.933924,4.4514346,9.182115,-2.5277796,2.3421316,-0.4630861
2.746,5.881134,4.518731,9.165202,-2.6308641,2.3346155,-0.42466265
2.748,5.8288736,4.5887413,9.1509495,-2.735034,2.3259914,-0.38530144
2.75,5.777513,4.6614847,9.139386,-2.840263,2.3162284,-0.34508237
2.752,5.7272506,4.7369084,9.130533,-2.9464974,2.3052955,-0.30410406
2.754,5.6784115,4.815308,9.124509,-3.0536954,2.2931585,-0.26245567
2.756,5.6311207,4.896612,9.121333,-3.16181,2.2797728,-0.2202301
2.758,5.5854692,4.9809637,9.121094,-3.2707703,2.2651105,-0.17748913
2.76,5.5419025,5.0684996,9.123881,-3.3805118,2.249126,-0.13429281
2.762,5.5008187,5.159229,9.129632,-3.4909425,2.2318015,-0.09068811
2.764,5.462193,5.2533894,9.138422,-3.6019597,2.2131417,-0.046696514
2.766,5.4265094,5.350937,9.150181,-3.7134712,2.1931424,-0.0023446083
2.768,5.3939385,5.452091,9.164835,-3.8253553,2.1718132,0.042345837
2.77,5.3646884,5.5570803,9.182338,-3.937489,2.1491897,0.08735573
2.772,5.3388486,5.66606,9.202578,-4.0497413,2.1253552,0.13265587
2.774,5.316878,5.7790546,9.225264,-4.1619625,2.1004345,0.17819548
2.776,5.2987533,5.896207,9.250264,-4.274022,2.0745962,0.22387736
2.778,5.28454,6.017746,9.27708,-4.3857775,2.0480814,0.26954103
2.78,5.2743616,6.1437097,9.305404,-4.497115,2.021189,0.31501544
2.782,5.268373,6.2745104,9.3346815,-4.6079087,1.994248,0.36009103
2.784,5.266485,6.41017,9.364561,-4.718052,1.9676301,0.40452275
2.786,5.2685714,6.5508947,9.394504,-4.82746,1.9416939,0.4480795
2.788,5.2747607,6.6969805,9.42404,-4.936059,1.9167883,0.49054193
2.79,5.284745,6.848546,9.452536,-5.0437794,1.8932178,0.53174865
2.792,5.2984424,7.0057545,9.4794235,-5.15057,1.8712116,0.5715818
2.794,5.315719,7.168743,9.504065,-5.256401,1.8509338,0.6099981
2.796,5.3363523,7.3376675,9.525981,-5.361249,1.8324796,0.6470219
2.798,5.3600025,7.5126643,9.544584,-5.465104,1.8158797,0.68272704
2.8,5.3864985,7.69387,9.559222,-5.5679717,1.8011253,0.7172506
2.802,5.41543,7.8814726,9.569319,-5.669862,1.7881675,0.75075597
2.804,5.4464655,8.07549,9.574315,-5.770772,1.7769632,0.78343886
2.806,5.479268,8.27598,9.57375,-5.8707256,1.7674999,0.8155236
2.808,5.513661,8.48302,9.567021,-5.9697275,1.7597828,0.84722924
2.81,5.5491343,8.696641,9.553724,-6.067788,1.7538393,0.8787768
2.812,5.5855484,8.916899,9.533417,-6.1649485,1.7497149,0.9103592
2.814,5.6223745,9.143793,9.505595,-6.261244,1.7474871,0.9421629
2.816,5.659334,9.377113,9.469895,-6.3567286,1.7472332,0.97435766
2.818,5.6961884,9.616782,9.426001,-6.451502,1.7490427,1.0070858
2.82,5.7325697,9.86267,9.373496,-6.5456467,1.753001,1.0404649
2.822,5.768194,10.114571,9.3120575,-6.6392984,1.759162,1.0745978
2.824,5.802936,10.372352,9.241621,-6.7326055,1.7675261,1.109564
2.826,5.836449,10.635701,9.161868,-6.825727,1.777986,1.1454301
2.828,5.8685894,10.904389,9.072703,-6.918853,1.7903616,1.182276
2.83,5.899146,11.177934,8.974015,-7.01217,1.80439,1.2201886
2.832,5.9280434,11.45598,8.8658285,-7.105869,1.8197026,1.2592744
2.834,5.9550953,11.73819,8.748127,-7.200136,1.8358963,1.2996085
2.836,5.9803405,12.02396,8.620963,-7.2951574,1.8525374,1.3413045
2.838,6.003735,12.312934,8.48443,-7.391096,1.8691516,1.3844583
2.84,6.025298,12.604514,8.33875,-7.4881015,1.8853028,1.4291279
2.842,6.045028,12.8982725,8.183973,-7.586278,1.9005966,1.4753816
2.844,6.0631456,13.193604,8.020369,-7.6857014,1.9146936,1.5232362
2.846,6.0795918,13.489941,7.848292,-7.7864,1.927331,1.5727148
2.848,6.094567,13.786716,7.667857,-7.888338,1.9383233,1.62377
2.85,6.1081567,14.083305,7.479438,-7.991448,1.947542,1.6763484
2.852,6.120517,14.379033,7.283237,-8.095579,1.9549162,1.7303486
2.854,6.1318226,14.673164,7.079524,-8.200544,1.9603925,1.7856158
2.856,6.1423635,14.965084,6.8685946,-8.306112,1.9639308,1.8419564
2.858,6.1521173,15.25405,6.650674,-8.412024,1.965471,1.8991154
2.86,6.1614666,15.53933,6.4260926,-8.517999,1.9648962,1.9568088
2.862,6.1706295,15.820238,6.195242,-8.623756,1.9620397,2.0147133
2.864,6.1796217,16.095854,5.958544,-8.729065,1.9566498,2.0725229
2.866,6.1889305,16.365387,5.716392,-8.833685,1.9483676,2.1299345
2.868,6.1984506,16.628046,5.4691606,-8.93743,1.936732,2.1866508
2.87,6.208481,16.88277,5.2172775,-9.040144,1.9211884,2.2424262
2.872,6.2191086,17.128822,4.9614286,-9.141704,1.901093,2.29707
2.874,6.230657,17.365107,4.7021446,-9.242017,1.8757715,2.3504517
2.876,6.2432213,17.590603,4.4401207,-9.341012,1.8445334,2.4024975
2.878,6.2570643,17.804083,4.1761284,-9.438616,1.806711,2.4532022
2.88,6.2721715,18.004307,3.9111037,-9.534758,1.7616847,2.502627
2.882,6.2890787,18.190048,3.6460567,-9.629328,1.7089033,2.550856
2.884,6.3077683,18.360245,3.3820362,-9.722208,1.6479115,2.597998
2.886,6.3282647,18.513672,3.1201236,-9.813221,1.5783806,2.644153
2.888,6.350877,18.648945,2.8615866,-9.9021435,1.5000849,2.6893954
2.89,6.375662,18.764912,2.6075215,-9.988678,1.4129443,2.7337239
2.892,6.4025645,18.860199,2.3590746,-10.072462,1.3170214,2.7770646
2.894,6.4315333,18.933754,2.1176066,-10.153031,1.2124944,2.8192563
2.896,6.462957,18.984205,1.8838482,-10.229842,1.0996757,2.8600416
2.898,6.49652,19.010357,1.659008,-10.302273,0.9790182,2.899054
2.9,6.5322733,19.011343,1.443984,-10.369623,0.8510902,2.9358382
2.902,6.5699,18.986387,1.2394552,-10.431123,0.7165885,2.9698904
2.904,6.609311,18.934704,1.0460796,-10.485921,0.5763445,3.00065
2.906,6.6503167,18.855825,0.8644166,-10.533125,0.4313388,3.0275083
2.908,6.6929607,18.749504,0.69469786,-10.571787,0.2826736,3.04987
2.91,6.7364492,18.615711,0.5374489,-10.600932,0.13159132,3.0671704
2.912,6.7807927,18.45448,0.39245796,-10.6195755,-0.020546436,3.0788853
2.914,6.8254423,18.266232,0.25975466,-10.626712,-0.1722467,3.0845544
2.916,6.869935,18.051575,0.1389308,-10.621328,-0.32191968,3.0838215
2.918,6.9132996,17.811733,0.02947998,-10.602444,-0.46788192,3.0764403
2.92,6.9551616,17.54789,-0.069262505,-10.569144,-0.6084039,3.062335
2.922,6.994482,17.261805,-0.1580677,-10.520587,-0.74176836,3.041643
2.924,7.030867,16.955225,-0.23810911,-10.456043,-0.8662479,3.0146582
2.926,7.063271,16.630562,-0.31047392,-10.37494,-0.98022556,2.9818819
2.928,7.0907407,16.290226,-0.3763647,-10.27691,-1.0822628,2.9440656
2.93,7.1126227,15.936642,-0.4371338,-10.16181,-1.1711292,2.9021204
2.932,7.1280174,15.572525,-0.4940505,-10.029735,-1.2458813,2.857144
2.934,7.1361012,15.20057,-0.54840946,-9.881128,-1.3059399,2.8103032
2.936,7.136175,14.823705,-0.6011112,-9.716767,-1.3511648,2.7628517
2.938,7.1274915,14.444767,-0.65316606,-9.537766,-1.3818982,2.7160492
2.94,7.1095295,14.066641,-0.7052772,-9.345558,-1.398909,2.671039
2.942,7.081744,13.692004,-0.7579341,-9.141874,-1.4034026,2.62882
2.944,7.0437512,13.323266,-0.8111315,-8.928665,-1.3970333,2.5902042
2.946,6.995335,12.962724,-0.86487865,-8.7079935,-1.3817476,2.5558074
2.948,6.9366,12.6122675,-0.91882575,-8.481921,-1.3596773,2.5260153
2.95,6.86736,12.273588,-0.9722562,-8.25236,-1.3330766,2.5009365
2.952,6.7880197,11.948102,-1.0241902,-8.021042,-1.3041471,2.4804442
2.954,6.698583,11.636876,-1.073471,-7.7893467,-1.2749063,2.464192
2.956,6.5994806,11.340728,-1.1188539,-7.5582995,-1.2471178,2.4516578
2.958,6.4912243,11.060062,-1.1586825,-7.3285275,-1.2221736,2.442165
2.96,6.374309,10.795026,-1.1915314,-7.1002593,-1.2010587,2.4349892
2.962,6.249236,10.545601,-1.2156061,-6.8733873,-1.1843312,2.4293756
2.964,6.1166434,10.311379,-1.2294925,-6.6475277,-1.1721277,2.4246106
2.966,5.976771,10.09196,-1.2318152,-6.422088,-1.1642177,2.420083
2.968,5.8305726,9.886618,-1.2214148,-6.196398,-1.1600738,2.415346
2.97,5.678309,9.694521,-1.1973524,-5.9697638,-1.158925,2.410102
2.972,5.520285,9.514913,-1.1591291,-5.741555,-1.1598825,2.404231
2.974,5.3571253,9.346991,-1.1064554,-5.511248,-1.1620016,2.3977723
2.976,5.1890645,9.189935,-1.0394015,-5.2784877,-1.1643547,2.3909152
2.978,5.0165305,9.042764,-0.95829624,-5.0430827,-1.1661308,2.3839984
2.98,4.8395634,8.905024,-0.8639585,-4.8050275,-1.1665993,2.3774145
2.982,4.658375,8.775929,-0.7576171,-4.5644736,-1.1651359,2.3715909
2.984,4.473003,8.655022,-0.6406824,-4.3216996,-1.161252,2.366973
2.986,4.28349,8.541812,-0.514899,-4.077129,-1.1545352,2.3639507
2.988,4.0899515,8.436132,-0.38219386,-3.8312218,-1.1446135,2.3628993
2.99,3.8924022,8.337845,-0.24483183,-3.5844705,-1.1311245,2.3640785
2.992,3.6906538,8.246881,-0.105204105,-3.3373995,-1.1137252,2.3676677
2.994,3.4846067,8.163031,0.034439445,-3.0905385,-1.0920845,2.373762
2.996,3.2743793,8.08639,0.17177838,-2.84439,-1.0658472,2.3823776
2.998,3.0599446,8.016995,0.30440688,-2.5994356,-1.0346329,2.3934278
3,2.8410833,7.954994,0.4301293,-2.3561542,-0.9980896,2.4067593
3.002,2.617841,7.900472,0.5470067,-2.1150024,-0.9559387,2.422193
3.004,2.390357,7.8535204,0.6527378,-1.8764418,-0.9079262,2.43955
3.006,2.1580935,7.81432,0.7457591,-1.6409018,-0.85391784,2.4586573
3.008,1.9213489,7.782854,0.8244942,-1.4088216,-0.7938801,2.4793293
3.01,1.6800417,7.7588096,0.88748634,-1.1806406,-0.72788197,2.5013545
3.012,1.4343214,7.742213,0.9336712,-0.9568329,-0.6561202,2.5245337
3.014,1.1842395,7.7328835,0.9618902,-0.7378852,-0.57893205,2.5486412
3.016,0.92982036,7.7304554,0.97123694,-0.52429837,-0.49674714,2.5734468
3.018,0.67117935,7.73445,0.9611982,-0.31660813,-0.41012585,2.598691
3.02,0.40901384,7.7441263,0.93124646,-0.11539087,-0.3197357,2.6241007
3.022,0.14348897,7.7590427,0.88136774,0.07880098,-0.22631896,2.649401
3.024,-0.124705255,7.7784734,0.8115988,0.26542503,-0.13070625,2.6743474
3.026,-0.3949568,7.801361,0.72237885,0.44396418,-0.033774137,2.698697
3.028,-0.6663935,7.8266788,0.61422026,0.61395574,0.063578606,2.7222216
3.03,-0.93855953,7.8535423,0.48788857,0.77501845,0.16043307,2.744713
3.032,-1.2102859,7.8806443,0.3442421,0.926839,0.25590268,2.7659822
3.034,-1.4810681,7.9069676,0.18458879,1.0692153,0.34911746,2.7858226
3.036,-1.7497715,7.9312243,0.010176539,1.2020755,0.43928197,2.8040266
3.038,-2.0155494,7.952327,-0.17763293,1.3254794,0.5256716,2.8203883
3.04,-2.2775366,7.9693165,-0.37718225,1.4395925,0.6076808,2.8347414
3.042,-2.534762,7.9809914,-0.58695924,1.5446764,0.68482435,2.8469095
3.044,-2.786583,7.9863334,-0.8051551,1.6410588,0.75673485,2.8567283
3.046,-3.0321317,7.9843636,-1.0302188,1.7291162,0.82318246,2.8640418
3.048,-3.27062,7.974093,-1.2604189,1.809236,0.8840741,2.8687048
3.05,-3.5015638,7.954799,-1.4940634,1.8818119,0.9394308,2.8705988
3.052,-3.7246444,7.9259324,-1.7294253,1.9471955,0.9893831,2.869617
3.054,-3.9394577,7.88706,-1.9649507,2.0056937,1.0341518,2.865691
3.056,-4.145827,7.8380485,-2.1987455,2.0575583,1.0740123,2.8587596
3.058,-4.343814,7.7787285,-2.429254,2.1030066,1.1092575,2.8488157
3.06,-4.533363,7.7094293,-2.6549149,2.1422331,1.1401782,2.8358934
3.062,-4.714661,7.6304646,-2.874157,2.1754024,1.1670278,2.8200758
3.064,-4.8878074,7.542333,-3.0855112,2.202699,1.1900072,2.8015473
3.066,-5.0530667,7.445657,-3.2876394,2.2243285,1.2092392,2.7805445
3.068,-5.210919,7.341275,-3.4793482,2.2405121,1.2247984,2.7573686
3.07,-5.3615584,7.2300878,-3.659383,2.251478,1.2366731,2.73239
3.072,-5.505486,7.113054,-3.8267994,2.257469,1.2447925,2.7060409
3.074,-5.6430373,6.9913406,-3.9805348,2.2587278,1.2490356,2.678784
3.076,-5.774598,6.865913,-4.1196213,2.2554474,1.2492294,2.6510668
3.078,-5.900944,6.738047,-4.2432556,2.247799,1.2451864,2.6233008
3.08,-6.0224123,6.60897,-4.350582,2.235899,1.2366884,2.5958366
3.082,-6.1393886,6.479706,-4.4409657,2.21985,1.2235073,2.5689049
3.084,-6.2523212,6.351325,-4.5138226,2.1997287,1.2054194,2.5426273
3.086,-6.361644,6.2247715,-4.568723,2.1756272,1.1821997,2.5169969
3.088,-6.4676976,6.1010714,-4.6052685,2.1476426,1.1536714,2.4918926
3.09,-6.5708656,5.9807215,-4.6232433,2.1159024,1.1197069,2.4670837
3.092,-6.671355,5.864463,-4.6225953,2.0805874,1.080251,2.4422512
3.094,-6.769434,5.752698,-4.6032906,2.0419655,1.0353215,2.4170399
3.096,-6.8654065,5.645984,-4.565585,2.0003657,0.98503286,2.3911104
3.098,-6.9595356,5.544471,-4.5096493,1.9561701,0.92962265,2.364177
3.1,-7.051748,5.4482627,-4.436147,1.9098134,0.8694513,2.336019
3.102,-7.1421843,5.3574133,-4.3455276,1.8617752,0.8050066,2.3064861
3.104,-7.230772,5.2719455,-4.2386813,1.812548,0.7369104,2.2754714
3.106,-7.3174496,5.191696,-4.1165504,1.7626429,0.6659065,2.2429223
3.108,-7.4020762,5.116515,-3.9801688,1.7125794,0.59285027,2.208788
3.11,-7.484582,5.046336,-3.8306718,1.6628906,0.5186922,2.1730623
3.112,-7.564736,4.9807634,-3.6695385,1.6140878,0.4444325,2.1357386
3.114,-7.64258,4.9197097,-3.4980807,1.566654,0.3710897,2.096832
3.116,-7.717874,4.86292,-3.3175774,1.5210737,0.29963595,2.0563648
3.118,-7.7905474,4.810313,-3.129725,1.4777615,0.23095953,2.0143692
3.12,-7.8602777,4.761746,-2.935808,1.4370877,0.16585833,1.9709334
3.122,-7.9271374,4.7169886,-2.7374294,1.3993678,0.10498306,1.926199
3.124,-7.9910035,4.6760178,-2.5358834,1.364822,0.048829705,1.8803262
3.126,-8.051843,4.638898,-2.3325734,1.3335805,-0.002247721,1.8335254
3.128,-8.109651,4.605783,-2.129041,1.3056903,-0.04804063,1.7860068
3.13,-8.164513,4.576801,-1.9265683,1.2811092,-0.08846265,1.7379848
3.132,-8.216623,4.5520735,-1.7264223,1.2597108,-0.123535395,1.6896569
3.134,-8.266105,4.531771,-1.529727,1.2413173,-0.15336454,1.6411943
3.136,-8.313124,4.5162106,-1.3374372,1.2256694,-0.17812899,1.5927532
3.138,-8.3576975,4.5053573,-1.1503121,1.2124693,-0.19805995,1.5444493
3.14,-8.400091,4.499361,-0.9690981,1.2013991,-0.21340767,1.496391
3.142,-8.4405155,4.4983783,-0.7943213,1.1921445,-0.22445801,1.448659
3.144,-8.47904,4.5025196,-0.62634706,1.1843854,-0.23150736,1.4012971
3.146,-8.515872,4.5117292,-0.4654863,1.1778291,-0.23482957,1.3543245
3.148,-8.55101,4.5259986,-0.31183004,1.1722276,-0.23463735,1.3077234
3.15,-8.584704,4.545131,-0.1656096,1.1673828,-0.23109841,1.2614255
3.152,-8.616861,4.569047,-0.026676655,1.1631427,-0.2242935,1.2153201
3.154,-8.647358,4.5974693,0.10486245,1.1594112,-0.21423772,1.1692412
3.156,-8.67623,4.630062,0.22919846,1.1561574,-0.20089173,1.1229768
3.158,-8.703345,4.6665516,0.34636474,1.153419,-0.18416685,1.0762892
3.16,-8.728481,4.706438,0.45648766,1.1512975,-0.16395998,1.0289485
3.162,-8.751267,4.7492414,0.55974126,1.149923,-0.14019334,0.98074865
3.164,-8.771415,4.7945437,0.65625286,1.1494328,-0.11280917,0.9315314
3.166,-8.78868,4.8417478,0.74603295,1.1499716,-0.0818135,0.88120645
3.168,-8.802633,4.8903832,0.8292427,1.1516503,-0.047293127,0.8297696
3.17,-8.813051,4.9399843,0.9058206,1.1545074,-0.009413213,0.77730566
3.172,-8.819679,4.9899755,0.9758334,1.1585319,0.031586856,0.72397923
3.174,-8.822313,5.040164,1.0392549,1.1636388,0.07536565,0.67002547
3.176,-8.820664,5.0902853,1.0962923,1.1696706,0.12152438,0.6156999
3.178,-8.814647,5.140182,1.1469204,1.1764184,0.1695949,0.56128997
3.18,-8.804201,5.189746,1.1910629,1.1836375,0.21905752,0.5070765
3.182,-8.789297,5.238902,1.228734,1.1910634,0.26935464,0.45329815
3.184,-8.770019,5.2876782,1.2600789,1.1984569,0.3199023,0.4001565
3.186,-8.746489,5.336233,1.2850604,1.2055924,0.37012005,0.34781128
3.188,-8.718815,5.3846216,1.3039412,1.212293,0.41943356,0.2963729
3.19,-8.687201,5.4331646,1.3167512,1.2184484,0.46731728,0.24589002
3.192,-8.651942,5.482024,1.3237104,1.224005,0.5133066,0.1963767
3.194,-8.613378,5.531423,1.3250108,1.2289584,0.556996,0.14782391
3.196,-8.571927,5.5816984,1.3208091,1.233356,0.59809256,0.100208625
3.198,-8.527911,5.6330576,1.3112693,1.2372898,0.6363862,0.05350001
3.2,-8.481758,5.685801,1.2968307,1.2408912,0.6717638,0.007672861
3.202,-8.433734,5.739959,1.2778084,1.244297,0.7041775,-0.03731455
3.204,-8.384373,5.795797,1.2544994,1.2476743,0.7336568,-0.08148048
3.206,-8.333971,5.8532567,1.2273293,1.2512085,0.7602776,-0.12485637
3.208,-8.282953,5.91243,1.196552,1.2550724,0.784146,-0.16746098
3.21,-8.231618,5.9732685,1.1628141,1.2594118,0.8053985,-0.20930864
3.212,-8.1802635,6.035591,1.126447,1.2643456,0.8241554,-0.2504346
3.214,-8.128919,6.0992336,1.0879226,1.2699949,0.8405415,-0.29089844
3.216,-8.078071,6.164074,1.0476232,1.276442,0.8546668,-0.3307456
3.218,-8.027856,6.2298446,1.0060754,1.2837516,0.86660373,-0.37004727
3.22,-7.9781656,6.2960777,0.9637284,1.2919565,0.87642765,-0.4088687
3.222,-7.929194,6.3625774,0.9211285,1.3010571,0.8841912,-0.44725853
3.224,-7.880687,6.4288845,0.8786938,1.3110372,0.8899367,-0.48527092
3.226,-7.832592,6.4946804,0.8368354,1.3218559,0.89370453,-0.5229522
3.228,-7.784883,6.5597095,0.7961433,1.3334742,0.8955311,-0.5603458
3.23,-7.737441,6.6235857,0.7569232,1.3458263,0.8954597,-0.5974513
3.232,-7.6898174,6.6858864,0.7198305,1.3588601,0.8935408,-0.63426924
3.234,-7.6418633,6.746342,0.6851554,1.3725165,0.8898332,-0.6707761
3.236,-7.5933642,6.8046017,0.65337515,1.3867213,0.8843837,-0.70692
3.238,-7.5439153,6.8603764,0.6249223,1.4014053,0.8772641,-0.7426488
3.24,-7.493185,6.9134383,0.6001854,1.416503,0.86852515,-0.77790844
3.242,-7.440771,6.963606,0.57942605,1.4319338,0.8582383,-0.8126193
3.244,-7.3863087,7.0106797,0.56299305,1.447601,0.84644544,-0.84668624
3.246,-7.3294888,7.054603,0.55108404,1.4634066,0.83319366,-0.88003147
3.248,-7.2699633,7.095256,0.5438533,1.4792567,0.8185267,-0.91258806
3.25,-7.2073126,7.1327467,0.5414281,1.4950523,0.80248773,-0.9442975
3.252,-7.1412973,7.166997,0.5439267,1.5106993,0.7851182,-0.9751235
3.254,-7.07165,7.1980877,0.5513911,1.5260997,0.7664783,-1.0050454
3.256,-6.9981523,7.2261877,0.5636959,1.5411832,0.74664813,-1.0340452
3.258,-6.92047,7.2514668,0.5807338,1.555878,0.7257202,-1.0621388
3.26,-6.838632,7.274057,0.602468,1.5701197,0.7038065,-1.0893342
3.262,-6.752469,7.2941666,0.62858725,1.5838733,0.68103707,-1.1156709
3.264,-6.6620026,7.311974,0.65906715,1.5971303,0.6575646,-1.1411815
3.266,-6.5672717,7.327812,0.693522,1.6098841,0.63356125,-1.1658937
3.268,-6.468337,7.3418164,0.7317209,1.6221232,0.60916924,-1.1898386
3.27,-6.3653255,7.3542633,0.7734728,1.6338891,0.5845317,-1.2130448
3.272,-6.2585344,7.365337,0.8183346,1.6452116,0.55979407,-1.2355337
3.274,-6.1483455,7.375247,0.86595297,1.6561294,0.53507096,-1.2573414
3.276,-6.038064,7.384527,0.91454697,1.6666876,0.51046723,-1.2785083
3.278,-5.925764,7.393304,0.96483755,1.676939,0.48607832,-1.2990738
3.28,-5.811844,7.401655,1.0165246,1.686919,0.4619822,-1.3190788
3.282,-5.69698,7.4098663,1.0691552,1.6966515,0.43826073,-1.3385634
3.284,-5.581673,7.4179792,1.1223359,1.7061899,0.41497225,-1.3575938
3.286,-5.4666185,7.4261136,1.1756492,1.715559,0.392173,-1.376229
3.288,-5.352275,7.434307,1.22875,1.7247944,0.36989415,-1.3945345
3.29,-5.2393093,7.44258,1.281364,1.7339513,0.34817475,-1.4125679
3.292,-5.1281357,7.4509277,1.333211,1.7430836,0.32702643,-1.4303833
3.294,-5.0194063,7.459342,1.383913,1.7522452,0.3064627,-1.448008
3.296,-4.9134674,7.4677296,1.4332798,1.7614949,0.28647786,-1.465481
3.298,-4.81071,7.476055,1.4810476,1.770874,0.2670638,-1.4828212
3.3,-4.711583,7.4841585,1.5270414,1.7804288,0.24821556,-1.5000447
3.302,-4.616394,7.4920735,1.5711708,1.7901853,0.22991318,-1.517145
3.304,-4.5253134,7.499655,1.6133466,1.799765,0.21269667,-1.5335753
3.306,-4.438472,7.5067825,1.6535821,1.8093538,0.19625974,-1.5495951
3.308,-4.356001,7.513441,1.6919165,1.8188725,0.18064916,-1.5651002
3.31,-4.2779164,7.519552,1.7281773,1.8282253,0.1659227,-1.5799764
3.312,-4.204409,7.525137,1.7624848,1.8373053,0.15213543,-1.5940917
3.314,-4.1351433,7.5300884,1.794842,1.8460128,0.13932288,-1.607342
3.316,-4.0700827,7.5343814,1.8253357,1.8542552,0.12751651,-1.6196268
3.318,-4.009065,7.537985,1.8539743,1.8619567,0.1167115,-1.6308895
3.32,-3.9520736,7.5409184,1.8808341,1.8690817,0.10689294,-1.641109
3.322,-3.8988252,7.5432467,1.9059458,1.8756065,0.09802896,-1.6502955
3.324,-3.8493347,7.5449696,1.9294386,1.8815198,0.09007144,-1.6585019
3.326,-3.8030937,7.54601,1.9515119,1.886851,0.082947075,-1.6657946
