Time_s_,Acc_x_m_s_2_,Acc_y_m_s_2_,Acc_z_m_s_2_,Gyro_x_1_s_,Gyro_y_1_s_,Gyro_z_1_s_
0,0.08540411,-0.0010924991,0.18316066,0.23938546,0.48291513,-0.16051263
0.002,0.10307019,-0.0073364284,0.17380236,0.2371197,0.48763436,-0.16341692
0.004,0.121358454,-0.013770611,0.16475597,0.23462829,0.49280244,-0.16661786
0.006,0.14043817,-0.020308241,0.15615933,0.2318835,0.4984257,-0.17010829
0.008,0.16024365,-0.026989335,0.1479938,0.22888364,0.50449204,-0.17385612
0.01,0.18076175,-0.03375954,0.14045097,0.22562236,0.51096153,-0.17782176
0.012,0.2018217,-0.040489804,0.13364638,0.22210962,0.5177404,-0.18192159
0.014,0.22344545,-0.04706286,0.12782614,0.21834046,0.5246816,-0.18606311
0.016,0.24534242,-0.053230815,0.123170935,0.21432418,0.5315855,-0.19014364
0.018,0.26750422,-0.059016343,0.11977262,0.21008196,0.5382052,-0.19405949
0.02,0.2896738,-0.06425496,0.11791688,0.2056441,0.5442867,-0.19771889
0.022,0.3118229,-0.068969026,0.11771014,0.2010617,0.5495744,-0.20106682
0.024,0.33374757,-0.072895765,0.11927877,0.19638468,0.55384016,-0.2040653
0.026,0.3554126,-0.07607652,0.122596696,0.19168253,0.5569471,-0.206709
0.028,0.37657705,-0.07826819,0.12765786,0.1869402,0.5590685,-0.20911303
0.03,0.39709416,-0.079299,0.13434519,0.18243125,0.5599425,-0.21112666
0.032,0.41669282,-0.078913175,0.14254758,0.17824404,0.5598261,-0.212749
0.034,0.43524528,-0.07694834,0.15211537,0.17448257,0.5590268,-0.21395954
0.036,0.4526618,-0.07321494,0.16280185,0.17124887,0.55792576,-0.21468759
0.038,0.46877396,-0.067495294,0.17433734,0.16863722,0.5569298,-0.21482627
0.04,0.48374686,-0.059683606,0.18627685,0.16674039,0.5564585,-0.21424985
0.042,0.49744877,-0.049717337,0.19806293,0.16561,0.5568988,-0.21282199
0.044,0.51004803,-0.03753993,0.20900725,0.16527902,0.55859536,-0.21041344
0.046,0.5218341,-0.023144245,0.21835227,0.16574815,0.5618271,-0.20693082
0.048,0.5329276,-0.0064034015,0.22521472,0.16699505,0.5667922,-0.20232585
0.05,0.54376924,0.0126268715,0.22879118,0.16895717,0.5735726,-0.19660017
0.052,0.5547835,0.033852935,0.22836646,0.17154577,0.5821199,-0.18979916
0.054,0.56635666,0.057329312,0.22307554,0.17466709,0.59224916,-0.18198493
0.056,0.57950187,0.08313744,0.21165782,0.1782173,0.6036556,-0.17323217
0.058,0.59381396,0.1112649,0.19415663,0.18207055,0.61592454,-0.16363907
0.06,0.60966873,0.14167209,0.16984099,0.18609041,0.62852687,-0.15331383
0.062,0.6274718,0.17410432,0.13825794,0.19012998,0.64084744,-0.14236553
0.064,0.6478363,0.20856796,0.098950475,0.19402811,0.65218616,-0.13089556
0.066,0.6709758,0.24484329,0.051726446,0.19761518,0.6617899,-0.11900618
0.068,0.6970625,0.28286946,-0.0034489632,0.20072474,0.668897,-0.10679312
0.07,0.72628826,0.3225649,-0.06654659,0.2031903,0.6727675,-0.09436956
0.072,0.7587297,0.36364627,-0.13705663,0.2048533,0.67271125,-0.081847206
0.074,0.79443645,0.40613168,-0.21434747,0.20559235,0.6681179,-0.06936051
0.076,0.8330276,0.44991136,-0.29762858,0.2053315,0.6585644,-0.05704747
0.078,0.8742318,0.49508014,-0.38599545,0.2040757,0.6438188,-0.04508914
0.08,0.91777194,0.54143846,-0.47844252,0.20189357,0.62387925,-0.03367041
0.082,0.96325934,0.5888494,-0.5738975,0.1989074,0.59900874,-0.02296333
0.084,1.0101227,0.6371616,-0.6713085,0.19530627,0.569746,-0.013104051
0.086,1.0577178,0.68641055,-0.7695596,0.19132185,0.53684175,-0.0041870773
0.088,1.1054779,0.73653316,-0.86760527,0.18720445,0.5012343,0.0037750602
0.09,1.1526713,0.7874955,-0.96440864,0.18320397,0.4639477,0.010838196
0.092,1.1985805,0.8393697,-1.0589615,0.17954919,0.42604208,0.017168492
0.094,1.2424409,0.8921932,-1.1503041,0.17642578,0.38851556,0.02301924
0.096,1.2835898,0.9460672,-1.2375998,0.17399268,0.35224372,0.028700054
0.098,1.3211977,1.0010839,-1.3201051,0.17234483,0.31792387,0.03453868
0.1,1.3548121,1.0570927,-1.3972664,0.17153816,0.2860656,0.04086914
0.102,1.3837836,1.1143625,-1.4686046,0.17159735,0.25696215,0.047997057
0.104,1.4073955,1.1728656,-1.533776,0.17250633,0.23074454,0.056168206
0.106,1.4254286,1.2325191,-1.5924845,0.17422625,0.20740938,0.06554366
0.108,1.4374658,1.2936343,-1.6445978,0.17670932,0.18681982,0.07617958
0.11,1.4434186,1.3560352,-1.6899759,0.17989303,0.1687383,0.08807864
0.112,1.4429964,1.4197725,-1.7288747,0.18372181,0.15287094,0.101196975
0.114,1.4362502,1.4848635,-1.7617061,0.1881539,0.13890147,0.11550066
0.116,1.4232359,1.5512502,-1.7890055,0.19313304,0.12650712,0.13099876
0.118,1.4041784,1.6188588,-1.8112462,0.1986292,0.11539245,0.14772917
0.12,1.379386,1.6877649,-1.8292783,0.20461774,0.105285436,0.16577488
0.122,1.3495481,1.7578714,-1.8437371,0.21107757,0.09592028,0.18526584
0.124,1.3148966,1.8291472,-1.85562,0.21797399,0.087066114,0.20635629
0.126,1.2761894,1.9013852,-1.8657604,0.22525504,0.07851974,0.22915672
0.128,1.2340567,1.9745231,-1.8748467,0.23286244,0.07009876,0.2537598
0.13,1.1892276,2.0484817,-1.8837175,0.24071883,0.061616607,0.2801851
0.132,1.1421635,2.123217,-1.8931233,0.24872562,0.05291228,0.3083826
0.134,1.0936017,2.198622,-1.9034455,0.2567756,0.043791354,0.33819318
0.136,1.0440363,2.274814,-1.9150223,0.2647439,0.034005493,0.36937
0.138,0.99414563,2.3516555,-1.9281313,0.27250642,0.02325847,0.40161824
0.14,0.9445661,2.4291258,-1.9429069,0.27991828,0.011207694,0.43459642
0.142,0.895824,2.507034,-1.9594281,0.28681904,-0.0025665686,0.46794388
0.144,0.8484145,2.5853646,-1.9776111,0.29303798,-0.018529817,0.5013333
0.146,0.80263215,2.6638992,-1.9971185,0.29841012,-0.037178487,0.5344556
0.148,0.75872445,2.7424316,-2.0175343,0.30279246,-0.058968198,0.5670655
0.15,0.7168009,2.8209586,-2.038107,0.30605036,-0.084273644,0.5989816
0.152,0.67714,2.8995812,-2.0579572,0.30809006,-0.113336824,0.63007885
0.154,0.6396624,2.9784422,-2.0764198,0.30886653,-0.14622998,0.66027
0.156,0.60409427,3.057559,-2.0925364,0.30837134,-0.18283564,0.6895024
0.158,0.5704801,3.1367602,-2.1053207,0.3066695,-0.22285856,0.7177431
0.16,0.5384847,3.216066,-2.1140761,0.3038473,-0.26582965,0.74497837
0.162,0.50785923,3.2953768,-2.1179752,0.30004418,-0.31113935,0.77120686
0.164,0.47836077,3.3744752,-2.1161823,0.29543453,-0.35809255,0.7963929
0.166,0.44983578,3.4532156,-2.108039,0.29023066,-0.40596557,0.82047224
0.168,0.42199326,3.5315182,-2.0930128,0.28465644,-0.45403892,0.84336114
0.17,0.39447415,3.6093798,-2.0708203,0.27897006,-0.5016513,0.8649503
0.172,0.36692262,3.6869216,-2.0415144,0.27343032,-0.54823005,0.88517153
0.174,0.33916795,3.7640672,-2.0050023,0.2683046,-0.59329116,0.9040098
0.176,0.31098485,3.840855,-1.9616675,0.26388317,-0.6364318,0.92153233
0.178,0.28220427,3.9172893,-1.9118457,0.2604418,-0.67733324,0.9379065
0.18,0.2526033,3.9932756,-1.8557558,0.25825602,-0.71571493,0.9534127
0.182,0.22238529,4.068815,-1.7940768,0.25756958,-0.75133026,0.96838117
0.184,0.1914618,4.14375,-1.7277665,0.2585924,-0.7839643,0.98318386
0.186,0.1598463,4.2181063,-1.6574093,0.2615016,-0.8134335,0.9981931
0.188,0.12713408,4.291991,-1.5836467,0.26642975,-0.8395729,1.0137892
0.19,0.09315872,4.36594,-1.5073271,0.2734739,-0.8622545,1.0302901
0.192,0.057968616,4.4400525,-1.4290924,0.2826449,-0.88143516,1.0479357
0.194,0.021447659,4.5149164,-1.3500823,0.29388285,-0.8971499,1.0669142
0.196,-0.016221285,4.590864,-1.2720402,0.3070312,-0.90953064,1.087339
0.198,-0.055014133,4.667852,-1.1959363,0.32182878,-0.91882944,1.1092535
0.2,-0.095227,4.7459197,-1.1223633,0.33792722,-0.9254029,1.1326251
0.202,-0.1369381,4.8252487,-1.052102,0.35489267,-0.92972434,1.157376
0.204,-0.18005085,4.9061556,-0.9859122,0.37226176,-0.9323073,1.1833973
0.206,-0.22472978,4.989065,-0.92487204,0.38957232,-0.933666,1.2105534
0.208,-0.27133036,5.0742483,-0.8700067,0.40640807,-0.93429697,1.2386905
0.21,-0.32023692,5.162046,-0.82198036,0.42246634,-0.9346191,1.2676435
0.212,-0.37176776,5.252824,-0.78123593,0.43756157,-0.9349381,1.2972482
0.214,-0.42589068,5.3467665,-0.7481812,0.45165128,-0.93543744,1.3273485
0.216,-0.48248982,5.4440217,-0.72396076,0.4647699,-0.93624914,1.3578272
0.218,-0.5411792,5.5442343,-0.7095318,0.47703308,-0.9374246,1.3885776
0.22,-0.60170364,5.6473475,-0.70578,0.48856765,-0.93895864,1.419512
0.222,-0.6638942,5.7530107,-0.7130784,0.49948418,-0.9408575,1.4505565
0.224,-0.7274802,5.860823,-0.7312548,0.50985754,-0.9430913,1.4816589
0.226,-0.79201055,5.9702544,-0.7602843,0.51975405,-0.9456371,1.512682
0.228,-0.856699,6.080659,-0.8004458,0.52917165,-0.9485433,1.5434399
0.23,-0.92047715,6.1910343,-0.85187984,0.5380593,-0.9518512,1.5738044
0.232,-0.98251987,6.300403,-0.914727,0.54631907,-0.9556299,1.6037047
0.234,-1.0417874,6.4078503,-0.9881891,0.5538014,-0.960014,1.6330974
0.236,-1.0972424,6.512472,-1.0720295,0.56035435,-0.96522504,1.6619394
0.238,-1.1474135,6.6132135,-1.1659337,0.5658237,-0.97160864,1.6901649
0.24,-1.1909473,6.7086987,-1.2691497,0.57006043,-0.9796783,1.7176332
0.242,-1.2263851,6.797677,-1.3803872,0.5728731,-0.9901385,1.7440743
0.244,-1.2523527,6.878936,-1.4981071,0.5740057,-1.0038629,1.7690908
0.246,-1.2676961,6.951397,-1.620386,0.57312477,-1.0219005,1.7921834
0.248,-1.2715573,7.0141497,-1.7450497,0.5698064,-1.0454938,1.8127143
0.25,-1.2632439,7.0665197,-1.869812,0.5635361,-1.075985,1.8300078
0.252,-1.2422295,7.107977,-1.9921337,0.55373335,-1.1147671,1.8433759
0.254,-1.2080233,7.137615,-2.1089964,0.5397301,-1.1631826,1.8521892
0.256,-1.1604369,7.1551347,-2.2172794,0.5208245,-1.2223892,1.8558933
0.258,-1.0995939,7.1600823,-2.3139284,0.4963717,-1.2932937,1.8540516
0.26,-1.0259233,7.1522627,-2.3959951,0.4658622,-1.3764434,1.8463266
0.262,-0.93999815,7.1315947,-2.4609582,0.42902243,-1.4719489,1.8324872
0.264,-0.8424864,7.0980926,-2.5059588,0.38584596,-1.5794704,1.8123751
0.266,-0.7340441,7.0520515,-2.5286953,0.336671,-1.6981592,1.7859725
0.268,-0.615999,6.994268,-2.5267553,0.28214514,-1.8266646,1.7534019
0.27,-0.48944902,6.9253983,-2.4981515,0.22321224,-1.9632008,1.7149382
0.272,-0.35576296,6.8462515,-2.4412553,0.16107571,-2.1056895,1.6710844
0.274,-0.21667671,6.757512,-2.354689,0.09713042,-2.251814,1.6225567
0.276,-0.0736506,6.659816,-2.2371583,0.032853007,-2.3990893,1.5702127
0.278,0.07170224,6.5538406,-2.0879893,-0.030312419,-2.5450425,1.5150168
0.28,0.21775961,6.4405336,-1.9067218,-0.09101188,-2.687228,1.4580284
0.282,0.36276817,6.320805,-1.693512,-0.14801502,-2.8233151,1.4001966
0.284,0.50479174,6.1959,-1.4494392,-0.2002908,-2.9512427,1.3423173
0.286,0.6424637,6.06714,-1.1753669,-0.24702585,-3.0691848,1.285018
0.288,0.77395463,5.9359283,-0.8728297,-0.2876376,-3.175548,1.2287412
0.29,0.8980391,5.8034387,-0.54492545,-0.3217851,-3.2689834,1.1737921
0.292,1.0133004,5.6705666,-0.1943574,-0.34934247,-3.3483686,1.1202973
0.294,1.1188371,5.5386467,0.17576885,-0.3703816,-3.4127915,1.0682371
0.296,1.2139196,5.408689,0.5616472,-0.385105,-3.4615467,1.0174954
0.298,1.2982992,5.2813005,0.95937073,-0.39383042,-3.4941168,0.967861
0.3,1.3715742,5.1568127,1.365056,-0.39694417,-3.5101266,0.919009
0.302,1.4336283,5.035904,1.7745048,-0.39487362,-3.509345,0.87060505
0.304,1.4849764,4.918456,2.1838264,-0.38804543,-3.4916773,0.8222928
0.306,1.5261459,4.8045397,2.5895703,-0.376853,-3.4572096,0.7737541
0.308,1.5584096,4.6940465,2.9880817,-0.36160457,-3.406261,0.7247594
0.31,1.5828395,4.5870113,3.375329,-0.34253812,-3.3394563,0.6751546
0.312,1.6011288,4.482338,3.74748,-0.31989765,-3.2577178,0.62485963
0.314,1.6139152,4.3785853,4.101603,-0.2939769,-3.1623082,0.573844
0.316,1.6238623,4.2738667,4.4351263,-0.2651472,-3.0547981,0.5221055
0.318,1.6344962,4.166095,4.744653,-0.23389518,-2.9368925,0.46963006
0.32,1.6471013,4.05393,5.0272093,-0.20090461,-2.8104968,0.41633028
0.322,1.6629034,3.9364686,5.28056,-0.1670245,-2.6776881,0.3621621
0.324,1.6844066,3.8128471,5.5013847,-0.1331923,-2.5404809,0.30715734
0.326,1.7136056,3.6816807,5.686989,-0.10045236,-2.4007897,0.25134993
0.328,1.7520211,3.5411777,5.836646,-0.06986463,-2.2603774,0.19484222
0.33,1.8003408,3.3898306,5.950712,-0.042425692,-2.12084,0.13787055
0.332,1.8595945,3.2265422,6.029358,-0.01902175,-1.983567,0.0807876
0.334,1.9305503,3.0496373,6.0731206,-0.00035732985,-1.8497642,0.023984373
0.336,2.0132294,2.8577352,6.0831037,0.013074279,-1.7204912,-0.03211987
0.338,2.1037364,2.6506593,6.061659,0.020958424,-1.5967485,-0.087216705
0.34,2.204193,2.4256687,6.014405,0.023155093,-1.4794315,-0.1410737
0.342,2.3165472,2.1813283,5.9411206,0.01974243,-1.3692048,-0.19363132
0.344,2.4380858,1.9193518,5.84048,0.010996014,-1.2666351,-0.24499914
0.346,2.5687943,1.6426367,5.716986,-0.0025695562,-1.1717895,-0.2951683
0.348,2.7122102,1.3525437,5.577493,-0.020168751,-1.0841883,-0.3439695
0.35,2.8632548,1.0542687,5.4244494,-0.040914714,-1.003074,-0.39114517
0.352,3.0162973,0.75642604,5.252974,-0.063812986,-0.9270285,-0.4362053
0.354,3.1727846,0.46561486,5.0589223,-0.087708876,-0.8536658,-0.47831106
0.356,3.3362586,0.18634087,4.8446264,-0.11137305,-0.780056,-0.5164446
0.358,3.506224,-0.078899175,4.6141944,-0.13354191,-0.7030393,-0.5494145
0.36,3.6782334,-0.32944715,4.368423,-0.15303789,-0.61928403,-0.5758324
0.362,3.849566,-0.56605595,4.1071963,-0.16884017,-0.525612,-0.5943761
0.364,4.0175385,-0.7852679,3.8264432,-0.18020016,-0.4195244,-0.60395634
0.366,4.182135,-0.9825913,3.5210106,-0.18671691,-0.29961613,-0.60388577
0.368,4.342665,-1.153394,3.1913917,-0.18847641,-0.16588074,-0.594022
0.37,4.498956,-1.2944418,2.842673,-0.18606924,-0.01980403,-0.57473475
0.372,4.6499033,-1.3979529,2.4792151,-0.18039082,0.13541384,-0.54660213
0.374,4.7955017,-1.4559857,2.1018596,-0.17275426,0.2948335,-0.510314
0.376,4.936492,-1.4636154,1.7099459,-0.16473734,0.45285845,-0.46678984
0.378,5.072134,-1.4168813,1.3038054,-0.15784648,0.60389894,-0.41715068
0.38,5.1998935,-1.3121123,0.88562423,-0.15292144,0.74318695,-0.36228472
0.382,5.316429,-1.1465032,0.45777202,-0.14985451,0.8673713,-0.30227238
0.384,5.4180574,-0.91973126,0.02246952,-0.14754105,0.9752401,-0.23619932
0.386,5.500271,-0.6343149,-0.41869032,-0.14388317,1.0677379,-0.16291371
0.388,5.559179,-0.29540086,-0.86432254,-0.1357373,1.1482674,-0.0816834
0.39,5.591319,0.08993101,-1.3132199,-0.119497985,1.2218815,0.007489085
0.392,5.5937176,0.51359963,-1.7645826,-0.091552526,1.2942171,0.103850424
0.394,5.5644245,0.9658885,-2.2175372,-0.048111647,1.371341,0.20525864
0.396,5.502021,1.4353544,-2.6710222,0.014292687,1.4586735,0.30724356
0.398,5.4061985,1.9094862,-3.1231904,0.097708166,1.559767,0.40276766
0.4,5.277762,2.3758051,-3.5706713,0.20180136,1.6758813,0.48328382
0.402,5.1183586,2.822357,-4.0096946,0.32378137,1.8061967,0.53912956
0.404,4.932169,3.2373347,-4.4357796,0.4587229,1.9474864,0.56019676
0.406,4.7240853,3.6100917,-4.8441243,0.5997566,2.0933022,0.5376091
0.408,4.499762,3.9317822,-5.229254,0.73863983,2.2343476,0.46534395
0.41,4.2663126,4.1950855,-5.5861044,0.8665417,2.3597775,0.34162307
0.412,4.030976,4.3941045,-5.9099045,0.9748214,2.4581902,0.16952431
0.414,3.8015878,4.52506,-6.195846,1.0559419,2.5186737,-0.04299426
0.416,3.5860982,4.586306,-6.4394827,1.1042094,2.5321982,-0.28353524
0.418,3.3918166,4.5787177,-6.636924,1.1162794,2.4929051,-0.5364306
0.42,3.226021,4.505155,-6.7841086,1.0912834,2.3990016,-0.78450286
0.422,3.0944428,4.371239,-6.8776546,1.0308084,2.2532356,-1.011243
0.424,3.0025396,4.184187,-6.916062,0.9386087,2.06278,-1.2030925
0.426,2.9525824,3.9528453,-6.898659,0.82016355,1.838716,-1.351076
0.428,2.9454489,3.6868868,-6.8252354,0.6824652,1.5951288,-1.4513699
0.43,2.9825873,3.3955758,-6.6974554,0.53337336,1.3469635,-1.505085
0.432,3.063405,3.0879104,-6.518938,0.38092893,1.1086437,-1.517547
0.434,3.1832576,2.7731338,-6.293867,0.23271054,0.8928019,-1.4974108
0.436,3.337755,2.4601521,-6.0263567,0.09541315,0.70922387,-1.4554291
0.438,3.521354,2.1573591,-5.7237415,-0.02542156,0.5640973,-1.4026756
0.44,3.7282815,1.871462,-5.3941355,-0.1257844,0.45994377,-1.3485738
0.442,3.9513948,1.6079377,-5.0452023,-0.20362365,0.39545736,-1.299969
0.444,4.182876,1.3716295,-4.6846867,-0.2586035,0.36656645,-1.2610981
0.446,4.415242,1.166064,-4.3200264,-0.29209438,0.36739,-1.2339818
0.448,4.6440516,0.9927776,-3.9583879,-0.30738667,0.39041427,-1.2184275
0.45,4.8588333,0.85494447,-3.6081307,-0.30885908,0.42792523,-1.212147
0.452,5.0518446,0.75294757,-3.2705152,-0.30080634,0.47332674,-1.2117753
0.454,5.2208,0.6840787,-2.9468207,-0.28681815,0.52110916,-1.2142584
0.456,5.36083,0.64560866,-2.6426134,-0.2699404,0.5670676,-1.2166756
0.458,5.4658356,0.6368294,-2.362886,-0.25264058,0.6089846,-1.2163011
0.46,5.539698,0.65417266,-2.106736,-0.23662883,0.6467187,-1.2114674
0.462,5.5855784,0.6925914,-1.8671559,-0.22292173,0.68142855,-1.2016782
0.464,5.600136,0.7507582,-1.6399755,-0.21191233,0.71482307,-1.1873586
0.466,5.581625,0.8298547,-1.4280851,-0.20350426,0.748646,-1.169487
0.468,5.533379,0.93213356,-1.2336048,-0.19736898,0.7842443,-1.1492841
0.47,5.462614,1.0593221,-1.0524642,-0.19322318,0.8222366,-1.1280667
0.472,5.3736687,1.2125175,-0.8814342,-0.19093859,0.8624743,-1.1071665
0.474,5.2701206,1.3876243,-0.71553576,-0.19051182,0.90404284,-1.0878059
0.476,5.1537275,1.5789919,-0.5502306,-0.19209754,0.9453891,-1.070879
0.478,5.027542,1.7814114,-0.3868165,-0.19598496,0.98454726,-1.0568436
0.48,4.893837,1.9912262,-0.2292049,-0.20251548,1.0194985,-1.045904
0.482,4.7559805,2.200876,-0.07804608,-0.21197826,1.0484158,-1.0381374
0.484,4.6158447,2.4044104,0.06992233,-0.22447008,1.0700386,-1.0335324
0.486,4.4750795,2.5995502,0.21867228,-0.2398588,1.0837781,-1.0319542
0.488,4.3370705,2.7843382,0.36965418,-0.25774038,1.0898049,-1.0330833
0.49,4.2057343,2.9567063,0.522678,-0.2774105,1.0891262,-1.0363963
0.492,4.084793,3.1148472,0.67713773,-0.2979558,1.083343,-1.0412073
0.494,3.976757,3.258584,0.83246124,-0.31831098,1.0745697,-1.0466464
0.496,3.883813,3.3886552,0.9878645,-0.33729208,1.065349,-1.0517552
0.498,3.8066447,3.5063028,1.1423743,-0.35377622,1.058166,-1.055644
0.5,3.745173,3.6119313,1.2946134,-0.36679566,1.0552723,-1.0574901
0.502,3.698604,3.7053869,1.4433982,-0.37548625,1.0587475,-1.0565815
0.504,3.6658306,3.7863092,1.5872507,-0.37916,1.0702983,-1.0524307
0.506,3.6459563,3.8548942,1.7232252,-0.37727112,1.0912026,-1.04478
0.508,3.636774,3.9117918,1.8485863,-0.3693999,1.1225109,-1.0335476
0.51,3.637982,3.9563777,1.9594433,-0.35522962,1.1651001,-1.0188361
0.512,3.6483545,3.9883306,2.0515866,-0.3345493,1.2197138,-1.0009134
0.514,3.6657653,4.007313,2.1216407,-0.30727386,1.2869107,-0.98011374
0.516,3.6897569,4.01306,2.1664805,-0.27345568,1.3670297,-0.9568033
0.518,3.7198753,4.0055676,2.183535,-0.2333315,1.4600794,-0.9313437
0.52,3.7557411,3.984919,2.1715417,-0.18739873,1.5655446,-0.9040625
0.522,3.7970166,3.9520433,2.1300168,-0.13646317,1.6822138,-0.8752804
0.524,3.8433738,3.9077892,2.0588427,-0.08159459,1.8081559,-0.845212
0.526,3.894491,3.8528783,1.9580567,-0.024092674,1.9406483,-0.81401247
0.528,3.950397,3.7878165,1.8276825,0.03450179,2.0762563,-0.78179985
0.53,4.0108047,3.7127788,1.668094,0.09255803,2.2110372,-0.74868566
0.532,4.075096,3.6275997,1.4809023,0.14841163,2.3407621,-0.71479046
0.534,4.1424136,3.5322616,1.2683865,0.2004168,2.461071,-0.68022794
0.536,4.2118206,3.4264464,1.0333428,0.24701214,2.5676885,-0.64515746
0.538,4.281682,3.3102593,0.778803,0.28672433,2.6567345,-0.6099004
0.54,4.35036,3.1839664,0.50840735,0.31827927,2.7247484,-0.57475775
0.542,4.4174204,3.0474055,0.22644413,0.34049428,2.7686963,-0.5401265
0.544,4.4815593,2.9009533,-0.0620178,0.35232925,2.7861319,-0.50644666
0.546,4.540463,2.7451792,-0.3519119,0.35286832,2.7752073,-0.47420752
0.548,4.5925484,2.5808277,-0.6377579,0.3413186,2.7345917,-0.4439786
0.55,4.6361074,2.4088109,-0.91470766,0.31702924,2.6635008,-0.41630876
0.552,4.669569,2.2296987,-1.1777332,0.27961576,2.5619535,-0.39164788
0.554,4.691137,2.0440648,-1.4215741,0.22900712,2.4307208,-0.37037724
0.556,4.69954,1.8521912,-1.6402705,0.16538644,2.2712655,-0.3527618
0.558,4.693859,1.654335,-1.8285213,0.089301646,2.0859609,-0.33884734
0.56,4.671863,1.4514042,-1.9824693,0.001676023,1.8780898,-0.32856393
0.562,4.632397,1.2448224,-2.0983782,-0.09619969,1.6516721,-0.32175454
0.564,4.575044,1.0362084,-2.1734672,-0.20271403,1.4113641,-0.31814483
0.566,4.4997835,0.8270726,-2.2068834,-0.31601122,1.1623273,-0.3173797
0.568,4.406481,0.61824346,-2.1997218,-0.4340589,0.90997696,-0.31909317
0.57,4.296425,0.40956855,-2.1525807,-0.55474794,0.6597549,-0.3230001
0.572,4.1708717,0.20060468,-2.0663564,-0.6759392,0.41695538,-0.32894844
0.574,4.029934,-0.007973433,-1.9423018,-0.7955684,0.18633263,-0.33694986
0.576,3.876649,-0.21608686,-1.782108,-0.9117872,-0.028074116,-0.34717697
0.578,3.7170055,-0.4253584,-1.5885222,-1.0229877,-0.2230341,-0.35998458
0.58,3.5529954,-0.636438,-1.3662775,-1.127898,-0.3963433,-0.37588242
0.582,3.385094,-0.84894943,-1.121939,-1.2255685,-0.5468371,-0.39548987
0.584,3.2178288,-1.0626806,-0.86407304,-1.3153985,-0.6743447,-0.41948822
0.586,3.0559235,-1.2769551,-0.59969395,-1.3970702,-0.7795938,-0.4485871
0.588,2.900831,-1.4906256,-0.33055922,-1.470412,-0.86390626,-0.48338327
0.59,2.7538342,-1.7030914,-0.05605121,-1.5353656,-0.9290657,-0.52431834
0.592,2.6202466,-1.9159272,0.22012529,-1.5918939,-0.97708917,-0.5715025
0.594,2.5028164,-2.1306787,0.49342403,-1.6400044,-1.00971,-0.62500006
0.596,2.3993073,-2.3453736,0.7628988,-1.679683,-1.0282947,-0.6848081
0.598,2.3118258,-2.556414,1.0260704,-1.7108591,-1.0339293,-0.75082815
0.6,2.24325,-2.7599614,1.2763829,-1.7333115,-1.0272388,-0.822723
0.602,2.1954541,-2.954514,1.506423,-1.7467818,-1.0086224,-0.8999489
0.604,2.169857,-3.1405053,1.7100327,-1.7512076,-0.9785539,-0.9818222
0.606,2.1660028,-3.3171668,1.8835874,-1.746775,-0.93747175,-1.0674894
0.608,2.1828423,-3.482827,2.0255172,-1.7338907,-0.8859776,-1.1560154
0.61,2.2183309,-3.6355577,2.1342297,-1.713187,-0.82533896,-1.2466643
0.612,2.2702937,-3.7734423,2.208005,-1.6856699,-0.75762254,-1.3388243
0.614,2.3361778,-3.8938923,2.2464948,-1.6529087,-0.6856965,-1.4315133
0.616,2.4124625,-3.992886,2.2511656,-1.6170056,-0.61347395,-1.5234249
0.618,2.4970174,-4.067547,2.2235854,-1.5801643,-0.54571325,-1.6132139
0.62,2.5823917,-4.112776,2.1671906,-1.5442765,-0.48701233,-1.6993784
0.622,2.6651883,-4.125342,2.0824687,-1.5106581,-0.44119975,-1.7800733
0.624,2.7433376,-4.1037436,1.9687384,-1.4800982,-0.4117935,-1.8531635
0.626,2.811036,-4.046802,1.8313189,-1.4530272,-0.40164137,-1.9161133
0.628,2.85954,-3.9525256,1.6765578,-1.4293354,-0.411463,-1.9659352
0.63,2.8850973,-3.82119,1.5022869,-1.4082963,-0.43986884,-2.000006
0.632,2.8867838,-3.657133,1.3067293,-1.3887501,-0.48369393,-2.0165994
0.634,2.8607888,-3.4639163,1.0972533,-1.3691654,-0.53760004,-2.0146213
0.636,2.8022647,-3.2437453,0.8806845,-1.347872,-0.59418285,-1.9937898
0.638,2.71074,-3.0011604,0.6557857,-1.3233974,-0.6443897,-1.9551327
0.64,2.5875504,-2.7434907,0.4220941,-1.2946024,-0.67805165,-1.9012161
0.642,2.4339428,-2.4779139,0.18384703,-1.2607231,-0.6849872,-1.8359916
0.644,2.252691,-2.2102423,-0.056474485,-1.2213988,-0.656184,-1.7643648
0.646,2.0473113,-1.9465349,-0.29947487,-1.1766374,-0.5849303,-1.6919792
0.648,1.822837,-1.6945075,-0.54416615,-1.1268666,-0.46794295,-1.624627
0.65,1.5845089,-1.4610711,-0.78925467,-1.0730443,-0.30603126,-1.5676556
0.652,1.337798,-1.2513438,-1.034679,-1.0168172,-0.104228124,-1.5254428
0.654,1.0864698,-1.0692112,-1.2782725,-0.96046966,0.12816197,-1.5009173
0.656,0.8377207,-0.91939867,-1.5176929,-0.90667814,0.3784378,-1.4953517
0.658,0.6038485,-0.80753714,-1.7575517,-0.8582278,0.6322944,-1.5082054
0.66,0.39310274,-0.73717827,-1.9988451,-0.8178452,0.87532824,-1.5370767
0.662,0.20103644,-0.70485055,-2.2343733,-0.7879654,1.0941781,-1.5779952
0.664,0.03077729,-0.707384,-2.460374,-0.77039176,1.2781168,-1.6259704
0.666,-0.109361425,-0.7444309,-2.677341,-0.76601917,1.4204874,-1.6757936
0.668,-0.21581076,-0.8139955,-2.8787737,-0.7746193,1.5188746,-1.7231423
0.67,-0.28594762,-0.9126335,-3.0626652,-0.7949596,1.5745099,-1.764931
0.672,-0.31936792,-1.0385303,-3.2348874,-0.8252371,1.5915186,-1.7990409
0.674,-0.3174315,-1.191861,-3.3927457,-0.8633733,1.5757939,-1.8246977
0.676,-0.28367215,-1.3686978,-3.5321388,-0.9071548,1.5340153,-1.842855
0.678,-0.22193275,-1.5619817,-3.6537182,-0.9542265,1.4734097,-1.8556764
0.68,-0.13709334,-1.7661084,-3.7577133,-1.0022756,1.4008292,-1.8659554
0.682,-0.03327921,-1.9767817,-3.8429806,-1.0493848,1.3216233,-1.8767319
0.684,0.08580947,-2.1912053,-3.9089136,-1.0942011,1.2398994,-1.8905597
0.686,0.21390021,-2.4070764,-3.9559023,-1.1359111,1.1590891,-1.9090604
0.688,0.34487006,-2.622632,-3.984143,-1.1740103,1.0820004,-1.9330553
0.69,0.47753376,-2.838175,-3.9952981,-1.208041,1.0102618,-1.9627614
0.692,0.61171436,-3.0550203,-3.9912977,-1.2376736,0.9448946,-1.9976484
0.694,0.74272656,-3.2731354,-3.9736676,-1.2625666,0.88756615,-2.036177
0.696,0.8664107,-3.490695,-3.9468577,-1.2823997,0.8398868,-2.0762022
0.698,0.9814902,-3.7049031,-3.919638,-1.296799,0.8031638,-2.1154127
0.7,1.0860372,-3.9119601,-3.9005425,-1.3050305,0.7793246,-2.1514535
0.702,1.1740589,-4.1065836,-3.8912735,-1.30605,0.7703618,-2.1823938
0.704,1.2432334,-4.2843847,-3.8927374,-1.2988875,0.7775117,-2.2066097
0.706,1.295276,-4.4444695,-3.9080124,-1.2828285,0.80170894,-2.2225623
0.708,1.3268739,-4.5861692,-3.936664,-1.2575244,0.84359586,-2.2293844
0.71,1.335018,-4.7079005,-3.973957,-1.2230908,0.9028554,-2.22703
0.712,1.3188205,-4.8062224,-4.014923,-1.1801444,0.9776782,-2.2160473
0.714,1.2792714,-4.877351,-4.056421,-1.129795,1.0649554,-2.1978407
0.716,1.2186406,-4.9203024,-4.097194,-1.0737981,1.1607788,-2.1746774
0.718,1.1398716,-4.936226,-4.1361675,-1.0146163,1.2601395,-2.149426
0.72,1.0467334,-4.927307,-4.1704364,-0.95526385,1.3567142,-2.1253166
0.722,0.94282675,-4.896817,-4.1958156,-0.89920276,1.4435478,-2.1056497
0.724,0.83167577,-4.849642,-4.2085214,-0.8502142,1.5139172,-2.093629
0.726,0.7176467,-4.7927294,-4.2049026,-0.81210697,1.56164,-2.0923278
0.728,0.6053146,-4.73234,-4.1814,-0.7884154,1.5814786,-2.1042957
0.73,0.5013138,-4.676047,-4.1344852,-0.7819975,1.5700547,-2.1311119
0.732,0.4088745,-4.6302366,-4.0575724,-0.7946921,1.5263817,-2.1734142
0.734,0.3302375,-4.59947,-3.9454417,-0.8269684,1.4519031,-2.2308612
0.736,0.27003276,-4.5883904,-3.7990127,-0.87787634,1.3503981,-2.3018649
0.738,0.23474479,-4.602068,-3.620003,-0.9450859,1.227835,-2.3834898
0.74,0.22473514,-4.6430893,-3.4035468,-1.0250598,1.0916338,-2.471949
0.742,0.23829246,-4.7109575,-3.1488755,-1.1135702,0.9498035,-2.5630045
0.744,0.27622545,-4.8062115,-2.8661106,-1.2060724,0.8107954,-2.6519198
0.746,0.33929873,-4.9304924,-2.5611236,-1.297903,0.682204,-2.7339518
0.748,0.423545,-5.0821867,-2.2358198,-1.3849055,0.5695658,-2.8051991
0.75,0.52420807,-5.257189,-1.8954818,-1.4637415,0.47728217,-2.8628147
0.752,0.6373316,-5.4519258,-1.5496756,-1.5320855,0.40845346,-2.904999
0.754,0.7585943,-5.6640215,-1.2058678,-1.5888432,0.3638789,-2.9310837
0.756,0.8831866,-5.889464,-0.8684396,-1.6338366,0.34310177,-2.9413807
0.758,1.0060431,-6.1224146,-0.54326075,-1.6673445,0.34510794,-2.9374063
0.76,1.1227705,-6.357829,-0.23618871,-1.6901609,0.36760184,-2.9217882
0.762,1.2289994,-6.5916066,0.049081087,-1.7036208,0.40751094,-2.897238
0.764,1.3239975,-6.8203897,0.30803955,-1.7095011,0.46160513,-2.8662612
0.766,1.4035456,-7.039268,0.5375524,-1.7099001,0.52636313,-2.8314362
0.768,1.4602807,-7.2431564,0.7424071,-1.7070649,0.597972,-2.7950835
0.77,1.4933858,-7.4295692,0.92376465,-1.7030828,0.6726035,-2.7590783
0.772,1.5121574,-7.6012845,1.0766152,-1.6997304,0.74663836,-2.7249243
0.774,1.5160568,-7.758635,1.2023287,-1.6985112,0.8166632,-2.6939147
0.776,1.5000703,-7.898687,1.3061099,-1.7006575,0.8796909,-2.6669943
0.778,1.4654112,-8.020682,1.3876402,-1.7070432,0.9334916,-2.6447625
0.78,1.415035,-8.125867,1.4527838,-1.7182522,0.9763737,-2.627597
0.782,1.3519766,-8.213884,1.5118564,-1.7345426,1.0073842,-2.6155245
0.784,1.2798085,-8.28376,1.5652137,-1.7559471,1.0263786,-2.6081848
0.786,1.2029195,-8.338744,1.6131173,-1.7822766,1.0339355,-2.6049523
0.788,1.1246884,-8.38324,1.6599805,-1.813162,1.0313312,-2.6050758
0.79,1.0472097,-8.418998,1.7061832,-1.8480299,1.0204487,-2.6076937
0.792,0.9714267,-8.446596,1.7500365,-1.88608,1.0035919,-2.6118047
0.794,0.898792,-8.466652,1.7900741,-1.9263506,0.98334044,-2.6163442
0.796,0.82982016,-8.479102,1.8267134,-1.9678023,0.9623407,-2.6203153
0.798,0.7636554,-8.483179,1.8597177,-2.0094004,0.94315815,-2.6228833
0.8,0.69946146,-8.478128,1.8897204,-2.0502028,0.9281332,-2.6234186
0.802,0.6372683,-8.464197,1.9178805,-2.0893788,0.919266,-2.6215425
0.804,0.5777643,-8.443044,1.9430621,-2.126233,0.9181532,-2.6171114
0.806,0.52155304,-8.417434,1.9621805,-2.160178,0.9260056,-2.6102407
0.808,0.4695537,-8.390194,1.9714682,-2.1907544,0.943671,-2.601251
0.81,0.42239332,-8.3632965,1.9676023,-2.2175975,0.97170305,-2.5906155
0.812,0.38054943,-8.337329,1.9473722,-2.2404325,1.0103619,-2.5788894
0.814,0.34433055,-8.312536,1.9081814,-2.2590292,1.0597444,-2.5666344
0.816,0.3136239,-8.289113,1.8475342,-2.2732008,1.1197307,-2.5544379
0.818,0.28870106,-8.267603,1.7634594,-2.2828035,1.1899832,-2.542845
0.82,0.26963842,-8.248505,1.6542437,-2.2877622,1.2699168,-2.5323277
0.822,0.25651598,-8.231898,1.5184956,-2.2881043,1.3586261,-2.523238
0.824,0.24953103,-8.218086,1.3555008,-2.2839682,1.4549208,-2.5158846
0.826,0.24928975,-8.207392,1.165221,-2.2755976,1.5572816,-2.5105424
0.828,0.25646436,-8.200104,0.94789726,-2.263322,1.6638277,-2.5073733
0.83,0.27173603,-8.19657,0.70445055,-2.2475731,1.7724097,-2.5064037
0.832,0.2957741,-8.196636,0.43666202,-2.228923,1.8805127,-2.507546
0.834,0.32950962,-8.19979,0.14714001,-2.2080498,1.9854807,-2.5106025
0.836,0.37368095,-8.205229,-0.16073528,-2.1857605,2.0844882,-2.515361
0.838,0.42868602,-8.212681,-0.4825921,-2.1628869,2.1747277,-2.5216384
0.84,0.49462402,-8.221517,-0.813787,-2.1402733,2.2535777,-2.5291843
0.842,0.5717715,-8.231231,-1.1500199,-2.1187077,2.318753,-2.5376873
0.844,0.6599089,-8.241473,-1.486381,-2.0988498,2.3684895,-2.5467818
0.846,0.75860465,-8.251667,-1.8182949,-2.0811896,2.4016683,-2.5561135
0.848,0.8668207,-8.261604,-2.1410584,-2.0659697,2.417879,-2.5653045
0.85,0.98302853,-8.270721,-2.4504743,-2.0531895,2.4174721,-2.573938
0.852,1.1056617,-8.278549,-2.7429495,-2.0426137,2.4014716,-2.5815952
0.854,1.2330267,-8.284797,-3.0146227,-2.0338047,2.371536,-2.5878768
0.856,1.3632987,-8.288964,-3.2641156,-2.0261586,2.329843,-2.5924308
0.858,1.4945049,-8.290662,-3.4877708,-2.0189655,2.2789304,-2.5949636
0.86,1.6244874,-8.28968,-3.6834707,-2.011456,2.2216082,-2.5952232
0.862,1.7509186,-8.285664,-3.851257,-2.002834,2.1608362,-2.5930061
0.864,1.8711653,-8.278305,-3.991586,-1.9923209,2.0995803,-2.588184
0.866,1.9831592,-8.267819,-4.1058426,-1.9792016,2.040724,-2.5806885
0.868,2.0849667,-8.254529,-4.1961656,-1.9628626,1.9869289,-2.5705163
0.87,2.1749108,-8.238787,-4.2648644,-1.9428141,1.9405476,-2.5577054
0.872,2.251385,-8.221018,-4.314646,-1.918726,1.9035081,-2.5423405
0.874,2.3131027,-8.202087,-4.34838,-1.8904415,1.877202,-2.5245376
0.876,2.3595414,-8.183074,-4.3695955,-1.8580233,1.8624408,-2.5045133
0.878,2.3905597,-8.165009,-4.381916,-1.8217566,1.8593109,-2.4825437
0.88,2.4063814,-8.148993,-4.388921,-1.7821605,1.8672308,-2.458967
0.882,2.4080858,-8.136564,-4.39345,-1.7399359,1.8850074,-2.43426
0.884,2.3966918,-8.129333,-4.3978457,-1.6959041,1.9108773,-2.409041
0.886,2.3732448,-8.128877,-4.4041643,-1.6509683,1.9427412,-2.383975
0.888,2.3388422,-8.136783,-4.414263,-1.6059865,1.9783796,-2.359729
0.89,2.2950583,-8.154821,-4.429242,-1.5617704,2.0155602,-2.3368945
0.892,2.2434945,-8.184498,-4.4498777,-1.5190406,2.0521832,-2.3159194
0.894,2.1857934,-8.226961,-4.4765825,-1.4783633,2.0863993,-2.297073
0.896,2.1238601,-8.283301,-4.5088224,-1.440117,2.11666,-2.2803948
0.898,2.0602791,-8.355107,-4.5452557,-1.4044867,2.1417813,-2.2657695
0.9,1.9968686,-8.44386,-4.583754,-1.3714681,2.1609437,-2.252897
0.902,1.9353215,-8.550858,-4.622344,-1.3409088,2.1736429,-2.2413824
0.904,1.8764831,-8.676796,-4.6589975,-1.3124938,2.1796832,-2.2307806
0.906,1.8204126,-8.82173,-4.6933513,-1.285784,2.1791415,-2.2206554
0.908,1.7664192,-8.984736,-4.725611,-1.2602078,2.1723492,-2.210661
0.91,1.7132149,-9.16436,-4.7555785,-1.2351211,2.1598713,-2.2005858
0.912,1.6596516,-9.358185,-4.7821665,-1.2097924,2.1425152,-2.1903758
0.914,1.6055565,-9.563539,-4.80362,-1.1834354,2.12133,-2.1801734
0.916,1.552008,-9.778696,-4.8182464,-1.1552112,2.0976396,-2.1702712
0.918,1.5002292,-10.002473,-4.8242655,-1.1242082,2.0729814,-2.1611023
0.92,1.4508839,-10.23388,-4.8207664,-1.089461,2.0491114,-2.153195
0.922,1.4028442,-10.471269,-4.8085694,-1.0499538,2.027946,-2.1471527
0.924,1.3538897,-10.712026,-4.790016,-1.0047044,2.011434,-2.1436472
0.926,1.3017011,-10.952829,-4.768543,-0.95276815,2.0014775,-2.1433976
0.928,1.2438543,-11.190039,-4.7485595,-0.8932942,1.9998634,-2.147161
0.93,1.1786146,-11.419806,-4.7345138,-0.8255178,2.008138,-2.1556594
0.932,1.104136,-11.638647,-4.730668,-0.74883217,2.0274832,-2.1694753
0.934,1.0189133,-11.843218,-4.740546,-0.66290176,2.0585446,-2.188975
0.936,0.920923,-12.030315,-4.767615,-0.56777155,2.1012886,-2.2141929
0.938,0.80846655,-12.196816,-4.815198,-0.46393532,2.1548517,-2.244776
0.94,0.6797185,-12.339737,-4.886093,-0.35236764,2.217496,-2.2798774
0.942,0.53316593,-12.456739,-4.9829416,-0.23454826,2.286585,-2.3182302
0.944,0.3674978,-12.54572,-5.1076775,-0.112453416,2.3586476,-2.3581958
0.946,0.18198788,-12.605336,-5.2616377,0.011450544,2.4295063,-2.397725
0.948,-0.023455143,-12.634767,-5.4450407,0.13429335,2.494533,-2.43434
0.95,-0.24799311,-12.634394,-5.657047,0.25292823,2.548891,-2.4652379
0.952,-0.49049616,-12.605356,-5.8959975,0.36410695,2.5878723,-2.487475
0.954,-0.74940884,-12.549566,-6.1590767,0.46469283,2.607242,-2.4983516
0.956,-1.0224127,-12.469646,-6.442532,0.5518968,2.6035385,-2.4958694
0.958,-1.3069423,-12.368689,-6.7418537,0.6234932,2.5742803,-2.4790618
0.96,-1.5996151,-12.250747,-7.051198,0.6779971,2.5181715,-2.4482284
0.962,-1.8963479,-12.120481,-7.3645024,0.71481895,2.435192,-2.4049551
0.964,-2.193069,-11.983119,-7.6760235,0.73432255,2.3266544,-2.351962
0.966,-2.485865,-11.843697,-7.9809685,0.7378209,2.1951547,-2.2927945
0.968,-2.7705958,-11.707409,-8.275069,0.7275311,2.044428,-2.231388
0.97,-3.043469,-11.57884,-8.554445,0.70640814,1.8791258,-2.171568
0.972,-3.3010314,-11.462237,-8.815305,0.67788774,1.7045453,-2.1165817
0.974,-3.5406756,-11.361201,-9.054461,0.64562345,1.5262325,-2.0687647
0.976,-3.7600172,-11.278563,-9.270002,0.61322695,1.3495896,-2.0293906
0.978,-3.9573977,-11.216597,-9.46096,0.58407664,1.1795655,-1.9986804
0.98,-4.1318107,-11.176474,-9.627053,0.56107634,1.0203623,-1.9759305
0.982,-4.282704,-11.158486,-9.768198,0.5465452,0.8752241,-1.9597995
0.984,-4.4101987,-11.161893,-9.884817,0.5421264,0.7463341,-1.9486352
0.986,-4.515376,-11.185227,-9.978313,0.548877,0.63488,-1.9408337
0.988,-4.599771,-11.226115,-10.05056,0.5673566,0.54113805,-1.9350091
0.99,-4.6655793,-11.281519,-10.103199,0.59768945,0.46458885,-1.9300754
0.992,-4.7152996,-11.348061,-10.13815,0.63963765,0.40407297,-1.9252248
0.994,-4.7506104,-11.421452,-10.157578,0.69264275,0.357834,-1.9198768
0.996,-4.7743397,-11.497588,-10.162558,0.7558601,0.32368073,-1.9135332
0.998,-4.7883806,-11.572757,-10.154123,0.8282863,0.2991074,-1.9057697
1,-4.794509,-11.643182,-10.132878,0.9087612,0.2813692,-1.8963104
1.002,-4.7946424,-11.705385,-10.098726,0.99597615,0.26757595,-1.88508
1.004,-4.7903385,-11.756363,-10.0511875,1.0885186,0.25488603,-1.8721399
1.006,-4.7829494,-11.793572,-9.989735,1.1848809,0.24058865,-1.8576804
1.008,-4.77404,-11.814591,-9.914121,1.2835082,0.22216949,-1.841899
1.01,-4.7637005,-11.817831,-9.823232,1.3828472,0.19747487,-1.8249284
1.012,-4.751629,-11.802579,-9.715303,1.4813799,0.16481149,-1.8068864
1.014,-4.7368956,-11.769051,-9.58852,1.5775867,0.122938454,-1.7878915
1.016,-4.7186694,-11.718311,-9.440475,1.6699691,0.071041286,-1.768032
1.018,-4.6957064,-11.651945,-9.269207,1.757089,0.008654535,-1.7473843
1.02,-4.6676064,-11.571772,-9.074042,1.8375804,-0.06444359,-1.7259797
1.022,-4.634552,-11.479943,-8.855648,1.9102397,-0.1481067,-1.7037468
1.024,-4.5976477,-11.37816,-8.615219,1.9741031,-0.24168378,-1.6805028
1.026,-4.5585203,-11.267368,-8.353821,2.0282705,-0.34453654,-1.6560645
1.028,-4.5180426,-11.148332,-8.072541,2.072125,-0.455674,-1.6301755
1.03,-4.4759407,-11.022126,-7.772145,2.105292,-0.57381815,-1.602526
1.032,-4.430355,-10.890867,-7.4526143,2.1276612,-0.6974503,-1.5727664
1.034,-4.3794403,-10.75752,-7.113349,2.1393485,-0.8249401,-1.540622
1.036,-4.3219547,-10.625407,-6.753799,2.1406476,-0.95463085,-1.5059019
1.038,-4.2569394,-10.497757,-6.3742924,2.132022,-1.0848974,-1.4685311
1.04,-4.1846147,-10.377178,-5.9770355,2.1140466,-1.2142919,-1.4285854
1.042,-4.10501,-10.265584,-5.5649514,2.0874135,-1.3415256,-1.3863014
1.044,-4.018669,-10.164385,-5.142175,2.0529246,-1.4655074,-1.3421369
1.046,-3.9243093,-10.075128,-4.7123566,2.0114443,-1.5853912,-1.2967628
1.048,-3.8206947,-9.999435,-4.278387,1.9639187,-1.7005242,-1.2510179
1.05,-3.7065184,-9.938911,-3.8429017,1.9113607,-1.8103726,-1.2058544
1.052,-3.5805414,-9.894614,-3.4081433,1.8548098,-1.9144642,-1.1622288
1.054,-3.4415874,-9.86719,-2.9763627,1.7953496,-2.0123353,-1.1210808
1.056,-3.2887201,-9.856794,-2.5496545,1.7340827,-2.1034746,-1.0832518
1.058,-3.121102,-9.863157,-2.13054,1.6720619,-2.1873012,-1.0493902
1.06,-2.9380052,-9.885533,-1.7214934,1.6102743,-2.2630982,-1.0198518
1.062,-2.7389839,-9.92277,-1.3244619,1.549581,-2.3300169,-0.99475527
1.064,-2.524028,-9.973486,-0.9416233,1.4907013,-2.3871388,-0.9739614
1.066,-2.2935538,-10.036006,-0.5749566,1.4342134,-2.433498,-0.9570547
1.068,-2.048214,-10.1081505,-0.22632013,1.3806204,-2.4680417,-0.94335675
1.07,-1.7895336,-10.18721,0.10259934,1.3302703,-2.4896963,-0.93201745
1.072,-1.5197496,-10.27018,0.41074166,1.2833371,-2.4973936,-0.9220231
1.074,-1.2421565,-10.353683,0.6970673,1.2398074,-2.490078,-0.91226774
1.076,-0.9590912,-10.435749,0.9614026,1.1994479,-2.4669375,-0.90164673
1.078,-0.6710379,-10.514104,1.2040792,1.1618326,-2.4274771,-0.8890945
1.08,-0.38090038,-10.585649,1.4242307,1.1264812,-2.3712087,-0.87350184
1.082,-0.09216261,-10.646284,1.6226515,1.092608,-2.2983475,-0.853872
1.084,0.19174457,-10.692495,1.801223,1.0592101,-2.2098687,-0.8294115
1.086,0.46722627,-10.721755,1.9620486,1.0250726,-2.107721,-0.79965705
1.088,0.73122597,-10.731247,2.1073306,0.98879915,-1.9948816,-0.7644557
1.09,0.9806795,-10.718293,2.239069,0.9488722,-1.8753877,-0.72405404
1.092,1.2134883,-10.680848,2.3595679,0.9036748,-1.7542578,-0.6790912
1.094,1.4279859,-10.617606,2.4723399,0.8515811,-1.637175,-0.6305363
1.096,1.6226404,-10.527329,2.5825043,0.7910395,-1.5301785,-0.5796055
1.098,1.796616,-10.408964,2.6952465,0.72064024,-1.4392524,-0.5276166
1.1,1.9499934,-10.261665,2.8156512,0.639222,-1.3698087,-0.47586328
1.102,2.083074,-10.084385,2.9487398,0.54591537,-1.3262894,-0.4254945
1.104,2.1966643,-9.877072,3.100344,0.4401722,-1.3119062,-0.3773485
1.106,2.2933047,-9.639187,3.2761965,0.3217539,-1.3285359,-0.33188254
1.108,2.3751435,-9.369787,3.482307,0.19077581,-1.3764524,-0.28914228
1.11,2.445055,-9.0681095,3.7237406,0.047619134,-1.4545212,-0.24890015
1.112,2.5062647,-8.733641,4.00506,-0.107147515,-1.5603805,-0.2107557
1.114,2.5622528,-8.365742,4.330451,-0.27276057,-1.6905332,-0.1741754
1.116,2.6168478,-7.963741,4.703349,-0.4483654,-1.8407474,-0.13848345
1.118,2.673932,-7.5270324,5.1268406,-0.6331046,-2.0063238,-0.10292713
1.12,2.7371776,-7.0550685,5.602753,-0.82615125,-2.1822896,-0.06678264
1.122,2.8098764,-6.5470204,6.1319003,-1.026721,-2.363637,-0.029454634
1.124,2.8947918,-6.00227,6.7141604,-1.2340897,-2.5454974,0.009507891
1.126,2.994112,-5.4199405,7.348481,-1.447587,-2.7231889,0.050433695
1.128,3.1093082,-4.7994657,8.03243,-1.6666251,-2.8922951,0.09350606
1.13,3.241188,-4.1405315,8.762304,-1.8906865,-3.048746,0.13867986
1.132,3.3892941,-3.4431608,9.533328,-2.1192694,-3.1888895,0.18563715
1.134,3.5523276,-2.7073221,10.339124,-2.3518147,-3.3094926,0.23374067
1.136,3.7281828,-1.9331443,11.172293,-2.5876775,-3.407698,0.28210843
1.138,3.9137857,-1.1210704,12.024699,-2.8261328,-3.4810202,0.329695
1.14,4.1054816,-0.27177244,12.887729,-3.066358,-3.5273426,0.37540698
1.142,4.2988887,0.6136947,13.752403,-3.3074322,-3.5449643,0.41810903
1.144,4.4896183,1.5340215,14.609547,-3.5483718,-3.5325816,0.45674506
1.146,4.673154,2.487601,15.449703,-3.7881303,-3.4892297,0.49035537
1.148,4.845023,3.4724607,16.263971,-4.0256515,-3.4143252,0.5181308
1.15,5.001776,4.4856043,17.044256,-4.2599115,-3.3076577,0.539452
1.152,5.139819,5.5238686,17.782448,-4.4899635,-3.1693065,0.55391645
1.154,5.2564783,6.5839777,18.47072,-4.714968,-2.9997172,0.5612961
1.156,5.349064,7.6626163,19.101345,-4.9342604,-2.799768,0.5615199
1.158,5.415816,8.75675,19.666973,-5.1473327,-2.5707319,0.5545977
1.16,5.456118,9.863252,20.161533,-5.353843,-2.3142464,0.5405917
1.162,5.470086,10.978647,20.57993,-5.553651,-2.0325236,0.5196557
1.164,5.459196,12.099298,20.918392,-5.746749,-1.7281905,0.4920427
1.166,5.4253693,13.221502,21.17432,-5.933234,-1.4043164,0.45806125
1.168,5.3711953,14.341959,21.34636,-6.1133595,-1.064433,0.4180483
1.17,5.3001666,15.457179,21.434088,-6.287464,-0.71229243,0.37233812
1.172,5.21649,16.563677,21.43795,-6.4559584,-0.35187495,0.32126504
1.174,5.124664,17.658081,21.359688,-6.619311,0.01260972,0.2652253
1.176,5.028968,18.73724,21.201878,-6.7780433,0.37685418,0.20463097
1.178,4.933402,19.798151,20.968008,-6.932679,0.7366142,0.13987195
1.18,4.8414803,20.838118,20.66243,-7.0837336,1.0877635,0.07128227
1.182,4.756589,21.85454,20.290508,-7.2316732,1.426426,-0.0008921623
1.184,4.682317,22.84507,19.85828,-7.376923,1.7491693,-0.07643139
1.186,4.620183,23.808441,19.372261,-7.5198584,2.0531,-0.15517151
1.188,4.569439,24.743364,18.838522,-7.6607695,2.3360043,-0.236974
1.19,4.532118,25.647324,18.264782,-7.7998323,2.596385,-0.3217826
1.192,4.509572,26.517424,17.657352,-7.9370823,2.8334656,-0.40952277
1.194,4.502033,27.351852,17.022589,-8.072451,3.0471387,-0.5001075
1.196,4.5090094,28.1498,16.367401,-8.205759,3.2379196,-0.5934334
1.198,4.5289364,28.910452,15.699341,-8.336726,3.406804,-0.6894038
1.2,4.560357,29.63276,15.02599,-8.464998,3.5550375,-0.7879064
1.202,4.6009865,30.316174,14.354252,-8.590151,3.6840372,-0.88886786
1.204,4.6483307,30.960272,13.689779,-8.711705,3.795251,-0.9922478
1.206,4.700327,31.564602,13.03758,-8.829128,3.8900425,-1.0980654
1.208,4.754733,32.128426,12.4019985,-8.9418745,3.9696312,-1.2063642
1.21,4.808505,32.651314,11.786404,-9.049349,4.0351906,-1.3171675
1.212,4.8588257,33.13291,11.193961,-9.150918,4.0877542,-1.4304717
1.214,4.902713,33.57302,10.627321,-9.245977,4.128209,-1.5461762
1.216,4.937681,33.971436,10.088293,-9.33401,4.1573205,-1.6640644
1.218,4.961424,34.32762,9.578186,-9.414569,4.175769,-1.7837975
1.22,4.9715137,34.641342,9.097938,-9.487329,4.1842,-1.9049082
1.222,4.965928,34.91238,8.647524,-9.552078,4.183228,-2.0268197
1.224,4.9426527,35.14088,8.226,-9.608731,4.1735697,-2.1488414
1.226,4.8994074,35.32734,7.831632,-9.657311,4.156108,-2.2702427
1.228,4.8343096,35.472446,7.4626064,-9.697937,4.1319456,-2.3903017
1.23,4.7457952,35.57716,7.1168365,-9.730806,4.102482,-2.5083342
1.232,4.6323433,35.642178,6.7921004,-9.756182,4.069371,-2.6237586
1.234,4.4930067,35.668697,6.486265,-9.774432,4.0344553,-2.7361207
1.236,4.3273354,35.657696,6.196697,-9.786005,3.9996831,-2.8450468
1.238,4.135214,35.610737,5.921257,-9.791414,3.9670587,-2.950283
1.24,3.9167767,35.529568,5.658182,-9.791224,3.938524,-3.0516798
1.242,3.6729164,35.416084,5.405672,-9.7860775,3.915833,-3.1491578
1.244,3.4048157,35.27237,5.1619387,-9.776644,3.9005456,-3.2426512
1.246,3.1140976,35.100697,4.924841,-9.76353,3.8940144,-3.332144
1.248,2.803298,34.90359,4.6924706,-9.74726,3.8973713,-3.4176435
1.25,2.4749107,34.68393,4.463128,-9.728249,3.911463,-3.4991539
1.252,2.1322317,34.444214,4.2351456,-9.706808,3.936839,-3.5766802
1.254,1.7789783,34.187218,4.0075464,-9.683202,3.9737213,-3.6502604
1.256,1.4191504,33.915886,3.77913,-9.657612,4.022028,-3.7199266
1.258,1.0570698,33.63324,3.5483122,-9.630151,4.08142,-3.7857573
1.26,0.69683933,33.34221,3.3136039,-9.600866,4.1512904,-3.8478572
1.262,0.34321213,33.04541,3.0741472,-9.569748,4.2308607,-3.9063096
1.264,0.0006904602,32.744907,2.829156,-9.536766,4.3191824,-3.9612262
1.266,-0.32705307,32.443188,2.5787802,-9.50182,4.415255,-4.0127378
1.268,-0.63545036,32.1419,2.32201,-9.46472,4.518136,-4.0610147
1.27,-0.92126274,31.842777,2.057293,-9.425161,4.6269517,-4.106279
1.272,-1.1813235,31.547771,1.7835193,-9.382779,4.740835,-4.148838
1.274,-1.4137654,31.258608,1.4988427,-9.337166,4.8589845,-4.1890726
1.276,-1.6169477,30.97704,1.2016063,-9.28792,4.980575,-4.2275085
1.278,-1.7903514,30.704329,0.89104605,-9.234668,5.1046877,-4.26482
1.28,-1.9345489,30.441952,0.56653786,-9.1770735,5.2303386,-4.3018446
1.282,-2.0507183,30.191147,0.22752762,-9.114825,5.356559,-4.3395166
1.284,-2.1408825,29.95287,-0.12698936,-9.0476675,5.482395,-4.378755
1.286,-2.2071633,29.727905,-0.49815226,-8.975337,5.607022,-4.4204283
1.288,-2.252696,29.517149,-0.88743687,-8.897522,5.7297955,-4.4653196
1.29,-2.2803411,29.321272,-1.2960031,-8.813847,5.850277,-4.51407
1.292,-2.2936833,29.14065,-1.7248969,-8.723923,5.9681926,-4.5671225
1.294,-2.2962575,28.975393,-2.1744246,-8.627374,6.0834,-4.6246634
1.296,-2.2918165,28.825314,-2.6447742,-8.523817,6.195882,-4.68668
1.298,-2.2837083,28.689651,-3.1352468,-8.412959,6.305609,-4.752962
1.3,-2.2751768,28.56743,-3.6453986,-8.29467,6.412381,-4.8230867
1.302,-2.2686305,28.457424,-4.174419,-8.168935,6.5158668,-4.8964653
1.304,-2.265654,28.357904,-4.721299,-8.035893,6.6156087,-4.972438
1.306,-2.2673988,28.26677,-5.284453,-7.895835,6.710959,-5.0503106
1.308,-2.2738936,28.181608,-5.862173,-7.7491226,6.801252,-5.1293893
1.31,-2.2850418,28.099747,-6.4524527,-7.5961747,6.885809,-5.209072
1.312,-2.2997415,28.018318,-7.05311,-7.4374332,6.9639792,-5.2888374
1.314,-2.3160195,27.93432,-7.6609864,-7.273353,7.0351815,-5.3683004
1.316,-2.3317392,27.844543,-8.272741,-7.104371,7.0989103,-5.4472103
1.318,-2.344528,27.745811,-8.884636,-6.9308944,7.1547384,-5.5254593
1.32,-2.3511543,27.63481,-9.493105,-6.753315,7.2022843,-5.602997
1.322,-2.3485851,27.508593,-10.094896,-6.572033,7.2412415,-5.6798224
1.324,-2.3341265,27.3648,-10.687291,-6.387461,7.271338,-5.7558794
1.326,-2.305325,27.201181,-11.267424,-6.2000265,7.2923527,-5.831048
1.328,-2.2602534,27.016193,-11.832733,-6.010146,7.3041224,-5.9051266
1.33,-2.1969128,26.808321,-12.380726,-5.8182287,7.3065352,-5.977829
1.332,-2.1139808,26.576767,-12.909227,-5.6246834,7.2995358,-6.048782
1.334,-2.0106006,26.320757,-13.416429,-5.429867,7.283066,-6.1175475
1.336,-1.8862572,26.03993,-13.900568,-5.234105,7.257022,-6.1837215
1.338,-1.7410088,25.73444,-14.360191,-5.0376434,7.2211914,-6.2470007
1.34,-1.5757074,25.404934,-14.794626,-4.840694,7.175253,-6.3071637
1.342,-1.3913889,25.052591,-15.203625,-4.6434765,7.1187434,-6.3640594
1.344,-1.1897516,24.678398,-15.586902,-4.446185,7.0510793,-6.4176197
1.346,-0.9724474,24.28399,-15.943854,-4.249013,6.971624,-6.4678397
1.348,-0.7417946,23.871168,-16.27469,-4.0521793,6.8796854,-6.5147715
1.35,-0.49997616,23.442196,-16.58013,-3.8559425,6.774613,-6.558488
1.352,-0.24967098,22.99943,-16.861292,-3.6606236,6.655892,-6.5990667
1.354,0.00683403,22.545439,-17.119434,-3.4665518,6.5233335,-6.6365848
1.356,0.26752758,22.08264,-17.355608,-3.274109,6.377015,-6.6711106
1.358,0.5298729,21.613628,-17.570866,-3.0836763,6.217305,-6.7026253
1.36,0.7926502,21.140137,-17.766542,-2.89562,6.044889,-6.731078
1.362,1.053731,20.664978,-17.94336,-2.7102902,5.860696,-6.7564206
1.364,1.3114643,20.19027,-18.102861,-2.528006,5.6658287,-6.77861
1.366,1.564538,19.718199,-18.246344,-2.3490257,5.4616127,-6.797631
1.368,1.8116207,19.250383,-18.374155,-2.1735191,5.2495313,-6.813432
1.37,2.051772,18.788754,-18.487429,-2.0016305,5.0311394,-6.825943
1.372,2.284212,18.33531,-18.587627,-1.8334444,4.8080125,-6.835086
1.374,2.5082922,17.891987,-18.675913,-1.6690137,4.5816298,-6.8407893
1.376,2.724105,17.459984,-18.754293,-1.5083764,4.353365,-6.8429823
1.378,2.9307766,17.040579,-18.82337,-1.3515689,4.12439,-6.8416405
1.38,3.1285286,16.634645,-18.883574,-1.1986328,3.8956776,-6.8367853
1.382,3.3175154,16.242525,-18.935389,-1.0496168,3.6679826,-6.8285418
1.384,3.498232,15.86433,-18.97871,-0.9045439,3.4418633,-6.8170843
1.386,3.6712508,15.500023,-19.01386,-0.76340306,3.2177625,-6.802676
1.388,3.8375678,15.149387,-19.042114,-0.6261351,2.9961042,-6.7856126
1.39,3.9979472,14.811969,-19.064577,-0.4926312,2.7773309,-6.766196
1.392,4.153201,14.487176,-19.082142,-0.36273623,2.5619426,-6.7446737
1.394,4.3044615,14.174256,-19.095299,-0.2361952,2.3505602,-6.721175
1.396,4.452527,13.87225,-19.10441,-0.112742424,2.1438003,-6.6957912
1.398,4.5987387,13.580232,-19.109829,0.007848978,1.9422544,-6.668519
1.4,4.74383,13.297352,-19.112755,0.12579548,1.7464542,-6.639215
1.402,4.8889427,13.022921,-19.114227,0.24122345,1.55675,-6.6076717
1.404,5.034747,12.756271,-19.115335,0.35418725,1.3732879,-6.5736494
1.406,5.1821413,12.496922,-19.116835,0.4646772,1.1959704,-6.536916
1.408,5.3319125,12.244488,-19.119745,0.57260895,1.0244155,-6.4973145
1.41,5.4845695,11.998922,-19.124813,0.6778387,0.85806453,-6.4547496
1.412,5.640401,11.760166,-19.133102,0.78020716,0.69627297,-6.409241
1.414,5.7993007,11.528414,-19.145164,0.87956405,0.53833747,-6.3608937
1.416,5.961048,11.304077,-19.161495,0.97574794,0.38356447,-6.3098745
1.418,6.125116,11.0878315,-19.182512,1.0685982,0.23128462,-6.2564015
1.42,6.2914004,10.880313,-19.208105,1.1579661,0.08084482,-6.2007427
1.422,6.459352,10.682245,-19.237885,1.2437172,-0.068398714,-6.143288
1.424,6.6281786,10.494581,-19.271463,1.3257265,-0.21709818,-6.084494
1.426,6.7976255,10.318301,-19.30822,1.403851,-0.36591637,-6.0248303
1.428,6.9671035,10.154375,-19.34696,1.4779372,-0.51551414,-5.964786
1.43,7.135659,10.003896,-19.38607,1.5478626,-0.6665297,-5.9049206
1.432,7.3024726,9.867872,-19.424313,1.613581,-0.81948525,-5.845803
1.434,7.4668365,9.746899,-19.460054,1.6751373,-0.9747208,-5.7879567
1.436,7.6281853,9.64191,-19.491577,1.7326626,-1.1323442,-5.7318435
1.438,7.7860723,9.553595,-19.517153,1.786385,-1.2921973,-5.6778483
1.44,7.9397407,9.482584,-19.53451,1.8366153,-1.4538778,-5.6262765
1.442,8.08856,9.429294,-19.541357,1.8837298,-1.6168175,-5.5773306
1.444,8.232017,9.394068,-19.5357,1.9281704,-1.7802966,-5.5311093
1.446,8.369394,9.376949,-19.516012,1.9703974,-1.9435298,-5.487602
1.448,8.500214,9.377855,-19.481594,2.0108132,-2.1057847,-5.4467583
1.45,8.6241455,9.396477,-19.43149,2.0498314,-2.266341,-5.408417
1.452,8.740853,9.432384,-19.364841,2.0878224,-2.4246025,-5.372384
1.454,8.85012,9.48532,-19.281376,2.1250782,-2.5801315,-5.3385115
1.456,8.951837,9.55455,-19.181505,2.1618721,-2.732541,-5.30664
1.458,9.045969,9.638876,-19.06568,2.1983912,-2.8815475,-5.2766347
1.46,9.132206,9.737032,-18.934515,2.2347918,-3.026925,-5.2484045
1.462,9.210772,9.8477545,-18.78875,2.271184,-3.1684475,-5.2218904
1.464,9.281857,9.96971,-18.629513,2.3076212,-3.3059173,-5.197092
1.466,9.345646,10.101276,-18.45808,2.344121,-3.439125,-5.174028
1.468,9.402628,10.240822,-18.27608,2.3806593,-3.567817,-5.1527624
1.47,9.45298,10.38699,-18.085474,2.417181,-3.6917322,-5.1333904
1.472,9.497925,10.537598,-17.888672,2.4535987,-3.8105402,-5.116014
1.474,9.538113,10.690768,-17.687117,2.4897842,-3.9238687,-5.100772
1.476,9.574174,10.844638,-17.482347,2.5255892,-4.0313244,-5.087815
1.478,9.606939,10.997883,-17.276815,2.5608487,-4.132448,-5.077306
1.48,9.637318,11.148885,-17.071854,2.59542,-4.2267556,-5.0694304
1.482,9.665884,11.29575,-16.86885,2.6291404,-4.313735,-5.0644097
1.484,9.69325,11.436775,-16.668976,2.6618607,-4.392846,-5.0624814
1.486,9.720186,11.570417,-16.472927,2.693421,-4.4635525,-5.0638947
1.488,9.747124,11.695509,-16.281153,2.7236814,-4.5253386,-5.0689335
1.49,9.774627,11.811106,-16.093527,2.7525325,-4.5777273,-5.077879
1.492,9.802604,11.916439,-15.9100065,2.7798913,-4.6202917,-5.0909967
1.494,9.831142,12.010912,-15.730581,2.8057132,-4.652655,-5.108529
1.496,9.860224,12.093928,-15.554941,2.8299613,-4.674532,-5.1306705
1.498,9.889793,12.165364,-15.382364,2.8526106,-4.6857376,-5.157558
1.5,9.9195385,12.225153,-15.21217,2.8736377,-4.6862154,-5.1892476
1.502,9.9491825,12.273527,-15.043423,2.8930457,-4.676052,-5.2257504
1.504,9.978184,12.311186,-14.875013,2.9108107,-4.655486,-5.266961
1.506,10.006149,12.3387165,-14.705994,2.9269152,-4.624859,-5.3126955
1.508,10.032778,12.356644,-14.535392,2.9413247,-4.5846357,-5.3627424
1.51,10.057894,12.365662,-14.3615265,2.9540052,-4.5353847,-5.416883
1.512,10.081153,12.366934,-14.183131,2.964942,-4.4776754,-5.474909
1.514,10.102283,12.361704,-13.999094,2.9741335,-4.412016,-5.53661
1.516,10.121281,12.351357,-13.80892,2.9816396,-4.3387814,-5.6017575
1.518,10.137974,12.337408,-13.611997,2.9875567,-4.258211,-5.6701064
1.52,10.152512,12.32137,-13.4078245,2.9920185,-4.170352,-5.741357
1.522,10.165022,12.304937,-13.19569,2.9952006,-4.0750723,-5.8151674
1.524,10.176046,12.289627,-12.97555,2.997299,-3.9720755,-5.8911724
1.526,10.185923,12.277239,-12.747287,2.9985068,-3.8609893,-5.968988
1.528,10.195503,12.269271,-12.51105,2.9990153,-3.7413714,-6.048198
1.53,10.20565,12.267646,-12.267155,2.9990036,-3.61274,-6.128399
1.532,10.217471,12.274133,-12.01586,2.9986217,-3.4746482,-6.209259
1.534,10.232913,12.290259,-11.758049,2.9980009,-3.3266358,-6.2905197
1.536,10.253686,12.317221,-11.494334,2.9972608,-3.1682801,-6.3720117
1.538,10.281926,12.356262,-11.225528,2.9965136,-2.999142,-6.45364
1.54,10.320116,12.408777,-10.952875,2.995847,-2.818764,-6.5354013
1.542,10.371091,12.475901,-10.677723,2.9953525,-2.6266325,-6.6173596
1.544,10.437363,12.558668,-10.401791,2.9951296,-2.4221725,-6.699637
1.546,10.521682,12.658041,-10.126757,2.9952664,-2.204803,-6.7824125
1.548,10.627068,12.77484,-9.854151,2.9958518,-1.9739469,-6.8659368
1.55,10.756439,12.909706,-9.5861845,2.9970095,-1.7290368,-6.9505296
1.552,10.913069,13.063036,-9.324888,2.998867,-1.4695497,-7.0365787
1.554,11.09982,13.234919,-9.072096,3.001576,-1.1950179,-7.1245117
1.556,11.319322,13.425703,-8.829915,3.0053194,-0.9050667,-7.214746
1.558,11.573838,13.635387,-8.6004925,3.0103412,-0.59939647,-7.307728
1.56,11.86529,13.863991,-8.386445,3.0169077,-0.2778399,-7.4038773
1.562,12.195527,14.11126,-8.190028,3.0253046,0.059651375,-7.503489
1.564,12.5655985,14.376831,-8.013563,3.0358279,0.41296816,-7.6067486
1.566,12.976319,14.660426,-7.859134,3.0487382,0.7817807,-7.7137003
1.568,13.42833,14.961778,-7.72871,3.064257,1.1655045,-7.824251
1.57,13.921743,15.280659,-7.623804,3.0825229,1.5632889,-7.9381466
1.572,14.455978,15.616702,-7.545759,3.1036153,1.9740577,-8.054996
1.574,15.0299635,15.969494,-7.4960704,3.1275568,2.3964884,-8.174289
1.576,15.641981,16.339045,-7.476395,3.1543033,2.829084,-8.295372
1.578,16.29044,16.725082,-7.487892,3.1837463,3.270264,-8.41745
1.58,16.972834,17.127552,-7.5308456,3.2157595,3.7184339,-8.539682
1.582,17.686508,17.546726,-7.605721,3.2502165,4.1720347,-8.661156
1.584,18.429262,17.982601,-7.7129474,3.2869735,4.629616,-8.780867
1.586,19.198086,18.43499,-7.8518066,3.3259325,5.0898404,-8.89772
1.588,19.989853,18.903536,-8.02112,3.3670235,5.551477,-9.0105295
1.59,20.801346,19.387892,-8.219571,3.4102042,6.0134625,-9.11808
1.592,21.629387,19.887852,-8.445135,3.4554417,6.4748244,-9.219106
1.594,22.470736,20.403086,-8.695792,3.5027409,6.93471,-9.312344
1.596,23.32227,20.932941,-8.969093,3.5521166,7.392387,-9.396551
1.598,24.181152,21.47639,-9.262502,3.603596,7.84724,-9.470523
1.6,25.044357,22.03212,-9.573335,3.657229,8.298753,-9.533073
1.602,25.909359,22.598671,-9.898389,3.713066,8.746528,-9.583079
1.604,26.77387,23.174274,-10.233985,3.771158,9.190222,-9.61947
1.606,27.635635,23.756836,-10.576573,3.8315692,9.629511,-9.64132
1.608,28.49276,24.34383,-10.922636,3.8943105,10.064035,-9.647818
1.61,29.343254,24.932692,-11.268467,3.9593232,10.493443,-9.638278
1.612,30.185707,25.520287,-11.610434,4.0264883,10.917314,-9.612148
1.614,31.01931,26.103333,-11.945045,4.095607,11.335213,-9.569066
1.616,31.842932,26.678455,-12.268405,4.1663713,11.746681,-9.508793
1.618,32.656216,27.242271,-12.577314,4.238387,12.151278,-9.43121
1.62,33.459232,27.79103,-12.869503,4.311157,12.548571,-9.336335
1.622,34.252407,28.321022,-13.14264,4.3840847,12.93815,-9.224349
1.624,35.037006,28.828663,-13.394481,4.4564795,13.319748,-9.095547
1.626,35.814407,29.310493,-13.623159,4.5275517,13.693157,-8.950295
1.628,36.58647,29.763268,-13.827274,4.5964594,14.058268,-8.789066
1.63,37.355316,30.18391,-14.005558,4.6623154,14.41509,-8.612373
1.632,38.12386,30.56969,-14.15771,4.7242417,14.763712,-8.420858
1.634,38.89535,30.918478,-14.283362,4.7813325,15.104334,-8.215189
1.636,39.673733,31.227943,-14.382863,4.8326945,15.437242,-7.9961367
1.638,40.46293,31.496399,-14.45664,4.87746,15.762842,-7.764566
1.64,41.266953,31.72263,-14.505358,4.9147816,16.081648,-7.5214124
1.642,42.090523,31.905972,-14.530292,4.9438252,16.394184,-7.2676773
1.644,42.938087,32.04641,-14.532248,4.9637623,16.700966,-7.004334
1.646,43.814774,32.14422,-14.512007,4.9737816,17.002464,-6.7324095
1.648,44.726337,32.199627,-14.470361,4.9730687,17.299002,-6.452877
1.65,45.678688,32.212746,-14.408336,4.9608064,17.590683,-6.16672
1.652,46.678005,32.184227,-14.327007,4.9361463,17.877295,-5.8748302
1.654,47.73143,32.114876,-14.227545,4.898212,18.15833,-5.5780134
1.656,48.84589,32.00547,-14.111401,4.846109,18.433018,-5.2769804
1.658,50.028812,31.856659,-13.980114,4.7789545,18.700314,-4.9723434
1.66,51.288486,31.66907,-13.834349,4.6958923,18.958977,-4.664535
1.662,52.632874,31.44323,-13.674168,4.596115,19.207584,-4.353812
1.664,54.070545,31.179678,-13.500103,4.4788446,19.444685,-4.040289
1.666,55.610428,30.878765,-13.31263,4.343359,19.66895,-3.7239218
1.668,57.261906,30.540995,-13.1123905,4.1890087,19.87917,-3.4044347
1.67,59.034798,30.166504,-12.900192,4.0152335,20.074337,-3.0813546
1.672,60.9394,29.755571,-12.677563,3.8215702,20.253786,-2.754033
1.674,62.986237,29.3089,-12.446117,3.6076958,20.417318,-2.4216413
1.676,65.184586,28.82853,-12.207296,3.3733723,20.56516,-2.0832644
1.678,67.54391,28.317411,-11.962193,3.1184707,20.697985,-1.7379389
1.68,70.07189,27.780857,-11.712107,2.842975,20.817081,-1.3845763
1.682,72.775894,27.226353,-11.458057,2.5469851,20.92432,-1.02216
1.684,75.66193,26.662413,-11.202984,2.2306788,21.022058,-0.6497431
1.686,78.73515,26.098705,-10.950615,1.8942869,21.113155,-0.2664566
1.688,81.99967,25.547554,-10.704449,1.5380487,21.200886,0.12842035
1.69,85.45297,25.029829,-10.468807,1.1621294,21.288742,0.53547525
1.692,89.08612,24.57753,-10.246204,0.7665725,21.380201,0.95519495
1.694,92.89116,24.219078,-10.034359,0.35131073,21.478596,1.3878503
1.696,96.861755,23.982922,-9.831146,-0.08391905,21.586866,1.8335209
1.698,100.99111,23.901062,-9.645771,-0.5395813,21.70727,2.291992
1.7,105.26544,24.015734,-9.491104,-1.0163407,21.841255,2.762863
1.702,109.664536,24.378685,-9.381062,-1.5150752,21.989063,3.2456737
1.704,114.163864,25.036291,-9.326721,-2.0368996,22.149704,3.740203
1.706,118.72899,26.026857,-9.331997,-2.5830562,22.320787,4.2465143
1.708,123.34164,27.426853,-9.416336,-3.154849,22.49845,4.7650495
1.71,127.981895,29.286928,-9.57085,-3.7535396,22.67752,5.2966485
1.712,132.62523,31.650358,-9.804203,-4.3803024,22.85175,5.8427896
1.714,137.29576,34.484406,-10.149427,-5.03617,23.013891,6.405718
1.716,141.9953,37.812607,-10.63699,-5.7218227,23.155434,6.988203
1.718,146.67667,41.689983,-11.32106,-6.4379883,23.266127,7.5934606
1.72,151.2794,46.148666,-12.206058,-7.1856413,23.33388,8.224735
1.722,155.80588,51.26754,-13.281121,-7.9657264,23.34449,8.885559
1.724,160.24532,57.046543,-14.552242,-8.778803,23.283598,9.580299
1.726,164.58974,63.45929,-15.930873,-9.626041,23.13605,10.313525
1.728,168.83916,70.46876,-17.409985,-10.508582,22.885567,11.090502
1.73,173.01428,78.066124,-18.944155,-11.427465,22.514729,11.915367
1.732,177.11531,86.13088,-20.524055,-12.384886,22.004164,12.788755
1.734,181.18062,94.62902,-22.256964,-13.384415,21.334425,13.71035
1.736,185.22684,103.414925,-24.0358,-14.429628,20.489128,14.68236
1.738,189.28752,112.363785,-25.809128,-15.525412,19.451286,15.70681
1.74,193.41705,121.393036,-27.613462,-16.679935,18.20061,16.786596
1.742,197.5861,130.38022,-29.384546,-17.901514,16.719717,17.928408
1.744,201.81439,139.16295,-31.040758,-19.19979,14.993624,19.148476
1.746,206.11131,147.59521,-32.477333,-20.58184,13.014034,20.455334
1.748,210.48541,155.5181,-33.59522,-22.05281,10.778889,21.8586
1.75,214.94672,162.75127,-34.292046,-23.62539,8.291722,23.375092
1.752,219.49686,169.14072,-34.471745,-25.326803,5.545727,25.006773
1.754,224.10672,174.56352,-34.03164,-27.171629,2.52028,26.738724
1.756,228.76364,178.92282,-32.88309,-29.152937,-0.7793884,28.558262
1.758,233.43532,182.17024,-30.950338,-31.248978,-4.320402,30.451233
1.76,238.04913,184.28564,-28.156836,-33.43737,-8.072927,32.370148
1.762,242.52664,185.25905,-24.430952,-35.71244,-12.014548,34.2357
1.764,246.77354,185.10703,-19.732483,-38.04542,-16.104134,35.94222
1.766,250.67654,183.88011,-14.058956,-40.369705,-20.287859,37.379425
1.768,254.11487,181.66092,-7.448725,-42.610832,-24.514221,38.437088
1.77,256.9742,178.55197,0.027825356,-44.68006,-28.727798,39.004185
1.772,259.14627,174.65967,8.289892,-46.469692,-32.864246,38.97961
1.774,260.52237,170.1116,17.230766,-47.856617,-36.852768,38.279816
1.776,260.9993,165.04272,26.721142,-48.707832,-40.609646,36.84632
1.778,260.49603,159.58829,36.591473,-48.89391,-44.03739,34.654045
1.78,258.9584,153.8848,46.638145,-48.30433,-47.031067,31.718931
1.782,256.36386,148.06573,56.64173,-46.860718,-49.488884,28.102476
1.784,252.70636,142.26285,66.38105,-44.528206,-51.315384,23.912592
1.786,248.00655,136.5979,75.631744,-41.322548,-52.428387,19.299076
1.788,242.32153,131.17346,84.17122,-37.31409,-52.7724,14.437609
1.79,235.74004,126.07364,91.7952,-32.62583,-52.3276,9.519457
1.792,228.37244,121.36757,98.33097,-27.4212,-51.105705,4.7495403
1.794,220.34781,117.1107,103.64286,-21.887178,-49.146248,0.33314514
1.796,211.81148,113.34085,107.632744,-16.220665,-46.51989,-3.5421047
1.798,202.91731,110.07842,110.2402,-10.609696,-43.322567,-6.7237606
1.8,193.82666,107.32326,111.44573,-5.222991,-39.6733,-9.092943
1.802,184.6996,105.05677,111.26979,-0.19978333,-35.705265,-10.587486
1.804,175.68263,103.25887,109.770164,4.3621626,-31.55729,-11.211829
1.806,166.90657,101.903496,107.04309,8.404927,-27.358984,-11.021508
1.808,158.48558,100.95578,103.22848,11.883951,-23.234684,-10.128386
1.81,150.51917,100.368576,98.49032,14.771726,-19.330444,-8.708625
1.812,143.08763,100.08641,93.00827,17.06906,-15.788245,-6.975449
1.814,136.24803,100.05986,86.96628,18.810087,-12.707573,-5.135942
1.816,130.03772,100.2441,80.54404,20.059847,-10.148267,-3.3870788
1.818,124.45306,100.56003,73.92961,20.871592,-8.15186,-1.90472
1.82,119.47351,100.9603,67.27391,21.292173,-6.72422,-0.83765435
1.822,115.06646,101.40088,60.732,21.39494,-5.82368,-0.28332645
1.824,111.148285,101.89096,54.455215,21.261621,-5.3756475,-0.27202526
1.826,107.66242,102.36361,48.557987,20.972225,-5.2825007,-0.77368796
1.828,104.58846,102.72808,43.140373,20.602402,-5.4290833,-1.706802
1.83,101.89677,102.9278,38.22486,20.2187,-5.6985254,-2.9540946
1.832,99.49094,102.87695,33.80838,19.878643,-5.982143,-4.3819485
1.834,97.299835,102.576744,29.893167,19.628902,-6.1832595,-5.857826
1.836,95.25838,102.039566,26.394701,19.500847,-6.223037,-7.2651043
1.838,93.30425,101.271194,23.317549,19.509705,-6.0518394,-8.511286
1.84,91.37229,100.245026,20.623014,19.656029,-5.6503477,-9.531889
1.842,89.4316,99.026855,18.30447,19.928871,-5.0236387,-10.288836
1.844,87.42898,97.58052,16.433006,20.308428,-4.1964827,-10.77219
1.846,85.34793,95.969696,14.861721,20.767666,-3.210557,-11.000448
1.848,83.16512,94.21123,13.535545,21.274288,-2.11874,-11.011606
1.85,80.85241,92.280975,12.4808655,21.793877,-0.97634506,-10.852369
1.852,78.46071,90.20099,11.622635,22.292637,0.16634464,-10.570001
1.854,75.97908,88.02388,10.895569,22.740423,1.2681828,-10.207802
1.856,73.40593,85.77713,10.241417,23.112959,2.2973976,-9.802082
1.858,70.73697,83.49895,9.632515,23.39093,3.2305202,-9.378982
1.86,67.96411,81.24119,9.052925,23.56025,4.0523357,-8.953699
1.862,65.08436,79.02653,8.5021515,23.612257,4.7559643,-8.532511
1.864,62.115566,76.85884,7.9761353,23.543633,5.3427973,-8.114357
1.866,59.049477,74.73831,7.4818916,23.356266,5.820544,-7.6932034
1.868,55.893013,72.64856,7.0284157,23.056673,6.1998734,-7.261382
1.87,52.678978,70.58389,6.610592,22.654493,6.4919186,-6.811947
1.872,49.427963,68.561,6.2163086,22.161488,6.7085032,-6.3402114
1.874,46.162224,66.59647,5.847143,21.590658,6.861763,-5.844152
1.876,42.909138,64.70004,5.5143147,20.955336,6.9628763,-5.3242707
1.878,39.69095,62.87637,5.233839,20.26844,7.0212326,-4.7830896
1.88,36.51885,61.134754,5.0133953,19.54206,7.044381,-4.2248583
1.882,33.401577,59.49534,4.838125,18.78722,7.038346,-3.6551075
1.884,30.354622,57.965576,4.6942406,18.013786,7.008031,-3.0802312
1.886,27.396225,56.55106,4.568432,17.230541,6.957592,-2.5071645
1.888,24.534653,55.25671,4.466053,16.445215,6.890791,-1.9431419
1.89,21.77107,54.08177,4.401619,15.664551,6.8112907,-1.3954349
1.892,19.101456,53.02042,4.383733,14.894355,6.7227373,-0.87097645
1.894,16.533707,52.059956,4.4110355,14.139649,6.6288886,-0.37612438
1.896,14.074586,51.18628,4.4832945,13.404743,6.533444,0.08354187
1.898,11.720428,50.392044,4.602,12.693222,6.439967,0.5034785
1.9,9.463982,49.671318,4.763087,12.00798,6.351793,0.8803463
1.902,7.3009443,49.0157,4.9540606,11.351204,6.271905,1.2122192
1.904,5.227925,48.416477,5.1600943,10.724302,6.2028074,1.4986677
1.906,3.240088,47.868168,5.368045,10.127861,6.146475,1.7407141
1.908,1.3336871,47.366867,5.5684133,9.561617,6.104275,1.9406948
1.91,-0.49425602,46.909863,5.754183,9.02459,6.0770144,2.102092
1.912,-2.2463565,46.495075,5.919816,8.515124,6.0649333,2.2292933
1.914,-3.924888,46.119984,6.060258,8.031034,6.0677295,2.3273714
1.916,-5.532969,45.78083,6.1709867,7.5697455,6.0845323,2.4018917
1.918,-7.0743003,45.473316,6.2476244,7.12845,6.1139193,2.458605
1.92,-8.552734,45.193424,6.2867646,6.704301,6.1539574,2.503199
1.922,-9.971965,44.937874,6.2861457,6.2944984,6.20218,2.5410109
1.924,-11.33489,44.704113,6.2444468,5.8964176,6.2556033,2.5768318
1.926,-12.644309,44.490177,6.1624627,5.5077105,6.310831,2.614831
1.928,-13.902145,44.294964,6.042383,5.1263227,6.364121,2.6584053
1.93,-15.109838,44.11795,5.8874955,4.7505207,6.4114137,2.7101526
1.932,-16.26806,43.959045,5.7021813,4.3788204,6.4484506,2.7720184
1.934,-17.377237,43.818386,5.4914303,4.0099297,6.4708776,2.8453426
1.936,-18.436966,43.695168,5.260749,3.6426783,6.4744244,2.9308887
1.938,-19.446648,43.587933,5.015931,3.276012,6.4549823,3.0288384
1.94,-20.405422,43.494164,4.7631493,2.9089494,6.408739,3.1388378
1.942,-21.312378,43.410255,4.508603,2.5405939,6.332251,3.2600226
1.944,-22.166574,43.331627,4.258651,2.1702058,6.2225614,3.390988
1.946,-22.966543,43.252872,4.019784,1.7972226,6.0773296,3.5297883
1.948,-23.710752,43.168335,3.7985544,1.4212784,5.894839,3.673971
1.95,-24.398006,43.072216,3.6011295,1.0422267,5.6740675,3.820642
1.952,-25.026693,42.95876,3.4337387,0.66016424,5.414666,3.9665027
1.954,-25.595688,42.82235,3.3021002,0.27540874,5.1170235,4.108003
1.956,-26.103024,42.657055,3.211403,-0.11146951,4.7823186,4.241467
1.958,-26.546719,42.457794,3.166256,-0.49974465,4.412445,4.3633304
1.96,-26.92538,42.219986,3.1709423,-0.8884665,4.010022,4.470185
1.962,-27.237595,41.939865,3.229413,-1.276566,3.5784516,4.55889
1.964,-27.482206,41.614777,3.345192,-1.6628697,3.1218486,4.626732
1.966,-27.65816,41.242737,3.5209522,-2.0461335,2.6449442,4.6715374
1.968,-27.764988,40.82291,3.7586641,-2.4250665,2.1529903,4.6916924
1.97,-27.8025,40.355507,4.0597115,-2.7982912,1.6517246,4.6860356
1.972,-27.770893,39.84196,4.4238415,-3.1643596,1.1472677,4.65389
1.974,-27.670927,39.284676,4.8497047,-3.5217676,0.64599204,4.5950165
1.976,-27.503662,38.6872,5.3347673,-3.8689623,0.15439433,4.5095296
1.978,-27.270987,38.053894,5.8755856,-4.20436,-0.3210281,4.3978634
1.98,-26.974897,37.389893,6.4678574,-4.5264115,-0.7739304,4.2607594
1.982,-26.618221,36.700943,7.1060057,-4.833585,-1.1981634,4.099243
1.984,-26.204243,35.993324,7.7835197,-5.1243596,-1.5878587,3.9145808
1.986,-25.736824,35.273506,8.492583,-5.3972445,-1.9375317,3.708125
1.988,-25.220299,34.548016,9.224526,-5.6507683,-2.2422,3.4813054
1.99,-24.65922,33.823116,9.969827,-5.883554,-2.4974403,3.2357163
1.992,-24.05828,33.104504,10.718402,-6.094417,-2.699462,2.9731221
1.994,-23.42187,32.39748,11.459664,-6.2824273,-2.8451831,2.695496
1.996,-22.754524,31.706593,12.183038,-6.4469523,-2.9323103,2.4049919
1.998,-22.059923,31.03547,12.877915,-6.5877438,-2.9594128,2.103989
2,-21.34111,30.386827,13.534008,-6.70496,-2.9259496,1.795059
2.002,-20.601498,29.762981,14.1417675,-6.7991695,-2.8323035,1.4809245
2.004,-19.844608,29.165878,14.692149,-6.8713484,-2.67972,1.1644231
2.006,-19.0736,28.597298,15.176991,-6.9228096,-2.4702656,0.8484168
2.008,-18.290524,28.058794,15.589117,-6.955148,-2.2067986,0.5356846
2.01,-17.496334,27.55167,15.92261,-6.9701505,-1.892835,0.22884071
2.012,-16.691526,27.07725,16.172909,-6.9696555,-1.5324086,-0.069833755
2.014,-15.876213,26.63662,16.336733,-6.95555,-1.1300526,-0.35837173
2.016,-15.050257,26.230362,16.412666,-6.929599,-0.69068956,-0.6352222
2.018,-14.213638,25.859005,16.400526,-6.8934503,-0.21952045,-0.89937854
2.02,-13.366413,25.522825,16.301361,-6.8485775,0.27812403,-1.150379
2.022,-12.508854,25.222065,16.117592,-6.7963095,0.7968707,-1.3882897
2.024,-11.640942,24.956537,15.852844,-6.737843,1.3313315,-1.6136236
2.026,-10.762722,24.726267,15.511069,-6.6742744,1.8761781,-1.8273232
2.028,-9.874594,24.530783,15.097517,-6.6066236,2.4262402,-2.0306134
2.03,-8.977028,24.369251,14.618446,-6.5358496,2.9765954,-2.224887
2.032,-8.070614,24.240648,14.080439,-6.4628925,3.5226076,-2.4115734
2.034,-7.1566963,24.14391,13.490442,-6.3886995,4.0600157,-2.5920324
2.036,-6.2358737,24.07764,12.855428,-6.3142347,4.5849614,-2.7674186
2.038,-5.3090005,24.039751,12.182284,-6.2404866,5.09402,-2.9386292
2.04,-4.3767433,24.027807,11.478048,-6.1684647,5.5842347,-3.1062088
2.042,-3.4404988,24.03949,10.749918,-6.0991807,6.053091,-3.2703297
2.044,-2.501669,24.072142,10.00486,-6.0336227,6.498507,-3.4308233
2.046,-1.5617743,24.123232,9.249564,-5.9726973,6.9188576,-3.5872219
2.048,-0.6223097,24.18973,8.490116,-5.9172306,7.3128967,-3.7388444
2.05,0.31525087,24.268608,7.7321954,-5.8678975,7.6796966,-3.8848968
2.052,1.2497878,24.35678,6.981334,-5.8252482,8.018597,-4.024551
2.054,2.180016,24.4512,6.242749,-5.789608,8.329182,-4.1570296
2.056,3.104791,24.54899,5.5211987,-5.761053,8.611296,-4.2817287
2.058,4.0228786,24.64702,4.8210635,-5.7393956,8.864916,-4.3982882
2.06,4.932909,24.742622,4.1463003,-5.7242355,9.090147,-4.506598
2.062,5.833688,24.833149,3.5000658,-5.714907,9.287245,-4.606774
2.064,6.723771,24.916216,2.8851008,-5.7104945,9.456711,-4.699111
2.066,7.601811,24.989674,2.303465,-5.7098923,9.5993185,-4.78406
2.068,8.466582,25.051462,1.7567188,-5.711822,9.716158,-4.8621225
2.07,9.316911,25.09983,1.2459867,-5.71485,9.808737,-4.9338417
2.072,10.151778,25.133217,0.7715736,-5.717476,9.879013,-4.9997044
2.074,10.969942,25.150133,0.33317882,-5.71815,9.929457,-5.0601616
2.076,11.770222,25.149683,-0.07000077,-5.715324,9.962983,-5.115612
2.078,12.551083,25.131113,-0.4392207,-5.7074804,9.982906,-5.166389
2.08,13.311917,25.093018,-0.7760309,-5.6931825,9.992846,-5.2127905
2.082,14.051178,25.034685,-1.0822934,-5.671085,9.996564,-5.2551417
2.084,14.768206,24.955273,-1.360146,-5.639961,9.997839,-5.293758
2.086,15.461755,24.854162,-1.6120652,-5.598696,10.000261,-5.3289747
2.088,16.13092,24.730665,-1.8408856,-5.5463448,10.007118,-5.361124
2.09,16.774586,24.583878,-2.0498085,-5.482114,10.021225,-5.3905125
2.092,17.39173,24.413244,-2.241883,-5.405346,10.044886,-5.417393
2.094,17.98117,24.21814,-2.420413,-5.315574,10.079821,-5.4419417
2.096,18.541853,23.998192,-2.5887432,-5.212491,10.127167,-5.464261
2.098,19.072594,23.753098,-2.7500644,-5.0959635,10.187481,-5.4843454
2.1,19.572283,23.482567,-2.9079313,-4.9660473,10.260743,-5.502069
2.102,20.039785,23.186644,-3.0654626,-4.82298,10.346391,-5.5171504
2.104,20.473782,22.865358,-3.2256231,-4.667181,10.443419,-5.529159
2.106,20.873388,22.519144,-3.391283,-4.4991956,10.550444,-5.537572
2.108,21.237257,22.148544,-3.5651278,-4.31974,10.665661,-5.5418243
2.11,21.564325,21.753866,-3.7495337,-4.1297154,10.786902,-5.541259
2.112,21.853333,21.336033,-3.9466724,-3.9301243,10.911755,-5.5351253
2.114,22.1033,20.896017,-4.15796,-3.7220917,11.0374975,-5.5226436
2.116,22.313082,20.434986,-4.384529,-3.5068085,11.161133,-5.503172
2.118,22.481739,19.954334,-4.6268787,-3.2855353,11.279455,-5.476245
2.12,22.608807,19.455647,-4.8849144,-3.0595899,11.3890295,-5.441563
2.122,22.694191,18.940414,-5.158122,-2.830329,11.486273,-5.3989787
2.124,22.737732,18.410484,-5.445384,-2.5990999,11.567551,-5.348523
2.126,22.739908,17.867897,-5.7452154,-2.3672113,11.629248,-5.290474
2.128,22.701382,17.314672,-6.055668,-2.1359282,11.667818,-5.2252755
2.13,22.623121,16.75306,-6.3742285,-1.906458,11.679967,-5.153539
2.132,22.506548,16.185705,-6.698082,-1.6799389,11.6627445,-5.0759516
2.134,22.353401,15.615208,-7.0237083,-1.4574107,11.613629,-4.9932294
2.136,22.165783,15.044163,-7.346819,-1.2397984,11.530665,-4.9060655
2.138,21.946291,14.475525,-7.6633987,-1.0279162,11.412449,-4.8150773
2.14,21.697979,13.912274,-7.969208,-0.82245046,11.258197,-4.720719
2.142,21.423716,13.357523,-8.25952,-0.6239526,11.067775,-4.6232862
2.144,21.127123,12.8146105,-8.529262,-0.43283123,10.8417,-4.522979
2.146,20.811668,12.286775,-8.773451,-0.24936813,10.581088,-4.4199343
2.148,20.481485,11.777466,-8.98731,-0.07370156,10.287601,-4.3142424
2.15,20.140602,11.290148,-9.166681,0.09412867,9.963358,-4.2059608
2.152,19.793201,10.828123,-9.307495,0.25419086,9.610916,-4.09517
2.154,19.44332,10.394876,-9.406229,0.40661854,9.23315,-3.9819808
2.156,19.095236,9.993864,-9.46003,0.55162066,8.833231,-3.8665915
2.158,18.75303,9.628386,-9.466677,0.6894495,8.41451,-3.7492397
2.16,18.420742,9.301395,-9.42467,0.8203859,7.9805093,-3.630222
2.162,18.101799,9.015746,-9.333506,0.9447251,7.5348287,-3.509892
2.164,17.79975,8.773847,-9.193326,1.0627956,7.081099,-3.3886957
2.166,17.517542,8.577655,-9.004994,1.1749411,6.622975,-3.2671704
2.168,17.257856,8.428749,-8.770153,1.281514,6.164047,-3.1459386
2.17,17.02278,8.328266,-8.491846,1.382867,5.7077603,-3.025607
2.172,16.81398,8.276917,-8.173006,1.4793813,5.257332,-2.9067996
2.174,16.632803,8.274379,-7.817053,1.5715189,4.815798,-2.790176
2.176,16.47983,8.320024,-7.428485,1.6598166,4.3859134,-2.676437
2.178,16.355295,8.412556,-7.0118947,1.7448432,3.970054,-2.5662885
2.18,16.258986,8.550086,-6.5720315,1.8272341,3.570225,-2.460403
2.182,16.190035,8.73029,-6.113895,1.9076941,3.1880476,-2.3594284
2.184,16.147377,8.950425,-5.642578,1.9869555,2.824713,-2.264017
2.186,16.1295,9.207277,-5.1629534,2.0657356,2.4809756,-2.1748338
2.188,16.134926,9.497084,-4.679644,2.1446853,2.157162,-2.0925474
2.19,16.161222,9.816673,-4.1971726,2.2243314,1.8531835,-2.017841
2.192,16.207148,10.161825,-3.7195768,2.3050172,1.5686073,-1.951368
2.194,16.270271,10.528366,-3.2506084,2.3868473,1.3026967,-1.8937783
2.196,16.348917,10.91151,-2.793211,2.4696808,1.0544392,-1.845626
2.198,16.441174,11.30663,-2.3498182,2.55314,0.82274,-1.8073169
2.2,16.545084,11.70929,-1.9220095,2.6364799,0.6061743,-1.779147
2.202,16.658913,12.114774,-1.5111399,2.7187386,0.4032616,-1.7613796
2.204,16.78124,12.518181,-1.117939,2.7989638,0.21274525,-1.7542033
2.206,16.910461,12.914656,-0.7425537,2.8761528,0.033418097,-1.7577893
2.208,17.045523,13.299538,-0.3847704,2.9493265,-0.13582605,-1.7723316
2.21,17.18517,13.668425,-0.043842316,3.0176508,-0.29587314,-1.7980134
2.212,17.3285,14.016918,0.2809162,3.0804968,-0.4473786,-1.8350503
2.214,17.474667,14.341009,0.59082985,3.1375065,-0.59076023,-1.8836782
2.216,17.62287,14.63706,0.8872194,3.1886356,-0.7261542,-1.9441167
2.218,17.772469,14.901869,1.171463,3.2341466,-0.8534634,-2.0165155
2.22,17.922636,15.1328125,1.4448881,3.274569,-0.9723457,-2.100896
2.222,18.072983,15.327403,1.70893,3.3106775,-1.0822651,-2.1970482
2.224,18.222567,15.48376,1.9645061,3.343385,-1.1825818,-2.30445
2.226,18.370743,15.600559,2.2126665,3.3736615,-1.2726152,-2.4222124
2.228,18.516565,15.6770525,2.4540644,3.4024427,-1.3517427,-2.549026
2.23,18.659199,15.713009,2.6893816,3.4305682,-1.4194753,-2.68316
2.232,18.797508,15.7090645,2.9191685,3.4586968,-1.475503,-2.8225408
2.234,18.93044,15.666238,3.1436481,3.4872506,-1.5197718,-2.9648817
2.236,19.05691,15.585995,3.363124,3.5164094,-1.5525053,-3.1078436
2.238,19.17564,15.470446,3.5776558,3.5461411,-1.5742029,-3.2491708
2.24,19.28563,15.321929,3.7873821,3.576269,-1.5856128,-3.3868694
2.242,19.38594,15.143069,3.9924011,3.6064932,-1.5876898,-3.5192962
2.244,19.475561,14.936806,4.192548,3.6364667,-1.5815425,-3.645218
2.246,19.553556,14.706157,4.387911,3.665864,-1.5683918,-3.7638516
2.248,19.619192,14.454174,4.5787764,3.6944323,-1.5494623,-3.874792
2.25,19.671768,14.184039,4.7652235,3.7219994,-1.5259475,-3.9779646
2.252,19.710783,13.898852,4.947449,3.7484741,-1.4990143,-4.0735044
2.254,19.735636,13.601393,5.125661,3.773965,-1.4694843,-4.1616545
2.256,19.745913,13.294292,5.3001957,3.7986362,-1.4380524,-4.242647
2.258,19.741116,12.98007,5.471526,3.822616,-1.4053813,-4.3167105
2.26,19.721087,12.660797,5.640147,3.84615,-1.3718042,-4.383997
2.262,19.685514,12.338749,5.8064213,3.8695898,-1.3373587,-4.444565
2.264,19.634165,12.015684,5.970724,3.8933203,-1.3019171,-4.498385
2.266,19.566837,11.693067,6.1335664,3.9177508,-1.2651583,-4.545341
2.268,19.483532,11.3724,6.295128,3.943317,-1.2265962,-4.5851965
2.27,19.384134,11.055006,6.455475,3.9704387,-1.1856691,-4.6176076
2.272,19.268835,10.742041,6.6146517,3.9995275,-1.1417677,-4.6421566
2.274,19.13766,10.434472,6.772492,4.0309596,-1.0943135,-4.658345
2.276,18.990646,10.1333885,6.9285364,4.0650444,-1.0427744,-4.665604
2.278,18.827986,9.839784,7.082218,4.102026,-0.98672074,-4.663371
2.28,18.650179,9.554465,7.2334456,4.142065,-0.9258497,-4.651109
2.282,18.457518,9.278159,7.381057,4.1852098,-0.86003757,-4.6283503
2.284,18.250637,9.011977,7.5238214,4.2313952,-0.78934777,-4.594749
2.286,18.030369,8.756558,7.6610756,4.2804537,-0.71403474,-4.5500727
2.288,17.797617,8.512453,7.791577,4.3321133,-0.6345328,-4.4942827
2.29,17.553411,8.280206,7.913815,4.38602,-0.5514164,-4.42754
2.292,17.298895,8.059754,8.026642,4.441753,-0.46538633,-4.350229
2.294,17.035177,7.8506193,8.129122,4.498825,-0.37721258,-4.262939
2.296,16.76369,7.6525207,8.22049,4.5567455,-0.28767067,-4.166474
2.298,16.485983,7.4653225,8.299925,4.615024,-0.19752616,-4.0618196
2.3,16.203537,7.2888494,8.36677,4.673186,-0.1074729,-3.9500659
2.302,15.917878,7.122733,8.420454,4.730778,-0.01813066,-3.8323681
2.304,15.630765,6.966465,8.460382,4.787381,0.06999588,-3.709901
2.306,15.343885,6.8196716,8.486223,4.842586,0.15649945,-3.5837765
2.308,15.058617,6.681898,8.497772,4.8960075,0.24107105,-3.4550068
2.31,14.776566,6.552537,8.49515,4.947255,0.32345495,-3.3244903
2.312,14.499271,6.4310083,8.478843,4.995939,0.40346256,-3.1929824
2.314,14.228149,6.3167896,8.449367,5.041666,0.48096046,-3.061098
2.316,13.96453,6.20936,8.4074335,5.0840364,0.55581546,-2.9293194
2.318,13.709433,6.108121,8.353939,5.122649,0.62792,-2.7979546
2.32,13.4639225,6.0126343,8.289879,5.1571465,0.6972368,-2.6673384
2.322,13.228776,5.9225807,8.216488,5.1872277,0.7636755,-2.5376997
2.324,13.004823,5.8375573,8.134846,5.2126527,0.8271365,-2.409256
2.326,12.792527,5.7572303,8.046196,5.2332106,0.88756645,-2.2821198
2.328,12.592284,5.6814375,7.9520454,5.2487793,0.94499224,-2.1563804
2.33,12.404317,5.6101146,7.853648,5.259332,0.9994346,-2.0321908
2.332,12.228494,5.5430794,7.752412,5.264956,1.0509317,-1.9097505
2.334,12.064852,5.480399,7.649531,5.265888,1.0995021,-1.7892668
2.336,11.91315,5.422025,7.5461917,5.262486,1.1451759,-1.6709495
2.338,11.773033,5.368082,7.443508,5.25518,1.1879498,-1.5549575
2.34,11.644061,5.318639,7.342436,5.244459,1.2278327,-1.4414122
2.342,11.525595,5.2737446,7.2436657,5.230783,1.2648377,-1.3303547
2.344,11.417193,5.233448,7.148108,5.2145205,1.2989746,-1.221755
2.346,11.317993,5.1979656,7.0561786,5.1959352,1.3302596,-1.1155123
2.348,11.227315,5.167391,6.968384,5.1751657,1.3586987,-1.0114857
2.35,11.144094,5.1419287,6.884962,5.152209,1.3842509,-0.90953785
2.352,11.067469,5.121641,6.806217,5.126981,1.4068427,-0.8095933
2.354,10.996502,5.1066685,6.7323046,5.099335,1.4263091,-0.71169615
2.356,10.930301,5.09702,6.663268,5.069139,1.4423807,-0.6160309
2.358,10.868044,5.0927153,6.599024,5.0362964,1.454684,-0.5229014
2.36,10.808825,5.0936804,6.5394325,5.0006857,1.4627837,-0.43276146
2.362,10.751894,5.0996976,6.484198,4.9624653,1.466101,-0.3461255
2.364,10.696574,5.1106014,6.4331,4.921684,1.4641051,-0.26352492
2.366,10.642233,5.126149,6.385899,4.878468,1.4562649,-0.18543747
2.368,10.588376,5.146014,6.3422623,4.832962,1.442093,-0.112252414
2.37,10.534384,5.169835,6.301957,4.7852926,1.4212153,-0.04423535
2.372,10.479981,5.197077,6.2646527,4.7355742,1.3933797,0.018437922
2.374,10.424937,5.2272224,6.2302313,4.6838903,1.3584121,0.07582912
2.376,10.369089,5.2597213,6.198478,4.630299,1.3163424,0.12799987
2.378,10.312172,5.294044,6.1693954,4.574898,1.267307,0.17507972
2.38,10.254456,5.329644,6.1426897,4.5178113,1.2114542,0.2171749
2.382,10.1958275,5.365897,6.1183805,4.459168,1.1489785,0.2544384
2.384,10.136425,5.4024034,6.0964317,4.3990874,1.0801561,0.2870772
2.386,10.076481,5.438503,6.076824,4.3376627,1.005271,0.31531525
2.388,10.016171,5.4737697,6.05959,4.274949,0.9246243,0.3393407
2.39,9.955664,5.507617,6.044862,4.2110023,0.83850265,0.35932082
2.392,9.89523,5.5394692,6.03283,4.145868,0.74717116,0.37540805
2.394,9.835096,5.56898,6.0235677,4.079614,0.6508988,0.38777414
2.396,9.775588,5.595794,6.017381,4.0123453,0.54994434,0.39659113
2.398,9.716925,5.6195483,6.0145426,3.9442024,0.44458312,0.40201607
2.4,9.659441,5.639977,6.0153546,3.8753297,0.335117,0.40419608
2.402,9.603493,5.657022,6.020159,3.8058937,0.22186112,0.4032571
2.404,9.549581,5.6707306,6.02891,3.736054,0.10515869,0.3993231
2.406,9.497868,5.6806984,6.041558,3.665951,-0.014636934,0.39251885
2.408,9.448363,5.6864486,6.0581937,3.5957367,-0.13713619,0.38297796
2.41,9.40118,5.6875305,6.079057,3.5255282,-0.26190582,0.37085363
2.412,9.356328,5.683791,6.1043143,3.4554563,-0.38847637,0.35630938
2.414,9.313787,5.6754045,6.134273,3.3856864,-0.516346,0.3395293
2.416,9.273618,5.6622953,6.16914,3.316213,-0.64489955,0.32070443
2.418,9.235988,5.6446576,6.209068,3.2472365,-0.7735188,0.300042
2.42,9.200869,5.6225986,6.254094,3.1788776,-0.90150344,0.2777454
2.422,9.168328,5.596256,6.304059,3.1112583,-1.0280776,0.25403088
2.424,9.13831,5.56596,6.3589478,3.0444822,-1.1524353,0.2291248
2.426,9.110839,5.531895,6.41858,2.9786327,-1.2737778,0.20326245
2.428,9.085816,5.4944067,6.4827185,2.913762,-1.3913506,0.17668425
2.43,9.063217,5.453655,6.5510187,2.8499124,-1.5044837,0.14965132
2.432,9.042924,5.409835,6.6231885,2.787085,-1.6125998,0.12243748
2.434,9.024743,5.363186,6.698905,2.7252903,-1.7152419,0.09533407
2.436,9.008717,5.3140297,6.7777314,2.664511,-1.8121041,0.06863708
2.438,8.994576,5.262546,6.859213,2.6047351,-1.9029889,0.042663693
2.44,8.982084,5.2090116,6.9429483,2.545968,-1.9877717,0.01770538
2.442,8.971037,5.153751,7.028295,2.4882133,-2.0664155,-0.0059615076
2.444,8.9611845,5.0970163,7.114983,2.4314835,-2.1389196,-0.028089255
2.446,8.952022,5.0391483,7.202425,2.3758154,-2.205291,-0.04845974
2.448,8.943454,4.9803166,7.2902207,2.321224,-2.265561,-0.06690362
2.45,8.935137,4.920824,7.377819,2.2677553,-2.319738,-0.08329101
2.452,8.926763,4.8609233,7.4647975,2.2154634,-2.3677943,-0.09751423
2.454,8.91801,4.800811,7.550589,2.164423,-2.4096906,-0.10951114
2.456,8.908562,4.7405105,7.634681,2.1147335,-2.4453518,-0.1192458
2.458,8.898644,4.680147,7.7165184,2.0665078,-2.474685,-0.12670797
2.46,8.888033,4.619833,7.7956853,2.0198722,-2.4976003,-0.1319046
2.462,8.876439,4.559764,7.8717527,1.9749497,-2.5140376,-0.13485256
2.464,8.863864,4.4999995,7.9442887,1.931853,-2.5239854,-0.13556945
2.466,8.850405,4.440713,8.012964,1.8906543,-2.5274951,-0.13409507
2.468,8.836012,4.3818917,8.077647,1.8513869,-2.5247028,-0.13048667
2.47,8.820746,4.3235664,8.138353,1.8140249,-2.515827,-0.12484455
2.472,8.804889,4.265748,8.194867,1.7784735,-2.50121,-0.11730048
2.474,8.78859,4.2084837,8.247338,1.7445742,-2.4812913,-0.10802695
2.476,8.772086,4.1517043,8.295758,1.7121052,-2.4566092,-0.097218305
2.478,8.755785,4.0952725,8.3401985,1.680806,-2.4277828,-0.085079074
2.48,8.739919,4.0392733,8.380953,1.6503816,-2.395489,-0.07179621
2.482,8.724538,3.9836934,8.418129,1.6205236,-2.3604283,-0.057530165
2.484,8.709999,3.9286094,8.451949,1.5909312,-2.3232799,-0.042390943
2.486,8.69675,3.8739839,8.482686,1.5613343,-2.2846937,-0.026440442
2.488,8.685057,3.819881,8.510531,1.5314897,-2.245257,-0.009658009
2.49,8.674997,3.7663128,8.535849,1.5012362,-2.2054787,0.008017391
2.492,8.666973,3.7132568,8.558833,1.4704863,-2.1657524,0.026667714
2.494,8.661103,3.660613,8.579705,1.4392031,-2.1263783,0.046369463
2.496,8.657453,3.6084762,8.598833,1.4073943,-2.0875993,0.06719798
2.498,8.656081,3.5567439,8.616427,1.3751087,-2.0495706,0.089182645
2.5,8.656898,3.5055556,8.632674,1.342383,-2.0124197,0.112315565
2.502,8.659664,3.4550335,8.64776,1.3092749,-1.9762461,0.13656914
2.504,8.664223,3.4051652,8.661893,1.2758069,-1.9410925,0.16186857
2.506,8.670159,3.3561203,8.675125,1.2420166,-1.9069567,0.18810233
2.508,8.677066,3.3081245,8.687527,1.2079455,-1.873749,0.21515617
2.51,8.684609,3.2612529,8.699027,1.173641,-1.8412725,0.24286994
2.512,8.692283,3.2157292,8.70935,1.1391996,-1.8091946,0.27106658
2.514,8.699637,3.1717448,8.718277,1.1047449,-1.777041,0.29952598
2.516,8.7062235,3.129469,8.725544,1.0704534,-1.7441965,0.3280186
2.518,8.711641,3.0890872,8.730761,1.0365164,-1.7099565,0.3563041
2.52,8.715386,3.0508041,8.733483,1.0031575,-1.6735824,0.38416728
2.522,8.717127,3.0148053,8.733319,0.9705768,-1.6343429,0.41142273
2.524,8.716526,2.981336,8.729912,0.93893063,-1.5916381,0.43794233
2.526,8.713313,2.9506087,8.722749,0.9082814,-1.5450387,0.4636623
2.528,8.70735,2.9227269,8.711489,0.8786051,-1.4943652,0.48860013
2.53,8.698379,2.8979268,8.695929,0.8497512,-1.439717,0.51283824
2.532,8.686157,2.8763323,8.675932,0.82144135,-1.3815125,0.53652954
2.534,8.670751,2.8580313,8.651641,0.79329455,-1.3204434,0.55987465
2.536,8.652092,2.8432422,8.623227,0.7648307,-1.2574558,0.58310527
2.538,8.6304865,2.8318646,8.591071,0.7355004,-1.1937106,0.6064514
2.54,8.605868,2.8240228,8.555571,0.70474714,-1.1304858,0.63013935
2.542,8.578347,2.8197799,8.517217,0.6720274,-1.0690364,0.654379
2.544,8.547917,2.8191311,8.476596,0.636827,-1.0105565,0.67935264
2.546,8.514735,2.821826,8.434311,0.5987237,-0.9560827,0.7052336
2.548,8.479091,2.827634,8.391077,0.5574097,-0.90637255,0.73216766
2.55,8.441179,2.8363147,8.347612,0.5127109,-0.8618485,0.7602283
2.552,8.401181,2.8476,8.304662,0.46457762,-0.82262444,0.7894378
2.554,8.359241,2.8611405,8.26284,0.4130932,-0.7884672,0.8197367
2.556,8.315719,2.8767638,8.222763,0.35841918,-0.7588721,0.8509951
2.558,8.270422,2.8941941,8.184942,0.30079383,-0.7331299,0.8830439
2.56,8.223765,2.9131384,8.149797,0.24049404,-0.7103933,0.91567314
2.562,8.175853,2.9332988,8.117669,0.17782688,-0.6897841,0.9486568
2.564,8.126765,2.9544876,8.088627,0.113087535,-0.6704808,0.98179907
2.566,8.077157,2.9763956,8.06285,0.046553932,-0.651773,1.0149281
2.568,8.026634,2.9987798,8.040304,-0.021537684,-0.6331148,1.0479388
2.57,7.9758267,3.0213418,8.020887,-0.09103146,-0.61417687,1.0807753
2.572,7.925048,3.0437372,8.004286,-0.16179913,-0.5948234,1.1134423
2.574,7.874585,3.0657706,7.9902434,-0.23377708,-0.5750797,1.1459664
2.576,7.8246884,3.087243,7.978544,-0.30695564,-0.5551159,1.1784127
2.578,7.7759356,3.10794,7.96889,-0.38135332,-0.53515637,1.2108239
2.58,7.728575,3.1275826,7.9609528,-0.45699498,-0.5154113,1.2432326
2.582,7.683015,3.1461067,7.954841,-0.5339298,-0.4960491,1.2756329
2.584,7.6397433,3.163192,7.9502378,-0.6121474,-0.4771089,1.3079749
2.586,7.5990934,3.1787825,7.9472175,-0.69159734,-0.4584784,1.3401406
2.588,7.561353,3.1927629,7.945749,-0.7721691,-0.43991274,1.3719925
2.59,7.527026,3.2049367,7.9458838,-0.85367584,-0.42103,1.4033642
2.592,7.4966393,3.2150917,7.9477067,-0.9358844,-0.40134722,1.4340897
2.594,7.47042,3.223221,7.951614,-1.0185273,-0.38033795,1.4640381
2.596,7.448401,3.2293344,7.957692,-1.1012801,-0.35751095,1.4931223
2.598,7.4308586,3.2332487,7.9661922,-1.1838185,-0.33238655,1.5213299
2.6,7.418028,3.2351422,7.9773684,-1.2658544,-0.30456758,1.5487075
2.602,7.409934,3.235288,7.991259,-1.3471107,-0.27375254,1.5753719
2.604,7.406647,3.2339296,8.007947,-1.4273639,-0.23973107,1.6014695
2.606,7.4084134,3.231174,8.027405,-1.506443,-0.20237648,1.6271579
2.608,7.414943,3.2274017,8.049433,-1.5842457,-0.16165495,1.6525743
2.61,7.4263883,3.2227938,8.073881,-1.660716,-0.1176061,1.6777982
2.612,7.442652,3.2177253,8.100447,-1.7358469,-0.07033497,1.7028428
2.614,7.4635115,3.2125602,8.128758,-1.8096871,-0.02000016,1.727653
2.616,7.4888024,3.2077522,8.158374,-1.8823057,0.033191264,1.7521003
2.618,7.5184674,3.2036538,8.18881,-1.9537845,0.08900243,1.776011
2.62,7.5518794,3.2007513,8.21969,-2.024206,0.1471822,1.7991742
2.622,7.5888324,3.1996021,8.250632,-2.0936363,0.20746371,1.821361
2.624,7.6287804,3.200731,8.281235,-2.1621256,0.26961,1.8423656
2.626,7.67149,3.204619,8.311079,-2.2297235,0.33337402,1.8619957
2.628,7.71632,3.2117958,8.339827,-2.2964857,0.39849752,1.8801255
2.63,7.762865,3.222759,8.36726,-2.362462,0.464747,1.8966657
2.632,7.810527,3.2379427,8.393002,-2.4277153,0.5318866,1.9115692
2.634,7.858826,3.2577064,8.416949,-2.4923334,0.5996526,1.9248314
2.636,7.9071302,3.2825782,8.439002,-2.556412,0.66777706,1.9364783
2.638,7.954963,3.3128905,8.459072,-2.6200914,0.7359451,1.9465742
2.64,8.001986,3.3489785,8.477111,-2.683531,0.8038006,1.9552397
2.642,8.047653,3.391181,8.493147,-2.7468936,0.87096304,1.962618
2.644,8.091568,3.439733,8.507207,-2.8103573,0.9370291,1.9688777
2.646,8.133306,3.49483,8.519394,-2.8740644,1.0016111,1.9742055
2.648,8.172388,3.5566847,8.529785,-2.938135,1.0643649,1.9787787
2.65,8.208722,3.6253664,8.538713,-3.002633,1.1249816,1.982734
2.652,8.241994,3.7008996,8.546345,-3.0675704,1.1832289,1.986198
2.654,8.272274,3.783181,8.552885,-3.1329024,1.2389448,1.9892627
2.656,8.299303,3.872163,8.558697,-3.198542,1.2920401,1.9919643
2.658,8.323006,3.967781,8.564035,-3.264373,1.3425122,1.9942954
2.66,8.343519,4.069677,8.569128,-3.330253,1.390425,1.9961895
2.662,8.361013,4.177597,8.574236,-3.3960385,1.4359001,1.9975448
2.664,8.375576,4.2911925,8.5796175,-3.461609,1.4790874,1.9982216
2.666,8.387467,4.409776,8.585681,-3.5268533,1.5201441,1.9980434
2.668,8.397169,4.532957,8.592501,-3.5917006,1.5592417,1.9968306
2.67,8.404765,4.6601973,8.600426,-3.6561217,1.5965577,1.9944128
2.672,8.410775,4.790813,8.609793,-3.7200978,1.6322434,1.9906325
2.674,8.415603,4.924257,8.620877,-3.7836466,1.6664579,1.9853859
2.676,8.419399,5.0600815,8.633882,-3.8467803,1.6993787,1.9786148
2.678,8.422721,5.1976614,8.649079,-3.9095018,1.7311821,1.9703016
2.68,8.425812,5.336506,8.666695,-3.9718013,1.7620964,1.9605013
2.682,8.429144,5.4761114,8.686914,-4.03362,1.7923908,1.9493024
2.684,8.433144,5.6159644,8.709889,-4.0948596,1.8223771,1.9368465
2.686,8.438154,5.755494,8.73579,-4.1553774,1.852431,1.9233314
2.688,8.444151,5.8944473,8.764693,-4.2149777,1.8830009,1.9089556
2.69,8.451632,6.032586,8.796616,-4.2734246,1.9145892,1.8939428
2.692,8.460568,6.169595,8.831378,-4.3304462,1.9477432,1.8785053
2.694,8.471312,6.30528,8.869028,-4.3857474,1.9830527,1.8628293
2.696,8.483965,6.4395347,8.909278,-4.4390216,2.021115,1.8470774
2.698,8.498653,6.572175,8.95194,-4.4899516,2.062531,1.8313974
2.7,8.515534,6.703247,8.996613,-4.5382576,2.1078677,1.8159024
2.702,8.534662,6.8327923,9.043032,-4.5836887,2.1576161,1.8006797
2.704,8.556089,6.9607396,9.090568,-4.626049,2.212236,1.785806
2.706,8.579926,7.0872355,9.138788,-4.6651793,2.2720633,1.7713209
2.708,8.606352,7.212496,9.187233,-4.7009854,2.3373427,1.7572366
2.71,8.635321,7.33652,9.235251,-4.7334266,2.4082203,1.7435447
2.712,8.666855,7.4594374,9.28238,-4.762522,2.4847188,1.730235
2.714,8.701227,7.5814276,9.328093,-4.788342,2.5667458,1.7172854
2.716,8.738279,7.7027235,9.371788,-4.8109965,2.6540937,1.7046816
2.718,8.778193,7.823472,9.413103,-4.830625,2.7464886,1.6924272
2.72,8.82095,7.943965,9.451472,-4.847411,2.8435774,1.6805302
2.722,8.866753,8.064431,9.486566,-4.861542,2.944957,1.6689966
2.724,8.915622,8.18514,9.51799,-4.873217,3.0502033,1.657859
2.726,8.967613,8.306292,9.545385,-4.882649,3.158897,1.6471695
2.728,9.022732,8.428269,9.568511,-4.890022,3.2706053,1.6369848
2.73,9.081293,8.551319,9.587083,-4.8955245,3.3849506,1.6273608
2.732,9.143286,8.67569,9.600777,-4.8993225,3.5015836,1.61837
2.734,9.208976,8.801721,9.609458,-4.9015574,3.620185,1.6100872
2.736,9.278336,8.929632,9.612933,-4.902356,3.7404618,1.6025805
2.738,9.351659,9.059689,9.610986,-4.901822,3.862164,1.5958874
2.74,9.429161,9.192116,9.603416,-4.9000273,3.9850519,1.5900137
2.742,9.511164,9.327007,9.590097,-4.897051,4.1088924,1.5849496
2.744,9.597535,9.464747,9.570707,-4.8929477,4.233471,1.5806309
2.746,9.688647,9.605369,9.545069,-4.8877754,4.3585386,1.5769742
2.748,9.784532,9.74913,9.513077,-4.8816037,4.4838142,1.5738568
2.75,9.885273,9.896102,9.474379,-4.8745346,4.6089687,1.5711471
2.752,9.991089,10.046422,9.428787,-4.8666954,4.7335916,1.5686994
2.754,10.101862,10.200151,9.375988,-4.8582454,4.8572035,1.5663797
2.756,10.217684,10.357249,9.315794,-4.849394,4.979273,1.564042
2.758,10.33849,10.517717,9.24795,-4.8403788,5.099165,1.5615709
2.76,10.464107,10.681431,9.172194,-4.8314915,5.2162175,1.5588675
2.762,10.594315,10.848199,9.088278,-4.823037,5.329706,1.555865
2.764,10.728746,11.017796,8.996098,-4.8153276,5.438901,1.5524936
2.766,10.867083,11.190021,8.895536,-4.808689,5.5430965,1.5486813
2.768,11.008862,11.364371,8.786516,-4.80342,5.641649,1.5443615
2.77,11.15356,11.540487,8.669167,-4.7997646,5.7340055,1.5394366
2.772,11.300442,11.7177515,8.5435705,-4.797899,5.819748,1.5337987
2.774,11.449037,11.895464,8.409737,-4.7979107,5.898617,1.5273538
2.776,11.59844,12.073088,8.267822,-4.799756,5.970538,1.5199716
2.778,11.74779,12.249809,8.117985,-4.803288,6.0356426,1.5115538
2.78,11.896328,12.424894,7.9601674,-4.8082395,6.0942354,1.5020142
2.782,12.043067,12.5977125,7.794491,-4.8142533,6.1467996,1.4913347
2.784,12.187094,12.767367,7.621069,-4.8208904,6.193918,1.4795835
2.786,12.327261,12.933148,7.4399896,-4.8277082,6.2362833,1.4669347
2.788,12.4626255,13.09416,7.2512107,-4.834251,6.274621,1.4536452
2.79,12.592112,13.249733,7.0546913,-4.8401027,6.3096275,1.440095
2.792,12.714691,13.399083,6.8503914,-4.8449554,6.341928,1.4267578
2.794,12.829065,13.541545,6.6383023,-4.84859,6.372035,1.4141654
2.796,12.934204,13.67662,6.4180183,-4.8509135,6.4002943,1.4028734
2.798,13.029008,13.803701,6.189502,-4.85194,6.4268627,1.3934357
2.8,13.112114,13.9224,5.952669,-4.8518014,6.4517426,1.386356
2.802,13.182465,14.032439,5.7073383,-4.850705,6.474757,1.3820462
2.804,13.238575,14.133621,5.4533606,-4.848912,6.4955626,1.3808105
2.806,13.279392,14.225865,5.190721,-4.8467197,6.513727,1.3828686
2.808,13.30366,14.3092785,4.9194536,-4.8444333,6.5287294,1.3883264
2.81,13.310278,14.383917,4.6396084,-4.842336,6.540024,1.3972199
2.812,13.297958,14.449991,4.35135,-4.8406405,6.5470667,1.4094778
2.814,13.26572,14.507901,4.0549526,-4.839519,6.549363,1.425013
2.816,13.21266,14.557831,3.7507248,-4.839099,6.5464897,1.4437172
2.818,13.13785,14.600157,3.4391975,-4.8394504,6.53806,1.4655249
2.82,13.040664,14.635299,3.120901,-4.8406134,6.523773,1.4904068
2.822,12.920612,14.663567,2.7965026,-4.8426104,6.5033875,1.5183909
2.824,12.777037,14.685326,2.4667692,-4.8454685,6.47668,1.5495629
2.826,12.609976,14.700928,2.132533,-4.849203,6.4434175,1.58404
2.828,12.4194355,14.710686,1.7946382,-4.8538346,6.4033623,1.6219382
2.83,12.205671,14.714758,1.4541788,-4.859387,6.3561974,1.663365
2.832,11.969302,14.713227,1.1121101,-4.8658886,6.3015547,1.7083282
2.834,11.711199,14.706051,0.769649,-4.873347,6.2390027,1.756741
2.836,11.432199,14.693077,0.42797232,-4.8817644,6.1680374,1.808384
2.838,11.133982,14.674082,0.08821583,-4.891127,6.0881314,1.8629036
2.84,10.817943,14.648727,-0.24824762,-4.90139,5.9987125,1.9198065
2.842,10.485998,14.616514,-0.58019495,-4.912511,5.8992352,1.9785135
2.844,10.140074,14.576931,-0.9065895,-4.924426,5.789193,2.0383515
2.846,9.78232,14.5295,-1.225738,-4.9370456,5.668178,2.0986223
2.848,9.415138,14.473541,-1.5365205,-4.950258,5.5359035,2.1586263
2.85,9.041358,14.408119,-1.8380198,-4.9639225,5.392221,2.2176838
2.852,8.66346,14.332657,-2.1289177,-4.977861,5.237181,2.2751617
2.854,8.284392,14.2462015,-2.4079056,-4.991857,5.070997,2.3305027
2.856,7.9068375,14.14813,-2.6740336,-5.0056214,4.8940773,2.383232
2.858,7.5333333,14.037608,-2.9261758,-5.018828,4.7070413,2.4329605
2.86,7.1667686,13.913949,-3.1634946,-5.031098,4.5106854,2.4793677
2.862,6.809808,13.776464,-3.3850806,-5.0419984,4.3059807,2.522265
2.864,6.4648476,13.624779,-3.5903063,-5.0510674,4.0940466,2.5615578
2.866,6.1339765,13.458641,-3.7785277,-5.057826,3.8761497,2.5972817
2.868,5.819151,13.27792,-3.949273,-5.0617566,3.6536186,2.6295638
2.87,5.52235,13.082559,-4.102165,-5.0623164,3.4278278,2.6586442
2.872,5.245122,12.872563,-4.2368383,-5.0590005,3.2001724,2.6848083
2.874,4.9884863,12.648447,-4.353331,-5.05129,2.9719794,2.70843
2.876,4.7530713,12.410825,-4.4515786,-5.0386944,2.7445138,2.729886
2.878,4.5395713,12.160509,-4.5316944,-5.020778,2.5189843,2.7494729
2.88,4.348021,11.898577,-4.59391,-4.997167,2.2964258,2.7674847
2.882,4.1783633,11.626148,-4.6385503,-4.9675364,2.077733,2.7841644
2.884,4.029958,11.344569,-4.6657786,-4.93163,1.8636975,2.7996397
2.886,3.902226,11.0551605,-4.6759834,-4.889297,1.6549181,2.813931
2.888,3.7938278,10.759466,-4.669347,-4.8405237,1.45184,2.826963
2.89,3.703544,10.458968,-4.646243,-4.7854466,1.2548152,2.8385377
2.892,3.6297717,10.155281,-4.6071672,-4.72431,1.0640445,2.8483872
2.894,3.5706904,9.850005,-4.5524917,-4.6574526,0.87964463,2.8561814
2.896,3.5245683,9.544796,-4.482789,-4.58529,0.7016574,2.861544
2.898,3.4894457,9.241326,-4.398405,-4.5082855,0.53007406,2.864072
2.9,3.4633234,8.940921,-4.299891,-4.426923,0.36484927,2.8633382
2.902,3.4440491,8.645079,-4.1876974,-4.3416924,0.20593423,2.858948
2.904,3.4295955,8.355084,-4.062391,-4.253022,0.05330181,2.8506126
2.906,3.4180546,8.072172,-3.924481,-4.161286,-0.09304029,2.8380754
2.908,3.407668,7.7971888,-3.77466,-4.066782,-0.23306721,2.8211844
2.91,3.3968275,7.5310564,-3.613588,-3.9697766,-0.36670685,2.799887
2.912,3.383861,7.274356,-3.4419234,-3.8704686,-0.4938355,2.774231
2.914,3.367335,7.027739,-3.2604034,-3.7689953,-0.6142643,2.7443752
2.916,3.3460665,6.7913694,-3.0698853,-3.665486,-0.72775155,2.710541
2.918,3.3189235,6.5654707,-2.8713138,-3.5600138,-0.83398485,2.6730273
2.92,3.2850535,6.350182,-2.6655083,-3.452614,-0.9325637,2.6321883
2.922,3.243948,6.1454053,-2.4534879,-3.3433027,-1.0230258,2.5883663
2.924,3.1950777,5.951028,-2.2363522,-3.2320707,-1.1048527,2.5419085
2.926,3.1380842,5.7668085,-2.0150645,-3.118848,-1.1775126,2.4931295
2.928,3.0727837,5.5923276,-1.7907069,-3.003579,-1.2404718,2.4422693
2.93,2.99943,5.4272904,-1.564387,-2.88623,-1.2932699,2.3895407
2.932,2.9181054,5.271246,-1.3372332,-2.766785,-1.3355354,2.3351486
2.934,2.8291159,5.123744,-1.1102736,-2.6452744,-1.366954,2.2792008
2.936,2.7329307,4.9843426,-0.8845413,-2.5217905,-1.3873638,2.2217782
2.938,2.6300428,4.852542,-0.6609919,-2.3964872,-1.3967401,2.1629832
2.94,2.5210912,4.728004,-0.44067615,-2.2695582,-1.3951554,2.102958
2.942,2.4065795,4.6101494,-0.22449267,-2.1412222,-1.382807,2.04186
2.944,2.2871287,4.4987545,-0.013370454,-2.0117273,-1.3600237,1.9798931
2.946,2.163702,4.39351,0.1919859,-1.881381,-1.3271658,1.9172924
2.948,2.0366435,4.294104,0.39082366,-1.7505296,-1.2846913,1.8543235
2.95,1.9069595,4.2003317,0.58231145,-1.6195177,-1.2330873,1.7912666
2.952,1.7752129,4.111951,0.7660763,-1.4886957,-1.1728716,1.7284201
2.954,1.642088,4.028793,0.9417347,-1.3583845,-1.104582,1.6660953
2.956,1.5082293,3.9506552,1.1085854,-1.2288855,-1.0287727,1.6045371
2.958,1.3742375,3.877432,1.2665086,-1.100504,-0.94599926,1.5439377
2.96,1.2403337,3.809255,1.4155973,-0.9735049,-0.85681987,1.484489
2.962,1.1072931,3.7457762,1.5554981,-0.8481108,-0.7617449,1.4263188
2.964,0.9754569,3.6869962,1.6860397,-0.7245025,-0.6612818,1.3695021
2.966,0.8452995,3.6327734,1.8072715,-0.6028324,-0.55591273,1.3140824
2.968,0.7172729,3.5830019,1.9190547,-0.4832142,-0.44609705,1.2600476
2.97,0.59152997,3.5375776,2.0216284,-0.36571303,-0.33225137,1.207364
2.972,0.4682235,3.4963534,2.1149898,-0.25037634,-0.2147789,1.1559682
2.974,0.34781015,3.4590468,2.1994443,-0.13721263,-0.0940793,1.1057802
2.976,0.23048961,3.425456,2.2750578,-0.02619183,0.029501572,1.0567333
2.978,0.116606295,3.3951912,2.3419828,0.082732566,0.15564153,1.0087509
2.98,0.006181225,3.367917,2.4003766,0.18962915,0.28404742,0.96176267
2.982,-0.100689635,3.343507,2.4505312,0.29459035,0.4144736,0.9157234
2.984,-0.20373751,3.3214102,2.4926798,0.3977456,0.5467094,0.8705945
2.986,-0.302606,3.3009868,2.5270288,0.49921054,0.68056136,0.8263504
2.988,-0.39746898,3.2818916,2.5538757,0.599116,0.815887,0.7829736
2.99,-0.4881178,3.2635598,2.573412,0.6975918,0.9525788,0.7404732
2.992,-0.57449704,3.24556,2.586018,0.79476625,1.0905224,0.69885993
2.994,-0.6565037,3.227482,2.591855,0.8907587,1.2296373,0.6581485
2.996,-0.73408556,3.2087944,2.5911098,0.985685,1.3698709,0.61834407
2.998,-0.80686194,3.1889248,2.5839326,1.0796484,1.5111662,0.579454
3,-0.8749775,3.1675265,2.570659,1.1727468,1.6534606,0.54146546
3.002,-0.93816423,3.1441092,2.551474,1.2650732,1.7967197,0.504351
3.004,-0.99651164,3.1182415,2.5265276,1.3567047,1.9408922,0.46808338
3.006,-1.0498227,3.0894613,2.4960532,1.4476961,2.0859256,0.4326126
3.008,-1.0980409,3.057483,2.4601612,1.5380858,2.2317681,0.39788023
3.01,-1.1411912,3.0220335,2.4189897,1.6278924,2.3783474,0.36384785
3.012,-1.1790022,2.9826894,2.3726625,1.7171029,2.52558,0.33047828
3.014,-1.2115859,2.939382,2.3213546,1.8056859,2.6733487,0.2977417
3.016,-1.238753,2.8917732,2.2652133,1.8935689,2.8215156,0.2656508
3.018,-1.2606566,2.8399656,2.2043974,1.9806719,2.969916,0.23424613
3.02,-1.277375,2.783859,2.1390395,2.0668793,3.118347,0.20358413
3.022,-1.2889893,2.7235777,2.0693657,2.1520455,3.2665668,0.17374283
3.024,-1.2953707,2.6590729,1.995509,2.2360194,3.4143248,0.14482224
3.026,-1.2965676,2.5907314,1.917686,2.318632,3.5613532,0.11692655
3.028,-1.2928786,2.5187216,1.8362025,2.3997073,3.707371,0.090182066
3.03,-1.2843798,2.443174,1.7511854,2.4790683,3.8520846,0.06470126
3.032,-1.2713637,2.3645868,1.6630251,2.5565515,3.995203,0.040603817
3.034,-1.2538955,2.283173,1.5719713,2.6319947,4.136443,0.018006563
3.036,-1.2321533,2.1993458,1.4783826,2.7052662,4.275535,-0.0030032396
3.038,-1.2063812,2.113624,1.382481,2.7762504,4.412224,-0.022351623
3.04,-1.176902,2.0263915,1.2846735,2.8448634,4.5462847,-0.039990783
3.042,-1.1438214,1.9380591,1.1854287,2.9110396,4.6774917,-0.055906236
3.044,-1.1073713,1.849062,1.0850537,2.9747386,4.805642,-0.07011914
3.046,-1.0678161,1.7597588,0.98397774,3.0359502,4.9305654,-0.08267808
3.048,-1.0252672,1.6705257,0.8825482,3.094667,5.052079,-0.09365797
3.05,-0.98000735,1.5816936,0.78120923,3.1509244,5.1700373,-0.10317439
3.052,-0.9322177,1.4936408,0.68035704,3.2047431,5.2842894,-0.111353636
3.054,-0.8819808,1.4064902,0.5803407,3.2561476,5.394707,-0.118334234
3.056,-0.82969147,1.3204455,0.48158532,3.305161,5.501163,-0.12425959
3.058,-0.77545375,1.2356389,0.38435617,3.35181,5.603525,-0.1292702
3.06,-0.7194891,1.1521617,0.28909862,3.3961246,5.7016788,-0.1335007
3.062,-0.66210216,1.070128,0.19589794,3.4381115,5.7955213,-0.1370781
3.064,-0.6033844,0.98944724,0.10517293,3.477792,5.884954,-0.14014512
3.066,-0.54366785,0.9102119,0.017056674,3.515199,5.969873,-0.14281386
3.068,-0.48313525,0.83233535,-0.068208605,3.5503423,6.050217,-0.14518696
3.07,-0.42214227,0.75572836,-0.15051834,3.583257,6.125929,-0.14737594
3.072,-0.36094096,0.68044764,-0.22977164,3.6139796,6.196962,-0.14948267
3.074,-0.29979485,0.60627,-0.30593267,3.6425538,6.2632866,-0.15156323
3.076,-0.23895848,0.5331883,-0.378891,3.6690392,6.3248825,-0.15365964
3.078,-0.17862009,0.46108437,-0.44869637,3.6934838,6.3817363,-0.15579087
3.08,-0.11908269,0.38985986,-0.515419,3.7159543,6.4338226,-0.15794396
3.082,-0.060516603,0.31937858,-0.57911396,3.7365108,6.4811525,-0.16008174
3.084,-0.0034837723,0.24962026,-0.6400169,3.7552114,6.523719,-0.16215426
3.086,0.051989406,0.18046811,-0.69819766,3.7721238,6.561519,-0.16410565
3.088,0.105493955,0.111957654,-0.75378,3.787312,6.594577,-0.16589248
3.09,0.15671971,0.0441238,-0.8069224,3.8008223,6.622916,-0.16749287
3.092,0.20565945,-0.023139834,-0.8579992,3.812715,6.646592,-0.16892731
3.094,0.2520805,-0.08986001,-0.90707874,3.8230667,6.6656895,-0.17023504
3.096,0.29558304,-0.15591672,-0.9544789,3.8319323,6.680311,-0.17148232
3.098,0.3360478,-0.22131714,-1.0004535,3.8393877,6.6906033,-0.17275572
3.1,0.37328294,-0.28597602,-1.0451969,3.8454995,6.696702,-0.17413658
3.102,0.40704194,-0.34974474,-1.0890601,3.8503497,6.6987553,-0.17567879
3.104,0.43720686,-0.41248575,-1.1322831,3.853993,6.6969013,-0.1774109
3.106,0.4635979,-0.4739594,-1.1751316,3.8564987,6.691282,-0.17932105
3.108,0.48595905,-0.53383464,-1.2178102,3.8579152,6.682003,-0.18136573
3.11,0.5041972,-0.5919906,-1.2605244,3.858271,6.669165,-0.18344414
3.112,0.51821905,-0.64814633,-1.3036227,3.8575654,6.6528444,-0.1854375
3.114,0.5279419,-0.70197886,-1.3472738,3.8557878,6.633107,-0.18720049
3.116,0.53307414,-0.75319445,-1.3916441,3.8528953,6.6099763,-0.18858033
3.118,0.53360176,-0.80141425,-1.4369822,3.8488219,6.5834813,-0.18941224
3.12,0.52943975,-0.8462737,-1.4832734,3.8434834,6.5536404,-0.18955004
3.122,0.52045345,-0.8872918,-1.5306956,3.8367972,6.520443,-0.18886882
3.124,0.5066633,-0.92431974,-1.5794157,3.8286643,6.483866,-0.1872567
3.126,0.4879304,-0.95688546,-1.6294239,3.8189776,6.4438906,-0.18460977
3.128,0.46442962,-0.98482233,-1.680717,3.80765,6.400483,-0.18087512
3.13,0.43618023,-1.0078845,-1.7333022,3.7945993,6.353604,-0.17602557
3.132,0.4032392,-1.0258092,-1.787326,3.7797651,6.3032064,-0.1700716
3.134,0.3654961,-1.0383897,-1.842586,3.7630868,6.2492604,-0.16305023
3.136,0.3229214,-1.0455713,-1.8990296,3.744545,6.1917357,-0.15505004
3.138,0.27586764,-1.0473063,-1.9565675,3.7241232,6.1306396,-0.14617473
3.14,0.224285,-1.0435219,-2.015013,3.701806,6.066002,-0.1365565
3.142,0.16840678,-1.0344366,-2.0743413,3.6776028,5.9978533,-0.12634292
3.144,0.10830295,-1.0201074,-2.1342955,3.6515303,5.926266,-0.11567482
3.146,0.0440619,-1.0007154,-2.1947932,3.6235895,5.851312,-0.104680955
3.148,-0.024156809,-0.9765713,-2.255705,3.5937927,5.7730875,-0.09348729
3.15,-0.096129775,-0.9480874,-2.3167224,3.5621624,5.6916723,-0.082184106
3.152,-0.17173898,-0.9155039,-2.3778079,3.5287037,5.6071486,-0.07085863
3.154,-0.25084198,-0.8792177,-2.4388146,3.4934356,5.51961,-0.059575558
3.156,-0.33336723,-0.83959717,-2.4994783,3.4563813,5.42914,-0.0483824
3.158,-0.41902316,-0.7970583,-2.559665,3.4175599,5.335797,-0.037297934
3.16,-0.5076935,-0.75192916,-2.6192253,3.3770006,5.239649,-0.026320219
3.162,-0.5991766,-0.7045974,-2.677892,3.3346977,5.1407375,-0.015438199
3.164,-0.69326276,-0.6554457,-2.7354856,3.290662,5.039105,-0.0046213865
3.166,-0.78973144,-0.60478896,-2.7918625,3.244896,4.934788,0.00616771
3.168,-0.8883702,-0.5530172,-2.8466976,3.1973953,4.827838,0.016976386
3.17,-0.9890727,-0.5004107,-2.8998795,3.148156,4.7182913,0.027845234
3.172,-1.0914644,-0.44730923,-2.9510155,3.0971725,4.606202,0.038802117
3.174,-1.1952995,-0.3939838,-3.0001235,3.0444403,4.4916434,0.04986453
3.176,-1.300465,-0.34063786,-3.046918,2.9899657,4.3746953,0.061044157
3.178,-1.4067073,-0.28752154,-3.0911255,2.9337723,4.2554626,0.07234146
3.18,-1.5137061,-0.23476109,-3.1325762,2.8758974,4.134046,0.08373284
3.182,-1.62132,-0.1825982,-3.1710443,2.8163862,4.0105715,0.095201105
3.184,-1.7291448,-0.13119674,-3.2062035,2.7553182,3.8851817,0.10671882
3.186,-1.8371584,-0.08063203,-3.237843,2.6927736,3.7580292,0.11827992
3.188,-1.9451027,-0.030997902,-3.2657602,2.6288493,3.629265,0.1298686
3.19,-2.052852,0.017605618,-3.2897074,2.5636444,3.4990795,0.14148879
3.192,-2.160228,0.0652605,-3.3095546,2.497281,3.3676484,0.15314879
3.194,-2.2669022,0.111778304,-3.3250515,2.4299037,3.2351892,0.16485956
3.196,-2.3728168,0.15716046,-3.3361037,2.3616498,3.1019263,0.17664993
3.198,-2.4777567,0.20149185,-3.3424506,2.292657,2.9680882,0.18855861
3.2,-2.581544,0.24476743,-3.344028,2.2230906,2.8339396,0.20062429
3.202,-2.6842344,0.28710443,-3.3407092,2.1531115,2.6997206,0.21290882
3.204,-2.7854974,0.3285902,-3.332465,2.0828924,2.5657072,0.2254746
3.206,-2.8851678,0.36925918,-3.3192613,2.0125985,2.4321432,0.23838758
3.208,-2.9829898,0.409167,-3.3009963,1.942406,2.2992876,0.25171316
3.21,-3.0788887,0.44844744,-3.2777197,1.8724722,2.1673555,0.2655106
3.212,-3.172647,0.48720914,-3.249497,1.8029616,2.0365617,0.27981764
3.214,-3.2641227,0.52554226,-3.2162447,1.7340242,1.907102,0.29465684
3.216,-3.3532636,0.56349874,-3.1780667,1.6657864,1.7791462,0.31002936
3.218,-3.4397254,0.60123765,-3.135108,1.5983632,1.6528262,0.3259093
3.22,-3.5233662,0.6388972,-3.0874536,1.531837,1.528251,0.34225178
3.222,-3.602921,0.6752775,-3.0379603,1.4662886,1.4055182,0.35897368
3.224,-3.6791735,0.7113937,-2.984832,1.4017836,1.2847148,0.37598056
3.226,-3.7519913,0.74726784,-2.9284074,1.3383924,1.1659089,0.39314786
3.228,-3.821343,0.78283745,-2.8690069,1.2761854,1.0491753,0.4103406
3.23,-3.8870833,0.8180878,-2.8070524,1.215238,0.93459225,0.4274078
3.232,-3.9492424,0.8529747,-2.7428937,1.1556329,0.82223624,0.44419566
3.234,-4.0076895,0.8874745,-2.676879,1.097444,0.71219647,0.46056598
3.236,-4.0625644,0.92150813,-2.609486,1.0407594,0.6045549,0.47641155
3.238,-4.1139603,0.9550477,-2.5411222,0.9856437,0.49939466,0.49166316
3.24,-4.161916,0.9880366,-2.4721537,0.93215895,0.39681008,0.50626093
3.242,-4.2065196,1.0204033,-2.402877,0.8803677,0.2968946,0.5201893
3.244,-4.247874,1.0520791,-2.3337817,0.8302958,0.19973218,0.53346676
3.246,-4.2861156,1.0829985,-2.2651596,0.7819686,0.10542925,0.54612654
3.248,-4.3214235,1.1131208,-2.1973636,0.7353989,0.014098138,0.55820787
3.25,-4.353957,1.1423731,-2.130698,0.6917919,-0.07177961,0.56944376
3.252,-4.383926,1.1707528,-2.0653744,0.65049934,-0.15341948,0.5800505
3.254,-4.4115424,1.1981927,-2.0016341,0.6116828,-0.2304164,0.5900198
3.256,-4.4368925,1.2246814,-1.9396913,0.5754982,-0.30237612,0.59932727
3.258,-4.460101,1.2501712,-1.8795953,0.5420806,-0.3689755,0.60795355
3.26,-4.481513,1.2747649,-1.8215837,0.5115309,-0.42998073,0.61589015
3.262,-4.5011845,1.2983854,-1.7656983,0.48387152,-0.4853022,0.623121
3.264,-4.5192075,1.3210707,-1.7119105,0.45906496,-0.53497916,0.6296488
3.266,-4.5357327,1.3427856,-1.6603757,0.43699774,-0.5792099,0.63549626
3.268,-4.550973,1.3636408,-1.6109551,0.41750994,-0.6183108,0.6406963
3.27,-4.564976,1.3835381,-1.5636487,0.40040427,-0.6526828,0.64529186
3.272,-4.577875,1.402534,-1.5185066,0.38543507,-0.68277323,0.6493396
