Time_s_,Acc_x_m_s_2_,Acc_y_m_s_2_,Acc_z_m_s_2_,Gyro_x_1_s_,Gyro_y_1_s_,Gyro_z_1_s_
0,1.2103858,-0.07807988,-0.4947305,0.29535523,-0.19197384,0.084786326
0.002,1.2164211,-0.06928195,-0.48986152,0.2998385,-0.1960252,0.09091018
0.004,1.2220504,-0.06077452,-0.4846271,0.30486485,-0.20115,0.09806572
0.006,1.2272793,-0.052731648,-0.4791198,0.310446,-0.2075552,0.106361404
0.008,1.2320918,-0.045277808,-0.47338143,0.3165689,-0.21544476,0.11587219
0.01,1.2365061,-0.038597938,-0.46726373,0.32318112,-0.22500786,0.12663937
0.012,1.2404572,-0.032913312,-0.46087167,0.3301901,-0.23639654,0.13862579
0.014,1.2437549,-0.028294772,-0.45402467,0.3374229,-0.24973659,0.15167148
0.016,1.2464726,-0.024708712,-0.44665635,0.3446352,-0.26508602,0.16546689
0.018,1.2485359,-0.022084974,-0.4387266,0.35155356,-0.2823965,0.17956457
0.02,1.2497941,-0.020264432,-0.43030894,0.3578859,-0.30152526,0.19339511
0.022,1.2499875,-0.019138299,-0.42132547,0.36336192,-0.32225052,0.20632069
0.024,1.2489903,-0.018545814,-0.41185302,0.367763,-0.34428692,0.21772113
0.026,1.246835,-0.018333238,-0.40190685,0.37096083,-0.3673058,0.22708827
0.028,1.2435243,-0.018412784,-0.3916476,0.3731289,-0.39125985,0.23440006
0.03,1.2387993,-0.01837809,-0.3812241,0.37410852,-0.41534176,0.23917508
0.032,1.2324126,-0.01783704,-0.37070954,0.37418503,-0.4391269,0.24163832
0.034,1.2240663,-0.01631989,-0.36028787,0.3737186,-0.46214482,0.24226417
0.036,1.2136533,-0.013521358,-0.35025746,0.373109,-0.48385373,0.24169065
0.038,1.201015,-0.008879356,-0.34083003,0.37276655,-0.50365067,0.24067572
0.04,1.1857536,-0.0019564629,-0.3321301,0.3730908,-0.5208739,0.24000265
0.042,1.167349,0.007700272,-0.3245023,0.3744092,-0.53488106,0.24041198
0.044,1.1453468,0.020435102,-0.31838474,0.37696224,-0.5450268,0.24254254
0.046,1.1195574,0.0364582,-0.31421864,0.38090536,-0.5507198,0.24688089
0.048,1.0894448,0.056069665,-0.3123715,0.38631225,-0.5515277,0.25375438
0.05,1.0544997,0.07942949,-0.31314296,0.39318258,-0.54716563,0.26332152
0.052,1.0141284,0.10643695,-0.31649846,0.40150478,-0.5375083,0.2756225
0.054,0.96777993,0.13684963,-0.32216108,0.41126764,-0.522608,0.2905982
0.056,0.91500133,0.17087027,-0.33024162,0.42247948,-0.5026588,0.30812618
0.058,0.8550367,0.20864129,-0.3413372,0.43517092,-0.47795576,0.32801345
0.06,0.78729045,0.24977002,-0.35536435,0.4494065,-0.44886574,0.34998083
0.062,0.71180874,0.2932553,-0.37160522,0.46529275,-0.41575596,0.3736878
0.064,0.62880415,0.33809477,-0.38974917,0.48299217,-0.3789021,0.3987401
0.066,0.5381899,0.38339803,-0.40921205,0.50268185,-0.33853203,0.42470628
0.068,0.43982777,0.42829746,-0.4294181,0.52456987,-0.29477894,0.45116493
0.07,0.33388567,0.4720556,-0.4495694,0.5488914,-0.24764556,0.4777262
0.072,0.22067799,0.5137164,-0.46894082,0.57593364,-0.19699088,0.5040831
0.074,0.100530565,0.5523861,-0.4864853,0.60602546,-0.14251316,0.530075
0.076,-0.026149865,0.5872585,-0.5013509,0.6395413,-0.08378255,0.55574965
0.078,-0.16013342,0.618089,-0.5149241,0.6769108,-0.020272076,0.5813353
0.08,-0.29828137,0.64342576,-0.5266233,0.7186009,0.048575908,0.6072264
0.082,-0.44082633,0.6637145,-0.53359085,0.7650776,0.123301506,0.6339316
0.084,-0.5874229,0.6787076,-0.534738,0.81674445,0.20440435,0.6621128
0.086,-0.7370087,0.68817663,-0.53106284,0.87388134,0.29228485,0.6926085
0.088,-0.88798714,0.6916719,-0.5236786,0.9365946,0.38711172,0.726243
0.09,-1.0382891,0.6883474,-0.5125003,1.0047988,0.48873654,0.7636421
0.092,-1.1870767,0.67814875,-0.4974616,1.0781426,0.5967525,0.8052391
0.094,-1.3344963,0.6616914,-0.47893596,1.1559801,0.71044445,0.8513619
0.096,-1.4790272,0.6389973,-0.45865336,1.2373765,0.82874066,0.90217406
0.098,-1.6187522,0.61019206,-0.43755153,1.3211609,0.9502276,0.957634
0.1,-1.752328,0.57570386,-0.4166702,1.405941,1.0731975,1.0174301
0.102,-1.8784614,0.5358244,-0.39681575,1.4901552,1.1956518,1.0810027
0.104,-1.9954641,0.49099365,-0.37918812,1.5721118,1.3152329,1.1475267
0.106,-2.1030889,0.44147292,-0.36492142,1.6500776,1.4292929,1.2159305
0.108,-2.1952686,0.3867119,-0.35266942,1.7224565,1.5351639,1.2849536
0.11,-2.2750015,0.32823893,-0.3426291,1.7877141,1.6297917,1.3532119
0.112,-2.3390813,0.26616853,-0.33558935,1.8442545,1.7095189,1.4191871
0.114,-2.3856378,0.20031524,-0.33115405,1.8906283,1.7709225,1.4813282
0.116,-2.4137344,0.13089311,-0.32967737,1.9257408,1.81128,1.5383568
0.118,-2.4223745,0.057769895,-0.32986295,1.9488331,1.828286,1.5892174
0.12,-2.4099104,-0.019672453,-0.32950395,1.9594216,1.8200893,1.6330359
0.122,-2.3763144,-0.10155791,-0.328552,1.9573863,1.7856858,1.6693107
0.124,-2.3197563,-0.18850437,-0.3272279,1.9429888,1.7251645,1.6979766
0.126,-2.2387376,-0.28120586,-0.32399493,1.9168019,1.6396676,1.7193251
0.128,-2.1333437,-0.38011932,-0.3171485,1.879664,1.5312101,1.7339449
0.13,-2.0038588,-0.48563576,-0.30528426,1.8326292,1.4027675,1.7426814
0.132,-1.8509414,-0.5980582,-0.28704822,1.7769158,1.2581632,1.7465718
0.134,-1.6777978,-0.71625453,-0.25923467,1.7138965,1.1018356,1.7468394
0.136,-1.4869405,-0.8397447,-0.21993148,1.6450667,0.93838036,1.7449697
0.138,-1.2760979,-0.96979433,-0.17235726,1.5720453,0.772593,1.7424703
0.14,-1.0461944,-1.1064686,-0.11944485,1.4964986,0.60924315,1.7407444
0.142,-0.80001295,-1.2489209,-0.06122458,1.4200096,0.4526657,1.7411885
0.144,-0.54229,-1.3960544,0.0024549365,1.3439324,0.30646062,1.7450897
0.146,-0.2768474,-1.5461936,0.07065475,1.269459,0.17340076,1.753483
0.148,-0.007228881,-1.6973897,0.14244187,1.1974773,0.055152178,1.7669517
0.15,0.2632457,-1.8479024,0.2158016,1.1284541,-0.04771024,1.7857997
0.152,0.5315424,-1.9960059,0.28870237,1.0624975,-0.13545084,1.8100755
0.154,0.7946608,-2.1401231,0.3591678,0.9992927,-0.20930827,1.8393971
0.156,1.0496306,-2.2788327,0.42547438,0.9381675,-0.27145958,1.8729553
0.158,1.2932644,-2.410904,0.48689187,0.87834,-0.32458043,1.9096277
0.16,1.5226579,-2.5350876,0.5433848,0.81892985,-0.37167788,1.9479845
0.162,1.7354627,-2.650445,0.5944152,0.7589444,-0.41608858,1.9863216
0.164,1.9297539,-2.7564473,0.6391693,0.69752187,-0.46096414,2.0227222
0.166,2.103966,-2.8532023,0.67778045,0.6343035,-0.50852644,2.05564
0.168,2.2574975,-2.9413705,0.71118474,0.5694152,-0.5602015,2.0841734
0.17,2.3895826,-3.0210767,0.74022394,0.5030649,-0.61733866,2.1073995
0.172,2.4989898,-3.0919986,0.7652817,0.43572572,-0.680261,2.124483
0.174,2.5858884,-3.155298,0.7872605,0.36837018,-0.74770534,2.1351206
0.176,2.6520622,-3.212923,0.8067832,0.3021646,-0.8173829,2.1395698
0.178,2.6985865,-3.2660055,0.82352,0.23829876,-0.8863279,2.1386473
0.18,2.726641,-3.3159409,0.83851695,0.17794198,-0.9508154,2.1335528
0.182,2.7372832,-3.3638577,0.85270166,0.12215358,-1.0066433,2.1257634
0.184,2.7311962,-3.4108243,0.8666599,0.07163566,-1.049787,2.1168249
0.186,2.709454,-3.458107,0.8806913,0.026605219,-1.0768596,2.108255
0.188,2.674027,-3.5069518,0.896598,-0.013194978,-1.0853912,2.101387
0.19,2.6234014,-3.5571501,0.91301733,-0.048396856,-1.0739497,2.0971594
0.192,2.5594587,-3.6095593,0.926507,-0.07988191,-1.0425704,2.0961485
0.194,2.4828885,-3.663711,0.9362258,-0.108593255,-0.99262047,2.0985048
0.196,2.393562,-3.7188966,0.9433225,-0.13533503,-0.9264674,2.1039472
0.198,2.2910445,-3.773967,0.948035,-0.16065827,-0.8472426,2.1118443
0.2,2.1749346,-3.8272529,0.9489354,-0.1848971,-0.7586555,2.1211534
0.202,2.0459418,-3.8775249,0.94436944,-0.2081055,-0.664448,2.1305518
0.204,1.9054219,-3.9239702,0.9331742,-0.23005259,-0.5680105,2.1385822
0.206,1.7530135,-3.9647894,0.9150653,-0.2502954,-0.4721443,2.1439471
0.208,1.588382,-3.9984877,0.88844544,-0.26825368,-0.37897164,2.1455858
0.21,1.4120966,-4.0237284,0.85168976,-0.28325516,-0.28958154,2.1427317
0.212,1.2248176,-4.039333,0.80323124,-0.29470384,-0.20429522,2.1348448
0.214,1.0276306,-4.044459,0.7418191,-0.30203766,-0.12277907,2.1216593
0.216,0.8230021,-4.0386844,0.66613996,-0.30466056,-0.04412067,2.1032827
0.218,0.60942817,-4.0214605,0.5732932,-0.30203396,0.032907665,2.0801902
0.22,0.39520764,-3.994987,0.46256602,-0.29391778,0.10915643,2.05281
0.222,0.18167311,-3.9599085,0.33426404,-0.28044742,0.18488997,2.0214224
0.224,-0.0272941,-3.9177246,0.18851411,-0.26187253,0.2605037,1.9866867
0.226,-0.22702777,-3.8705764,0.026151538,-0.23877126,0.3358276,1.9493624
0.228,-0.41182458,-3.8214314,-0.1530869,-0.21227497,0.4096475,1.909786
0.23,-0.577906,-3.7727706,-0.3497709,-0.18389595,0.48013896,1.8678446
0.232,-0.71974933,-3.728353,-0.56137323,-0.15547049,0.54508805,1.8231541
0.234,-0.834767,-3.691224,-0.78494775,-0.12907803,0.60193676,1.7753475
0.236,-0.9204271,-3.6646745,-1.0185249,-0.10688132,0.6481297,1.724113
0.238,-0.97239906,-3.6521688,-1.259732,-0.090868056,0.6814016,1.6692674
0.24,-0.9879216,-3.6567986,-1.5058912,-0.08270699,0.7000326,1.6107659
0.242,-0.9667877,-3.6805158,-1.7565627,-0.08365208,0.7029778,1.5486686
0.244,-0.907161,-3.7260928,-2.0117574,-0.094450414,0.6899833,1.4832137
0.246,-0.8095689,-3.7941287,-2.2663178,-0.11527842,0.66168666,1.414814
0.248,-0.67982507,-3.8827093,-2.511291,-0.14570028,0.6196543,1.344007
0.25,-0.5197462,-3.9913387,-2.7423859,-0.18474096,0.5663421,1.2713524
0.252,-0.32990837,-4.119855,-2.9583588,-0.2309426,0.5048523,1.1973696
0.254,-0.112091064,-4.266971,-3.1565359,-0.2824957,0.43875507,1.1225919
0.256,0.12789488,-4.430169,-3.3340516,-0.33732736,0.3718813,1.047603
0.258,0.3832302,-4.605962,-3.490225,-0.39332333,0.30789194,0.9729651
0.26,0.6466129,-4.7892303,-3.6248565,-0.44850373,0.25005606,0.89926076
0.262,0.9094584,-4.973723,-3.7388968,-0.50105,0.20131631,0.827322
0.264,1.1638789,-5.152667,-3.8338308,-0.5495157,0.16378559,0.7581729
0.266,1.4031408,-5.3191376,-3.9106054,-0.59282994,0.13882305,0.6930835
0.268,1.6212053,-5.465987,-3.970962,-0.6302866,0.12712038,0.6335007
0.27,1.8124061,-5.5864143,-4.017426,-0.6615189,0.12883227,0.5808536
0.272,1.9717021,-5.6738224,-4.0524936,-0.68641454,0.1437348,0.53647494
0.274,2.0953956,-5.722109,-4.0784616,-0.7052318,0.17099087,0.5016067
0.276,2.1807215,-5.7261677,-4.0979223,-0.7185714,0.2092914,0.4773837
0.278,2.2260382,-5.6819715,-4.1135845,-0.72717565,0.2574137,0.46466398
0.28,2.2312963,-5.5869465,-4.1282015,-0.7318821,0.3141967,0.4639086
0.282,2.1978242,-5.4398518,-4.143676,-0.7336751,0.37822735,0.4751799
0.284,2.1273296,-5.240386,-4.161449,-0.73365283,0.4477936,0.49817526
0.286,2.0224528,-4.9897184,-4.1824594,-0.7329902,0.52107906,0.5322169
0.288,1.8884869,-4.691773,-4.2066965,-0.7329793,0.5960933,0.57627416
0.29,1.7311759,-4.351663,-4.2355404,-0.7350217,0.6705642,0.6289546
0.292,1.5572042,-3.9758556,-4.2699633,-0.7405238,0.74196494,0.688479
0.294,1.3739233,-3.5719695,-4.310465,-0.750814,0.8075342,0.75264037
0.296,1.188366,-3.1480765,-4.356858,-0.7670435,0.8645693,0.81882656
0.298,1.0077447,-2.713047,-4.408948,-0.7900554,0.9106939,0.8841262
0.3,0.8392204,-2.27633,-4.4657793,-0.820306,0.94405234,0.9454512
0.302,0.6895549,-1.8478081,-4.5262175,-0.8577841,0.96344626,0.9997954
0.304,0.5644684,-1.4370089,-4.589278,-0.90193623,0.96837217,1.0445371
0.306,0.46764362,-1.0526364,-4.6538105,-0.95172083,0.9590075,1.0777394
0.308,0.40229607,-0.7029457,-4.718029,-1.0057275,0.9360119,1.0983405
0.31,0.37110698,-0.39543843,-4.780303,-1.0623811,0.9003429,1.1062243
0.312,0.37566411,-0.1363293,-4.838943,-1.1201341,0.8530814,1.1022375
0.314,0.4168235,0.06926322,-4.8919272,-1.1776879,0.7951639,1.0880327
0.316,0.49290144,0.21840227,-4.937374,-1.2341137,0.72732633,1.0658326
0.318,0.6008532,0.30979705,-4.9710245,-1.2888478,0.6500352,1.0380529
0.32,0.7373296,0.34352255,-4.9894543,-1.3417311,0.5634062,1.0069456
0.322,0.89961326,0.32083964,-4.989937,-1.3928862,0.46738923,0.97434545
0.324,1.0839336,0.24407351,-4.96877,-1.4426224,0.36188692,0.94152796
0.326,1.285517,0.11726534,-4.922598,-1.4912915,0.24692068,0.90913
0.328,1.4992563,-0.054656744,-4.8487825,-1.5390251,0.12304957,0.8771769
0.33,1.719084,-0.26536906,-4.7440042,-1.5857396,-0.008758485,0.8452505
0.332,1.9390905,-0.5078224,-4.605177,-1.6313032,-0.1474795,0.8127313
0.334,2.154358,-0.7745575,-4.4296703,-1.6755412,-0.2917872,0.77904093
0.336,2.3600097,-1.0578295,-4.21451,-1.7182164,-0.43990862,0.7437545
0.338,2.5508928,-1.3494102,-3.9559522,-1.7591243,-0.5898373,0.70674545
0.34,2.723129,-1.6412057,-3.651065,-1.798084,-0.739499,0.6682601
0.342,2.8740482,-1.9251208,-3.298479,-1.8349361,-0.8867701,0.6288273
0.344,2.9995012,-2.1931329,-2.9001245,-1.869537,-1.0294163,0.5891472
0.346,3.0960262,-2.436896,-2.4601219,-1.901709,-1.165155,0.5500912
0.348,3.1613324,-2.649288,-1.9790331,-1.9312847,-1.2917755,0.512619
0.35,3.1940818,-2.824274,-1.457715,-1.9579818,-1.406973,0.4778247
0.352,3.1942728,-2.957192,-0.8975366,-1.9813406,-1.5083538,0.44687557
0.354,3.1612797,-3.0440428,-0.30301437,-2.0008745,-1.5937259,0.4208625
0.356,3.0946088,-3.081693,0.31741366,-2.016078,-1.6608937,0.40075314
0.358,2.9941792,-3.067769,0.9551432,-2.0264883,-1.7077533,0.38741982
0.36,2.8600616,-3.0006936,1.6037625,-2.0317914,-1.732517,0.38155544
0.362,2.6924996,-2.880056,2.256106,-2.0317545,-1.7336855,0.38365793
0.364,2.4935799,-2.7070222,2.903308,-2.0262308,-1.7100561,0.39399815
0.366,2.267011,-2.4840024,3.537014,-2.0151677,-1.6608267,0.41249585
0.368,2.0165641,-2.2144744,4.1501126,-1.9986438,-1.5856808,0.4386065
0.37,1.7467095,-1.9032601,4.735878,-1.9768021,-1.4846542,0.47137415
0.372,1.4626942,-1.5564814,5.287442,-1.9498415,-1.3581767,0.5094469
0.374,1.1697247,-1.1809987,5.797494,-1.9179573,-1.2070632,0.5511907
0.376,0.8728926,-0.78424454,6.2584248,-1.8814316,-1.0328921,0.5946758
0.378,0.5779264,-0.37416816,6.6635613,-1.8408984,-0.83822906,0.63777256
0.38,0.29054093,0.041618466,7.0079575,-1.7972019,-0.62609744,0.67840654
0.382,0.016002417,0.4557141,7.288423,-1.7514693,-0.400165,0.71467316
0.384,-0.24054551,0.86075544,7.5031385,-1.7051424,-0.16484576,0.7450747
0.386,-0.47396946,1.2499424,7.6512027,-1.6598383,0.07492641,0.76866966
0.388,-0.6794555,1.617196,7.7326536,-1.6172007,0.31387705,0.78499174
0.39,-0.85233736,1.9573059,7.7486877,-1.578813,0.5465594,0.79390436
0.392,-0.9885776,2.2659702,7.701077,-1.5461248,0.76749873,0.79553914
0.394,-1.0843608,2.5400157,7.592893,-1.5203815,0.9714,0.7903678
0.396,-1.1371329,2.7773845,7.4280167,-1.5025016,1.153408,0.77916133
0.398,-1.1451998,2.9773545,7.2112436,-1.4930027,1.3092482,0.76281154
0.4,-1.1079004,3.1404066,6.948372,-1.4920416,1.4354092,0.7421293
0.402,-1.0249588,3.2677374,6.6459913,-1.4993246,1.5294273,0.7177978
0.404,-0.89727354,3.3615637,6.3111744,-1.5142303,1.5897338,0.6903443
0.406,-0.7268741,3.4248881,5.951401,-1.5358334,1.6158512,0.66025984
0.408,-0.51666856,3.4616716,5.5744267,-1.5627875,1.6087251,0.62818074
0.41,-0.27046776,3.4768677,5.187214,-1.5934689,1.5703734,0.59479755
0.412,0.007992029,3.4759057,4.796395,-1.6260319,1.5038298,0.5608277
0.414,0.31501293,3.4643798,4.408204,-1.6584343,1.4130183,0.5271003
0.416,0.6470721,3.4474144,4.028326,-1.6885834,1.3023574,0.4945382
0.418,0.999249,3.4303913,3.662428,-1.7144289,1.1764383,0.46409884
0.42,1.3656489,3.4182374,3.3164434,-1.7340522,1.0398293,0.43673542
0.422,1.7411934,3.4149232,2.9959726,-1.7457726,0.89683884,0.413303
0.424,2.1204724,3.4241033,2.7064939,-1.7482831,0.75118506,0.39439243
0.426,2.4991467,3.4482293,2.452865,-1.7407434,0.60595024,0.38028786
0.428,2.8729234,3.4894009,2.237474,-1.7228038,0.46346334,0.37086746
0.43,3.236618,3.5490513,2.064241,-1.6945535,0.32551542,0.36568713
0.432,3.5838377,3.6279109,1.9377122,-1.6563673,0.19336632,0.36397618
0.434,3.9089625,3.726347,1.8605894,-1.6091067,0.06725924,0.36460832
0.436,4.207811,3.843277,1.8357041,-1.5539298,-0.05310604,0.36627555
0.438,4.4758406,3.9771342,1.8653176,-1.4921589,-0.16818744,0.36757728
0.44,4.7096286,4.1254044,1.9501545,-1.4252346,-0.27856869,0.36715558
0.442,4.9057674,4.2852955,2.0902421,-1.3546045,-0.38478693,0.36389136
0.444,5.060137,4.4538755,2.2849674,-1.2815914,-0.48716575,0.3570244
0.446,5.169409,4.628126,2.533029,-1.207295,-0.5857384,0.34608182
0.448,5.2302237,4.8052464,2.8316422,-1.1326364,-0.6802453,0.33084244
0.45,5.2405434,4.9818797,3.1785827,-1.0583539,-0.77004117,0.31139097
0.452,5.197934,5.1549754,3.5713928,-0.9850646,-0.85414076,0.28824612
0.454,5.10258,5.3210936,4.008009,-0.9132966,-0.93135196,0.26229817
0.456,4.9542274,5.4768977,4.485553,-0.8434809,-1.0003353,0.23466745
0.458,4.7511387,5.62078,4.996313,-0.77596474,-1.0597584,0.20649391
0.46,4.4927735,5.752045,5.532628,-0.71106374,-1.1085037,0.1787054
0.462,4.179883,5.8705125,6.088971,-0.6490904,-1.145787,0.15195301
0.464,3.813725,5.9763975,6.660387,-0.5903318,-1.1712064,0.12656102
0.466,3.396033,6.070208,7.2400274,-0.5350111,-1.1847978,0.1024892
0.468,2.9306464,6.1525526,7.820835,-0.48325428,-1.1870296,0.07930213
0.47,2.423172,6.2244554,8.395037,-0.4350552,-1.1787872,0.05622536
0.472,1.8828425,6.2863913,8.954095,-0.3902179,-1.1612339,0.032309204
0.474,1.3121395,6.342658,9.489637,-0.34834975,-1.135668,0.006589353
0.476,0.7174654,6.395404,10.000927,-0.30885446,-1.103378,-0.021779388
0.478,0.10424471,6.4474554,10.483848,-0.27098018,-1.0655797,-0.053444654
0.48,-0.5168276,6.4996195,10.934347,-0.23381959,-1.0232837,-0.088778764
0.482,-1.1364703,6.552272,11.347499,-0.1963757,-0.9771567,-0.12785447
0.484,-1.7466207,6.6078057,11.719057,-0.15758333,-0.92752576,-0.17050914
0.486,-2.3392282,6.668682,12.046194,-0.11637695,-0.8744645,-0.21638906
0.488,-2.90667,6.7386007,12.327646,-0.07176708,-0.81781375,-0.26501715
0.49,-3.4395351,6.8181224,12.562632,-0.022932917,-0.7572888,-0.31587878
0.492,-3.929247,6.907572,12.749749,0.030705437,-0.6926774,-0.3685233
0.494,-4.3672276,7.006893,12.887658,0.08945575,-0.6238185,-0.42253414
0.496,-4.746221,7.116123,12.976314,0.15329988,-0.550657,-0.47752735
0.498,-5.0599194,7.234886,13.0165,0.22177032,-0.47356185,-0.5332739
0.5,-5.3035836,7.3624783,13.009636,0.29401785,-0.39319715,-0.58957636
0.502,-5.4736357,7.497671,12.95731,0.36892706,-0.31027293,-0.646242
0.504,-5.5679936,7.638832,12.860634,0.44503435,-0.22610274,-0.7033242
0.506,-5.5857425,7.7840714,12.720833,0.5203088,-0.14316528,-0.7610781
0.508,-5.527805,7.931432,12.539794,0.5927924,-0.06340164,-0.81948733
0.51,-5.396433,8.079286,12.319819,0.6604147,0.011368439,-0.87870836
0.512,-5.1955867,8.226173,12.063433,0.7209178,0.078812666,-0.9392898
0.514,-4.929913,8.370423,11.772707,0.77222496,0.13619146,-1.0017096
0.516,-4.6043353,8.50995,11.449242,0.81285197,0.18090042,-1.0660707
0.518,-4.2250223,8.642618,11.094976,0.8419493,0.21064642,-1.132555
0.52,-3.7989302,8.766376,10.713012,0.859341,0.22371101,-1.2013547
0.522,-3.3342228,8.879516,10.307102,0.8656668,0.21931204,-1.2722483
0.524,-2.8398986,8.98086,9.881694,0.8623621,0.19767094,-1.3442614
0.526,-2.324841,9.069683,9.44146,0.85153973,0.15998845,-1.415636
0.528,-1.7977586,9.145598,8.991107,0.8358917,0.10851139,-1.4839807
0.53,-1.2672544,9.208649,8.535739,0.81847703,0.04640402,-1.5464681
0.532,-0.7422867,9.25919,8.080904,0.80247927,-0.022502497,-1.6000924
0.534,-0.23127937,9.297897,7.63197,0.79093176,-0.09419173,-1.6419365
0.536,0.25835228,9.32517,7.194823,0.78652674,-0.16496328,-1.6695077
0.538,0.7196145,9.341268,6.7757874,0.7914002,-0.23185474,-1.6810832
0.54,1.1464338,9.34696,6.379794,0.8070142,-0.2928171,-1.6759195
0.542,1.5333846,9.343359,6.011874,0.8341707,-0.34674025,-1.654341
0.544,1.8758719,9.330956,5.6776757,0.8730358,-0.39340714,-1.6176856
0.546,2.1696608,9.310408,5.382401,0.92322296,-0.43340433,-1.568083
0.548,2.4115462,9.282215,5.1314735,0.98392105,-0.46793443,-1.5081934
0.55,2.5983822,9.247315,4.9302096,1.0540059,-0.4984544,-1.4409038
0.552,2.7283244,9.206088,4.783597,1.1322075,-0.52624804,-1.369024
0.554,2.8000953,9.15904,4.6957088,1.2170608,-0.5525234,-1.2952524
0.556,2.8132122,9.106256,4.669612,1.3069918,-0.57835805,-1.2219952
0.558,2.768293,9.047754,4.7076216,1.4005244,-0.6041734,-1.1511282
0.56,2.6657286,8.983831,4.811103,1.4964771,-0.62968534,-1.0841779
0.562,2.505834,8.91525,4.9802523,1.5934873,-0.6554254,-1.0226474
0.564,2.2903588,8.842441,5.2144585,1.6904296,-0.6818079,-0.9674963
0.566,2.022107,8.765445,5.5127573,1.7865256,-0.7084577,-0.9191856
0.568,1.7048092,8.683749,5.872679,1.8810723,-0.7346069,-0.87816316
0.57,1.3429708,8.596508,6.290572,1.9732994,-0.75973564,-0.844869
0.572,0.9415846,8.502685,6.7606134,2.0625255,-0.78348684,-0.8192015
0.574,0.506279,8.401852,7.2758517,2.1483092,-0.80531377,-0.8006691
0.576,0.04347086,8.293589,7.829979,2.2303498,-0.8244747,-0.78870094
0.578,-0.4409814,8.177877,8.4159155,2.308439,-0.83995026,-0.7827555
0.58,-0.94101286,8.054837,9.025877,2.382459,-0.8503845,-0.78223157
0.582,-1.4518986,7.925515,9.651535,2.4523337,-0.854262,-0.78644073
0.584,-1.9613867,7.787736,10.284358,2.5180383,-0.85004187,-0.7946971
0.586,-2.4616342,7.641984,10.91015,2.5796278,-0.8362992,-0.80644155
0.588,-2.943324,7.488354,11.520088,2.6372318,-0.8118471,-0.8213746
0.59,-3.4019175,7.329275,12.1061535,2.691016,-0.775927,-0.83946943
0.592,-3.829534,7.166767,12.661848,2.7412508,-0.7282077,-0.8608873
0.594,-4.2171903,7.0006285,13.180582,2.7882566,-0.6690076,-0.8859535
0.596,-4.556611,6.830824,13.655163,2.8323083,-0.5994367,-0.9150697
0.598,-4.8401256,6.656452,14.079527,2.873641,-0.5211215,-0.94854647
0.6,-5.0627294,6.4797797,14.448741,2.912486,-0.43589127,-0.9865242
0.602,-5.2191377,6.3024993,14.760456,2.9490895,-0.34563193,-1.028902
0.604,-5.3057585,6.1265793,15.013384,2.9837792,-0.2521529,-1.0753038
0.606,-5.3192987,5.953392,15.206386,3.016932,-0.1570516,-1.1251159
0.608,-5.2579575,5.7843885,15.339333,3.0489938,-0.061594665,-1.1775298
0.61,-5.1204643,5.6208982,15.413187,3.0804386,0.033316374,-1.2316415
0.612,-4.9073844,5.464562,15.430139,3.1117363,0.12718213,-1.2864687
0.614,-4.620527,5.317047,15.393412,3.1433532,0.21987104,-1.3409698
0.616,-4.262933,5.1796803,15.306858,3.1757042,0.3114844,-1.3940477
0.618,-3.838571,5.0533705,15.174117,3.2091396,0.40224326,-1.4445997
0.62,-3.3526378,4.9386663,14.998974,3.2439423,0.49238285,-1.4915195
0.622,-2.8113704,4.8360815,14.78561,3.280293,0.582131,-1.5336888
0.624,-2.2224631,4.746137,14.539061,3.318304,0.6717414,-1.5700474
0.626,-1.5946636,4.669346,14.264611,3.3580332,0.7614411,-1.5995262
0.628,-0.9367423,4.605685,13.967226,3.3994522,0.8512343,-1.6211686
0.63,-0.25781822,4.554635,13.651417,3.4425306,0.9410549,-1.6342287
0.632,0.43317938,4.5151024,13.321138,3.4872937,1.0308243,-1.63818
0.634,1.127747,4.485632,12.979877,3.5338068,1.1203786,-1.6327417
0.636,1.8172569,4.4646196,12.630735,3.5821438,1.2093759,-1.6179223
0.638,2.4933424,4.4498696,12.27694,3.6323519,1.2973185,-1.5940441
0.64,3.1485343,4.4389505,11.921634,3.684464,1.3835943,-1.5617174
0.642,3.7756689,4.4291844,11.56768,3.7384837,1.4675152,-1.521756
0.644,4.3682556,4.4176426,11.218016,3.7943776,1.5482724,-1.4751337
0.646,4.920227,4.4016485,10.875858,3.852001,1.6248153,-1.4229172
0.648,5.426482,4.3787355,10.544161,3.9111495,1.6959888,-1.3661829
0.65,5.8823786,4.346372,10.226673,3.9715738,1.7606034,-1.3060101
0.652,6.284853,4.3021693,9.92642,4.0329432,1.8173999,-1.2434703
0.654,6.630957,4.244548,9.646512,4.0948567,1.8650799,-1.1796736
0.656,6.918482,4.172372,9.389917,4.156827,1.9024032,-1.1157178
0.658,7.1461287,4.0846934,9.159374,4.2182894,1.9282396,-1.052709
0.66,7.3138804,3.980515,8.956977,4.278701,1.941635,-0.9917041
0.662,7.4225287,3.8593745,8.784399,4.3375964,1.9418504,-0.9337325
0.664,7.4735594,3.721074,8.643719,4.3946185,1.928378,-0.87979853
0.666,7.468948,3.566252,8.536661,4.449555,1.9009414,-0.8308997
0.668,7.4113398,3.3958554,8.464452,4.5023255,1.8595355,-0.7880435
0.67,7.3048534,3.2110763,8.427454,4.552976,1.8044611,-0.7521901
0.672,7.1545496,3.0129516,8.425622,4.601655,1.7363381,-0.7241781
0.674,6.9657774,2.8031392,8.458149,4.648579,1.6560541,-0.7046579
0.676,6.7445383,2.5836315,8.522835,4.694017,1.564772,-0.6941103
0.678,6.496382,2.3568773,8.6172905,4.7382717,1.4639442,-0.69279385
0.68,6.2288237,2.1241364,8.7369175,4.7816367,1.3553152,-0.700775
0.682,5.9491673,1.8876133,8.880432,4.824374,1.2408587,-0.71787477
0.684,5.663991,1.6496329,9.0421715,4.8667183,1.1227398,-0.7436595
0.686,5.3821797,1.4109445,9.217407,4.9089046,1.0033044,-0.7775297
0.688,5.11182,1.1715589,9.401478,4.95117,0.88501656,-0.81868684
0.69,4.8606687,0.9320736,9.588369,4.993746,0.7704617,-0.86616755
0.692,4.6358857,0.69270754,9.772249,5.0368333,0.66214013,-0.91885746
0.694,4.444272,0.4533472,9.947157,5.080591,0.5623968,-0.9755192
0.696,4.2917686,0.21373081,10.107127,5.1251583,0.4733746,-1.0348523
0.698,4.18311,-0.026356697,10.246683,5.1706533,0.39701116,-1.0955325
0.7,4.122183,-0.26739693,10.360844,5.2171583,0.3350258,-1.1562883
0.702,4.111775,-0.5099602,10.445288,5.2647314,0.28882182,-1.2159159
0.704,4.153404,-0.7544756,10.496225,5.313387,0.2594552,-1.2732756
0.706,4.247726,-1.0012622,10.510857,5.363132,0.24760187,-1.3273294
0.708,4.394437,-1.250628,10.486793,5.413958,0.25357533,-1.3771765
0.71,4.5920806,-1.5027413,10.423194,5.4657445,0.27695477,-1.4220533
0.712,4.837755,-1.7573047,10.319679,5.5182557,0.31663108,-1.4611192
0.714,5.1276674,-2.0140233,10.176762,5.571266,0.37126744,-1.4937251
0.716,5.4571257,-2.2721386,9.995765,5.6243463,0.43868005,-1.519573
0.718,5.8213053,-2.5309255,9.778283,5.67693,0.5160903,-1.5384014
0.72,6.2145414,-2.7891011,9.5264015,5.7284117,0.60031056,-1.5499983
0.722,6.631235,-3.045367,9.243218,5.7781305,0.68783724,-1.5543714
0.724,7.065357,-3.298123,8.932129,5.8254547,0.7751124,-1.5517256
0.726,7.511116,-3.5459857,8.596945,5.869793,0.8586383,-1.542441
0.728,7.9631596,-3.7876697,8.241668,5.910669,0.93518937,-1.5270545
0.73,8.416496,-4.0220156,7.8705673,5.9477882,1.0020134,-1.506219
0.732,8.866281,-4.247953,7.4878936,5.9810596,1.056984,-1.4807253
0.734,9.308579,-4.464626,7.0978427,6.010631,1.0986838,-1.451402
0.736,9.7400055,-4.6715164,6.7044563,6.0368805,1.1264215,-1.4190747
0.738,10.157589,-4.8682556,6.3116117,6.0603924,1.1402017,-1.3845323
0.74,10.559579,-5.0548453,5.922723,6.0819097,1.1406662,-1.348447
0.742,10.94524,-5.2317305,5.5411143,6.102307,1.1289296,-1.3114249
0.744,11.314207,-5.3998437,5.1700335,6.1225023,1.1063871,-1.2739538
0.746,11.666773,-5.5606456,4.812984,6.143449,1.0746663,-1.2363877
0.748,12.004,-5.715484,4.472889,6.1660323,1.0353775,-1.1989746
0.75,12.327017,-5.8661356,4.1524568,6.1910267,0.98994756,-1.1618191
0.752,12.637843,-6.014409,3.8540387,6.2190456,0.9395833,-1.1249053
0.754,12.938498,-6.162174,3.5795054,6.2505093,0.8852298,-1.0880897
0.756,13.23112,-6.311456,3.3300698,6.2856503,0.82762027,-1.0511472
0.758,13.518598,-6.464678,3.1071815,6.3244777,0.76727223,-1.0137732
0.76,13.802584,-6.6233454,2.910924,6.36677,0.70442784,-0.97562796
0.762,14.084833,-6.7888145,2.7411246,6.412076,0.6391008,-0.9363091
0.764,14.368302,-6.9629164,2.597394,6.459812,0.5712545,-0.89545333
0.766,14.654542,-7.146511,2.478793,6.5092463,0.5006248,-0.85288465
0.768,14.945249,-7.3402405,2.3844287,6.559423,0.42637968,-0.80836254
0.77,15.241413,-7.5442486,2.3132398,6.609447,0.347813,-0.7616039
0.772,15.54365,-7.7577076,2.2632015,6.658448,0.26403916,-0.7126276
0.774,15.852469,-7.979508,2.2324378,6.7056437,0.17410135,-0.6615759
0.776,16.167019,-8.207717,2.216843,6.750488,0.077191114,-0.6085443
0.778,16.48857,-8.441071,2.2134075,6.7926965,-0.027308226,-0.5536859
0.78,16.815878,-8.677839,2.2212605,6.8322773,-0.13962054,-0.49718118
0.782,17.146452,-8.914418,2.2356186,6.8695335,-0.25955856,-0.439181
0.784,17.481236,-9.148137,2.2508554,6.904968,-0.3865819,-0.3797786
0.786,17.818779,-9.376166,2.2644875,6.939267,-0.5198685,-0.3189999
0.788,18.156988,-9.5956745,2.2746832,6.973218,-0.65840113,-0.25685203
0.79,18.49108,-9.802048,2.2787905,7.0076065,-0.801144,-0.19333269
0.792,18.8218,-9.994673,2.2727895,7.043147,-0.94722366,-0.12844014
0.794,19.15352,-10.174322,2.2553937,7.0804467,-1.0960037,-0.06219943
0.796,19.479643,-10.335324,2.2242968,7.1199355,-1.2472117,0.0052689314
0.798,19.793848,-10.473003,2.1836135,7.161884,-1.4010037,0.07372328
0.8,20.09606,-10.586649,2.134589,7.2063823,-1.5579432,0.14279135
0.802,20.383102,-10.673548,2.0734582,7.2532883,-1.7189629,0.21193007
0.804,20.65808,-10.735459,2.0016642,7.302295,-1.8852935,0.2804665
0.806,20.915514,-10.772103,1.9229527,7.353077,-2.058147,0.34765497
0.808,21.145142,-10.78031,1.8395984,7.4051375,-2.2390428,0.41260064
0.81,21.345701,-10.76253,1.7603605,7.4577785,-2.4296281,0.4743228
0.812,21.52645,-10.728298,1.6950094,7.5104804,-2.630783,0.53199154
0.814,21.68779,-10.679699,1.6418525,7.562796,-2.843095,0.58488625
0.816,21.820671,-10.613298,1.6009029,7.614114,-3.0671523,0.6322664
0.818,21.920626,-10.5302305,1.5836115,7.6639156,-3.302774,0.67359513
0.82,21.991291,-10.43565,1.6015946,7.7118316,-3.5490286,0.70859563
0.822,22.036236,-10.333811,1.6609708,7.757737,-3.8040953,0.7373424
0.824,22.05382,-10.226891,1.7640171,7.801781,-4.065205,0.7603413
0.826,22.045424,-10.117326,1.9120605,7.843903,-4.329812,0.77797997
0.828,22.013672,-10.007759,2.1092546,7.884136,-4.5950403,0.7908274
0.83,21.961592,-9.900717,2.3594031,7.9231925,-4.8565445,0.8002647
0.832,21.891783,-9.797468,2.664666,7.9618626,-5.1097527,0.8078959
0.834,21.806627,-9.698275,3.0264432,8.000847,-5.3501987,0.81542015
0.836,21.709265,-9.6022215,3.4450471,8.040861,-5.5734844,0.8247144
0.838,21.603731,-9.507693,3.920217,8.082687,-5.7751803,0.83761
0.84,21.494194,-9.412629,4.4507494,8.127027,-5.9511867,0.8559641
0.842,21.38455,-9.31428,5.0346994,8.174872,-6.0968714,0.8822865
0.844,21.277647,-9.208919,5.6696024,8.2273035,-6.207685,0.91890126
0.846,21.176003,-9.092112,6.3528547,8.284708,-6.2811966,0.96685666
0.848,21.081278,-8.958916,7.081711,8.347076,-6.316325,1.0267802
0.85,20.99448,-8.804292,7.852792,8.414326,-6.311988,1.0996612
0.852,20.915377,-8.622889,8.662175,8.485646,-6.268382,1.1860551
0.854,20.842445,-8.4094095,9.505813,8.559473,-6.187231,1.2859282
0.856,20.772558,-8.1585655,10.379909,8.633596,-6.0715814,1.3990158
0.858,20.701168,-7.865993,11.28097,8.705079,-5.925946,1.5248845
0.86,20.623148,-7.528594,12.204726,8.770397,-5.756072,1.6628635
0.862,20.532223,-7.1441846,13.146221,8.825821,-5.5683727,1.8120389
0.864,20.421185,-6.71139,14.099817,8.867691,-5.369888,1.9711796
0.866,20.282343,-6.2298784,15.059624,8.892553,-5.1683946,2.1386633
0.868,20.106907,-5.699973,16.018839,8.897719,-4.9713225,2.3125446
0.87,19.887407,-5.1241474,16.97104,8.881581,-4.7853255,2.4904642
0.872,19.615704,-4.505881,17.908974,8.843384,-4.6167793,2.6693792
0.874,19.283617,-3.8494544,18.8244,8.783274,-4.4712353,2.8456502
0.876,18.885256,-3.1609755,19.70923,8.702307,-4.3531322,3.0151768
0.878,18.415821,-2.4471855,20.554853,8.602417,-4.265664,3.1736937
0.88,17.872177,-1.7157407,21.352905,8.4866295,-4.209866,3.3174322
0.882,17.253088,-0.97528934,22.09577,8.358363,-4.1857305,3.442946
0.884,16.559334,-0.23450327,22.775301,8.2209,-4.1929197,3.5470533
0.886,15.79497,0.49708414,23.385906,8.077955,-4.22929,3.6277962
0.888,14.963573,1.2113161,23.921047,7.933396,-4.2911773,3.6844993
0.89,14.073138,1.8998132,24.374077,7.7907605,-4.3740053,3.717551
0.892,13.133919,2.5533457,24.743767,7.653017,-4.472818,3.7284274
0.894,12.153656,3.16496,25.03021,7.5224953,-4.5824366,3.7193308
0.896,11.143751,3.7283764,25.231934,7.4005775,-4.698518,3.692529
0.898,10.117447,4.237914,25.349228,7.2880006,-4.816919,3.6509953
0.9,9.088145,4.688265,25.386574,7.18533,-4.932844,3.5985167
0.902,8.064703,5.077549,25.348232,7.0923815,-5.042849,3.5382059
0.904,7.054178,5.4049234,25.241306,7.008152,-5.145711,3.472155
0.906,6.0719056,5.665469,25.073616,6.9315796,-5.2407436,3.4024491
0.908,5.130559,5.8576965,24.84911,6.86148,-5.3278837,3.3311298
0.91,4.234655,5.9840355,24.578178,6.796555,-5.4078197,3.2598205
0.912,3.39085,6.045804,24.275623,6.735517,-5.481736,3.1898198
0.914,2.5990233,6.048646,23.950687,6.6770597,-5.5514336,3.1221864
0.916,1.8661513,5.996341,23.611214,6.6199274,-5.619053,3.0577765
0.918,1.1996441,5.8907385,23.266914,6.562869,-5.686891,2.9971728
0.92,0.59532857,5.7399893,22.92197,6.5046635,-5.757281,2.9406002
0.922,0.04084468,5.557004,22.581833,6.4442253,-5.8323526,2.8880608
0.924,-0.4646821,5.3455777,22.261656,6.380705,-5.913844,2.8394566
0.926,-0.9154122,5.105932,21.970642,6.313581,-6.0029345,2.7946098
0.928,-1.3133183,4.845006,21.706268,6.242615,-6.10015,2.7532797
0.93,-1.6678209,4.5728807,21.467983,6.1678166,-6.205377,2.715138
0.932,-1.9853525,4.2975855,21.260561,6.089432,-6.317831,2.6798153
0.934,-2.2667902,4.025113,21.089657,6.007905,-6.436182,2.6469712
0.936,-2.5147173,3.761127,20.958675,5.923871,-6.5585804,2.6163175
0.938,-2.733233,3.5121975,20.865318,5.83817,-6.68276,2.587677
0.94,-2.9257848,3.2842894,20.807646,5.751743,-6.806157,2.560977
0.942,-3.0938559,3.0812407,20.78421,5.6655917,-6.926012,2.5362186
0.944,-3.2382107,2.905911,20.79238,5.580788,-7.039397,2.513483
0.946,-3.360512,2.7605991,20.828712,5.4983788,-7.1431885,2.4929447
0.948,-3.462909,2.647121,20.889233,5.41939,-7.2341413,2.4748359
0.95,-3.547413,2.566728,20.969837,5.3447676,-7.308959,2.459493
0.952,-3.615499,2.5196877,21.066473,5.275315,-7.3644714,2.4473696
0.954,-3.6675057,2.5049024,21.174335,5.211649,-7.39782,2.4389844
0.956,-3.7044437,2.5206943,21.288403,5.154156,-7.4066052,2.4348512
0.958,-3.7272837,2.564989,21.40343,5.1029134,-7.389094,2.4353914
0.96,-3.737284,2.6354442,21.514938,5.057724,-7.3443813,2.440939
0.962,-3.7361302,2.7290974,21.618622,5.0181065,-7.2724495,2.4516854
0.964,-3.7250788,2.8425474,21.710085,4.983335,-7.1741924,2.467659
0.966,-3.705503,2.9718738,21.78453,4.952566,-7.051336,2.4887748
0.968,-3.6794055,3.11367,21.837534,4.924835,-6.906324,2.5147245
0.97,-3.649229,3.2651138,21.865461,4.899209,-6.742146,2.5450678
0.972,-3.6176174,3.4233074,21.865805,4.874825,-6.5620255,2.5793953
0.974,-3.5870056,3.5851052,21.836376,4.8508935,-6.3692603,2.61723
0.976,-3.5595546,3.747589,21.775053,4.8266926,-6.1671367,2.6580622
0.978,-3.537666,3.9082277,21.679754,4.801573,-5.9588966,2.7014217
0.98,-3.5231175,4.065115,21.5487,4.7749424,-5.7476635,2.7467964
0.982,-3.5176778,4.2169914,21.38088,4.7462864,-5.536288,2.7936695
0.984,-3.523446,4.363189,21.176193,4.7151136,-5.327437,2.841524
0.986,-3.5416968,4.503149,20.934864,4.680957,-5.1235843,2.8898067
0.988,-3.573989,4.636777,20.657206,4.6433983,-4.9269056,2.9379845
0.99,-3.62111,4.7642055,20.344475,4.6020894,-4.739315,2.9855094
0.992,-3.6833913,4.885561,19.997932,4.5567517,-4.562374,3.0318422
0.994,-3.7609482,5.0010777,19.619724,4.5072155,-4.397268,3.0764813
0.996,-3.8536518,5.1113615,19.212223,4.4534206,-4.2448235,3.1190176
0.998,-3.9610183,5.217234,18.77778,4.3954186,-4.10554,3.1591465
1,-4.081933,5.3195453,18.318842,4.333396,-3.9796672,3.1966496
1.002,-4.215271,5.4194875,17.838085,4.267621,-3.8673024,3.2313995
1.004,-4.359247,5.5178576,17.338482,4.198437,-3.7684922,3.263327
1.006,-4.512203,5.616046,16.823307,4.126264,-3.6833181,3.2923684
1.008,-4.672307,5.7152767,16.29645,4.0515823,-3.6118348,3.3184853
1.01,-4.8375397,5.8167386,15.762028,3.974904,-3.5541368,3.3416302
1.012,-5.0058546,5.921456,15.224401,3.8967953,-3.510292,3.3617153
1.014,-5.1749725,6.030107,14.687535,3.8178463,-3.4802313,3.3785546
1.016,-5.342638,6.1436615,14.155039,3.7387266,-3.4636493,3.3920016
1.018,-5.506956,6.262899,13.630892,3.6601233,-3.4601119,3.4019196
1.02,-5.666384,6.3884544,13.119219,3.5827336,-3.4688897,3.4080794
1.022,-5.8191967,6.520505,12.623969,3.5073047,-3.4890058,3.4103308
1.024,-5.9641185,6.659393,12.148991,3.4345276,-3.51931,3.4085252
1.026,-6.0997834,6.804629,11.697956,3.3650427,-3.5585954,3.4023743
1.028,-6.224962,6.9556146,11.274203,3.2994723,-3.6055965,3.3916457
1.03,-6.3390207,7.1117697,10.880453,3.2384038,-3.6589324,3.3761284
1.032,-6.441472,7.2722397,10.519327,3.1823888,-3.7170746,3.3555827
1.034,-6.532241,7.435998,10.193016,3.1319146,-3.7783704,3.3298833
1.036,-6.6115055,7.6026897,9.901952,3.0873995,-3.8411407,3.299005
1.038,-6.6801023,7.7716703,9.64755,3.0492265,-3.9035108,3.2630186
1.04,-6.7392282,7.9411907,9.430658,3.017707,-3.9634395,3.2221386
1.042,-6.7899857,8.109797,9.251087,2.9930015,-4.018848,3.1766715
1.044,-6.8343673,8.276832,9.1087,2.9751408,-4.0676684,3.1271183
1.046,-6.8748784,8.441574,9.001665,2.9639912,-4.107981,3.0741026
1.048,-6.9129343,8.60271,8.927988,2.95926,-4.138142,3.018278
1.05,-6.950151,8.759333,8.884075,2.960518,-4.1567473,2.9603245
1.052,-6.9891977,8.911547,8.865801,2.9672036,-4.1626687,2.9009242
1.054,-7.0326324,9.059366,8.869338,2.9786797,-4.155052,2.8407562
1.056,-7.0827484,9.202642,8.891042,2.994269,-4.133234,2.7805052
1.058,-7.1418333,9.341426,8.926562,3.0132818,-4.0967093,2.7208328
1.06,-7.2121205,9.476122,8.971315,3.0350685,-4.045047,2.6624143
1.062,-7.295722,9.607536,9.02063,3.0590572,-3.9779098,2.6058958
1.064,-7.395046,9.736936,9.070431,3.0847368,-3.8949795,2.551915
1.066,-7.511964,9.865281,9.116441,3.1115963,-3.7961397,2.501178
1.068,-7.648238,9.993505,9.154538,3.139083,-3.6816497,2.4542325
1.07,-7.805417,10.122778,9.180789,3.1666956,-3.5519335,2.4113607
1.072,-7.9845204,10.254372,9.191753,3.1939797,-3.4076316,2.3729143
1.074,-8.186545,10.389717,9.1845665,3.2204328,-3.2498462,2.33917
1.076,-8.41198,10.530274,9.156918,3.2455711,-3.0799043,2.3101778
1.078,-8.66079,10.677152,9.106749,3.2689185,-2.8993835,2.2858639
1.08,-8.932714,10.831196,9.0327835,3.29001,-2.7101243,2.2660804
1.082,-9.227273,10.99305,8.933754,3.3083994,-2.514075,2.2505777
1.084,-9.543489,11.163396,8.809193,3.3236508,-2.313262,2.2390022
1.086,-9.880687,11.342851,8.659089,3.3353655,-2.1096902,2.2309494
1.088,-10.237267,11.531727,8.484002,3.3432074,-1.9052777,2.2259433
1.09,-10.611494,11.729504,8.285018,3.3469272,-1.7017734,2.2234747
1.092,-11.001162,11.934565,8.062124,3.346373,-1.5007509,2.223013
1.094,-11.406247,12.151001,7.818569,3.3415098,-1.3035808,2.2240057
1.096,-11.821644,12.374909,7.554786,3.3324206,-1.1113808,2.2259011
1.098,-12.245689,12.605299,7.271614,3.3192859,-0.92506725,2.2281117
1.1,-12.677189,12.842746,6.9713264,3.3023694,-0.7453269,2.230077
1.102,-13.113664,13.086571,6.656707,3.2819777,-0.5727273,2.2312539
1.104,-13.552679,13.334995,6.3294663,3.2584357,-0.40782523,2.2311068
1.106,-13.992314,13.586946,5.9921503,3.2320466,-0.25117022,2.2290845
1.108,-14.430703,13.8413105,5.64763,3.2030668,-0.10332763,2.2246573
1.11,-14.866432,14.097228,5.298602,3.171739,0.035122156,2.2173347
1.112,-15.297038,14.352908,4.947608,3.138274,0.16361177,2.206664
1.114,-15.72162,14.607734,4.5971003,3.1028733,0.2816265,2.1922503
1.116,-16.138828,14.860677,4.24979,3.0657587,0.388782,2.17377
1.118,-16.547585,15.110856,3.9080296,3.027202,0.4849047,2.150953
1.12,-16.947388,15.3575535,3.5743709,2.9875898,0.57012606,2.1236262
1.122,-17.337925,15.600695,3.2512386,2.947271,0.6446592,2.0919135
1.124,-17.71904,15.8399315,2.941441,2.9067338,0.7089836,2.0556867
1.126,-18.090927,16.07524,2.6476893,2.8666375,0.76407194,2.0148191
1.128,-18.453709,16.306509,2.3719602,2.8275886,0.8106872,1.9695361
1.13,-18.807482,16.533749,2.116033,2.7901921,0.849627,1.9200776
1.132,-19.15277,16.75742,1.8815718,2.75508,0.8818768,1.8665497
1.134,-19.490078,16.977798,1.6698704,2.7228189,0.90832776,1.8091352
1.136,-19.820246,17.195538,1.4819746,2.6938367,0.9296735,1.7480257
1.138,-20.14449,17.411406,1.3186388,2.6684566,0.9465594,1.683299
1.14,-20.463497,17.625874,1.1803417,2.6468973,0.95958203,1.6148645
1.142,-20.77821,17.839613,1.0670261,2.6292815,0.9693011,1.5425389
1.144,-21.08965,18.053123,0.97878647,2.6156466,0.9762701,1.4660207
1.146,-21.398617,18.266674,0.9164753,2.6060133,0.9811331,1.3849053
1.148,-21.705494,18.480751,0.87907267,2.6003976,0.98462313,1.2987602
1.15,-22.010832,18.697086,0.8659239,2.5988255,0.9874922,1.2072389
1.152,-22.315498,18.916512,0.8772421,2.60132,0.99051875,1.110117
1.154,-22.619518,19.138794,0.91226196,2.607922,0.9944612,1.0073457
1.156,-22.923456,19.364288,0.9705901,2.6186643,1.0000296,0.89909303
1.158,-23.227987,19.593472,1.0516248,2.633554,1.0078058,0.78571
1.16,-23.533377,19.826473,1.1542025,2.6525755,1.018236,0.6677345
1.162,-23.839424,20.063362,1.2769227,2.6756787,1.0316387,0.54583347
1.164,-24.146002,20.304539,1.4185586,2.702731,1.0481917,0.4207139
1.166,-24.452847,20.550146,1.5777049,2.7335625,1.0679572,0.2930808
1.168,-24.759178,20.800074,1.7528071,2.7679539,1.0909228,0.16355085
1.17,-25.063936,21.054087,1.9421387,2.805626,1.1169819,0.032626867
1.172,-25.365902,21.311663,2.143484,2.8462996,1.1459022,-0.0993166
1.174,-25.664072,21.57226,2.354597,2.8896751,1.1773635,-0.23209381
1.176,-25.956888,21.83547,2.5731401,2.9355295,1.2110511,-0.36568618
1.178,-26.24249,22.10056,2.7965307,2.983436,1.2462573,-0.4999082
1.18,-26.518906,22.36662,3.0219803,3.0329628,1.2820551,-0.6349405
1.182,-26.783983,22.63272,3.2466288,3.0837731,1.317828,-0.771204
1.184,-27.03543,22.89784,3.4675508,3.135439,1.3527241,-0.90900683
1.186,-27.271292,23.160896,3.68204,3.1874535,1.3856812,-1.0486655
1.188,-27.489628,23.420902,3.887655,3.2393184,1.4156991,-1.1906719
1.19,-27.688747,23.676846,4.081962,3.2906058,1.44184,-1.3355507
1.192,-27.866703,23.927612,4.262994,3.3409443,1.463129,-1.4837914
1.194,-28.022186,24.171873,4.428885,3.3900392,1.4786985,-1.635848
1.196,-28.153614,24.408136,4.5782037,3.43771,1.4878204,-1.7922149
1.198,-28.260033,24.635115,4.709792,3.4839191,1.4899722,-1.9533552
1.2,-28.34083,24.851974,4.8229837,3.5287077,1.4848156,-2.119665
1.202,-28.395334,25.058222,4.9182863,3.5722287,1.472215,-2.2915256
1.204,-28.421125,25.248434,4.993709,3.6147008,1.4522241,-2.4693098
1.206,-28.42161,25.425428,5.051397,3.6564195,1.4250742,-2.6533296
1.208,-28.395771,25.587706,5.093215,3.6977198,1.3910753,-2.843832
1.21,-28.343098,25.732578,5.119928,3.7389853,1.3506087,-3.041014
1.212,-28.264956,25.859167,5.132969,3.7806392,1.3040578,-3.244981
1.214,-28.162443,25.967293,5.1351376,3.8231413,1.2517594,-3.4557645
1.216,-28.036331,26.055672,5.1287155,3.8669782,1.1939656,-3.6733017
1.218,-27.887487,26.123207,5.116086,3.9126701,1.1308358,-3.8974147
1.22,-27.71687,26.16893,5.0998926,3.9607444,1.0624216,-4.1278033
1.222,-27.526115,26.19267,5.0830593,4.011696,0.988627,-4.3640795
1.224,-27.315691,26.19376,5.0685587,4.0659547,0.9092005,-4.6057773
1.226,-27.086613,26.171951,5.059285,4.123842,0.8237535,-4.852335
1.228,-26.8398,26.1277,5.0585327,4.1855855,0.73173004,-5.1031485
1.23,-26.57578,26.061682,5.0694814,4.2512813,0.6324265,-5.357608
1.232,-26.294832,25.974709,5.095488,4.32092,0.52500093,-5.6151385
1.234,-25.997158,25.868073,5.1396246,4.3943605,0.4085096,-5.8751993
1.236,-25.682707,25.74332,5.2047696,4.4714108,0.28197038,-6.137329
1.238,-25.351212,25.60236,5.294056,4.5517983,0.14441943,-6.4011564
1.24,-25.002369,25.44754,5.4099064,4.6352215,-0.004982829,-6.666397
1.242,-24.635477,25.281286,5.554759,4.72133,-0.1668973,-6.9328637
1.244,-24.249903,25.106512,5.730962,4.809727,-0.34176588,-7.2004843
1.246,-23.844877,24.926126,5.940646,4.899948,-0.52979636,-7.4692287
1.248,-23.419392,24.743534,6.1857777,4.991453,-0.7310045,-7.739125
1.25,-22.972721,24.5624,6.468586,5.083623,-0.9452151,-8.010226
1.252,-22.503866,24.386553,6.7908173,5.1757317,-1.1721342,-8.282627
1.254,-22.011757,24.2202,7.1539736,5.266974,-1.4114039,-8.556449
1.256,-21.49524,24.06741,7.55927,5.356438,-1.6626108,-8.831818
1.258,-20.953018,23.93248,8.007464,5.443172,-1.9253244,-9.108887
1.26,-20.38377,23.819435,8.498796,5.526153,-2.1991484,-9.387802
1.262,-19.786175,23.732494,9.033629,5.6043425,-2.4837322,-9.668713
1.264,-19.1587,23.675732,9.612049,5.676686,-2.7788224,-9.951785
1.266,-18.499962,23.653084,10.234107,5.7421427,-3.084283,-10.237196
1.268,-17.808004,23.667881,10.899717,5.799679,-3.4001262,-10.525091
1.27,-17.081364,23.723118,11.60856,5.8482738,-3.7264962,-10.815639
1.272,-16.318558,23.821379,12.360076,5.8869195,-4.0637226,-11.109009
1.274,-15.517893,23.964611,13.152952,5.9145746,-4.412266,-11.405394
1.276,-14.677935,24.154556,13.985494,5.9302225,-4.7726755,-11.704931
1.278,-13.79723,24.392365,14.855877,5.932809,-5.1455984,-12.007818
1.28,-12.874044,24.67843,15.761707,5.9212575,-5.5317125,-12.314283
1.282,-11.906586,25.012558,16.70034,5.8944464,-5.9316998,-12.624554
1.284,-10.892771,25.393625,17.668627,5.851245,-6.346225,-12.938879
1.286,-9.831453,25.820024,18.663116,5.7905097,-6.775861,-13.257493
1.288,-8.721383,26.28949,19.68032,5.711129,-7.221074,-13.580654
1.29,-7.5600996,26.798624,20.716805,5.6119804,-7.6822443,-13.908576
1.292,-6.345621,27.343372,21.768726,5.491988,-8.159565,-14.241396
1.294,-5.0763893,27.91896,22.83209,5.3501945,-8.652977,-14.579118
1.296,-3.7506669,28.52007,23.902716,5.185763,-9.162189,-14.921564
1.298,-2.3673682,29.140888,24.97636,4.998007,-9.686634,-15.268357
1.3,-0.92592853,29.775547,26.048569,4.7864523,-10.225431,-15.618849
1.302,0.5739879,30.418072,27.115248,4.550801,-10.777391,-15.972151
1.304,2.1328218,31.06188,28.172586,4.2909107,-11.341035,-16.32713
1.306,3.7503648,31.699932,29.217052,4.0068088,-11.914619,-16.6824
1.308,5.425866,32.32505,30.245598,3.6986458,-12.496235,-17.036356
1.31,7.1577272,32.930576,31.255276,3.3667235,-13.08379,-17.387148
1.312,8.943985,33.509964,32.243134,3.0114393,-13.675025,-17.7327
1.314,10.78203,34.057007,33.2069,2.6333785,-14.267582,-18.070692
1.316,12.669256,34.565296,34.144333,2.2332923,-14.858915,-18.398588
1.318,14.602497,35.02888,35.054253,1.812182,-15.446306,-18.713556
1.32,16.578735,35.441475,35.93603,1.371388,-16.026768,-19.012524
1.322,18.594463,35.797096,36.7895,0.9125786,-16.59708,-19.292255
1.324,20.645756,36.09072,37.614727,0.43778467,-17.153942,-19.549442
1.326,22.72852,36.316826,38.41192,-0.05061865,-17.693857,-19.780714
1.328,24.837593,36.47146,39.182365,-0.54990005,-18.213392,-19.982792
1.33,26.967752,36.55068,39.92688,-1.0570841,-18.709227,-20.15271
1.332,29.114172,36.550507,40.6457,-1.5689812,-19.178368,-20.287827
1.334,31.271814,36.467747,41.3395,-2.0822005,-19.61809,-20.385971
1.336,33.43514,36.30007,42.009724,-2.5932832,-20.026157,-20.445507
1.338,35.599438,36.045063,42.658516,-3.0987015,-20.400728,-20.46525
1.34,37.76097,35.700115,43.288284,-3.5949101,-20.740387,-20.444489
1.342,39.91542,35.26367,43.902016,-4.0784297,-21.044067,-20.382942
1.344,42.059227,34.735016,44.503727,-4.5457697,-21.310944,-20.28064
1.346,44.188683,34.11425,45.09751,-4.993538,-21.54039,-20.137888
1.348,46.300438,33.402042,45.687542,-5.418436,-21.732052,-19.955198
1.35,48.391224,32.60063,46.278214,-5.8173156,-21.885742,-19.7333
1.352,50.458538,31.712587,46.87388,-6.187244,-22.00142,-19.473019
1.354,52.49993,30.7421,47.47881,-6.5254855,-22.079205,-19.1753
1.356,54.51387,29.694292,48.097267,-6.829567,-22.119534,-18.841167
1.358,56.49874,28.575377,48.73353,-7.097306,-22.123264,-18.471825
1.36,58.453094,27.392557,49.39158,-7.3268576,-22.091618,-18.068642
1.362,60.37505,26.154018,50.07569,-7.51676,-22.026255,-17.632996
1.364,62.261898,24.869478,50.790024,-7.665884,-21.92926,-17.166428
1.366,64.11074,23.549858,51.53882,-7.773444,-21.80317,-16.670588
1.368,65.918,22.206892,52.32667,-7.8389635,-21.650723,-16.147188
1.37,67.6808,20.85371,53.15622,-7.862235,-21.474926,-15.597991
1.372,69.39567,19.50636,54.029263,-7.8433695,-21.279064,-15.024935
1.374,71.05948,18.180279,54.948654,-7.782772,-21.066622,-14.430136
1.376,72.67029,16.890505,55.91485,-7.681078,-20.841343,-13.8159485
1.378,74.225784,15.653941,56.926506,-7.5391593,-20.607168,-13.184977
1.38,75.72494,14.4893875,57.983192,-7.358092,-20.3684,-12.539951
1.382,77.16596,13.416578,59.084923,-7.1391287,-20.129524,-11.883667
1.384,78.55055,12.452126,60.231167,-6.8836026,-19.89506,-11.218773
1.386,79.88002,11.616465,61.41835,-6.5928707,-19.669346,-10.547696
1.388,81.154106,10.9353,62.64264,-6.268315,-19.456352,-9.872483
1.39,82.383675,10.423085,63.901497,-5.911213,-19.259369,-9.194757
1.392,83.56794,10.104405,65.18851,-5.5226946,-19.080828,-8.515629
1.394,84.70941,10.00422,66.49883,-5.103672,-18.922222,-7.835641
1.396,85.81983,10.141466,67.82559,-4.6548834,-18.784126,-7.154871
1.398,86.90106,10.549143,69.16038,-4.17687,-18.666185,-6.4729323
1.4,87.97161,11.228767,70.49398,-3.67001,-18.567112,-5.7889285
1.402,89.0309,12.214689,71.826935,-3.1345427,-18.485004,-5.101795
1.404,90.09769,13.530039,73.16205,-2.5706692,-18.41754,-4.4104786
1.406,91.19638,15.200769,74.49102,-1.978469,-18.361757,-3.713808
1.408,92.342964,17.25243,75.7964,-1.3580252,-18.314232,-3.0105572
1.41,93.53328,19.708458,77.04936,-0.7094414,-18.271223,-2.2994618
1.412,94.775764,22.598106,78.23189,-0.03290057,-18.22835,-1.5789318
1.414,96.07302,25.94513,79.33685,0.6711674,-18.180998,-0.8468723
1.416,97.41359,29.768814,80.36896,1.4020603,-18.124342,-0.1004622
1.418,98.75938,34.085552,81.346596,2.1587436,-18.053545,0.6634855
1.42,100.09769,38.91023,82.273254,2.9392679,-17.96456,1.449305
1.422,101.336136,44.306656,83.10594,3.7410073,-17.853865,2.2619274
1.424,102.51108,50.222458,83.92057,4.5609655,-17.71759,3.1062946
1.426,103.7105,56.573845,84.81104,5.3950486,-17.552795,3.9881074
1.428,104.64541,63.40468,85.83501,6.237954,-17.358921,4.912836
1.43,105.51101,70.71616,86.87462,7.082941,-17.136599,5.88634
1.432,106.425934,78.43957,87.9508,7.922202,-16.88616,6.91496
1.434,107.38143,86.53233,89.08997,8.747544,-16.606316,8.005031
1.436,108.17384,94.99862,90.32498,9.551614,-16.293104,9.164321
1.438,108.778984,103.776344,91.69473,10.326854,-15.94121,10.400345
1.44,109.18672,112.81871,93.19516,11.065735,-15.543952,11.718725
1.442,109.391464,122.05554,94.84749,11.761316,-15.09058,13.123228
1.444,109.36696,131.29752,96.86511,12.406819,-14.5655,14.616392
1.446,109.138374,140.47232,99.23717,12.995233,-13.949449,16.198435
1.448,108.70799,149.3766,101.82418,13.521155,-13.21643,17.8664
1.45,108.12515,157.90727,104.56031,13.978128,-12.337101,19.611328
1.452,107.534546,166.21944,107.50957,14.358998,-11.2859535,21.413517
1.454,106.530846,174.2567,110.92755,14.6454525,-10.043742,23.255836
1.456,105.918945,181.41992,114.85672,14.805927,-8.601903,25.1494
1.458,105.40716,187.56337,119.13255,14.832501,-6.9305115,27.119808
1.46,105.108795,192.8632,123.66693,14.743764,-5.0138655,29.124977
1.462,105.01509,197.14923,128.56277,14.545204,-2.8715096,31.109001
1.464,105.32468,200.27542,133.73592,14.214959,-0.51681423,33.061058
1.466,106.08108,202.2413,139.03525,13.734753,2.0226445,34.9906
1.468,107.34668,202.984,144.39745,13.118769,4.7244835,36.889572
1.47,109.19601,202.47705,149.73,12.41415,7.5649853,38.747498
1.472,111.7226,200.77931,154.87817,11.658573,10.420932,40.51349
1.474,114.93294,197.96298,159.66928,10.911938,13.213789,42.13143
1.476,118.80907,194.10728,163.9318,10.265974,15.96922,43.541298
1.478,123.31029,189.32175,167.52908,9.779552,18.700697,44.722767
1.48,128.34111,183.74689,170.28989,9.396655,21.160702,45.536186
1.482,133.81197,177.49194,172.02911,9.18877,23.394062,45.803986
1.484,139.60446,170.71028,172.5914,9.287186,25.477783,45.306076
1.486,145.56726,163.58574,171.85379,9.525308,27.209988,43.92373
1.488,151.55904,156.26404,169.73639,9.708838,28.456207,41.574177
1.49,157.42049,148.89032,166.20212,9.771538,29.213652,38.261795
1.492,162.9823,141.6038,161.27509,9.660816,29.487259,34.066475
1.494,168.08334,134.52449,155.03203,9.304191,29.281204,29.119198
1.496,172.57564,127.74736,147.60599,8.662886,28.608278,23.599648
1.498,176.32607,121.347206,139.18141,7.744158,27.515076,17.71829
1.5,179.22916,115.39791,129.95541,6.5840406,26.07706,11.691361
1.502,181.22423,109.95201,120.15173,5.2303457,24.363632,5.7079077
1.504,182.28136,105.04144,110.01555,3.7270107,22.424717,-0.07920265
1.506,182.39793,100.68702,99.80143,2.0980132,20.289917,-5.54612
1.508,181.61374,96.88605,89.76052,0.35056996,17.96666,-10.596875
1.51,179.98248,93.6551,80.13079,-1.5169817,15.453075,-15.15709
1.512,177.60403,90.96744,71.12139,-3.5328352,12.738841,-19.133175
1.514,174.57727,88.80065,62.913807,-5.72941,9.846708,-22.366375
1.516,171.01239,87.11899,55.6642,-8.087885,6.8428526,-24.728401
1.518,167.03609,85.883835,49.489944,-10.537945,3.8065243,-26.163645
1.52,162.79054,85.05696,44.464714,-12.995021,0.8566437,-26.65343
1.522,158.3947,84.59282,40.59835,-15.37528,-1.87426,-26.207018
1.524,153.9605,84.45143,37.847633,-17.586006,-4.2433605,-24.899519
1.526,149.59416,84.5964,36.125465,-19.501196,-6.060774,-22.848404
1.528,145.39853,84.99182,35.312122,-21.017733,-7.2542815,-20.25005
1.53,141.42233,85.60181,35.2881,-22.0724,-7.859427,-17.349976
1.532,137.75342,86.35275,35.957848,-22.605469,-7.8918524,-14.430922
1.534,134.32794,87.277374,37.111824,-22.551924,-7.2416224,-11.656196
1.536,131.05357,88.39688,38.563614,-22.048418,-6.170646,-9.17427
1.538,128.15399,89.59771,40.195248,-21.25882,-4.8873687,-7.092351
1.54,125.34879,90.82706,42.04396,-20.125437,-3.373574,-5.5521593
1.542,122.52085,92.09099,43.991806,-18.726912,-1.7850373,-4.6050663
1.544,119.69809,93.35376,45.94286,-17.293848,-0.3645892,-4.2539964
1.546,117.04208,94.54324,47.823433,-15.993478,0.74473333,-4.4370985
1.548,114.488014,95.658966,49.5814,-14.9091425,1.4800003,-5.035054
1.55,111.97132,96.68186,51.2219,-14.102778,1.8245201,-5.910328
1.552,109.44133,97.615326,52.73212,-13.614141,1.7785592,-6.923729
1.554,106.88235,98.54988,53.963615,-13.446681,1.3661873,-7.941195
1.556,104.247665,99.439125,55.023636,-13.572044,0.6496067,-8.835324
1.558,101.53578,100.35465,56.08502,-13.937052,-0.28380084,-9.502233
1.56,98.72084,101.25369,57.181854,-14.472918,-1.3397243,-9.875638
1.562,95.732155,101.91411,58.215725,-15.107746,-2.4273884,-9.930418
1.564,92.97365,102.39874,58.969463,-15.778893,-3.4690373,-9.678679
1.566,89.73796,103.187775,59.487183,-16.430393,-4.4065437,-9.162648
1.568,86.51139,104.19339,59.9533,-17.007383,-5.188239,-8.439572
1.57,83.27572,105.10689,60.39308,-17.468203,-5.7738485,-7.5709114
1.572,80.12181,106.03667,60.643227,-17.78724,-6.144128,-6.617059
1.574,76.93927,107.04205,60.735886,-17.953339,-6.2983427,-5.6298075
1.576,73.785446,108.05462,60.720043,-17.967867,-6.2508054,-4.648617
1.578,70.672485,109.098755,60.531128,-17.842802,-6.0281243,-3.703817
1.58,67.58624,110.17351,60.13477,-17.60167,-5.665932,-2.819083
1.582,64.48988,111.224495,59.547577,-17.275534,-5.2075095,-2.009849
1.584,61.416283,112.22493,58.78545,-16.895414,-4.6997128,-1.2838304
1.586,58.38477,113.16939,57.85393,-16.489283,-4.1864767,-0.6447958
1.588,55.40371,114.04481,56.734085,-16.080698,-3.705997,-0.09492147
1.59,52.497482,114.8302,55.45731,-15.688065,-3.289156,0.36513865
1.592,49.65263,115.54523,54.072365,-15.32421,-2.957404,0.73724484
1.594,46.863808,116.17115,52.608032,-14.99593,-2.7213964,1.0270507
1.596,44.137074,116.674225,51.084984,-14.704545,-2.5816886,1.2444437
1.598,41.457245,117.06174,49.514145,-14.446972,-2.5305018,1.402287
1.6,38.824863,117.33235,47.902405,-14.216757,-2.5536923,1.5146756
1.602,36.249973,117.48215,46.243614,-14.0055275,-2.63323,1.5959747
1.604,33.73668,117.51495,44.533577,-13.804421,-2.7493885,1.6597886
1.606,31.290405,117.43599,42.767075,-13.604937,-2.8826854,1.7178321
1.608,28.919945,117.24837,40.937195,-13.399664,-3.0158038,1.7791772
1.61,26.62158,116.947586,39.061813,-13.182908,-3.1348836,1.849797
1.612,24.391245,116.52573,37.158928,-12.951146,-3.2300503,1.9325147
1.614,22.223948,115.98344,35.237034,-12.703062,-3.295576,2.0273244
1.616,20.11571,115.32405,33.302704,-12.439432,-3.3296998,2.1320927
1.618,18.064224,114.55104,31.361568,-12.162828,-3.334318,2.2430701
1.62,16.068588,113.66785,29.416878,-11.877138,-3.314261,2.355387
1.622,14.12849,112.67975,27.469082,-11.587053,-3.2762628,2.463849
1.624,12.246691,111.59705,25.516788,-11.29752,-3.228034,2.563636
1.626,10.42765,110.43405,23.559147,-11.013253,-3.1773286,2.6509755
1.628,8.676926,109.20314,21.597656,-10.738301,-3.1311052,2.7236502
1.63,6.9989605,107.914444,19.63646,-10.475647,-3.0947633,2.7810826
1.632,5.395916,106.57703,17.681168,-10.226996,-3.0718422,2.8240929
1.634,3.8683252,105.19864,15.737133,-9.992759,-3.0637696,2.8545842
1.636,2.4151983,103.78429,13.809309,-9.772072,-3.0697837,2.87528
1.638,1.0337563,102.33735,11.900263,-9.563017,-3.0872114,2.8891943
1.64,-0.2789755,100.85988,10.01092,-9.362911,-3.1118956,2.8993406
1.642,-1.5250845,99.353455,8.140863,-9.168605,-3.1387281,2.90848
1.644,-2.7046518,97.82214,6.2885838,-8.976811,-3.1620476,2.918851
1.646,-3.8161092,96.27155,4.453642,-8.78443,-3.176346,2.9319034
1.648,-4.8569036,94.70707,2.636444,-8.588739,-3.1766276,2.948183
1.65,-5.8249016,93.1332,0.83789444,-8.387491,-3.1585765,2.9674492
1.652,-6.718973,91.55326,-0.9415684,-8.179002,-3.1189632,2.988884
1.654,-7.537923,89.96902,-2.7015,-7.9621725,-3.05586,3.0111563
1.656,-8.281913,88.38178,-4.440707,-7.7363772,-2.968511,3.0326464
1.658,-8.951223,86.79225,-6.158304,-7.501365,-2.857349,3.0516522
1.66,-9.5467,85.20115,-7.8523235,-7.2571588,-2.723896,3.0665338
1.662,-10.069067,83.60913,-9.520562,-7.0039988,-2.5707169,3.0757015
1.664,-10.519732,82.0172,-11.160851,-6.742269,-2.4011965,3.0777357
1.666,-10.900606,80.425674,-12.770416,-6.4724298,-2.2193184,3.0713723
1.668,-11.213786,78.83437,-14.346637,-6.195059,-2.0295029,3.0556414
1.67,-11.462311,77.24369,-15.886042,-5.910796,-1.8364086,3.0298057
1.672,-11.6488905,75.654015,-17.385044,-5.6203804,-1.644787,2.9933615
1.674,-11.776941,74.065796,-18.840096,-5.3246794,-1.4593154,2.9460533
1.676,-11.849865,72.4797,-20.247707,-5.0246434,-1.2843503,2.887938
1.678,-11.871215,70.89626,-21.604637,-4.721341,-1.1238363,2.819385
1.68,-11.845146,69.31631,-22.907568,-4.4159007,-0.9811905,2.7409704
1.682,-11.776186,67.74107,-24.152245,-4.1095133,-0.85925895,2.6534698
1.684,-11.668962,66.17106,-25.335743,-3.803437,-0.7602263,2.5578876
1.686,-11.528494,64.60747,-26.455677,-3.498879,-0.6854386,2.4555128
1.688,-11.359394,63.051594,-27.510109,-3.1969755,-0.635496,2.3477297
1.69,-11.166451,61.50518,-28.49627,-2.8987038,-0.6103034,2.2358696
1.692,-10.953878,59.969955,-29.411934,-2.6047783,-0.60897464,2.1213977
1.694,-10.725851,58.447613,-30.255016,-2.3156538,-0.62985283,2.0058532
1.696,-10.485928,56.940147,-31.023935,-2.0314436,-0.67059124,1.8908412
1.698,-10.237499,55.449955,-31.71729,-1.7518879,-0.7282602,1.778016
1.7,-9.983259,53.979538,-32.33373,-1.4763551,-0.79943645,1.669043
1.702,-9.724848,52.53149,-32.8721,-1.2039,-0.88042897,1.5655348
1.704,-9.463486,51.10862,-33.331818,-0.93335456,-0.9675434,1.4689709
1.706,-9.199625,49.714024,-33.71247,-0.6634301,-1.0573281,1.3806412
1.708,-8.933009,48.351208,-34.013905,-0.39281029,-1.146739,1.3016366
1.71,-8.663264,47.023613,-34.236275,-0.12024646,-1.2332717,1.2327898
1.712,-8.388853,45.734272,-34.380695,0.15537229,-1.3150661,1.174599
1.714,-8.108362,44.48697,-34.44852,0.4349494,-1.3909996,1.1272043
1.716,-7.8200846,43.285206,-34.441406,0.7191573,-1.460625,1.0903122
1.718,-7.5221977,42.131626,-34.360275,1.0084295,-1.5241543,1.0631521
1.72,-7.212989,41.029102,-34.2061,1.302944,-1.5824115,1.0444758
1.722,-6.8912125,39.980556,-33.980083,1.6026034,-1.636752,1.0325768
1.724,-6.5556026,38.98836,-33.683815,1.9070189,-1.688979,1.0253513
1.726,-6.205249,38.054535,-33.31903,2.2154744,-1.7413046,1.0203531
1.728,-5.839386,37.180576,-32.887623,2.5269995,-1.7962246,1.0149424
1.73,-5.4572997,36.367573,-32.39202,2.840352,-1.8564217,1.0063858
1.732,-5.058592,35.615993,-31.834213,3.1540663,-1.9246074,0.992002
1.734,-4.64333,34.925804,-31.215767,3.466494,-2.0034156,0.9693539
1.736,-4.212236,34.296864,-30.538033,3.7758727,-2.0952232,0.9363749
1.738,-3.7657928,33.72859,-29.802668,4.08046,-2.2019718,0.8914695
1.74,-3.3051677,33.219982,-29.011427,4.378604,-2.3250208,0.83358514
1.742,-2.83119,32.769707,-28.166304,4.6688547,-2.465046,0.7622343
1.744,-2.3447795,32.376144,-27.26942,4.9500203,-2.621993,0.67749006
1.746,-1.847021,32.037544,-26.323246,5.221185,-2.7951522,0.5798782
1.748,-1.3396938,31.752346,-25.330175,5.481766,-2.983239,0.47027165
1.75,-0.8240481,31.519522,-24.2926,5.731458,-3.1844857,0.34977353
1.752,-0.30081445,31.336426,-23.213654,5.9702134,-3.3968108,0.21959108
1.754,0.22902322,31.200912,-22.097189,6.198155,-3.618001,0.08095497
1.756,0.7643906,31.11108,-20.947021,6.4155345,-3.8458629,-0.06496167
1.758,1.3043432,31.065186,-19.767506,6.6226845,-4.0782833,-0.21712017
1.76,1.8482904,31.06133,-18.562893,6.8199596,-4.31333,-0.37463313
1.762,2.3960316,31.097757,-17.337639,7.0076876,-4.5493417,-0.53674173
1.764,2.9473197,31.172956,-16.096115,7.1861515,-4.785017,-0.7027525
1.766,3.5020509,31.285225,-14.842728,7.3555393,-5.0193653,-0.8720057
1.768,4.0605803,31.43299,-13.581617,7.5159345,-5.2516575,-1.0438955
1.77,4.6231685,31.614668,-12.3173485,7.6673255,-5.4814396,-1.2178082
1.772,5.1901164,31.828917,-11.054655,7.809635,-5.708386,-1.3931289
1.774,5.7616744,32.07421,-9.798167,7.9427385,-5.932215,-1.569245
1.776,6.3378625,32.349194,-8.552357,8.066525,-6.1525984,-1.7455053
1.778,6.9187737,32.65243,-7.3214645,8.180908,-6.369151,-1.921326
1.78,7.5044036,32.98232,-6.109756,8.285918,-6.581317,-2.0963044
1.782,8.095187,33.33708,-4.920761,8.381649,-6.788328,-2.2700903
1.784,8.691159,33.715023,-3.757516,8.468249,-6.989312,-2.4424129
1.786,9.292216,34.11426,-2.622589,8.545943,-7.183331,-2.613108
1.788,9.898012,34.532913,-1.5182142,8.614967,-7.369419,-2.782166
1.79,10.508213,34.968876,-0.446208,8.675535,-7.5467434,-2.949714
1.792,11.122399,35.420166,0.5918236,8.7277775,-7.714678,-3.115997
1.794,11.740013,35.88487,1.5948305,8.771686,-7.87288,-3.281362
1.796,12.360482,36.36091,2.562086,8.807138,-8.021363,-3.4461823
1.798,12.983258,36.845882,3.4934235,8.833853,-8.1604595,-3.6108341
1.8,13.607483,37.33735,4.3889904,8.851408,-8.290815,-3.7756147
1.802,14.232394,37.832764,5.249243,8.859273,-8.413289,-3.94066
1.804,14.856991,38.329742,6.075062,8.856857,-8.528876,-4.105919
1.806,15.480381,38.825886,6.8675613,8.843557,-8.638561,-4.271118
1.808,16.102057,39.318512,7.6279488,8.818856,-8.743212,-4.435796
1.81,16.72122,39.804993,8.357632,8.782369,-8.843525,-4.599312
1.812,17.337305,40.282944,9.058043,8.733895,-8.93995,-4.7609205
1.814,17.949795,40.749947,9.73048,8.673523,-9.032671,-4.919837
1.816,18.558264,41.203766,10.376081,8.601643,-9.121588,-5.0753155
1.818,19.162445,41.64203,10.99581,8.518931,-9.206322,-5.226712
1.82,19.762161,42.062485,11.590069,8.426392,-9.286307,-5.3734665
1.822,20.357197,42.463066,12.159193,8.325271,-9.360811,-5.5151057
1.824,20.947453,42.841866,12.702995,8.217016,-9.429019,-5.651271
1.826,21.532661,43.196976,13.221144,8.103172,-9.490101,-5.7816896
1.828,22.112492,43.52656,13.712703,7.985322,-9.543298,-5.90616
1.83,22.686571,43.829094,14.17674,7.8649454,-9.58803,-6.024583
1.832,23.25459,44.10306,14.611765,7.7433643,-9.623873,-6.136839
1.834,23.815851,44.34726,15.016598,7.621642,-9.650682,-6.2428217
1.836,24.369715,44.560715,15.389781,7.5004992,-9.668631,-6.342627
1.838,24.915134,44.742447,15.729937,7.3803396,-9.678152,-6.4364886
1.84,25.45073,44.89199,16.036076,7.26116,-9.679987,-6.5247803
1.842,25.974792,45.009186,16.307331,7.142549,-9.675232,-6.6079903
1.844,26.485504,45.093956,16.54297,7.0238056,-9.665168,-6.6867
1.846,26.980877,45.146336,16.742867,6.903964,-9.651227,-6.761535
1.848,27.458572,45.166584,16.90738,6.7818413,-9.634914,-6.83319
1.85,27.916172,45.155045,17.037374,6.65613,-9.617681,-6.902323
1.852,28.350903,45.11253,17.13405,6.5255227,-9.600835,-6.96951
1.854,28.759945,45.03987,17.199064,6.3887844,-9.585406,-7.035199
1.856,29.140396,44.938114,17.234533,6.244851,-9.572062,-7.0996375
1.858,29.489897,44.808014,17.242687,6.0929227,-9.560985,-7.1628737
1.86,29.805676,44.65,17.226013,5.9324903,-9.551896,-7.224743
1.862,30.08456,44.46608,17.187328,5.7633877,-9.543919,-7.2848263
1.864,30.324097,44.257545,17.129572,5.5858135,-9.535646,-7.3425274
1.866,30.52212,44.02558,17.055296,5.4003353,-9.525138,-7.3970404
1.868,30.676535,43.77122,16.967308,5.2078266,-9.5100155,-7.447397
1.87,30.785603,43.49575,16.868008,5.0094776,-9.487526,-7.4924984
1.872,30.868124,43.268116,16.801653,4.806726,-9.45467,-7.5311527
1.874,30.889141,42.974182,16.699593,4.6011944,-9.408372,-7.5621386
1.876,30.863785,42.667404,16.595875,4.3946295,-9.345587,-7.5842485
1.878,30.792252,42.349545,16.492662,4.188817,-9.263456,-7.5963383
1.88,30.675453,42.022644,16.3919,3.9855278,-9.1594305,-7.5973387
1.882,30.514576,41.688587,16.29536,3.786449,-9.031392,-7.586358
1.884,30.311405,41.349174,16.204575,3.5931573,-8.87771,-7.562687
1.886,30.068512,41.006054,16.120712,3.4070487,-8.697341,-7.5258455
1.888,29.788326,40.660843,16.044645,3.2293205,-8.489844,-7.4755583
1.89,29.473969,40.314606,15.97695,3.0609655,-8.255314,-7.411754
1.892,29.128614,39.96851,15.917667,2.9028044,-7.994365,-7.334571
1.894,28.75583,39.622875,15.866598,2.7554975,-7.708024,-7.2443004
1.896,28.359514,39.278008,15.823071,2.6195645,-7.397664,-7.1414037
1.898,27.943058,38.93357,15.785761,2.4954414,-7.064888,-7.0264463
1.9,27.510273,38.588745,15.753036,2.383479,-6.7114906,-6.9001026
1.902,27.064655,38.24226,15.722851,2.2840724,-6.3393226,-6.7631207
1.904,26.609661,37.892067,15.692678,2.1975923,-5.950261,-6.616345
1.906,26.148481,37.536053,15.659454,2.1244,-5.546206,-6.460704
1.908,25.684042,37.17159,15.619956,2.0648503,-5.1290417,-6.2972503
1.91,25.219183,36.79599,15.570522,2.0192316,-4.700678,-6.12713
1.912,24.756409,36.406326,15.507338,1.9877476,-4.2630906,-5.9515715
1.914,24.297928,35.999588,15.426422,1.9705147,-3.818319,-5.77191
1.916,23.84565,35.572704,15.324073,1.9675192,-3.3685594,-5.5895367
1.918,23.400951,35.123135,15.196856,1.9785695,-2.9161692,-5.405884
1.92,22.965149,34.648846,15.041534,2.0032861,-2.4636896,-5.222403
1.922,22.539484,34.148056,14.855575,2.0411038,-2.0138407,-5.0405607
1.924,22.12487,33.6201,14.636835,2.0912423,-1.5694609,-4.8617783
1.926,21.72232,33.064804,14.38401,2.152752,-1.1334391,-4.6873984
1.928,21.332792,32.48311,14.096552,2.22449,-0.70860815,-4.5186634
1.93,20.956827,31.876675,13.774874,2.3052115,-0.29766402,-4.356651
1.932,20.595371,31.247921,13.419899,2.39358,0.09694883,-4.202272
1.934,20.24912,30.599846,13.033534,2.4881935,0.47308022,-4.056242
1.936,19.918333,29.936522,12.618257,2.5876446,0.828936,-3.9190755
1.938,19.60404,29.261992,12.177197,2.6905534,1.1631596,-3.791065
1.94,19.306358,28.58093,11.713869,2.795608,1.4748194,-3.6722949
1.942,19.026045,27.897997,11.232157,2.9015672,1.7633588,-3.5626624
1.944,18.763311,27.218,10.735842,3.0072627,2.0285573,-3.461959
1.946,18.518147,26.545664,10.229085,3.1116033,2.2704697,-3.3699086
1.948,18.290846,25.885265,9.715915,3.2135763,2.4894118,-3.286115
1.95,18.08141,25.24086,9.200001,3.312248,2.685853,-3.210206
1.952,17.889456,24.615768,8.684829,3.4067593,2.860352,-3.1417813
1.954,17.714643,24.012892,8.173587,3.4963517,3.0135558,-3.0804086
1.956,17.55627,23.43458,7.6688213,3.5803912,3.146143,-3.025655
1.958,17.413591,22.882439,7.1729755,3.6583772,3.2587967,-2.977035
1.96,17.28601,22.357765,6.687946,3.729919,3.3521829,-2.93409
1.962,17.172764,21.861004,6.2151814,3.7947564,3.4268923,-2.896331
1.964,17.07279,21.392258,5.7559104,3.8527694,3.4834573,-2.8632538
1.966,16.984705,20.951332,5.310874,3.9039738,3.5224247,-2.834391
1.968,16.907623,20.537403,4.8806562,3.9484787,3.5442672,-2.8092837
1.97,16.840157,20.149645,4.465484,3.9864411,3.549434,-2.7875102
1.972,16.781227,19.786701,4.065324,4.018087,3.5383441,-2.7687402
1.974,16.729809,19.447235,3.6802797,4.0436497,3.511423,-2.7527132
1.976,16.684507,19.129726,3.3102465,4.0633574,3.469125,-2.7392595
1.978,16.644363,18.832668,2.9550138,4.0774016,3.4119194,-2.728306
1.98,16.608267,18.554346,2.6144924,4.0858808,3.3403172,-2.7198727
1.982,16.559753,18.241598,2.2567346,4.0888367,3.2549114,-2.7140467
1.984,16.532032,18.008797,1.9527359,4.086238,3.1563344,-2.7109895
1.986,16.504412,17.787048,1.6610014,4.0780063,3.0452747,-2.7108517
1.988,16.476,17.575539,1.3816962,4.064049,2.922506,-2.713766
1.99,16.446064,17.373224,1.1149461,4.044259,2.7888184,-2.7198112
1.992,16.414146,17.17905,0.86088395,4.0185432,2.6449738,-2.72905
1.994,16.379543,16.991999,0.6196706,3.986855,2.491732,-2.7414794
1.996,16.341593,16.811047,0.39139795,3.9492083,2.329837,-2.7570512
1.998,16.300026,16.63496,0.1761539,3.905706,2.1600447,-2.7756238
2,16.254473,16.46267,-0.026065826,3.85651,1.9831008,-2.7969954
2.002,16.204632,16.292889,-0.21513343,3.8018718,1.7997291,-2.8209913
2.004,16.15019,16.124632,-0.3910718,3.7421227,1.6107048,-2.8473637
2.006,16.090916,15.956594,-0.55391216,3.677662,1.4168429,-2.8758793
2.008,16.02693,15.787802,-0.7036543,3.6089416,1.2189775,-2.9062934
2.01,15.957862,15.617225,-0.8404901,3.5364232,1.0179708,-2.9383328
2.012,15.883884,15.44396,-0.9646554,3.4605873,0.8146925,-2.971762
2.014,15.804982,15.267109,-1.076499,3.3819113,0.6099851,-3.0062997
2.016,15.721496,15.085759,-1.1763854,3.3008409,0.40467173,-3.0417037
2.018,15.633333,14.899277,-1.2649355,3.217735,0.1994941,-3.0777621
2.02,15.5406,14.7071295,-1.3426979,3.132888,-0.004924327,-3.1142707
2.022,15.443333,14.508705,-1.4103596,3.0465224,-0.20800184,-3.1511016
2.024,15.341641,14.303643,-1.4685593,2.958839,-0.4092083,-3.1881394
2.026,15.235722,14.091753,-1.5181799,2.8699613,-0.6080528,-3.2252586
2.028,15.125719,13.872917,-1.560163,2.7799964,-0.8041163,-3.2623835
2.03,15.011723,13.647055,-1.5952079,2.6890075,-0.9970103,-3.2994301
2.032,14.893403,13.414461,-1.6242824,2.5970597,-1.1863608,-3.336329
2.034,14.770954,13.175209,-1.6481795,2.5042582,-1.3718035,-3.3730354
2.036,14.644366,12.929806,-1.6678066,2.4106958,-1.5529822,-3.40949
2.038,14.513492,12.67853,-1.684016,2.3164866,-1.7295115,-3.4456213
2.04,14.378481,12.422159,-1.6976061,2.2217686,-1.9009874,-3.48141
2.042,14.239109,12.161405,-1.7092197,2.1267197,-2.0670037,-3.5168316
2.044,14.095551,11.897107,-1.7196288,2.0315435,-2.2271218,-3.5518503
2.046,13.948186,11.629875,-1.72932,1.9364885,-2.3809147,-3.5863857
2.048,13.796593,11.360851,-1.7388564,1.8417944,-2.5279593,-3.6203227
2.05,13.641148,11.090768,-1.7487268,1.7477052,-2.667878,-3.6535316
2.052,13.481945,10.820668,-1.7592639,1.6544702,-2.8003626,-3.6858523
2.054,13.319282,10.551391,-1.7707739,1.5623121,-2.9251642,-3.7171135
2.056,13.153502,10.284113,-1.783577,1.4714239,-3.0420964,-3.7471073
2.058,12.985096,10.019779,-1.7979733,1.381969,-3.1510425,-3.7756262
2.06,12.814419,9.75932,-1.8140752,1.294059,-3.2519767,-3.8024542
2.062,12.6422615,9.503788,-1.8321872,1.2077909,-3.3449097,-3.8273797
2.064,12.469086,9.254098,-1.8522482,1.1232309,-3.429906,-3.8502278
2.066,12.295638,9.011046,-1.8743572,1.040446,-3.5070553,-3.8708482
2.068,12.122551,8.775457,-1.8985091,0.9594968,-3.576499,-3.8891275
2.07,11.950404,8.547929,-1.9248381,0.88045,-3.6383934,-3.9049742
2.072,11.779731,8.329165,-1.9532344,0.8033836,-3.6929348,-3.9183502
2.074,11.611349,8.119769,-1.9835478,0.72839534,-3.7403402,-3.9292471
2.076,11.446097,7.920106,-2.0156565,0.6556035,-3.780838,-3.9376726
2.078,11.284529,7.730595,-2.049477,0.58512425,-3.8146763,-3.9436967
2.08,11.1273,7.5514927,-2.0849133,0.5170872,-3.842122,-3.947405
2.082,10.975136,7.382944,-2.121685,0.45162547,-3.8634145,-3.948865
2.084,10.82857,7.225055,-2.1596735,0.3888737,-3.8787918,-3.9481595
2.086,10.688395,7.077784,-2.1987581,0.3289585,-3.8884702,-3.9453595
2.088,10.554982,6.9410005,-2.2386935,0.27200973,-3.8926344,-3.9405246
2.09,10.428943,6.814456,-2.279536,0.21814919,-3.8914318,-3.9337206
2.092,10.310796,6.697899,-2.3212075,0.16748261,-3.8849883,-3.9250114
2.094,10.20081,6.59087,-2.3636072,0.12010217,-3.8733964,-3.9144433
2.096,10.099292,6.4930234,-2.4068449,0.07607198,-3.8567057,-3.9020662
2.098,10.006571,6.4037547,-2.4509187,0.035441518,-3.834981,-3.8879306
2.1,9.922818,6.3225684,-2.495911,-0.0017874241,-3.8082771,-3.8720987
2.102,9.848055,6.248797,-2.541852,-0.035639882,-3.7767115,-3.8546586
2.104,9.782459,6.1818027,-2.5889199,-0.06619674,-3.7404575,-3.8356953
2.106,9.725808,6.120899,-2.637147,-0.09360373,-3.6997547,-3.8153257
2.108,9.677937,6.06542,-2.686532,-0.11805463,-3.6549432,-3.793683
2.11,9.638684,6.0147257,-2.7372613,-0.13980037,-3.6064632,-3.7709374
2.112,9.607675,5.96815,-2.7894661,-0.15912521,-3.5548198,-3.7472818
2.114,9.584642,5.9248805,-2.8432755,-0.17632496,-3.5005782,-3.7229393
2.116,9.568908,5.884347,-2.8988976,-0.19170606,-3.444346,-3.6981425
2.118,9.559991,5.845719,-2.956382,-0.20557398,-3.3867278,-3.6731122
2.12,9.557275,5.808451,-3.0158086,-0.21820736,-3.3282971,-3.6480398
2.122,9.559947,5.7717004,-3.0771365,-0.22984862,-3.269568,-3.6231165
2.124,9.567293,5.7349787,-3.1404672,-0.24069446,-3.2110116,-3.5984845
2.126,9.578194,5.697731,-3.205826,-0.25089532,-3.1529732,-3.5742319
2.128,9.591811,5.6594324,-3.273184,-0.2605614,-3.0957198,-3.550424
2.13,9.607252,5.6194954,-3.34245,-0.2697369,-3.0394154,-3.5271
2.132,9.623595,5.577587,-3.4135737,-0.2784233,-2.9841228,-3.5042386
2.134,9.639723,5.5332727,-3.486656,-0.2865939,-2.929798,-3.4818265
2.136,9.654689,5.48636,-3.5615878,-0.29418266,-2.8763208,-3.459829
2.138,9.667363,5.4367094,-3.6382985,-0.30109984,-2.8234797,-3.4381762
2.14,9.677006,5.384108,-3.7167068,-0.3072384,-2.7710242,-3.4167883
2.142,9.682727,5.3285346,-3.7968938,-0.31249666,-2.7186756,-3.3955677
2.144,9.683734,5.269913,-3.8788364,-0.31675744,-2.6661277,-3.3744094
2.146,9.67941,5.208165,-3.962501,-0.3199227,-2.6130867,-3.3531897
2.148,9.668994,5.143575,-4.047839,-0.3219096,-2.5592756,-3.3317883
2.15,9.651975,5.0760527,-4.134944,-0.32264555,-2.5044699,-3.3100557
2.152,9.628121,5.0057745,-4.223775,-0.32208228,-2.4484797,-3.2878432
2.154,9.597153,4.933013,-4.3143454,-0.320197,-2.3911765,-3.26498
2.156,9.558818,4.8580523,-4.4065967,-0.3170035,-2.332508,-3.2412777
2.158,9.513298,4.781225,-4.5004797,-0.3125286,-2.272486,-3.216518
2.16,9.460798,4.7028246,-4.5958176,-0.30682153,-2.211206,-3.190473
2.162,9.401331,4.6231728,-4.6924214,-0.2999406,-2.14883,-3.1629288
2.164,9.335373,4.5425987,-4.7901535,-0.29197234,-2.085569,-3.1336677
2.166,9.263544,4.4611864,-4.888967,-0.28300205,-2.0216637,-3.1024983
2.168,9.186325,4.3794146,-4.988609,-0.27312076,-1.9573665,-3.069247
2.17,9.10445,4.2974706,-5.088954,-0.2624248,-1.8929282,-3.0337813
2.172,9.018567,4.2156763,-5.189797,-0.25098613,-1.8285296,-2.9959867
2.174,8.929569,4.1341915,-5.2911215,-0.238884,-1.7643148,-2.9557683
2.176,8.838266,4.0532293,-5.3927016,-0.22618434,-1.7003582,-2.913041
2.178,8.745531,3.9728727,-5.494432,-0.21293801,-1.6366832,-2.8677678
2.18,8.652069,3.893329,-5.596125,-0.19918686,-1.573273,-2.8199475
2.182,8.558738,3.8145685,-5.6976113,-0.18497267,-1.5100896,-2.7696052
2.184,8.466398,3.7365787,-5.799053,-0.17032751,-1.447074,-2.7168279
2.186,8.375738,3.6593366,-5.9002504,-0.15526769,-1.3842117,-2.661795
2.188,8.287316,3.5828938,-6.0013456,-0.13980013,-1.3215345,-2.6047704
2.19,8.201875,3.5071344,-6.102298,-0.12391323,-1.2591248,-2.5461125
2.192,8.119921,3.4320781,-6.2032695,-0.10757902,-1.1971217,-2.4862268
2.194,8.041864,3.3575735,-6.3043485,-0.09077051,-1.1357203,-2.4255328
2.196,7.968172,3.2836003,-6.4054976,-0.0734348,-1.0751913,-2.36445
2.198,7.899135,3.2099745,-6.5069036,-0.055509046,-1.0158622,-2.303338
2.2,7.8348494,3.136626,-6.6084266,-0.03693743,-0.95809305,-2.2425146
2.202,7.7753963,3.0635183,-6.7101054,-0.017671928,-0.90227354,-2.1822107
2.204,7.7209983,2.9905317,-6.8120003,0.0023040324,-0.8488138,-2.122594
2.206,7.67152,2.9174912,-6.9139714,0.02298832,-0.7981388,-2.0637386
2.208,7.6267986,2.8444948,-7.015951,0.04435301,-0.7506488,-2.005681
2.21,7.5866437,2.7714305,-7.117769,0.066319674,-0.7067305,-1.9484121
2.212,7.550857,2.6984007,-7.21925,0.08876598,-0.66674167,-1.8919147
2.214,7.519046,2.625442,-7.320113,0.11152245,-0.63100165,-1.8361478
2.216,7.491028,2.5525157,-7.420133,0.13439563,-0.59979486,-1.7810677
2.218,7.4661074,2.4797726,-7.5189886,0.15717202,-0.5733593,-1.7266392
2.22,7.443925,2.4071646,-7.6161103,0.17962639,-0.55188966,-1.6728094
2.222,7.423806,2.3347943,-7.711216,0.20154852,-0.53550214,-1.6195471
2.224,7.405367,2.2628293,-7.803839,0.22275364,-0.52424943,-1.5668092
2.226,7.3879347,2.1912782,-7.8934865,0.24308202,-0.51813585,-1.514565
2.228,7.3710194,2.1204143,-7.97994,0.262438,-0.51704454,-1.4627854
2.23,7.353919,2.0502937,-8.062827,0.28077024,-0.5207908,-1.4114273
2.232,7.3358374,1.9813712,-8.14188,0.29808664,-0.52909106,-1.3604156
2.234,7.3161974,1.9136829,-8.216799,0.31445935,-0.5416038,-1.3096509
2.236,7.2944264,1.8475752,-8.287477,0.3300007,-0.5579118,-1.2590245
2.238,7.269923,1.7832484,-8.353696,0.34487292,-0.5775577,-1.2083976
2.24,7.242035,1.7210107,-8.415407,0.3592711,-0.6000662,-1.1576184
2.242,7.2099776,1.6608946,-8.4725275,0.37339932,-0.6249531,-1.1065153
2.244,7.1734524,1.6032307,-8.525094,0.3874511,-0.6517585,-1.0549321
2.246,7.1316977,1.5482707,-8.573178,0.40162125,-0.6800537,-1.0027472
2.248,7.084414,1.4961524,-8.616972,0.4160838,-0.7094513,-0.949889
2.25,7.030957,1.4471395,-8.6567,0.43098423,-0.73959017,-0.8963051
2.252,6.971082,1.4013193,-8.692499,0.44645372,-0.77016664,-0.8419761
2.254,6.904334,1.3590417,-8.724648,0.46259016,-0.80092657,-0.7868948
2.256,6.830377,1.3204052,-8.753564,0.4794653,-0.83164716,-0.73106325
2.258,6.7491508,1.2854683,-8.779643,0.4971479,-0.862147,-0.6744969
2.26,6.660366,1.2543311,-8.803168,0.5156759,-0.8922709,-0.61722827
2.262,6.5639067,1.2271059,-8.82457,0.5350764,-0.9219065,-0.5592936
2.264,6.4594812,1.2037768,-8.844332,0.55537605,-0.9509387,-0.50071245
2.266,6.3472047,1.1843414,-8.862817,0.57658184,-0.9792963,-0.4414969
2.268,6.2266273,1.168842,-8.8804655,0.5986868,-1.0069153,-0.38164917
2.27,6.097739,1.1574644,-8.897628,0.62164855,-1.033738,-0.3211516
2.272,5.960552,1.150337,-8.914648,0.6453996,-1.0597589,-0.2599517
2.274,5.815127,1.147583,-8.9316025,0.6698222,-1.0850096,-0.1979995
2.276,5.6615076,1.1493139,-8.94857,0.6947528,-1.1095872,-0.13523212
2.278,5.49986,1.1554619,-8.965759,0.7199929,-1.1336462,-0.07159379
2.28,5.3303137,1.1661632,-8.983048,0.7453197,-1.1574032,-0.0070614964
2.282,5.153251,1.1814101,-9.000233,0.77049226,-1.1811216,0.058338996
2.284,4.969159,1.2012714,-9.017071,0.7952804,-1.2051055,0.1245248
2.286,4.778657,1.2262738,-9.033464,0.81948066,-1.229682,0.19133285
2.288,4.581402,1.2557702,-9.049108,0.84294367,-1.2551357,0.25855288
2.29,4.377173,1.2892973,-9.063628,0.8655931,-1.2817008,0.3259315
2.292,4.1665635,1.3271147,-9.076556,0.8874163,-1.3095332,0.3932044
2.294,3.9501722,1.3695003,-9.087353,0.9084793,-1.3386674,0.460122
2.296,3.7284102,1.4165367,-9.095737,0.92892545,-1.3690083,0.5264545
2.298,3.5018418,1.4681065,-9.101049,0.9489554,-1.4003325,0.59204966
2.3,3.2707248,1.5240316,-9.102982,0.9688112,-1.4323301,0.6567919
2.302,3.0358303,1.5841596,-9.101371,0.9887667,-1.4645774,0.7206157
2.304,2.7979927,1.6482382,-9.096078,1.0090752,-1.4965763,0.78349346
2.306,2.5578928,1.7159059,-9.087064,1.0299621,-1.5278236,0.8454004
2.308,2.3165433,1.786767,-9.07438,1.0516086,-1.5578622,0.90631115
2.31,2.0749154,1.8604515,-9.058231,1.0741168,-1.5863258,0.9661466
2.312,1.8339444,1.9362931,-9.038878,1.0974978,-1.612953,1.0247691
2.314,1.5945606,2.0137835,-9.016648,1.1217129,-1.6375991,1.0820069
2.316,1.3580434,2.0922487,-8.991871,1.1466331,-1.6603143,1.13758
2.318,1.1255184,2.170806,-8.964929,1.1719987,-1.6813865,1.1909707
2.32,0.8981339,2.248605,-8.936215,1.1975042,-1.7011695,1.2416358
2.322,0.6768175,2.3248606,-8.906154,1.222802,-1.7200756,1.2891439
2.324,0.46243376,2.3988187,-8.874985,1.2475119,-1.738619,1.3331025
2.326,0.25578678,2.4697812,-8.842895,1.2712916,-1.757298,1.3731453
2.328,0.057627916,2.5372088,-8.810075,1.2938468,-1.7764874,1.4091195
2.33,-0.13163233,2.6007795,-8.776533,1.3149588,-1.7963793,1.44115
2.332,-0.31170094,2.6602829,-8.742148,1.3345097,-1.8169777,1.4696591
2.334,-0.48260665,2.7155848,-8.706996,1.3524554,-1.8381095,1.4953662
2.336,-0.64411175,2.7669425,-8.670559,1.368887,-1.8594574,1.5192199
2.338,-0.7965221,2.8145607,-8.632489,1.3840239,-1.8805583,1.5423257
2.34,-0.9399835,2.8588483,-8.592413,1.3981643,-1.9008971,1.5658036
2.342,-1.0748376,2.900406,-8.5498495,1.4116724,-1.9199929,1.5906669
2.344,-1.2016954,2.9400783,-8.504243,1.4249687,-1.9374256,1.6176907
2.346,-1.3211961,2.9785075,-8.455001,1.4384711,-1.9528834,1.6473188
2.348,-1.4339502,3.016831,-8.401843,1.4525466,-1.966196,1.6796272
2.35,-1.5409179,3.0559933,-8.34434,1.467486,-1.977344,1.7143083
2.352,-1.6425296,3.0970974,-8.282153,1.4834753,-1.9864554,1.7506768
2.354,-1.7393017,3.1407151,-8.214946,1.5005894,-1.99376,1.7877959
2.356,-1.8319967,3.1874967,-8.142542,1.5187695,-1.9995813,1.8245686
2.358,-1.9211192,3.2380166,-8.064953,1.5378782,-2.0043125,1.8598179
2.36,-2.0071623,3.2928329,-7.9821134,1.5576984,-2.0083494,1.892414
2.362,-2.0907078,3.3522544,-7.8941255,1.5779881,-2.0120656,1.9213552
2.364,-2.1721542,3.4163926,-7.8011613,1.5984948,-2.015813,1.9458805
2.366,-2.2518616,3.4853973,-7.70341,1.618995,-2.019916,1.9654726
2.368,-2.3300848,3.559114,-7.6012244,1.6392723,-2.0246692,1.9798812
2.37,-2.406955,3.637392,-7.4949975,1.6591846,-2.0302727,1.9891988
2.372,-2.4827414,3.7198913,-7.3853526,1.6786757,-2.0368428,1.9938667
2.374,-2.5572925,3.8061767,-7.2726436,1.6976902,-2.0445364,1.9944527
2.376,-2.6307614,3.8958318,-7.1574807,1.7161876,-2.053514,1.9916127
2.378,-2.7029905,3.9881997,-7.0402627,1.7341756,-2.063836,1.9861696
2.38,-2.7741134,4.082737,-6.9214945,1.7516532,-2.0755358,1.9790324
2.382,-2.8442326,4.1789083,-6.8016768,1.7686195,-2.0887098,1.9710109
2.384,-2.9133317,4.2761436,-6.6810985,1.7850952,-2.1034944,1.9627868
2.386,-2.981419,4.3740416,-6.5600495,1.801096,-2.120048,1.9548403
2.388,-3.0485153,4.472293,-6.4385552,1.8166676,-2.1385477,1.9474968
2.39,-3.1144557,4.5703936,-6.3166947,1.8318479,-2.1591957,1.9408907
2.392,-3.179298,4.6680765,-6.1945424,1.8466649,-2.1822453,1.9349524
2.394,-3.2432203,4.765072,-6.072091,1.8611805,-2.2079706,1.9294524
2.396,-3.3064175,4.860574,-5.9489455,1.875437,-2.2366266,1.9239928
2.398,-3.368454,4.955181,-5.8247414,1.8894653,-2.2684689,1.9181131
2.4,-3.4290867,5.0488715,-5.699083,1.9033062,-2.303712,1.9112941
2.402,-3.48912,5.1411257,-5.5714955,1.9169972,-2.342525,1.9030392
2.404,-3.5489924,5.231343,-5.441395,1.9305627,-2.3849988,1.8929487
2.406,-3.6088896,5.3193827,-5.3082557,1.9440409,-2.4310858,1.8807553
2.408,-3.669324,5.4050603,-5.1716537,1.9574696,-2.480604,1.8663511
2.41,-3.730629,5.4884977,-5.0310836,1.9708986,-2.5332332,1.8497939
2.412,-3.7936993,5.5696373,-4.885971,1.984383,-2.5884862,1.8313091
2.414,-3.8590727,5.648661,-4.7358365,1.9979857,-2.6457253,1.8112582
2.416,-3.9274652,5.725558,-4.5804,2.0117595,-2.7041764,1.790081
2.418,-3.9995515,5.8005667,-4.419488,2.0257661,-2.7629523,1.7682283
2.42,-4.0760694,5.8736467,-4.2530513,2.040041,-2.8210955,1.7461323
2.422,-4.1576066,5.9451427,-4.081052,2.0546296,-2.8776174,1.7241676
2.424,-4.2449465,6.0151167,-3.903687,2.069556,-2.9315517,1.7026087
2.426,-4.338934,6.083894,-3.7213533,2.0848382,-2.981991,1.6816298
2.428,-4.4402456,6.151732,-3.5343914,2.1004834,-3.02815,1.6613009
2.43,-4.5494943,6.218836,-3.3434248,2.1164863,-3.0693614,1.6416236
2.432,-4.667123,6.2853622,-3.1487846,2.1328187,-3.1050954,1.6225545
2.434,-4.793416,6.3512297,-2.951201,2.1494274,-3.134993,1.6040385
2.436,-4.9284906,6.4164305,-2.751244,2.1662555,-3.1588085,1.5860114
2.438,-5.0725207,6.4808083,-2.5494115,2.1831923,-3.1764014,1.5684234
2.44,-5.2256036,6.544119,-2.3463764,2.200119,-3.1877847,1.5512651
2.442,-5.3875866,6.606214,-2.1426492,2.216877,-3.1931078,1.5345515
2.444,-5.558376,6.666969,-1.9384863,2.2332783,-3.1926398,1.5183454
2.446,-5.737605,6.726136,-1.7345788,2.2491195,-3.1867623,1.5027386
2.448,-5.9246645,6.783346,-1.531239,2.2641857,-3.1759415,1.4878557
2.45,-6.119024,6.8383493,-1.3288196,2.278266,-3.1607356,1.4738458
2.452,-6.3200135,6.890803,-1.1277075,2.2911417,-3.1417172,1.4608445
2.454,-6.52684,6.940395,-0.9281946,2.302602,-3.1194525,1.448978
2.456,-6.738546,6.9867606,-0.7306263,2.3124633,-3.094475,1.4383683
2.458,-6.954169,7.029534,-0.53512317,2.3205898,-3.0672572,1.4290947
2.46,-7.1726947,7.068445,-0.3420062,2.3268654,-3.0381975,1.421253
2.462,-7.3931923,7.10321,-0.15167367,2.331247,-3.007612,1.4148973
2.464,-7.614779,7.1337237,0.035589755,2.3337433,-2.9757462,1.4100815
2.466,-7.8358264,7.159669,0.21929497,2.334415,-2.9427881,1.4068319
2.468,-8.055272,7.180751,0.39917713,2.3333719,-2.9088862,1.4051522
2.47,-8.272153,7.196735,0.57471067,2.3307698,-2.8741527,1.40503
2.472,-8.485273,7.2074,0.74545026,2.3267806,-2.8387024,1.4064279
2.474,-8.693846,7.212597,0.9109681,2.3216188,-2.802638,1.4092592
2.476,-8.897036,7.212206,1.070941,2.3154762,-2.766095,1.4134088
2.478,-9.094205,7.2061596,1.2251961,2.3085268,-2.7292223,1.4187301
2.48,-9.285007,7.1945353,1.3734442,2.3009174,-2.6922195,1.4250782
2.482,-9.468998,7.1774216,1.5158465,2.2927523,-2.655314,1.4323032
2.484,-9.646184,7.155013,1.6521964,2.2840638,-2.6187901,1.440248
2.486,-9.816576,7.127539,1.7827357,2.274828,-2.5829911,1.448776
2.488,-9.980448,7.095429,1.9077828,2.2649522,-2.5482922,1.4577423
2.49,-10.1380005,7.059027,2.0277343,2.2542868,-2.5150902,1.4669878
2.492,-10.289814,7.018861,2.1431377,2.2426467,-2.4837556,1.4763148
2.494,-10.436381,6.9754405,2.2544575,2.2298222,-2.4545891,1.4854841
2.496,-10.578324,6.929348,2.3624043,2.215592,-2.4278252,1.4942325
2.498,-10.716415,6.881139,2.4675353,2.1997519,-2.403634,1.5022497
2.5,-10.851338,6.831632,2.5705004,2.182138,-2.3820677,1.5092158
2.502,-10.983686,6.7814016,2.672081,2.1626606,-2.3630638,1.5148052
2.504,-11.114096,6.7310534,2.7729728,2.1413066,-2.3464167,1.5187178
2.506,-11.243032,6.6812134,2.8737621,2.118138,-2.3318033,1.5206964
2.508,-11.370724,6.6322923,2.9747682,2.0932999,-2.3187945,1.520583
2.51,-11.49769,6.5846996,3.0763838,2.0670023,-2.306854,1.5183281
2.512,-11.62414,6.538868,3.1786754,2.0394988,-2.295373,1.514009
2.514,-11.75043,6.4952946,3.281629,2.011095,-2.2836857,1.5078014
2.516,-11.876574,6.4541426,3.3851566,1.9820995,-2.271097,1.4999833
2.518,-12.002451,6.4157457,3.4888248,1.9528414,-2.2568882,1.4908993
2.52,-12.127826,6.380048,3.592214,1.9236281,-2.2403636,1.4809142
2.522,-12.252323,6.347126,3.6944985,1.8947461,-2.2208786,1.4704124
2.524,-12.375608,6.316705,3.7946463,1.8664508,-2.197885,1.459737
2.526,-12.497253,6.288847,3.891852,1.8389416,-2.1709259,1.4491799
2.528,-12.616689,6.263113,3.9852233,1.8123543,-2.1396782,1.4389901
2.53,-12.733363,6.239394,4.073682,1.7867813,-2.103961,1.429314
2.532,-12.846715,6.2171345,4.156246,1.7622612,-2.0637405,1.4202296
2.534,-12.956123,6.196146,4.2321277,1.7387646,-2.019138,1.4117429
2.536,-13.061033,6.175858,4.3005323,1.716223,-1.9704074,1.4038222
2.538,-13.160887,6.155904,4.3607993,1.6945317,-1.9179348,1.396409
2.54,-13.255266,6.1358876,4.412558,1.6735344,-1.8622249,1.3894256
2.542,-13.343676,6.115392,4.4553757,1.6530504,-1.8038731,1.382797
2.544,-13.425959,6.094195,4.489189,1.6328778,-1.7435471,1.3764094
2.546,-13.501814,6.071918,4.5140424,1.6128029,-1.6819829,1.3701297
2.548,-13.571056,6.0482144,4.5301743,1.592605,-1.6199298,1.3637954
2.55,-13.6334915,6.022868,4.5379095,1.572089,-1.5581281,1.3572141
2.552,-13.689136,5.995506,4.537813,1.5510794,-1.4972702,1.3502018
2.554,-13.737798,5.965887,4.530436,1.5294229,-1.438015,1.3426076
2.556,-13.779808,5.933759,4.516513,1.5070124,-1.380917,1.3343151
2.558,-13.815201,5.899078,4.4966445,1.4837818,-1.3264139,1.325285
2.56,-13.844196,5.8619,4.471481,1.4597318,-1.2748001,1.315556
2.562,-13.867006,5.8220463,4.4418154,1.4349194,-1.2262056,1.3052229
2.564,-13.883751,5.7794294,4.408131,1.4094486,-1.1806085,1.2944434
2.566,-13.894748,5.7341633,4.370965,1.3834846,-1.1378629,1.2834257
2.568,-13.900351,5.686138,4.330716,1.3572261,-1.097718,1.2723955
2.57,-13.900759,5.635396,4.287776,1.330899,-1.0598733,1.2615795
2.572,-13.896629,5.58215,4.242323,1.30474,-1.02402,1.2511818
2.574,-13.888457,5.526572,4.194464,1.2789762,-0.98988014,1.241391
2.576,-13.876961,5.4688916,4.144288,1.2538085,-0.9572587,1.2323325
2.578,-13.862726,5.4093895,4.091772,1.2293801,-0.9260748,1.2241194
2.58,-13.845846,5.348272,4.0368624,1.205803,-0.89636296,1.2168252
2.582,-13.827026,5.285801,3.9794645,1.1831214,-0.86826754,1.2104812
2.584,-13.806641,5.2222433,3.9195065,1.1613071,-0.84203446,1.2051319
2.586,-13.785168,5.1578856,3.8569736,1.1402836,-0.8180048,1.2007762
2.588,-13.762871,5.093096,3.7917774,1.1199155,-0.796558,1.1973907
2.59,-13.73992,5.0281134,3.7241268,1.1000214,-0.7781032,1.1949104
2.592,-13.716698,4.963209,3.6540475,1.0804105,-0.7630274,1.1932249
2.594,-13.69309,4.8986177,3.5819716,1.0608789,-0.7516667,1.1922065
2.596,-13.6691675,4.834388,3.5079575,1.0412363,-0.7442621,1.1916821
2.598,-13.644815,4.770766,3.432482,1.0212928,-0.7409676,1.1914699
2.6,-13.619968,4.707698,3.3558762,1.000901,-0.7417951,1.1913714
2.602,-13.594244,4.64518,3.2787056,0.9799779,-0.7466543,1.1911469
2.604,-13.567531,4.5832562,3.2014074,0.95846677,-0.7553227,1.1905348
2.606,-13.539435,4.521678,3.1244812,0.9363804,-0.76746184,1.1892616
2.608,-13.509413,4.4603376,3.0485733,0.9137684,-0.78263414,1.1870085
2.61,-13.477146,4.398901,2.9741383,0.890706,-0.80033886,1.1834635
2.612,-13.44232,4.337284,2.9015858,0.86728567,-0.8200425,1.178314
2.614,-13.404327,4.27526,2.8313267,0.8436017,-0.8411867,1.171297
2.616,-13.36285,4.2127094,2.763681,0.8197327,-0.86323863,1.1622086
2.618,-13.317461,4.149384,2.6990125,0.79575086,-0.8856995,1.1508944
2.62,-13.267906,4.085161,2.637527,0.771685,-0.9081499,1.1373019
2.622,-13.213989,4.019838,2.5794506,0.74756324,-0.93024254,1.1214864
2.624,-13.155559,3.9532604,2.5249767,0.7234103,-0.95172065,1.1036007
2.626,-13.092818,3.8854814,2.4741971,0.6992625,-0.97242975,1.0838832
2.628,-13.025836,3.816379,2.4272864,0.6751865,-0.9923086,1.0626373
2.63,-12.954765,3.7459488,2.384117,0.6512913,-1.0113407,1.0402355
2.632,-12.879869,3.6741238,2.3448274,0.6277345,-1.0295634,1.0170563
2.634,-12.801746,3.6010156,2.3092844,0.60471946,-1.0470388,0.9934784
2.636,-12.720836,3.526412,2.2772703,0.58247536,-1.0638236,0.9698531
2.638,-12.637566,3.4504948,2.2485123,0.56125474,-1.0799266,0.9464702
2.64,-12.552393,3.3730516,2.2227874,0.5413094,-1.0953002,0.92357844
2.642,-12.465967,3.294115,2.1998107,0.52285886,-1.1098316,0.90135247
2.644,-12.3788805,3.213634,2.1793547,0.506076,-1.1233666,0.8799051
2.646,-12.291626,3.1316843,2.1611652,0.49107096,-1.1356896,0.8593229
2.648,-12.204878,3.048387,2.1450112,0.4779029,-1.1465504,0.83963764
2.65,-12.119089,2.9637728,2.1307452,0.4665495,-1.1557122,0.82089007
2.652,-12.034995,2.878203,2.1181493,0.45692968,-1.162955,0.8031373
2.654,-11.952801,2.7918935,2.1072075,0.44889706,-1.1681219,0.7864491
2.656,-11.873136,2.7053142,2.0979218,0.44226527,-1.1711025,0.77095675
2.658,-11.796242,2.6188483,2.0901556,0.4368473,-1.1718662,0.75683236
2.66,-11.722649,2.5330067,2.0841637,0.4324552,-1.1704615,0.74427754
2.662,-11.652646,2.4483967,2.0800424,0.42892298,-1.1669993,0.7335533
2.664,-11.586802,2.3656387,2.0779903,0.42613307,-1.1616228,0.7249094
2.666,-11.52536,2.2855487,2.0783014,0.42403546,-1.1544955,0.71861076
2.668,-11.468914,2.2088857,2.0811317,0.42262438,-1.1457776,0.7148691
2.67,-11.4177065,2.1364079,2.086834,0.42196402,-1.1355855,0.71385473
2.672,-11.3721075,2.068983,2.0954123,0.42216656,-1.1239972,0.71568215
2.674,-11.332586,2.0074525,2.1071222,0.4233842,-1.1110072,0.72037673
2.676,-11.299345,1.9524732,2.1220758,0.42576918,-1.0965534,0.7278635
2.678,-11.272747,1.9048185,2.140339,0.42947206,-1.0804938,0.7379835
2.68,-11.252798,1.8650146,2.1617875,0.4345988,-1.062633,0.7505131
2.682,-11.239454,1.8334575,2.1865525,0.44120193,-1.0427623,0.7651744
2.684,-11.232708,1.8105469,2.214371,0.44926295,-1.0207008,0.7816469
2.686,-11.232506,1.7966905,2.2450354,0.45870462,-0.9962742,0.79962224
2.688,-11.238621,1.7919316,2.2781312,0.46937117,-0.969377,0.8188313
2.69,-11.250708,1.7962666,2.3133326,0.48105323,-0.93997777,0.83906275
2.692,-11.268244,1.8096724,2.3501174,0.49349505,-0.90815187,0.8601844
2.694,-11.290631,1.8320513,2.3879817,0.5063907,-0.8740604,0.8821621
2.696,-11.317167,1.86308,2.4263563,0.51943696,-0.8379446,0.905049
2.698,-11.347021,1.9024239,2.4645886,0.532325,-0.80009735,0.9289496
2.7,-11.379269,1.9497685,2.5020692,0.544758,-0.76085097,0.953991
2.702,-11.412988,2.0046425,2.538306,0.5564587,-0.72054267,0.98031574
2.704,-11.447164,2.0664892,2.5726316,0.5672049,-0.6794866,1.0080171
2.706,-11.480632,2.1350455,2.6047225,0.57683,-0.6379523,1.0371554
2.708,-11.512415,2.209568,2.6338553,0.58521134,-0.5961306,1.0677369
2.71,-11.541563,2.2898092,2.6596277,0.5922824,-0.55414057,1.0997005
2.712,-11.56714,2.3751206,2.681666,0.5980304,-0.512007,1.1329379
2.714,-11.588037,2.465087,2.69953,0.6025051,-0.46965694,1.1673075
2.716,-11.60357,2.5591302,2.7128701,0.60581654,-0.4269105,1.2026557
2.718,-11.61303,2.6566653,2.721251,0.6081122,-0.38353896,1.2388166
2.72,-11.615672,2.7572937,2.7244294,0.60954,-0.3392695,1.2756088
2.722,-11.610828,2.8603153,2.722092,0.6102722,-0.2938226,1.3128796
2.724,-11.598299,2.9653316,2.7139773,0.61047685,-0.24691433,1.3504957
2.726,-11.577721,3.0717583,2.699882,0.6103142,-0.1982875,1.3883456
2.728,-11.548897,3.1790118,2.6797628,0.6099243,-0.14776328,1.4263295
2.73,-11.511738,3.2867022,2.6534817,0.60940325,-0.0952736,1.464384
2.732,-11.466167,3.3943248,2.6210985,0.60881025,-0.040867165,1.5024261
2.734,-11.4123535,3.5013533,2.5826507,0.60816354,0.015285537,1.5403521
2.736,-11.350377,3.6072974,2.538461,0.6074268,0.07290378,1.5780548
2.738,-11.280355,3.711774,2.4887466,0.6065277,0.13158695,1.615387
2.74,-11.202647,3.8145318,2.4341218,0.605351,0.19083996,1.6521564
2.742,-11.117619,3.91525,2.3750877,0.60376894,0.25012422,1.6881374
2.744,-11.025452,4.0135927,2.312317,0.60166085,0.3088929,1.7230843
2.746,-10.926615,4.109358,2.2465608,0.5989097,0.36664295,1.7567525
2.748,-10.821584,4.202202,2.1785583,0.5954244,0.42293373,1.7889063
2.75,-10.710909,4.292016,2.1092355,0.5911555,0.47742346,1.8193573
2.752,-10.595052,4.378659,2.0393867,0.5860961,0.529888,1.8479695
2.754,-10.474403,4.4618874,1.9697845,0.58028334,0.5802541,1.8746696
2.756,-10.34951,4.5416036,1.9012415,0.5737973,0.6285566,1.8994347
2.758,-10.220947,4.6176863,1.8344071,0.5667318,0.67495906,1.9223182
2.76,-10.089183,4.6902943,1.7699852,0.55920804,0.7197206,1.9433992
2.762,-9.954584,4.759183,1.7085382,0.55137175,0.7631617,1.9627823
2.764,-9.817951,4.8245826,1.650431,0.543373,0.8056542,1.9806173
2.766,-9.679678,4.886569,1.5960268,0.5353489,0.8475598,1.9970438
2.768,-9.540254,4.9452953,1.545582,0.5274245,0.8892201,2.0122063
2.77,-9.400061,5.0010366,1.4990857,0.5196985,0.93092185,2.0262427
2.772,-9.259552,5.0540695,1.4564078,0.51226157,0.9729157,2.0392992
2.774,-9.119156,5.104714,1.4173703,0.5051929,1.0153935,2.051531
2.776,-8.979184,5.153051,1.38172,0.49853602,1.0584428,2.0630937
2.778,-8.839987,5.1993732,1.3491147,0.4923092,1.1020703,2.0741196
2.78,-8.701786,5.243824,1.3190801,0.48649696,1.1461996,2.0847437
2.782,-8.564991,5.286666,1.2912639,0.48106182,1.1906793,2.0950873
2.784,-8.429828,5.3281307,1.2651451,0.4759458,1.2353253,2.1052313
2.786,-8.296722,5.3684006,1.2401505,0.47105667,1.279902,2.115221
2.788,-8.165712,5.407519,1.215769,0.46629202,1.3241503,2.1250544
2.79,-8.037065,5.445717,1.1916835,0.46153438,1.3678093,2.1346498
2.792,-7.9110527,5.4831905,1.1673857,0.45665497,1.4106352,2.1438854
2.794,-7.787777,5.5200567,1.1425309,0.4515148,1.4523954,2.1526053
2.796,-7.667448,5.5563107,1.1168907,0.44598237,1.4929062,2.1606278
2.798,-7.5501432,5.5922146,1.0902015,0.43993357,1.5320214,2.167783
2.8,-7.4361095,5.627859,1.0622783,0.43326437,1.5696417,2.173931
2.802,-7.3253937,5.663375,1.0331231,0.42590487,1.6057127,2.1789842
2.804,-7.218028,5.6988297,1.0026543,0.41779613,1.6402338,2.1829386
2.806,-7.114066,5.734542,0.97095096,0.4089097,1.673248,2.1858535
2.808,-7.013772,5.770813,0.9380876,0.39925632,1.7048168,2.187847
2.81,-6.9169602,5.807863,0.9042233,0.38886094,1.7350712,2.189103
2.812,-6.823614,5.8461204,0.86952513,0.37778333,1.7641574,2.189814
2.814,-6.73368,5.8861,0.8342161,0.3660931,1.7922413,2.1901782
2.816,-6.647045,5.9280725,0.7984636,0.3538631,1.81949,2.1903908
2.818,-6.5634956,5.9727197,0.76262426,0.34116518,1.8460853,2.190602
2.82,-6.482642,6.0203266,0.7269689,0.3280708,1.8721964,2.1909485
2.822,-6.4042206,6.071395,0.69153154,0.31462914,1.8979719,2.1915329
2.824,-6.328168,6.126483,0.6566608,0.30088133,1.9235439,2.1924276
2.826,-6.253853,6.186016,0.6225403,0.28684872,1.9490063,2.1937168
2.828,-6.181035,6.2503076,0.5892438,0.27254748,1.9744484,2.1954713
2.83,-6.1092005,6.319618,0.55675066,0.25800693,1.9999605,2.1977775
2.832,-6.0380607,6.394146,0.5251403,0.24325252,2.0256166,2.2007654
2.834,-5.9672008,6.473893,0.494399,0.22833127,2.0515037,2.2045448
2.836,-5.8962955,6.558761,0.4643418,0.21331036,2.0777156,2.2092266
2.838,-5.8250084,6.648557,0.4345062,0.1982696,2.1043706,2.2148995
2.84,-5.7529864,6.7427096,0.4048444,0.1832977,2.131607,2.2215903
2.842,-5.679896,6.8406677,0.3748541,0.16848212,2.1595862,2.2292426
2.844,-5.6055336,6.9417944,0.34415257,0.15389514,2.1884742,2.2377179
2.846,-5.529688,7.045335,0.31218666,0.13958013,2.2184644,2.2467847
2.848,-5.4523506,7.150431,0.27846575,0.12556791,2.2497578,2.256118
2.85,-5.373418,7.256122,0.2424385,0.1118322,2.2825327,2.2653325
2.852,-5.292917,7.3614426,0.20359588,0.098329365,2.3169603,2.274024
2.854,-5.2109447,7.465568,0.16146398,0.0849781,2.3531857,2.281805
2.856,-5.1276484,7.567645,0.11549097,0.07166344,2.391325,2.2883353
2.858,-5.0431833,7.667053,0.06535035,0.05827427,2.431447,2.2933536
2.86,-4.9575963,7.763042,0.0107265115,0.044690013,2.4735432,2.2967136
2.862,-4.871022,7.85517,-0.048730493,0.03079015,2.5175672,2.2983782
2.864,-4.7838435,7.9431624,-0.11320901,0.016484559,2.5634027,2.2983923
2.866,-4.696365,8.026812,-0.18287516,0.0016871691,2.610903,2.2969117
2.868,-4.60878,8.106086,-0.25774044,-0.013681531,2.6598668,2.2941298
2.87,-4.5215936,8.181149,-0.33782274,-0.029679835,2.7100646,2.2902946
2.872,-4.4350567,8.252372,-0.42294776,-0.046355277,2.7612185,2.2856424
2.874,-4.349453,8.320255,-0.5129323,-0.0637511,2.813053,2.2804084
2.876,-4.265028,8.385452,-0.6074772,-0.081909776,2.8652468,2.274786
2.878,-4.1819935,8.448761,-0.7062285,-0.10090315,2.9174676,2.2689133
2.88,-4.1007204,8.511141,-0.80881125,-0.12080732,2.969365,2.2628493
2.882,-4.0213094,8.573481,-0.9146248,-0.14173168,3.020573,2.256615
2.884,-3.9437695,8.636683,-1.0232663,-0.16379935,3.0707078,2.250166
2.886,-3.8683176,8.702016,-1.13418,-0.18714848,3.1193955,2.24344
2.888,-3.7947488,8.77035,-1.2467043,-0.21193397,3.1662667,2.2363496
2.89,-3.7230988,8.8426695,-1.3603139,-0.2382972,3.210934,2.2287948
2.892,-3.6530008,8.919725,-1.4744935,-0.26635888,3.2530255,2.2206929
2.894,-3.5843418,9.002243,-1.5886326,-0.29621205,3.2921884,2.2119722
2.896,-3.5166507,9.09078,-1.7022045,-0.3279042,3.328113,2.202568
2.898,-3.4497194,9.185718,-1.8146884,-0.36142367,3.3605275,2.1924453
2.9,-3.383202,9.287129,-1.9257667,-0.3966926,3.389189,2.1815803
2.902,-3.316631,9.394968,-2.0350747,-0.43357697,3.413939,2.1699636
2.904,-3.2493768,9.508958,-2.1422963,-0.47189578,3.4346972,2.1575866
2.906,-3.1809192,9.628714,-2.2474086,-0.51143014,3.4514797,2.1444259
2.908,-3.110776,9.753524,-2.350239,-0.5519365,3.4643824,2.1304498
2.91,-3.0383916,9.882569,-2.45085,-0.5931684,3.4735813,2.115605
2.912,-2.9632444,10.014882,-2.549239,-0.6349051,3.4793308,2.099827
2.914,-2.8849816,10.149345,-2.6456542,-0.67693937,3.481968,2.083007
2.916,-2.8031535,10.284653,-2.7403753,-0.7191142,3.481842,2.065021
2.918,-2.717321,10.419426,-2.8336272,-0.7613433,3.4793162,2.045727
2.92,-2.6274164,10.552292,-2.9258256,-0.8035629,3.4747505,2.024963
2.922,-2.5331464,10.681857,-3.0172553,-0.84575963,3.4684708,2.0025756
2.924,-2.4344475,10.806607,-3.1082754,-0.88797057,3.4607584,1.9784038
2.926,-2.3313146,10.925306,-3.1992464,-0.9302517,3.4518187,1.9523422
2.928,-2.223884,11.036655,-3.2904315,-0.9726781,3.441776,1.9243045
2.93,-2.1125622,11.139582,-3.3820677,-1.0153221,3.4306962,1.8942679
2.932,-1.9973243,11.233143,-3.4741902,-1.0582247,3.418571,1.8622783
2.934,-1.8785515,11.316376,-3.5669808,-1.1014117,3.4053264,1.8284419
2.936,-1.7568614,11.388863,-3.6603732,-1.1448549,3.3908603,1.7929132
2.938,-1.6324492,11.450034,-3.7541728,-1.1885155,3.375056,1.7558781
2.94,-1.506045,11.499636,-3.8481312,-1.2322928,3.3577857,1.7175457
2.942,-1.3780609,11.53772,-3.941976,-1.2760468,3.338957,1.678144
2.944,-1.2489132,11.564374,-4.035366,-1.3196226,3.318549,1.6378956
2.946,-1.1191876,11.579953,-4.1278524,-1.3628236,3.2965853,1.5969855
2.948,-0.98950505,11.584943,-4.218878,-1.4054329,3.2731552,1.5555726
2.95,-0.8604475,11.579947,-4.3081493,-1.447234,3.24842,1.5137924
2.952,-0.7327944,11.565665,-4.3951144,-1.4879893,3.2226057,1.4717171
2.954,-0.6068636,11.542805,-4.4793825,-1.5274659,3.196025,1.429408
2.956,-0.48319954,11.51213,-4.5605435,-1.5654573,3.1690035,1.3869119
2.958,-0.36242768,11.474508,-4.63835,-1.6017569,3.1418831,1.3442649
2.96,-0.24488069,11.43076,-4.7125945,-1.6361796,3.1150048,1.301511
2.962,-0.13089246,11.381816,-4.7830653,-1.6685724,3.0887034,1.2587187
2.964,-0.020796306,11.328576,-4.849709,-1.6988245,3.0632846,1.2159673
2.966,0.08519029,11.271978,-4.91245,-1.726853,3.038994,1.1733705
2.968,0.18663625,11.212848,-4.971384,-1.7526178,3.0160182,1.1310799
2.97,0.28344786,11.152371,-5.026632,-1.7761074,2.9944816,1.089264
2.972,0.37547994,11.091395,-5.0782156,-1.7973266,2.9744487,1.0480938
2.974,0.46275955,11.030831,-5.1263204,-1.8163204,2.955907,1.0077642
2.976,0.54546374,10.97172,-5.1711416,-1.8331441,2.9387932,0.96846426
2.978,0.62361586,10.914946,-5.2127333,-1.8478502,2.9230196,0.93039525
2.98,0.69758457,10.861299,-5.251356,-1.8604826,2.9084773,0.89373946
2.982,0.7675426,10.811569,-5.287211,-1.8710846,2.8950438,0.85869426
2.984,0.83359766,10.76644,-5.3205614,-1.8796756,2.8826013,0.8254312
2.986,0.89599127,10.726506,-5.3516335,-1.8862551,2.871053,0.79410356
2.988,0.9550061,10.692207,-5.3807273,-1.8908248,2.860349,0.7648393
2.99,1.0110456,10.663786,-5.4081078,-1.8933578,2.850465,0.7377199
2.992,1.064326,10.641413,-5.434166,-1.8938185,2.8414178,0.7127635
2.994,1.115135,10.625249,-5.4593096,-1.8921905,2.833252,0.689902
2.996,1.1636866,10.614984,-5.483982,-1.8884602,2.826034,0.6689815
2.998,1.210114,10.610415,-5.50862,-1.8826399,2.8198252,0.649761
3,1.2546328,10.611086,-5.533704,-1.8747966,2.8146713,0.631908
3.002,1.2972981,10.616496,-5.5598235,-1.86503,2.8105943,0.6150475
3.004,1.3382175,10.625932,-5.5874057,-1.853484,2.807563,0.598778
3.006,1.3774492,10.638723,-5.6169577,-1.8403723,2.805484,0.5826942
3.008,1.4150674,10.654068,-5.6489697,-1.825939,2.804182,0.56645554
3.01,1.4511361,10.67123,-5.683894,-1.8104613,2.803402,0.5497957
3.012,1.4856694,10.689358,-5.722075,-1.7942501,2.802832,0.53255177
3.014,1.5184989,10.70778,-5.763692,-1.7776402,2.8020635,0.5146601
3.016,1.5496974,10.7256975,-5.808846,-1.7609482,2.800632,0.49615785
3.018,1.5791764,10.742532,-5.8576913,-1.7444696,2.7980213,0.47717214
3.02,1.6068125,10.757796,-5.910028,-1.7284791,2.7937112,0.45786345
3.022,1.632637,10.771076,-5.9656334,-1.7132133,2.7871895,0.43844992
3.024,1.6565608,10.782071,-6.024109,-1.6988468,2.7779706,0.4191465
3.026,1.6785827,10.790533,-6.0850306,-1.6855123,2.7656438,0.40015766
3.028,1.6986831,10.796353,-6.147761,-1.6732823,2.7498949,0.38166046
3.03,1.7169614,10.79946,-6.2115164,-1.6621592,2.730515,0.36379105
3.032,1.7333043,10.800028,-6.2756624,-1.6521041,2.7074132,0.346659
3.034,1.7477303,10.798103,-6.3393826,-1.6430281,2.6806362,0.33034617
3.036,1.7602276,10.79391,-6.4017763,-1.6347799,2.6503613,0.31490853
3.038,1.7708915,10.787737,-6.4620976,-1.627177,2.6168897,0.30039603
3.04,1.7799104,10.7798195,-6.519684,-1.6199915,2.580624,0.28684413
3.042,1.7870221,10.770473,-6.5737176,-1.6129681,2.5420423,0.27425936
3.044,1.7925674,10.759969,-6.6234627,-1.6058462,2.5016909,0.26265368
3.046,1.796694,10.748459,-6.668495,-1.5983512,2.4601753,0.25204897
3.048,1.7994077,10.73637,-6.708388,-1.5902138,2.4181197,0.24244954
3.05,1.8009145,10.723843,-6.742758,-1.5811899,2.3761396,0.23386264
3.052,1.8013859,10.710961,-6.7715435,-1.5710489,2.3348315,0.22630677
3.054,1.8010542,10.697907,-6.7946973,-1.5595808,2.2947533,0.21980968
3.056,1.8002124,10.684786,-6.8122635,-1.5466118,2.2563963,0.21441096
3.058,1.7991886,10.6716175,-6.8244524,-1.532011,2.220177,0.2101595
3.06,1.7982043,10.6584,-6.83148,-1.5156766,2.186428,0.2071116
3.062,1.7977566,10.645184,-6.833842,-1.4975625,2.155378,0.205311
3.064,1.7979987,10.631867,-6.8319626,-1.4776574,2.1271822,0.20480546
3.066,1.7992601,10.618391,-6.8264394,-1.4559613,2.101892,0.2056028
3.068,1.8019569,10.604574,-6.8177433,-1.4325318,2.0795,0.20769279
3.07,1.806226,10.590282,-6.8064785,-1.4074515,2.0599303,0.2110052
3.072,1.8122602,10.575347,-6.7933006,-1.3808246,2.0430548,0.2154372
3.074,1.8203179,10.559597,-6.778721,-1.3527827,2.0287027,0.22085401
3.076,1.8305295,10.542835,-6.763357,-1.3234608,2.0166945,0.22707728
3.078,1.8430042,10.524871,-6.747802,-1.2930046,2.006826,0.23392245
3.08,1.857786,10.505386,-6.732555,-1.26157,1.9988712,0.24120957
3.082,1.8749089,10.484332,-6.71804,-1.2293093,1.9926131,0.24876493
3.084,1.8944523,10.461587,-6.7046814,-1.1963822,1.9878299,0.25643283
3.086,1.9162028,10.437096,-6.692853,-1.1629305,1.9842746,0.26407272
3.088,1.9402246,10.410838,-6.683029,-1.1290832,1.9816995,0.27157882
3.09,1.9661341,10.38293,-6.6754537,-1.0949796,1.9798319,0.27890062
3.092,1.9938333,10.353453,-6.6703577,-1.0607444,1.978379,0.2860187
3.094,2.0234025,10.322501,-6.6677837,-1.026511,1.9770294,0.29295594
3.096,2.0545225,10.290219,-6.6678433,-0.9924275,1.9754627,0.29978323
3.098,2.0869608,10.256809,-6.6705275,-0.95864326,1.9733369,0.3065748
3.1,2.1205928,10.222554,-6.6758685,-0.9253164,1.9703124,0.3134146
3.102,2.1552398,10.18774,-6.6838603,-0.89260244,1.9660904,0.32038736
3.104,2.1905842,10.152652,-6.6943088,-0.860664,1.9603844,0.32753727
3.106,2.2266471,10.117721,-6.7072263,-0.82964915,1.95297,0.3348821
3.108,2.2631786,10.083362,-6.7225165,-0.7996781,1.9436783,0.342411
3.11,2.3000174,10.049932,-6.7400455,-0.77083695,1.9324203,0.35006937
3.112,2.3369837,10.01787,-6.759572,-0.74315643,1.9191719,0.35779214
3.114,2.3740013,9.987537,-6.781047,-0.7166346,1.9040164,0.3655333
3.116,2.4107332,9.959278,-6.8043156,-0.6911986,1.8870959,0.37324795
3.118,2.4465072,9.933383,-6.828375,-0.66674805,1.8686132,0.38091803
3.12,2.4815495,9.910025,-6.8536716,-0.64315534,1.8488379,0.38858184
3.122,2.5157537,9.889465,-6.8799953,-0.62022614,1.8280642,0.39628613
3.124,2.5489097,9.871754,-6.907238,-0.59778637,1.8066067,0.4040953
3.126,2.5808945,9.857029,-6.9351707,-0.5756482,1.7847855,0.412081
3.128,2.611548,9.8452425,-6.963571,-0.5536341,1.7629113,0.42029625
3.13,2.6407902,9.836325,-6.99231,-0.5316018,1.7412238,0.4287441
3.132,2.6684291,9.8301325,-7.021268,-0.50943214,1.7199073,0.43736172
3.134,2.69446,9.826503,-7.0501614,-0.48702237,1.6990528,0.44598916
3.136,2.7186933,9.825263,-7.0788403,-0.46431074,1.6786133,0.45440257
3.138,2.7411494,9.826159,-7.1071463,-0.44126388,1.6584145,0.4623344
3.14,2.7617514,9.829012,-7.135036,-0.41788125,1.6381656,0.4694884
3.142,2.7806025,9.833445,-7.1622596,-0.39421424,1.617459,0.4755749
3.144,2.7977312,9.839293,-7.1886816,-0.37032792,1.5958221,0.4803527
3.146,2.813235,9.846188,-7.2142487,-0.34700632,1.5741743,0.4837489
3.148,2.8271875,9.853837,-7.2388225,-0.32403293,1.5515102,0.48571694
3.15,2.8396084,9.862089,-7.262243,-0.30167285,1.527772,0.48634326
3.152,2.8507798,9.870663,-7.284557,-0.28022093,1.5030594,0.48581696
3.154,2.8606436,9.879427,-7.305804,-0.25996077,1.4776126,0.48438478
3.156,2.8693607,9.888188,-7.3258867,-0.24114291,1.451787,0.48232764
3.158,2.8770466,9.896772,-7.34476,-0.22394502,1.4260172,0.47991642
3.16,2.8838665,9.905052,-7.362569,-0.2084728,1.4007404,0.47738117
3.162,2.8899436,9.91297,-7.3791714,-0.19475669,1.3763518,0.47489166
3.164,2.8952684,9.920392,-7.3946486,-0.1827519,1.3531654,0.4725737
3.166,2.899928,9.927264,-7.409038,-0.1723555,1.3314081,0.47048953
3.168,2.9039204,9.933584,-7.422362,-0.16341686,1.3111793,0.46866053
