Time_s_,Acc_x_m_s_2_,Acc_y_m_s_2_,Acc_z_m_s_2_,Gyro_x_1_s_,Gyro_y_1_s_,Gyro_z_1_s_
0,0.17419994,0.27535787,-1.2017732,-0.8266209,-2.5402243,0.80700254
0.002,0.15927804,0.2720707,-1.1658229,-0.82796305,-2.5109696,0.83019054
0.004,0.13780546,0.27182284,-1.1317366,-0.8293976,-2.477987,0.85630405
0.006,0.108957216,0.27480897,-1.099363,-0.8309169,-2.440921,0.88567114
0.008,0.07220206,0.28148854,-1.0685503,-0.8325078,-2.3995588,0.9185432
0.01,0.027215898,0.29217196,-1.0392452,-0.8341915,-2.353838,0.95510805
0.012,-0.026955009,0.30788678,-1.0118436,-0.8360249,-2.303857,0.9954412
0.014,-0.09094015,0.3296696,-0.98685837,-0.8380712,-2.2497737,1.0395136
0.016,-0.16555178,0.35852042,-0.96502405,-0.8404003,-2.191819,1.0871396
0.018,-0.2514262,0.39558017,-0.9470113,-0.8430886,-2.1302924,1.1379784
0.02,-0.34921008,0.44194663,-0.9334014,-0.8461621,-2.0655034,1.1915537
0.022,-0.45944133,0.49864697,-0.92496175,-0.84955883,-1.9976909,1.2473184
0.024,-0.5823967,0.5666662,-0.9222677,-0.85309416,-1.927021,1.3046494
0.026,-0.7176943,0.64626217,-0.9258665,-0.8564271,-1.8535438,1.3628445
0.028,-0.8650054,0.73771936,-0.9359173,-0.8591457,-1.7756127,1.4224548
0.03,-1.0239412,0.84126073,-0.9528204,-0.86055815,-1.6953489,1.4809211
0.032,-1.1938763,0.95683,-0.97668755,-0.8600576,-1.6125256,1.5376276
0.034,-1.3743972,1.0843059,-1.0077338,-0.8570496,-1.5270361,1.591837
0.036,-1.5646034,1.2232356,-1.0459462,-0.85096526,-1.4388463,1.6426792
0.038,-1.7626045,1.3724664,-1.0908246,-0.84135544,-1.3480396,1.6891863
0.04,-1.9669816,1.5307491,-1.1419672,-0.82795835,-1.2548499,1.7303045
0.042,-2.1761022,1.6966953,-1.1988536,-0.81070065,-1.1595881,1.7649802
0.044,-2.3880439,1.8685093,-1.2605774,-0.789724,-1.0625924,1.7922654
0.046,-2.6007504,2.0439947,-1.3262562,-0.76538485,-0.96429145,1.8114207
0.048,-2.8123088,2.2210982,-1.3952771,-0.7382325,-0.86522627,1.8220512
0.05,-3.0209384,2.3976953,-1.4669279,-0.70897907,-0.7659634,1.8242185
0.052,-3.2248988,2.5716949,-1.540218,-0.6784464,-0.6671227,1.8184656
0.054,-3.4225814,2.7411547,-1.6141546,-0.64747006,-0.56924397,1.8058497
0.056,-3.614368,2.9059038,-1.6867092,-0.6168377,-0.47269762,1.787867
0.058,-3.7974749,3.06316,-1.758859,-0.5872399,-0.37770808,1.7662852
0.06,-3.9707136,3.2117743,-1.8299986,-0.55922884,-0.28430283,1.7429292
0.062,-4.1335754,3.351303,-1.8995656,-0.53315353,-0.1922896,1.7195606
0.064,-4.28547,3.481451,-1.9675623,-0.50911474,-0.1013698,1.6977128
0.066,-4.4267893,3.6026947,-2.0340881,-0.48698092,-0.011257935,1.6785519
0.068,-4.557431,3.7156568,-2.0992222,-0.4664769,0.0781876,1.6628634
0.07,-4.677781,3.8212671,-2.163357,-0.44720578,0.16691312,1.6510695
0.072,-4.7882733,3.9206874,-2.2273402,-0.42875156,0.25461674,1.6432228
0.074,-4.8898478,4.0155277,-2.2918549,-0.41074482,0.34074908,1.6391146
0.076,-4.983504,4.1074305,-2.357397,-0.39289016,0.4245527,1.6383835
0.078,-5.070902,4.1983867,-2.4243128,-0.3749793,0.50510085,1.6406002
0.08,-5.153015,4.290122,-2.493101,-0.35691473,0.5813417,1.64536
0.082,-5.230947,4.3845024,-2.5636911,-0.33865753,0.6522156,1.6522945
0.084,-5.3051834,4.4828815,-2.6352563,-0.32017195,0.71683866,1.6610984
0.086,-5.376772,4.5865784,-2.706788,-0.30141038,0.7745705,1.6715313
0.088,-5.4461827,4.6965795,-2.7775493,-0.2823209,0.82496136,1.6833885
0.09,-5.5136333,4.8132033,-2.846912,-0.26284224,0.8677802,1.696489
0.092,-5.5816784,4.9370346,-2.9140115,-0.24287498,0.9030679,1.7106725
0.094,-5.641386,5.0660067,-2.9780862,-0.22230154,0.9311218,1.7257745
0.096,-5.701065,5.201957,-3.0365949,-0.20106071,0.952344,1.7416172
0.098,-5.754365,5.342768,-3.0888202,-0.17910963,0.96730065,1.7580441
0.1,-5.8007708,5.4875803,-3.1328387,-0.15643919,0.9766964,1.7748628
0.102,-5.838462,5.634899,-3.1665692,-0.13309807,0.98130226,1.7918234
0.104,-5.8650446,5.782696,-3.1880426,-0.10920429,0.98182875,1.8085929
0.106,-5.8789573,5.9292965,-3.1950839,-0.084970236,0.9788872,1.8247726
0.108,-5.8785963,6.0732646,-3.185783,-0.060656548,0.9730239,1.8399266
0.11,-5.862365,6.213228,-3.1590278,-0.036562383,0.9646263,1.8535454
0.112,-5.8272676,6.3470917,-3.1139781,-0.013080239,0.9537817,1.8650496
0.114,-5.770914,6.47268,-3.0494251,0.009315133,0.940236,1.8738705
0.116,-5.6918774,6.588509,-2.9655266,0.030052245,0.92339694,1.8794818
0.118,-5.5886383,6.6927614,-2.8629284,0.048465133,0.9024245,1.8813939
0.12,-5.4596944,6.783746,-2.7412357,0.06382948,0.87626344,1.8792386
0.122,-5.305206,6.860235,-2.5992398,0.07540077,0.84370863,1.872809
0.124,-5.125498,6.9212484,-2.436054,0.08249098,0.8037536,1.8621359
0.126,-4.9201136,6.9652214,-2.2506332,0.084549785,0.755967,1.8474361
0.128,-4.6888256,6.990886,-2.0451186,0.08123982,0.7003886,1.829114
0.13,-4.432487,6.9979506,-1.8239948,0.072374284,0.63757473,1.8076901
0.132,-4.151468,6.986054,-1.590097,0.05807185,0.56891406,1.7838444
0.134,-3.8472533,6.9552364,-1.3453872,0.038775206,0.49652177,1.7583467
0.136,-3.5232534,6.9073305,-1.0927037,0.015179038,0.42301095,1.7320106
0.138,-3.1824117,6.8441086,-0.8354633,-0.011794448,0.3513142,1.7056463
0.14,-2.8293118,6.767876,-0.57549787,-0.041034162,0.28447062,1.6799974
0.142,-2.4654322,6.6793575,-0.3162325,-0.07138169,0.22528937,1.6556945
0.144,-2.0905552,6.5788026,-0.06300229,-0.10171217,0.17609113,1.6332003
0.146,-1.7077255,6.4678845,0.18074605,-0.1310032,0.13862051,1.6128098
0.148,-1.3210636,6.349308,0.41039273,-0.15839401,0.11387481,1.5946343
0.15,-0.93346375,6.225568,0.6227026,-0.1833187,0.10192602,1.5785558
0.152,-0.54744923,6.0988007,0.81468034,-0.20554832,0.101918936,1.5641623
0.154,-0.16578227,5.9717135,0.98290974,-0.2252065,0.11221646,1.5507747
0.156,0.20902163,5.8471136,1.1249897,-0.24279809,0.13042815,1.5375872
0.158,0.57487226,5.7272315,1.2394781,-0.25904134,0.15380168,1.5238501
0.16,0.92978364,5.6143355,1.3253069,-0.2748099,0.17913622,1.5087321
0.162,1.2718698,5.510719,1.3818443,-0.29109678,0.20272112,1.4913945
0.164,1.5995262,5.4184217,1.4094393,-0.308891,0.2207615,1.4711064
0.166,1.9112344,5.3393803,1.4089835,-0.32898027,0.22984277,1.447265
0.168,2.2057278,5.2749705,1.3823615,-0.3519842,0.2270557,1.4193861
0.17,2.4820526,5.226377,1.3321393,-0.37836212,0.2099982,1.3871207
0.172,2.7394931,5.1942596,1.2617043,-0.40814972,0.17745985,1.350574
0.174,2.9771187,5.1791577,1.1745081,-0.441036,0.12918213,1.3103157
0.176,3.1945035,5.1813316,1.0750647,-0.47651762,0.06539313,1.267046
0.178,3.3908105,5.2004356,0.9678985,-0.5137761,-0.012900774,1.2214704
0.18,3.5655544,5.2360554,0.8564612,-0.55185133,-0.104218304,1.174387
0.182,3.7189293,5.2870626,0.7444877,-0.58979833,-0.20644489,1.1265748
0.184,3.8502393,5.3525434,0.6352003,-0.6265715,-0.31694654,1.0787016
0.186,3.9585094,5.431385,0.53151715,-0.6612085,-0.43297857,1.0312272
0.188,4.043316,5.5221453,0.43613553,-0.69279945,-0.55153286,0.9844392
0.19,4.104079,5.6231394,0.35148728,-0.7204321,-0.6692668,0.938514
0.192,4.1403465,5.73269,0.27926183,-0.7432364,-0.7826479,0.8935711
0.194,4.15157,5.849386,0.22016275,-0.76037025,-0.8880562,0.84976816
0.196,4.138001,5.9715114,0.1748383,-0.7709921,-0.98187464,0.8073398
0.198,4.1000576,6.096842,0.14426768,-0.7742812,-1.0607893,0.76655996
0.2,4.037862,6.2238235,0.1289308,-0.76957095,-1.1222179,0.7276682
0.202,3.953719,6.3502383,0.128582,-0.75642455,-1.1644696,0.69083357
0.204,3.8398767,6.4760485,0.14302099,-0.7346646,-1.1868408,0.65611184
0.206,3.7065744,6.597301,0.17078221,-0.7045342,-1.189911,0.62336016
0.208,3.5495868,6.7137885,0.21256638,-0.66673017,-1.1754739,0.5921826
0.21,3.3713658,6.823952,0.26770544,-0.6222985,-1.1462809,0.56183255
0.212,3.1731458,6.926812,0.33566844,-0.57270914,-1.1060196,0.5311726
0.214,2.9561114,7.0214834,0.4163705,-0.5197096,-1.0587234,0.49891815
0.216,2.7216144,7.107164,0.50958425,-0.4651403,-1.0083767,0.4636828
0.218,2.4704943,7.183485,0.6153064,-0.41079426,-0.95873225,0.4240557
0.22,2.204389,7.2498784,0.7351196,-0.35828364,-0.91315275,0.378756
0.222,1.9249817,7.3061676,0.8709329,-0.30883965,-0.87426984,0.32672006
0.224,1.6339527,7.35274,1.023669,-0.26323238,-0.843718,0.26717103
0.226,1.333224,7.390021,1.193327,-0.22196329,-0.8224758,0.19944455
0.228,1.0241468,7.418992,1.3791192,-0.18514673,-0.8104449,0.12315182
0.23,0.7076299,7.441018,1.5789548,-0.15247516,-0.80625576,0.03843308
0.232,0.38577646,7.4573073,1.7897978,-0.12353365,-0.80813825,-0.054130673
0.234,0.060037732,7.4692082,2.009816,-0.097740635,-0.8139027,-0.15374364
0.236,-0.2691733,7.478985,2.2371824,-0.07438691,-0.82107514,-0.259444
0.238,-0.6013143,7.4886527,2.4721,-0.052808344,-0.8271301,-0.37009662
0.24,-0.9364664,7.5003858,2.7143843,-0.032406032,-0.82956254,-0.4844867
0.242,-1.2755637,7.5171723,2.9602232,-0.012607172,-0.82604235,-0.60142523
0.244,-1.6181241,7.541523,3.2037249,0.0071226507,-0.8145385,-0.719768
0.246,-1.9618361,7.5748982,3.4394639,0.027361155,-0.7932556,-0.8384049
0.248,-2.3061483,7.6193557,3.6618967,0.048728496,-0.76067215,-0.95630157
0.25,-2.6495583,7.67664,3.8647342,0.07185879,-0.7156439,-1.0724902
0.252,-2.9941082,7.7501483,4.0434103,0.09736797,-0.6572932,-1.185941
0.254,-3.3414154,7.842872,4.1945367,0.12589768,-0.5849361,-1.2956364
0.256,-3.6889486,7.9557343,4.312803,0.15808254,-0.49813482,-1.4006088
0.258,-4.0337925,8.088789,4.3943243,0.19446588,-0.3968803,-1.4999615
0.26,-4.3737316,8.241927,4.435005,0.23547402,-0.28156263,-1.5928196
0.262,-4.706723,8.414849,4.431959,0.28140557,-0.15300265,-1.6783658
0.264,-5.029955,8.606201,4.3836956,0.33231372,-0.012482141,-1.755887
0.266,-5.340402,8.814122,4.2891817,0.38806272,0.1383976,-1.8247545
0.268,-5.634739,9.036106,4.148534,0.44833228,0.29773372,-1.8844869
0.27,-5.9095907,9.268998,3.9627066,0.5126046,0.46318415,-1.9348799
0.272,-6.161703,9.509094,3.733512,0.58018756,0.63195735,-1.976094
0.274,-6.388049,9.75257,3.4634993,0.650242,0.8009059,-2.0086782
0.276,-6.5853834,9.995076,3.1566563,0.7217725,0.966518,-2.0336456
0.278,-6.751172,10.232568,2.8178215,0.79358363,1.1248976,-2.0525422
0.28,-6.883086,10.461144,2.4524426,0.86427355,1.2718368,-2.0673723
0.282,-6.979068,10.67701,2.066309,0.93228745,1.4031292,-2.080393
0.284,-7.0378637,10.876638,1.6659493,0.9960246,1.5147746,-2.0938702
0.286,-7.058421,11.05688,1.2573826,1.0538956,1.6033403,-2.1098604
0.288,-7.0403175,11.215164,0.8469062,1.1044909,1.6662602,-2.130008
0.29,-6.9833307,11.348969,0.4418323,1.1466631,1.7019634,-2.1554098
0.292,-6.8880157,11.45645,0.048288822,1.1796771,1.7101489,-2.186481
0.294,-6.754764,11.535809,-0.32829773,1.2033236,1.6918274,-2.2228968
0.296,-6.585061,11.586295,-0.6832328,1.2178993,1.6491249,-2.263732
0.298,-6.380212,11.607357,-1.011927,1.2241497,1.5850625,-2.3076258
0.3,-6.1425486,11.59945,-1.3103099,1.2231332,1.5032561,-2.352969
0.302,-5.8747177,11.563325,-1.5753601,1.2160492,1.407581,-2.3980865
0.304,-5.5794096,11.499967,-1.8048956,1.2040731,1.3018492,-2.4414804
0.306,-5.259564,11.410841,-1.9981058,1.1882131,1.1895103,-2.482025
0.308,-4.9181137,11.29801,-2.1551862,1.1691686,1.0734313,-2.5189242
0.31,-4.557845,11.163191,-2.276701,1.1473187,0.95596784,-2.5517411
0.312,-4.1815763,11.008709,-2.3642845,1.1228213,0.83913004,-2.5803494
0.314,-3.7920887,10.83693,-2.4197407,1.0956997,0.72460854,-2.6048965
0.316,-3.3925464,10.650204,-2.4451766,1.0659277,0.6138257,-2.6256592
0.318,-2.9864526,10.451031,-2.4437728,1.0336189,0.50809336,-2.6428914
0.32,-2.576849,10.241611,-2.4190943,0.99906915,0.40866816,-2.6567423
0.322,-2.16678,10.024412,-2.374799,0.9627814,0.31673813,-2.6671555
0.324,-1.7596521,9.802014,-2.3146858,0.92542017,0.23347081,-2.6738222
0.326,-1.3582363,9.576715,-2.2428143,0.8877576,0.15994275,-2.6762414
0.328,-0.96505785,9.350748,-2.1627183,0.8506014,0.09703246,-2.6738188
0.33,-0.5836513,9.126579,-2.0786455,0.8147464,0.045346454,-2.6659431
0.332,-0.2175749,8.906625,-1.9947692,0.7809222,0.005210325,-2.6520867
0.334,0.13014764,8.693136,-1.9141685,0.74978614,-0.023422644,-2.6319182
0.336,0.4568268,8.487784,-1.8380321,0.72184336,-0.041094832,-2.6054397
0.338,0.759856,8.292544,-1.7672935,0.69734025,-0.048857614,-2.5730598
0.34,1.037315,8.10909,-1.7031081,0.6763538,-0.04810442,-2.5354774
0.342,1.2872978,7.9388804,-1.6465633,0.65884745,-0.04044681,-2.4934783
0.344,1.5078505,7.7838383,-1.5996666,0.64471126,-0.027630895,-2.447848
0.346,1.6974977,7.6453,-1.5637494,0.63381386,-0.011403076,-2.399337
0.348,1.8550061,7.524434,-1.5392691,0.6260642,0.0066378117,-2.3485894
0.35,1.980814,7.4213624,-1.5256553,0.6214553,0.025195576,-2.2960496
0.352,2.0754437,7.3358555,-1.5214119,0.6200956,0.04331696,-2.242053
0.354,2.1391323,7.2677393,-1.5245932,0.6221962,0.06036806,-2.1868482
0.356,2.1717587,7.216709,-1.5331211,0.62806225,0.07611432,-2.1306522
0.358,2.1746526,7.181996,-1.5448314,0.63805634,0.09061494,-2.073684
0.36,2.1493473,7.1627755,-1.5577774,0.6525285,0.10411028,-2.0162048
0.362,2.0979114,7.1578636,-1.5699458,0.6717826,0.11697112,-1.9585681
0.364,2.0222425,7.1659284,-1.578859,0.69603664,0.12959257,-1.9012083
0.366,1.9238774,7.185627,-1.5822241,0.72538537,0.14234671,-1.8446448
0.368,1.8049172,7.2153883,-1.577907,0.75978035,0.15551633,-1.7894423
0.37,1.6677909,7.2535996,-1.5639582,0.7990344,0.16925561,-1.7361956
0.372,1.5151043,7.2985563,-1.5388427,0.8428313,0.18367562,-1.6854786
0.374,1.3491442,7.348927,-1.5008913,0.8907697,0.19878551,-1.6378157
0.376,1.1722674,7.4033065,-1.4488426,0.9423888,0.21458055,-1.5936564
0.378,0.9871361,7.4603343,-1.3821037,0.99717665,0.23104519,-1.5533255
0.38,0.795704,7.519373,-1.3003459,1.0545566,0.24810915,-1.5170537
0.382,0.60066295,7.5792265,-1.2027788,1.1139221,0.26570547,-1.485002
0.384,0.40329587,7.6389956,-1.0890908,1.1746621,0.28380632,-1.4572392
0.386,0.20553267,7.6980042,-0.9599402,1.2361782,0.3023917,-1.4337182
0.388,0.008919001,7.755386,-0.8160849,1.2978874,0.32148698,-1.4143369
0.39,-0.18544745,7.810405,-0.6584569,1.3592777,0.3411949,-1.3989282
0.392,-0.3764522,7.862588,-0.4882611,1.4199855,0.36173317,-1.3871958
0.394,-0.5631578,7.9116488,-0.30692178,1.4797593,0.3833601,-1.3788009
0.396,-0.7447547,7.9574203,-0.11604786,1.5384161,0.406374,-1.3733779
0.398,-0.92036116,7.9996767,0.082633436,1.595912,0.4311883,-1.370485
0.4,-1.0894508,8.038634,0.28702843,1.6523117,0.45824844,-1.369584
0.402,-1.2513254,8.074405,0.49523753,1.707727,0.4879802,-1.3700985
0.404,-1.4051112,8.107003,0.70535827,1.7623258,0.5207962,-1.3714615
0.406,-1.5494199,8.136291,0.9151257,1.8163075,0.55714536,-1.3731257
0.408,-1.6834223,8.162188,1.1220849,1.869889,0.5974517,-1.3745824
0.41,-1.8058234,8.184193,1.3238397,1.9233267,0.6420251,-1.3754588
0.412,-1.9152384,8.20184,1.5182889,1.9767411,0.69091934,-1.3755609
0.414,-2.0104795,8.214756,1.7035561,2.030243,0.74411494,-1.3747766
0.416,-2.0900285,8.222189,1.8781319,2.0838883,0.80142856,-1.3731201
0.418,-2.1524763,8.2233515,2.0404356,2.1376421,0.86244524,-1.3707267
0.42,-2.1963668,8.217469,2.1889226,2.1914127,0.9265434,-1.3677986
0.422,-2.2207794,8.203788,2.3230205,2.245051,0.99294174,-1.3645612
0.424,-2.2249649,8.181558,2.4415262,2.2983835,1.0607641,-1.3612504
0.426,-2.208815,8.150413,2.543875,2.3512025,1.1289933,-1.3581035
0.428,-2.1720839,8.109739,2.6296937,2.4032598,1.1965417,-1.3553269
0.43,-2.1148908,8.05921,2.6989775,2.4542918,1.262311,-1.3531135
0.432,-2.0381064,7.9985833,2.7520285,2.5040407,1.3252457,-1.3516524
0.434,-1.9426725,7.927724,2.789085,2.5522573,1.3844086,-1.3511008
0.436,-1.8299775,7.8468084,2.8110805,2.598682,1.4389467,-1.3515822
0.438,-1.7015464,7.7560625,2.818633,2.6430693,1.4881601,-1.353212
0.44,-1.5590107,7.6557355,2.8127105,2.6852179,1.5315094,-1.3560972
0.442,-1.4045188,7.5463414,2.7943635,2.724978,1.5686141,-1.3602903
0.444,-1.240144,7.42847,2.764943,2.762258,1.5991999,-1.3658205
0.446,-1.067919,7.30285,2.7257886,2.7970397,1.6231381,-1.3726839
0.448,-0.8901453,7.17008,2.6782942,2.8293798,1.6404479,-1.3808286
0.45,-0.7090287,7.0310802,2.6237493,2.85944,1.651294,-1.3902144
0.452,-0.52609706,6.886498,2.5637116,2.8874278,1.6559275,-1.4007938
0.454,-0.34288406,6.736759,2.4997017,2.9136047,1.6546559,-1.4125401
0.456,-0.16071224,6.5826674,2.4328763,2.9382792,1.6478792,-1.4254755
0.458,0.01914239,6.4247675,2.364301,2.9617534,1.6361032,-1.439645
0.46,0.19566345,6.263659,2.2950604,2.9843206,1.6198246,-1.455093
0.462,0.36795187,6.099993,2.2259054,3.0062134,1.5995421,-1.4718938
0.464,0.5352018,5.9343843,2.1575222,3.0275764,1.5757742,-1.4900733
0.466,0.69670415,5.7673593,2.0905018,3.048604,1.5491426,-1.509619
0.468,0.8520086,5.599342,2.0254407,3.069354,1.5200882,-1.5305384
0.47,1.0007913,5.4307895,1.9627328,3.0898466,1.4890438,-1.5527517
0.472,1.1426742,5.2620306,1.9027536,3.1101117,1.4564476,-1.5760635
0.474,1.2771592,5.0935626,1.8457773,3.130147,1.4227437,-1.6002257
0.476,1.4038978,4.9258986,1.7918147,3.149962,1.388408,-1.6249454
0.478,1.5221345,4.75965,1.7409588,3.1696572,1.3539602,-1.6497514
0.48,1.6314467,4.5952597,1.6931665,3.1893926,1.3199129,-1.6741061
0.482,1.7311065,4.4332633,1.6483257,3.2094264,1.2868162,-1.6974638
0.484,1.8202863,4.2740893,1.6057405,3.2300673,1.2552148,-1.719277
0.486,1.898795,4.1179733,1.5643015,3.2516615,1.2256131,-1.7390338
0.488,1.9655552,3.9653616,1.5245084,3.2745628,1.1984433,-1.7563133
0.49,2.0200605,3.8161175,1.4865199,3.2990851,1.1740806,-1.7708232
0.492,2.061592,3.6706128,1.4488428,3.3254547,1.1527879,-1.7824376
0.494,2.0901744,3.5286243,1.4105786,3.3538089,1.1347688,-1.7911956
0.496,2.1045465,3.3900073,1.3716698,3.3841743,1.1201249,-1.7973144
0.498,2.1045856,3.2545974,1.3317616,3.4164963,1.1088893,-1.8011143
0.5,2.0900643,3.1222892,1.290594,3.4506326,1.1009935,-1.8030269
0.502,2.0610569,2.9927056,1.2477496,3.4863703,1.0962679,-1.8035209
0.504,2.0180738,2.8653758,1.2030051,3.52346,1.0944481,-1.8030667
0.506,1.9616607,2.7395337,1.15618,3.5616283,1.0951592,-1.8021383
0.508,1.8925922,2.6145592,1.1072236,3.6005862,1.097948,-1.8011599
0.51,1.8118939,2.4897542,1.0560844,3.6400537,1.1022692,-1.8004752
0.512,1.721082,2.3644822,1.0028723,3.6797667,1.1074744,-1.8004038
0.514,1.6218541,2.238072,0.94756675,3.719488,1.112912,-1.8012235
0.516,1.516005,2.109696,0.890415,3.758988,1.1178178,-1.8031672
0.518,1.4055996,1.9787519,0.8318543,3.7980366,1.1213394,-1.8064001
0.52,1.2925669,1.8448145,0.7725442,3.8364797,1.122813,-1.8110156
0.522,1.1787908,1.7075834,0.7129606,3.8742175,1.1216941,-1.8171227
0.524,1.0663594,1.5668854,0.6534065,3.9111292,1.1174244,-1.8248239
0.526,0.9571776,1.4225764,0.59426856,3.9471068,1.1095324,-1.8342024
0.528,0.8533608,1.2748004,0.5358381,3.9820485,1.0975882,-1.8452647
0.53,0.75695,1.1237305,0.47824755,4.0158277,1.0811577,-1.8579781
0.532,0.66964746,0.96941227,0.4219677,4.0482388,1.0598495,-1.8724253
0.534,0.5931297,0.8121468,0.36742908,4.0790567,1.0333166,-1.8886738
0.536,0.52908564,0.652019,0.3145462,4.1080213,1.0012178,-1.9067749
0.538,0.4785157,0.48947138,0.26364368,4.1348996,0.96323377,-1.9267751
0.54,0.44231457,0.3248852,0.21500152,4.15949,0.9191476,-1.9487199
0.542,0.4216028,0.15849157,0.16867489,4.181652,0.86891747,-1.9726417
0.544,0.41682905,-0.009353697,0.12476582,4.2013903,0.8127086,-1.9985322
0.546,0.42824173,-0.17849231,0.08342068,4.2188416,0.75096416,-2.0263295
0.548,0.45557165,-0.34876317,0.045005918,4.2342815,0.68435,-2.0558927
0.55,0.49856445,-0.5199574,0.009776557,4.248116,0.61378086,-2.0870073
0.552,0.5568915,-0.6920279,-0.02197122,4.2608557,0.54034317,-2.1193871
0.554,0.630222,-0.86531174,-0.05008565,4.2730556,0.46524787,-2.1526537
0.556,0.7177956,-1.0397797,-0.074229315,4.2852917,0.3897494,-2.1863542
0.558,0.8189006,-1.2156805,-0.09399259,4.2981014,0.31508577,-2.2199728
0.56,0.9328325,-1.3935002,-0.10881415,4.3119497,0.24244368,-2.2529378
0.562,1.058576,-1.5735894,-0.11822276,4.3272314,0.17292368,-2.284674
0.564,1.1953852,-1.7566292,-0.12155211,4.3442526,0.10754049,-2.314628
0.566,1.3421992,-1.9431126,-0.11818609,4.363246,0.04723358,-2.3422842
0.568,1.498068,-2.1336887,-0.10758284,4.3843956,-0.007142186,-2.3671584
0.57,1.6618906,-2.3287277,-0.08908674,4.4078684,-0.05473435,-2.3888245
0.572,1.8325727,-2.5288339,-0.06207773,4.43382,-0.09478867,-2.4069762
0.574,2.0090728,-2.7343652,-0.02612026,4.462302,-0.12685049,-2.4213922
0.576,2.190586,-2.9456506,0.019174725,4.49336,-0.15065074,-2.431908
0.578,2.3760943,-3.1629834,0.07386537,4.527,-0.16602743,-2.438465
0.58,2.5647388,-3.3866441,0.13816832,4.56316,-0.17308664,-2.4411325
0.582,2.7555132,-3.6165202,0.21206158,4.601721,-0.17217672,-2.4400651
0.584,2.9470308,-3.852415,0.29539132,4.642472,-0.16391933,-2.4354842
0.586,3.138416,-4.0939837,0.38753593,4.685108,-0.14921737,-2.4276383
0.588,3.32892,-4.340876,0.4876467,4.7292595,-0.1291672,-2.416803
0.59,3.5175147,-4.5924935,0.5946682,4.7745004,-0.10495114,-2.403313
0.592,3.7036767,-4.848428,0.70752794,4.8203745,-0.07779753,-2.387556
0.594,3.8868847,-5.108045,0.8251009,4.8664174,-0.048971772,-2.3699112
0.596,4.065956,-5.370471,0.94660914,4.9121833,-0.01971817,-2.3507705
0.598,4.240371,-5.6348796,1.0696175,4.9572573,0.008787155,-2.3304925
0.6,4.409961,-5.900648,1.1923156,5.001302,0.035483122,-2.3094587
0.602,4.57421,-6.1670756,1.313679,5.04406,0.05947733,-2.2880251
0.604,4.733234,-6.4335055,1.4319484,5.0853524,0.08000851,-2.2665203
0.606,4.8872037,-6.699196,1.5450592,5.125041,0.0964396,-2.2452416
0.608,5.036104,-6.9635515,1.651156,5.163057,0.1082654,-2.224423
0.61,5.1802316,-7.226408,1.748695,5.19936,0.11508441,-2.2042127
0.612,5.319748,-7.4873085,1.8362199,5.233906,0.11661506,-2.1847005
0.614,5.454711,-7.7458286,1.9126637,5.2666817,0.11270547,-2.1658688
0.616,5.585164,-8.00158,1.9769614,5.2976665,0.10331845,-2.1476183
0.618,5.711695,-8.254089,2.027909,5.326839,0.08851528,-2.129802
0.62,5.8346586,-8.503292,2.0644724,5.354206,0.06848693,-2.1122236
0.622,5.9543915,-8.749128,2.0856228,5.3798156,0.043591976,-2.0946846
0.624,6.071665,-8.991646,2.0906854,5.403768,0.014334917,-2.0769718
0.626,6.186613,-9.230698,2.078977,5.426222,-0.018710136,-2.0588815
0.628,6.2997837,-9.466167,2.050012,5.4473877,-0.054862976,-2.0402508
0.63,6.4115114,-9.697941,2.0037613,5.4675183,-0.09337664,-2.0209754
0.632,6.521557,-9.925598,1.9399575,5.486903,-0.13353753,-2.0009828
0.634,6.629958,-10.148807,1.8584315,5.5057983,-0.17473316,-1.9802557
0.636,6.7369785,-10.367104,1.7597942,5.5244117,-0.21650267,-1.9588481
0.638,6.842429,-10.579924,1.6462121,5.5429096,-0.25855184,-1.936817
0.64,6.945191,-10.786459,1.5183688,5.5613995,-0.3007815,-1.9142405
0.642,7.0446973,-10.984963,1.3740212,5.579915,-0.34332538,-1.8912053
0.644,7.1416445,-11.175133,1.2141538,5.598428,-0.3865707,-1.8677974
0.646,7.234848,-11.355726,1.0421565,5.6168747,-0.43104577,-1.8441058
0.648,7.3234205,-11.525253,0.8599609,5.635159,-0.47736144,-1.8202337
0.65,7.407907,-11.682717,0.66937643,5.653169,-0.5261526,-1.7962754
0.652,7.4879,-11.827602,0.47513837,5.6708384,-0.57799506,-1.7723157
0.654,7.5571394,-11.95591,0.27836442,5.688115,-0.633363,-1.74842
0.656,7.6126833,-12.065546,0.077133,5.7049985,-0.6925926,-1.7246298
0.658,7.6606016,-12.159617,-0.12559688,5.7215214,-0.755842,-1.7010074
0.66,7.705532,-12.240892,-0.3240502,5.7377954,-0.8231008,-1.677602
0.662,7.74146,-12.304314,-0.51723933,5.7539644,-0.8941188,-1.6544657
0.664,7.764989,-12.349157,-0.7007879,5.770212,-0.96850944,-1.6316884
0.666,7.77551,-12.375927,-0.8707309,5.7866497,-1.0460306,-1.6093581
0.668,7.774818,-12.384182,-1.0248969,5.8033395,-1.1265312,-1.5876166
0.67,7.765014,-12.374247,-1.1616325,5.820427,-1.2095704,-1.5665417
0.672,7.7461824,-12.346029,-1.2800044,5.8380785,-1.2947271,-1.546275
0.674,7.7163277,-12.29909,-1.377709,5.856233,-1.3823335,-1.5270659
0.676,7.676388,-12.235601,-1.4506437,5.8747635,-1.4729029,-1.5090984
0.678,7.6291513,-12.158079,-1.4964348,5.8936377,-1.5666838,-1.4925528
0.68,7.575528,-12.06839,-1.5139928,5.9126825,-1.6642416,-1.4777532
0.682,7.5156875,-11.968863,-1.500742,5.9315352,-1.7665817,-1.4650718
0.684,7.450192,-11.862112,-1.4539655,5.949989,-1.8743827,-1.4548945
0.686,7.3806076,-11.750557,-1.3724446,5.968053,-1.9879138,-1.4475405
0.688,7.3094454,-11.636938,-1.2554264,5.985748,-2.107469,-1.4428988
0.69,7.238988,-11.5235615,-1.1028814,6.0032816,-2.2326856,-1.4404421
0.692,7.1714463,-11.41227,-0.91546035,6.0208497,-2.3629637,-1.4401231
0.694,7.109325,-11.305042,-0.6944623,6.038644,-2.4972825,-1.4418886
0.696,7.0552063,-11.203632,-0.44136453,6.057172,-2.633315,-1.4448832
0.698,7.012191,-11.109734,-0.15882897,6.077283,-2.7677855,-1.4477712
0.7,6.98299,-11.024636,0.1492145,6.100185,-2.8965313,-1.4489201
0.702,6.9695234,-10.948774,0.4779246,6.127346,-3.0146778,-1.4465485
0.704,6.973589,-10.882107,0.8221333,6.1604095,-3.1169047,-1.4387553
0.706,6.9965725,-10.824123,1.1762276,6.2012577,-3.1970873,-1.4232899
0.708,7.0397367,-10.773853,1.5347002,6.251876,-3.2486072,-1.3976991
0.71,7.103985,-10.729937,1.8919044,6.3138895,-3.2656105,-1.3599293
0.712,7.1892757,-10.69055,2.2423506,6.388405,-3.2434056,-1.3083849
0.714,7.2951803,-10.653292,2.5808377,6.4758883,-3.1786115,-1.2418778
0.716,7.421067,-10.615939,2.9025908,6.576055,-3.069873,-1.1598185
0.718,7.565839,-10.575754,3.2035797,6.687732,-2.9182134,-1.0623507
0.72,7.727746,-10.529795,3.4807303,6.809017,-2.726935,-0.9503188
0.722,7.9047127,-10.475424,3.7320168,6.9372754,-2.501702,-0.8251865
0.724,8.094084,-10.409962,3.956258,7.0692735,-2.2503085,-0.68893313
0.726,8.29311,-10.331064,4.153328,7.2015777,-1.9815948,-0.5436959
0.728,8.498282,-10.236784,4.324086,7.330901,-1.7043968,-0.39162165
0.73,8.706277,-10.125502,4.47038,7.454053,-1.4276085,-0.23481274
0.732,8.912956,-9.995705,4.594912,7.5680733,-1.1596828,-0.07507765
0.734,9.113903,-9.8462715,4.7008514,7.6706185,-0.90737665,0.086292624
0.736,9.305192,-9.676518,4.791906,7.7599897,-0.6756246,0.24840713
0.738,9.482561,-9.486485,4.871763,7.834895,-0.46801472,0.410725
0.74,9.64226,-9.276431,4.943883,7.894579,-0.28660715,0.5729302
0.742,9.781208,-9.047182,5.011918,7.9389977,-0.13171244,0.7347226
0.744,9.895697,-8.799683,5.0791197,7.9685597,-0.002857685,0.8959147
0.746,9.98184,-8.534672,5.1476626,7.9841857,0.10132575,1.0569731
0.748,10.036431,-8.253212,5.218313,7.987071,0.18247402,1.2180661
0.75,10.057425,-7.956678,5.2930703,7.978318,0.24167955,1.3784959
0.752,10.042466,-7.6470027,5.3754225,7.9589605,0.2800119,1.537374
0.754,9.988389,-7.324828,5.4646835,7.929932,0.29839063,1.6937783
0.756,9.894439,-6.9916167,5.558296,7.892089,0.2975694,1.8467757
0.758,9.759913,-6.64907,5.655493,7.84619,0.27809417,1.9953547
0.76,9.583714,-6.298315,5.7557573,7.792708,0.23982137,2.13826
0.762,9.366546,-5.940215,5.856147,7.731968,0.18233061,2.274307
0.764,9.114197,-5.578534,5.9574323,7.6643977,0.10568994,2.4027646
0.766,8.828198,-5.214245,6.061948,7.5904737,0.010141432,2.5231972
0.768,8.503412,-4.844273,6.166458,7.510607,-0.10415724,2.6352587
0.77,8.140029,-4.4679155,6.266638,7.425247,-0.23675624,2.7388449
0.772,7.748866,-4.091815,6.3638296,7.3349705,-0.38677406,2.8341568
0.774,7.335676,-3.7168398,6.4561806,7.2403955,-0.5531079,2.9215815
0.776,6.9037204,-3.3430414,6.5434313,7.142201,-0.7344001,3.0015864
0.778,6.455238,-2.9717736,6.627265,7.04111,-0.92912793,3.0746613
0.78,5.9933352,-2.6036086,6.7094336,6.937835,-1.1356258,3.141263
0.782,5.5239177,-2.2397342,6.7920766,6.8331456,-1.3521097,3.2018504
0.784,5.0543942,-1.8812245,6.8756104,6.7277865,-1.5767384,3.256872
0.786,4.5889435,-1.5273261,6.9591026,6.6225214,-1.8076022,3.3067899
0.788,4.1306386,-1.1774857,7.044005,6.5180774,-2.0427828,3.3520448
0.79,3.6845393,-0.8323854,7.13262,6.415119,-2.280426,3.3930442
0.792,3.2556255,-0.49226296,7.2253704,6.314249,-2.518763,3.430159
0.794,2.8477068,-0.15717316,7.3225613,6.215948,-2.7561455,3.463725
0.796,2.4631174,0.17239857,7.4256105,6.120627,-2.9910562,3.49397
0.798,2.1029072,0.4963504,7.535843,6.0285873,-3.2221217,3.5210571
0.8,1.7678263,0.81435084,7.654556,5.9400554,-3.4480433,3.545083
0.802,1.4585159,1.1258811,7.7830057,5.855176,-3.66763,3.5661266
0.804,1.1748011,1.4308826,7.922109,5.7740293,-3.8797917,3.5842772
0.806,0.9152713,1.7295833,8.07262,5.696636,-4.0835447,3.5996563
0.808,0.67796826,2.0222516,8.235043,5.6229377,-4.2780013,3.6124156
0.81,0.4607091,2.3091707,8.410021,5.5528216,-4.462347,3.622725
0.812,0.26098776,2.590561,8.597744,5.4861007,-4.6358247,3.6307564
0.814,0.075882435,2.866314,8.797851,5.4225407,-4.797732,3.6366792
0.816,-0.09771466,3.136376,9.009419,5.3618784,-4.947447,3.6406517
0.818,-0.2634616,3.4005272,9.231245,5.303831,-5.0844903,3.6428099
0.82,-0.42541575,3.6587234,9.462121,5.2481165,-5.208491,3.6432486
0.822,-0.58749783,3.910747,9.70061,5.194513,-5.3191576,3.6420488
0.824,-0.7537855,4.156462,9.945343,5.142888,-5.416281,3.6392922
0.826,-0.9283489,4.3958106,10.195017,5.093176,-5.499716,3.6350725
0.828,-1.1149304,4.628575,10.447969,5.0454025,-5.5694003,3.6295369
0.83,-1.3166088,4.854409,10.702194,4.999658,-5.625401,3.622915
0.832,-1.5358102,5.0730534,10.955694,4.956072,-5.667861,3.6154635
0.834,-1.7744447,5.284219,11.206216,4.9148088,-5.697059,3.607408
0.836,-2.0341887,5.488072,11.451723,4.8760123,-5.713356,3.598919
0.838,-2.3163457,5.684809,11.69058,4.8398633,-5.7172217,3.5901277
0.84,-2.6215658,5.874764,11.921236,4.8064656,-5.7093005,3.581035
0.842,-2.9495573,6.057892,12.142127,4.7758474,-5.6904097,3.5715578
0.844,-3.299661,6.234357,12.352148,4.748026,-5.661471,3.5615396
0.846,-3.6705437,6.404254,12.55011,4.722972,-5.623509,3.5507927
0.848,-4.060704,6.5680885,12.734882,4.700661,-5.5775437,3.539119
0.85,-4.4679327,6.7260447,12.905381,4.681053,-5.5245223,3.526381
0.852,-4.8902245,6.878631,13.060896,4.664128,-5.4652257,3.5125399
0.854,-5.325016,7.026522,13.200782,4.649877,-5.4002624,3.4976542
0.856,-5.7692065,7.1700907,13.324617,4.6383615,-5.329992,3.481876
0.858,-6.219908,7.309898,13.432205,4.629673,-5.2545457,3.4654222
0.86,-6.6743045,7.4466476,13.523614,4.6239395,-5.173858,3.4484997
0.862,-7.129608,7.5809073,13.5988245,4.6213045,-5.087722,3.431295
0.864,-7.582945,7.713274,13.657941,4.6218967,-4.995887,3.41392
0.866,-8.031774,7.8444376,13.701034,4.6257935,-4.898147,3.3964052
0.868,-8.473577,7.9750967,13.728184,4.633049,-4.794337,3.378687
0.87,-8.906088,8.105901,13.739429,4.643635,-4.6843896,3.3606548
0.872,-9.32716,8.23742,13.734509,4.6574545,-4.568295,3.342189
0.874,-9.734693,8.370016,13.713584,4.6743517,-4.4461656,3.3231902
0.876,-10.127571,8.504284,13.677009,4.6941085,-4.3182125,3.303623
0.878,-10.5048485,8.640782,13.625262,4.716471,-4.1846747,3.28353
0.88,-10.866201,8.780106,13.558612,4.741194,-4.045803,3.262999
0.882,-11.211591,8.922742,13.47775,4.768039,-3.9018204,3.2421458
0.884,-11.540774,9.069076,13.383326,4.796802,-3.7529616,3.221077
0.886,-11.854001,9.219321,13.275781,4.827265,-3.5995526,3.1998665
0.888,-12.151872,9.3737545,13.155544,4.8591995,-3.4419928,3.1785226
0.89,-12.435227,9.532509,13.02338,4.8923836,-3.280788,3.1569614
0.892,-12.705353,9.695871,12.879699,4.9265265,-3.1165278,3.1349826
0.894,-12.963869,9.864045,12.725007,4.9613023,-2.9499063,3.1123364
0.896,-13.212463,10.0371475,12.559949,4.996335,-2.7817476,3.0886736
0.898,-13.452949,10.21529,12.385119,5.0311346,-2.6130278,3.0636082
0.9,-13.687281,10.398473,12.201266,5.065171,-2.4448333,3.036693
0.902,-13.917355,10.586578,12.009393,5.097922,-2.278334,3.0074573
0.904,-14.1452465,10.779405,11.8107,5.1288567,-2.1147923,2.975419
0.906,-14.372791,10.97685,11.60619,5.157465,-1.9555295,2.9401193
0.908,-14.601684,11.178788,11.396889,5.183325,-1.8017964,2.901167
0.91,-14.833428,11.384982,11.183662,5.206082,-1.6548207,2.8582604
0.912,-15.069508,11.595102,10.967454,5.2254543,-1.5157508,2.8111944
0.914,-15.310841,11.8087225,10.749227,5.2412434,-1.3855922,2.7598798
0.916,-15.5582485,12.025262,10.529785,5.253307,-1.2652158,2.7043157
0.918,-15.812393,12.244374,10.310494,5.261527,-1.1554049,2.6445816
0.92,-16.073566,12.465451,10.092752,5.265832,-1.0568371,2.580801
0.922,-16.34158,12.687705,9.878084,5.266168,-0.9701087,2.5131302
0.924,-16.615938,12.910575,9.668257,5.2625537,-0.8956839,2.441691
0.926,-16.896324,13.13365,9.4648075,5.2550735,-0.8338937,2.3666039
0.928,-17.181734,13.356538,9.269267,5.2439065,-0.7848726,2.287983
0.93,-17.470713,13.578811,9.08304,5.229316,-0.7485473,2.2059405
0.932,-17.761501,13.800057,8.907648,5.2116623,-0.72461295,2.120609
0.934,-18.051825,14.019526,8.744647,5.1913524,-0.712538,2.0321846
0.936,-18.339354,14.236644,8.595317,5.1688147,-0.7115881,1.9408914
0.938,-18.622131,14.451004,8.461246,5.144464,-0.720921,1.8469937
0.94,-18.89799,14.662153,8.343984,5.1186566,-0.73965615,1.7507713
0.942,-19.164946,14.869856,8.2450485,5.091692,-0.76695555,1.6524593
0.944,-19.420647,15.073799,8.16589,5.063762,-0.802105,1.552213
0.946,-19.662857,15.273486,8.107788,5.0349746,-0.84456617,1.4501057
0.948,-19.889256,15.4686165,8.071395,5.005348,-0.8939474,1.346101
0.95,-20.097935,15.658972,8.057508,4.974851,-0.94995326,1.2401206
0.952,-20.287657,15.844801,8.066896,4.943428,-1.0123342,1.1320096
0.954,-20.457186,16.026224,8.100214,4.9110026,-1.0807977,1.021606
0.956,-20.60605,16.203531,8.158219,4.8774896,-1.1549761,0.9087427
0.958,-20.733883,16.376995,8.241499,4.842844,-1.2343018,0.7932986
0.96,-20.841057,16.547047,8.35057,4.8070555,-1.3180658,0.67518675
0.962,-20.927856,16.71402,8.485582,4.770142,-1.4054338,0.5543641
0.964,-20.995232,16.878284,8.6465,4.7321796,-1.4953656,0.43087202
0.966,-21.04428,17.04023,8.83288,4.693274,-1.5867512,0.3048335
0.968,-21.076899,17.20069,9.04348,4.653545,-1.6784779,0.17642023
0.97,-21.094973,17.360325,9.278428,4.6131587,-1.769415,0.04587111
0.972,-21.101643,17.51965,9.539238,4.572297,-1.8584125,-0.086513065
0.974,-21.09985,17.679491,9.824205,4.5311255,-1.9443773,-0.22041632
0.976,-21.09132,17.84053,10.12966,4.4898295,-2.0262735,-0.35548913
0.978,-21.07877,18.003275,10.454315,4.4485793,-2.1031497,-0.49137795
0.98,-21.064808,18.168356,10.797728,4.4075065,-2.1741729,-0.6277932
0.982,-21.051893,18.336357,11.15971,4.3666897,-2.2386327,-0.76450163
0.984,-21.042854,18.50756,11.53952,4.3261724,-2.295926,-0.9013502
0.986,-21.039635,18.681904,11.934861,4.285954,-2.3455837,-1.0382969
0.988,-21.043957,18.859753,12.343096,4.2459993,-2.387273,-1.1754229
0.99,-21.056986,19.040974,12.762287,4.206256,-2.4207911,-1.312885
0.992,-21.079447,19.225159,13.1899395,4.1666546,-2.446041,-1.4509068
0.994,-21.112335,19.412373,13.623991,4.127147,-2.462998,-1.5897436
0.996,-21.155909,19.60234,14.062248,4.087694,-2.4716868,-1.7296197
0.998,-21.20958,19.79431,14.503084,4.0482726,-2.4721408,-1.870739
1,-21.273762,19.988285,14.945202,4.008848,-2.4645495,-2.0132928
1.002,-21.347553,20.183498,15.387245,3.9693968,-2.4490986,-2.1573994
1.004,-21.428947,20.379097,15.825921,3.9300008,-2.4256933,-2.3030448
1.006,-21.515697,20.574234,16.25842,3.8906937,-2.394381,-2.4502034
1.008,-21.605383,20.767864,16.683016,3.8514655,-2.355527,-2.5988104
1.01,-21.695719,20.959372,17.098759,3.8123407,-2.3094766,-2.7487366
1.012,-21.784334,21.147861,17.505096,3.7732966,-2.256668,-2.8999372
1.014,-21.8688,21.332275,17.900507,3.734262,-2.1976223,-3.052411
1.016,-21.946821,21.511536,18.283213,3.695179,-2.132865,-3.2060885
1.018,-22.015696,21.684643,18.65219,3.6560197,-2.0631154,-3.3609269
1.02,-22.073772,21.850822,19.006351,3.6167934,-1.9891627,-3.5168777
1.022,-22.118698,22.008955,19.344872,3.577528,-1.9118621,-3.6738477
1.024,-22.148556,22.158028,19.667337,3.5382447,-1.832059,-3.8317766
1.026,-22.161987,22.297392,19.973133,3.4989667,-1.7505337,-3.9906137
1.028,-22.157677,22.426516,20.260818,3.4596887,-1.6679962,-4.150258
1.03,-22.134094,22.544556,20.529171,3.4203556,-1.5851344,-4.3106565
1.032,-22.090439,22.65085,20.77774,3.3809397,-1.5023535,-4.4717464
1.034,-22.026442,22.744675,21.005865,3.3414602,-1.4198472,-4.6334357
1.036,-21.941772,22.825386,21.213224,3.301904,-1.3379264,-4.795661
1.038,-21.836973,22.892393,21.399437,3.262259,-1.2568849,-4.9583354
1.04,-21.712814,22.94527,21.563961,3.222499,-1.1770737,-5.121393
1.042,-21.57031,22.98384,21.706554,3.182596,-1.0988863,-5.2847986
1.044,-21.410763,23.008158,21.827166,3.1425657,-1.0227412,-5.448489
1.046,-21.23545,23.018229,21.92574,3.102452,-0.94926035,-5.6124
1.048,-21.04542,23.013983,22.002369,3.062276,-0.87930584,-5.776484
1.05,-20.841974,22.995808,22.057255,3.0220861,-0.81388116,-5.9407635
1.052,-20.62624,22.964033,22.090448,2.9818845,-0.75408006,-6.1052895
1.054,-20.399662,22.919172,22.102425,2.9416614,-0.70090485,-6.2701206
1.056,-20.163307,22.86182,22.093836,2.9013445,-0.65536404,-6.4353895
1.058,-19.918335,22.792467,22.065878,2.8607492,-0.61847234,-6.601295
1.06,-19.665699,22.711695,22.019627,2.819725,-0.5908303,-6.7679777
1.062,-19.405542,22.620022,21.95618,2.7781389,-0.57262444,-6.935568
1.064,-19.138489,22.518118,21.87668,2.7358072,-0.56395435,-7.1042027
1.066,-18.864529,22.406818,21.782816,2.6926072,-0.56471205,-7.2739015
1.068,-18.583477,22.28688,21.676304,2.6484745,-0.57461095,-7.444637
1.07,-18.294912,22.159243,21.55899,2.6033807,-0.5932722,-7.6163836
1.072,-17.998308,22.024765,21.432814,2.5573533,-0.6202018,-7.7890153
1.074,-17.692768,21.884094,21.299755,2.510497,-0.6549425,-7.9623857
1.076,-17.377441,21.738125,21.161835,2.4629555,-0.69711065,-8.136349
1.078,-17.05052,21.587198,21.021404,2.4148688,-0.74646497,-8.310737
1.08,-16.71078,21.432165,20.879395,2.366373,-0.80284977,-8.485397
1.082,-16.356052,21.273745,20.736088,2.3175504,-0.86610174,-8.660232
1.084,-15.9848585,21.112421,20.59492,2.2684472,-0.93600225,-8.835156
1.086,-15.5971985,20.94882,20.460127,2.219024,-1.0123909,-9.0101
1.088,-15.191625,20.783503,20.332668,2.1692266,-1.0949512,-9.185007
1.09,-14.766958,20.616825,20.212563,2.1190574,-1.1830492,-9.359749
1.092,-14.322272,20.44928,20.1005,2.0684981,-1.2760582,-9.534192
1.094,-13.856422,20.281713,19.997402,2.0175974,-1.3733835,-9.708127
1.096,-13.368698,20.11477,19.905434,1.9663744,-1.474587,-9.881329
1.098,-12.858749,19.948738,19.826504,1.9147933,-1.5794239,-10.053618
1.1,-12.326389,19.784052,19.761494,1.8627802,-1.6877832,-10.22485
1.102,-11.771631,19.621399,19.711115,1.810209,-1.7997456,-10.394919
1.104,-11.194046,19.460806,19.676008,1.7568736,-1.9156466,-10.563745
1.106,-10.594265,19.302784,19.656921,1.7025484,-2.0360126,-10.731285
1.108,-9.973027,19.148134,19.654062,1.6469588,-2.1614728,-10.897547
1.11,-9.330224,18.996822,19.66746,1.5897745,-2.2926936,-11.06256
1.112,-8.666536,18.849533,19.69751,1.5306528,-2.4303255,-11.226337
1.114,-7.9836025,18.707043,19.746279,1.4692674,-2.5748634,-11.388875
1.116,-7.2830925,18.569963,19.814857,1.4053133,-2.7266798,-11.550148
1.118,-6.566464,18.43876,19.9031,1.3385332,-2.8860426,-11.710094
1.12,-5.8350253,18.313559,20.010193,1.2687023,-3.053143,-11.868635
1.122,-5.090228,18.194782,20.135284,1.1956112,-3.2280502,-12.025685
1.124,-4.333492,18.082779,20.278563,1.1190386,-3.4108214,-12.181149
1.126,-3.5663738,17.977861,20.440434,1.0387485,-3.601462,-12.334898
1.128,-2.790955,17.880419,20.620491,0.954474,-3.799983,-12.486746
1.13,-2.0081635,17.790426,20.818714,0.8659084,-4.0064325,-12.6364765
1.132,-1.220398,17.70847,21.034883,0.77271557,-4.220851,-12.783804
1.134,-0.42987633,17.634886,21.268707,0.67448807,-4.4433193,-12.928428
1.136,0.36170673,17.569582,21.520094,0.5708165,-4.673896,-13.069994
1.138,1.1525888,17.512558,21.789186,0.46127558,-4.912565,-13.208099
1.14,1.9405174,17.46399,22.075771,0.34549046,-5.1592245,-13.342295
1.142,2.7238274,17.424097,22.378685,0.22318268,-5.413635,-13.4721155
1.144,3.501072,17.393326,22.696787,0.094168186,-5.6754293,-13.597103
1.146,4.2713423,17.372175,23.028912,-0.04155779,-5.944068,-13.716823
1.148,5.034424,17.36099,23.374119,-0.18388462,-6.21883,-13.830841
1.15,5.7897644,17.360197,23.731636,-0.33256054,-6.49884,-13.938814
1.152,6.5374966,17.369946,24.100544,-0.48722267,-6.783111,-14.040518
1.154,7.277424,17.390743,24.479599,-0.64737654,-7.0705833,-14.135815
1.156,8.010397,17.422981,24.867847,-0.81244373,-7.360112,-14.224618
1.158,8.737932,17.46681,25.263958,-0.9817648,-7.6505322,-14.306953
1.16,9.461438,17.52245,25.666977,-1.1546206,-7.94065,-14.3828745
1.162,10.182487,17.589958,26.076136,-1.3302417,-8.229242,-14.452419
1.164,10.90354,17.669147,26.490593,-1.5078173,-8.515096,-14.515579
1.166,11.626822,17.75986,26.909195,-1.686554,-8.797083,-14.572286
1.168,12.355085,17.861855,27.330708,-1.8656955,-9.074317,-14.622396
1.17,13.091266,17.974651,27.75392,-2.0446043,-9.346197,-14.665712
1.172,13.837894,18.097473,28.178005,-2.222794,-9.612566,-14.701973
1.174,14.59785,18.229284,28.60229,-2.3999443,-9.873674,-14.730912
1.176,15.373694,18.368565,29.025894,-2.5759335,-10.130247,-14.752243
1.178,16.167702,18.513544,29.448065,-2.7507997,-10.383385,-14.765706
1.18,16.982,18.66203,29.868008,-2.9247146,-10.634431,-14.771074
1.182,17.818584,18.811972,30.28514,-3.0979056,-10.88477,-14.76811
1.184,18.679329,18.9607,30.698866,-3.2705865,-11.135615,-14.7565975
1.186,19.565311,19.105646,31.10853,-3.442894,-11.387809,-14.736343
1.188,20.477167,19.243954,31.513647,-3.6147966,-11.64168,-14.707178
1.19,21.415342,19.372662,31.914062,-3.7860718,-11.896983,-14.668932
1.192,22.379902,19.488823,32.309418,-3.956262,-12.152944,-14.62145
1.194,23.37041,19.589224,32.699608,-4.1246905,-12.408281,-14.564586
1.196,24.386774,19.670523,33.084423,-4.2904963,-12.661342,-14.498186
1.198,25.427753,19.729973,33.463867,-4.452656,-12.910236,-14.422098
1.2,26.492111,19.764746,33.8378,-4.610061,-13.153074,-14.336166
1.202,27.578777,19.772299,34.205883,-4.7615914,-13.388079,-14.240257
1.204,28.686459,19.750156,34.567783,-4.9061174,-13.6136675,-14.134197
1.206,29.813381,19.69637,34.92328,-5.042632,-13.828529,-14.017813
1.208,30.957792,19.609213,35.272575,-5.1702538,-14.03158,-13.890932
1.21,32.117672,19.487684,35.615993,-5.288254,-14.222038,-13.753431
1.212,33.290985,19.331211,35.95408,-5.3960423,-14.399382,-13.60523
1.214,34.4758,19.139357,36.287178,-5.4931583,-14.5632715,-13.44628
1.216,35.670666,18.911617,36.615776,-5.5792227,-14.713523,-13.276648
1.218,36.873688,18.648163,36.94077,-5.653902,-14.850056,-13.096458
1.22,38.083275,18.34975,37.262783,-5.716832,-14.97279,-12.905934
1.222,39.2972,18.0177,37.582275,-5.767617,-15.081603,-12.705391
1.224,40.513496,17.6535,37.89923,-5.805707,-15.176326,-12.495212
1.226,41.730934,17.259117,38.213486,-5.8304763,-15.256795,-12.275827
1.228,42.948277,16.836529,38.525013,-5.8411674,-15.3229265,-12.047766
1.23,44.164783,16.388151,38.83499,-5.8369517,-15.374655,-11.811587
1.232,45.379692,15.916653,39.145004,-5.8169675,-15.412067,-11.567874
1.234,46.59228,15.42485,39.45714,-5.780343,-15.435514,-11.317242
1.236,47.801823,14.915595,39.773388,-5.726264,-15.445596,-11.060279
1.238,49.007923,14.392266,40.0954,-5.654,-15.443245,-10.797519
1.24,50.209976,13.8583355,40.424454,-5.5629435,-15.429732,-10.529461
1.242,51.408455,13.317273,40.76183,-5.4526315,-15.406626,-10.256538
1.244,52.603992,12.772842,41.10844,-5.3227797,-15.375774,-9.979166
1.246,53.79747,12.229179,41.465733,-5.1732802,-15.339342,-9.697704
1.248,54.990887,11.689879,41.8349,-5.0041966,-15.299764,-9.412437
1.25,56.186474,11.159991,42.217575,-4.8157215,-15.259568,-9.123554
1.252,57.386414,10.64439,42.6152,-4.6082096,-15.22137,-8.831216
1.254,58.59405,10.147665,43.030178,-4.3821006,-15.187707,-8.535492
1.256,59.81182,9.675589,43.46462,-4.137903,-15.160913,-8.236315
1.258,61.04447,9.233201,43.920464,-3.8761394,-15.143124,-7.933461
1.26,62.294807,8.82769,44.40017,-3.5972743,-15.135979,-7.62646
1.262,63.56717,8.466445,44.905613,-3.301644,-15.140568,-7.314623
1.264,64.8663,8.157516,45.438465,-2.9895046,-15.157408,-6.9970274
1.266,66.1978,7.908491,46.000175,-2.6610281,-15.186478,-6.672521
1.268,67.56732,7.7291985,46.592964,-2.3162544,-15.227227,-6.339795
1.27,68.979744,7.6309843,47.22071,-1.9550786,-15.278611,-5.9974937
1.272,70.434906,7.630245,47.884747,-1.5772208,-15.339135,-5.6442246
1.274,71.94016,7.735611,48.586647,-1.1822691,-15.407089,-5.2786937
1.276,73.50382,7.950962,49.330933,-0.7696982,-15.480501,-4.899716
1.278,75.125854,8.2907715,50.127167,-0.3388643,-15.557228,-4.506316
1.28,76.807236,8.779643,50.975697,0.110933736,-15.635036,-4.097531
1.282,78.55149,9.442136,51.86644,0.58035713,-15.711554,-3.6725082
1.284,80.371155,10.289363,52.802475,1.0700105,-15.784413,-3.230623
1.286,82.264854,11.34856,53.7874,1.5803214,-15.851273,-2.7714233
1.288,84.2285,12.648563,54.829147,2.1114876,-15.910005,-2.2944725
1.29,86.256134,14.22061,55.931717,2.6633747,-15.958759,-1.7994971
1.292,88.34229,16.088686,57.095486,3.235518,-15.996008,-1.2863369
1.294,90.48171,18.258875,58.309,3.827094,-16.020649,-0.75480914
1.296,92.64947,20.755482,59.58033,4.4368467,-16.032003,-0.20468569
1.298,94.837456,23.600128,60.912647,5.0630236,-16.029846,0.364666
1.3,97.045685,26.802313,62.32261,5.7033453,-16.01437,0.95402026
1.302,99.2712,30.375324,63.819775,6.355421,-15.985544,1.5641372
1.304,101.48803,34.35099,65.39108,7.0166984,-15.942557,2.1970468
1.306,103.73634,38.716995,67.05823,7.6838493,-15.884358,2.856982
1.308,105.94386,43.45884,68.89451,8.353239,-15.80864,3.54954
1.31,108.140495,48.547306,70.94095,9.022574,-15.709366,4.281743
1.312,110.44981,53.972057,73.15425,9.690549,-15.577289,5.061554
1.314,112.839066,59.773003,75.47528,10.35437,-15.403312,5.8983746
1.316,115.27037,65.966576,77.87463,11.010713,-15.177496,6.8031363
1.318,117.75403,72.517265,80.37247,11.657196,-14.885105,7.7879405
1.32,120.28854,79.32616,83.08533,12.291647,-14.507784,8.864992
1.322,122.88169,86.30107,86.10113,12.911802,-14.024326,10.045643
1.324,125.572784,93.43309,89.30046,13.515301,-13.410744,11.340422
1.326,128.37814,100.612564,92.552155,14.098103,-12.6407795,12.756796
1.328,131.41699,108.053696,95.79133,14.654666,-11.683979,14.298225
1.33,134.66873,115.482,99.19685,15.176332,-10.507254,15.966675
1.332,138.10551,122.58328,102.82289,15.651947,-9.073418,17.763523
1.334,141.815,129.42435,106.56774,16.062794,-7.3585,19.677097
1.336,145.8343,135.90196,110.38931,16.380375,-5.3454523,21.692266
1.338,150.18542,141.9748,114.21219,16.573984,-3.0133104,23.795555
1.34,154.83301,147.58942,117.954056,16.618801,-0.3500309,25.971756
1.342,159.76057,152.59796,121.55243,16.499886,2.6406393,28.209911
1.344,165.00696,156.86327,124.944534,16.140488,5.7227907,30.354992
1.346,170.64392,160.32246,128.10263,15.554851,8.922533,32.408707
1.348,176.62602,162.99237,130.93555,14.8108635,12.377872,34.461353
1.35,182.88452,164.88109,133.32008,13.882551,15.845041,36.355827
1.352,189.37672,165.99019,135.11575,12.802054,19.216629,37.999718
1.354,196.04031,166.31793,136.22307,11.629098,22.37704,39.307693
1.356,202.8167,165.87096,136.53629,10.449304,25.22025,40.20672
1.358,209.59775,164.69066,135.95001,9.391209,27.648218,40.595413
1.36,216.25317,162.84819,134.38396,8.620459,29.641489,40.38855
1.362,222.68837,160.39539,131.79277,8.266505,31.244936,39.524326
1.364,228.7617,157.37622,128.13725,8.449018,32.55539,37.95574
1.366,234.31139,153.8646,123.387886,9.256113,33.704777,35.665714
1.368,239.20747,149.93106,117.54795,10.711755,34.832687,32.667316
1.37,243.32147,145.64142,110.66704,12.761381,36.039696,28.995031
1.372,246.52887,141.0737,102.825485,15.267804,37.351913,24.708603
1.374,248.7252,136.306,94.13968,18.026707,38.730614,19.909561
1.376,249.82088,131.41318,84.764435,20.787378,40.057556,14.724928
1.378,249.74904,126.463196,74.88546,23.278404,41.135277,9.283291
1.38,248.4754,121.51738,64.70567,25.239786,41.726894,3.716875
1.382,246.00217,116.62523,54.446304,26.455462,41.599007,-1.8365746
1.384,242.34532,111.8481,44.334396,26.772602,40.55894,-7.238907
1.386,237.54807,107.24894,34.59101,26.110952,38.47904,-12.353382
1.388,231.68985,102.87334,25.422844,24.472998,35.331284,-17.041594
1.39,224.87233,98.755714,17.026367,21.937977,31.178974,-21.184912
1.392,217.21684,94.93561,9.578552,18.639965,26.154675,-24.686888
1.394,208.85661,91.465065,3.2079163,14.748785,20.458233,-27.471361
1.396,199.95503,88.37527,-1.9956589,10.455877,14.34504,-29.498398
1.398,190.68199,85.69312,-5.980915,6.0058413,8.216984,-30.676945
1.4,181.20618,83.43883,-8.725559,1.5504727,2.173564,-31.131184
1.402,171.69087,81.62874,-10.249512,-2.7665803,-3.6665297,-31.012802
1.404,162.28934,80.28124,-10.607147,-6.7184715,-8.854623,-30.264349
1.406,153.15562,79.380516,-9.903839,-10.18029,-13.226904,-28.993288
1.408,144.4048,78.903015,-8.261036,-13.068041,-16.656506,-27.335487
1.41,136.12805,78.824554,-5.8288803,-15.335161,-19.069002,-25.432703
1.412,128.40286,79.10321,-2.7583714,-16.983572,-20.437998,-23.389317
1.414,121.30547,79.67331,0.8125534,-18.049726,-20.830652,-21.314129
1.416,114.83208,80.50266,4.712679,-18.559135,-20.363047,-19.305809
1.418,109.0661,81.54286,8.746403,-18.58307,-19.186249,-17.437613
1.42,103.962814,82.743454,12.784479,-18.219639,-17.477577,-15.769433
1.422,99.40909,84.025604,16.785952,-17.571627,-15.428719,-14.3454075
1.424,95.44946,85.27332,20.711277,-16.745333,-13.226854,-13.189315
1.426,92.09426,86.414635,24.489689,-15.845069,-11.046359,-12.313908
1.428,89.28514,87.43144,28.025032,-14.970286,-9.056057,-11.731294
1.43,86.96878,88.346436,31.183607,-14.207523,-7.3867636,-11.433256
1.432,85.07854,89.14971,33.92404,-13.622926,-6.116574,-11.382885
1.434,83.52325,89.75655,36.40539,-13.260393,-5.2856417,-11.532783
1.436,82.24306,90.19017,38.741104,-13.143974,-4.902255,-11.83539
1.438,81.1026,90.21347,40.94726,-13.27469,-4.9427633,-12.243939
1.44,80.11838,90.09107,42.84826,-13.633641,-5.3557186,-12.713838
1.442,79.289345,90.01274,44.4601,-14.19104,-6.0768247,-13.201998
1.444,78.50653,89.78642,45.93459,-14.910418,-7.0360794,-13.665934
1.446,77.73322,89.44401,47.32335,-15.7500305,-8.158678,-14.069543
1.448,76.950165,88.97211,48.685535,-16.665993,-9.373341,-14.383204
1.45,76.17975,88.39445,50.057396,-17.615623,-10.622969,-14.578982
1.452,75.405716,87.82209,51.436825,-18.56123,-11.85718,-14.635389
1.454,74.560356,87.32887,52.813694,-19.471891,-13.033842,-14.541047
1.456,73.56891,86.91272,54.14704,-20.32269,-14.121866,-14.293061
1.458,72.47497,86.524155,55.457672,-21.093792,-15.098106,-13.895723
1.46,71.31398,86.161545,56.776886,-21.77016,-15.945881,-13.358926
1.462,70.07464,85.85014,58.127823,-22.340916,-16.653996,-12.695736
1.464,68.75536,85.6266,59.48313,-22.798471,-17.215061,-11.921289
1.466,67.34383,85.52029,60.825455,-23.137966,-17.624472,-11.052614
1.468,65.86441,85.53207,62.14244,-23.35696,-17.880173,-10.108028
1.47,64.34311,85.64635,63.408054,-23.454853,-17.98244,-9.1070385
1.472,62.76246,85.87527,64.58597,-23.432259,-17.933466,-8.070673
1.474,61.1482,86.23396,65.66137,-23.291235,-17.737524,-7.020915
1.476,59.532135,86.70399,66.63363,-23.03579,-17.40105,-5.9790087
1.478,57.909462,87.27293,67.49306,-22.67192,-16.932459,-4.963627
1.48,56.284958,87.92786,68.21556,-22.207684,-16.342115,-3.989864
1.482,54.667526,88.64281,68.783264,-21.652792,-15.641987,-3.0689926
1.484,53.06151,89.392624,69.17745,-21.01781,-14.845736,-2.2080564
1.486,51.474636,90.15622,69.37676,-20.314096,-13.968421,-1.409982
1.488,49.914055,90.91649,69.362206,-19.553833,-13.025286,-0.67442477
1.49,48.38163,91.65891,69.124344,-18.750076,-12.031536,0.00095534325
1.492,46.876755,92.37322,68.6583,-17.9164,-11.002804,0.61948764
1.494,45.40577,93.04255,67.96549,-17.066444,-9.955245,1.1848524
1.496,43.97576,93.6493,67.05312,-16.21356,-8.905439,1.7006798
1.498,42.590073,94.18183,65.9337,-15.370552,-7.8701434,2.1702735
1.5,41.249466,94.63065,64.62357,-14.549503,-6.8659906,2.5964239
1.502,39.952137,94.985146,63.141487,-13.761456,-5.9090815,2.981391
1.504,38.694004,95.23458,61.508625,-13.016143,-5.014538,3.3268733
1.506,37.468113,95.37223,59.749813,-12.321735,-4.1959925,3.634096
1.508,36.267647,95.39503,57.888077,-11.684643,-3.4652734,3.9040136
1.51,35.087456,95.30306,55.943047,-11.109349,-2.8319147,4.1375704
1.512,33.920967,95.100876,53.942196,-10.598325,-2.3028178,4.336037
1.514,32.761368,94.794525,51.916748,-10.152024,-1.8820802,4.501054
1.516,31.602938,94.39104,49.89281,-9.769088,-1.5709739,4.634714
1.518,30.440397,93.89757,47.89173,-9.446647,-1.3680229,4.7396264
1.52,29.267895,93.32043,45.932747,-9.180592,-1.2693636,4.8187876
1.522,28.078999,92.66602,44.034233,-8.965906,-1.2690382,4.8755035
1.524,26.867846,91.940254,42.212376,-8.796952,-1.3592107,4.9133406
1.526,25.629234,91.14898,40.48117,-8.667656,-1.530411,4.9360747
1.528,24.358887,90.298805,38.853462,-8.57177,-1.7718813,4.9475775
1.53,23.054193,89.39704,37.338604,-8.50299,-2.0718265,4.9516892
1.532,21.714127,88.45136,35.942944,-8.455107,-2.417608,4.9521837
1.534,20.33911,87.46965,34.670006,-8.422112,-2.79596,4.952692
1.536,18.931557,86.45971,33.519974,-8.398238,-3.1932135,4.956649
1.538,17.494926,85.428444,32.49039,-8.378009,-3.595502,4.967273
1.54,16.034678,84.382324,31.57635,-8.356293,-3.989068,4.9875927
1.542,14.556313,83.327576,30.770424,-8.32829,-4.360468,5.0203066
1.544,13.066756,82.26956,30.063341,-8.289584,-4.6967764,5.0677404
1.546,11.573998,81.21307,29.443096,-8.236253,-4.9859676,5.131704
1.548,10.086893,80.162575,28.895828,-8.164977,-5.217237,5.2134266
1.55,8.615478,79.12148,28.406843,-8.073104,-5.3812137,5.3135705
1.552,7.1698756,78.0928,27.960762,-7.9586325,-5.4700656,5.432245
1.554,5.760352,77.07953,27.542364,-7.820301,-5.4776707,5.5690084
1.556,4.397338,76.08436,27.136269,-7.6576195,-5.3998194,5.722933
1.558,3.0913017,75.10907,26.726883,-7.4708033,-5.2341266,5.892557
1.56,1.8518391,74.15549,26.298164,-7.2607455,-4.980035,6.075933
1.562,0.6886057,73.2246,25.834145,-7.0288467,-4.6386757,6.270709
1.564,-0.38946837,72.31709,25.319136,-6.77693,-4.212726,6.474195
1.566,-1.374775,71.433105,24.738327,-6.507129,-3.7062345,6.68335
1.568,-2.2609115,70.57303,24.077682,-6.221808,-3.1244926,6.8948717
1.57,-3.043029,69.73653,23.324627,-5.923363,-2.4738204,7.105359
1.572,-3.716058,68.92214,22.467781,-5.6141415,-1.7614403,7.3114743
1.574,-4.2783465,68.12856,21.497292,-5.296422,-0.99532914,7.510101
1.576,-4.7301044,67.35431,20.4056,-4.972445,-0.18420935,7.698352
1.578,-5.0715003,66.59689,19.186665,-4.644477,0.66252446,7.873556
1.58,-5.3042564,65.85347,17.836645,-4.314846,1.534915,8.033283
1.582,-5.43159,65.12101,16.353914,-3.9859066,2.4226012,8.175363
1.584,-5.4583893,64.39644,14.738632,-3.6601171,3.314871,8.297873
1.586,-5.3898516,63.676292,12.992788,-3.3399973,4.2007823,8.399088
1.588,-5.2324224,62.956696,11.120867,-3.0281277,5.0693254,8.4775
1.59,-4.9928875,62.23375,9.128817,-2.7271023,5.9096346,8.53188
1.592,-4.6789293,61.5036,7.024832,-2.4394257,6.7111626,8.561217
1.594,-4.2989354,60.762363,4.818695,-2.1674418,7.4638567,8.564631
1.596,-3.861845,60.006355,2.5221786,-1.913309,8.158274,8.541394
1.598,-3.3766193,59.2317,0.14884567,-1.6788485,8.785822,8.490859
1.6,-2.852087,58.434906,-2.2859612,-1.4653988,9.339045,8.412472
1.602,-2.297783,57.61302,-4.7659473,-1.2737985,9.81166,8.305784
1.604,-1.7225208,56.763107,-7.2735806,-1.1044002,10.198681,8.1704035
1.606,-1.1355085,55.882347,-9.790533,-0.95691395,10.496672,8.005898
1.608,-0.54560566,54.96835,-12.297733,-0.8304327,10.703695,7.811871
1.61,0.03886032,54.01931,-14.775987,-0.7236196,10.819076,7.5880156
1.612,0.6098633,53.034157,-17.206005,-0.63478804,10.843369,7.334274
1.614,1.1598969,52.012306,-19.568628,-0.56201166,10.778194,7.0509667
1.616,1.6820736,50.95379,-21.845106,-0.50328815,10.626035,6.7388144
1.618,2.1702595,49.859623,-24.01781,-0.45663977,10.390038,6.399116
1.62,2.6188946,48.73165,-26.070269,-0.42015254,10.074041,6.0339055
1.622,3.022766,47.572865,-27.987621,-0.3919556,9.682523,5.6460447
1.624,3.3779926,46.38687,-29.756725,-0.37031037,9.220616,5.239071
1.626,3.6814308,45.17801,-31.366014,-0.35353953,8.694209,4.8171415
1.628,3.931118,43.95111,-32.805676,-0.33992887,8.110003,4.384965
1.63,4.1260433,42.711945,-34.068047,-0.3276273,7.4756193,3.9476976
1.632,4.265892,41.46701,-35.147774,-0.31459445,6.799551,3.510773
1.634,4.3513775,40.22298,-36.041504,-0.29861754,6.091109,3.0796664
1.636,4.3841057,38.98732,-36.748375,-0.2773751,5.3602057,2.6596713
1.638,4.3666763,37.76662,-37.269814,-0.24843001,4.6171656,2.2556856
1.64,4.302328,36.56765,-37.609207,-0.20931932,3.8723893,1.8720667
1.642,4.194891,35.39733,-37.77177,-0.16051602,3.1261642,1.5064316
1.644,4.049322,34.261803,-37.764526,-0.09572509,2.4013338,1.1698766
1.646,3.870432,33.1666,-37.59531,-0.014762461,1.6999698,0.8605093
1.648,3.663803,32.117023,-37.273598,0.08392355,1.0287099,0.57919955
1.65,3.4353275,31.117786,-36.81038,0.20152238,0.3929553,0.3261508
1.652,3.190918,30.172684,-36.217587,0.33879107,-0.20299974,0.10103375
1.654,2.9370003,29.28475,-35.507874,0.4960722,-0.7558143,-0.0968065
1.656,2.6796436,28.45609,-34.69401,0.6733614,-1.2627618,-0.26820534
1.658,2.4247208,27.688026,-33.788532,0.870342,-1.721611,-0.4139379
1.66,2.1774807,26.98135,-32.804226,1.0862775,-2.1307254,-0.5345588
1.662,1.9431934,26.336128,-31.753763,1.320138,-2.488861,-0.6304882
1.664,1.7266998,25.751715,-30.64954,1.5706513,-2.7953303,-0.70215815
1.666,1.5326939,25.226816,-29.503338,1.8361862,-3.0505397,-0.7502208
1.668,1.3646946,24.760153,-28.325882,2.1147304,-3.256278,-0.77574843
1.67,1.226553,24.349733,-27.126785,2.4039075,-3.4157894,-0.7803925
1.672,1.120779,23.993607,-25.914396,2.7009742,-3.5338268,-0.76648635
1.674,1.0494976,23.689373,-24.695957,3.0029495,-3.6164684,-0.7369595
1.676,1.0146036,23.434906,-23.477676,3.3067255,-3.6706448,-0.69520116
1.678,1.01754,23.227806,-22.264553,3.6092687,-3.7036252,-0.64472985
1.68,1.0591536,23.065882,-21.060839,3.9078383,-3.7224445,-0.5889234
1.682,1.1388912,22.947784,-19.869904,4.2000933,-3.7334554,-0.53080636
1.684,1.2575159,22.871162,-18.694336,4.4841785,-3.7420475,-0.47286898
1.686,1.4150896,22.833405,-17.536488,4.7587466,-3.752535,-0.41699362
1.688,1.6100445,22.832745,-16.397722,5.0229073,-3.7681794,-0.36450207
1.69,1.8407202,22.867699,-15.27887,5.276158,-3.7913003,-0.31623507
1.692,2.1056232,22.936718,-14.180563,5.5182776,-3.8234363,-0.2726668
1.694,2.4033718,23.038347,-13.102764,5.7492504,-3.8654716,-0.23399544
1.696,2.731924,23.171247,-12.045287,5.9708624,-3.9120243,-0.19670331
1.698,3.089344,23.334414,-11.008001,6.1791224,-3.9770482,-0.1693387
1.7,3.4735532,23.526855,-9.990525,6.3770366,-4.0508204,-0.14603686
1.702,3.8824348,23.74767,-8.99253,6.5647664,-4.1330223,-0.12689924
1.704,4.313933,23.995674,-8.013821,6.7425785,-4.222995,-0.1119616
1.706,4.7660813,24.270138,-7.054262,6.9108067,-4.319846,-0.101159215
1.708,5.236898,24.570162,-6.1138277,7.069853,-4.4225836,-0.094374895
1.71,5.724306,24.894917,-5.192483,7.220187,-4.530228,-0.09144533
1.712,6.2265987,25.24348,-4.2902603,7.3623114,-4.6418877,-0.092230916
1.714,6.741864,25.615076,-3.4073324,7.4967203,-4.756824,-0.096601605
1.716,7.2687826,26.008823,-2.5435896,7.6238933,-4.8744936,-0.104435325
1.718,7.8057494,26.423727,-1.6991758,7.744277,-4.9945135,-0.11560762
1.72,8.3515415,26.858797,-0.8740282,7.858234,-5.116705,-0.13003373
1.722,8.905077,27.31288,-0.06802559,7.9659867,-5.2410874,-0.14767563
1.724,9.465318,27.784521,0.71904945,8.067674,-5.3678846,-0.16859734
1.726,10.031459,28.272224,1.4876661,8.163276,-5.4974747,-0.1929524
1.728,10.602705,28.77431,2.2384787,8.252673,-5.630307,-0.22093856
1.73,11.17824,29.28902,2.9722648,8.335635,-5.766834,-0.25278473
1.732,11.757587,29.814257,3.68992,8.411865,-5.9074907,-0.28870714
1.734,12.340075,30.347883,4.392664,8.480997,-6.0525966,-0.3288834
1.736,12.925221,30.887474,5.0816784,8.542688,-6.2023177,-0.37344575
1.738,13.512298,31.430788,5.758365,8.596641,-6.3566093,-0.42246163
1.74,14.100849,31.975277,6.4242206,8.6426735,-6.515167,-0.47590876
1.742,14.6902075,32.518276,7.080615,8.680748,-6.677369,-0.5336621
1.744,15.279921,33.057262,7.728837,8.711001,-6.8423176,-0.59554195
1.746,15.869157,33.589428,8.369906,8.733767,-7.008786,-0.6613109
1.748,16.45731,34.112476,9.004527,8.749578,-7.1753106,-0.7307091
1.75,17.043455,34.6237,9.63303,8.759157,-7.340177,-0.8034644
1.752,17.626768,35.120567,10.255631,8.76337,-7.5014973,-0.8793013
1.754,18.205835,35.600937,10.872201,8.763191,-7.6572676,-0.95796084
1.756,18.779737,36.062145,11.482431,8.75964,-7.8054056,-1.0391546
1.758,19.34704,36.501663,12.08578,8.753733,-7.9438825,-1.122565
1.76,19.90606,36.91716,12.681389,8.746424,-8.0707,-1.2078828
1.762,20.455187,37.30648,13.268488,8.738556,-8.184018,-1.2948052
1.764,20.992636,37.667465,13.845861,8.730811,-8.282205,-1.3830291
1.766,21.516188,37.99829,14.412344,8.723677,-8.363887,-1.4722737
1.768,22.023987,38.296867,14.966529,8.717481,-8.428038,-1.5623282
1.77,22.514116,38.56123,15.506824,8.7123165,-8.474033,-1.6531211
1.772,22.984085,38.78981,16.031616,8.708099,-8.501688,-1.7447227
1.774,23.431828,38.981197,16.53931,8.704576,-8.511208,-1.837316
1.776,23.855072,39.134224,17.028288,8.70134,-8.5032425,-1.9312203
1.778,24.25185,39.247883,17.497166,8.697827,-8.478871,-2.0268521
1.78,24.619728,39.32148,17.944433,8.693339,-8.439531,-2.1246862
1.782,24.95665,39.35452,18.368595,8.687061,-8.3869295,-2.2251863
1.784,25.260832,39.34696,18.768173,8.678108,-8.322963,-2.3287826
1.786,25.530495,39.29885,19.141554,8.665485,-8.24958,-2.4357753
1.788,25.764093,39.21074,19.487087,8.648096,-8.168703,-2.5463037
1.79,25.960438,39.08322,19.803074,8.624813,-8.082064,-2.6602955
1.792,26.118788,38.917217,20.0878,8.594527,-7.991191,-2.7774684
1.794,26.238453,38.71422,20.339272,8.556145,-7.897316,-2.897348
1.796,26.319477,38.4757,20.555717,8.508714,-7.8013115,-3.0193472
1.798,26.361786,38.20369,20.73535,8.451402,-7.7037873,-3.142822
1.8,26.366226,37.90006,20.876083,8.383526,-7.605173,-3.2671165
1.802,26.333782,37.567013,20.97625,8.304562,-7.5057364,-3.3916788
1.804,26.265917,37.20677,21.033838,8.214252,-7.405566,-3.5161083
1.806,26.16447,36.822018,21.047256,8.112587,-7.3046665,-3.6402261
1.808,26.031796,36.415417,21.014824,7.99981,-7.2029333,-3.764057
1.81,25.870245,35.989742,20.935295,7.87642,-7.1002235,-3.887813
1.812,25.682787,35.5477,20.807642,7.7431436,-6.9963217,-4.0118027
1.814,25.472584,35.09223,20.631077,7.600868,-6.890994,-4.136291
1.816,25.24301,34.626114,20.405277,7.4505982,-6.7839622,-4.2614546
1.818,24.997425,34.15226,20.13035,7.29335,-6.6749916,-4.387255
1.82,24.73939,33.67354,19.806824,7.130042,-6.563943,-4.5134277
1.822,24.472527,33.192795,19.436007,6.9614434,-6.4507995,-4.639422
1.824,24.200306,32.71272,19.019455,6.7881203,-6.335634,-4.7644343
1.826,23.926163,32.23609,18.559315,6.6104116,-6.2186904,-4.8874693
1.828,23.653294,31.765434,18.058294,6.4284105,-6.10032,-5.0073953
1.83,23.38489,31.30316,17.519857,6.242032,-5.980936,-5.123027
1.832,23.12357,30.85178,16.947773,6.0510845,-5.86097,-5.2332044
1.834,22.871834,30.413431,16.34628,5.855294,-5.740878,-5.336871
1.836,22.631603,29.990276,15.719806,5.654404,-5.6211004,-5.433119
1.838,22.404625,29.583912,15.07326,5.448233,-5.502068,-5.521188
1.84,22.192158,29.196018,14.411682,5.2367835,-5.3841705,-5.600528
1.842,21.995146,28.8279,13.740263,5.020245,-5.267765,-5.6707926
1.844,21.81461,28.480555,13.063686,4.798961,-5.1532183,-5.7318387
1.846,21.651533,28.154646,12.386747,4.57346,-5.04085,-5.7837443
1.848,21.504795,27.851015,11.71512,4.3444457,-4.9309583,-5.8267865
1.85,21.372217,27.570656,11.054598,4.1127367,-4.8238354,-5.861412
1.852,21.254187,27.31319,10.409376,3.8792949,-4.7196493,-5.888246
1.854,21.150288,27.078209,9.783804,3.6451793,-4.618408,-5.9080954
1.856,21.059721,26.86508,9.181887,3.4114847,-4.5200386,-5.9218817
1.858,20.980534,26.673096,8.607279,3.1792855,-4.4243894,-5.9305696
1.86,20.9111,26.501589,8.06329,2.9496455,-4.331173,-5.935107
1.862,20.850227,26.349497,7.5525646,2.7235913,-4.2400036,-5.9363675
1.864,20.79692,26.21543,7.077379,2.502099,-4.1504273,-5.935097
1.866,20.749996,26.09842,6.6394825,2.286099,-4.0619774,-5.9318857
1.868,20.708231,25.997347,6.2403975,2.0764403,-3.9742208,-5.927104
1.87,20.670607,25.911205,5.8812475,1.8739064,-3.8867753,-5.9208937
1.872,20.636292,25.838923,5.56258,1.679258,-3.7993157,-5.9132237
1.874,20.604298,25.779541,5.2848034,1.4931625,-3.7117043,-5.9039097
1.876,20.574272,25.73188,5.048086,1.3161037,-3.6241782,-5.892746
1.878,20.54556,25.69519,4.8522778,1.1483796,-3.537199,-5.879615
1.88,20.51772,25.668734,4.696931,0.9903083,-3.4510975,-5.864444
1.882,20.490538,25.651606,4.581422,0.84206736,-3.3663213,-5.8472776
1.884,20.464252,25.642862,4.504924,0.70355296,-3.283584,-5.828436
1.886,20.438675,25.64154,4.4661913,0.5744486,-3.2037146,-5.808528
1.888,20.414062,25.646854,4.4637756,0.45435655,-3.127431,-5.788396
1.89,20.390938,25.657959,4.4961452,0.34282964,-3.055253,-5.768982
1.892,20.369661,25.674118,4.561447,0.2394104,-2.9874587,-5.7513266
1.894,20.350687,25.6945,4.6575575,0.14365256,-2.9240239,-5.736494
1.896,20.334646,25.718338,4.782152,0.05521524,-2.8645291,-5.725436
1.898,20.32207,25.744854,4.9325323,-0.026077867,-2.8080845,-5.7188945
1.9,20.313599,25.773464,5.1057453,-0.1002028,-2.7533035,-5.7172575
1.902,20.30956,25.803425,5.298628,-0.16688722,-2.6983757,-5.7204876
1.904,20.31089,25.833858,5.5076666,-0.22562629,-2.6411977,-5.7281113
1.906,20.318138,25.864195,5.729105,-0.27570224,-2.579549,-5.7392035
1.908,20.331951,25.893549,5.95889,-0.31622332,-2.5112991,-5.752429
1.91,20.35282,25.921303,6.193077,-0.34617996,-2.4345827,-5.7661653
1.912,20.38131,25.946722,6.427437,-0.3645587,-2.3479805,-5.7786417
1.914,20.41746,25.969387,6.6579304,-0.37041223,-2.2506719,-5.788106
1.916,20.46182,25.988605,6.880539,-0.36296618,-2.1424413,-5.793014
1.918,20.514343,26.003922,7.091366,-0.3417284,-2.0236883,-5.792163
1.92,20.574902,26.014883,7.2866793,-0.30656394,-1.8953605,-5.7848463
1.922,20.643204,26.021187,7.463277,-0.2577206,-1.7588162,-5.770895
1.924,20.718798,26.022736,7.6181917,-0.19584918,-1.6157057,-5.7506485
1.926,20.80093,26.01912,7.7489605,-0.12199889,-1.4678288,-5.724882
1.928,20.88883,26.010292,7.8535624,-0.03746885,-1.3169038,-5.6946588
1.93,20.981398,25.996078,7.930415,0.056280077,-1.1644263,-5.661172
1.932,21.077423,25.976261,7.9784613,0.1576801,-1.0118053,-5.6255918
1.934,21.175486,25.950775,7.9971237,0.26502904,-0.86046815,-5.5890384
1.936,21.273972,25.919434,7.986296,0.37677038,-0.71145034,-5.5524282
1.938,21.37134,25.882116,7.9464045,0.49165013,-0.56533957,-5.5163155
1.94,21.465647,25.838737,7.877967,0.60861063,-0.42249274,-5.480936
1.942,21.55534,25.78907,7.782113,0.7267287,-0.2831998,-5.4463367
1.944,21.63855,25.733173,7.6602335,0.84522617,-0.14768147,-5.4124174
1.946,21.713684,25.67088,7.5140867,0.96349037,-0.016034603,-5.3789425
1.948,21.778946,25.60241,7.34554,1.0810858,0.11170125,-5.345572
1.95,21.832987,25.527534,7.156663,1.1976548,0.23549175,-5.3119526
1.952,21.874453,25.44625,6.949683,1.3129051,0.35523987,-5.277773
1.954,21.901665,25.35865,6.727166,1.4265648,0.47074723,-5.242774
1.956,21.91307,25.265064,6.491577,1.538354,0.5817394,-5.206747
1.958,21.909246,25.164907,6.244421,1.6479868,0.6878598,-5.169549
1.96,21.89067,25.05782,5.98725,1.7551724,0.7886741,-5.131072
1.962,21.855505,24.944221,5.7230716,1.8596084,0.8836895,-5.0912642
1.964,21.802782,24.824299,5.45423,1.9609798,0.9723811,-5.0501347
1.966,21.732553,24.698004,5.182719,2.0589738,1.0542283,-5.007703
1.968,21.64552,24.564901,4.910371,2.1532848,1.1287413,-4.964023
1.97,21.542183,24.424671,4.6387777,2.2436106,1.1954633,-4.919161
1.972,21.422573,24.276943,4.3694468,2.3297029,1.2540292,-4.873186
1.974,21.287163,24.121346,4.103682,2.4113433,1.304173,-4.826154
1.976,21.136173,23.957365,3.8423738,2.4883552,1.3457253,-4.7781277
1.978,20.970581,23.784456,3.5863132,2.5605855,1.3786188,-4.7292056
1.98,20.791195,23.602036,3.3358588,2.6279266,1.4029043,-4.6795034
1.982,20.598776,23.409527,3.0914927,2.6902862,1.4187363,-4.629146
1.984,20.39429,23.20655,2.8532667,2.7476096,1.4263694,-4.578253
1.986,20.178621,22.992943,2.6209297,2.7998967,1.4261657,-4.526946
1.988,19.95267,22.768581,2.3943095,2.8471775,1.4185498,-4.475367
1.99,19.71761,22.533516,2.1731458,2.8895488,1.4040166,-4.4236135
1.992,19.474676,22.287853,1.9567304,2.927143,1.383104,-4.371753
1.994,19.224743,22.032015,1.7444582,2.9601502,1.3563505,-4.319787
1.996,18.969137,21.766659,1.5358052,2.9888108,1.3242811,-4.2676597
1.998,18.708998,21.492401,1.3300753,3.0134075,1.2873682,-4.2152867
2,18.445526,21.21024,1.1266398,3.0342298,1.2459964,-4.162534
2.002,18.180096,20.921257,0.9249916,3.05156,1.2004423,-4.1092515
2.004,17.913883,20.626778,0.7246103,3.0656512,1.1508427,-4.0552964
2.006,17.648182,20.32838,0.52509594,3.076679,1.0971918,-4.000552
2.008,17.38431,20.027527,0.32631445,3.0847635,1.0393418,-3.9449668
2.01,17.123428,19.725933,0.12809944,3.0899224,0.9770446,-3.88853
2.012,16.866964,19.425243,-0.06968784,3.0920804,0.90997505,-3.831262
2.014,16.615824,19.127426,-0.266819,3.091078,0.83774817,-3.7732425
2.016,16.371191,18.833954,-0.4630823,3.0866804,0.7599697,-3.71462
2.018,16.133953,18.546658,-0.658144,3.078604,0.67625034,-3.6555974
2.02,15.904885,18.267033,-0.8516288,3.0665393,0.5862371,-3.596428
2.022,15.68471,17.996483,-1.0430431,3.0501578,0.48965466,-3.5373957
2.024,15.474235,17.736109,-1.2319493,3.0291705,0.3863063,-3.4788156
2.026,15.273569,17.487206,-1.4177427,3.0032964,0.27608788,-3.4210017
2.028,15.083239,17.250473,-1.5997608,2.9723318,0.15896702,-3.3642795
2.03,14.903454,17.026646,-1.7774017,2.936152,0.035005808,-3.3089395
2.032,14.73419,16.816326,-1.9501755,2.8947093,-0.09563935,-3.2552347
2.034,14.575396,16.619633,-2.117482,2.8480449,-0.23273075,-3.2033875
2.036,14.427036,16.436802,-2.278908,2.7963052,-0.37594497,-3.153587
2.038,14.288784,16.267773,-2.4339807,2.739727,-0.5248835,-3.105982
2.04,14.160321,16.112331,-2.582392,2.6786144,-0.6790471,-3.0606546
2.042,14.041183,15.970198,-2.7240326,2.6133616,-0.83785665,-3.0176349
2.044,13.931076,15.8409,-2.8585784,2.5444205,-1.0006818,-2.9769278
2.046,13.829576,15.723861,-2.9861302,2.472289,-1.1668313,-2.938498
2.048,13.736209,15.618479,-3.1067133,2.39749,-1.3355614,-2.902276
2.05,13.650526,15.523987,-3.2204235,2.3205426,-1.5061256,-2.8681753
2.052,13.57206,15.43964,-3.327557,2.2419653,-1.6777748,-2.836061
2.054,13.500398,15.364569,-3.4283278,2.162252,-1.8497862,-2.8057904
2.056,13.43497,15.297913,-3.5229652,2.0818532,-2.021474,-2.7772193
2.058,13.375369,15.238661,-3.6119473,2.001155,-2.1922264,-2.7502208
2.06,13.321195,15.185991,-3.6955516,1.920476,-2.3615189,-2.7246618
2.062,13.27174,15.139071,-3.774047,1.8400658,-2.5289235,-2.7004185
2.064,13.226609,15.0970125,-3.8476295,1.7601166,-2.6941335,-2.6774256
2.066,13.185285,15.058769,-3.9165766,1.6807666,-2.8569663,-2.6556704
2.068,13.147193,15.023642,-3.9810352,1.6020898,-3.0173137,-2.6351552
2.07,13.11185,14.990793,-4.041113,1.5241411,-3.1751773,-2.615894
2.072,13.078694,14.959425,-4.0968447,1.4469458,-3.3306143,-2.5979369
2.074,13.047036,14.9289665,-4.1481743,1.3705262,-3.483723,-2.5813503
2.076,13.0163,14.898708,-4.194914,1.2949288,-3.6345892,-2.566199
2.078,12.985855,14.868051,-4.237007,1.2202255,-3.7832758,-2.5525389
2.08,12.955038,14.836558,-4.2741613,1.146534,-3.9297664,-2.540406
2.082,12.923228,14.803684,-4.3060126,1.073999,-4.0739474,-2.5297823
2.084,12.889721,14.769063,-4.332357,1.0027995,-4.215588,-2.5206144
2.086,12.85404,14.732217,-4.352793,0.93316936,-4.354329,-2.5128005
2.088,12.815286,14.692858,-4.3671627,0.86535835,-4.489705,-2.5061843
2.09,12.772713,14.650861,-4.375157,0.7996445,-4.621137,-2.5005832
2.092,12.725723,14.605991,-4.376662,0.73631,-4.747971,-2.4957862
2.094,12.67363,14.557982,-4.3715253,0.67564976,-4.8695083,-2.4915843
2.096,12.615912,14.506761,-4.3596864,0.6179471,-4.9850435,-2.4877756
2.098,12.551868,14.452243,-4.3413234,0.5634991,-5.0938654,-2.484163
2.1,12.4809885,14.394374,-4.3166447,0.512576,-5.195311,-2.4805748
2.102,12.40293,14.333297,-4.285774,0.4654572,-5.28878,-2.4768581
2.104,12.31731,14.268951,-4.2491794,0.42241085,-5.373728,-2.472876
2.106,12.223727,14.201527,-4.207315,0.38367987,-5.4496856,-2.4685025
2.108,12.121927,14.1311865,-4.160617,0.34950328,-5.5162663,-2.463623
2.11,12.011898,14.0580635,-4.109657,0.32010865,-5.573162,-2.458118
2.112,11.893482,13.982416,-4.055062,0.29571152,-5.620137,-2.451867
2.114,11.766788,13.90442,-3.9973154,0.27651763,-5.6570206,-2.444735
2.116,11.631868,13.824221,-3.9370382,0.26268864,-5.683716,-2.436596
2.118,11.488991,13.7422085,-3.8747716,0.25437546,-5.7001963,-2.4273188
2.12,11.338457,13.658541,-3.8112538,0.25168848,-5.7064686,-2.4167643
2.122,11.180498,13.573502,-3.7468653,0.25470948,-5.702622,-2.404827
2.124,11.015592,13.487298,-3.682219,0.26347733,-5.68879,-2.3914142
2.126,10.844233,13.400238,-3.6177864,0.27798367,-5.665163,-2.3764436
2.128,10.66695,13.31246,-3.5540223,0.29818726,-5.6319666,-2.3598669
2.13,10.484386,13.224204,-3.4912765,0.32399845,-5.589495,-2.3416414
2.132,10.29713,13.13567,-3.4298599,0.3552953,-5.538061,-2.321763
2.134,10.10581,13.047136,-3.3700957,0.39191687,-5.478035,-2.3002243
2.136,9.911159,12.958667,-3.3123581,0.43369365,-5.40981,-2.2770536
2.138,9.713724,12.870518,-3.2568564,0.4804299,-5.333828,-2.2522922
2.14,9.5142975,12.782866,-3.2039368,0.531919,-5.2505393,-2.2259617
2.142,9.31361,12.695785,-3.153775,0.587932,-5.1604095,-2.1980824
2.144,9.112383,12.609586,-3.1064389,0.6482259,-5.063938,-2.1686785
2.146,8.911221,12.524331,-3.0621247,0.7125658,-4.961613,-2.1377635
2.148,8.710817,12.440199,-3.0209424,0.780715,-4.853954,-2.1053615
2.15,8.5119295,12.357267,-2.9830236,0.8524138,-4.7414703,-2.0714786
2.152,8.315073,12.275724,-2.9483604,0.9274007,-4.6246977,-2.0361178
2.154,8.120827,12.195766,-2.917066,1.0054064,-4.5041637,-1.9993002
2.156,7.92984,12.117577,-2.8890133,1.086161,-4.380397,-1.9610597
2.158,7.7427073,12.041373,-2.8643167,1.1693995,-4.2539062,-1.921415
2.16,7.5598946,11.967247,-2.842976,1.2548745,-4.125194,-1.8804348
2.162,7.3817573,11.895486,-2.824922,1.3423345,-3.9947276,-1.838192
2.164,7.2088795,11.826202,-2.8101418,1.4315555,-3.8629787,-1.7947738
2.166,7.0415955,11.759654,-2.7986798,1.5223286,-3.7303562,-1.7502717
2.168,6.880438,11.695959,-2.7902327,1.614463,-3.5972502,-1.7047943
2.17,6.725628,11.635221,-2.784816,1.7078078,-3.464022,-1.6584429
2.172,6.577465,11.577612,-2.782366,1.8022027,-3.3310094,-1.611316
2.174,6.4362946,11.523181,-2.7826886,1.897513,-3.1985497,-1.5635035
2.176,6.3023114,11.472051,-2.7856958,1.993607,-3.0669417,-1.5150775
2.178,6.17561,11.424231,-2.7912803,2.0903335,-2.9364882,-1.4660997
2.18,6.056404,11.379742,-2.799357,2.1875565,-2.8074825,-1.4166241
2.182,5.9449224,11.338503,-2.8097894,2.2851205,-2.680211,-1.3667058
2.184,5.8410616,11.300375,-2.8225212,2.3828397,-2.5549464,-1.3164017
2.186,5.7449865,11.265148,-2.837283,2.4805202,-2.4319417,-1.2657673
2.188,5.656561,11.232698,-2.8539884,2.5779533,-2.3114288,-1.2148694
2.19,5.5758343,11.202742,-2.8727036,2.6749163,-2.193595,-1.1637872
2.192,5.50271,11.175125,-2.8933372,2.771198,-2.078587,-1.1125968
2.194,5.4370346,11.149483,-2.9159505,2.8665743,-1.9665244,-1.0613732
2.196,5.378619,11.125661,-2.9405499,2.960853,-1.8574746,-1.0101925
2.198,5.3273296,11.103419,-2.967163,3.0538576,-1.7514706,-0.95909595
2.2,5.28311,11.082283,-2.995913,3.1454325,-1.648503,-0.9081155
2.202,5.2457247,11.062093,-3.026997,3.2354264,-1.548542,-0.85725904
2.204,5.2149296,11.0426445,-3.060434,3.3237395,-1.451541,-0.8065272
2.206,5.1904316,11.023668,-3.096396,3.4102774,-1.3574328,-0.7558911
2.208,5.1721983,11.0050335,-3.135013,3.4949663,-1.2661682,-0.70531774
2.21,5.160035,10.986598,-3.1764503,3.577743,-1.1777145,-0.6547688
2.212,5.1535225,10.968271,-3.2208867,3.6585603,-1.0920762,-0.6042212
2.214,5.1526623,10.9500885,-3.2683754,3.7373471,-1.0092796,-0.5536376
2.216,5.1573315,10.931866,-3.3190951,3.81405,-0.9293984,-0.5029974
2.218,5.167474,10.913742,-3.3732014,3.8886003,-0.8525373,-0.45228976
2.22,5.1828814,10.895842,-3.4306145,3.960926,-0.7788476,-0.40151602
2.222,5.2036304,10.878273,-3.4914463,4.0309343,-0.70849323,-0.35070348
2.224,5.2297516,10.86129,-3.555643,4.0985394,-0.64166224,-0.29987913
2.226,5.261159,10.84519,-3.623079,4.1636558,-0.57851744,-0.24909121
2.228,5.2979946,10.830194,-3.6936738,4.226195,-0.5192071,-0.19840461
2.23,5.340249,10.816782,-3.767074,4.286095,-0.46385527,-0.14787799
2.232,5.388031,10.805253,-3.843096,4.343309,-0.41254437,-0.097568095
2.234,5.4413853,10.796029,-3.921262,4.3977776,-0.3653232,-0.047537267
2.236,5.5002875,10.789554,-4.0012264,4.4494915,-0.3222133,0.002176702
2.238,5.564908,10.786142,-4.082464,4.498452,-0.2832322,0.05153042
2.24,5.635214,10.786276,-4.164369,4.5446854,-0.24837935,0.10049081
2.242,5.7112303,10.790291,-4.246508,4.5882525,-0.21764588,0.14902091
2.244,5.79288,10.798477,-4.328287,4.6292176,-0.19104612,0.19708818
2.246,5.880107,10.811184,-4.40911,4.667673,-0.16858327,0.24466306
2.248,5.972761,10.828723,-4.4884233,4.703745,-0.15026033,0.2917065
2.25,6.0706635,10.851356,-4.5655723,4.73758,-0.13606071,0.3381999
2.252,6.1735964,10.879114,-4.640088,4.7693143,-0.12593555,0.38412857
2.254,6.2811866,10.91206,-4.71152,4.799086,-0.11981034,0.42948455
2.256,6.3931055,10.950418,-4.779359,4.827057,-0.11757374,0.47425944
2.258,6.508916,10.993951,-4.843199,4.8533554,-0.11907184,0.51845515
2.26,6.628112,11.042688,-4.9026184,4.8781023,-0.1241287,0.56206095
2.262,6.7502413,11.096319,-4.95728,4.9014044,-0.1325332,0.6050838
2.264,6.8745594,11.15452,-5.0070167,4.9233375,-0.14406896,0.6475158
2.266,7.000436,11.216993,-5.0516233,4.9439626,-0.15850818,0.6893382
2.268,7.1271577,11.283325,-5.090963,4.963356,-0.17566073,0.7305416
2.27,7.253954,11.35306,-5.1249895,4.981533,-0.19534516,0.771092
2.272,7.380025,11.425568,-5.153721,4.9985285,-0.21742904,0.8109597
2.274,7.5045824,11.500416,-5.17721,5.0143666,-0.24180579,0.8501067
2.276,7.626978,11.576971,-5.1955013,5.029086,-0.268371,0.88849777
2.278,7.746296,11.654688,-5.2089634,5.0427113,-0.2970512,0.9260886
2.28,7.8617306,11.7330475,-5.2176948,5.055288,-0.3277923,0.962833
2.282,7.972906,11.8114605,-5.222004,5.0668573,-0.360533,0.9986755
2.284,8.0789585,11.889544,-5.2221646,5.0774903,-0.39520657,1.0335487
2.286,8.179535,11.966772,-5.2183523,5.0872684,-0.43173826,1.0673763
2.288,8.274173,12.042788,-5.210859,5.096297,-0.4700327,1.1001089
2.29,8.362381,12.117176,-5.1999016,5.1046796,-0.5099783,1.1317112
2.292,8.443807,12.1898155,-5.185751,5.112548,-0.55146694,1.1622047
2.294,8.518459,12.2603855,-5.1686254,5.1200223,-0.59441626,1.1916484
2.296,8.586022,12.32897,-5.1487575,5.1272078,-0.6387509,1.2201579
2.298,8.646755,12.395449,-5.126259,5.1341968,-0.6844307,1.2478895
2.3,8.700451,12.459885,-5.10118,5.141061,-0.73145425,1.2750456
2.302,8.747408,12.522387,-5.0735903,5.147828,-0.7798592,1.3018515
2.304,8.787921,12.583237,-5.0434628,5.1544633,-0.82973194,1.3285223
2.306,8.822456,12.642723,-5.0107317,5.1609178,-0.8811945,1.3552793
2.308,8.851425,12.701147,-4.97524,5.167099,-0.9343777,1.3823061
2.31,8.87521,12.758984,-4.936797,5.1728764,-0.98939085,1.4097651
2.312,8.894453,12.816589,-4.8951926,5.1781044,-1.0463527,1.4377753
2.314,8.909718,12.874393,-4.850325,5.182639,-1.1053346,1.4663984
2.316,8.921682,12.932749,-4.8017592,5.186373,-1.166364,1.4956393
2.318,8.930858,12.992036,-4.749189,5.1892333,-1.2293991,1.5254811
2.32,8.93769,13.052576,-4.6924343,5.191209,-1.2943592,1.5558621
2.322,8.943067,13.114574,-4.6310353,5.192319,-1.3611135,1.5866854
2.324,8.947215,13.178373,-4.5646753,5.1926517,-1.4294947,1.6178541
2.326,8.950884,13.244085,-4.4930634,5.1923122,-1.4992961,1.6492727
2.328,8.954233,13.311798,-4.4157596,5.191432,-1.5703217,1.6808411
2.33,8.957689,13.381628,-4.332574,5.1901236,-1.6423684,1.7124487
2.332,8.961533,13.453567,-4.2431483,5.188514,-1.7152151,1.7439736
2.334,8.96601,13.52746,-4.14739,5.186699,-1.7886369,1.7753016
2.336,8.971442,13.603182,-4.0449543,5.184748,-1.8624189,1.8063139
2.338,8.977583,13.680611,-3.9357572,5.1827106,-1.9363358,1.8368706
2.34,8.984836,13.759464,-3.819615,5.180638,-2.0101619,1.8668729
2.342,8.99292,13.8397045,-3.6964145,5.1785803,-2.083664,1.8962102
2.344,9.001852,13.921107,-3.5661564,5.17662,-2.1566029,1.9248074
2.346,9.011487,14.003498,-3.4287302,5.174856,-2.2287197,1.9526234
2.348,9.021715,14.0868,-3.2840796,5.173409,-2.2997456,1.979674
2.35,9.032425,14.170845,-3.1323938,5.172434,-2.369409,2.0060265
2.352,9.043356,14.25565,-2.9734974,5.172101,-2.4374378,2.0317903
2.354,9.054438,14.341209,-2.8074646,5.1725636,-2.503555,2.0571122
2.356,9.065489,14.427444,-2.6343894,5.1739798,-2.5674906,2.0821693
2.358,9.076156,14.5143795,-2.45438,5.1764817,-2.6289797,2.1071339
2.36,9.086243,14.602086,-2.2675047,5.180161,-2.6877718,2.1321583
2.362,9.0956545,14.6906805,-2.0738163,5.185078,-2.7436383,2.1573644
2.364,9.104248,14.780173,-1.8735089,5.1912646,-2.796386,2.182845
2.366,9.111841,14.870717,-1.6665871,5.1987243,-2.845828,2.2086596
2.368,9.118187,14.962457,-1.4532518,5.2074313,-2.8918142,2.23488
2.37,9.123042,15.055391,-1.2336648,5.217318,-2.9342527,2.2615514
2.372,9.12611,15.149559,-1.008034,5.2283096,-2.9730856,2.2887135
2.374,9.127222,15.244972,-0.77643037,5.2403064,-3.0082712,2.3164132
2.376,9.125959,15.341381,-0.53904605,5.2532225,-3.0398018,2.3446956
2.378,9.122055,15.438551,-0.2960267,5.266944,-3.06772,2.3736043
2.38,9.115173,15.536323,-0.047490597,5.2813644,-3.0920885,2.4031816
2.382,9.10494,15.634472,0.2064178,5.2963524,-3.11298,2.433453
2.384,9.090805,15.732497,0.46549702,5.3118033,-3.1304798,2.464458
2.386,9.072164,15.83003,0.72969174,5.3275943,-3.1446908,2.4962063
2.388,9.048667,15.92648,0.99893355,5.343623,-3.155686,2.5286996
2.39,9.0196905,16.021229,1.2729831,5.359805,-3.163526,2.5619287
2.392,8.984493,16.113625,1.5518265,5.376053,-3.1682434,2.5958807
2.394,8.942671,16.202858,1.8352714,5.392302,-3.1698346,2.6305146
2.396,8.893409,16.288311,2.1230574,5.408505,-3.1682708,2.6658044
2.398,8.8360405,16.369267,2.415102,5.4246216,-3.163485,2.7017088
2.4,8.7700615,16.444923,2.7111416,5.440638,-3.1553745,2.7381902
2.402,8.694853,16.514448,3.0109477,5.456561,-3.1437998,2.7752082
2.404,8.609701,16.57717,3.314249,5.472392,-3.1286073,2.8127208
2.406,8.514193,16.632294,3.6206665,5.4881372,-3.1095984,2.850725
2.408,8.407539,16.679285,3.92982,5.5038166,-3.0865822,2.8892152
2.41,8.289493,16.717432,4.2411294,5.519429,-3.059339,2.9282005
2.412,8.159432,16.74625,4.554157,5.534974,-3.027657,2.967711
2.414,8.017218,16.765266,4.8681955,5.550427,-2.9913216,3.0077782
2.416,7.8623743,16.77404,5.18264,5.5657325,-2.9501252,3.0484514
2.418,7.6948977,16.77229,5.4966545,5.5808015,-2.9038806,3.0897822
2.42,7.514803,16.759905,5.8093414,5.595523,-2.852437,3.131857
2.422,7.322028,16.736763,6.1199026,5.6097417,-2.795672,3.174778
2.424,7.1167955,16.702911,6.42747,5.623291,-2.733477,3.2186947
2.426,6.8991466,16.658646,6.730762,5.6359754,-2.665823,3.263794
2.428,6.669509,16.604252,7.0287285,5.647589,-2.5926979,3.3102946
2.43,6.4281907,16.540138,7.320364,5.657912,-2.5141332,3.358424
2.432,6.1755905,16.466923,7.6043563,5.6667123,-2.4302163,3.4084232
2.434,5.9122972,16.38514,7.879732,5.673765,-2.3410783,3.460525
2.436,5.6388307,16.295557,8.145325,5.678843,-2.246901,3.5149364
2.438,5.355868,16.198929,8.399909,5.681705,-2.1478882,3.571797
2.44,5.0641766,16.096016,8.642435,5.682136,-2.0442867,3.631206
2.442,4.7643375,15.987608,8.871845,5.6798844,-1.9363732,3.693191
2.444,4.4569507,15.874936,9.087114,5.6747193,-1.8244298,3.7577126
2.446,4.142942,15.758835,9.287208,5.666431,-1.7087247,3.8247068
2.448,3.8229735,15.640587,9.471409,5.654805,-1.5895064,3.8940635
2.45,3.4978797,15.521082,9.638772,5.639647,-1.4670106,3.9656565
2.452,3.1686015,15.401119,9.788609,5.620792,-1.3414637,4.0393343
2.454,2.836433,15.281332,9.920205,5.598113,-1.2130501,4.114963
2.456,2.501773,15.162995,10.033052,5.571516,-1.081924,4.192402
2.458,2.1655102,15.047036,10.126641,5.5409756,-0.9482194,4.27153
2.46,1.8284566,14.93433,10.200722,5.506492,-0.81207275,4.3522377
2.462,1.4913869,14.825754,10.255068,5.4680905,-0.67360806,4.4344244
2.464,1.1549644,14.72226,10.289744,5.425824,-0.5329659,4.5180063
2.466,0.8199183,14.624842,10.304861,5.3797426,-0.39030147,4.6028814
2.468,0.4872616,14.534275,10.300561,5.329862,-0.24583244,4.688936
2.47,0.15756404,14.451122,10.27703,5.2761726,-0.09976125,4.776037
2.472,-0.16850132,14.376025,10.234475,5.2186446,0.047685385,4.8639975
2.474,-0.49016514,14.309491,10.17335,5.157196,0.19629478,4.9525647
2.476,-0.8078287,14.252438,10.094629,5.091735,0.3458693,5.0414624
2.478,-1.1219783,14.206116,9.999602,5.022162,0.4962592,5.130347
2.48,-1.4316151,14.171086,9.888906,4.9484024,0.6473644,5.2188225
2.482,-1.7373258,14.148353,9.763819,4.870384,0.79910827,5.306471
2.484,-2.039936,14.1386795,9.626139,4.788086,0.95146585,5.392935
2.486,-2.339726,14.142781,9.477061,4.7015667,1.1045153,5.477847
2.488,-2.6371198,14.160953,9.317955,4.610955,1.2584114,5.560891
2.49,-2.932931,14.193521,9.15077,4.5164456,1.4133499,5.6418185
2.492,-3.2281168,14.241001,8.977141,4.418271,1.5695406,5.7204924
2.494,-3.5239923,14.304022,8.79892,4.3167205,1.7272214,5.7968802
2.496,-3.8220127,14.383541,8.6177435,4.212121,1.8866026,5.871089
2.498,-4.1239862,14.480392,8.435435,4.1047544,2.0478368,5.9433637
2.5,-4.430564,14.595219,8.252584,3.9948905,2.210929,6.014078
2.502,-4.7427144,14.728661,8.070281,3.882736,2.3757095,6.0837674
2.504,-5.062491,14.881544,7.889743,3.7684438,2.5417795,6.1530952
2.506,-5.3916855,15.054674,7.7124,3.6521635,2.7086043,6.222789
2.508,-5.7321353,15.248964,7.539628,3.5341127,2.8756435,6.2935724
2.51,-6.0857234,15.46522,7.372521,3.4146214,3.0422244,6.3661056
2.512,-6.454079,15.704236,7.211668,3.294057,3.2075605,6.4408817
2.514,-6.8385496,15.966495,7.0572977,3.1729279,3.3709462,6.518139
2.516,-7.2403092,16.252193,6.909115,3.0519257,3.5317802,6.5978613
2.518,-7.660184,16.561298,6.766285,2.931926,3.6895452,6.6798105
2.52,-8.099219,16.893879,6.627671,2.8139956,3.8439565,6.7635126
2.522,-8.55785,17.249447,6.491274,2.699432,3.995112,6.8482537
2.524,-9.036508,17.62738,6.3548946,2.5897133,4.1435966,6.9330797
2.526,-9.534281,18.026989,6.2155423,2.4864426,4.290654,7.016846
2.528,-10.050528,18.447315,6.069835,2.391222,4.4382386,7.098168
2.53,-10.583936,18.887314,5.9138393,2.3055363,4.58895,7.17554
2.532,-11.132539,19.34559,5.7430468,2.2306294,4.745747,7.2475724
2.534,-11.694116,19.820541,5.552354,2.1673758,4.9117923,7.313093
2.536,-12.265696,20.31044,5.3362412,2.1162574,5.0902596,7.371299
2.538,-12.84402,20.813627,5.0889373,2.0772057,5.2839265,7.421782
2.54,-13.425616,21.328447,4.80459,2.0495572,5.494841,7.464628
2.542,-14.007121,21.853315,4.477308,2.0320392,5.7239037,7.500294
2.544,-14.584399,22.386488,4.101042,2.0228343,5.9706736,7.5295315
2.546,-15.153533,22.92655,3.6701453,2.019662,6.233107,7.553154
2.548,-15.710504,23.471907,3.1799004,2.0199223,6.5075464,7.571876
2.55,-16.251492,24.021084,2.626055,2.0208924,6.788892,7.586125
2.552,-16.772789,24.572712,2.0052204,2.0199428,7.070884,7.595852
2.554,-17.270927,25.125051,1.3147812,2.0146818,7.3465743,7.600451
2.556,-17.74303,25.676825,0.5531914,2.0031047,7.6087456,7.598792
2.558,-18.185295,26.22569,-0.2803447,1.9836729,7.8504624,7.589307
2.56,-18.59614,26.7704,-1.1843393,1.9553242,8.065379,7.5700974
2.562,-18.973299,27.309206,-2.1566005,1.9174203,8.248069,7.5390806
2.564,-19.315569,27.840496,-3.1936724,1.8696864,8.394446,7.4941964
2.566,-19.621128,28.361921,-4.2910447,1.8121471,8.501749,7.433567
2.568,-19.88918,28.871304,-5.442823,1.7449077,8.568245,7.355661
2.57,-20.119135,29.36632,-6.6422133,1.6680231,8.593192,7.2593045
2.572,-20.310738,29.844595,-7.881462,1.5814626,8.576696,7.1437006
2.574,-20.46418,30.30363,-9.15192,1.4850502,8.519449,7.0085325
2.576,-20.579727,30.74104,-10.444183,1.3784332,8.422418,6.853979
2.578,-20.6583,31.154402,-11.748299,1.2612159,8.286887,6.68077
2.58,-20.700241,31.541313,-13.054033,1.1330582,8.114398,6.4900994
2.582,-20.707113,31.89959,-14.350885,0.99384457,7.9068365,6.283615
2.584,-20.680576,32.227512,-15.6282625,0.8438034,7.6665497,6.063221
2.586,-20.62076,32.522587,-16.876333,0.68353224,7.3963685,5.8309155
2.588,-20.529037,32.78324,-18.085682,0.51402116,7.0993505,5.5888143
2.59,-20.408443,33.00847,-19.246344,0.33666444,6.7787857,5.3390226
2.592,-20.259722,33.196877,-20.349386,0.15331566,6.438256,5.0835867
2.594,-20.084618,33.348198,-21.38746,-0.033873916,6.081397,4.8244123
2.596,-19.885912,33.462563,-22.353325,-0.22257543,5.711885,4.563202
2.598,-19.666018,33.540466,-23.240623,-0.4104185,5.333325,4.3014164
2.6,-19.42735,33.582603,-24.04446,-0.59510994,4.9492245,4.040301
2.602,-19.171902,33.589664,-24.760836,-0.7745817,4.5629373,3.7808914
2.604,-18.902103,33.56275,-25.38692,-0.94704247,4.177616,3.5240772
2.606,-18.620016,33.502693,-25.920702,-1.1110289,3.7962298,3.2706316
2.608,-18.327982,33.41102,-26.361647,-1.2653905,3.4215295,3.0212383
2.61,-18.028889,33.289368,-26.709347,-1.4092529,3.056026,2.776523
2.612,-17.72521,33.139687,-26.965244,-1.5419664,2.7020025,2.537084
2.614,-17.418417,32.963696,-27.131962,-1.6630526,2.361484,2.3034468
2.616,-17.10994,32.763115,-27.213158,-1.7721773,2.0361612,2.0760493
2.618,-16.801374,32.539757,-27.2131,-1.8691462,1.727346,1.8551614
2.62,-16.494041,32.29542,-27.136482,-1.953933,1.4359839,1.6408683
2.622,-16.18928,32.031963,-26.988121,-2.0266926,1.1626515,1.4331497
2.624,-15.888279,31.751112,-26.773144,-2.0877955,0.90752816,1.2318703
2.626,-15.592159,31.454742,-26.496881,-2.137836,0.6704254,1.0367897
2.628,-15.301775,31.144585,-26.1646,-2.1776354,0.45081386,0.8475974
2.63,-15.017462,30.82189,-25.781872,-2.2081623,0.24799544,0.6639148
2.632,-14.739632,30.488163,-25.354212,-2.2305279,0.061115593,0.48530704
2.634,-14.468424,30.144623,-24.887035,-2.2459085,-0.11076762,0.31131858
2.636,-14.204363,29.792183,-24.385355,-2.2554953,-0.26855934,0.14150709
2.638,-13.947433,29.431654,-23.854244,-2.260426,-0.4130569,-0.02452004
2.64,-13.697536,29.063625,-23.298227,-2.2617207,-0.54488266,-0.1871149
2.642,-13.454694,28.688997,-22.72171,-2.260209,-0.664412,-0.3466034
2.644,-13.218544,28.308405,-22.128347,-2.256613,-0.7719877,-0.5032543
2.646,-12.988892,27.922432,-21.521454,-2.2515054,-0.867893,-0.65722555
2.648,-12.765483,27.531445,-20.904306,-2.245228,-0.95226574,-0.8085549
2.65,-12.547745,27.13575,-20.27995,-2.2379286,-1.0251786,-0.9571887
2.652,-12.3349695,26.735466,-19.650917,-2.2296085,-1.0866737,-1.1030228
2.654,-12.126953,26.330997,-19.019485,-2.2201385,-1.1368219,-1.2459111
2.656,-11.923041,25.9223,-18.387684,-2.2092805,-1.1757524,-1.3856976
2.658,-11.72262,25.509714,-17.75777,-2.196741,-1.2036766,-1.5222182
2.66,-11.525125,25.093336,-17.131659,-2.1821856,-1.2208787,-1.6552963
2.662,-11.329836,24.673315,-16.511017,-2.1652486,-1.2276938,-1.7847822
2.664,-11.136179,24.249855,-15.89731,-2.1456084,-1.2244927,-1.9105921
2.666,-10.943423,23.82288,-15.2918005,-2.1230097,-1.2117572,-2.0326896
2.668,-10.751663,23.392908,-14.695578,-2.0972931,-1.190011,-2.150979
2.67,-10.5598,22.959723,-14.110358,-2.0683532,-1.159764,-2.265399
2.672,-10.367512,22.523403,-13.537266,-2.0361233,-1.1215199,-2.3759022
2.674,-10.174384,22.083937,-12.977242,-2.0005891,-1.0757667,-2.4824848
2.676,-9.980353,21.641556,-12.431163,-1.9617847,-1.0229801,-2.5852275
2.678,-9.785216,21.196386,-11.899988,-1.9197978,-0.9636289,-2.6842105
2.68,-9.589034,20.748638,-11.384431,-1.8747419,-0.8981578,-2.77948
2.682,-9.391857,20.29869,-10.885092,-1.8267297,-0.82696843,-2.8710847
2.684,-9.193657,19.846748,-10.402602,-1.7759123,-0.7504733,-2.9590468
2.686,-8.994944,19.393106,-9.937528,-1.7224269,-0.6690917,-3.0433047
2.688,-8.7956705,18.938457,-9.490242,-1.6664195,-0.58322644,-3.1237206
2.69,-8.596856,18.483679,-9.060864,-1.6080306,-0.49330878,-3.200112
2.692,-8.39846,18.029472,-8.649872,-1.547388,-0.3997465,-3.2722797
2.694,-8.200742,17.576574,-8.257466,-1.4845908,-0.30291796,-3.340016
2.696,-8.004883,17.126026,-7.883814,-1.4197421,-0.20316881,-3.4031057
2.698,-7.8111076,16.678705,-7.5285807,-1.3529203,-0.10080212,-3.4613569
2.7,-7.6199846,16.235844,-7.1918945,-1.2841564,0.003908783,-3.5146348
2.702,-7.432621,15.798958,-6.8738275,-1.2134738,0.11075182,-3.5628908
2.704,-7.249364,15.3691225,-6.5738506,-1.1408424,0.21955572,-3.6061273
2.706,-7.0706396,14.947557,-6.291644,-1.0662031,0.3301657,-3.6444058
2.708,-6.896942,14.535667,-6.0268965,-0.9894777,0.44247246,-3.677824
2.71,-6.728901,14.134749,-5.779714,-0.9105394,0.5563989,-3.7064629
2.712,-6.5673304,13.746235,-5.549508,-0.82928956,0.6718557,-3.730419
2.714,-6.4126997,13.371367,-5.3360114,-0.74564826,0.78872764,-3.74975
2.716,-6.2654853,13.011392,-5.138961,-0.65956366,0.9068916,-3.7644494
2.718,-6.126079,12.667364,-4.957958,-0.57102025,1.026175,-3.7744715
2.72,-5.9951277,12.340291,-4.7925234,-0.48002696,1.1464136,-3.7797837
2.722,-5.8727427,12.03069,-4.6424103,-0.38663232,1.2674092,-3.780415
2.724,-5.7593045,11.739278,-4.5074034,-0.29094994,1.3889031,-3.7764516
2.726,-5.655223,11.466526,-4.3872156,-0.19313169,1.5106049,-3.7680101
2.728,-5.5605617,11.212685,-4.2816715,-0.09336865,1.6322207,-3.7552528
2.73,-5.475804,10.977927,-4.1906257,0.00812757,1.753468,-3.7384386
2.732,-5.401131,10.762225,-4.1136785,0.111120224,1.8740242,-3.7178888
2.734,-5.336544,10.565351,-4.0505486,0.21537375,1.9935409,-3.693984
2.736,-5.2817364,10.386648,-4.000927,0.32066214,2.1116776,-3.6671696
2.738,-5.236553,10.225518,-3.9648285,0.42681003,2.228046,-3.6379294
2.74,-5.2007613,10.081044,-3.9419384,0.5336813,2.3422327,-3.6068258
2.742,-5.174058,9.952276,-3.9319706,0.6411569,2.4537601,-3.574499
2.744,-5.156062,9.838007,-3.9345284,0.74912703,2.5620766,-3.5416844
2.746,-5.146345,9.737037,-3.9492471,0.8574641,2.6665583,-3.509162
2.748,-5.1441393,9.64798,-3.9754953,0.96597505,2.7665157,-3.4777308
2.75,-5.148783,9.569345,-4.0127,1.0743597,2.8611383,-3.4482262
2.752,-5.1593885,9.499566,-4.0600605,1.1821346,2.9495382,-3.4214697
2.754,-5.175106,9.43695,-4.1167464,1.2886024,3.0307627,-3.39821
2.756,-5.1950746,9.379971,-4.181821,1.3928528,3.103784,-3.3791168
2.758,-5.218268,9.327103,-4.254227,1.4937859,3.1675744,-3.364788
2.76,-5.243946,9.277086,-4.332686,1.5901194,3.2211144,-3.355728
2.762,-5.270581,9.228248,-4.416319,1.6804639,3.2634172,-3.3523188
2.764,-5.297135,9.179254,-4.503634,1.7634102,3.2935948,-3.3547997
2.766,-5.322807,9.128923,-4.5932503,1.8376324,3.3109334,-3.3631973
2.768,-5.346553,9.076165,-4.6840057,1.901931,3.3149247,-3.3773332
2.77,-5.3672676,9.020025,-4.774696,1.9553096,3.3053243,-3.396816
2.772,-5.384108,8.959525,-4.8641324,1.997055,3.2821636,-3.421022
2.774,-5.39613,8.894079,-4.9511175,2.0267642,3.2457962,-3.4491303
2.776,-5.4026513,8.823229,-5.034818,2.0443718,3.1968799,-3.4802265
2.778,-5.4030075,8.746665,-5.114259,2.0501618,3.1363993,-3.513379
2.78,-5.3965006,8.664123,-5.188769,2.0447173,3.0655622,-3.5477295
2.782,-5.3826838,8.575614,-5.2578096,2.0288737,2.9857426,-3.5825424
2.784,-5.3613305,8.481282,-5.320904,2.0036507,2.8983898,-3.617262
2.786,-5.331809,8.381279,-5.3778596,1.9701842,2.805004,-3.6515257
2.788,-5.2941875,8.276178,-5.4285035,1.9296844,2.7070389,-3.6850781
2.79,-5.24827,8.166467,-5.4729695,1.8833454,2.605886,-3.7177522
2.792,-5.194097,8.05265,-5.51156,1.8322234,2.5027325,-3.7494433
2.794,-5.131892,7.9355283,-5.5445495,1.7772466,2.3985262,-3.7799292
2.796,-5.0618067,7.8157454,-5.572293,1.7192547,2.2941341,-3.8088746
2.798,-4.984154,7.694023,-5.595393,1.6589359,2.1902916,-3.835824
2.8,-4.8991337,7.5709014,-5.6143627,1.5968028,2.0875235,-3.8602583
2.802,-4.80711,7.4469714,-5.62962,1.5332179,1.9862046,-3.8816583
2.804,-4.708576,7.322919,-5.6417823,1.4684162,1.8866062,-3.8995304
2.806,-4.6038814,7.199237,-5.6514215,1.4025409,1.7888749,-3.9134812
2.808,-4.493602,7.0765014,-5.659069,1.3356391,1.693081,-3.9233088
2.81,-4.378195,6.955034,-5.6652446,1.2676909,1.5992419,-3.9289885
2.812,-4.258174,6.8352213,-5.670318,1.1986324,1.5073078,-3.93065
2.814,-4.1340733,6.717263,-5.674737,1.1284077,1.4172363,-3.9285903
2.816,-4.0062585,6.601346,-5.678614,1.0569549,1.3289858,-3.9232554
2.818,-3.8754783,6.4874744,-5.6823454,0.98421633,1.2425197,-3.9151592
2.82,-3.7419643,6.3757586,-5.6858416,0.9101701,1.1577926,-3.904841
2.822,-3.6062799,6.26605,-5.689333,0.8348199,1.0747508,-3.892801
2.824,-3.4686625,6.1583977,-5.692788,0.75818706,0.9933288,-3.8794436
2.826,-3.3297234,6.0526695,-5.6962686,0.6802933,0.9134408,-3.8650675
2.828,-3.1899953,5.9490604,-5.6994867,0.60116196,0.83496857,-3.849813
2.83,-3.0495603,5.847479,-5.702425,0.520805,0.75781214,-3.833692
2.832,-2.9090073,5.7480493,-5.7048116,0.43925047,0.68184376,-3.816619
2.834,-2.7685804,5.6508303,-5.7063227,0.35651267,0.6069779,-3.79843
2.836,-2.6282854,5.555836,-5.706618,0.27262247,0.5331613,-3.7789383
2.838,-2.4885054,5.4630594,-5.7053547,0.18761992,0.46039468,-3.7579277
2.84,-2.3494036,5.372631,-5.7019615,0.10157645,0.38870764,-3.7351968
2.842,-2.2110882,5.284757,-5.6961794,0.0145430565,0.31818956,-3.71061
2.844,-2.0736406,5.199645,-5.687558,-0.07338154,0.24893826,-3.6840382
2.846,-1.9374523,5.117797,-5.6755886,-0.16203356,0.18117398,-3.6554012
2.848,-1.8025937,5.0393734,-5.659547,-0.25123572,0.11517745,-3.624728
2.85,-1.669199,4.964983,-5.6389265,-0.34082097,0.05113232,-3.5920653
2.852,-1.5371807,4.8947177,-5.6130877,-0.43058962,-0.010746956,-3.5574536
2.854,-1.406533,4.829154,-5.581756,-0.52030736,-0.07018244,-3.5209665
2.856,-1.2772276,4.7686343,-5.5445743,-0.6097213,-0.12686145,-3.4826612
2.858,-1.1493871,4.71345,-5.5010614,-0.69854516,-0.18048048,-3.4425838
2.86,-1.0228136,4.6639233,-5.4510446,-0.7864802,-0.23072878,-3.4007688
2.862,-0.89756894,4.6203117,-5.3941145,-0.87321496,-0.2772908,-3.357213
2.864,-0.7738569,4.582951,-5.3300776,-0.9584248,-0.31985313,-3.311898
2.866,-0.6513753,4.552054,-5.258836,-1.0418057,-0.35809812,-3.2648296
2.868,-0.5298703,4.527485,-5.1803875,-1.1230444,-0.39170605,-3.2159894
2.87,-0.40905952,4.509272,-5.094808,-1.2018251,-0.42036927,-3.1653562
2.872,-0.28922105,4.497727,-5.001941,-1.2778627,-0.44382912,-3.1129217
2.874,-0.16998672,4.492712,-4.902274,-1.350874,-0.46182233,-3.0586987
2.876,-0.05105853,4.494222,-4.796094,-1.4206132,-0.47409734,-3.0027134
2.878,0.067729,4.50206,-4.6836357,-1.4868664,-0.48046505,-2.9450607
2.88,0.18647099,4.5161085,-4.565338,-1.5494683,-0.48077074,-2.8858476
2.882,0.30540824,4.536272,-4.441631,-1.6082928,-0.474913,-2.8252091
2.884,0.42472434,4.5622373,-4.313138,-1.6632626,-0.4628413,-2.763325
2.886,0.54447937,4.5938153,-4.1803436,-1.7143673,-0.4445259,-2.7004015
2.888,0.6649227,4.6306734,-4.0439167,-1.7616258,-0.41997415,-2.6366644
2.89,0.7861624,4.672543,-3.904465,-1.8050991,-0.3892338,-2.5723388
2.892,0.90835214,4.719154,-3.7626548,-1.8448691,-0.35236827,-2.5076547
2.894,1.031824,4.770095,-3.6192627,-1.8810266,-0.3094075,-2.4428384
2.896,1.1564493,4.8251357,-3.4747705,-1.9136485,-0.2603973,-2.378085
2.898,1.282435,4.8838825,-3.329901,-1.9427884,-0.20538852,-2.3135712
2.9,1.4099002,4.9461956,-3.185409,-1.9685001,-0.14445132,-2.2494216
2.902,1.5389862,5.0118675,-3.04183,-1.9907969,-0.07766181,-2.185757
2.904,1.6697164,5.080683,-2.8998113,-2.0096698,-0.005070597,-2.1226585
2.906,1.8023174,5.15256,-2.7599397,-2.0251114,0.07324736,-2.060182
2.908,1.9367076,5.2272596,-2.622766,-2.0370784,0.15721469,-1.9983625
2.91,2.073256,5.3048754,-2.4889565,-2.0455256,0.24675941,-1.9372258
2.912,2.2120392,5.3853226,-2.3589969,-2.0504332,0.34181398,-1.8767936
2.914,2.3530693,5.4684625,-2.2334898,-2.0517802,0.44228497,-1.8170936
2.916,2.4965873,5.554434,-2.1127644,-2.0495577,0.54804033,-1.7581477
2.918,2.6426034,5.6431127,-1.9974815,-2.0437825,0.6589177,-1.7000004
2.92,2.7913227,5.7346916,-1.887978,-2.0344949,0.7746724,-1.6426845
2.922,2.9428158,5.829232,-1.7846842,-2.0217738,0.8949511,-1.586263
2.924,3.097106,5.9267488,-1.6877644,-2.005741,1.019314,-1.5308216
2.926,3.2543237,6.027353,-1.5976272,-1.986542,1.1472391,-1.4764528
2.928,3.4145439,6.1311746,-1.5144184,-1.9643687,1.2780738,-1.4232644
2.93,3.5776644,6.2382417,-1.4382846,-1.9394372,1.4110813,-1.3713658
2.932,3.743551,6.3486614,-1.3692611,-1.9119788,1.5455127,-1.3208556
2.934,3.9120762,6.4624214,-1.3073173,-1.8822542,1.6805937,-1.2718436
2.936,4.082994,6.579734,-1.2523831,-1.8505174,1.8155702,-1.2244425
2.938,4.2563577,6.700338,-1.2043539,-1.8170176,1.9497299,-1.1787237
2.94,4.4270997,6.820382,-1.1625298,-1.7819729,2.0824256,-1.134732
2.942,4.598452,6.9429874,-1.1267829,-1.7456017,2.2131014,-1.0924906
2.944,4.7699714,7.0678806,-1.0967172,-1.7081025,2.341299,-1.0519977
2.946,4.940844,7.194848,-1.0719078,-1.6696277,2.4666538,-1.0132093
2.948,5.110632,7.3237233,-1.0518794,-1.6303148,2.588873,-0.9760711
2.95,5.2787704,7.4541154,-1.0361751,-1.5902997,2.7077367,-0.9405217
2.952,5.444533,7.585564,-1.0243338,-1.5496886,2.8231187,-0.9064995
2.954,5.6071815,7.7177567,-1.0158652,-1.508545,2.9349802,-0.87395537
2.956,5.7662067,7.850163,-1.0102308,-1.4669516,3.0433125,-0.84283984
2.958,5.9211025,7.982361,-1.0070686,-1.4249872,3.1480932,-0.8131571
2.96,6.071396,8.113699,-1.0060036,-1.3827225,3.2493348,-0.7849331
2.962,6.216573,8.2438135,-1.0067425,-1.3402615,3.3470216,-0.758208
2.964,6.356194,8.372099,-1.0088264,-1.2977346,3.4411142,-0.7330692
2.966,6.490009,8.498065,-1.012007,-1.255261,3.5315766,-0.70962477
2.968,6.61782,8.621356,-1.0160929,-1.2143073,3.6160727,-0.6882207
2.97,6.7393475,8.741541,-1.0207784,-1.1743708,3.695815,-0.66874117
2.972,6.854738,8.858185,-1.0260341,-1.135821,3.7704642,-0.6512656
2.974,6.964139,8.970957,-1.0317835,-1.099032,3.8397098,-0.63584757
2.976,7.0673904,9.079538,-1.0378091,-1.0643584,3.9033208,-0.6224888
2.978,7.1644382,9.183994,-1.0439246,-1.0320843,3.961174,-0.6111377
2.98,7.2555666,9.283997,-1.0501477,-1.0024129,4.013274,-0.6016906
2.982,7.340923,9.379462,-1.0563962,-0.9754435,4.059781,-0.59400165
2.984,7.420726,9.470472,-1.0626158,-0.95118105,4.100969,-0.58788645
2.986,7.495285,9.556919,-1.0687579,-0.92955136,4.137203,-0.5831425
2.988,7.5649366,9.63888,-1.0748118,-0.9103935,4.168927,-0.5795631
2.99,7.6298876,9.716502,-1.0806441,-0.8935058,4.1966257,-0.5769401
