Time_s_,Acc_x_m_s_2_,Acc_y_m_s_2_,Acc_z_m_s_2_,Gyro_x_1_s_,Gyro_y_1_s_,Gyro_z_1_s_
0,-0.44477335,0.48600647,0.5659604,0.7107291,0.48035333,-0.2662126
0.002,-0.44551092,0.48683316,0.5994392,0.7134539,0.46695244,-0.26799095
0.004,-0.4459361,0.48729557,0.6348823,0.7166154,0.45214164,-0.2699102
0.006,-0.44599703,0.48743573,0.6722469,0.7202763,0.4358741,-0.2719546
0.008,-0.44547954,0.48693416,0.71173257,0.72448283,0.41816634,-0.2741133
0.01,-0.44419417,0.48563603,0.7532089,0.729288,0.39912748,-0.27634436
0.012,-0.44208145,0.48346668,0.7965655,0.734719,0.3789674,-0.27860823
0.014,-0.4390765,0.48046708,0.84185463,0.7407896,0.35799098,-0.2808342
0.016,-0.43511733,0.47649226,0.88908976,0.74751043,0.33658242,-0.28293175
0.018,-0.4300161,0.471499,0.9381486,0.7548787,0.31520447,-0.28480148
0.02,-0.42354357,0.46531117,0.9888608,0.7628869,0.29436675,-0.28633034
0.022,-0.41565678,0.45783857,1.0411041,0.7715065,0.27456316,-0.2874102
0.024,-0.40606982,0.4488482,1.0946797,0.7807126,0.25623232,-0.28794205
0.026,-0.39487967,0.43832213,1.1494346,0.79046905,0.23974676,-0.28784692
0.028,-0.38191536,0.42619908,1.2051749,0.80093277,0.22479981,-0.28713417
0.03,-0.36710167,0.41234618,1.261777,0.8118454,0.21243852,-0.28568572
0.032,-0.35036653,0.39680803,1.3190999,0.8231833,0.20256005,-0.28353795
0.034,-0.33171487,0.3795207,1.3768476,0.8348837,0.19498374,-0.2807992
0.036,-0.3111022,0.36038345,1.4347976,0.84686184,0.18945605,-0.27760968
0.038,-0.28848845,0.3393516,1.4926834,0.85902524,0.18567644,-0.27414376
0.04,-0.26400968,0.31636587,1.5504215,0.8712516,0.18330051,-0.27058178
0.042,-0.23780999,0.29140764,1.607916,0.8834007,0.18195502,-0.2670872
0.044,-0.21001294,0.2643903,1.6650556,0.8953488,0.181283,-0.26381457
0.046,-0.18077955,0.23542243,1.7218689,0.9069927,0.18098211,-0.26090473
0.048,-0.15043038,0.20447975,1.7783434,0.91826135,0.18083785,-0.25843993
0.05,-0.11922926,0.17162633,1.8343838,0.9291481,0.1807705,-0.25645036
0.052,-0.08749783,0.13690913,1.8899627,0.93973017,0.18088754,-0.25491375
0.054,-0.05560589,0.10039291,1.9448487,0.9501642,0.18145145,-0.25373605
0.056,-0.023678929,0.0621489,2.0002263,0.960681,0.18287759,-0.25278902
0.058,0.007619828,0.022488475,2.054347,0.9715927,0.18572325,-0.25189763
0.06,0.037851542,-0.018261164,2.106893,0.9832375,0.19066148,-0.25086936
0.062,0.06668475,-0.059775203,2.1573977,0.9959798,0.19842571,-0.24950676
0.064,0.093675554,-0.10170284,2.20546,1.0101435,0.20973982,-0.24766974
0.066,0.11846191,-0.14365065,2.250531,1.026012,0.2252712,-0.24524531
0.068,0.14080432,-0.18520784,2.2921348,1.0437778,0.24556936,-0.24218777
0.07,0.16038802,-0.22592631,2.329742,1.0635427,0.2710272,-0.23851472
0.072,0.17691255,-0.26533207,2.3627722,1.0853136,0.3018222,-0.23429117
0.074,0.19027498,-0.30283117,2.390642,1.1089978,0.33790094,-0.22963893
0.076,0.20022896,-0.33802292,2.4127598,1.1344173,0.3789811,-0.2247288
0.078,0.20686078,-0.37051326,2.4287484,1.161324,0.4245575,-0.21976757
0.08,0.20991027,-0.39982384,2.438089,1.1894011,0.47389328,-0.21498165
0.082,0.20956808,-0.4257287,2.4403195,1.218291,0.52605534,-0.21058416
0.084,0.20570841,-0.44772628,2.4352045,1.2476332,0.5799959,-0.20678282
0.086,0.19838434,-0.46571812,2.422496,1.2770799,0.63462836,-0.20373389
0.088,0.18773678,-0.4795485,2.402149,1.3063151,0.6888356,-0.20151597
0.09,0.17384064,-0.48911932,2.3743641,1.3350465,0.74153733,-0.20017493
0.092,0.15685804,-0.4944396,2.3392372,1.3630252,0.79177284,-0.19971266
0.094,0.13698073,-0.49557698,2.2971697,1.390057,0.83874017,-0.20009032
0.096,0.11432724,-0.4926665,2.248463,1.4160035,0.8818263,-0.20123613
0.098,0.08909868,-0.48583907,2.1937141,1.4407768,0.92062175,-0.20302439
0.1,0.06159316,-0.4753684,2.133433,1.4643245,0.9548888,-0.20535138
0.102,0.032127216,-0.46164596,2.0682783,1.4866254,0.9845482,-0.2081514
0.104,0.0009916127,-0.44518393,1.9990227,1.5076742,1.0095862,-0.21139693
0.106,-0.031705633,-0.42621017,1.9265251,1.5274594,1.0300261,-0.21513006
0.108,-0.06594455,-0.40496078,1.8516669,1.5459778,1.0459332,-0.21943769
0.11,-0.10131557,-0.38179296,1.7754263,1.5632222,1.057347,-0.22442678
0.112,-0.13757652,-0.3572453,1.6986885,1.5791708,1.0642787,-0.23022816
0.114,-0.17448404,-0.3317255,1.6223999,1.5938,1.0666872,-0.23698133
0.116,-0.21169782,-0.30574113,1.5475994,1.6070906,1.0645175,-0.24480736
0.118,-0.24909794,-0.2794058,1.4750676,1.6190479,1.0577401,-0.25379622
0.12,-0.28657547,-0.25292072,1.4057212,1.6296861,1.0463644,-0.26401746
0.122,-0.32375494,-0.22668388,1.3404092,1.6390572,1.0305059,-0.2755019
0.124,-0.36038613,-0.20107594,1.279735,1.6472465,1.0103868,-0.28823268
0.126,-0.3962422,-0.1762875,1.2242966,1.6543748,0.98634416,-0.3021636
0.128,-0.43112072,-0.15270123,1.1746931,1.6606003,0.9588405,-0.31722265
0.13,-0.464751,-0.1304943,1.1313683,1.6661067,0.9284241,-0.33330724
0.132,-0.4970648,-0.10975298,1.0946163,1.6710759,0.8957293,-0.35029912
0.134,-0.5279566,-0.0905728,1.0647497,1.6757041,0.861439,-0.36804697
0.136,-0.5571005,-0.07313203,1.0418991,1.6801398,0.82623917,-0.38640594
0.138,-0.58438265,-0.057621643,1.0261137,1.6845083,0.7907679,-0.40522334
0.14,-0.609711,-0.044028305,1.017261,1.6888914,0.7555932,-0.42437366
0.142,-0.6331005,-0.032457992,1.0152409,1.6933414,0.72120607,-0.44375554
0.144,-0.6544416,-0.023010328,1.0199829,1.6979034,0.6880463,-0.4632506
0.146,-0.67382514,-0.015532345,1.0310656,1.7026153,0.6564865,-0.4827295
0.148,-0.69126606,-0.010019898,1.048105,1.7075261,0.6268443,-0.50207627
0.15,-0.7068968,-0.006425157,1.0705113,1.7127023,0.59940875,-0.5211823
0.152,-0.72059745,-0.0047083795,1.0976087,1.7182343,0.5744225,-0.5399493
0.154,-0.73253465,-0.004826173,1.1287193,1.7242248,0.5521085,-0.5582458
0.156,-0.7429785,-0.0066642314,1.163237,1.730809,0.5326917,-0.57592714
0.158,-0.75189334,-0.010186508,1.2005169,1.7381392,0.5164272,-0.59283984
0.16,-0.7594974,-0.01535134,1.2400957,1.7463665,0.50354445,-0.60881364
0.162,-0.7659186,-0.022003561,1.2812991,1.7556279,0.49423677,-0.62371075
0.164,-0.77116036,-0.030215338,1.3236308,1.7660329,0.48864973,-0.6374228
0.166,-0.77546424,-0.04005611,1.3665432,1.7776592,0.48687077,-0.6498555
0.168,-0.7788858,-0.051667377,1.4095123,1.7905555,0.48892832,-0.660941
0.17,-0.7814418,-0.065066054,1.452146,1.8047284,0.4947667,-0.6706599
0.172,-0.7832991,-0.080438316,1.494213,1.8201363,0.50424546,-0.6790292
0.174,-0.78441894,-0.0977713,1.5355611,1.8367257,0.5171455,-0.6861037
0.176,-0.7850542,-0.11735234,1.5759583,1.8544122,0.5331354,-0.6919837
0.178,-0.785097,-0.13929534,1.6152667,1.8730794,0.55182356,-0.69679546
0.18,-0.7845912,-0.16373934,1.6535745,1.8926333,0.57276505,-0.7006681
0.182,-0.78356546,-0.1909766,1.6909709,1.9129584,0.595474,-0.70372283
0.184,-0.7820077,-0.22123107,1.7275317,1.9339385,0.61947274,-0.70607173
0.186,-0.7798357,-0.25449646,1.7635683,1.9554596,0.6442717,-0.70780045
0.188,-0.77719045,-0.29085505,1.7991117,1.9774048,0.66940683,-0.7089898
0.19,-0.7737988,-0.33050442,1.834455,1.9996593,0.6944721,-0.7096888
0.192,-0.769812,-0.37332797,1.8698664,2.0221205,0.7191576,-0.7098984
0.194,-0.7650412,-0.41961336,1.905525,2.0446835,0.74321604,-0.7096106
0.196,-0.75957274,-0.46916556,1.9416258,2.0672514,0.7664772,-0.7088201
0.198,-0.7535343,-0.52182776,1.9784685,2.0897436,0.78883827,-0.7075404
0.2,-0.7470168,-0.57740664,2.0159776,2.1120956,0.81027687,-0.70580584
0.202,-0.74005926,-0.63567924,2.0542412,2.1342735,0.8308371,-0.70367146
0.204,-0.7327701,-0.6964388,2.0933685,2.1562593,0.8505645,-0.7012325
0.206,-0.72515386,-0.7593321,2.133336,2.1780279,0.8694825,-0.6986263
0.208,-0.7175882,-0.8240001,2.1740077,2.1995654,0.88758075,-0.69603086
0.21,-0.71022975,-0.8899585,2.215251,2.22083,0.90477806,-0.6936376
0.212,-0.7032487,-0.9567283,2.2568934,2.2417705,0.920928,-0.6916499
0.214,-0.69684136,-1.0236833,2.2985609,2.262336,0.9358554,-0.6902541
0.216,-0.6909374,-1.0905948,2.3398535,2.2824428,0.9493457,-0.6895845
0.218,-0.6857884,-1.1571817,2.3805172,2.3020024,0.9611614,-0.689733
0.22,-0.68158543,-1.2229834,2.4199913,2.3209386,0.97106326,-0.69073886
0.222,-0.6785839,-1.2873316,2.457911,2.3391714,0.9788246,-0.6925827
0.224,-0.6768463,-1.3500547,2.493729,2.3566296,0.9842529,-0.6951796
0.226,-0.676552,-1.4107817,2.5270815,2.373275,0.9871919,-0.6983887
0.228,-0.6776347,-1.4694645,2.5575209,2.3890762,0.9875268,-0.7020375
0.23,-0.6800011,-1.5259993,2.584751,2.4040027,0.98520994,-0.705943
0.232,-0.6837532,-1.5801704,2.608275,2.4180608,0.9802105,-0.7099066
0.234,-0.68879515,-1.6319621,2.6277983,2.4312313,0.97253174,-0.7137449
0.236,-0.69493747,-1.6813638,2.6429787,2.4435146,0.9621844,-0.7172977
0.238,-0.70218784,-1.7284276,2.6535587,2.4549012,0.94917417,-0.7204319
0.24,-0.71051544,-1.7732184,2.659347,2.4653747,0.9335042,-0.7230649
0.242,-0.7193365,-1.8162905,2.6603022,2.474918,0.915178,-0.72514534
0.244,-0.72840285,-1.8578017,2.6563795,2.4835174,0.89414805,-0.7266739
0.246,-0.7376056,-1.8979973,2.6477425,2.4911718,0.870365,-0.7276724
0.248,-0.7468617,-1.9371228,2.6347394,2.4978986,0.8438096,-0.7281687
0.25,-0.75603783,-1.9755466,2.6177979,2.5037537,0.8144679,-0.72822046
0.252,-0.7646592,-2.01367,2.5973449,2.5088048,0.78236854,-0.72791314
0.254,-0.77261615,-2.0516891,2.573847,2.5131655,0.74759936,-0.7273364
0.256,-0.77965,-2.0900354,2.5480874,2.5169735,0.71029645,-0.7265697
0.258,-0.78565073,-2.1289096,2.5206447,2.520394,0.67069066,-0.72567475
0.26,-0.7903966,-2.168611,2.4922037,2.523627,0.6290983,-0.7247221
0.262,-0.79393303,-2.2093024,2.4634738,2.526886,0.5859176,-0.72375786
0.264,-0.7961276,-2.2512255,2.4352798,2.5303748,0.54160553,-0.7228228
0.266,-0.7967745,-2.2946742,2.4081895,2.534287,0.4966631,-0.7219353
0.268,-0.79605967,-2.3395846,2.3829358,2.5387647,0.45157665,-0.7210963
0.27,-0.79405975,-2.3860345,2.3602228,2.543955,0.40684927,-0.720299
0.272,-0.7908118,-2.4341125,2.3408914,2.5499692,0.3629738,-0.7194998
0.274,-0.78665453,-2.4837742,2.3257244,2.5568829,0.32040536,-0.71862674
0.276,-0.7816027,-2.5350735,2.3153794,2.5647311,0.27949643,-0.71762747
0.278,-0.77606934,-2.5878477,2.310507,2.573513,0.24050009,-0.71646607
0.28,-0.7703419,-2.6420689,2.3114648,2.583191,0.20356345,-0.71510726
0.282,-0.7646811,-2.6976705,2.3185668,2.5936942,0.1687541,-0.7135109
0.284,-0.7594133,-2.7544844,2.3318849,2.6049435,0.13605416,-0.7116467
0.286,-0.7547677,-2.8123565,2.3516486,2.6168406,0.10540843,-0.70952344
0.288,-0.7511368,-2.8712015,2.377792,2.6292896,0.076752186,-0.70715165
0.29,-0.74865454,-2.9308643,2.410217,2.6422338,0.05008769,-0.7045515
0.292,-0.7476193,-2.9911435,2.4490407,2.6556473,0.025488615,-0.70171815
0.294,-0.74842155,-3.0519605,2.4942007,2.6695206,0.0031036139,-0.69863486
0.296,-0.75133604,-3.1131456,2.5453587,2.6838965,-0.016835213,-0.6952504
0.298,-0.7564183,-3.1746306,2.6024349,2.698839,-0.03402984,-0.69149446
0.3,-0.76400435,-3.2361722,2.664991,2.7144098,-0.048213363,-0.68731964
0.302,-0.77406114,-3.297792,2.7325723,2.7306757,-0.059165835,-0.68266696
0.304,-0.78670967,-3.3593607,2.8046386,2.7476454,-0.0667671,-0.67748326
0.306,-0.8019769,-3.4207337,2.880578,2.7652931,-0.07105076,-0.67172915
0.308,-0.81965613,-3.481956,2.9598165,2.7835412,-0.07219887,-0.6653993
0.31,-0.83968186,-3.5429962,3.0418727,2.802269,-0.070560336,-0.65851694
0.312,-0.8617797,-3.6038933,3.1262054,2.8212953,-0.066661,-0.6511376
0.314,-0.88584137,-3.6645842,3.2122145,2.840404,-0.061191797,-0.6433296
0.316,-0.9118204,-3.7250824,3.299386,2.8593464,-0.054937124,-0.6351863
0.318,-0.9391215,-3.785471,3.3871794,2.8778892,-0.048697352,-0.6267699
0.32,-0.96753,-3.845817,3.475183,2.8957849,-0.04324341,-0.61813384
0.322,-0.9965141,-3.9061677,3.5628002,2.9128149,-0.039319992,-0.6093343
0.324,-1.0258017,-3.9665797,3.6496983,2.9287486,-0.037620187,-0.60040903
0.326,-1.0551168,-4.0269322,3.7354856,2.9433641,-0.038754344,-0.5914051
0.328,-1.0838448,-4.0873895,3.8197145,2.956465,-0.04323268,-0.58238125
0.33,-1.1115606,-4.1479807,3.9021719,2.9679132,-0.051394105,-0.57336956
0.332,-1.1378688,-4.2089214,3.9824238,2.9776235,-0.0634402,-0.56441486
0.334,-1.1623147,-4.2700157,4.060284,2.9855714,-0.07941079,-0.55557907
0.336,-1.1845586,-4.3312645,4.135373,2.9918177,-0.09919977,-0.5469293
0.338,-1.2042365,-4.3926587,4.2075343,2.9964883,-0.12253535,-0.5385092
0.34,-1.221253,-4.45415,4.27641,2.9997754,-0.14896142,-0.53034014
0.342,-1.235275,-4.5156627,4.341852,3.0019307,-0.17786407,-0.5224275
0.344,-1.2460409,-4.577195,4.40366,3.0032144,-0.20854712,-0.5147525
0.346,-1.2535324,-4.6385937,4.46149,3.0038881,-0.24027193,-0.5073154
0.348,-1.2575012,-4.6997385,4.515088,3.0042071,-0.27228856,-0.5000937
0.35,-1.2579154,-4.7604856,4.5641046,3.004357,-0.30392098,-0.49305752
0.352,-1.2549273,-4.820515,4.608171,3.0044842,-0.33459163,-0.4861733
0.354,-1.2485932,-4.87976,4.646933,3.0046823,-0.36387062,-0.47940952
0.356,-1.2388159,-4.9380755,4.680024,3.0049891,-0.39150906,-0.4727659
0.358,-1.2257092,-4.995414,4.7071733,3.005412,-0.41741395,-0.46625087
0.36,-1.2093472,-5.051556,4.728241,3.0059378,-0.4416443,-0.45989516
0.362,-1.1903197,-5.106285,4.743193,3.0065036,-0.46436954,-0.45375636
0.364,-1.1688392,-5.1595745,4.752247,3.007048,-0.4858426,-0.4479146
0.366,-1.1451515,-5.2113624,4.755556,3.0075264,-0.50635815,-0.4424569
0.368,-1.1196527,-5.2617145,4.753397,3.0078878,-0.5262158,-0.43745416
0.37,-1.0926673,-5.310571,4.746039,3.0080929,-0.5457455,-0.43296468
0.372,-1.0645258,-5.358007,4.733814,3.0080833,-0.5652665,-0.4290341
0.374,-1.0354989,-5.403991,4.716902,3.0078242,-0.58506346,-0.42566186
0.376,-1.0060279,-5.448604,4.6956987,3.0072947,-0.6053482,-0.4227893
0.378,-0.9762299,-5.4920435,4.6705675,3.0064898,-0.62628484,-0.42032176
0.38,-0.94625926,-5.5344152,4.6419587,3.0054343,-0.6479579,-0.4181294
0.382,-0.9163523,-5.575858,4.61017,3.0041802,-0.67037714,-0.41605747
0.384,-0.8866284,-5.6163206,4.57564,3.0027976,-0.69347036,-0.41393664
0.386,-0.85724735,-5.6559324,4.5388746,3.0013947,-0.7170806,-0.41161072
0.388,-0.82812715,-5.6949043,4.500232,3.0000954,-0.7409946,-0.40895832
0.39,-0.7993989,-5.7332306,4.460422,2.9990282,-0.7649572,-0.405873
0.392,-0.7711477,-5.770997,4.420029,2.9983096,-0.7887124,-0.40231115
0.394,-0.74331903,-5.8084245,4.37957,2.998035,-0.81207067,-0.3982538
0.396,-0.715884,-5.845378,4.339324,2.9982767,-0.83490515,-0.3937266
0.398,-0.68892217,-5.881799,4.2995553,2.999052,-0.8571443,-0.38876426
0.4,-0.6622474,-5.917754,4.2603207,3.000344,-0.8787709,-0.3834009
0.402,-0.6353941,-5.9531403,4.221711,3.0021174,-0.8998208,-0.3776883
0.404,-0.60843325,-5.98782,4.183962,3.0043492,-0.92032474,-0.371692
0.406,-0.58103585,-6.0217733,4.1473703,3.0070102,-0.94030035,-0.36544693
0.408,-0.5531621,-6.0546994,4.1121073,3.0101256,-0.9596922,-0.35898823
0.41,-0.52475,-6.086521,4.0783625,3.0137491,-0.9783618,-0.35233426
0.412,-0.49568558,-6.117016,4.046298,3.0179818,-0.9960771,-0.34550008
0.414,-0.4659493,-6.1460285,4.01608,3.022931,-1.012546,-0.33850062
0.416,-0.43518925,-6.1734896,3.9877648,3.0287132,-1.0274827,-0.33136246
0.418,-0.40377736,-6.199024,3.961378,3.0353897,-1.0406222,-0.32411706
0.42,-0.3715551,-6.2224646,3.9368992,3.0429583,-1.0517857,-0.31682676
0.422,-0.3387096,-6.243529,3.9143562,3.0513592,-1.060917,-0.30960208
0.424,-0.30537152,-6.262154,3.8937354,3.0604362,-1.0681093,-0.30256617
0.426,-0.27133036,-6.278277,3.8750706,3.069963,-1.0736272,-0.2958772
0.428,-0.23691392,-6.291728,3.8584213,3.079638,-1.0778806,-0.28970408
0.43,-0.20239043,-6.3024917,3.8436787,3.089131,-1.0813782,-0.28420684
0.432,-0.16798902,-6.310502,3.831071,3.0980997,-1.0847011,-0.27952772
0.434,-0.13372087,-6.315859,3.820601,3.1062152,-1.0884545,-0.27577865
0.436,-0.09986687,-6.3184366,3.8122234,3.1132028,-1.0931957,-0.27303737
0.438,-0.06641221,-6.318348,3.8057728,3.1188567,-1.0993929,-0.2713355
0.44,-0.033581972,-6.315737,3.8011384,3.1230245,-1.1074204,-0.2706351
0.442,-0.0015325546,-6.31068,3.798164,3.1256475,-1.1175445,-0.27086666
0.444,0.029717445,-6.303422,3.7966175,3.1267374,-1.1298949,-0.2719153
0.446,0.060144186,-6.2940435,3.7962213,3.1263585,-1.1445141,-0.2736141
0.448,0.08960152,-6.28249,3.7967935,3.1246285,-1.1613526,-0.27579293
0.45,0.11828041,-6.2688828,3.7983017,3.1216996,-1.1803038,-0.27824518
0.452,0.14652038,-6.2539186,3.8008375,3.1177595,-1.2012329,-0.2807803
0.454,0.1738193,-6.237322,3.8038101,3.1130085,-1.2239556,-0.28320655
0.456,0.20051074,-6.219246,3.806654,3.1076255,-1.2482767,-0.28533745
0.458,0.22726345,-6.1999497,3.8089666,3.101782,-1.2740109,-0.28702566
0.46,0.25424647,-6.1796093,3.810927,3.0956407,-1.3009939,-0.28815413
0.462,0.2813444,-6.1583223,3.8132296,3.0893173,-1.3290929,-0.28862616
0.464,0.30783606,-6.135935,3.815598,3.0829327,-1.3582172,-0.288409
0.466,0.33419323,-6.1128654,3.8178723,3.076577,-1.3883377,-0.2875138
0.468,0.36062384,-6.0893655,3.820643,3.07032,-1.4195032,-0.2860039
0.47,0.3875761,-6.065738,3.8230562,3.0641875,-1.4518323,-0.28396276
0.472,0.4160285,-6.041992,3.8239374,3.058212,-1.4854977,-0.28150418
0.474,0.4451053,-6.0177774,3.8234215,3.0523958,-1.5207331,-0.27873096
0.476,0.47237587,-5.9927077,3.8226452,3.0467014,-1.5578313,-0.27574176
0.478,0.4985571,-5.9678087,3.8232374,3.0410976,-1.5971068,-0.27262986
0.48,0.52709746,-5.944521,3.8257515,3.035528,-1.6388602,-0.2694931
0.482,0.55573034,-5.9217873,3.8294573,3.0298944,-1.683403,-0.2663673
0.484,0.5826664,-5.899208,3.834877,3.0240943,-1.7309926,-0.26326543
0.486,0.60854983,-5.8777027,3.8427353,3.0180378,-1.7818325,-0.26023167
0.488,0.63325286,-5.857195,3.853314,3.0116303,-1.8361228,-0.25730827
0.49,0.65621305,-5.8375816,3.8661504,3.0047574,-1.8940791,-0.25456163
0.492,0.67738414,-5.8191295,3.8809404,2.9972985,-1.955949,-0.25211197
0.494,0.6976173,-5.802597,3.8973284,2.9892242,-2.0218487,-0.2500294
0.496,0.71772695,-5.7883787,3.9148626,2.9804752,-2.0919259,-0.2483503
0.498,0.73721886,-5.7763033,3.9331818,2.9709992,-2.1664643,-0.24711253
0.5,0.75604725,-5.7663507,3.9520118,2.9609277,-2.2453735,-0.24623209
0.502,0.7752056,-5.758914,3.9710543,2.950391,-2.3285627,-0.2456165
0.504,0.7953174,-5.7541084,3.9899387,2.939361,-2.416243,-0.24523222
0.506,0.81723475,-5.7522583,4.0082827,2.9277778,-2.5086877,-0.24498782
0.508,0.8417661,-5.753272,4.0260587,2.9157312,-2.6057599,-0.24457946
0.51,0.87084126,-5.7573595,4.0420146,2.9036071,-2.7066839,-0.24347538
0.512,0.90612197,-5.764832,4.054982,2.8917506,-2.810711,-0.24129243
0.514,0.9501014,-5.77581,4.0636215,2.8804538,-2.917145,-0.23777893
0.516,1.0050793,-5.7903695,4.0667505,2.8702676,-3.0246303,-0.23235941
0.518,1.0738704,-5.8087544,4.0631404,2.8618927,-3.131331,-0.22429067
0.52,1.1594634,-5.830883,4.051451,2.856111,-3.2351882,-0.21291187
0.522,1.2648764,-5.856699,4.0301256,2.8538032,-3.3337688,-0.19758335
0.524,1.3929517,-5.8858647,3.997616,2.8559468,-3.4242678,-0.17761603
0.526,1.546102,-5.917918,3.9526832,2.8635354,-3.503656,-0.15233141
0.528,1.7269921,-5.9523616,3.894281,2.877519,-3.5689464,-0.12117541
0.53,1.9374087,-5.988341,3.8216653,2.8987932,-3.617266,-0.083767414
0.532,2.1789048,-6.0249214,3.7341707,2.9281178,-3.6460571,-0.03982991
0.534,2.4524555,-6.0612392,3.63196,2.9660573,-3.6533976,0.010781527
0.536,2.7584248,-6.096203,3.5155442,3.0129387,-3.638143,0.06796557
0.538,3.0961049,-6.1287494,3.3858602,3.0687394,-3.600032,0.13139957
0.54,3.464159,-6.1575747,3.2444232,3.1330929,-3.5396445,0.20052367
0.542,3.860201,-6.1813107,3.092852,3.2053723,-3.4583874,0.27467027
0.544,4.2814436,-6.198734,2.9333842,3.2846622,-3.3583949,0.35306272
0.546,4.724568,-6.208698,2.7686918,3.3697786,-3.2423315,0.43483403
0.548,5.185195,-6.209799,2.6016276,3.4592977,-3.1132257,0.5191054
0.55,5.65878,-6.2010155,2.435017,3.5517423,-2.9739842,0.60514116
0.552,6.1402354,-6.181287,2.2717996,3.645559,-2.8272748,0.6924237
0.554,6.624092,-6.149741,2.1147947,3.7390544,-2.6757565,0.780635
0.556,7.104767,-6.1058297,1.9667022,3.830657,-2.5215526,0.86979324
0.558,7.5768237,-6.049155,1.8300152,3.9190094,-2.3661137,0.9602342
0.56,8.034709,-5.979395,1.7067955,4.002769,-2.2107406,1.0524054
0.562,8.472834,-5.8959064,1.5989056,4.0805655,-2.0569932,1.1467241
0.564,8.886803,-5.7991233,1.508348,4.151081,-1.9065647,1.243589
0.566,9.271898,-5.6892138,1.4365902,4.213451,-1.7606461,1.3435713
0.568,9.62361,-5.5663834,1.3843701,4.267133,-1.6203246,1.4470662
0.57,9.938692,-5.4309773,1.351587,4.311644,-1.4872848,1.5538791
0.572,10.21476,-5.283532,1.3373632,4.346741,-1.363387,1.6634874
0.574,10.4502125,-5.1248536,1.3416305,4.372502,-1.2503976,1.7752125
0.576,10.64284,-4.9551306,1.3638602,4.3892255,-1.1500823,1.8880568
0.578,10.791583,-4.774978,1.402628,4.397375,-1.0641904,2.0006883
0.58,10.895818,-4.585121,1.4576705,4.397556,-0.99423534,2.1116567
0.582,10.955783,-4.386739,1.5283926,4.3904996,-0.9413066,2.2195768
0.584,10.973511,-4.181094,1.612562,4.3769836,-0.9061109,2.3232565
0.586,10.9522915,-3.969476,1.7076321,4.3578024,-0.8888866,2.4216769
0.588,10.892247,-3.7517688,1.8112755,4.3337865,-0.8893232,2.5141602
0.59,10.791996,-3.5281348,1.922796,4.3057184,-0.9066269,2.600417
0.592,10.656448,-3.3009996,2.0423887,4.2743945,-0.939649,2.6805527
0.594,10.48918,-3.0715241,2.168786,4.2405276,-0.98698974,2.7550025
0.596,10.291804,-2.8399715,2.3008516,4.2047467,-1.0469952,2.8242838
0.598,10.067244,-2.6076765,2.437969,4.1676354,-1.1178836,2.8890047
0.6,9.819168,-2.3759315,2.579946,4.129737,-1.197865,2.949792
0.602,9.550697,-2.1456778,2.7262254,4.091506,-1.2852881,3.0071392
0.604,9.264602,-1.917364,2.8756306,4.0533385,-1.3786776,3.0614152
0.606,8.964615,-1.6920121,3.026821,4.0155783,-1.4767015,3.1128678
0.608,8.655293,-1.4708979,3.1783752,3.97854,-1.5781708,3.1616666
0.61,8.34081,-1.2549767,3.3285851,3.942467,-1.6820905,3.20793
0.612,8.024154,-1.0446199,3.4760826,3.9075074,-1.7877145,3.2517858
0.614,7.708921,-0.84056437,3.6197293,3.8737516,-1.8944539,3.2933874
0.616,7.3983717,-0.6431823,3.7583678,3.841205,-2.0018625,3.3329387
0.618,7.0960064,-0.453022,3.890478,3.8097985,-2.1097171,3.3706622
0.62,6.804208,-0.26987815,4.015716,3.77934,-2.218079,3.4067664
0.622,6.525681,-0.09366003,4.1334476,3.7495794,-2.3272645,3.4414244
0.624,6.2626987,0.075900316,4.242961,3.720187,-2.4378114,3.4747071
0.626,6.0176353,0.23920587,4.3437476,3.690812,-2.5504632,3.506555
0.628,5.7920175,0.39691266,4.4354024,3.6610758,-2.6661189,3.5367365
0.63,5.587453,0.54959214,4.5180497,3.6306326,-2.7857609,3.5648742
0.632,5.405123,0.697845,4.5920715,3.5992074,-2.910312,3.590483
0.634,5.2461452,0.8421258,4.6582727,3.5666327,-3.0405304,3.6129918
0.636,5.1108346,0.98301065,4.717555,3.5329027,-3.1768792,3.6318498
0.638,4.9986463,1.1211605,4.771284,3.498157,-3.3194368,3.646549
0.64,4.9088545,1.2572032,4.8212743,3.4627233,-3.467833,3.656731
0.642,4.8401203,1.3918772,4.869743,3.4270945,-3.621186,3.6622286
0.644,4.7906623,1.5258564,4.9188504,3.391908,-3.7781124,3.6631176
0.646,4.758499,1.6595945,4.970604,3.3578725,-3.9367735,3.6597328
0.648,4.7418795,1.7933347,5.027089,3.3257606,-4.09493,3.6526442
0.65,4.7385454,1.9271486,5.089984,3.296317,-4.250084,3.6426208
0.652,4.746204,2.060989,5.160762,3.2702296,-4.3995357,3.6305618
0.654,4.7619634,2.1948972,5.24047,3.2480855,-4.540532,3.6174326
0.656,4.7829127,2.328801,5.329769,3.230341,-4.6703773,3.604203
0.658,4.8060536,2.462412,5.4292126,3.2172692,-4.786631,3.5917654
0.66,4.828749,2.5953858,5.5390925,3.2089791,-4.8872223,3.5809064
0.662,4.847954,2.7272282,5.6596355,3.205381,-4.970537,3.572257
0.664,4.861002,2.8574483,5.7904387,3.2062664,-5.0354643,3.5662599
0.666,4.86576,2.985462,5.9304657,3.2113018,-5.081463,3.5631866
0.668,4.8602595,3.1105585,6.078518,3.2199876,-5.108721,3.5631108
0.67,4.8427463,3.2321582,6.2333684,3.2317014,-5.1181493,3.5658734
0.672,4.811935,3.349533,6.393018,3.245711,-5.1113114,3.5711014
0.674,4.767013,3.4622102,6.5554485,3.2612495,-5.0903134,3.5782025
0.676,4.7072725,3.569762,6.718606,3.2775085,-5.057681,3.5863757
0.678,4.6324606,3.6719255,6.880391,3.2936888,-5.016246,3.594718
0.68,4.542521,3.7685416,7.038919,3.3090215,-4.9689603,3.6023612
0.682,4.4375157,3.8596392,7.192433,3.3228538,-4.9187007,3.6085348
0.684,4.318057,3.9453151,7.339566,3.3347147,-4.8680463,3.612668
0.686,4.1849356,4.025518,7.478913,3.3443198,-4.819102,3.6144505
0.688,4.039226,4.1005893,7.6091833,3.3516,-4.7733808,3.6139245
0.69,3.8819022,4.1709394,7.7293477,3.3566413,-4.7318587,3.6114655
0.692,3.7137413,4.237269,7.838686,3.3597076,-4.6948943,3.607758
0.694,3.5361743,4.3004594,7.936818,3.3611796,-4.662309,3.6036673
0.696,3.3506598,4.361167,8.023349,3.3614888,-4.6335816,3.6001143
0.698,3.1589503,4.4201245,8.098058,3.3610501,-4.6080146,3.5979218
0.7,2.9631743,4.478126,8.16074,3.3602548,-4.584799,3.597675
0.702,2.7651305,4.5358095,8.211369,3.3594384,-4.563169,3.599677
0.704,2.5667038,4.5937243,8.250037,3.3588662,-4.542471,3.6039174
0.706,2.3694432,4.652717,8.276528,3.3587675,-4.5222054,3.6100812
0.708,2.1747503,4.7135553,8.290953,3.3593361,-4.5020056,3.617651
0.71,1.9842101,4.7767224,8.293522,3.3607516,-4.4816365,3.6259847
0.712,1.7993913,4.842924,8.284496,3.3632035,-4.4609275,3.6344388
0.714,1.6218925,4.9123616,8.264298,3.36686,-4.439728,3.642461
0.716,1.4528468,4.985456,8.233394,3.3718586,-4.4179397,3.6496987
0.718,1.2933722,5.0625243,8.192194,3.378213,-4.3955703,3.6559935
0.72,1.1442225,5.143963,8.141131,3.385838,-4.372694,3.6613402
0.722,1.0060111,5.230191,8.080629,3.3945718,-4.3494277,3.6658664
0.724,0.87902695,5.321596,8.010966,3.404112,-4.3260016,3.6697664
0.726,0.7636423,5.4185886,7.932766,3.4140694,-4.302796,3.6732178
0.728,0.6596273,5.521434,7.846772,3.4239547,-4.2803373,3.6763258
0.73,0.5666901,5.6302733,7.7536926,3.4332905,-4.259236,3.6790996
0.732,0.48447466,5.7454367,7.6539226,3.4416552,-4.240096,3.6814291
0.734,0.4126592,5.8670077,7.548166,3.4487271,-4.2234445,3.6830957
0.736,0.35018504,5.9952784,7.4370327,3.4543126,-4.209623,3.683864
0.738,0.29616946,6.130439,7.321164,3.4583974,-4.198736,3.6835592
0.74,0.24935463,6.272685,7.201415,3.461144,-4.1906347,3.682101
0.742,0.20834845,6.42231,7.0785503,3.4628692,-4.1848736,3.6795044
0.744,0.17147467,6.579672,6.9532228,3.464039,-4.180679,3.6758723
0.746,0.13787773,6.744801,6.825855,3.4651837,-4.177103,3.671404
0.748,0.106508225,6.917607,6.696856,3.4668362,-4.1731124,3.6663353
0.75,0.07649359,7.0979667,6.56644,3.4695215,-4.1675873,3.6608984
0.752,0.04669723,7.2855988,6.4349337,3.4736984,-4.1594634,3.6553018
0.754,0.016232431,7.480409,6.302721,3.4796917,-4.1479115,3.6496835
0.756,-0.01601994,7.6819773,6.170367,3.4877007,-4.132316,3.6440794
0.758,-0.05121529,7.8900647,6.0385313,3.497806,-4.1123486,3.6384192
0.76,-0.09034878,8.1043,5.9081254,3.5099702,-4.087939,3.6325297
0.762,-0.13415653,8.324097,5.7799325,3.5240636,-4.0592556,3.6261783
0.764,-0.18324566,8.548802,5.6544743,3.5399146,-4.0266333,3.6190882
0.766,-0.23807818,8.77787,5.532154,3.5573277,-3.990476,3.6109772
0.768,-0.2987463,9.010584,5.413145,3.5761092,-3.9512477,3.6015928
0.77,-0.36564565,9.24633,5.2972527,3.5960836,-3.9094114,3.5907173
0.772,-0.43859446,9.484568,5.1840444,3.617106,-3.8653367,3.5782263
0.774,-0.5176791,9.724801,5.0731997,3.639039,-3.819338,3.5640876
0.776,-0.60305,9.966463,4.964697,3.661749,-3.7716818,3.548365
0.778,-0.69472516,10.209154,4.8581586,3.6850815,-3.7226105,3.531187
0.78,-0.7922939,10.452302,4.7531695,3.708867,-3.672366,3.5127068
0.782,-0.8956417,10.695666,4.6495776,3.732935,-3.6211994,3.4930806
0.784,-1.0048162,10.938594,4.5471306,3.7570906,-3.5693748,3.4724038
0.786,-1.1192027,11.180521,4.4454513,3.7811387,-3.517167,3.4507222
0.788,-1.2385932,11.421147,4.344153,3.804904,-3.464871,3.4280026
0.79,-1.3623565,11.659881,4.2426133,3.8282423,-3.4128308,3.4041426
0.792,-1.4897252,11.896479,4.140223,3.8510458,-3.3613281,3.378969
0.794,-1.6200233,12.130608,4.03638,3.8732762,-3.3105934,3.3522844
0.796,-1.7526603,12.362137,3.9308343,3.89495,-3.2608135,3.3239284
0.798,-1.8870745,12.590847,3.8234425,3.9161277,-3.2121327,3.2937686
0.8,-2.0224514,12.816427,3.7143166,3.9368918,-3.1646452,3.261743
0.802,-2.1579905,13.038709,3.6033702,3.9573457,-3.1184201,3.2278593
0.804,-2.29301,13.25725,3.4905488,3.97755,-3.073513,3.1921935
0.806,-2.4266434,13.472159,3.3757696,3.99754,-3.030008,3.1548467
0.808,-2.5581512,13.683115,3.2592518,4.017294,-2.9879894,3.1159291
0.81,-2.6868944,13.889917,3.141338,4.036729,-2.9475925,3.075529
0.812,-2.8121219,14.092524,3.0224586,4.0556984,-2.9089985,3.03369
0.814,-2.9333773,14.290908,2.902929,4.074003,-2.8724618,2.9904037
0.816,-3.0500095,14.485066,2.7832575,4.0914183,-2.8382869,2.9455795
0.818,-3.1615226,14.675092,2.6639314,4.1077023,-2.8068168,2.8990731
0.82,-3.2676163,14.861153,2.5453064,4.1226387,-2.7784388,2.8507211
0.822,-3.3678448,15.043102,2.4280066,4.136021,-2.7535586,2.8003273
0.824,-3.4620414,15.221117,2.312717,4.1476803,-2.7325478,2.747707
0.826,-3.5503333,15.395315,2.2001991,4.157466,-2.7158058,2.6927016
0.828,-3.6323314,15.565573,2.0910323,4.165243,-2.7037294,2.6351733
0.83,-3.7079453,15.732027,1.9859991,4.1708727,-2.6967273,2.575025
0.832,-3.7771053,15.894654,1.8857174,4.174228,-2.6951957,2.5121675
0.834,-3.8400025,16.053713,1.7910917,4.1752043,-2.6995122,2.4465446
0.836,-3.8972156,16.209316,1.7031224,4.1737084,-2.7100315,2.378082
0.838,-3.9492764,16.361767,1.6229036,4.169675,-2.727047,2.3067095
0.84,-3.9969213,16.51118,1.5515463,4.1631174,-2.7507207,2.2323227
0.842,-4.0409765,16.657852,1.490202,4.154118,-2.7810326,2.154858
0.844,-4.0826273,16.80205,1.4399168,4.142824,-2.8177352,2.0742862
0.846,-4.1227846,16.944063,1.4017799,4.1294675,-2.8603518,1.9906425
0.848,-4.162346,17.084135,1.3768568,4.114316,-2.908144,1.9040166
0.85,-4.202298,17.222633,1.3658848,4.0976624,-2.9601657,1.8145577
0.852,-4.2435083,17.359703,1.3696649,4.0797763,-3.0153105,1.7224749
0.854,-4.2865086,17.495611,1.3887603,4.0608797,-3.072382,1.6280135
0.856,-4.3324246,17.63069,1.4238884,4.041133,-3.1301284,1.5314064
0.858,-4.381777,17.765493,1.4753797,4.0206265,-3.187345,1.432864
0.86,-4.435742,17.900412,1.5436797,3.9993756,-3.2429886,1.3325564
0.862,-4.4946203,18.035927,1.6290104,3.9773111,-3.2962453,1.2306005
0.864,-4.5593376,18.172382,1.731648,3.9542906,-3.34661,1.127007
0.866,-4.6305704,18.3103,1.8519101,3.930121,-3.3939197,1.0216861
0.868,-4.7085924,18.450087,1.9898605,3.904578,-3.4383326,0.9144262
0.87,-4.793638,18.592216,2.1456494,3.8773978,-3.4802926,0.8049429
0.872,-4.8860226,18.737356,2.3192348,3.8482904,-3.520506,0.69291943
0.874,-4.9856467,18.886192,2.5108597,3.8169441,-3.559872,0.57799584
0.876,-5.092219,19.039143,2.7207944,3.7830725,-3.5993564,0.45982903
0.878,-5.2056975,19.197071,2.949287,3.7464018,-3.6399128,0.33809116
0.88,-5.325536,19.360487,3.1968284,3.7066965,-3.682351,0.21249416
0.882,-5.451501,19.53015,3.4637256,3.6637652,-3.7272673,0.082815096
0.884,-5.5831075,19.706635,3.7504077,3.6174521,-3.7750535,-0.051101483
0.886,-5.7197,19.890755,4.057171,3.567631,-3.8258526,-0.18933028
0.888,-5.860714,20.083237,4.384225,3.514179,-3.8795872,-0.33191383
0.89,-6.00565,20.284563,4.731921,3.456976,-3.9359682,-0.47882873
0.892,-6.1535864,20.495087,5.1004753,3.3959298,-3.9945538,-0.63004184
0.894,-6.303732,20.715368,5.4899273,3.330914,-4.054781,-0.7855015
0.896,-6.4555893,20.945808,5.9003615,3.2617896,-4.115987,-0.9451708
0.898,-6.6079,21.186401,6.3313847,3.188425,-4.1775074,-1.1090178
0.9,-6.759924,21.437325,6.782522,3.110661,-4.2387156,-1.2770512
0.902,-6.9110017,21.69828,7.253163,3.0283608,-4.299039,-1.449328
0.904,-7.0602913,21.968948,7.742159,2.9413967,-4.357983,-1.6259985
0.906,-7.206886,22.248783,8.247984,2.849636,-4.415118,-1.8073081
0.908,-7.3499184,22.536993,8.768828,2.7529855,-4.4701033,-1.993606
0.91,-7.488455,22.83258,9.302568,2.6513498,-4.5227017,-2.185271
0.912,-7.6216545,23.13434,9.846941,2.5446734,-4.572749,-2.3826988
0.914,-7.748622,23.440815,10.399578,2.4329906,-4.620019,-2.5862293
0.916,-7.8689966,23.750416,10.958122,2.3164327,-4.664261,-2.796084
0.918,-7.981962,24.061466,11.519672,2.195253,-4.705116,-3.0123253
0.92,-8.087151,24.372215,12.081018,2.0698574,-4.742049,-3.2347903
0.922,-8.184216,24.680626,12.639141,1.9408214,-4.7743254,-3.463046
0.924,-8.272925,24.984798,13.190857,1.8088965,-4.801029,-3.6964092
0.926,-8.353155,25.282612,13.733101,1.6749959,-4.821031,-3.9339862
0.928,-8.425233,25.571865,14.262872,1.5401597,-4.833043,-4.1746683
0.93,-8.489427,25.850433,14.7772255,1.4055026,-4.8357344,-4.417244
0.932,-8.546096,26.11619,15.273169,1.2721176,-4.827849,-4.6604576
0.934,-8.595837,26.367117,15.747625,1.1410406,-4.8082967,-4.903064
0.936,-8.639051,26.601227,16.197567,1.01317,-4.7762322,-5.1439095
0.938,-8.6764,26.816734,16.620253,0.88922286,-4.731164,-5.381959
0.94,-8.708424,27.01152,17.013048,0.7697232,-4.6729913,-5.6163254
0.942,-8.735803,27.18387,17.37385,0.6549845,-4.6020536,-5.8462853
0.944,-8.758993,27.332054,17.700787,0.54511833,-4.519104,-6.071306
0.946,-8.778359,27.454288,17.99225,0.44006443,-4.425259,-6.291009
0.948,-8.793825,27.548977,18.246962,0.33966255,-4.3219137,-6.505186
0.95,-8.804957,27.61441,18.463997,0.24368167,-4.2106414,-6.713779
0.952,-8.81122,27.648981,18.643108,0.15187597,-4.0930476,-6.916857
0.954,-8.811849,27.651196,18.784107,0.06406593,-3.970698,-7.114609
0.956,-8.805773,27.619446,18.887012,-0.019872427,-3.845024,-7.307288
0.958,-8.791599,27.55251,18.95174,-0.09993529,-3.717257,-7.4952097
0.96,-8.767637,27.449085,18.97874,-0.17600274,-3.5883663,-7.678716
0.962,-8.732202,27.308197,18.968475,-0.24785614,-3.459055,-7.858145
0.964,-8.683259,27.12881,18.921474,-0.31518745,-3.3297386,-8.033837
0.966,-8.61874,26.910099,18.838188,-0.37762046,-3.200568,-8.206087
0.968,-8.536239,26.651115,18.71934,-0.43476033,-3.071497,-8.3751335
0.97,-8.433501,26.351519,18.565876,-0.4861853,-2.9422822,-8.541142
0.972,-8.308832,26.011192,18.378326,-0.53149223,-2.812541,-8.70417
0.974,-8.159859,25.63027,18.156824,-0.5703213,-2.6818275,-8.864189
0.976,-7.9845514,25.209198,17.901413,-0.6023779,-2.549653,-9.021111
0.978,-7.7815456,24.748896,17.612411,-0.6274768,-2.4155607,-9.1747675
0.98,-7.549567,24.25048,17.290028,-0.6455326,-2.2791953,-9.324944
0.982,-7.2876005,23.715237,16.93445,-0.6566105,-2.140375,-9.47136
0.984,-6.9950876,23.144657,16.545803,-0.6608865,-1.9991107,-9.613718
0.986,-6.672063,22.540905,16.124313,-0.6586194,-1.8556242,-9.751688
0.988,-6.3186674,21.906408,15.670176,-0.65016174,-1.710396,-9.884972
0.99,-5.9357014,21.243864,15.183958,-0.6359159,-1.5641785,-10.013312
0.992,-5.5238786,20.556095,14.666647,-0.6163099,-1.4178782,-10.136501
0.994,-5.0846844,19.846357,14.119484,-0.59174573,-1.2725306,-10.254379
0.996,-4.6197557,19.117907,13.543783,-0.5625788,-1.1292014,-10.366804
0.998,-4.1307077,18.374374,12.941603,-0.52911246,-0.9889631,-10.473649
1,-3.619667,17.619753,12.314892,-0.49159336,-0.85277295,-10.574752
1.002,-3.0890393,16.85819,11.666183,-0.45028317,-0.72142506,-10.670031
1.004,-2.5409417,16.09382,10.998245,-0.40545654,-0.5955801,-10.759366
1.006,-1.9775796,15.330798,10.314215,-0.3574025,-0.47575736,-10.8426075
1.008,-1.4016047,14.573429,9.617573,-0.3064649,-0.3623643,-10.919637
1.01,-0.815434,13.825972,8.911665,-0.2530676,-0.25574064,-10.990459
1.012,-0.22128677,13.092633,8.2000675,-0.19771737,-0.15623379,-11.055126
1.014,0.37863612,12.377506,7.485998,-0.14097679,-0.06418824,-11.1137905
1.016,0.9822302,11.684337,6.773122,-0.08343482,0.020054102,-11.166737
1.018,1.5872858,11.016861,6.065245,-0.025690883,0.09618187,-11.21437
1.02,2.1914759,10.37825,5.365906,0.031681746,0.16386843,-11.257231
1.022,2.7927504,9.771143,4.6785645,0.08814439,0.22279882,-11.29599
1.024,3.3890047,9.1979,4.006355,0.14326951,0.27272105,-11.331415
1.026,3.9784083,8.660188,3.3518963,0.1967603,0.31341624,-11.364324
1.028,4.5588374,8.159247,2.7177603,0.24846084,0.3447137,-11.395536
1.03,5.1286006,7.6957245,2.1064477,0.2983545,0.36645317,-11.425849
1.032,5.6859097,7.269571,1.5201056,0.34659177,0.3785131,-11.455969
1.034,6.229292,6.8803124,0.96079004,0.39345878,0.38086247,-11.4864645
1.036,6.7571363,6.526865,0.4300611,0.43937147,0.3735187,-11.517781
1.038,7.2682323,6.2076864,-0.070660114,0.48481643,0.35661483,-11.550168
1.04,7.761366,5.920871,-0.5396104,0.5302997,0.33034492,-11.583734
1.042,8.235574,5.664032,-0.9751625,0.5763363,0.29502654,-11.61844
1.044,8.690284,5.434313,-1.3754246,0.62340295,0.25108385,-11.65407
1.046,9.124867,5.228698,-1.7386405,0.671862,0.19894385,-11.69034
1.048,9.538989,5.0442576,-2.0631807,0.7219644,0.13903761,-11.726909
1.05,9.9323225,4.878162,-2.3478084,0.77382493,0.07180929,-11.763388
1.052,10.305319,4.7274213,-2.5914361,0.827405,-0.0023827553,-11.79941
1.054,10.658127,4.5891523,-2.7928913,0.8825351,-0.083322525,-11.834621
1.056,10.991289,4.461149,-2.9510832,0.93896997,-0.170959,-11.868589
1.058,11.305344,4.3411584,-3.064954,0.9963449,-0.26535606,-11.90097
1.06,11.600733,4.2276273,-3.1336336,1.0541837,-0.3667512,-11.93146
1.062,11.878188,4.1192384,-3.156787,1.1119473,-0.47546673,-11.959761
1.064,12.138574,4.0151105,-3.134183,1.1690898,-0.59191084,-11.985594
1.066,12.38251,3.9151607,-3.0658476,1.2250346,-0.7165518,-12.008787
1.068,12.610626,3.8194067,-2.951573,1.2791699,-0.84989715,-12.029243
1.07,12.823267,3.7285438,-2.7916956,1.330897,-0.9924803,-12.04691
1.072,13.02073,3.6434493,-2.586835,1.3796022,-1.144815,-12.061763
1.074,13.203002,3.565614,-2.3378482,1.4246908,-1.3073983,-12.073854
1.076,13.370344,3.4967291,-2.0460606,1.4656028,-1.4806798,-12.08326
1.078,13.522575,3.4386501,-1.7133255,1.5017856,-1.6650572,-12.090143
1.08,13.659929,3.3933084,-1.3419952,1.5327859,-1.8608599,-12.094745
1.082,13.782605,3.362687,-0.93421745,1.5582061,-2.068327,-12.097407
1.084,13.890806,3.3486824,-0.49194574,1.5777831,-2.2875986,-12.098492
1.086,13.984897,3.3530736,-0.017203808,1.5913477,-2.5187123,-12.098438
1.088,14.065509,3.3773022,0.48765016,1.5988543,-2.7615879,-12.097767
1.09,14.13313,3.4228544,1.0202944,1.6003485,-3.0159564,-12.096991
1.092,14.188599,3.4911313,1.578301,1.5959666,-3.281432,-12.09663
1.094,14.233019,3.5830405,2.1588852,1.5858839,-3.557448,-12.0971575
1.096,14.268134,3.698808,2.759128,1.5703173,-3.843336,-12.09898
1.098,14.296065,3.8379457,3.3765702,1.5494411,-4.1383333,-12.102453
1.1,14.319218,4.000394,4.008571,1.5234241,-4.441612,-12.1078205
1.102,14.340435,4.1850443,4.652958,1.4923549,-4.752349,-12.115197
1.104,14.362759,4.390296,5.3076363,1.4562459,-5.069745,-12.124617
1.106,14.38944,4.6141562,5.9709377,1.4150658,-5.3929653,-12.136041
1.108,14.42402,4.8543177,6.6409106,1.3687186,-5.7211885,-12.149344
1.11,14.470361,5.108109,7.315973,1.3170471,-6.0536017,-12.164377
1.112,14.532129,5.372616,7.9948306,1.2599149,-6.3893065,-12.180923
1.114,14.613071,5.644417,8.67639,1.197248,-6.7273307,-12.198736
1.116,14.716693,5.9200335,9.359306,1.1290603,-7.0666714,-12.217531
1.118,14.846546,6.1959696,10.042513,1.0554233,-7.4062815,-12.236958
1.12,15.005871,6.4685435,10.725393,0.976511,-7.7450056,-12.256567
1.122,15.197469,6.7343316,11.406983,0.89263105,-8.081712,-12.275988
1.124,15.423847,6.989947,12.087072,0.80413437,-8.415407,-12.294855
1.126,15.687404,7.232077,12.765378,0.71147203,-8.745154,-12.312786
1.128,15.990163,7.4573717,13.441593,0.61518145,-9.070056,-12.329273
1.13,16.333513,7.6630845,14.115479,0.51578665,-9.389431,-12.343851
1.132,16.718386,7.846752,14.78707,0.41381693,-9.702726,-12.356043
1.134,17.14485,8.00657,15.456849,0.30975485,-10.009356,-12.365332
1.136,17.612408,8.140964,16.125494,0.20405531,-10.308706,-12.371187
1.138,18.119848,8.248617,16.793732,0.09709787,-10.600138,-12.373115
1.14,18.665462,8.328688,17.462042,-0.010785103,-10.882979,-12.370651
1.142,19.247309,8.380881,18.130901,-0.11930847,-11.156583,-12.363398
1.144,19.862688,8.405355,18.800776,-0.22824001,-11.420282,-12.351058
1.146,20.508629,8.402656,19.472284,-0.3373518,-11.673376,-12.333435
1.148,21.181826,8.3736105,20.145697,-0.44638443,-11.915194,-12.310429
1.15,21.878677,8.319486,20.82074,-0.5550451,-12.14507,-12.282007
1.152,22.595938,8.241742,21.496912,-0.66300535,-12.362331,-12.248183
1.154,23.330017,8.142259,22.173746,-0.76985455,-12.566274,-12.208982
1.156,24.07764,8.023182,22.850687,-0.8751035,-12.756174,-12.164434
1.158,24.835785,7.886479,23.527336,-0.9782543,-12.931265,-12.114512
1.16,25.601793,7.7343845,24.203213,-1.0787692,-13.09079,-12.059109
1.162,26.37285,7.5692296,24.877663,-1.1761131,-13.234042,-11.998068
1.164,27.147362,7.3933187,25.549671,-1.2697744,-13.360477,-11.931204
1.166,27.924065,7.208515,26.217985,-1.3592982,-13.469822,-11.8583765
1.168,28.702106,7.016908,26.881516,-1.4443073,-13.562153,-11.779484
1.17,29.481348,6.8202305,27.538994,-1.5244689,-13.637881,-11.694454
1.172,30.262333,6.620042,28.189188,-1.5994697,-13.697766,-11.603305
1.174,31.045843,6.417896,28.830915,-1.6690059,-13.742969,-11.506148
1.176,31.833302,6.2148623,29.46317,-1.7328296,-13.77487,-11.403048
1.178,32.625984,6.0119762,30.084911,-1.7906301,-13.794894,-11.29411
1.18,33.42593,5.809673,30.69554,-1.8421335,-13.804545,-11.179493
1.182,34.235497,5.6081715,31.294483,-1.887043,-13.805275,-11.059362
1.184,35.05692,5.4075437,31.881573,-1.9249773,-13.798333,-10.933777
1.186,35.89184,5.2079844,32.457035,-1.9555101,-13.784844,-10.802713
1.188,36.741646,5.009413,33.021446,-1.9782329,-13.765886,-10.666128
1.19,37.607956,4.811163,33.57526,-1.9927363,-13.742472,-10.5239315
1.192,38.491894,4.6128674,34.118855,-1.998615,-13.715495,-10.375978
1.194,39.39359,4.414876,34.65239,-1.9955144,-13.685868,-10.222086
1.196,40.31308,4.2167974,35.176285,-1.9831517,-13.654553,-10.062023
1.198,41.249847,4.0186424,35.69085,-1.961299,-13.622651,-9.895575
1.2,42.203136,3.819992,36.196728,-1.9298075,-13.591285,-9.722559
1.202,43.171696,3.6207757,36.694736,-1.8885934,-13.561528,-9.542778
1.204,44.153656,3.4212651,37.185898,-1.8376079,-13.534363,-9.356059
1.206,45.14664,3.222138,37.671307,-1.7767831,-13.510585,-9.1622715
1.208,46.148037,3.024476,38.151463,-1.706054,-13.490692,-8.961307
1.21,47.15484,2.8289928,38.626774,-1.6252809,-13.474752,-8.753028
1.212,48.164257,2.6369486,39.097103,-1.5342157,-13.462425,-8.537298
1.214,49.173435,2.4501066,39.56174,-1.4325566,-13.453003,-8.31396
1.216,50.179943,2.270296,40.019733,-1.3199189,-13.44539,-8.082872
1.218,51.181816,2.099185,40.470234,-1.1958611,-13.438208,-7.8438635
1.22,52.177288,1.9389539,40.912598,-1.0599275,-13.429963,-7.5966554
1.222,53.165207,1.7922316,41.34591,-0.9116989,-13.419242,-7.340946
1.224,54.14479,1.662076,41.76956,-0.7508384,-13.404775,-7.0764365
1.226,55.115852,1.5515108,42.183197,-0.5770626,-13.385531,-6.802762
1.228,56.07866,1.4641142,42.586647,-0.39019513,-13.360687,-6.5194683
1.23,57.03458,1.4038715,42.97966,-0.19016206,-13.329725,-6.2260323
1.232,57.985847,1.3749256,43.36238,0.022969246,-13.292425,-5.921842
1.234,58.935158,1.3817778,43.73468,0.24904764,-13.2487955,-5.6062384
1.236,59.88612,1.4294052,44.096153,0.4878106,-13.198932,-5.2785397
1.238,60.843002,1.5232134,44.4467,0.73891807,-13.143128,-4.938099
1.24,61.80996,1.6695862,44.786892,1.0019348,-13.081743,-4.584283
1.242,62.79107,1.8762283,45.117123,1.2764795,-13.015108,-4.216488
1.244,63.790894,2.1506262,45.437565,1.562231,-12.943512,-3.834167
1.246,64.82149,2.4926414,45.749775,1.8589711,-12.867215,-3.4368684
1.248,65.884056,2.9143128,46.052803,2.1666396,-12.786327,-3.0242062
1.25,66.98526,3.4268584,46.346165,2.48534,-12.700792,-2.5958219
1.252,68.12789,4.0440836,46.63163,2.8153431,-12.610418,-2.151335
1.254,69.31558,4.776465,46.9121,3.1569808,-12.514998,-1.6903278
1.256,70.552536,5.6347394,47.191166,3.5105205,-12.4144535,-1.2123488
1.258,71.836,6.640409,47.47024,3.8759809,-12.309051,-0.7168839
1.26,73.17344,7.808225,47.744377,4.2529826,-12.199571,-0.2034378
1.262,74.56682,9.152342,48.01228,4.640679,-12.087361,0.3283968
1.264,76.01195,10.697365,48.2731,5.037689,-11.974404,0.8789027
1.266,77.50366,12.472862,48.523254,5.4420085,-11.863423,1.4482036
1.268,79.03978,14.506147,48.764877,5.8510346,-11.757783,2.0363312
1.27,80.60941,16.823065,49.01178,6.261701,-11.661318,2.6431763
1.272,82.196846,19.44183,49.27455,6.670639,-11.578,3.2684593
1.274,83.78647,22.383982,49.551918,7.0743346,-11.511608,3.9118252
1.276,85.35816,25.677656,49.847176,7.4690475,-11.465661,4.573491
1.278,86.87978,29.342407,50.16835,7.8515134,-11.442611,5.2543964
1.28,88.33019,33.40656,50.517326,8.219187,-11.443257,5.9558916
1.282,89.669785,37.888947,50.917957,8.569854,-11.467625,6.679369
1.284,90.88566,42.77054,51.439327,8.902019,-11.514233,7.426733
1.286,91.87132,48.033653,52.189175,9.215031,-11.579541,8.200857
1.288,92.69433,53.700848,53.12016,9.509439,-11.657592,9.005293
1.29,93.3838,59.772682,54.225754,9.787038,-11.740327,9.844353
1.292,94.05563,66.16569,55.52754,10.049699,-11.819176,10.7229595
1.294,94.64146,72.89296,57.081764,10.299715,-11.884554,11.645821
1.296,95.10713,79.89888,58.922836,10.540082,-11.925138,12.616799
1.298,95.38229,87.114365,61.08265,10.772993,-11.929584,13.63854
1.3,95.47821,94.504654,63.569252,10.9980755,-11.888005,14.712025
1.302,95.41162,102.013824,66.44487,11.214827,-11.7894125,15.837598
1.304,95.199326,109.541885,69.792145,11.422529,-11.62192,17.015285
1.306,94.8738,116.99812,73.581825,11.61783,-11.377083,18.242855
1.308,94.46391,124.232635,77.70799,11.793296,-11.050399,19.513859
1.31,94.01349,131.10025,82.248085,11.939122,-10.640842,20.817902
1.312,93.622246,137.6008,87.2253,12.043077,-10.149267,22.141823
1.314,93.133896,143.84584,92.69011,12.09088,-9.5734825,23.47919
1.316,92.506096,149.5978,98.60567,12.079399,-8.899212,24.84427
1.318,92.49823,154.3273,105.08258,12.016257,-8.104704,26.237684
1.32,92.75015,158.1069,111.85697,11.908236,-7.1701794,27.634361
1.322,93.29354,160.99936,118.803505,11.763119,-6.089921,29.012842
1.324,94.11292,162.96967,125.82618,11.595096,-4.8384943,30.364258
1.326,95.45371,163.87828,132.79625,11.437174,-3.360114,31.695442
1.328,97.337006,163.75824,139.58432,11.335521,-1.6101389,33.00254
1.33,99.77155,162.6615,146.05669,11.34498,0.46453953,34.28225
1.332,102.76926,160.65318,152.0393,11.517319,2.9152012,35.52271
1.334,106.32243,157.81444,157.34831,11.897421,5.790455,36.684776
1.336,110.39561,154.24446,161.80125,12.515438,9.123734,37.706757
1.338,114.933754,150.0558,165.23505,13.3587055,12.908521,38.540127
1.34,119.849365,145.38962,167.51363,14.343937,17.02372,39.12049
1.342,125.033905,140.40222,168.53305,15.39912,21.369974,39.398632
1.344,130.35922,135.25494,168.2218,16.465885,25.834686,39.28938
1.346,135.6777,130.10887,166.53848,17.461754,30.274977,38.69713
1.348,140.83438,125.113,163.47409,18.233871,34.49605,37.617558
1.35,145.67114,120.405,159.05266,18.645674,38.300243,36.05509
1.352,150.03459,116.104675,153.33607,18.6093,41.514194,34.027565
1.354,153.7789,112.31136,146.4281,18.072618,43.998035,31.581253
1.356,156.76532,109.102394,138.47263,17.011856,45.645393,28.780323
1.358,158.88847,106.51195,129.6459,15.447274,46.394882,25.688889
1.36,160.06102,104.54768,120.14833,13.448701,46.2466,22.365913
1.362,160.22623,103.189026,110.19717,11.1213455,45.25636,18.86615
1.364,159.35608,102.39652,100.01956,8.58791,43.524017,15.244043
1.366,157.45273,102.111244,89.84172,5.972311,41.180626,11.5596
1.368,154.55573,102.25247,79.88106,3.3820515,38.37104,7.8786774
1.37,150.72314,102.739914,70.34172,0.88946724,35.236404,4.272608
1.372,146.04417,103.48982,61.397892,-1.4637756,31.911842,0.84696245
1.374,140.63443,104.408325,53.193447,-3.654913,28.523064,-2.2761765
1.376,134.62439,105.40401,45.84081,-5.680311,25.181908,-5.004241
1.378,128.15028,106.39964,39.412308,-7.5510926,21.955484,-7.280559
1.38,121.359924,107.33049,33.93834,-9.2891445,18.879223,-9.083779
1.382,114.40143,108.149734,29.424965,-10.908985,16.000235,-10.409593
1.384,107.41326,108.817085,25.858438,-12.410431,13.350507,-11.288803
1.386,100.525566,109.297806,23.191147,-13.7740555,10.959963,-11.773478
1.388,93.86142,109.57713,21.34785,-14.970562,8.85449,-11.919712
1.39,87.51237,109.64172,20.241472,-15.966726,7.061688,-11.791538
1.392,81.565994,109.49621,19.754137,-16.72013,5.6164665,-11.474324
1.394,76.063835,109.178276,19.734005,-17.184269,4.5868382,-11.027481
1.396,71.10556,108.71204,20.022587,-17.381378,3.9407144,-10.505707
1.398,66.60711,108.08208,20.615623,-17.359425,3.6292005,-9.916518
1.4,62.545326,107.29969,21.443829,-17.141312,3.6112518,-9.2677
1.402,58.83657,106.43789,22.412378,-16.70851,3.8616667,-8.6334505
1.404,55.576553,105.45985,23.412092,-16.089233,4.326219,-8.048553
1.406,52.785686,104.39469,24.378235,-15.344057,4.928129,-7.535758
1.408,50.48815,103.26441,25.262642,-14.524876,5.588294,-7.1251426
1.41,48.612484,102.04836,26.04874,-13.668816,6.239122,-6.8418436
1.412,47.09323,100.74599,26.679907,-12.813801,6.8240457,-6.6934147
1.414,45.876408,99.38714,27.108425,-11.999,7.2940454,-6.6726956
1.416,44.90477,97.97768,27.398018,-11.255161,7.616091,-6.763512
1.418,44.13746,96.56286,27.644037,-10.602861,7.77629,-6.945427
1.42,43.530174,95.15896,27.749846,-10.053004,7.776519,-7.1964703
1.422,43.007656,93.65992,27.698227,-9.606881,7.63082,-7.494297
1.424,42.72052,91.92995,27.457008,-9.25934,7.360599,-7.8170323
1.426,42.64736,90.18959,27.077652,-9.001968,6.989238,-8.144653
1.428,42.140118,88.80303,26.477135,-8.824423,6.538701,-8.459995
1.43,41.723774,87.49753,25.904243,-8.716039,6.0275726,-8.749779
1.432,41.39231,86.12767,25.38223,-8.666913,5.4697995,-9.005764
1.434,41.16362,84.70775,24.88529,-8.66786,4.8751683,-9.224376
1.436,40.82662,83.3518,24.409668,-8.709995,4.251279,-9.405113
1.438,40.427784,82.01019,23.942394,-8.785826,3.604672,-9.54963
1.44,39.994415,80.660675,23.472729,-8.89019,2.9400249,-9.660768
1.442,39.52525,79.30452,23.025011,-9.019292,2.2612987,-9.741418
1.444,39.018288,77.953896,22.622475,-9.169951,1.5730658,-9.793894
1.446,38.476624,76.62303,22.28262,-9.339359,0.8802266,-9.819511
1.448,37.899994,75.32608,22.009113,-9.525064,0.18737364,-9.818676
1.45,37.296265,74.0608,21.797382,-9.725066,-0.50142527,-9.791004
1.452,36.671223,72.82125,21.63922,-9.937716,-1.1823072,-9.735326
1.454,36.03041,71.60329,21.529934,-10.161622,-1.8517709,-9.649827
1.456,35.382435,70.40283,21.473358,-10.395839,-2.5072513,-9.532394
1.458,34.732174,69.22054,21.478779,-10.6397295,-3.1473598,-9.381063
1.46,34.08364,68.05534,21.558567,-10.892694,-3.7716637,-9.194499
1.462,33.43891,66.90607,21.721874,-11.1538315,-4.380306,-8.97222
1.464,32.80082,65.77246,21.97049,-11.421726,-4.9735866,-8.714618
1.466,32.17335,64.65934,22.29874,-11.694277,-5.5516524,-8.423069
1.468,31.557945,63.57499,22.700768,-11.968711,-6.1140633,-8.099921
1.47,30.955332,62.529068,23.169323,-12.241551,-6.6593723,-7.7482753
1.472,30.365936,61.53129,23.695034,-12.508788,-7.184977,-7.371838
1.474,29.788849,60.590343,24.268318,-12.765988,-7.687079,-6.974635
1.476,29.221706,59.71266,24.882063,-13.008526,-8.160822,-6.5607395
1.478,28.659996,58.902542,25.532019,-13.231812,-8.600457,-6.133971
1.48,28.098133,58.1623,26.214119,-13.431402,-8.999575,-5.697668
1.482,27.531408,57.493576,26.923676,-13.603177,-9.351416,-5.254545
1.484,26.954824,56.89912,27.655018,-13.743433,-9.649309,-4.806668
1.486,26.36377,56.38159,28.401306,-13.84901,-9.88703,-4.3554006
1.488,25.755095,55.943016,29.154238,-13.91727,-10.059051,-3.9014106
1.49,25.126896,55.584194,29.903826,-13.946031,-10.160574,-3.444663
1.492,24.478456,55.305405,30.638493,-13.933634,-10.187775,-2.9845376
1.494,23.809734,55.10616,31.346498,-13.878979,-10.138006,-2.5199862
1.496,23.12189,54.98535,32.016426,-13.781624,-10.009895,-2.0497336
1.498,22.41689,54.940594,32.63685,-13.641831,-9.803268,-1.5724845
1.5,21.69777,54.96827,33.197033,-13.460621,-9.519113,-1.0872025
1.502,20.968493,55.06371,33.686924,-13.239789,-9.159491,-0.5933695
1.504,20.23405,55.22131,34.09722,-12.981868,-8.727445,-0.09126186
1.506,19.500053,55.43485,34.419262,-12.6901045,-8.226929,0.41785717
1.508,18.772503,55.697285,34.645615,-12.368301,-7.662502,0.9317441
1.51,18.057491,56.00161,34.76943,-12.020691,-7.0391483,1.4472213
1.512,17.361618,56.340137,34.784737,-11.651756,-6.3622017,1.9603477
1.514,16.691141,56.70523,34.68687,-11.266105,-5.637259,2.4665785
1.516,16.051973,57.089355,34.47149,-10.868299,-4.8700695,2.9610975
1.518,15.449406,57.48523,34.13506,-10.462749,-4.0664797,3.439054
1.52,14.88867,57.88577,33.67395,-10.053621,-3.2323964,3.8958051
1.522,14.374746,58.283573,33.08563,-9.644728,-2.3737931,4.3270464
1.524,13.911121,58.672146,32.36797,-9.2394705,-1.4967399,4.728964
1.526,13.499161,59.045387,31.520262,-8.840829,-0.607484,5.0982237
1.528,13.140227,59.397587,30.542858,-8.451401,0.28748637,5.432003
1.53,12.834777,59.723545,29.436687,-8.073438,1.1813657,5.727889
1.532,12.581866,60.018425,28.203953,-7.7089252,2.066947,5.9838495
1.534,12.379272,60.278244,26.848333,-7.3597083,2.9364936,6.1981077
1.536,12.223788,60.49945,25.374275,-7.0275726,3.7817404,6.3691416
1.538,12.111374,60.67923,23.787022,-6.714295,4.5939565,6.495693
1.54,12.037489,60.81516,22.093008,-6.421662,5.364008,6.5768065
1.542,11.99708,60.905224,20.299831,-6.1516013,6.082428,6.6118855
1.544,11.984663,60.94777,18.416058,-5.9060993,6.7396045,6.600752
1.546,11.994438,60.94162,16.45146,-5.6871147,7.32619,6.543718
1.548,12.020515,60.885727,14.41723,-5.496496,7.8334575,6.4416914
1.55,12.05717,60.77998,12.325339,-5.335862,8.253564,6.296245
1.552,12.098614,60.62453,10.1886425,-5.206498,8.579911,6.1095953
1.554,12.139175,60.4194,8.021265,-5.1092663,8.807564,5.8845353
1.556,12.173662,60.16461,5.8378587,-5.044534,8.933531,5.6243467
1.558,12.196958,59.86064,3.6532202,-5.012094,8.956835,5.3327804
1.56,12.204842,59.508133,1.4816952,-5.0111194,8.878668,5.013925
1.562,12.193516,59.107826,-0.66249084,-5.040227,8.70228,4.6719995
1.564,12.160126,58.660583,-2.7657137,-5.097464,8.432849,4.3112555
1.566,12.102489,58.167683,-4.815016,-5.1803627,8.077322,3.9359055
1.568,12.019318,57.630627,-6.798747,-5.285937,7.6441736,3.5500793
1.57,11.910209,57.051064,-8.706348,-5.410784,7.1430755,3.1577501
1.572,11.775459,56.4308,-10.528519,-5.551109,6.5846176,2.7627268
1.574,11.616234,55.771877,-12.257891,-5.702836,5.9799833,2.3686907
1.576,11.434538,55.075993,-13.888767,-5.861659,5.340634,1.9792068
1.578,11.232062,54.34524,-15.4169445,-6.023127,4.678088,1.5976393
1.58,11.011183,53.581657,-16.840391,-6.182763,4.0036306,1.2271385
1.582,10.774245,52.787033,-18.158804,-6.336155,3.3281264,0.8704939
1.584,10.523808,51.96294,-19.373772,-6.4791174,2.6617682,0.53008246
1.586,10.262335,51.111168,-20.488155,-6.60782,2.0138412,0.20779228
1.588,9.992053,50.23339,-21.506039,-6.7188683,1.392565,-0.09498119
1.59,9.715388,49.331367,-22.432402,-6.80945,0.80492556,-0.37742853
1.592,9.433915,48.407043,-23.272936,-6.8773866,0.2565322,-0.63931537
1.594,9.149158,47.46221,-24.033823,-6.9212146,-0.2485125,-0.8809719
1.596,8.862176,46.498917,-24.72155,-6.9402,-0.7076404,-1.1032102
1.598,8.573477,45.519356,-25.342505,-6.9342794,-1.1197537,-1.3071214
1.6,8.283489,44.52595,-25.903074,-6.904052,-1.4851409,-1.4939804
1.602,7.9919415,43.52133,-26.408974,-6.85067,-1.8053663,-1.665122
1.604,7.698658,42.50831,-26.865309,-6.7757125,-2.0829582,-1.8218044
1.606,7.4027834,41.48987,-27.276815,-6.6810613,-2.321206,-1.9651115
1.608,7.1032915,40.469402,-27.647444,-6.568784,-2.5239148,-2.0958412
1.61,6.7991686,39.450542,-27.980469,-6.440963,-2.6951044,-2.214481
1.612,6.4893,38.437145,-28.278555,-6.2996006,-2.8387191,-2.3212395
1.614,6.1724043,37.43308,-28.543732,-6.146508,-2.958486,-2.4160218
1.616,5.8475447,36.442383,-28.77723,-5.983189,-3.057745,-2.4984298
1.618,5.5140057,35.46917,-28.979645,-5.8108144,-3.1393561,-2.5678906
1.62,5.171173,34.51747,-29.151045,-5.630241,-3.2056901,-2.6237693
1.622,4.8189983,33.5912,-29.2911,-5.4420276,-3.2586017,-2.6654558
1.624,4.457987,32.69353,-29.39929,-5.246477,-3.2995012,-2.6924138
1.626,4.0889845,31.82763,-29.474571,-5.043676,-3.3294194,-2.704288
1.628,3.7131033,30.996164,-29.516296,-4.8335576,-3.3490713,-2.700985
1.63,3.332137,30.201332,-29.523966,-4.616037,-3.358909,-2.6827207
1.632,2.9478197,29.445084,-29.497524,-4.391,-3.3591628,-2.6499612
1.634,2.562808,28.728601,-29.436562,-4.1583557,-3.3498652,-2.603404
1.636,2.1804361,28.052433,-29.341492,-3.9180748,-3.3309574,-2.543896
1.638,1.8035526,27.416899,-29.213356,-3.6701777,-3.3022308,-2.472409
1.64,1.4352131,26.821436,-29.05327,-3.4147408,-3.2633686,-2.3900306
1.642,1.0791616,26.265,-28.862976,-3.1519165,-3.2140298,-2.2979045
1.644,0.73888874,25.74599,-28.644436,-2.8819072,-3.153823,-2.1971488
1.646,0.41777134,25.26255,-28.400082,-2.6049547,-3.082399,-2.0888486
1.648,0.11898899,24.812555,-28.132475,-2.3213549,-2.99947,-1.9740634
1.65,-0.15454006,24.393564,-27.8444,-2.0314462,-2.9048784,-1.8538394
1.652,-0.40015697,24.003002,-27.538578,-1.7356318,-2.798663,-1.7292197
1.654,-0.6154375,23.638065,-27.217491,-1.4343867,-2.6811044,-1.601217
1.656,-0.7983389,23.296028,-26.883816,-1.1282563,-2.5527313,-1.4708252
1.658,-0.94721603,22.974176,-26.540154,-0.81791484,-2.4144127,-1.3389851
1.66,-1.0610294,22.669506,-26.188894,-0.50415665,-2.2673209,-1.2065603
1.662,-1.1388597,22.379251,-25.832432,-0.18792367,-2.1129491,-1.074378
1.664,-1.1804228,22.10109,-25.473091,0.12967634,-1.9530941,-0.9432044
1.666,-1.1859379,21.833158,-25.112852,0.447384,-1.7898309,-0.8137659
1.668,-1.1557426,21.573467,-24.753326,0.76380014,-1.6254536,-0.68674856
1.67,-1.0906315,21.320328,-24.395615,1.077424,-1.4624419,-0.5627922
1.672,-0.99181175,21.072657,-24.04068,1.3866917,-1.3033532,-0.44247645
1.674,-0.8608093,20.829676,-23.689045,1.6900666,-1.1507404,-0.3263455
1.676,-0.6993942,20.590801,-23.341019,1.9860841,-1.007082,-0.21489882
1.678,-0.50944996,20.355938,-22.996592,2.273392,-0.87464947,-0.108587205
1.68,-0.29329967,20.125195,-22.655363,2.5508068,-0.75547487,-0.0077703
1.682,-0.053367615,19.899084,-22.316639,2.8173268,-0.6512768,0.08730513
1.684,0.20782089,19.678068,-21.979279,3.0721884,-0.5634427,0.17651671
1.686,0.4875145,19.463036,-21.64222,3.3148518,-0.49300313,0.25985736
1.688,0.78338337,19.255016,-21.303991,3.54499,-0.44065452,0.33742797
1.69,1.0927582,19.05521,-20.963018,3.7625093,-0.4067484,0.40942574
1.692,1.4132118,18.864931,-20.618011,3.967473,-0.391361,0.47609895
1.694,1.742384,18.685556,-20.267574,4.1600933,-0.3943262,0.53773665
1.696,2.0779972,18.518488,-19.910572,4.340702,-0.41523695,0.59461844
1.698,2.4178743,18.365082,-19.545834,4.509711,-0.45354712,0.6469948
1.7,2.7599602,18.226646,-19.17233,4.6675935,-0.50855815,0.69506574
1.702,3.1026182,18.10435,-18.78925,4.814845,-0.5794693,0.7389784
1.704,3.4441547,17.99924,-18.395851,4.951985,-0.6654022,0.7788316
1.706,3.7834282,17.912302,-17.991472,5.079526,-0.7653986,0.814672
1.708,4.1192245,17.844234,-17.575787,5.197969,-0.87843966,0.84650254
1.71,4.45047,17.795843,-17.148584,5.307791,-1.0034703,0.87431276
1.712,4.7763596,17.767754,-16.70988,5.4094787,-1.139377,0.89809227
1.714,5.096182,17.760338,-16.259857,5.5034976,-1.2850269,0.91783965
1.716,5.4094687,17.773888,-15.798676,5.590314,-1.4392793,0.9335952
1.718,5.716036,17.808487,-15.32649,5.670391,-1.6009948,0.9454231
1.72,6.0156555,17.864017,-14.843814,5.74417,-1.7690481,0.9534321
1.722,6.3083286,17.940273,-14.351023,5.8121157,-1.9423571,0.9577484
1.724,6.5940413,18.036854,-13.848516,5.874675,-2.1198826,0.95851994
1.726,6.8728747,18.153168,-13.336712,5.932294,-2.3006625,0.95586777
1.728,7.1449833,18.28857,-12.816213,5.9853897,-2.4838524,0.94992757
1.73,7.4106383,18.442219,-12.287421,6.034359,-2.6686897,0.9408257
1.732,7.669962,18.613205,-11.75071,6.079568,-2.8545442,0.928669
1.734,7.923114,18.800709,-11.206479,6.121349,-3.0408602,0.9135375
1.736,8.170412,19.003756,-10.655104,6.160016,-3.2271485,0.8954971
1.738,8.412113,19.221298,-10.096824,6.195817,-3.4129725,0.8745451
1.74,8.648283,19.452326,-9.53191,6.2289753,-3.5979476,0.85066557
1.742,8.87924,19.69556,-8.960478,6.2597075,-3.7816827,0.82381034
1.744,9.105139,19.94973,-8.382698,6.288207,-3.9637935,0.7939179
1.746,9.326109,20.213665,-7.7986536,6.314686,-4.143886,0.7609229
1.748,9.54207,20.486013,-7.2083387,6.339343,-4.321567,0.72475195
1.75,9.753102,20.765411,-6.6118994,6.3623867,-4.4964457,0.6853783
1.752,9.959347,21.050343,-6.0092506,6.3840594,-4.6681013,0.6428158
1.754,10.160693,21.339489,-5.4004536,6.4045925,-4.836115,0.59711695
1.756,10.356943,21.631338,-4.785546,6.4242406,-5.0000668,0.5483866
1.758,10.548219,21.924452,-4.164716,6.443269,-5.159511,0.49678612
1.76,10.734613,22.217398,-3.5382094,6.461938,-5.3139906,0.4425192
1.762,10.915907,22.508791,-2.9063993,6.4805093,-5.4629884,0.3858242
1.764,11.091988,22.797157,-2.2696137,6.4992294,-5.6059437,0.32692432
1.766,11.262784,23.081219,-1.6283867,6.5183344,-5.7422605,0.26605463
1.768,11.428417,23.359404,-0.983269,6.5380526,-5.871283,0.20344448
1.77,11.58867,23.630331,-0.3347956,6.5586042,-5.992309,0.1393261
1.772,11.743575,23.892567,0.31636494,6.5801706,-6.1046467,0.073942184
1.774,11.893253,24.14472,0.9695078,6.6029162,-6.207591,0.0075354576
1.776,12.0377035,24.385496,1.6237485,6.626946,-6.30046,-0.05963373
1.778,12.176801,24.613668,2.27817,6.6523147,-6.382626,-0.12729502
1.78,12.310678,24.827927,2.9319,6.6790333,-6.45354,-0.1951356
1.782,12.439301,25.026882,3.5841546,6.707035,-6.5127587,-0.26287127
1.784,12.562732,25.209318,4.234145,6.7361846,-6.5599823,-0.33026123
1.786,12.68095,25.37421,4.8809156,6.766283,-6.5950575,-0.39711857
1.788,12.793985,25.520365,5.5236974,6.797037,-6.6180115,-0.463305
1.79,12.901754,25.646826,6.161618,6.8280907,-6.6290674,-0.5287256
1.792,13.004158,25.752565,6.7937465,6.8589935,-6.6286,-0.59333944
1.794,13.100969,25.836843,7.4191804,6.889247,-6.6171236,-0.657104
1.796,13.192028,25.898876,8.037186,6.9182653,-6.595264,-0.71997976
1.798,13.276968,25.937893,8.64696,6.945419,-6.563713,-0.7818923
1.8,13.355585,25.953274,9.247558,6.970065,-6.523189,-0.84272265
1.802,13.427387,25.944597,9.838242,6.9915724,-6.474373,-0.9023063
1.804,13.491632,25.911522,10.418224,7.009369,-6.4179316,-0.96044636
1.806,13.547731,25.853758,10.986627,7.022957,-6.354413,-1.0169556
1.808,13.594984,25.77131,11.542498,7.031992,-6.2842736,-1.0716617
1.81,13.632709,25.664234,12.08495,7.0362825,-6.2078876,-1.1244597
1.812,13.660109,25.532679,12.613151,7.0357676,-6.125561,-1.1753275
1.814,13.676683,25.376888,13.126057,7.030583,-6.0375023,-1.2243521
1.816,13.681519,25.19725,13.622534,7.021012,-5.9438567,-1.2717047
1.818,13.674007,24.994286,14.101505,7.0074544,-5.844725,-1.3176303
1.82,13.653875,24.768278,14.56192,6.9903893,-5.7401824,-1.362443
1.822,13.620277,24.520111,15.002633,6.9703264,-5.6302824,-1.4064837
1.824,13.572971,24.250729,15.422534,6.94776,-5.5150967,-1.4500823
1.826,13.511892,23.96114,15.820408,6.9231358,-5.3947263,-1.4935184
1.828,13.436949,23.652409,16.195187,6.8968344,-5.2693324,-1.5370119
1.83,13.348461,23.325886,16.545732,6.869137,-5.1391125,-1.580719
1.832,13.24695,22.982937,16.87104,6.840224,-5.0043592,-1.6247094
1.834,13.133146,22.625074,17.170258,6.8101673,-4.8653936,-1.6690042
1.836,13.008166,22.254002,17.44246,6.7789826,-4.7225814,-1.7135406
1.838,12.873155,21.871346,17.68695,6.7466035,-4.5763326,-1.7581675
1.84,12.72967,21.478933,17.903103,6.71289,-4.4271,-1.8027053
1.842,12.5795765,21.07861,18.090374,6.6776447,-4.275368,-1.8469374
1.844,12.424814,20.672346,18.248255,6.6406198,-4.1215935,-1.890646
1.846,12.26768,20.262012,18.376495,6.6015587,-3.96622,-1.9335926
1.848,12.110543,19.8495,18.475014,6.560181,-3.809675,-1.9755695
1.85,11.955792,19.436876,18.543959,6.5162034,-3.6523829,-2.0163696
1.852,11.8060665,19.026085,18.58338,6.4693956,-3.4947376,-2.0558214
1.854,11.663711,18.619162,18.593548,6.419561,-3.3371344,-2.0938046
1.856,11.531564,18.217848,18.57494,6.366553,-3.1799858,-2.1302524
1.858,11.412004,17.824013,18.528053,6.3102903,-3.0237317,-2.165154
1.86,11.3075075,17.43928,18.453487,6.2507515,-2.8688617,-2.1985698
1.862,11.220057,17.06521,18.352068,6.1879644,-2.715902,-2.2306366
1.864,11.151764,16.703102,18.22456,6.1220226,-2.565399,-2.2615314
1.866,11.104319,16.354198,18.072166,6.053097,-2.4179165,-2.2914796
1.868,11.079036,16.0196,17.896124,5.9813643,-2.2740664,-2.3207088
1.87,11.076889,15.700139,17.69786,5.907041,-2.1344652,-2.3494172
1.872,11.098636,15.396622,17.478916,5.8304253,-1.999706,-2.3777738
1.874,11.144654,15.109712,17.240822,5.7518444,-1.8703575,-2.4059277
1.876,11.2147255,14.839721,16.9855,5.671694,-1.7469682,-2.4339743
1.878,11.308181,14.587032,16.714546,5.590394,-1.6300318,-2.4619656
1.88,11.424231,14.351857,16.429987,5.508419,-1.5199933,-2.489953
1.882,11.561809,14.133984,16.133974,5.4262276,-1.4172746,-2.5179706
1.884,11.719094,13.933304,15.828577,5.344267,-1.3222725,-2.5460556
1.886,11.8942585,13.7492895,15.516033,5.262944,-1.2353365,-2.57431
1.888,12.085127,13.581662,15.198584,5.1825786,-1.156811,-2.6028411
1.89,12.2892,13.429741,14.878544,5.1033983,-1.0870028,-2.6318111
1.892,12.504109,13.292881,14.558016,5.025527,-1.0261772,-2.6614218
1.894,12.727005,13.170338,14.239211,4.949008,-0.97454447,-2.6919084
1.896,12.955374,13.0612545,13.924146,4.873788,-0.9322688,-2.7235303
1.898,13.186438,12.964661,13.614724,4.799718,-0.89947927,-2.7565606
1.9,13.4176445,12.879642,13.312647,4.7265835,-0.87625337,-2.791259
1.902,13.6465,12.805314,13.019474,4.6541214,-0.86260074,-2.8278902
1.904,13.870688,12.740763,12.736627,4.5820575,-0.8584598,-2.8667068
1.906,14.088118,12.685005,12.465195,4.510094,-0.8637211,-2.9078996
1.908,14.296964,12.637295,12.206109,4.437951,-0.8782088,-2.9515889
1.91,14.495548,12.596699,11.960205,4.3653812,-0.9016923,-2.9978175
1.912,14.682663,12.562388,11.728115,4.2921944,-0.9338747,-3.0465286
1.914,14.85733,12.533823,11.510134,4.21823,-0.9744135,-3.097519
1.916,15.018633,12.510328,11.306468,4.143397,-1.0229006,-3.150476
1.918,15.166082,12.491319,11.117159,4.067646,-1.0789232,-3.205007
1.92,15.299288,12.476427,10.942102,3.9909515,-1.1420406,-3.260638
1.922,15.418314,12.46525,10.780882,3.9133382,-1.2117796,-3.3168757
1.924,15.523234,12.457518,10.633046,3.8348336,-1.2876765,-3.373258
1.926,15.614664,12.452896,10.498014,3.7554493,-1.3692747,-3.4293423
1.928,15.6932335,12.451055,10.375189,3.6752036,-1.4560983,-3.4847567
1.93,15.759564,12.45194,10.263826,3.594084,-1.5476866,-3.5392296
1.932,15.814804,12.455137,10.163354,3.5120754,-1.6435909,-3.5925941
1.934,15.859793,12.4603615,10.073042,3.4291315,-1.7433844,-3.6447299
1.936,15.895666,12.467396,9.992358,3.345234,-1.8466315,-3.695586
1.938,15.923724,12.475874,9.920412,3.2603393,-1.9528912,-3.74512
1.94,15.945149,12.485443,9.856796,3.1744282,-2.061713,-3.7932773
1.942,15.961138,12.495661,9.800965,3.0875094,-2.1726375,-3.8400075
1.944,15.973112,12.506083,9.7523155,2.9996026,-2.2851923,-3.885213
1.946,15.982203,12.516073,9.710417,2.9107625,-2.398904,-3.928761
1.948,15.989843,12.525082,9.674937,2.8210807,-2.5132642,-3.9704683
1.95,15.997249,12.53228,9.645578,2.730685,-2.6277533,-4.010128
1.952,16.005611,12.536903,9.62211,2.639747,-2.7418656,-4.0474987
1.954,16.015991,12.538004,9.604518,2.5484684,-2.8551054,-4.082353
1.956,16.029495,12.534921,9.592555,2.4570599,-2.9670174,-4.1144524
1.958,16.047071,12.52689,9.586308,2.3657522,-3.0771897,-4.143614
1.96,16.070192,12.512802,9.585522,2.2747693,-3.1852403,-4.169707
1.962,16.09911,12.492029,9.590472,2.1843548,-3.2907999,-4.192658
1.964,16.134653,12.463742,9.601135,2.0947394,-3.3934913,-4.212441
1.966,16.177607,12.4272995,9.617393,2.006179,-3.492921,-4.2290874
1.968,16.228117,12.382121,9.639304,1.9189448,-3.5886447,-4.2426534
1.97,16.286545,12.327812,9.666717,1.8333354,-3.6801322,-4.253173
1.972,16.353018,12.264006,9.699372,1.7496997,-3.7667785,-4.2606454
1.974,16.427504,12.190317,9.737022,1.6684397,-3.847901,-4.2650313
1.976,16.509785,12.106716,9.77894,1.590028,-3.922766,-4.266213
1.978,16.59938,12.013171,9.824386,1.5149925,-3.990611,-4.264031
1.98,16.695913,11.909743,9.872433,1.4439034,-4.05071,-4.2583113
1.982,16.798838,11.796552,9.922034,1.3773409,-4.102416,-4.2489076
1.984,16.907192,11.673913,9.971957,1.315882,-4.1452,-4.235756
1.986,17.020351,11.542121,10.020825,1.2600545,-4.1787004,-4.2189198
1.988,17.13733,11.401603,10.067352,1.2103055,-4.2027864,-4.1986256
1.99,17.257051,11.252713,10.109973,1.1669511,-4.2175508,-4.1752715
1.992,17.37831,11.096038,10.147161,1.1301875,-4.2233305,-4.1494575
1.994,17.500053,10.932001,10.177355,1.1000751,-4.22069,-4.121911
1.996,17.62125,10.761096,10.199205,1.0765167,-4.2104464,-4.093457
1.998,17.7409,10.583646,10.211313,1.0592752,-4.1936135,-4.06496
2,17.857674,10.400322,10.212428,1.0480188,-4.171339,-4.037253
2.002,17.970566,10.211501,10.201576,1.0423051,-4.144893,-4.011068
2.004,18.07874,10.017541,10.17785,1.0416155,-4.1155815,-3.9870012
2.006,18.181221,9.818899,10.140802,1.0454087,-4.0846686,-3.9654589
2.008,18.277225,9.616047,10.090108,1.0531101,-4.053376,-3.9466767
2.01,18.366026,9.40937,10.0258045,1.0641471,-4.0227957,-3.9306874
2.012,18.446955,9.199283,9.948079,1.0779613,-3.9938543,-3.9173634
2.014,18.519701,8.986177,9.857266,1.0940105,-3.9672987,-3.906438
2.016,18.58369,8.770622,9.754055,1.1117628,-3.9436994,-3.8975587
2.018,18.638735,8.553049,9.63915,1.1307257,-3.9234462,-3.890307
2.02,18.684818,8.333984,9.513543,1.1504202,-3.906735,-3.884259
2.022,18.721783,8.113968,9.37803,1.1704099,-3.8936076,-3.8789928
2.024,18.749903,7.8934474,9.233655,1.1902826,-3.8840013,-3.8741133
2.026,18.769348,7.6731067,9.081631,1.2096597,-3.8777785,-3.8692935
2.028,18.780542,7.4534388,8.92294,1.2281832,-3.8747509,-3.8642707
2.03,18.783878,7.2350183,8.758646,1.24553,-3.874713,-3.858876
2.032,18.779877,7.018405,8.589777,1.261416,-3.8774524,-3.853026
2.034,18.769104,6.8040533,8.417361,1.275593,-3.8827672,-3.8467023
2.036,18.752161,6.5925374,8.24246,1.287842,-3.8904772,-3.8399618
2.038,18.729721,6.3843684,8.065718,1.2979889,-3.9004307,-3.8329208
2.04,18.702602,6.179841,7.8879747,1.3058901,-3.912488,-3.8257241
2.042,18.67155,5.979265,7.709815,1.31144,-3.9265175,-3.8185425
2.044,18.637474,5.7829323,7.5318303,1.3145877,-3.942443,-3.8115337
2.046,18.600937,5.5911007,7.3543396,1.3153034,-3.9602017,-3.8048103
2.048,18.562698,5.4040313,7.1780767,1.3135743,-3.9797578,-3.7984827
2.05,18.52336,5.221884,7.003412,1.3094227,-4.0010557,-3.7925978
2.052,18.483765,5.044698,6.830675,1.3028941,-4.0240397,-3.7871711
2.054,18.44437,4.8727055,6.6603966,1.2940177,-4.0486593,-3.7821763
2.056,18.4057,4.7059016,6.493017,1.2828401,-4.0748434,-3.7775388
2.058,18.36803,4.544391,6.328907,1.2694051,-4.1024942,-3.773145
2.06,18.331692,4.388393,6.168371,1.2537305,-4.131467,-3.7688518
2.062,18.296854,4.237893,6.0118585,1.2358421,-4.1615396,-3.764489
2.064,18.263796,4.092891,5.8596787,1.2157557,-4.1924343,-3.759873
2.066,18.23225,3.9535089,5.712203,1.1934929,-4.223832,-3.7548301
2.068,18.202301,3.8196387,5.569639,1.1690799,-4.255364,-3.7492223
2.07,18.173346,3.6914759,5.432496,1.142566,-4.286649,-3.742963
2.072,18.14539,3.568829,5.3008976,1.1140109,-4.3172865,-3.7359831
2.074,18.118166,3.451704,5.1751823,1.0835004,-4.3469467,-3.7282963
2.076,18.091038,3.3400226,5.055665,1.0511367,-4.375351,-3.7199862
2.078,18.063753,3.2337065,4.94242,1.0170386,-4.4022865,-3.711176
2.08,18.035686,3.1326714,4.8356237,0.98134303,-4.4276314,-3.7020545
2.082,18.00645,3.0367522,4.7353063,0.9441855,-4.451345,-3.6928232
2.084,17.975449,2.9459825,4.641464,0.905705,-4.4734697,-3.6836858
2.086,17.942265,2.8601866,4.5541267,0.8660178,-4.4940934,-3.6748245
2.088,17.90664,2.77911,4.4732075,0.8252541,-4.5133286,-3.6663704
2.09,17.868124,2.702806,4.3985476,0.78351593,-4.531272,-3.6583896
2.092,17.826372,2.6311302,4.33001,0.74092174,-4.5479803,-3.6508584
2.094,17.781364,2.5639358,4.267317,0.6975645,-4.5634613,-3.6436958
2.096,17.732784,2.5012317,4.2101955,0.6535686,-4.577647,-3.6367342
2.098,17.680647,2.4429135,4.1583014,0.609043,-4.590418,-3.6297636
2.1,17.625046,2.389063,4.1111455,0.56413746,-4.6016045,-3.6225302
2.102,17.565989,2.3397646,4.068304,0.51901925,-4.6110163,-3.61475
2.104,17.503904,2.2949982,4.0293236,0.47386813,-4.6184335,-3.6061451
2.106,17.43899,2.2548752,3.9936035,0.42887092,-4.623683,-3.5964456
2.108,17.371492,2.2194657,3.9607074,0.3842101,-4.6266346,-3.5854006
2.11,17.301884,2.1888628,3.9301038,0.34007227,-4.627234,-3.5728054
2.112,17.230457,2.163196,3.9011977,0.2966019,-4.625511,-3.5585206
2.114,17.157797,2.1425388,3.873641,0.25392908,-4.6215706,-3.5424516
2.116,17.084133,2.1269503,3.846957,0.21215183,-4.6155987,-3.5245488
2.118,17.009869,2.1165285,3.8208652,0.17132324,-4.6078486,-3.5048575
2.12,16.935333,2.111191,3.7950327,0.13146585,-4.598599,-3.4834466
2.122,16.860996,2.1108267,3.7692697,0.09259367,-4.5881243,-3.4604301
2.124,16.786942,2.1154084,3.7434852,0.054711163,-4.576664,-3.4359546
2.126,16.713448,2.1247268,3.7175996,0.017829716,-4.5643935,-3.4101958
2.128,16.640556,2.1385489,3.6917522,-0.01802069,-4.5513964,-3.3833067
2.13,16.568533,2.1565588,3.665907,-0.05277449,-4.5376616,-3.3554258
2.132,16.497417,2.178443,3.64026,-0.08634627,-4.5230865,-3.3266582
2.134,16.427193,2.203659,3.6150136,-0.118612766,-4.507475,-3.2970805
2.136,16.35793,2.2318506,3.5902438,-0.14942664,-4.490553,-3.2667403
2.138,16.289343,2.262516,3.5663242,-0.178599,-4.471986,-3.2356663
2.14,16.221355,2.2952418,3.5434475,-0.20592982,-4.4513803,-3.2038674
2.142,16.153976,2.3293786,3.5217605,-0.23121238,-4.428345,-3.1713505
2.144,16.08698,2.3645246,3.5014496,-0.2542379,-4.402481,-3.138083
2.146,16.020123,2.4001582,3.482511,-0.27482158,-4.3734202,-3.1040206
2.148,15.95336,2.435742,3.465115,-0.29278946,-4.3408585,-3.0691152
2.15,15.886485,2.470875,3.4492507,-0.30801505,-4.304536,-3.033338
2.152,15.819502,2.505176,3.4348671,-0.32039762,-4.2642674,-2.9966242
2.154,15.7520895,2.5382116,3.4220452,-0.32989264,-4.219953,-2.9589367
2.156,15.684309,2.5695794,3.4107575,-0.3364882,-4.1715665,-2.9202385
2.158,15.616063,2.5990734,3.4008045,-0.34020522,-4.1191473,-2.8804955
2.16,15.5473385,2.6263337,3.3920465,-0.3410797,-4.0627737,-2.839707
2.162,15.477918,2.6512673,3.3844543,-0.3391563,-4.0025444,-2.797894
2.164,15.407914,2.673689,3.3778052,-0.33448356,-3.9385607,-2.7551079
2.166,15.337258,2.6936152,3.3719263,-0.32707086,-3.8709373,-2.711401
2.168,15.266025,2.7110057,3.3666947,-0.31691235,-3.7997918,-2.6668332
2.17,15.194365,2.7257895,3.3620982,-0.30398822,-3.7252076,-2.6214774
2.172,15.122353,2.7381685,3.357885,-0.2882305,-3.647245,-2.5753772
2.174,15.049848,2.7483075,3.3538127,-0.2695315,-3.5659451,-2.5285604
2.176,14.977122,2.7562482,3.3498168,-0.24777976,-3.481316,-2.481038
2.178,14.904212,2.762269,3.345667,-0.22284137,-3.3933353,-2.432796
2.18,14.8312435,2.766644,3.3410983,-0.19457233,-3.3019786,-2.3837888
2.182,14.758411,2.769728,3.3358474,-0.1628415,-3.2071853,-2.3339596
2.184,14.685792,2.7717936,3.3295913,-0.12753251,-3.1089315,-2.2832253
2.186,14.613415,2.7732322,3.3219852,-0.08855887,-3.0072186,-2.2315204
2.188,14.541508,2.7742817,3.3126268,-0.045894906,-2.9020972,-2.178782
2.19,14.470267,2.7752473,3.301154,0.0004221648,-2.7937112,-2.1249738
2.192,14.399703,2.7765276,3.287108,0.050291948,-2.682269,-2.0701022
2.194,14.330106,2.7782507,3.2699924,0.10352245,-2.5681164,-2.014223
2.196,14.2617,2.7806938,3.2494361,0.1598601,-2.4516768,-1.9574536
2.198,14.194573,2.7841687,3.2249932,0.218981,-2.3334768,-1.900002
2.2,14.12886,2.7887688,3.1962473,0.28048977,-2.2141242,-1.8421133
2.202,14.064798,2.7945437,3.1627452,0.34397233,-2.0942886,-1.7840645
2.204,14.002512,2.801619,3.1242287,0.40899277,-1.9747126,-1.7261698
2.206,13.942288,2.8099196,3.0803218,0.4751227,-1.8561349,-1.6687567
2.208,13.884072,2.8195016,3.030821,0.5419628,-1.739307,-1.6121373
2.21,13.828155,2.8301396,2.9757218,0.60914534,-1.6249604,-1.5565761
2.212,13.774692,2.8417659,2.91495,0.676341,-1.5137916,-1.5023086
2.214,13.723742,2.8541584,2.8484573,0.743269,-1.406435,-1.4494894
2.216,13.675459,2.8671126,2.7764688,0.8096954,-1.3034518,-1.3982136
2.218,13.630054,2.8803043,2.699132,0.875417,-1.2053198,-1.3485055
2.22,13.587757,2.8934474,2.6167288,0.9402664,-1.1124272,-1.3003348
2.222,13.548632,2.9061987,2.529622,1.004094,-1.0250688,-1.2536215
2.224,13.512657,2.918262,2.4382277,1.0667651,-0.9434418,-1.2082539
2.226,13.48011,2.9291654,2.342943,1.1281476,-0.867679,-1.1640973
2.228,13.451074,2.9384809,2.2441773,1.1881143,-0.79782957,-1.1210277
2.23,13.42569,2.945836,2.1424792,1.2465427,-0.7339049,-1.0789223
2.232,13.403753,2.95092,2.0384085,1.3033134,-0.6758706,-1.037674
2.234,13.385347,2.9532642,1.9325029,1.3583138,-0.62364477,-0.9972212
2.236,13.3705225,2.9523792,1.8254144,1.4114362,-0.57716024,-0.9575235
2.238,13.359307,2.947864,1.7177553,1.4625945,-0.5363396,-0.91858953
2.24,13.351403,2.9392776,1.6103452,1.5117068,-0.5011285,-0.88046986
2.242,13.346731,2.926202,1.5039461,1.5587168,-0.4715147,-0.84325325
2.244,13.344935,2.9082394,1.3992686,1.6035819,-0.4474922,-0.80707073
2.246,13.34569,2.8850336,1.2972217,1.6462722,-0.429089,-0.77207756
2.248,13.348817,2.8561745,1.1986669,1.686784,-0.41634327,-0.7384505
2.25,13.353862,2.8212466,1.1045811,1.7251269,-0.40928394,-0.7063633
2.252,13.360188,2.7801838,1.0160084,1.7613301,-0.40792665,-0.67595303
2.254,13.367493,2.732631,0.9339386,1.7954417,-0.41224316,-0.64734364
2.256,13.375213,2.6786003,0.8593471,1.8275205,-0.4221334,-0.620603
2.258,13.382845,2.6179645,0.793146,1.8576627,-0.4373997,-0.59571826
2.26,13.3897705,2.5508738,0.7362435,1.8859935,-0.4577564,-0.5726152
2.262,13.395306,2.4773688,0.6893876,1.9126657,-0.48280472,-0.55114865
2.264,13.399119,2.3976831,0.6532521,1.9378768,-0.51204556,-0.53112364
2.266,13.400659,2.3121986,0.6284435,1.9618496,-0.544873,-0.51227224
2.268,13.399456,2.2211635,0.61535656,1.9848386,-0.58059233,-0.49430165
2.27,13.395051,2.1251945,0.6143721,2.0071337,-0.6184207,-0.47687802
2.272,13.38739,2.0246358,0.6255686,2.0290306,-0.6575221,-0.4596585
2.274,13.376103,1.9201709,0.64891386,2.0508316,-0.6970725,-0.4423262
2.276,13.361073,1.8123138,0.68440497,2.0728314,-0.73629135,-0.4245874
2.278,13.342207,1.701754,0.73157847,2.0952833,-0.77449775,-0.40619266
2.28,13.3195305,1.5890703,0.789951,2.1183941,-0.811128,-0.38694814
2.282,13.2929735,1.474933,0.8590769,2.142306,-0.84579015,-0.3667506
2.284,13.262953,1.3599448,0.93833995,2.1671114,-0.878253,-0.34557924
2.286,13.229512,1.2447139,1.026965,2.1928334,-0.90844953,-0.3234946
2.288,13.193068,1.1298412,1.124193,2.2194352,-0.936474,-0.30062142
2.29,13.153899,1.0157262,1.2291005,2.2468486,-0.96252483,-0.2771394
2.292,13.112365,0.9029818,1.340907,2.2749593,-0.9868784,-0.25324404
2.294,13.068908,0.79208577,1.4586086,2.3036547,-1.0098456,-0.22910818
2.296,13.023909,0.68348455,1.581279,2.3327994,-1.0317454,-0.20488
2.298,12.977739,0.57767665,1.7080898,2.3622758,-1.0528845,-0.18063134
2.3,12.930858,0.4750924,1.8380657,2.3919914,-1.0735068,-0.15638632
2.302,12.883716,0.375975,1.9703577,2.421862,-1.0937942,-0.13210362
2.304,12.836596,0.2807412,2.1041212,2.4518309,-1.1138635,-0.107690096
2.306,12.789889,0.18959749,2.2384696,2.4818788,-1.1337559,-0.08302301
2.308,12.743804,0.10286009,2.3726287,2.5120056,-1.1534405,-0.057962894
2.31,12.6988325,0.020661354,2.5058026,2.5422194,-1.1728687,-0.03239405
2.312,12.655177,-0.056735516,2.6373959,2.5725384,-1.1919577,-0.0062257648
2.314,12.612962,-0.12915492,2.7666655,2.6029882,-1.2106103,0.020602643
2.316,12.572342,-0.1964755,2.8931346,2.6335943,-1.2287345,0.04809016
2.318,12.533636,-0.25867414,3.016281,2.6643763,-1.2462654,0.07620871
2.32,12.49676,-0.31566072,3.1355643,2.6953526,-1.2631874,0.10490626
2.322,12.46181,-0.36732435,3.2505732,2.7265115,-1.2795304,0.13410336
2.324,12.428788,-0.41368604,3.361037,2.7578304,-1.2953964,0.16370952
2.326,12.397727,-0.45480013,3.4666045,2.7892718,-1.3109255,0.1936341
2.328,12.368626,-0.49063277,3.5671108,2.820772,-1.3262798,0.22380692
2.33,12.341328,-0.5212884,3.6623442,2.852266,-1.3416497,0.25415915
2.332,12.315897,-0.54678655,3.7522478,2.8836603,-1.3572404,0.28464127
2.334,12.292255,-0.5673492,3.836796,2.9148622,-1.3732381,0.31521583
2.336,12.2703285,-0.5830045,3.9161325,2.9457598,-1.3898411,0.34587902
2.338,12.250097,-0.59400296,3.9904082,2.976237,-1.4072104,0.37661642
2.34,12.231427,-0.60059595,4.059827,3.0061724,-1.4255164,0.40740663
2.342,12.214457,-0.6030679,4.1246686,3.0354545,-1.4449068,0.43821442
2.344,12.199144,-0.60181785,4.185278,3.0639796,-1.465517,0.46897823
2.346,12.185372,-0.59707785,4.242077,3.0916333,-1.4874961,0.4995889
2.348,12.172964,-0.58928156,4.295372,3.1183152,-1.5110013,0.52988946
2.35,12.162084,-0.5787957,4.3455935,3.1439285,-1.536185,0.5596932
2.352,12.152654,-0.5660548,4.3931885,3.1683726,-1.5632114,0.588765
2.354,12.144746,-0.55147266,4.4385223,3.1915352,-1.5922351,0.6168669
2.356,12.138366,-0.5355456,4.4820237,3.213317,-1.6233858,0.64375854
2.358,12.133547,-0.5186651,4.523981,3.23363,-1.6567512,0.66922396
2.36,12.130359,-0.50134325,4.5647984,3.2523856,-1.6923645,0.6930812
2.362,12.12871,-0.48405242,4.604658,3.2695217,-1.7302023,0.71520865
2.364,12.128555,-0.4671049,4.643862,3.285023,-1.7701471,0.7355563
2.366,12.129943,-0.4510386,4.682582,3.2989025,-1.812023,0.75415105
2.368,12.132792,-0.4360416,4.721058,3.3112137,-1.8556044,0.7710752
2.37,12.136977,-0.42251015,4.759276,3.3220484,-1.9006201,0.78649604
2.372,12.14259,-0.41070986,4.7974043,3.3315246,-1.9467889,0.8006023
2.374,12.149521,-0.4007368,4.835408,3.339776,-1.9938251,0.81360775
2.376,12.157492,-0.39278054,4.8732033,3.3469467,-2.0414758,0.8257388
2.378,12.166444,-0.3868804,4.910778,3.353167,-2.0895262,0.83720356
2.38,12.176327,-0.38312292,4.9478235,3.3585558,-2.137811,0.84818333
2.382,12.18671,-0.3812418,4.984292,3.3632069,-2.1862242,0.8588161
2.384,12.197473,-0.3812704,5.019965,3.3671865,-2.234723,0.8691939
2.386,12.208402,-0.38297248,5.054755,3.3705473,-2.2832954,0.8793638
2.388,12.219242,-0.38614535,5.0884724,3.3733113,-2.3319833,0.88932157
2.39,12.229736,-0.3905213,5.121049,3.3754988,-2.380835,0.8990505
2.392,12.239709,-0.3957708,5.152355,3.3771164,-2.429934,0.90852356
2.394,12.248779,-0.40159512,5.1824074,3.3781667,-2.4793537,0.9177029
2.396,12.25669,-0.4077685,5.211231,3.378658,-2.5291758,0.9265603
2.398,12.263116,-0.41391492,5.2389855,3.3785877,-2.579489,0.9350842
2.4,12.267862,-0.41963458,5.2659864,3.3779829,-2.6303504,0.9432812
2.402,12.270696,-0.42477465,5.2924614,3.3768516,-2.6818154,0.95115554
2.404,12.27131,-0.42895412,5.318822,3.375221,-2.7339191,0.9587239
2.406,12.269489,-0.43190813,5.3455534,3.3731124,-2.7866828,0.9660028
2.408,12.265196,-0.4334066,5.373057,3.3705387,-2.840116,0.97300446
2.41,12.258042,-0.43315458,5.4017277,3.3675091,-2.8942044,0.97974396
2.412,12.24798,-0.43088746,5.432096,3.3640013,-2.9489315,0.98623323
2.414,12.234858,-0.42633247,5.464553,3.3599918,-3.0042582,0.9924867
2.416,12.21869,-0.41932774,5.4995155,3.3554375,-3.0601213,0.9985279
2.418,12.199518,-0.40965796,5.5373483,3.3502796,-3.1164503,1.0044032
2.42,12.177276,-0.39710832,5.578417,3.3444514,-3.1731558,1.0101639
2.422,12.152024,-0.38158154,5.622796,3.337887,-3.2301235,1.015893
2.424,12.123943,-0.36295462,5.6707535,3.3305273,-3.2872326,1.0216861
2.426,12.093275,-0.3410957,5.722272,3.3223424,-3.344345,1.0276531
2.428,12.060169,-0.31597042,5.7774086,3.313324,-3.4013314,1.0339153
2.43,12.024831,-0.28747797,5.835988,3.303475,-3.4580698,1.0405892
2.432,11.987493,-0.25582743,5.8979187,3.29283,-3.5144632,1.0477877
2.434,11.948545,-0.22085667,5.962911,3.2814577,-3.5704305,1.0555959
2.436,11.908335,-0.18274021,6.0306845,3.2694364,-3.6259358,1.0640692
2.438,11.867186,-0.14167833,6.1008644,3.2568557,-3.680984,1.0732385
2.44,11.825417,-0.09785795,6.173126,3.2438083,-3.7356262,1.083078
2.442,11.783442,-0.051537514,6.247145,3.2303803,-3.7899466,1.0935543
2.444,11.741517,-0.0028939247,6.322537,3.2166421,-3.8440652,1.1045812
2.446,11.699983,0.047671318,6.3989305,3.2026515,-3.8981395,1.1160661
2.448,11.659221,0.09984779,6.476039,3.1884346,-3.9523225,1.127904
2.45,11.619347,0.15330648,6.553561,3.1739922,-4.006757,1.1399846
2.452,11.580654,0.20764685,6.631165,3.1593175,-4.0615797,1.1521955
2.454,11.543256,0.26255035,6.708634,3.1443665,-4.11691,1.1644273
2.456,11.507396,0.317626,6.785696,3.1290917,-4.1728153,1.1765974
2.458,11.473116,0.37259483,6.8624554,3.1134346,-4.229332,1.188621
2.46,11.440099,0.42709732,6.9387097,3.0973487,-4.286447,1.200427
2.462,11.408567,0.48083115,7.014448,3.0808086,-4.3440995,1.2119532
2.464,11.378181,0.5336695,7.0896444,3.0638137,-4.402169,1.2231638
2.466,11.3487,0.5853567,7.1641884,3.0463743,-4.460519,1.2340469
2.468,11.319739,0.63590765,7.238236,3.0285301,-4.5189924,1.2446084
2.47,11.290873,0.68532705,7.3118315,3.01034,-4.5774198,1.2548857
2.472,11.261822,0.733603,7.3850513,2.9918861,-4.6356397,1.2649252
2.474,11.231954,0.78082514,7.4579597,2.9732656,-4.6934996,1.2747915
2.476,11.2007675,0.82737064,7.530739,2.9545786,-4.7508965,1.2845533
2.478,11.167614,0.87340117,7.6034446,2.9359298,-4.807744,1.2942667
2.48,11.131982,0.9194441,7.6762633,2.9174156,-4.86398,1.3040006
2.482,11.093174,0.96591187,7.7492003,2.8991807,-4.919538,1.3138185
2.484,11.050441,1.0132985,7.822511,2.8813736,-4.97435,1.323802
2.486,11.003218,1.0621796,7.896287,2.8641186,-5.0283885,1.3339722
2.488,10.95083,1.1131086,7.970752,2.847569,-5.0815954,1.3443825
2.49,10.892548,1.1668015,8.046128,2.831921,-5.1338205,1.3550959
2.492,10.827688,1.2238312,8.122591,2.8173895,-5.1848955,1.3661847
2.494,10.755619,1.284934,8.200347,2.8042061,-5.2346225,1.3777523
2.496,10.6758175,1.3506813,8.279512,2.7926106,-5.28277,1.3899088
2.498,10.587424,1.4216933,8.360444,2.7828388,-5.329094,1.4027884
2.5,10.489948,1.4985685,8.443267,2.7751253,-5.373322,1.4165308
2.502,10.382865,1.5816846,8.528223,2.7696757,-5.4152136,1.4312744
2.504,10.265655,1.6716223,8.615547,2.7666712,-5.454521,1.4471397
2.506,10.1377945,1.7689362,8.705381,2.7662692,-5.4909954,1.4642353
2.508,9.998559,1.8739467,8.797883,2.7685983,-5.524355,1.4826581
2.51,9.8474655,1.9870439,8.893349,2.773772,-5.554321,1.5024631
2.512,9.6841,2.1084638,8.991943,2.7818708,-5.580552,1.5236988
2.514,9.508045,2.2382874,9.093908,2.7929602,-5.6026783,1.5464292
2.516,9.318937,2.376534,9.199369,2.8070993,-5.6202917,1.570677
2.518,9.116373,2.523148,9.308578,2.824336,-5.632944,1.5964589
2.52,8.900274,2.6780195,9.421867,2.8447464,-5.640144,1.623811
2.522,8.670204,2.8410134,9.539368,2.8683877,-5.6413555,1.6527665
2.524,8.42625,3.011716,9.661272,2.895341,-5.6360326,1.6833498
2.526,8.168277,3.1897879,9.787609,2.9256983,-5.6235857,1.7155843
2.528,7.896581,3.3745937,9.918532,2.959565,-5.603422,1.7495131
2.53,7.6113977,3.5655088,10.053939,2.9970589,-5.5749364,1.7851741
2.532,7.313199,3.7618325,10.193784,3.0382905,-5.537533,1.8225908
2.534,7.002604,3.9628677,10.33779,3.0833519,-5.4907017,1.8617616
2.536,6.6802006,4.167547,10.485737,3.132254,-5.4340134,1.9026577
2.538,6.347129,4.374898,10.637177,3.1849792,-5.3671446,1.9451903
2.54,6.004489,4.58383,10.791831,3.2414556,-5.2898493,1.9892838
2.542,5.6536417,4.793106,10.949026,3.3015065,-5.2020473,2.0347972
2.544,5.295821,5.001442,11.10825,3.3648336,-5.103826,2.0815763
2.546,4.9325733,5.2076454,11.268785,3.4310777,-4.995362,2.1294966
2.548,4.565433,5.4104595,11.429907,3.4998074,-4.8769236,2.1784697
2.55,4.1963077,5.608589,11.590969,3.57053,-4.748899,2.2284474
2.552,3.8267493,5.8008604,11.7511015,3.6427174,-4.6117287,2.2794404
2.554,3.4587228,5.9859753,11.909639,3.7158005,-4.4659057,2.3315198
2.556,3.0940669,6.162735,12.065807,3.789232,-4.3119335,2.3848138
2.558,2.7344866,6.330085,12.218797,3.862503,-4.1502953,2.4394846
2.56,2.381744,6.487008,12.368042,3.935153,-3.9814339,2.4957213
2.562,2.0373998,6.6325865,12.513029,4.006789,-3.8057837,2.553729
2.564,1.7030106,6.766034,12.65309,4.0770793,-3.6237192,2.6137028
2.566,1.3802366,6.8866034,12.787588,4.145765,-3.4355779,2.675791
2.568,1.0705013,6.993767,12.915842,4.2126594,-3.2416482,2.740106
2.57,0.7743306,7.0874977,13.037987,4.277638,-3.042151,2.8067486
2.572,0.49169493,7.1679316,13.153984,4.3406134,-2.8372893,2.8757505
2.574,0.2231865,7.235343,13.263496,4.401515,-2.6272435,2.9471202
2.576,-0.030929565,7.2900496,13.366528,4.4602976,-2.4121857,3.0208333
2.578,-0.27081633,7.3324404,13.462922,4.516897,-2.192246,3.0968204
2.58,-0.49676895,7.3632665,13.552666,4.5712895,-1.9675184,3.174998
2.582,-0.70959854,7.3835135,13.635778,4.6234736,-1.7380071,3.2552757
2.584,-0.9103427,7.394417,13.712341,4.673483,-1.5036416,3.3376102
2.586,-1.1002226,7.397307,13.782336,4.721387,-1.264256,3.4220066
2.588,-1.2806401,7.3938456,13.845791,4.7673044,-1.0195714,3.5085483
2.59,-1.4533153,7.3856716,13.902578,4.811388,-0.7692138,3.5973911
2.592,-1.6196065,7.3746862,13.952562,4.853819,-0.5127485,3.6887903
2.594,-1.7825551,7.3627386,13.995932,4.8947806,-0.24971902,3.7830334
2.596,-1.9435353,7.3517666,14.032494,4.9344244,0.020251393,3.8804202
2.598,-2.1046748,7.3438945,14.061401,4.9728503,0.29736602,3.9812202
2.6,-2.267944,7.3409786,14.082219,5.0100746,0.5816616,4.085599
2.602,-2.4354258,7.34488,14.094305,5.0460463,0.87305415,4.193578
2.604,-2.6092665,7.35732,14.097033,5.0806475,1.1712114,4.3050156
2.606,-2.791347,7.3799295,14.089523,5.1136436,1.4754819,4.4195533
2.608,-2.983223,7.414036,14.070797,5.1447096,1.7849072,4.5366397
2.61,-3.1867843,7.4608765,14.039923,5.1734133,2.098238,4.6555467
2.612,-3.4031086,7.5213614,13.9952755,5.1992507,2.413972,4.775349
2.614,-3.633226,7.5958695,13.935402,5.2216635,2.7304654,4.894947
2.616,-3.8779423,7.684644,13.858926,5.240074,3.0460775,5.013098
2.618,-4.137763,7.787769,13.764454,5.2538986,3.3592253,5.128453
2.62,-4.4127913,7.904859,13.650308,5.2625637,3.6684675,5.2396016
2.622,-4.703019,8.035397,13.515039,5.26551,3.9725313,5.3451233
2.624,-5.008076,8.178751,13.357209,5.2622313,4.2703886,5.443649
2.626,-5.3272467,8.333851,13.1754675,5.252299,4.561309,5.5340266
2.628,-5.6595383,8.499521,12.96833,5.235341,4.844655,5.6152925
2.63,-6.003667,8.6744,12.7346945,5.210993,5.119803,5.6867585
2.632,-6.3580008,8.856958,12.473505,5.1789637,5.3860765,5.748076
2.634,-6.7208786,9.045831,12.183913,5.1389713,5.6427217,5.799216
2.636,-7.090393,9.239503,11.865411,5.090798,5.888833,5.840434
2.638,-7.4644017,9.436464,11.517513,5.0342884,6.1233816,5.872224
2.64,-7.8407373,9.635311,11.140161,4.969295,6.34522,5.895129
2.642,-8.21714,9.834583,10.733498,4.8957033,6.5531335,5.9096627
2.644,-8.591342,10.032908,10.297819,4.813463,6.745849,5.9163156
2.646,-8.960933,10.229263,9.8335285,4.722507,6.9220595,5.91539
2.648,-9.323915,10.422527,9.341414,4.622776,7.0804853,5.906927
2.65,-9.677793,10.611692,8.8223295,4.5142355,7.219929,5.8907194
2.652,-10.02057,10.795974,8.27744,4.396825,7.3392854,5.866288
2.654,-10.350187,10.974496,7.708219,4.2704906,7.4374666,5.832998
2.656,-10.664898,11.14654,7.1162558,4.1351366,7.513383,5.790063
2.658,-10.962814,11.311498,6.5032244,3.990675,7.566113,5.736665
2.66,-11.242521,11.468776,5.8710966,3.8370967,7.594892,5.672035
2.662,-11.502757,11.617769,5.222064,3.6744573,7.599081,5.595498
2.664,-11.742545,11.758118,4.5582976,3.5029283,7.578203,5.506557
2.666,-11.961184,11.889411,3.882259,3.3228161,7.531927,5.4049745
2.668,-12.157982,12.011215,3.1967306,3.1345806,7.4600677,5.290737
2.67,-12.332602,12.123081,2.5044162,2.9388506,7.3625884,5.1641016
2.672,-12.484864,12.22476,1.8081632,2.7364273,7.239677,5.0255623
2.674,-12.614965,12.315967,1.1110382,2.5282648,7.091734,4.875821
2.676,-12.723486,12.396459,0.41627502,2.3154495,6.9194202,4.715741
2.678,-12.810942,12.465976,-0.27291632,2.0991504,6.7236137,4.5463076
2.68,-12.877344,12.52393,-0.95383644,1.880531,6.505417,4.3685656
2.682,-12.923111,12.570014,-1.6233892,1.6608047,6.2662725,4.183646
2.684,-12.949592,12.603907,-2.2780223,1.4411509,6.007911,3.9927344
2.686,-12.958061,12.62558,-2.9146762,1.2226601,5.7322474,3.7970006
2.688,-12.94983,12.634945,-3.5302885,1.0063325,5.441342,3.5975955
2.69,-12.926196,12.631814,-4.121828,0.79305196,5.1373777,3.3956282
2.692,-12.888447,12.616042,-4.686519,0.58360016,4.82262,3.1921391
2.694,-12.837825,12.587334,-5.2218122,0.37868744,4.49936,2.9881518
2.696,-12.775881,12.545519,-5.72524,0.17893568,4.169867,2.7846265
2.698,-12.704006,12.490316,-6.194727,-0.015156202,3.8363578,2.5823557
2.7,-12.623549,12.421522,-6.628342,-0.20314243,3.5009527,2.3820791
2.702,-12.53635,12.339063,-7.0244083,-0.3846572,3.1656213,2.1844733
2.704,-12.44258,12.242765,-7.3821955,-0.55942875,2.8321514,1.9901247
2.706,-12.3443165,12.132667,-7.7005205,-0.7272455,2.5021818,1.799533
2.708,-12.242878,12.008698,-7.9784675,-0.88793844,2.1771936,1.6131265
2.71,-12.139429,11.8709955,-8.21579,-1.0414138,1.8585274,1.4312773
2.712,-12.035024,11.719821,-8.412637,-1.1876096,1.5473899,1.2543015
2.714,-11.930456,11.555269,-8.569361,-1.3265142,1.2448988,1.0824578
2.716,-11.826686,11.377586,-8.686482,-1.4581419,0.95210993,0.9159844
2.718,-11.724489,11.187232,-8.765018,-1.5825309,0.67001885,0.7550928
2.72,-11.624491,10.984596,-8.806111,-1.6997415,0.3995859,0.599982
2.722,-11.527397,10.770361,-8.810787,-1.8098321,0.14175366,0.45085138
2.724,-11.433691,10.545359,-8.780666,-1.9128737,-0.10256699,0.3078711
2.726,-11.343484,10.310402,-8.71761,-2.0089316,-0.3324985,0.17123239
2.728,-11.257001,10.066301,-8.623703,-2.0980625,-0.54719555,0.041108638
2.73,-11.174418,9.81414,-8.501111,-2.1803246,-0.74584717,-0.08231261
2.732,-11.095708,9.55498,-8.352133,-2.255736,-0.92773694,-0.19882452
2.734,-11.020746,9.289847,-8.179151,-2.3243003,-1.092259,-0.30822
2.736,-10.94922,9.020025,-7.984676,-2.3860114,-1.2389326,-0.4102713
2.738,-10.881019,8.74672,-7.771022,-2.440859,-1.3674958,-0.5047883
2.74,-10.815603,8.47111,-7.540843,-2.4888723,-1.477897,-0.5916302
2.742,-10.752618,8.194508,-7.2965326,-2.5301147,-1.5703276,-0.6707262
2.744,-10.691523,7.917933,-7.0403256,-2.5647082,-1.6452475,-0.7420779
2.746,-10.631773,7.6427646,-6.7745304,-2.5928626,-1.7034117,-0.8057542
2.748,-10.572897,7.370044,-6.50124,-2.614876,-1.7458601,-0.8619125
2.75,-10.514352,7.100909,-6.222428,-2.6311414,-1.7738472,-0.910821
2.752,-10.455404,6.836375,-5.9398127,-2.6421385,-1.7888174,-0.9528421
2.754,-10.395525,6.5772877,-5.654951,-2.6484172,-1.7923274,-0.98843515
2.756,-10.334333,6.3245287,-5.368992,-2.6505482,-1.7859641,-1.0181161
2.758,-10.271237,6.0789304,-5.0829773,-2.649121,-1.7712466,-1.0424691
2.76,-10.206063,5.841034,-4.7977414,-2.6446836,-1.7495643,-1.0620813
2.762,-10.138328,5.611435,-4.5139775,-2.6377406,-1.7221123,-1.0775306
2.764,-10.067593,5.3905816,-4.232318,-2.6286724,-1.6898477,-1.0893307
2.766,-9.993558,5.178692,-3.9530478,-2.6177645,-1.6534429,-1.0979178
2.768,-9.916013,4.975925,-3.6764493,-2.6051702,-1.6133301,-1.103631
2.77,-9.834918,4.7824306,-3.4027593,-2.5909147,-1.5697309,-1.1067377
2.772,-9.750041,4.5982056,-3.1320188,-2.574924,-1.5226746,-1.1074257
2.774,-9.661279,4.423181,-2.8643975,-2.5570302,-1.472078,-1.1058439
2.776,-9.568597,4.257263,-2.5998561,-2.5370255,-1.4177778,-1.1021271
2.778,-9.472078,4.100122,-2.3386977,-2.5146637,-1.3595684,-1.09645
2.78,-9.371515,3.9514003,-2.0811577,-2.489691,-1.2972476,-1.0890386
2.782,-9.267206,3.8107316,-1.827431,-2.4619038,-1.2306505,-1.0801436
2.784,-9.15904,3.6777184,-1.5778409,-2.4311285,-1.159684,-1.0700513
2.786,-9.04709,3.551954,-1.332828,-2.3972707,-1.0843179,-1.0590525
2.788,-8.931364,3.4328814,-1.0928298,-2.360274,-1.0046318,-1.0474124
2.79,-8.812119,3.3201327,-0.8583236,-2.3201408,-0.92081356,-1.0353512
2.792,-8.689416,3.2132003,-0.62988365,-2.2769222,-0.8331348,-1.0230334
2.794,-8.563299,3.1116624,-0.4081576,-2.2307107,-0.74198496,-1.0105501
2.796,-8.433846,3.0151365,-0.19361174,-2.181615,-0.6478497,-0.99795383
2.798,-8.301154,2.9232235,0.01320529,-2.12977,-0.5512489,-0.985262
2.8,-8.165531,2.8356397,0.21174002,-2.0753195,-0.45273644,-0.9725079
2.802,-8.027015,2.7519026,0.4016044,-2.0184076,-0.35286158,-0.9597348
2.804,-7.885848,2.6718335,0.5824481,-1.9591753,-0.25212744,-0.94696665
2.806,-7.7420506,2.5951893,0.7539692,-1.8977578,-0.15098342,-0.93423635
2.808,-7.5958734,2.521847,0.9160183,-1.8342646,-0.049795985,-0.92158127
2.81,-7.447454,2.4516685,1.0684748,-1.7688093,0.051143408,-0.9090173
2.812,-7.2968755,2.3844836,1.2112179,-1.7014773,0.1516115,-0.89653224
2.814,-7.1444287,2.3202114,1.3443643,-1.6323355,0.2514695,-0.8841054
2.816,-6.9903126,2.2587252,1.4680681,-1.5614219,0.35066155,-0.87169236
2.818,-6.834633,2.1999478,1.5825169,-1.4887519,0.44919547,-0.8592349
2.82,-6.677519,2.1437147,1.6878985,-1.4143243,0.54712087,-0.8466482
2.822,-6.5192094,2.0901423,1.7844733,-1.3381156,0.6445392,-0.8338353
2.824,-6.3599453,2.0392845,1.872336,-1.260117,0.74159735,-0.82067204
2.826,-6.1998034,1.991193,1.9517691,-1.1803033,0.83845234,-0.8070413
2.828,-6.039238,1.9458445,2.0231142,-1.0986642,0.93529236,-0.79281884
2.83,-5.878285,1.9032733,2.086491,-1.0152102,1.0323095,-0.7778791
2.832,-5.7174263,1.8634508,2.1422005,-0.9299714,1.1297084,-0.76209754
2.834,-5.556877,1.826369,2.1904304,-0.84302545,1.2276924,-0.7453558
2.836,-5.397152,1.792137,2.2313886,-0.75444895,1.3264643,-0.72756225
2.838,-5.238486,1.7607234,2.2652483,-0.6643638,1.4261963,-0.7086303
2.84,-5.084232,1.7319041,2.2933273,-0.57289565,1.5270224,-0.68851304
2.842,-4.9324384,1.7059376,2.3151014,-0.48020422,1.6290473,-0.66719353
2.844,-4.7836046,1.6829042,2.3308442,-0.3864332,1.7323024,-0.6446712
2.846,-4.6382985,1.6628718,2.3408399,-0.291726,1.8367531,-0.6209859
2.848,-4.4968886,1.6458018,2.3454273,-0.196213,1.9422908,-0.5962171
2.85,-4.36005,1.6317762,2.3449783,-0.100031726,2.0487394,-0.57049096
2.852,-4.228054,1.6207092,2.3397987,-0.0033297762,2.1558118,-0.5439865
2.854,-4.1014037,1.6126404,2.330173,0.093738504,2.2631497,-0.5168966
2.856,-3.9803762,1.6073215,2.3164947,0.19097388,2.3702958,-0.48943114
2.858,-3.8652527,1.6047702,2.2991748,0.2881496,2.476712,-0.46183282
2.86,-3.7561424,1.6047623,2.2786613,0.38500085,2.5818374,-0.4343348
2.862,-3.653326,1.607131,2.2553346,0.48121518,2.6850767,-0.4071434
2.864,-3.556775,1.611746,2.2296638,0.5764351,2.785851,-0.38044995
2.866,-3.4663618,1.6183093,2.2020068,0.6702721,2.8836231,-0.35443377
2.868,-3.3820755,1.6265761,2.1726775,0.75971514,2.9754333,-0.32990623
2.87,-3.303681,1.6363993,2.1420667,0.84577876,3.0622993,-0.30657613
2.872,-3.2310345,1.6475226,2.1105895,0.9277425,3.14365,-0.28459084
2.874,-3.1639667,1.6597323,2.0785742,1.0049379,3.21904,-0.26407373
2.876,-3.1021657,1.6728599,2.0462568,1.0767913,3.288182,-0.24511075
2.878,-3.0454419,1.6866591,2.014055,1.1428958,3.350953,-0.22776246
2.88,-2.993326,1.7009292,1.9821799,1.2030234,3.4074092,-0.21204174
2.882,-2.9454749,1.7154818,1.9507515,1.257141,3.457759,-0.19792557
2.884,-2.901667,1.7301158,1.9200958,1.3054024,3.5023441,-0.18535197
2.886,-2.8614666,1.7446438,1.890213,1.3481044,3.541599,-0.17421913
2.888,-2.8246083,1.7591189,1.861295,1.3856659,3.5760112,-0.16441774
2.89,-2.79095,1.7734773,1.8334543,1.4185735,3.6060998,-0.15581095
