Time_s_,Acc_x_m_s_2_,Acc_y_m_s_2_,Acc_z_m_s_2_,Gyro_x_1_s_,Gyro_y_1_s_,Gyro_z_1_s_
0,-1.1467296,0.18452407,1.0777421,-0.14493501,0.32043326,0.6621875
0.002,-1.1659772,0.19509207,1.0580455,-0.15036711,0.32844847,0.66335773
0.004,-1.1845356,0.20619227,1.0356343,-0.15637562,0.3371154,0.664611
0.006,-1.2025067,0.21792479,1.0103587,-0.16302043,0.34635293,0.6659045
0.008,-1.2197773,0.23033914,0.98225707,-0.17035913,0.3560145,0.667156
0.01,-1.2361938,0.24337098,0.9512703,-0.17845872,0.36585984,0.66825193
0.012,-1.2511193,0.2569621,0.9170853,-0.18738645,0.37556738,0.6690339
0.014,-1.2640392,0.27089688,0.8794135,-0.19720182,0.38472638,0.6693175
0.016,-1.2743815,0.28510433,0.8379643,-0.20797548,0.3928614,0.66889524
0.018,-1.2816751,0.29942313,0.7925253,-0.21977648,0.39945927,0.6675645
0.02,-1.2856025,0.3139236,0.7431892,-0.23264489,0.40402904,0.66513467
0.022,-1.2858014,0.32847017,0.6900803,-0.24661958,0.40613636,0.66144717
0.024,-1.2818387,0.34298587,0.63332653,-0.26171893,0.40544826,0.65639454
0.026,-1.2732351,0.35743314,0.5730989,-0.27794623,0.40174797,0.6499064
0.028,-1.2596352,0.3717137,0.5097066,-0.2955827,0.39522728,0.6419427
0.03,-1.2405946,0.3857174,0.44336572,-0.3140673,0.38569498,0.63262606
0.032,-1.2158687,0.3995142,0.3744754,-0.33328077,0.3735367,0.6221
0.034,-1.1853836,0.4130717,0.30343723,-0.35303771,0.35921663,0.61052525
0.036,-1.148888,0.42630607,0.23077682,-0.37309396,0.34328407,0.59809613
0.038,-1.1063762,0.43920583,0.15689716,-0.39316952,0.3263551,0.58505744
0.04,-1.0580448,0.45195,0.08239779,-0.4129417,0.30910328,0.5716973
0.042,-1.0041156,0.46453506,0.007817805,-0.4320997,0.29220983,0.5583028
0.044,-0.9448658,0.47710288,-0.06625554,-0.4503256,0.2763394,0.5451708
0.046,-0.8808859,0.48976538,-0.13922688,-0.46733677,0.2620944,0.53256446
0.048,-0.81274617,0.50257564,-0.21046337,-0.48291552,0.24998999,0.5207232
0.05,-0.7410735,0.515669,-0.2793046,-0.49690485,0.24041632,0.5098359
0.052,-0.66660994,0.5291823,-0.34511513,-0.5092006,0.23364744,0.50002503
0.054,-0.5902386,0.543248,-0.40737617,-0.5197826,0.22983061,0.4913412
0.056,-0.5126195,0.5582745,-0.46660793,-0.52869034,0.22896926,0.483773
0.058,-0.43479112,0.5740993,-0.52126336,-0.5360153,0.23090944,0.47725362
0.06,-0.35760257,0.5908861,-0.5707978,-0.54190475,0.23536828,0.4716533
0.062,-0.28188637,0.60867214,-0.6147576,-0.5465131,0.24198669,0.46680796
0.064,-0.20849322,0.6275211,-0.6526612,-0.55000234,0.25034976,0.46253318
0.066,-0.13823514,0.6473806,-0.6839026,-0.55253285,0.2600366,0.45864892
0.068,-0.07181348,0.66821474,-0.7078297,-0.5542496,0.27066886,0.45499173
0.07,-0.010106981,0.6899957,-0.7238519,-0.55525935,0.28193638,0.45144945
0.072,0.04635413,0.71270925,-0.73171824,-0.5556196,0.29366577,0.4479156
0.074,0.09690176,0.7364284,-0.7315434,-0.5553712,0.3058206,0.44435427
0.076,0.14125828,0.76118684,-0.7235681,-0.5544861,0.31851065,0.44076645
0.078,0.17922284,0.7870409,-0.70796114,-0.5529066,0.33195263,0.43720123
0.08,0.21047342,0.8141651,-0.68474865,-0.5505303,0.346483,0.43375006
0.082,0.23485662,0.842611,-0.65391576,-0.5472561,0.3624619,0.43050432
0.084,0.25218332,0.87246436,-0.61573094,-0.54299736,0.38021135,0.4275142
0.086,0.26285484,0.9034788,-0.5706767,-0.53768957,0.40004143,0.42484558
0.088,0.2672498,0.9354944,-0.5192471,-0.53128225,0.42222038,0.4225523
0.09,0.2656123,0.96854913,-0.4623373,-0.5237464,0.44689807,0.420649
0.092,0.25818264,1.0026485,-0.40072754,-0.515099,0.47405085,0.41908345
0.094,0.24549493,1.0378839,-0.3353125,-0.50540316,0.50352603,0.4177852
0.096,0.2279877,1.0743091,-0.2669056,-0.494739,0.5350747,0.4166534
0.098,0.20599282,1.1119943,-0.1963749,-0.48322544,0.5683335,0.4155969
0.1,0.18009403,1.1510112,-0.124744326,-0.47099796,0.6028918,0.4145391
0.102,0.15088314,1.1913362,-0.053304613,-0.4581637,0.6383631,0.41342884
0.104,0.11918101,1.2330383,0.016832352,-0.44482458,0.67438114,0.41225153
0.106,0.08578354,1.275951,0.08439392,-0.4310788,0.71057236,0.41099888
0.108,0.05130437,1.3202026,0.14819339,-0.4170047,0.74658966,0.40966275
0.11,0.016043037,1.3659999,0.20736022,-0.40266255,0.7821795,0.40822265
0.112,-0.01955232,1.4133831,0.26124465,-0.38810384,0.8171666,0.40665054
0.114,-0.054679632,1.4622281,0.3090817,-0.37337774,0.8514477,0.40491748
0.116,-0.08836639,1.5123581,0.3499011,-0.35855415,0.8849571,0.40298313
0.118,-0.11998552,1.5637244,0.3829627,-0.34369737,0.91765916,0.4007933
0.12,-0.14882845,1.6161871,0.40767753,-0.3288855,0.9494694,0.39827883
0.122,-0.17437217,1.6696321,0.42362133,-0.31422144,0.98023146,0.39533415
0.124,-0.19600326,1.7238576,0.43055454,-0.2998182,1.0096667,0.3917997
0.126,-0.21295643,1.778576,0.4284068,-0.28583354,1.0373483,0.3875074
0.128,-0.22452196,1.8334168,0.41700217,-0.27242008,1.0627273,0.3822321
0.13,-0.22986856,1.8878759,0.3963828,-0.25977314,1.0851766,0.375738
0.132,-0.2280567,1.9414794,0.36664206,-0.24807459,1.1040447,0.36781728
0.134,-0.21867117,1.9937563,0.32833412,-0.23750363,1.1186792,0.35830554
0.136,-0.2011474,2.0442364,0.2822009,-0.22819899,1.1285073,0.34712535
0.138,-0.1749354,2.0923517,0.22921264,-0.22024548,1.133082,0.33430064
0.14,-0.13961843,2.137647,0.17048407,-0.21366547,1.1321235,0.31994247
0.142,-0.09494427,2.1795795,0.10730627,-0.2084415,1.1255169,0.3042542
0.144,-0.040771484,2.2177544,0.0412274,-0.20451863,1.1133106,0.28750494
0.146,0.022579461,2.2519896,-0.026443243,-0.20179461,1.0957336,0.27000558
0.148,0.095200926,2.2819548,-0.09416771,-0.20013325,1.0731516,0.2520622
0.15,0.17699677,2.3073158,-0.1607363,-0.19937825,1.0460367,0.23398821
0.152,0.26741803,2.3279254,-0.22458264,-0.19935568,1.0149986,0.21605058
0.154,0.3656372,2.3438022,-0.2841396,-0.19988455,0.980739,0.1984848
0.156,0.47122258,2.354935,-0.33802137,-0.20076309,0.94402623,0.18149069
0.158,0.5831591,2.3616464,-0.38491434,-0.20178713,0.90574,0.16527091
0.16,0.7004998,2.3640676,-0.4237821,-0.20271303,0.8668544,0.1500569
0.162,0.8221883,2.3624887,-0.4537549,-0.20325948,0.8283955,0.13610113
0.164,0.94724643,2.3572183,-0.47396713,-0.20314103,0.7913952,0.12367279
0.166,1.07443,2.348613,-0.48384,-0.20205185,0.7568836,0.11302582
0.168,1.2026752,2.337026,-0.48306262,-0.19968121,0.7258426,0.104406774
0.17,1.33072,2.3229322,-0.47155112,-0.19573879,0.6991501,0.09804942
0.172,1.4573306,2.3067794,-0.44956452,-0.18997115,0.6775447,0.094154276
0.174,1.5812936,2.2889757,-0.41751522,-0.18216543,0.6616362,0.09287158
0.176,1.7016577,2.2699606,-0.37617534,-0.17215878,0.65186095,0.09430868
0.178,1.8172381,2.2504146,-0.32638228,-0.15983236,0.6484966,0.09851159
0.18,1.9271789,2.230738,-0.26928258,-0.14514437,0.65157914,0.10545251
0.182,2.030543,2.2113333,-0.20587885,-0.12812413,0.66091734,0.11503517
0.184,2.1266265,2.1924906,-0.13694417,-0.108868,0.6761235,0.12710938
0.186,2.2145867,2.174654,-0.06350541,-0.08756353,0.69664466,0.14144705
0.188,2.2936032,2.158072,0.013043046,-0.06446308,0.72179526,0.15779208
0.19,2.3631468,2.1429641,0.09121096,-0.039897174,0.7507809,0.17585297
0.192,2.4227655,2.1297643,0.16914201,-0.014224097,0.782734,0.1953063
0.194,2.4721923,2.118897,0.24557304,0.012176618,0.81672883,0.21584271
0.196,2.5107808,2.110844,0.31927598,0.038922295,0.8517966,0.2371384
0.198,2.5383892,2.1061416,0.38917434,0.06564863,0.8869818,0.25887027
0.2,2.5550127,2.105009,0.4544238,0.092026845,0.9213212,0.28070384
0.202,2.5606675,2.1077538,0.51412916,0.117743775,0.9538864,0.30231595
0.204,2.555521,2.114481,0.56748116,0.14252786,0.98379886,0.32338095
0.206,2.5397053,2.125472,0.61375797,0.1661514,1.0102421,0.3435891
0.208,2.5137362,2.140809,0.65247905,0.18841279,1.0324823,0.36265048
0.21,2.4780178,2.1606562,0.68343234,0.209128,1.049904,0.380295
0.212,2.4330184,2.1850495,0.7065935,0.22815996,1.0620217,0.39627966
0.214,2.3791518,2.2139792,0.72204614,0.24538514,1.0684806,0.4103977
0.216,2.3173802,2.2473607,0.72999525,0.26069933,1.0690502,0.4224812
0.218,2.2485023,2.2849708,0.73081625,0.27404428,1.0636067,0.43240482
0.22,2.1734545,2.3264685,0.7248875,0.28538528,1.0521389,0.4401297
0.222,2.0930374,2.3716137,0.7128626,0.29471618,1.0347141,0.44563785
0.224,2.0081656,2.4199746,0.695492,0.30207682,1.0114737,0.4489532
0.226,1.9199419,2.471211,0.673862,0.30754358,0.98260033,0.45011243
0.228,1.8296039,2.5246317,0.649029,0.3112092,0.9482832,0.44916803
0.23,1.7381655,2.579622,0.6221067,0.31319425,0.9087356,0.4461736
0.232,1.6467128,2.635363,0.5943661,0.31361738,0.8641783,0.4411964
0.234,1.5563151,2.6912277,0.5668823,0.3126537,0.81491154,0.4343085
0.236,1.4680505,2.7463944,0.540989,0.31048173,0.7612802,0.42561352
0.238,1.3830409,2.80001,0.5181727,0.30731,0.7036534,0.41522306
0.24,1.3023081,2.8511934,0.49952626,0.30335882,0.64245725,0.40327808
0.242,1.2265527,2.8992417,0.48649842,0.29885837,0.57821786,0.38995153
0.244,1.1569201,2.9432936,0.48004,0.29406452,0.51154137,0.37545872
0.246,1.094316,2.9825623,0.48117262,0.28922483,0.44313943,0.36004466
0.248,1.0395367,3.0164528,0.49066007,0.28460732,0.37383065,0.34394336
0.25,0.99323565,3.044518,0.5092038,0.2805074,0.30457646,0.32741305
0.252,0.9562229,3.06615,0.53733283,0.27721596,0.2363963,0.31071377
0.254,0.9291356,3.0810523,0.5753649,0.27501425,0.17037126,0.29411596
0.256,0.91231555,3.0889177,0.623612,0.27417967,0.1076103,0.2778678
0.258,0.9058738,3.089738,0.6822273,0.2749602,0.04921425,0.26219973
0.26,0.90979826,3.083518,0.75115126,0.2775705,-0.0037674084,0.24732931
0.262,0.92426586,3.070596,0.82977694,0.2821613,-0.05044712,0.23345077
0.264,0.9493892,3.05107,0.917173,0.28881627,-0.090111114,0.22073525
0.266,0.98463166,3.0255184,1.01244,0.29754037,-0.122251205,0.20931263
0.268,1.0295565,2.9943252,1.1145976,0.3082729,-0.14659071,0.19925891
0.27,1.0835232,2.9582648,1.2224644,0.32085633,-0.16310799,0.1905961
0.272,1.1456739,2.9180295,1.3347645,0.33508378,-0.17200413,0.1833053
0.274,1.2149526,2.874474,1.4499962,0.35069752,-0.17368346,0.17731105
0.276,1.2902042,2.8284829,1.5667026,0.36744785,-0.16869545,0.1725429
0.278,1.3702313,2.7809172,1.6833818,0.38505983,-0.15769912,0.16892041
0.28,1.453652,2.73264,1.7985725,0.40329343,-0.14141046,0.1663937
0.282,1.538963,2.684534,1.910829,0.42195845,-0.12057612,0.16493103
0.284,1.6246333,2.63748,2.0188618,0.44089937,-0.09595561,0.16452527
0.286,1.7089218,2.5922694,2.1214218,0.46000397,-0.06828026,0.16517456
0.288,1.7902236,2.5494592,2.2174876,0.47916505,-0.03825272,0.16689855
0.29,1.8669566,2.509884,2.306071,0.49829906,-0.006531693,0.16972212
0.292,1.9375556,2.4742088,2.3863997,0.5173205,0.026256114,0.17366049
0.294,2.0004947,2.442906,2.457793,0.53612435,0.059488762,0.17871808
0.296,2.0544305,2.4163086,2.5197363,0.5545926,0.09251169,0.18485901
0.298,2.0983539,2.3947344,2.5719576,0.57257426,0.124690935,0.19198743
0.3,2.1311736,2.3783538,2.6142764,0.5899155,0.15536442,0.19995819
0.302,2.1521335,2.3672092,2.6468806,0.606431,0.18384303,0.20857613
0.304,2.1604326,2.3611476,2.669905,0.6219122,0.20940988,0.21757329
0.306,2.1558352,2.360082,2.6838896,0.63616073,0.23135601,0.2266209
0.308,2.1379404,2.3636103,2.6894195,0.64898014,0.2489966,0.23533681
0.31,2.1067362,2.3714378,2.687379,0.66018635,0.26167458,0.24329463
0.312,2.0625658,2.3831658,2.6786244,0.66960967,0.26879308,0.25005227
0.314,2.0059803,2.3985133,2.6641538,0.6770997,0.26982728,0.25515327
0.316,1.9375999,2.4169984,2.645171,0.6825538,0.26438597,0.25813347
0.318,1.8581306,2.4383168,2.622699,0.68589544,0.25218686,0.25855994
0.32,1.768477,2.4618874,2.5979452,0.6870854,0.2330803,0.25603884
0.322,1.6697898,2.4872456,2.5721288,0.68612385,0.20704591,0.25022313
0.324,1.5631706,2.5139713,2.546492,0.6830597,0.17421712,0.24084355
0.326,1.4498239,2.541523,2.522252,0.6779661,0.1348604,0.22772498
0.328,1.3311334,2.5696373,2.5006444,0.6709623,0.089383684,0.21080954
0.33,1.2083448,2.597955,2.482812,0.6621931,0.03833302,0.19014181
0.332,1.0829424,2.6261268,2.4697158,0.651839,-0.01760412,0.16589685
0.334,0.9561435,2.65396,2.4622436,0.6401141,-0.07762618,0.13836294
0.336,0.8292013,2.681196,2.4611125,0.6272508,-0.14081235,0.10792592
0.338,0.7032279,2.7077959,2.4667454,0.6135269,-0.20613785,0.075051665
0.34,0.579502,2.733631,2.479609,0.59923595,-0.27249485,0.040255293
0.342,0.4590807,2.7585974,2.500151,0.5847292,-0.33872765,0.004047796
0.344,0.34318364,2.782608,2.528662,0.5703782,-0.40362024,-0.03307268
0.346,0.23259377,2.8056598,2.5649936,0.55660623,-0.46591255,-0.07063101
0.348,0.12827027,2.8278255,2.6088605,0.54386,-0.5243383,-0.10821601
0.35,0.031120658,2.8489895,2.6598883,0.53259706,-0.57761335,-0.14544389
0.352,-0.05796063,2.8689442,2.71736,0.52331114,-0.624506,-0.1819651
0.354,-0.13827574,2.887522,2.7805564,0.5164773,-0.6638245,-0.21745083
0.356,-0.20950294,2.904602,2.8485236,0.51256067,-0.69444895,-0.2515803
0.358,-0.2710433,2.920047,2.9203193,0.5119847,-0.7153667,-0.28402507
0.36,-0.3225013,2.9336138,2.9949217,0.5150979,-0.72569484,-0.3144667
0.362,-0.3634472,2.9452996,3.0710764,0.5221602,-0.724722,-0.34259537
0.364,-0.3936386,2.9549594,3.1474414,0.5333417,-0.7119434,-0.36810374
0.366,-0.412758,2.9625,3.2226403,0.54870504,-0.68706614,-0.3907342
0.368,-0.4208511,2.967723,3.295138,0.5682073,-0.6500259,-0.4102938
0.37,-0.41782522,2.970512,3.3636389,0.5917074,-0.6010237,-0.42663395
0.372,-0.40375757,2.970578,3.4266636,0.6189554,-0.5405181,-0.43968514
0.374,-0.37884974,2.9678276,3.4830873,0.649633,-0.46923527,-0.44944173
0.376,-0.34320402,2.9620628,3.5316706,0.6833319,-0.38818198,-0.45596087
0.378,-0.29709113,2.953242,3.5712788,0.7195873,-0.29861486,-0.4594008
0.38,-0.24110103,2.941363,3.6011567,0.7578898,-0.20198056,-0.46001205
0.382,-0.17649412,2.9267905,3.6201077,0.79771256,-0.09987472,-0.45809639
0.384,-0.10392332,2.909647,3.6273265,0.8385162,0.0059565455,-0.4539856
0.386,-0.023849726,2.8899584,3.6224625,0.8797808,0.11366192,-0.44805753
0.388,0.06261921,2.868091,3.605847,0.92098355,0.22137442,-0.44070944
0.39,0.15424037,2.8444147,3.5783257,0.961651,0.3272598,-0.43235654
0.392,0.24987137,2.8193197,3.5406594,1.0013416,0.42957857,-0.4234162
0.394,0.34826648,2.7932084,3.49341,1.03968,0.5267477,-0.41428086
0.396,0.4481479,2.7667303,3.4370768,1.0763385,0.6173978,-0.40530705
0.398,0.54850316,2.7403333,3.3720796,1.1110532,0.7003809,-0.3968044
0.4,0.64799964,2.714343,3.2995,1.1436169,0.77480054,-0.38900536
0.402,0.74522567,2.6891828,3.220349,1.1739215,0.8400479,-0.38205263
0.404,0.8389883,2.6654284,3.1360724,1.2019413,0.8957567,-0.37600857
0.406,0.9281063,2.6434574,3.0482383,1.227694,0.9418266,-0.37085003
0.408,1.011441,2.623786,2.9582095,1.2512736,0.9783685,-0.36651355
0.41,1.0882963,2.6067243,2.8674202,1.2728131,1.0056744,-0.36291844
0.412,1.1575736,2.5926473,2.7771182,1.2924933,1.0242057,-0.3600046
0.414,1.2189324,2.5819502,2.688595,1.3105046,1.0345235,-0.3577382
0.416,1.2718418,2.5747447,2.6028445,1.3270298,1.0372276,-0.3560816
0.418,1.3160915,2.5712225,2.5210214,1.3422537,1.0329366,-0.35507506
0.42,1.3516194,2.571321,2.4439151,1.3563712,1.0222852,-0.35483336
0.422,1.378367,2.5748649,2.372585,1.3695816,1.0059358,-0.35545897
0.424,1.3964286,2.5817604,2.3076906,1.3820704,0.9845606,-0.3570798
0.426,1.4061385,2.5917554,2.2496862,1.3940369,0.95878375,-0.35979658
0.428,1.4080181,2.604432,2.1990314,1.4056497,0.92917246,-0.3636998
0.43,1.4028522,2.6194406,2.1560962,1.4170606,0.8962536,-0.36880934
0.432,1.3914096,2.6363175,2.1211255,1.4283619,0.86048126,-0.3750897
0.434,1.3745706,2.6546094,2.0943286,1.4395645,0.8222795,-0.3824467
0.436,1.3532178,2.6738114,2.0757794,1.4505914,0.7820615,-0.39073777
0.438,1.3282214,2.6933146,2.0655317,1.461328,0.74030626,-0.39978272
0.44,1.3005149,2.7126226,2.0635247,1.4716302,0.6975528,-0.4093858
0.442,1.2709556,2.731223,2.0697098,1.4813532,0.6543142,-0.41934854
0.444,1.2404522,2.7484093,2.0838454,1.4903662,0.6110872,-0.42950797
0.446,1.2095573,2.763767,2.1057138,1.4986167,0.56831837,-0.43975335
0.448,1.1791649,2.776707,2.135126,1.5060964,0.5263707,-0.4500507
0.45,1.1496553,2.7869096,2.1717336,1.512875,0.4855191,-0.46041077
0.452,1.1213343,2.7942123,2.2150643,1.5190928,0.44595352,-0.47088996
0.454,1.0942445,2.7984514,2.2646537,1.5249325,0.40779424,-0.48157048
0.456,1.0686893,2.799377,2.3201213,1.5305905,0.37112996,-0.49253502
0.458,1.0446659,2.7970629,2.3807411,1.5362685,0.33607644,-0.50384957
0.46,1.0219102,2.791657,2.4458895,1.5421718,0.3027805,-0.51553726
0.462,1.000238,2.783464,2.5149393,1.5484985,0.27147806,-0.52754223
0.464,0.9791682,2.772904,2.587285,1.5554266,0.24251035,-0.5397656
0.466,0.95844555,2.7601771,2.6621583,1.5631179,0.2162782,-0.55207866
0.468,0.9375415,2.745757,2.7386916,1.5717293,0.19326651,-0.5643685
0.47,0.91618264,2.7299995,2.8161051,1.5814116,0.1739866,-0.5765716
0.472,0.893914,2.7133055,2.8934693,1.5922849,0.15891254,-0.5886292
0.474,0.8703569,2.6961398,2.9698758,1.6044439,0.14838813,-0.6004833
0.476,0.8453517,2.6788173,3.0444372,1.6179721,0.14260612,-0.61213946
0.478,0.8187351,2.6619124,3.1162863,1.6329442,0.14164244,-0.6235953
0.48,0.79008424,2.645867,3.184491,1.6493878,0.14546597,-0.63488007
0.482,0.75929546,2.631174,3.248351,1.6673008,0.15393408,-0.6459899
0.484,0.72621393,2.6181116,3.3070364,1.6866388,0.16680305,-0.6569588
0.486,0.6909983,2.6069038,3.3597403,1.7073263,0.18374792,-0.66779065
0.488,0.6537118,2.597766,3.4058375,1.7292652,0.20436208,-0.6785124
0.49,0.614787,2.5906973,3.4446876,1.7523217,0.2281772,-0.6891826
0.492,0.5751389,2.585505,3.4763103,1.7762938,0.25466517,-0.69985914
0.494,0.5346552,2.5822387,3.5005097,1.8009512,0.28324306,-0.7106017
0.496,0.49321258,2.5810776,3.516936,1.8260423,0.31333324,-0.7214992
0.498,0.45127547,2.581819,3.5249567,1.851299,0.3443068,-0.7326158
0.5,0.40932083,2.584298,3.524247,1.8764418,0.37553325,-0.74402565
0.502,0.3676418,2.5883896,3.5150435,1.9012343,0.4063778,-0.7557807
0.504,0.32644713,2.5940626,3.497971,1.9254689,0.4362568,-0.76793617
0.506,0.28599155,2.600955,3.4740472,1.9489911,0.4646311,-0.78051555
0.508,0.24630833,2.6089325,3.4441776,1.971697,0.49105746,-0.79351276
0.51,0.20743847,2.617947,3.408964,1.9935524,0.51518387,-0.8069124
0.512,0.16940522,2.6278682,3.3690052,2.0145662,0.5367924,-0.8206715
0.514,0.13221395,2.6384687,3.3247526,2.0347881,0.55580056,-0.8347266
0.516,0.09575212,2.6495883,3.2767344,2.0542977,0.5722505,-0.8490114
0.518,0.059816122,2.6609826,3.2255988,2.0732207,0.58627677,-0.8634424
0.52,0.024201035,2.6725903,3.1719666,2.0916905,0.5981258,-0.8779337
0.522,-0.011143327,2.6840584,3.116549,2.1098452,0.60810316,-0.89239043
0.524,-0.046382904,2.6951032,3.0599632,2.1278253,0.61656,-0.90673995
0.526,-0.081599355,2.7055879,3.0028887,2.145762,0.623871,-0.9209158
0.528,-0.117016196,2.715237,2.9458947,2.1637928,0.63044286,-0.93488055
0.53,-0.15278363,2.7240767,2.889756,2.1820395,0.6366886,-0.9486119
0.532,-0.18898046,2.7318735,2.8349829,2.2006054,0.64296246,-0.9621081
0.534,-0.22576869,2.738173,2.7822664,2.2195973,0.6495894,-0.9753662
0.536,-0.26316595,2.7427588,2.7320142,2.239134,0.65689385,-0.9884013
0.538,-0.30107963,2.745171,2.684772,2.2593465,0.6651606,-1.001225
0.54,-0.3395127,2.7451973,2.6407719,2.2803462,0.6746353,-1.0138632
0.542,-0.3785019,2.7425575,2.6003733,2.3022203,0.68552446,-1.026329
0.544,-0.41773808,2.7368295,2.5637822,2.3250618,0.69801974,-1.0386238
0.546,-0.45715535,2.7277493,2.5314052,2.3489442,0.7122855,-1.0507715
0.548,-0.496284,2.714861,2.503326,2.3739126,0.7284739,-1.0627737
0.55,-0.5348036,2.6979532,2.4797707,2.3999877,0.74668634,-1.0746465
0.552,-0.5723635,2.6766505,2.460936,2.4271798,0.7670131,-1.0864084
0.554,-0.60868776,2.650937,2.4471776,2.4554987,0.7895057,-1.0980756
0.556,-0.6430278,2.620565,2.4387014,2.4849446,0.8141698,-1.1096672
0.558,-0.675104,2.5854588,2.4357772,2.5155172,0.84093636,-1.1212026
0.56,-0.7043272,2.5454645,2.4387054,2.5472074,0.86969733,-1.1327187
0.562,-0.73010564,2.5004523,2.447664,2.5800323,0.9002882,-1.1442497
0.564,-0.7516779,2.450232,2.462652,2.614003,0.9324928,-1.1557798
0.566,-0.7684864,2.3948746,2.4835792,2.6491454,0.966009,-1.1672893
0.568,-0.77989435,2.33431,2.5105798,2.6854851,1.0004647,-1.1787273
0.57,-0.7850709,2.2686162,2.543636,2.723021,1.0354089,-1.1900122
0.572,-0.783478,2.197839,2.5824063,2.7617435,1.0703967,-1.2010295
0.574,-0.774209,2.1219015,2.626472,2.8016157,1.1049879,-1.2116361
0.576,-0.7566196,2.0408597,2.6751661,2.8425722,1.138824,-1.2216935
0.578,-0.7303989,1.9548978,2.727973,2.884498,1.1716478,-1.2310481
0.58,-0.6947458,1.8639777,2.783753,2.927259,1.2033165,-1.2395225
0.582,-0.64926565,1.7682846,2.841762,2.9706595,1.2337966,-1.2469538
0.584,-0.5932741,1.6678144,2.9008744,3.0144577,1.2631129,-1.2532237
0.586,-0.5265149,1.5626907,2.9600825,3.0583794,1.2913212,-1.2582393
0.588,-0.44861674,1.4528371,3.0182548,3.1021063,1.318408,-1.2619466
0.59,-0.359308,1.3383522,3.0741634,3.1452732,1.3442492,-1.2643797
0.592,-0.25860035,1.2192264,3.1265996,3.1874974,1.3685396,-1.2656422
0.594,-0.14662433,1.0956795,3.1744635,3.2284017,1.3907503,-1.2658973
0.596,-0.023629665,0.96781105,3.2167838,3.2676406,1.4101431,-1.265377
0.598,0.11019099,0.83580005,3.2523775,3.3048756,1.4257426,-1.2643889
0.6,0.25423992,0.6998131,3.2806044,3.3398087,1.4364038,-1.2632759
0.602,0.4079079,0.5601382,3.3008087,3.372181,1.4409022,-1.2624422
0.604,0.57062113,0.41710353,3.3124661,3.401775,1.4380028,-1.2622925
0.606,0.74150777,0.2708454,3.3152695,3.4284027,1.4265267,-1.2632418
0.608,0.91970664,0.121742845,3.3093455,3.451853,1.4054096,-1.2657008
0.61,1.1041139,-0.029780269,3.2948523,3.4719472,1.3738168,-1.2700828
0.612,1.293755,-0.18341768,3.2722564,3.4885795,1.3312087,-1.2766862
0.614,1.4873792,-0.33875299,3.2422593,3.5016966,1.2773498,-1.2857246
0.616,1.6836514,-0.4953078,3.2057803,3.5112739,1.2123187,-1.2973446
0.618,1.8813317,-0.65256023,3.163867,3.5173876,1.136555,-1.311579
0.62,2.079504,-0.81009686,3.1176157,3.5201952,1.0508561,-1.3283398
0.622,2.2768812,-0.9675076,3.0682397,3.5199585,0.95635897,-1.3474154
0.624,2.4721985,-1.1242183,3.0168018,3.5170534,0.8544811,-1.3685033
0.626,2.6642992,-1.2798182,2.9644556,3.5119433,0.7468351,-1.3912108
0.628,2.8522148,-1.4338778,2.9123213,3.5051897,0.6351871,-1.4150982
0.63,3.0349066,-1.5861385,2.8613412,3.497396,0.52134806,-1.4396673
0.632,3.2115436,-1.7361991,2.8123293,3.4891925,0.40713602,-1.4644256
0.634,3.381464,-1.883778,2.7660017,3.4811878,0.29431266,-1.4889187
0.636,3.5439892,-2.028802,2.7228286,3.473967,0.18451685,-1.5126786
0.638,3.6987488,-2.1712008,2.6830716,3.4680543,0.079244286,-1.5352592
0.64,3.8454697,-2.3111956,2.6468022,3.4639125,-0.020190477,-1.5562619
0.642,3.9842017,-2.4488897,2.6140788,3.4619336,-0.11268628,-1.5753287
0.644,4.1148787,-2.5843258,2.5848968,3.4624245,-0.19736293,-1.5921178
0.646,4.23772,-2.717851,2.559234,3.4656312,-0.27354816,-1.6063558
0.648,4.352769,-2.8496058,2.5368655,3.4717467,-0.34077328,-1.6178234
0.65,4.4603763,-2.9800172,2.517467,3.4808874,-0.3987884,-1.6263435
0.652,4.5610657,-3.1095128,2.5005572,3.493138,-0.44749862,-1.631777
0.654,4.6552067,-3.2386556,2.4856682,3.5085323,-0.4869958,-1.6340483
0.656,4.743569,-3.3678377,2.4721608,3.5270503,-0.5175601,-1.6331068
0.658,4.826588,-3.4975164,2.4595397,3.5486214,-0.53960776,-1.6289552
0.66,4.9049616,-3.628206,2.4472334,3.573133,-0.55367655,-1.6216251
0.662,4.979385,-3.7602024,2.434905,3.600443,-0.56040287,-1.611168
0.664,5.0504384,-3.8939354,2.4219818,3.6303394,-0.5605254,-1.5976686
0.666,5.1184034,-4.0297046,2.4081616,3.6625347,-0.55485266,-1.5813049
0.668,5.1838865,-4.167734,2.393158,3.6967177,-0.5442332,-1.5622712
0.67,5.2474136,-4.3080645,2.376629,3.7325509,-0.529548,-1.540795
0.672,5.3092775,-4.4506626,2.3584204,3.7696502,-0.51174533,-1.5171571
0.674,5.369566,-4.595433,2.3384163,3.8076243,-0.49183097,-1.491685
0.676,5.428399,-4.7421036,2.3165958,3.8460674,-0.47084084,-1.46474
0.678,5.486009,-4.8904095,2.2928383,3.884589,-0.44975743,-1.4366984
0.68,5.542258,-5.0400615,2.2670298,3.9228308,-0.42955217,-1.4079579
0.682,5.597366,-5.1906834,2.2391994,3.9604673,-0.41111466,-1.3788829
0.684,5.650982,-5.341722,2.209691,3.997246,-0.39523774,-1.3498123
0.686,5.702916,-5.492669,2.1790352,4.0329423,-0.38262987,-1.3210334
0.688,5.7531066,-5.6432953,2.147514,4.0673833,-0.37388206,-1.2927556
0.69,5.8008037,-5.792974,2.1160846,4.1004148,-0.3694691,-1.2651358
0.692,5.845522,-5.941264,2.0852458,4.131913,-0.36980498,-1.2382014
0.694,5.886448,-6.0877013,2.0559514,4.1617627,-0.37511855,-1.2121203
0.696,5.922952,-6.2317357,2.0288608,4.1898146,-0.3856542,-1.1868613
0.698,5.954276,-6.3730106,2.0047688,4.215933,-0.40156007,-1.1624523
0.7,5.9797053,-6.5110893,1.9847023,4.2399735,-0.4228717,-1.1389284
0.702,5.9984064,-6.645593,1.969548,4.2618146,-0.44951522,-1.1163527
0.704,6.0095687,-6.7762594,1.9600391,4.2813773,-0.48127723,-1.0948215
0.706,6.012257,-6.902828,1.9570421,4.2986436,-0.5177922,-1.074449
0.708,6.0055804,-7.0250707,1.9612935,4.3136744,-0.5585044,-1.0553356
0.71,5.9889526,-7.1427574,1.9731323,4.326594,-0.6026829,-1.0375735
0.712,5.9615397,-7.2557316,1.9927212,4.3376045,-0.64945495,-1.0211928
0.714,5.922697,-7.3638597,2.020296,4.3469505,-0.6978042,-1.0061678
0.716,5.8717604,-7.4669504,2.0559833,4.35489,-0.74666953,-0.9924073
0.718,5.8080344,-7.5649405,2.0995727,4.361665,-0.7950206,-0.97974575
0.72,5.7312574,-7.657947,2.1506376,4.3674674,-0.8419218,-0.9679884
0.722,5.6408644,-7.745879,2.2087183,4.372437,-0.886586,-0.9569232
0.724,5.536847,-7.8288074,2.272964,4.3766646,-0.92839587,-0.9463396
0.726,5.4192486,-7.9068217,2.3422499,4.3801756,-0.9669354,-0.9360658
0.728,5.288208,-7.9800334,2.4155455,4.3829517,-1.0019599,-0.9259797
0.73,5.1438684,-8.048692,2.4916825,4.3849573,-1.0334356,-0.91602135
0.732,4.9867496,-8.112864,2.569375,4.3861556,-1.0614754,-0.9062002
0.734,4.817362,-8.172938,2.6474705,4.386493,-1.0862331,-0.896574
0.736,4.63621,-8.229069,2.7246318,4.3859644,-1.1078975,-0.88725567
0.738,4.4439707,-8.281519,2.7996025,4.384587,-1.126627,-0.8783756
0.74,4.2415957,-8.330637,2.871118,4.3824086,-1.142529,-0.87004936
0.742,4.029995,-8.376712,2.938117,4.3795185,-1.155653,-0.8623641
0.744,3.8102489,-8.420006,2.9993834,4.3760324,-1.1659962,-0.85536295
0.746,3.583684,-8.460759,3.0539637,4.3720775,-1.1734987,-0.8490595
0.748,3.3516974,-8.499183,3.1009655,4.3677726,-1.1781789,-0.84327245
0.75,3.1156313,-8.53539,3.139512,4.363264,-1.1799867,-0.8379587
0.752,2.876912,-8.569703,3.1690826,4.358659,-1.1789997,-0.8329665
0.754,2.6371737,-8.602229,3.1892514,4.354032,-1.1754221,-0.8281234
0.756,2.397895,-8.633215,3.1996894,4.3494277,-1.1695895,-0.8232841
0.758,2.160917,-8.662753,3.200305,4.3448777,-1.1619463,-0.81831765
0.76,1.9278646,-8.691053,3.1914268,4.3403788,-1.1530607,-0.8131552
0.762,1.7003233,-8.718196,3.1734095,4.3359256,-1.1435797,-0.8077826
0.764,1.4797554,-8.744137,3.1468039,4.331518,-1.1341794,-0.80223215
0.766,1.267848,-8.769115,3.112437,4.3271565,-1.1255246,-0.7965695
0.768,1.0660167,-8.793139,3.0711498,4.322869,-1.118274,-0.7908989
0.77,0.8756685,-8.816336,3.0238795,4.3186917,-1.1130116,-0.78534263
0.772,0.69839144,-8.8387375,2.9716556,4.314687,-1.110242,-0.7800413
0.774,0.5353024,-8.860494,2.91581,4.310933,-1.1103706,-0.7751456
0.776,0.3874414,-8.881544,2.8577178,4.3075027,-1.1136833,-0.77082413
0.778,0.25559425,-8.902,2.7985752,4.3044705,-1.1203368,-0.7672475
0.78,0.14062023,-8.922054,2.739829,4.301909,-1.130358,-0.76457745
0.782,0.043150187,-8.94172,2.6824837,4.2998796,-1.1436186,-0.7629426
0.784,-0.03611231,-8.961012,2.6274812,4.298428,-1.1598563,-0.7624322
0.786,-0.09677529,-8.979949,2.5757208,4.297579,-1.1787133,-0.76306933
0.788,-0.13866329,-8.998451,2.5279703,4.2973475,-1.1997318,-0.7648139
0.79,-0.16121316,-9.016425,2.4853928,4.297722,-1.2223626,-0.7675623
0.792,-0.16538644,-9.033436,2.4483247,4.298679,-1.2460148,-0.7711173
0.794,-0.1513989,-9.049273,2.415759,4.300188,-1.2700832,-0.775225
0.796,-0.11913681,-9.063621,2.387993,4.3021774,-1.294029,-0.77956045
0.798,-0.069998264,-9.075762,2.3653302,4.304556,-1.3174399,-0.7837793
0.8,-0.0035266876,-9.085913,2.3463364,4.3072233,-1.3400534,-0.7875182
0.802,0.08149791,-9.094435,2.3298478,4.3100705,-1.3617862,-0.79042435
0.804,0.1846509,-9.101208,2.3150036,4.312988,-1.3827524,-0.79223263
0.806,0.304698,-9.105524,2.3012779,4.3158584,-1.4032296,-0.79270774
0.808,0.44021535,-9.106598,2.2885985,4.318575,-1.4236277,-0.7916819
0.81,0.58971906,-9.103683,2.2770898,4.3210564,-1.4444544,-0.7890319
0.812,0.752748,-9.0966015,2.2665792,4.3232265,-1.4662849,-0.78468674
0.814,0.92977977,-9.085552,2.255036,4.3250527,-1.4896802,-0.7786001
0.816,1.1195886,-9.070059,2.239881,4.3265443,-1.515134,-0.7707581
0.818,1.3207207,-9.049784,2.2205296,4.3277364,-1.5430152,-0.76115346
0.82,1.5308053,-9.024025,2.196376,4.3286834,-1.5735548,-0.74979126
0.822,1.7489614,-8.992479,2.1662607,4.329477,-1.6067867,-0.7366187
0.824,1.9753579,-8.955309,2.1288295,4.3302364,-1.6425138,-0.72150487
0.826,2.2082088,-8.911976,2.0821004,4.330985,-1.6806555,-0.70429534
0.828,2.445412,-8.861885,2.0244741,4.3317747,-1.7209473,-0.6848172
0.83,2.6855104,-8.804614,1.9548976,4.3327227,-1.7629032,-0.6628438
0.832,2.92796,-8.739896,1.872549,4.333848,-1.806289,-0.6381783
0.834,3.1715646,-8.667221,1.7763733,4.335132,-1.8510332,-0.6106548
0.836,3.4154758,-8.586235,1.6651862,4.336515,-1.8972397,-0.5801425
0.838,3.6589932,-8.496735,1.5368996,4.3379664,-1.9451551,-0.54657483
0.84,3.9019427,-8.398517,1.3895783,4.3394947,-1.9950986,-0.50992435
0.842,4.1439986,-8.291245,1.2217541,4.341249,-2.0472775,-0.47018737
0.844,4.3849125,-8.174426,1.0321033,4.343513,-2.1017127,-0.42733324
0.846,4.624794,-8.0475235,0.8196169,4.346582,-2.1585927,-0.3814031
0.848,4.8634605,-7.910162,0.58363533,4.3507943,-2.2180972,-0.3323759
0.85,5.1007805,-7.761767,0.32387805,4.3566327,-2.280045,-0.2801146
0.852,5.3369837,-7.601762,0.040441394,4.364654,-2.3438783,-0.22441429
0.854,5.572057,-7.4296484,-0.26578307,4.3754134,-2.4088461,-0.1650646
0.856,5.806592,-7.2449393,-0.5936086,4.3894157,-2.4740224,-0.10190153
0.858,6.0411463,-7.047229,-0.9413376,4.4071307,-2.5383704,-0.034727246
0.86,6.2764745,-6.8363714,-1.3063892,4.4290338,-2.600762,0.036691666
0.862,6.51314,-6.6120577,-1.6859967,4.455625,-2.6599202,0.11257148
0.864,6.752134,-6.37452,-2.0768619,4.48735,-2.714594,0.1929847
0.866,6.994182,-6.1239634,-2.4751291,4.5245924,-2.763605,0.27791446
0.868,7.239799,-5.8608837,-2.8767805,4.5675983,-2.8059764,0.3673113
0.87,7.4893317,-5.5858088,-3.277395,4.6164136,-2.8411326,0.4611017
0.872,7.7432795,-5.299319,-3.6723337,4.6708384,-2.868926,0.5591871
0.874,8.001628,-5.002241,-4.056762,4.7303586,-2.8896108,0.6614209
0.876,8.263867,-4.695441,-4.4260607,4.794134,-2.903842,0.7676097
0.878,8.529796,-4.3799825,-4.7757454,4.8610206,-2.9126616,0.8775167
0.88,8.798439,-4.057025,-5.101397,4.929682,-2.91721,0.9909613
0.882,9.06834,-3.7277362,-5.3992977,4.998567,-2.9190307,1.1077693
0.884,9.338225,-3.393362,-5.6660495,5.0660625,-2.9198322,1.2277267
0.886,9.606388,-3.0551217,-5.898834,5.130773,-2.9209857,1.3505727
0.888,9.870606,-2.7140338,-6.095004,5.191523,-2.9236965,1.4759554
0.89,10.128135,-2.3711305,-6.252735,5.2474265,-2.9290452,1.6033965
0.892,10.376195,-2.0272608,-6.370369,5.2978845,-2.9379115,1.7322894
0.894,10.611565,-1.6833086,-6.4470224,5.3425884,-2.950952,1.8619078
0.896,10.831059,-1.3400702,-6.482724,5.381466,-2.968719,1.9914291
0.898,11.031356,-0.99808383,-6.4780655,5.414651,-2.991579,2.1199896
0.9,11.208922,-0.65770626,-6.434754,5.442535,-3.019431,2.246799
0.902,11.360997,-0.31931257,-6.354101,5.465592,-3.0520444,2.3710933
0.904,11.4842825,0.017086983,-6.237423,5.4842577,-3.089334,2.492156
0.906,11.575204,0.35152912,-6.0877438,5.498974,-3.13113,2.609437
0.908,11.631672,0.6838622,-5.908135,5.510198,-3.1770658,2.7225769
0.91,11.650021,1.0150127,-5.7006516,5.5183783,-3.2266464,2.8313932
0.912,11.6268835,1.3456321,-5.468001,5.5238943,-3.279275,2.9357672
0.914,11.561356,1.6757822,-5.213743,5.5270357,-3.3343117,3.035616
0.916,11.4534,2.0048053,-4.9417067,5.52801,-3.3911996,3.1309419
0.918,11.303232,2.332666,-4.655965,5.5270214,-3.4493532,3.2218828
0.92,11.111217,2.6591153,-4.360446,5.5242734,-3.508195,3.3085701
0.922,10.876171,2.984795,-4.0576534,5.519969,-3.567197,3.3910446
0.924,10.601259,3.3095286,-3.7512388,5.5143347,-3.6258516,3.469338
0.926,10.286434,3.6336734,-3.4410858,5.507615,-3.6837702,3.5434575
0.928,9.9348135,3.9566658,-3.1310158,5.500107,-3.7407205,3.613427
0.93,9.550181,4.277881,-2.8248572,5.4921217,-3.796609,3.6792572
0.932,9.13524,4.596923,-2.5241354,5.4839787,-3.8514566,3.7409341
0.934,8.691655,4.913966,-2.2305613,5.4759703,-3.90539,3.7984216
0.936,8.22438,5.2284074,-1.9457593,5.4683456,-3.9586043,3.8516874
0.938,7.7381787,5.5394816,-1.671637,5.461298,-4.011343,3.900728
0.94,7.237112,5.846836,-1.4101863,5.454925,-4.0639052,3.9455554
0.942,6.724691,6.150111,-1.1632199,5.449219,-4.116523,3.986194
0.944,6.2051935,6.4487133,-0.93170404,5.4441166,-4.169347,4.022662
0.946,5.6826077,6.7423306,-0.7158787,5.4395285,-4.2224355,4.055011
0.948,5.1608343,7.0306735,-0.51531625,5.435352,-4.2757616,4.0832696
0.95,4.6435175,7.3132954,-0.32961917,5.431511,-4.3291645,4.107466
0.952,4.134316,7.5896754,-0.1583314,5.4279943,-4.38233,4.12758
0.954,3.6367517,7.859316,-0.0009379387,5.424892,-4.4349318,4.143713
0.956,3.1536865,8.121734,0.1434021,5.422333,-4.4865046,4.1558876
0.958,2.6880274,8.376604,0.27577257,5.420556,-4.5364437,4.164203
0.96,2.241822,8.623825,0.3976233,5.4198127,-4.5843267,4.1689186
0.962,1.8168905,8.8629055,0.5103121,5.4203167,-4.629854,4.1703196
0.964,1.4143773,9.093919,0.6152818,5.4223156,-4.6726046,4.1687155
0.966,1.0346937,9.316804,0.7143371,5.4260116,-4.712225,4.164441
0.968,0.6776755,9.531698,0.8092902,5.431518,-4.7484207,4.157817
0.97,0.3426131,9.738924,0.90186906,5.438902,-4.780843,4.1491776
0.972,0.028228879,9.938966,0.99406123,5.4481683,-4.8091044,4.1388383
0.974,-0.26742554,10.132445,1.0881162,5.459283,-4.832741,4.1271086
0.976,-0.54646236,10.319874,1.1859622,5.4721904,-4.8511524,4.114288
0.978,-0.81104344,10.50196,1.289377,5.486834,-4.8636103,4.1006403
0.98,-1.0634713,10.679358,1.3997743,5.5031514,-4.8692827,4.086458
0.982,-1.3063037,10.852554,1.5181098,5.521123,-4.867229,4.07202
0.984,-1.5422976,11.022167,1.6449027,5.5407434,-4.8564863,4.0575933
0.986,-1.7740588,11.188742,1.7806885,5.5620794,-4.83611,4.043419
0.988,-2.0043626,11.352904,1.9256516,5.5852046,-4.805229,4.0296946
0.99,-2.235685,11.515229,2.0794947,5.610204,-4.763191,4.016525
0.992,-2.470516,11.676075,2.2416682,5.6371136,-4.7096753,4.003932
0.994,-2.711311,11.8360195,2.4116156,5.6659265,-4.644747,3.9918659
0.996,-2.9603481,11.995365,2.588674,5.696561,-4.5688887,3.9801836
0.998,-3.2192132,12.154548,2.7720156,5.7288294,-4.483006,3.9686623
1,-3.4891486,12.313813,2.960696,5.7624516,-4.3883963,3.9570029
1.002,-3.770952,12.473288,3.1537714,5.79704,-4.28671,3.944887
1.004,-4.0646315,12.633184,3.3501282,5.8321114,-4.17991,3.9319818
1.006,-4.369735,12.793667,3.5487008,5.8671184,-4.0701504,3.9179525
1.008,-4.685472,12.954643,3.7486048,5.9014897,-3.9596126,3.9023652
1.01,-5.0107317,13.11627,3.949073,5.934728,-3.850513,3.8848648
1.012,-5.3439403,13.278578,4.1490765,5.9663725,-3.744893,3.8650222
1.014,-5.6834445,13.441852,4.34802,5.9961042,-3.6443942,3.8423321
1.016,-6.027041,13.606176,4.5452003,6.0237403,-3.5503519,3.8163872
1.018,-6.3723083,13.771699,4.739813,6.049171,-3.4638922,3.786842
1.02,-6.7167234,13.9383135,4.931326,6.0724497,-3.385685,3.7534056
1.022,-7.057533,14.10584,5.1191316,6.093754,-3.3159637,3.7158759
1.024,-7.392017,14.274216,5.3027344,6.113349,-3.2546406,3.674135
1.026,-7.7176867,14.44341,5.481739,6.1315384,-3.2013328,3.628168
1.028,-8.0320215,14.613165,5.6558022,6.1486497,-3.1554508,3.5780652
1.03,-8.332478,14.783286,5.8244076,6.164999,-3.1162949,3.5239363
1.032,-8.615807,14.95338,5.9863997,6.1808276,-3.083125,3.4658902
1.034,-8.882647,15.123524,6.143318,6.196285,-3.0552828,3.4039943
1.036,-9.128584,15.292582,6.2927794,6.211398,-3.032235,3.3382797
1.038,-9.352597,15.460324,6.4350204,6.2261086,-3.0135145,3.2687526
1.04,-9.554174,15.626388,6.570601,6.2402577,-2.9987063,3.1954048
1.042,-9.732914,15.790404,6.6989346,6.253637,-2.987532,3.1182504
1.044,-9.888077,15.951622,6.8201194,6.266009,-2.9797034,3.0373836
1.046,-10.020174,16.109585,6.9351606,6.2771792,-2.9748755,2.9529886
1.048,-10.129998,16.264109,7.0452003,6.287,-2.9726048,2.8653455
1.05,-10.218839,16.41523,7.151636,6.2954035,-2.9723108,2.7748468
1.052,-10.287897,16.563019,7.255908,6.302388,-2.9732826,2.681997
1.054,-10.338791,16.70767,7.359695,6.307992,-2.9747221,2.5873785
1.056,-10.373357,16.849674,7.4644384,6.3123193,-2.9757576,2.491632
1.058,-10.393364,16.989595,7.5718675,6.3154984,-2.9754353,2.3953805
1.06,-10.400967,17.128134,7.683776,6.3176517,-2.9728546,2.2991903
1.062,-10.398278,17.26615,7.801728,6.318885,-2.9672194,2.2035513
1.064,-10.3876915,17.404327,7.9275303,6.319275,-2.957906,2.1088653
1.066,-10.371298,17.543497,8.0629835,6.318837,-2.944514,2.0154233
1.068,-10.351327,17.684593,8.2095,6.317543,-2.9268363,1.923402
1.07,-10.329713,17.828268,8.368628,6.315302,-2.9049146,1.8328809
1.072,-10.308564,17.97537,8.541794,6.311932,-2.8790581,1.743848
1.074,-10.289745,18.126432,8.730061,6.307168,-2.8498209,1.6562049
1.076,-10.27482,18.282082,8.934178,6.300643,-2.8179722,1.5697292
1.078,-10.265013,18.442593,9.154309,6.291939,-2.7844605,1.4840539
1.08,-10.261344,18.608135,9.3902,6.280566,-2.7503724,1.3986626
1.082,-10.264277,18.778488,9.641498,6.265976,-2.7168632,1.3128786
1.084,-10.274506,18.95325,9.907227,6.247597,-2.685113,1.2259145
1.086,-10.292635,19.132084,10.186761,6.2248783,-2.6562762,1.1368973
1.088,-10.319221,19.314194,10.479358,6.1972985,-2.6313946,1.0448921
1.09,-10.35487,19.498842,10.784183,6.164392,-2.6114018,0.9489958
1.092,-10.40013,19.685143,11.100563,6.1257725,-2.5970802,0.84838766
1.094,-10.455175,19.87222,11.427644,6.081152,-2.5890133,0.74241614
1.096,-10.520274,20.05913,11.76424,6.030349,-2.5875032,0.63063794
1.098,-10.595645,20.244717,12.109445,5.973282,-2.5926414,0.51285934
1.1,-10.681227,20.42789,12.462421,5.909975,-2.6042864,0.3890955
1.102,-10.776913,20.607807,12.82248,5.840541,-2.6221292,0.25956035
1.104,-10.882436,20.783451,13.188851,5.765179,-2.6456637,0.124623775
1.106,-10.99746,20.953959,13.560722,5.68414,-2.6742268,-0.015286058
1.108,-11.121893,21.118462,13.937445,5.597743,-2.7070136,-0.15968151
1.11,-11.255431,21.276323,14.318415,5.506338,-2.7431097,-0.30807954
1.112,-11.397703,21.426918,14.703127,5.410265,-2.7815554,-0.45999432
1.114,-11.548431,21.569689,15.091288,5.3098536,-2.8213308,-0.61494136
1.116,-11.707046,21.70396,15.482626,5.2054367,-2.8613834,-0.77245885
1.118,-11.87253,21.829088,15.876764,5.09729,-2.9006739,-0.93211114
1.12,-12.043648,21.944225,16.273106,4.985687,-2.9381862,-1.0935171
1.122,-12.2188015,22.048714,16.671085,4.870887,-2.9729834,-1.2563462
1.124,-12.39649,22.141857,17.069899,4.753162,-3.004232,-1.4203829
1.126,-12.575255,22.223091,17.468607,4.6327906,-3.0312462,-1.5854933
1.128,-12.753122,22.291756,17.86614,4.5100417,-3.0535452,-1.7516485
1.13,-12.928139,22.347141,18.261192,4.385222,-3.0708637,-1.9189205
1.132,-13.098299,22.388813,18.652187,4.2586412,-3.08311,-2.0874565
1.134,-13.2613945,22.415924,19.037382,4.1306424,-3.0903563,-2.2574677
1.136,-13.415276,22.4278,19.415178,4.0015783,-3.092819,-2.4291773
1.138,-13.557936,22.423588,19.784037,3.8718083,-3.0908031,-2.6027665
1.14,-13.687614,22.402624,20.142403,3.7416875,-3.084612,-2.778337
1.142,-13.802708,22.364346,20.488735,3.611597,-3.0745282,-2.9558933
1.144,-13.901851,22.308453,20.821339,3.4819057,-3.0607486,-3.1353154
1.146,-13.983481,22.234684,21.138588,3.3529696,-3.0434027,-3.3163383
1.148,-14.046469,22.14299,21.438986,3.225141,-3.0224998,-3.4985902
1.15,-14.089608,22.03328,21.721096,3.0987477,-2.9979484,-3.681605
1.152,-14.112339,21.905891,21.983534,2.9740744,-2.9696026,-3.864837
1.154,-14.114374,21.761478,22.224804,2.8513613,-2.937267,-4.047714
1.156,-14.095767,21.600739,22.443415,2.7308044,-2.9007027,-4.2296767
1.158,-14.056486,21.424538,22.638157,2.612554,-2.8596766,-4.410215
1.16,-13.996948,21.233856,22.807827,2.4967198,-2.8139288,-4.5888767
1.162,-13.918083,21.029985,22.951782,2.3833852,-2.7632093,-4.765296
1.164,-13.820995,20.814316,23.069118,2.2726085,-2.707335,-4.939146
1.166,-13.706726,20.588108,23.158964,2.1644459,-2.6461549,-5.1101832
1.168,-13.576479,20.352833,23.220495,2.0589285,-2.5795732,-5.278238
1.17,-13.431429,20.109978,23.252974,1.9560685,-2.5075755,-5.443203
1.172,-13.2729,19.86077,23.25566,1.8559157,-2.4302454,-5.605028
1.174,-13.1018505,19.606611,23.227636,1.7584813,-2.3477678,-5.7637033
1.176,-12.91927,19.348665,23.167866,1.6638104,-2.2604516,-5.919319
1.178,-12.726217,19.088024,23.075758,1.5719407,-2.1687064,-6.0720415
1.18,-12.523143,18.825453,22.950602,1.4829255,-2.0730414,-6.222141
1.182,-12.31078,18.561653,22.791988,1.3968437,-1.9740013,-6.3699446
1.184,-12.089354,18.296865,22.599651,1.3138121,-1.8721242,-6.5157986
1.186,-11.859249,18.031307,22.37361,1.2339706,-1.7679627,-6.660058
1.188,-11.620948,17.765024,22.114714,1.1575038,-1.6620519,-6.803038
1.19,-11.374718,17.498068,21.824093,1.0845807,-1.554858,-6.944993
1.192,-11.121006,17.2303,21.502863,1.0153505,-1.4468179,-7.086097
1.194,-10.859676,16.961496,21.152447,0.9499165,-1.3383546,-7.2264376
1.196,-10.590422,16.691408,20.773758,0.8883022,-1.2298439,-7.3659577
1.198,-10.312838,16.419554,20.368067,0.830475,-1.1217005,-7.504525
1.2,-10.02663,16.145676,19.937239,0.7763219,-1.0143702,-7.6419525
1.202,-9.7318,15.869476,19.483597,0.7256795,-0.9083488,-7.7780294
1.204,-9.428377,15.590711,19.009748,0.6783606,-0.80412817,-7.912512
1.206,-9.116365,15.309144,18.518436,0.6341952,-0.702198,-8.045195
1.208,-8.795784,15.02504,18.0122,0.5930449,-0.6030607,-8.175878
1.21,-8.4668865,14.738407,17.493652,0.5548322,-0.5071697,-8.3044
1.212,-8.129706,14.449411,16.96528,0.51955503,-0.41488957,-8.430628
1.214,-7.7844524,14.158512,16.429401,0.48726875,-0.32651758,-8.554418
1.216,-7.431309,13.866119,15.888627,0.4580257,-0.24232435,-8.675635
1.218,-7.070566,13.572931,15.345427,0.43183994,-0.16257906,-8.794123
1.22,-6.702785,13.27973,14.802549,0.40868998,-0.087594986,-8.909706
1.222,-6.328211,12.987239,14.261924,0.38846582,-0.01777029,-9.022237
1.224,-5.94713,12.696461,13.725413,0.37097302,0.046453,-9.131615
1.226,-5.559778,12.408496,13.194525,0.355932,0.10455656,-9.237799
1.228,-5.166392,12.124317,12.670581,0.34302256,0.1559577,-9.340825
1.23,-4.7670627,11.844708,12.154952,0.33189416,0.20007753,-9.44083
1.232,-4.3617277,11.570287,11.648663,0.32224643,0.2364335,-9.538064
1.234,-3.9501758,11.301537,11.15244,0.31385058,0.26465893,-9.632891
1.236,-3.5324037,11.039031,10.666893,0.30657044,0.2845502,-9.725741
1.238,-3.1083975,10.783077,10.1927,0.30031857,0.2960806,-9.817055
1.24,-2.6781585,10.533963,9.73043,0.29509854,0.2994175,-9.907246
1.242,-2.2415242,10.291738,9.280836,0.29096577,0.29487133,-9.996656
1.244,-1.7987707,10.056635,8.844501,0.28799886,0.2827754,-10.085544
1.246,-1.3496256,9.828297,8.421874,0.2862575,0.2634859,-10.17407
1.248,-0.89416105,9.606702,8.013155,0.2857114,0.23728037,-10.262325
1.25,-0.43243635,9.391541,7.618817,0.28625733,0.20432901,-10.350341
1.252,0.03500855,9.182373,7.239497,0.2877112,0.16474819,-10.438082
1.254,0.5076653,8.978842,6.8757915,0.28980786,0.11854792,-10.525444
1.256,0.98463285,8.78046,6.5283594,0.29220295,0.06565046,-10.612291
1.258,1.464896,8.58677,6.1981277,0.29449952,0.0059113503,-10.698488
1.26,1.947221,8.397573,5.8862114,0.29629552,-0.060766697,-10.783888
1.262,2.430225,8.212561,5.5938683,0.29717672,-0.13441706,-10.868327
1.264,2.9123857,8.031527,5.322841,0.29676235,-0.21503448,-10.95162
1.266,3.392023,7.8543363,5.0748434,0.29469156,-0.30251408,-11.033583
1.268,3.8671646,7.681197,4.851609,0.29068995,-0.3966484,-11.114033
1.27,4.336224,7.5121355,4.654838,0.2845924,-0.49710035,-11.192757
1.272,4.7976236,7.3475475,4.4860287,0.27630258,-0.6034689,-11.26956
1.274,5.249661,7.1881037,4.3471107,0.26580167,-0.7153373,-11.344257
1.276,5.690556,7.034745,4.2401724,0.25314593,-0.83228064,-11.416674
1.278,6.118585,6.8884087,4.1673355,0.23842645,-0.9538708,-11.486706
1.28,6.532385,6.7503242,4.130448,0.22178507,-1.0797219,-11.554311
1.282,6.9309835,6.6217804,4.131173,0.2034092,-1.2094469,-11.619513
1.284,7.3135495,6.5042257,4.171244,0.18351507,-1.3427253,-11.682398
1.286,7.6795816,6.399147,4.25231,0.16234851,-1.4792919,-11.7431
1.288,8.029316,6.3079,4.3755054,0.14018703,-1.6188984,-11.8018055
1.29,8.362618,6.2322307,4.541703,0.11733675,-1.7613297,-11.858755
1.292,8.68053,6.1736603,4.751496,0.09413028,-1.9063807,-11.914246
1.294,8.9841385,6.1335993,5.0051603,0.0709095,-2.0538845,-11.96859
1.296,9.274885,6.1135263,5.3025203,0.04796648,-2.2037861,-12.022117
1.298,9.554651,6.114812,5.642874,0.02555132,-2.356135,-12.075165
1.3,9.82564,6.1385813,6.0253325,0.0038423538,-2.511117,-12.128098
1.302,10.090166,6.1857934,6.4489403,-0.01706314,-2.669119,-12.181274
1.304,10.350681,6.2571125,6.9125423,-0.037233353,-2.8308024,-12.235033
1.306,10.609529,6.3531847,7.4149656,-0.056859493,-2.9970663,-12.289731
1.308,10.86923,6.4740953,7.9548635,-0.07624531,-3.1688952,-12.345687
1.31,11.1320915,6.6200485,8.52995,-0.09575224,-3.3472757,-12.40315
1.312,11.400966,6.7908993,9.137286,-0.11580801,-3.5331125,-12.462288
1.314,11.678421,6.985858,9.773869,-0.13688135,-3.7272084,-12.523199
1.316,11.966683,7.204134,10.436193,-0.15944147,-3.9300811,-12.585911
1.318,12.267881,7.444453,11.120459,-0.18397379,-4.14194,-12.650337
1.32,12.584248,7.7057695,11.823044,-0.21095514,-4.3626604,-12.716356
1.322,12.9173155,7.986613,12.539976,-0.2408557,-4.5918045,-12.783781
1.324,13.268383,8.284773,13.26819,-0.27414513,-4.8286514,-12.852345
1.326,13.638603,8.598249,14.003706,-0.31124878,-5.0722713,-12.921688
1.328,14.029011,8.924896,14.742315,-0.35259676,-5.3216434,-12.991386
1.33,14.440695,9.262138,15.480032,-0.3985939,-5.5757656,-13.0610075
1.332,14.873927,9.607358,16.213503,-0.4496274,-5.833677,-13.1300535
1.334,15.328934,9.957983,16.939392,-0.50603676,-6.094487,-13.198009
1.336,15.805771,10.311019,17.654581,-0.5681677,-6.357462,-13.264353
1.338,16.304153,10.663617,18.356102,-0.6363144,-6.622003,-13.328562
1.34,16.823685,11.012805,19.040886,-0.71077347,-6.887663,-13.390175
1.342,17.363705,11.355898,19.706228,-0.79180956,-7.154168,-13.448843
1.344,17.923664,11.689953,20.350014,-0.8796277,-7.42125,-13.504271
1.346,18.503128,12.012023,20.970549,-0.9743104,-7.6885796,-13.556166
1.348,19.101316,12.319244,21.566402,-1.0757518,-7.9555936,-13.6042185
1.35,19.71753,12.608754,22.136572,-1.1836462,-8.221491,-13.648111
1.352,20.350983,12.877784,22.680317,-1.2975664,-8.485467,-13.687536
1.354,21.000984,13.123581,23.197327,-1.4168005,-8.74626,-13.7220125
1.356,21.66665,13.343857,23.687613,-1.5404129,-9.002287,-13.750938
1.358,22.347776,13.535942,24.15163,-1.667346,-9.251859,-13.773688
1.36,23.043781,13.697499,24.590347,-1.7964687,-9.493355,-13.789567
1.362,23.754074,13.826491,25.005138,-1.9266424,-9.72529,-13.797863
1.364,24.47817,13.9209175,25.397594,-2.0567703,-9.946508,-13.797951
1.366,25.21535,13.979121,25.769348,-2.1858401,-10.156223,-13.78934
1.368,25.96491,14.000166,26.121532,-2.3129363,-10.353986,-13.771649
1.37,26.726887,13.982937,26.455614,-2.437244,-10.539741,-13.744628
1.372,27.501308,13.926457,26.772747,-2.5580122,-10.713765,-13.70816
1.374,28.28802,13.830079,27.074495,-2.6745696,-10.8765545,-13.662214
1.376,29.087053,13.693402,27.36224,-2.7862704,-11.0286665,-13.60683
1.378,29.898195,13.516262,27.637709,-2.8924963,-11.170667,-13.542112
1.38,30.720978,13.298652,27.902576,-2.9926527,-11.303048,-13.468222
1.382,31.554808,13.041147,28.158264,-3.0861459,-11.42618,-13.385261
1.384,32.39966,12.7442255,28.405525,-3.172411,-11.540386,-13.293314
1.386,33.255047,12.40862,28.64516,-3.2509227,-11.645997,-13.192442
1.388,34.120567,12.035273,28.877533,-3.3212142,-11.74341,-13.082751
1.39,34.99539,11.625139,29.102978,-3.3828115,-11.832979,-12.96433
1.392,35.878887,11.179405,29.321527,-3.4352605,-11.915099,-12.837302
1.394,36.77078,10.698889,29.532787,-3.4780774,-11.99016,-12.701797
1.396,37.670574,10.184673,29.73639,-3.5107708,-12.05846,-12.557894
1.398,38.577877,9.637999,29.93211,-3.5327919,-12.1202,-12.405758
1.4,39.492416,9.059769,30.119806,-3.5435607,-12.17541,-12.245611
1.402,40.413567,8.450954,30.299223,-3.5424428,-12.223935,-12.077656
1.404,41.341312,7.812587,30.470284,-3.528686,-12.265276,-11.902017
1.406,42.275562,7.1454477,30.632576,-3.5014305,-12.298532,-11.718745
1.408,43.21663,6.4505606,30.785433,-3.4598606,-12.322826,-11.527901
1.41,44.16563,5.728856,30.927782,-3.40317,-12.337218,-11.329535
1.412,45.123924,4.9816647,31.058819,-3.33051,-12.340627,-11.12353
1.414,46.093124,4.2100515,31.178207,-3.241128,-12.332082,-10.909689
1.416,47.075214,3.4151907,31.28609,-3.134358,-12.310926,-10.687756
1.418,48.072342,2.5989666,31.38265,-3.0097,-12.276887,-10.457397
1.42,49.087154,1.7629848,31.46904,-2.866793,-12.230106,-10.218272
1.422,50.121746,0.90967035,31.547604,-2.7054121,-12.171062,-9.970047
1.424,51.178513,0.042365074,31.62117,-2.5255075,-12.100693,-9.712402
1.426,52.260056,-0.8353474,31.693073,-2.3271966,-12.020353,-9.4450245
1.428,53.369255,-1.7194197,31.766628,-2.1107597,-11.931731,-9.167605
1.43,54.50866,-2.6050944,31.844378,-1.8766108,-11.836822,-8.879893
1.432,55.68147,-3.4865358,31.929592,-1.6252906,-11.737917,-8.581686
1.434,56.89106,-4.3569627,32.024807,-1.3574549,-11.637563,-8.272848
1.436,58.140186,-5.209228,32.133667,-1.073818,-11.5384655,-7.9533043
1.438,59.431297,-6.036083,32.260227,-0.7750795,-11.443412,-7.62302
1.44,60.76648,-6.829023,32.408066,-0.4618683,-11.355186,-7.28201
1.442,62.147247,-7.578564,32.581963,-0.13468766,-11.276533,-6.930314
1.444,63.573982,-8.273521,32.787243,0.2060976,-11.210051,-6.5679636
1.446,65.045975,-8.900819,33.02984,0.5603049,-11.158047,-6.1949215
1.448,66.55883,-9.4437895,33.315414,0.927896,-11.12254,-5.8110085
1.45,68.11279,-9.889165,33.65129,1.3088608,-11.105395,-5.4158363
1.452,69.7072,-10.225503,34.040646,1.7030473,-11.108388,-5.008774
1.454,71.335846,-10.435839,34.491684,2.110109,-11.133143,-4.5889525
1.456,72.98816,-10.497477,35.01523,2.5293899,-11.181126,-4.155367
1.458,74.66371,-10.393746,35.615433,2.9598804,-11.253713,-3.7068324
1.46,76.36231,-10.110474,36.29275,3.4002314,-11.35224,-3.2420983
1.462,78.080124,-9.626556,37.047386,3.8486729,-11.477967,-2.7599685
1.464,79.80771,-8.914402,37.87892,4.303069,-11.631926,-2.2595005
1.466,81.54061,-7.948383,38.784363,4.7611337,-11.814659,-1.7401878
1.468,83.27771,-6.7083473,39.765213,5.2204103,-12.026086,-1.202011
1.47,85.02136,-5.170979,40.829033,5.6783648,-12.265451,-0.6453309
1.472,86.765884,-3.303691,41.985157,6.1325097,-12.531213,-0.070825815
1.474,88.50525,-1.078146,43.240425,6.5804667,-12.820994,0.5204947
1.476,90.23027,1.498322,44.575302,7.0201693,-13.131541,1.127398
1.478,91.94071,4.438579,45.99597,7.450046,-13.45864,1.7484573
1.48,93.62861,7.769389,47.488567,7.8690825,-13.79723,2.3824935
1.482,95.29836,11.51763,49.031788,8.276996,-14.141496,3.0295353
1.484,96.95552,15.685595,50.640934,8.674056,-14.485038,3.6906998
1.486,98.59102,20.260538,52.36043,9.061186,-14.820908,4.367835
1.488,100.21124,25.216185,54.24531,9.440804,-15.140576,5.0651712
1.49,101.739914,30.567797,56.319237,9.816055,-15.434853,5.7895308
1.492,103.21164,36.303455,58.590786,10.190341,-15.694008,6.5493407
1.494,104.78462,42.39584,61.02774,10.567447,-15.906893,7.3540154
1.496,106.528595,48.816414,63.634644,10.950922,-16.061266,8.213905
1.498,108.37259,55.566032,66.42722,11.34312,-16.14442,9.140256
1.5,110.27707,62.60446,69.45144,11.74467,-16.143196,10.144711
1.502,112.253716,69.88878,72.73064,12.1550865,-16.043142,11.238361
1.504,114.31742,77.374886,76.30385,12.573172,-15.827491,12.430357
1.506,116.473206,84.96846,80.24175,12.996571,-15.477463,13.727439
1.508,118.73516,92.58975,84.58817,13.4201565,-14.973634,15.133231
1.51,121.11088,100.11853,89.305374,13.837191,-14.294449,16.648691
1.512,123.62567,107.47636,94.255585,14.239613,-13.416055,18.27056
1.514,126.33769,114.67946,99.45574,14.614025,-12.314003,19.989944
1.516,129.1988,121.77785,105.03828,14.941514,-10.956076,21.79448
1.518,132.36525,128.39851,111.070465,15.199413,-9.307396,23.674816
1.52,135.73383,134.2964,117.487305,15.360616,-7.3575306,25.612698
1.522,139.37585,139.51189,124.212364,15.409248,-5.087614,27.59797
1.524,143.27145,143.99086,131.17145,15.330096,-2.4827328,29.620033
1.526,147.46136,147.65039,138.27524,15.113003,0.45987034,31.673758
1.528,151.96323,150.42548,145.40395,14.755068,3.732421,33.748726
1.53,156.80167,152.2735,152.43782,14.258212,7.3145323,35.82617
1.532,161.97528,153.19449,159.24196,13.631638,11.161135,37.891174
1.534,167.46072,153.20502,165.66008,12.899696,15.201075,39.927994
1.536,173.248,152.31516,171.52892,12.102545,19.352472,41.8962
1.538,179.30942,150.54948,176.6784,11.295352,23.529737,43.728527
1.54,185.5831,147.95544,180.94868,10.545347,27.633793,45.361546
1.542,191.98093,144.60092,184.18202,9.926518,31.54737,46.760155
1.544,198.4,140.5674,186.22545,9.5250225,35.157265,47.82985
1.546,204.73386,135.9431,186.94221,9.455003,38.430946,48.43789
1.548,210.86873,130.81882,186.2247,9.771696,41.31969,48.488323
1.55,216.67447,125.29212,183.99608,10.478178,43.784286,47.921837
1.552,222.01802,119.4608,180.21277,11.566568,45.82749,46.689407
1.554,226.76599,113.420975,174.86885,13.002344,47.466583,44.7674
1.556,230.79768,107.25691,168.00526,14.71142,48.709038,42.157753
1.558,233.99368,101.05194,159.70026,16.588339,49.545544,38.889328
1.56,236.24608,94.88254,150.06683,18.512346,49.96102,35.019478
1.562,237.4711,88.81484,139.25873,20.364443,49.944603,30.628403
1.564,237.60269,82.90547,127.456696,22.03628,49.48694,25.812035
1.566,236.59668,77.20183,114.86483,23.431145,48.583366,20.68506
1.568,234.42989,71.7513,101.71175,24.471859,47.241905,15.383291
1.57,231.11032,66.59357,88.24046,25.10318,45.48236,10.058524
1.572,226.67694,61.755577,74.69678,25.291452,43.34272,4.8697367
1.574,221.19751,57.25833,61.3203,25.02589,40.888924,-0.015416145
1.576,214.75078,53.125572,48.32975,24.309097,38.17076,-4.4497547
1.578,207.43468,49.380745,35.91765,23.171982,35.235123,-8.309357
1.58,199.366,46.038383,24.256073,21.667246,32.127003,-11.513088
1.582,190.68022,43.104454,13.497977,19.865108,28.88325,-14.024306
1.584,181.52051,40.590317,3.7710671,17.849558,25.534765,-15.857903
1.586,172.03705,38.53421,-4.807939,15.707045,22.116127,-17.087402
1.588,162.37274,36.941017,-12.181228,13.515472,18.665232,-17.824507
1.59,152.67363,35.79965,-18.300312,11.342138,15.215538,-18.186106
1.592,143.06653,35.09825,-23.143524,9.24012,11.800568,-18.28598
1.594,133.66957,34.84005,-26.75075,7.2461905,8.467385,-18.242744
1.596,124.6019,35.023983,-29.197565,5.38075,5.272913,-18.165657
1.598,115.95169,35.640244,-30.568722,3.6425195,2.2594302,-18.071589
1.6,107.85522,36.627647,-30.922056,2.0051146,-0.58684456,-17.941397
1.602,100.31604,37.947655,-30.316612,0.48595,-3.2317228,-17.78242
1.604,93.249374,39.564148,-28.797344,-0.898149,-5.6476784,-17.59856
1.606,86.69014,41.42885,-26.46738,-2.1657853,-7.8389487,-17.367058
1.608,80.7785,43.46169,-23.445652,-3.335452,-9.806955,-17.067734
1.61,75.56599,45.620583,-19.874348,-4.4110413,-11.540577,-16.688305
1.612,71.02803,47.855232,-15.864647,-5.389708,-13.023611,-16.228222
1.614,67.12928,50.1103,-11.5381155,-6.269203,-14.246834,-15.699947
1.616,63.837288,52.3667,-7.0316305,-7.0503864,-15.208485,-15.122623
1.618,61.10456,54.575996,-2.4409676,-7.7340407,-15.905728,-14.517276
1.62,58.886734,56.717365,2.205968,-8.3149395,-16.334658,-13.908721
1.622,57.122486,58.723915,6.928564,-8.78528,-16.495247,-13.324427
1.624,55.729717,60.468605,11.567417,-9.138203,-16.394829,-12.7896595
1.626,54.725464,61.85224,15.899213,-9.368907,-16.04838,-12.324406
1.628,53.94027,63.15522,19.819561,-9.475258,-15.477766,-11.94149
1.63,53.464287,64.430145,23.353544,-9.458586,-14.71065,-11.645887
1.632,53.193756,65.471344,26.504486,-9.32486,-13.779441,-11.435068
1.634,53.121338,66.2379,29.251492,-9.085438,-12.72072,-11.300037
1.636,53.176086,66.74201,31.575863,-8.756859,-11.573132,-11.226734
1.638,53.3171,66.993324,33.475433,-8.359541,-10.374584,-11.198302
1.64,53.498543,66.99967,34.93765,-7.9162397,-9.160035,-11.197065
1.642,53.69843,66.75421,35.96217,-7.451987,-7.9616632,-11.206336
1.644,53.90517,66.26554,36.56681,-6.993082,-6.808485,-11.212841
1.646,54.08431,65.57121,36.775623,-6.5643,-5.7242646,-11.208301
1.648,54.21376,64.70727,36.622643,-6.1879086,-4.728327,-11.189508
1.65,54.292877,63.69984,36.140957,-5.8831544,-3.8366296,-11.157579
1.652,54.32697,62.568382,35.375885,-5.6654696,-3.061974,-11.117048
1.654,54.317795,61.331093,34.383442,-5.546595,-2.4152954,-11.075073
1.656,54.25626,60.008205,33.221848,-5.534651,-1.9065745,-11.040069
1.658,54.1327,58.62181,31.943686,-5.6341977,-1.5439217,-11.019543
1.66,53.948006,57.187424,30.60032,-5.8469133,-1.3329673,-11.018513
1.662,53.702263,55.719124,29.242023,-6.171764,-1.2759786,-11.038748
1.664,53.397217,54.228935,27.916573,-6.6045628,-1.3713524,-11.079525
1.666,53.028122,52.734276,26.663061,-7.138451,-1.6152334,-11.138869
1.668,52.601036,51.24488,25.521141,-7.7643514,-2.0016756,-11.213063
1.67,52.11781,49.775013,24.527706,-8.471396,-2.52111,-11.295458
1.672,51.575825,48.34139,23.711998,-9.247268,-3.1595287,-11.376451
1.674,50.98046,46.956757,23.095661,-10.078546,-3.8989313,-11.444391
1.676,50.33722,45.633232,22.695541,-10.950939,-4.718133,-11.487045
1.678,49.644344,44.38527,22.522688,-11.849343,-5.593272,-11.493111
1.68,48.897556,43.229946,22.579548,-12.757897,-6.498544,-11.4536085
1.682,48.093903,42.183926,22.861197,-13.660152,-7.407079,-11.36276
1.684,47.23224,41.26076,23.358505,-14.539379,-8.292095,-11.218134
1.686,46.31572,40.47165,24.0649,-15.378981,-9.128084,-11.020414
1.688,45.345406,39.829155,24.968056,-16.16286,-9.891704,-10.772799
1.69,44.31972,39.34408,26.042274,-16.875916,-10.562604,-10.480216
1.692,43.240154,39.022,27.253624,-17.504429,-11.124088,-10.148411
1.694,42.107937,38.86304,28.568947,-18.036533,-11.563374,-9.783142
1.696,40.923508,38.862694,29.95592,-18.462364,-11.8716345,-9.389301
1.698,39.6873,39.01364,31.380344,-18.774406,-12.043711,-8.970318
1.7,38.40195,39.306225,32.80678,-18.96755,-12.077639,-8.52785
1.702,37.0735,39.729088,34.200874,-19.039255,-11.974192,-8.061814
1.704,35.71013,40.27056,35.53103,-18.989576,-11.736388,-7.570631
1.706,34.32146,40.91872,36.76992,-18.821062,-11.368912,-7.0517626
1.708,32.91871,41.660614,37.893726,-18.538708,-10.877799,-6.502456
1.71,31.515455,42.48088,38.881718,-18.14972,-10.270229,-5.9206057
1.712,30.12548,43.363068,39.716156,-17.66327,-9.554432,-5.3054633
1.714,28.76265,44.28994,40.382095,-17.090162,-8.73955,-4.6580353
1.716,27.441992,45.244305,40.867233,-16.442497,-7.8355007,-3.981238
1.718,26.178299,46.209915,41.163128,-15.733331,-6.8528824,-3.279758
1.72,24.986387,47.171505,41.264793,-14.976256,-5.8027496,-2.5598488
1.722,23.880173,48.11568,41.16976,-14.18504,-4.6964817,-1.8289934
1.724,22.872349,49.03067,40.878098,-13.373238,-3.545642,-1.0954496
1.726,21.973856,49.906586,40.391933,-12.553813,-2.3618743,-0.36775827
1.728,21.19313,50.734623,39.715946,-11.738783,-1.156826,0.34553862
1.73,20.536259,51.507755,38.85627,-10.93899,0.057940334,1.0361829
1.732,20.006634,52.220226,37.82067,-10.1639385,1.2709074,1.6963879
1.734,19.605286,52.867825,36.618027,-9.421723,2.4707325,2.3189442
1.736,19.33096,53.44774,35.25795,-8.718952,3.646246,2.8972473
1.738,19.180058,53.958374,33.75143,-8.060776,4.7866974,3.425344
1.74,19.146595,54.399174,32.110435,-7.450867,5.881973,3.8980927
1.742,19.222408,54.770664,30.347881,-6.891568,6.9227057,4.3112736
1.744,19.397936,55.074696,28.477026,-6.384061,7.900392,4.661565
1.746,19.662025,55.313892,26.511608,-5.928482,8.807526,4.9466066
1.748,20.00231,55.49196,24.465282,-5.524092,9.63777,5.1650376
1.75,20.40562,55.612843,22.35158,-5.169451,10.386032,5.316446
1.752,20.858343,55.680798,20.183823,-4.86266,11.048436,5.4013605
1.754,21.346298,55.69961,17.975145,-4.6015816,11.622233,5.4211364
1.756,21.855946,55.67257,15.737824,-4.3839827,12.105802,5.3778462
1.758,22.374176,55.602077,13.48385,-4.2076564,12.498502,5.2741213
1.76,22.88912,55.489788,11.22473,-4.0705037,12.800546,5.1131697
1.762,23.388735,55.33705,8.971255,-3.970568,13.012763,4.8987513
1.764,23.861237,55.144707,6.734445,-3.9060392,13.136423,4.6351357
1.766,24.296602,54.913017,4.5255747,-3.875229,13.173111,4.327031
1.768,24.686605,54.64127,2.3557491,-3.876504,13.124655,3.979523
1.77,25.024305,54.328686,0.23614979,-3.9082642,12.993094,3.597947
1.772,25.304031,53.97441,-1.8226738,-3.9688458,12.780801,3.1878228
1.774,25.521591,53.57754,-3.8109941,-4.056457,12.49055,2.7547946
1.776,25.674465,53.13749,-5.72003,-4.169115,12.125738,2.304487
1.778,25.761889,52.653645,-7.5417404,-4.304606,11.6905365,1.8423494
1.78,25.784,52.125435,-9.268179,-4.4605236,11.189914,1.3735362
1.782,25.742218,51.552544,-10.892338,-4.634271,10.629734,0.9028915
1.784,25.638718,50.934803,-12.408251,-4.823055,10.01679,0.43490267
1.786,25.476303,50.272774,-13.811275,-5.023923,9.35873,-0.026279867
1.788,25.258446,49.56707,-15.097965,-5.2338276,8.663891,-0.4768197
1.79,24.989132,48.81874,-16.265972,-5.449663,7.9411373,-0.91319364
1.792,24.67231,48.029392,-17.314281,-5.6683445,7.19964,-1.3321893
1.794,24.312513,47.20108,-18.24349,-5.886862,6.44864,-1.7309275
1.796,23.91449,46.336098,-19.05554,-6.1023107,5.6972384,-2.1068664
1.798,23.482555,45.437252,-19.75407,-6.311891,4.954272,-2.4577675
1.8,23.02149,44.507744,-20.343327,-6.512997,4.228082,-2.7818434
1.802,22.535564,43.551025,-20.828827,-6.7032614,3.5262244,-3.077846
1.804,22.028927,42.571316,-21.217033,-6.8806357,2.8552823,-3.345102
1.806,21.505241,41.57284,-21.51526,-7.043378,2.220802,-3.583499
1.808,20.96798,40.559715,-21.731443,-7.190036,1.6273206,-3.7933915
1.81,20.420486,39.5361,-21.873653,-7.3194704,1.0782665,-3.9755363
1.812,19.865452,38.50631,-21.95045,-7.4308825,0.5759735,-4.130989
1.814,19.30521,37.474503,-21.969954,-7.5237565,0.12167221,-4.261065
1.816,18.741966,36.444817,-21.94013,-7.5978403,-0.28439188,-4.3672757
1.818,18.177555,35.42091,-21.8686,-7.6531086,-0.64285684,-4.4512362
1.82,17.613323,34.40675,-21.76279,-7.689736,-0.9551329,-4.51462
1.822,17.050688,33.405617,-21.629257,-7.708029,-1.2232924,-4.559146
1.824,16.49115,32.420578,-21.473608,-7.7084475,-1.4499261,-4.5865984
1.826,15.936092,31.454357,-21.300587,-7.6915593,-1.6380845,-4.59877
1.828,15.386885,30.50933,-21.114563,-7.658082,-1.7911909,-4.5974894
1.83,14.845251,29.587502,-20.91922,-7.6088557,-1.9129342,-4.5845666
1.832,14.31234,28.690453,-20.717537,-7.5448413,-2.0071492,-4.5617466
1.834,13.789966,27.819248,-20.511808,-7.467044,-2.0776277,-4.5306573
1.836,13.279957,26.974337,-20.303663,-7.376489,-2.1280844,-4.4927325
1.838,12.7839575,26.156229,-20.094677,-7.274194,-2.1620376,-4.4492044
1.84,12.303636,25.365265,-19.885466,-7.161049,-2.1826644,-4.4010596
1.842,11.840759,24.601685,-19.676647,-7.037796,-2.1927016,-4.349057
1.844,11.397032,23.865269,-19.468613,-6.904969,-2.1943936,-4.2937317
1.846,10.974056,23.155727,-19.261536,-6.762846,-2.1894317,-4.2354126
1.848,10.573472,22.47248,-19.055773,-6.611423,-2.1789482,-4.17424
1.85,10.196852,21.814743,-18.851906,-6.450466,-2.1635108,-4.1102366
1.852,9.845703,21.18149,-18.65071,-6.279564,-2.1432314,-4.04335
1.854,9.521026,20.571493,-18.452627,-6.0981812,-2.1177845,-3.9735007
1.856,9.2236595,19.983429,-18.258524,-5.9057894,-2.0865812,-3.9006145
1.858,8.95426,19.415754,-18.068922,-5.7019286,-2.048924,-3.8246913
1.86,8.713197,18.866898,-17.88426,-5.486345,-2.004146,-3.745874
1.862,8.500397,18.335274,-17.705334,-5.259027,-1.9517496,-3.664441
1.864,8.315628,17.819412,-17.532753,-5.020296,-1.8915031,-3.5808077
1.866,8.158068,17.318,-17.366663,-4.770829,-1.82359,-3.4955
1.868,8.026992,16.829697,-17.207111,-4.5116463,-1.7486318,-3.4090853
1.87,7.9207807,16.353539,-17.05387,-4.2440615,-1.667639,-3.3220787
1.872,7.8384447,15.888547,-16.906282,-3.969604,-1.5819651,-3.2349303
1.874,7.778184,15.434158,-16.763544,-3.6899416,-1.4932703,-3.1479518
1.876,7.738062,14.989888,-16.624672,-3.4068213,-1.4034195,-3.0612917
1.878,7.716234,14.555316,-16.488111,-3.1219373,-1.3143667,-2.974938
1.88,7.710589,14.130288,-16.352207,-2.8369017,-1.2279897,-2.888775
1.882,7.7190285,13.714836,-16.214962,-2.5531688,-1.1460435,-2.8025908
1.884,7.739179,13.309284,-16.074078,-2.2720299,-1.0700659,-2.7161226
1.886,7.7691603,12.914106,-15.927053,-1.9946089,-1.001366,-2.629128
1.888,7.80679,12.529893,-15.771056,-1.721846,-0.94098973,-2.5414243
1.89,7.850199,12.157429,-15.603575,-1.4545099,-0.8897208,-2.452919
1.892,7.897605,11.7976675,-15.422054,-1.193181,-0.8480647,-2.363583
1.894,7.9474897,11.45158,-15.224226,-0.93826467,-0.8162446,-2.273464
1.896,7.9987125,11.12005,-15.008165,-0.6899494,-0.7941836,-2.1826415
1.898,8.050057,10.803999,-14.772055,-0.44822195,-0.78150356,-2.0911887
1.9,8.100828,10.504317,-14.514686,-0.21288173,-0.7775707,-1.9991701
1.902,8.150475,10.221644,-14.234868,0.016435653,-0.7815164,-1.9066306
1.904,8.19868,9.956544,-13.932007,0.24027787,-0.7922351,-1.8135414
1.906,8.24531,9.709544,-13.6059675,0.4593246,-0.8084298,-1.7198447
1.908,8.290356,9.480892,-13.25683,0.6743278,-0.82869494,-1.6254315
1.91,8.333807,9.270658,-12.885397,0.8860861,-0.8515485,-1.5301512
1.912,8.37605,9.078796,-12.492778,1.0953467,-0.8755286,-1.4338908
1.914,8.417257,8.904892,-12.080304,1.3027524,-0.8992976,-1.3366402
1.916,8.458078,8.748535,-11.6497345,1.5087897,-0.921688,-1.2385437
1.918,8.498993,8.6091795,-11.202952,1.7137864,-0.9417342,-1.1399121
1.92,8.540529,8.486069,-10.741978,1.9179032,-0.9586851,-1.0412042
1.922,8.583149,8.378291,-10.268944,2.1211038,-0.9720398,-0.94305205
1.924,8.6276455,8.2849655,-9.786127,2.3232002,-0.98159516,-0.8462082
1.926,8.674344,8.20509,-9.295933,2.5238438,-0.9874085,-0.75148475
1.928,8.72379,8.137662,-8.80064,2.7225673,-0.9896891,-0.65971875
1.93,8.776442,8.081649,-8.302424,2.9188328,-0.98876655,-0.57167614
1.932,8.83268,8.036034,-7.8033957,3.1120706,-0.9850553,-0.48795596
1.934,8.892931,7.9998446,-7.3056607,3.301733,-0.9789921,-0.40893006
1.936,8.957361,7.972147,-6.8112593,3.4873595,-0.97096646,-0.33469036
1.938,9.026333,7.952199,-6.3221884,3.6686082,-0.9613248,-0.26502594
1.94,9.10004,7.9393387,-5.840096,3.8453033,-0.95031714,-0.19941202
1.942,9.178585,7.932982,-5.3665943,4.0174103,-0.9381505,-0.13706884
1.944,9.262117,7.932846,-4.902963,4.1850686,-0.92496735,-0.07704347
1.946,9.350538,7.9387336,-4.4503746,4.348549,-0.91088724,-0.018283188
1.948,9.44412,7.950483,-4.009792,4.5082307,-0.8960252,0.040266037
1.95,9.542807,7.9679613,-3.582058,4.6645412,-0.8805023,0.09954631
1.952,9.646315,7.9913206,-3.1676464,4.8179345,-0.8644823,0.16032553
1.954,9.754756,8.020762,-2.7669053,4.968818,-0.84816337,0.22315568
1.956,9.86798,8.056496,-2.379951,5.117546,-0.83180124,0.2883587
1.958,9.985809,8.098994,-2.006939,5.2643595,-0.8157122,0.35601896
1.96,10.108044,8.148581,-1.6476612,5.4093857,-0.8002827,0.426041
1.962,10.234472,8.205735,-1.3017602,5.552658,-0.7859357,0.4981585
1.964,10.364727,8.270912,-0.96875286,5.694072,-0.77314377,0.57197857
1.966,10.4986515,8.344616,-0.6479473,5.8334465,-0.76238084,0.6470649
1.968,10.63591,8.427116,-0.3385992,5.970509,-0.7541438,0.722988
1.97,10.776083,8.51874,-0.039850235,6.104925,-0.7489178,0.7993222
1.972,10.919052,8.619865,0.24927998,6.2363276,-0.74715424,0.87568355
1.974,11.064425,8.730589,0.52985525,6.364338,-0.74926615,0.9517188
1.976,11.211901,8.851094,0.8030429,6.488597,-0.7556007,1.027144
1.978,11.360935,8.981671,1.0699029,6.6087837,-0.7664262,1.1017513
1.98,11.511578,9.12219,1.3315825,6.724648,-0.7819153,1.1754057
1.982,11.663092,9.272705,1.5890927,6.836041,-0.80218494,1.2480445
1.984,11.815321,9.433156,1.8435864,6.9428654,-0.8272589,1.3196554
1.986,11.968213,9.603505,2.0959864,7.0451436,-0.8571162,1.3902538
1.988,12.121178,9.783804,2.3471637,7.142951,-0.89168084,1.4598684
1.99,12.274139,9.974018,2.5979748,7.2364182,-0.93082356,1.5285294
1.992,12.426768,10.17396,2.8490524,7.3257303,-0.97435975,1.596258
1.994,12.578902,10.383382,3.1009898,7.411084,-1.0220659,1.6630788
1.996,12.730424,10.602124,3.3542795,7.4926934,-1.0736587,1.7290001
1.998,12.881121,10.829969,3.6091218,7.5707545,-1.1288173,1.794054
2,13.030845,11.06687,3.8659935,7.6454444,-1.187156,1.8582509
2.002,13.179396,11.312457,4.124926,7.716917,-1.2482433,1.9216057
2.004,13.326623,11.566451,4.385891,7.7852826,-1.3116155,1.9841582
2.006,13.472235,11.828566,4.6488504,7.85064,-1.3768017,2.0459793
2.008,13.61615,12.0983095,4.9134345,7.9130564,-1.4432982,2.1071422
2.01,13.758018,12.37536,5.179509,7.97258,-1.5105971,2.1677067
2.012,13.897881,12.659276,5.4467278,8.029254,-1.5782139,2.227741
2.014,14.035325,12.9495945,5.714774,8.083117,-1.6456679,2.2873137
2.016,14.170234,13.245756,5.983202,8.134203,-1.7125204,2.3464642
2.018,14.302166,13.547184,6.2517314,8.182574,-1.7783533,2.4052072
2.02,14.431084,13.853334,6.519908,8.228267,-1.8428297,2.463512
2.022,14.556614,14.163572,6.787421,8.271334,-1.9056435,2.5213168
2.024,14.678456,14.477266,7.0539827,8.311837,-1.9665693,2.5785336
2.026,14.796574,14.793562,7.319254,8.349826,-2.0254593,2.63507
2.028,14.910483,15.11188,7.583026,8.385308,-2.0822625,2.6908257
2.03,15.019814,15.43135,7.845054,8.418283,-2.13701,2.745709
2.032,15.124309,15.751232,8.105377,8.44869,-2.1897616,2.7996757
2.034,15.223578,16.070831,8.363969,8.476451,-2.2406456,2.8527133
2.036,15.317388,16.389349,8.620981,8.501458,-2.289799,2.9048667
2.038,15.405426,16.706072,8.876716,8.523578,-2.3373637,2.956205
2.04,15.487261,17.020153,9.131228,8.542656,-2.3834887,3.0068216
2.042,15.562645,17.33081,9.3849125,8.558537,-2.4282646,3.0568151
2.044,15.631171,17.63723,9.638116,8.571085,-2.471769,3.106264
2.046,15.692603,17.938635,9.8912735,8.580168,-2.514052,3.155225
2.048,15.746698,18.234072,10.144894,8.585708,-2.5551078,3.2036955
2.05,15.793133,18.522642,10.399397,8.587644,-2.5948825,3.2516577
2.052,15.831689,18.803413,10.655398,8.585976,-2.633286,3.2990367
2.054,15.861991,19.07543,10.913307,8.580756,-2.6701796,3.3457184
2.056,15.883846,19.337757,11.17372,8.572064,-2.7053714,3.3915708
2.058,15.896971,19.589336,11.437071,8.560029,-2.7385964,3.4364414
2.06,15.90105,19.829279,11.703817,8.544786,-2.769534,3.480188
2.062,15.895935,20.05637,11.97432,8.526506,-2.7978165,3.5226772
2.064,15.881278,20.26939,12.248885,8.505361,-2.8230386,3.563776
2.066,15.85678,20.467299,12.527751,8.481525,-2.8447573,3.6033645
2.068,15.822321,20.648874,12.811224,8.455174,-2.8625095,3.6413183
2.07,15.777604,20.812977,13.099322,8.426478,-2.8758469,3.6775224
2.072,15.722556,20.958336,13.391933,8.395603,-2.884366,3.7118812
2.074,15.656923,21.08382,13.68905,8.362743,-2.8876655,3.744291
2.076,15.580387,21.188324,13.990373,8.328095,-2.8854034,3.7746356
2.078,15.4931345,21.27083,14.295684,8.291886,-2.8772953,3.802781
2.08,15.394971,21.33033,14.604571,8.25436,-2.86312,3.8285813
2.082,15.2856655,21.365988,14.916605,8.215767,-2.842698,3.851883
2.084,15.165212,21.377245,15.231104,8.176391,-2.8159573,3.8725262
2.086,15.033894,21.36334,15.547283,8.136484,-2.7828999,3.8903284
2.088,14.891854,21.323734,15.86433,8.09624,-2.743602,3.9051397
2.09,14.739267,21.258091,16.181152,8.055817,-2.6982226,3.91678
2.092,14.576334,21.166466,16.49668,8.0153055,-2.6469748,3.9251292
2.094,14.403673,21.048998,16.809679,7.974712,-2.5901258,3.930134
2.096,14.221607,20.906067,17.11903,7.9339614,-2.5279808,3.9317853
2.098,14.030952,20.738243,17.423159,7.89289,-2.4608393,3.9301207
2.1,13.832364,20.54629,17.720638,7.8512955,-2.3889947,3.9252417
2.102,13.626999,20.331186,18.009937,7.8089185,-2.312699,3.9172897
2.104,13.415806,20.094284,18.289288,7.765508,-2.232156,3.9064417
2.106,13.199788,19.836918,18.556864,7.720826,-2.1474862,3.892868
2.108,12.980627,19.560677,18.810799,7.674659,-2.058726,3.8767676
2.11,12.759821,19.267231,19.04905,7.626862,-1.9658842,3.8583207
2.112,12.538969,18.958542,19.269808,7.577368,-1.868937,3.8376806
2.114,12.319805,18.636726,19.471178,7.5261493,-1.7678307,3.8149405
2.116,12.104205,18.3038,19.651157,7.4732375,-1.6625769,3.7901733
2.118,11.894098,17.962132,19.80794,7.418689,-1.5532494,3.7634492
2.12,11.691675,17.613876,19.939655,7.3625455,-1.4400432,3.7348337
2.122,11.498882,17.261482,20.04443,7.3048306,-1.3233114,3.7043455
2.124,11.317754,16.90725,20.120762,7.2455096,-1.2035677,3.671977
2.126,11.1501465,16.553703,20.16731,7.1844845,-1.0814675,3.6376843
2.128,10.998368,16.20296,20.183012,7.121562,-0.95787764,3.6013868
2.13,10.864004,15.85747,20.167053,7.056462,-0.8338218,3.562989
2.132,10.748893,15.519324,20.118977,6.988804,-0.7104533,3.5223713
2.134,10.654558,15.190672,20.038614,6.91816,-0.5890405,3.4794302
2.136,10.582077,14.873554,19.926168,6.8440537,-0.4709407,3.434081
2.138,10.532846,14.569702,19.782314,6.7659574,-0.3575549,3.3862734
2.14,10.507795,14.281027,19.607828,6.683376,-0.25029254,3.335999
2.142,10.507619,14.0089655,19.403957,6.5958524,-0.15055013,3.2832704
2.144,10.532522,13.754955,19.172325,6.502976,-0.059668303,3.2281404
2.146,10.582714,13.520172,18.914825,6.404425,0.021098852,3.1706285
2.148,10.657983,13.305642,18.633644,6.299976,0.09062421,3.1107078
2.15,10.758141,13.112205,18.331362,6.1895146,0.14790368,3.0483437
2.152,10.882267,12.940494,18.010532,6.0730467,0.19210339,2.9834661
2.154,11.029688,12.790913,17.673985,5.9506555,0.22257483,2.91597
2.156,11.199467,12.663564,17.324492,5.822522,0.23885024,2.8457367
2.158,11.390462,12.558291,16.964808,5.6889215,0.2406584,2.7726612
2.16,11.601414,12.475036,16.597694,5.550164,0.22787559,2.6966648
2.162,11.83096,12.413132,16.225718,5.406623,0.20052874,2.617673
2.164,12.077631,12.37195,15.851547,5.258679,0.15881705,2.5356321
2.166,12.339937,12.350523,15.477453,5.106719,0.10303748,2.4505117
2.168,12.616505,12.347926,15.105586,4.9511356,0.033555865,2.3622985
2.17,12.905789,12.362769,14.737843,4.7922893,-0.049165845,2.270968
2.172,13.2063265,12.393793,14.376,4.630537,-0.14462304,2.1764607
2.174,13.516484,12.439689,14.02156,4.466227,-0.25226653,2.078689
2.176,13.834916,12.498834,13.675516,4.2996745,-0.37152857,1.9775741
2.178,14.160227,12.569495,13.338833,4.131192,-0.50184184,1.873064
2.18,14.4911585,12.649988,13.012105,3.9610689,-0.64265877,1.7651159
2.182,14.826221,12.738501,12.695986,3.7895877,-0.7934614,1.6536896
2.184,15.164387,12.833259,12.390632,3.6170135,-0.95379776,1.5387667
2.186,15.504344,12.932467,12.096184,3.443577,-1.1233019,1.4203382
2.188,15.844981,13.034482,11.812662,3.2694843,-1.3017063,1.2983928
2.19,16.185366,13.1378,11.539766,3.0948973,-1.4888414,1.172934
2.192,16.52449,13.240895,11.277496,2.9199395,-1.6846311,1.0439981
2.194,16.861515,13.342522,11.025709,2.7446935,-1.8891128,0.9116313
2.196,17.195564,13.441631,10.784431,2.569188,-2.1023846,0.7759295
2.198,17.52588,13.537434,10.553732,2.3934221,-2.3246088,0.63702476
2.2,17.85145,13.629248,10.333847,2.217371,-2.5559683,0.49513173
2.202,18.171896,13.71639,10.125101,2.041016,-2.7966394,0.35054052
2.204,18.486364,13.798224,9.927807,1.864322,-3.0467486,0.20360756
2.206,18.794333,13.874492,9.742208,1.6872531,-3.3063378,0.054694653
2.208,19.095196,13.945,9.569071,1.5098109,-3.575368,-0.09576297
2.21,19.388311,14.009769,9.408949,1.3320147,-3.853686,-0.24730837
2.212,19.673073,14.068911,9.262522,1.1538982,-4.1409845,-0.39951766
2.214,19.949245,14.12252,9.130669,0.9755259,-4.4367776,-0.55202234
2.216,20.216345,14.170979,9.014183,0.7969662,-4.7403836,-0.7045485
2.218,20.473808,14.214594,8.913923,0.6182924,-5.050941,-0.8569665
2.22,20.721283,14.25386,8.830612,0.439574,-5.367391,-1.0092957
2.222,20.958355,14.289261,8.765194,0.26089174,-5.6884623,-1.1617148
2.224,21.18473,14.321114,8.718303,0.08234662,-6.0126934,-1.3145425
2.226,21.400276,14.349873,8.69072,-0.09592271,-6.338463,-1.468157
2.228,21.604603,14.376064,8.682692,-0.2737354,-6.6640224,-1.6229587
2.23,21.797634,14.399981,8.694796,-0.45079696,-6.987527,-1.7792541
2.232,21.979362,14.4220085,8.727205,-0.6266972,-7.3070965,-1.9372027
2.234,22.14981,14.442524,8.7798,-0.80086046,-7.62087,-2.0967019
2.236,22.309248,14.461771,8.852173,-0.97254634,-7.9270806,-2.25734
2.238,22.457682,14.4802265,8.943539,-1.1407704,-8.224122,-2.4183826
2.24,22.595367,14.497999,9.05299,-1.3043759,-8.5106,-2.5787861
2.242,22.722784,14.515376,9.179147,-1.4620111,-8.785373,-2.7372568
2.244,22.8405,14.532578,9.320451,-1.6122026,-9.047581,-2.8923094
2.246,22.948893,14.549772,9.475067,-1.7534167,-9.29665,-3.0423646
2.248,23.048689,14.567021,9.64081,-1.8841456,-9.532288,-3.1858125
2.25,23.14043,14.58444,9.815381,-2.0029805,-9.754453,-3.3211231
2.252,23.224873,14.602134,9.996206,-2.1087282,-9.963324,-3.4468877
2.254,23.303003,14.619911,10.180563,-2.200479,-10.159264,-3.5618858
2.256,23.375387,14.638043,10.365714,-2.2776897,-10.342808,-3.665119
2.258,23.442911,14.656304,10.548823,-2.34018,-10.514617,-3.755854
2.26,23.506235,14.67475,10.727169,-2.3881416,-10.675466,-3.8335714
2.262,23.566223,14.693218,10.898167,-2.4221463,-10.826146,-3.8981237
2.264,23.6234,14.711712,11.059291,-2.4430203,-10.967448,-3.9496326
2.266,23.678278,14.730213,11.208442,-2.451805,-11.100166,-3.9884882
2.268,23.731405,14.748611,11.343718,-2.4496374,-11.225008,-4.015332
2.27,23.783098,14.766499,11.463649,-2.4376578,-11.342568,-4.031032
2.272,23.833664,14.783793,11.566877,-2.4169357,-11.453225,-4.0366287
2.274,23.883183,14.800243,11.65243,-2.3884046,-11.557201,-4.0332875
2.276,23.931538,14.815575,11.719736,-2.3528357,-11.654498,-4.0222397
2.278,23.978512,14.8295,11.768502,-2.3108048,-11.744895,-4.0047226
2.28,24.023968,14.8419,11.798774,-2.262703,-11.827967,-3.9819412
2.282,24.067327,14.85243,11.810802,-2.2087295,-11.903105,-3.9550254
2.284,24.108238,14.860919,11.804934,-2.148984,-11.969555,-3.9250472
2.286,24.145905,14.867302,11.781892,-2.083443,-12.026408,-3.8929617
2.288,24.179512,14.871413,11.742316,-2.0120094,-12.07267,-3.8596697
2.29,24.208477,14.873281,11.687103,-1.9345616,-12.107273,-3.8259554
2.292,24.231926,14.872868,11.617047,-1.8510096,-12.129116,-3.7925305
2.294,24.249016,14.870115,11.533245,-1.7612579,-12.137163,-3.7600257
2.296,24.25912,14.864945,11.436749,-1.6652863,-12.130463,-3.7289872
2.298,24.261242,14.857257,11.328636,-1.5631142,-12.108147,-3.6998444
2.3,24.254772,14.846941,11.209926,-1.4548466,-12.069584,-3.672936
2.302,24.23903,14.8341055,11.081458,-1.3406532,-12.014309,-3.648458
2.304,24.21347,14.818685,10.9441805,-1.2207875,-11.942113,-3.6265106
2.306,24.177635,14.800833,10.798941,-1.0955753,-11.853014,-3.6070917
2.308,24.131208,14.780654,10.646524,-0.9653747,-11.747275,-3.5901256
2.31,24.074364,14.758242,10.487698,-0.8305936,-11.625378,-3.57546
2.312,24.006905,14.733781,10.323378,-0.6916678,-11.487973,-3.5628667
2.314,23.928837,14.707799,10.154276,-0.5490203,-11.335825,-3.5520535
2.316,23.840504,14.6804905,9.981385,-0.40304542,-11.169778,-3.5426564
2.318,23.742285,14.6522255,9.805528,-0.25415158,-10.990765,-3.5342574
2.32,23.634748,14.623105,9.627691,-0.10270262,-10.799674,-3.5263555
2.322,23.518398,14.593517,9.448868,0.05094433,-10.597412,-3.5183864
2.324,23.394003,14.56378,9.269854,0.20641518,-10.384884,-3.509725
2.326,23.262318,14.534134,9.091614,0.3633368,-10.162996,-3.499722
2.328,23.124216,14.504795,8.914925,0.5212922,-9.93265,-3.487735
2.33,22.980621,14.475872,8.74071,0.67981243,-9.694828,-3.4732025
2.332,22.832523,14.447424,8.569575,0.83837295,-9.450617,-3.4556985
2.334,22.680868,14.419551,8.4022455,0.9964137,-9.201229,-3.434987
2.336,22.52637,14.392502,8.239203,1.1533432,-8.948023,-3.4110243
2.338,22.37003,14.366144,8.081038,1.3086023,-8.692459,-3.3839533
2.34,22.212742,14.34062,7.9278283,1.4616342,-8.436126,-3.3541062
2.342,22.055286,14.315861,7.7798862,1.6119266,-8.180644,-3.321896
2.344,21.89848,14.291895,7.6373086,1.7590396,-7.927599,-3.287778
2.346,21.743008,14.268606,7.5002255,1.90259,-7.678527,-3.2521687
2.348,21.589577,14.245932,7.36845,2.0422628,-7.4348044,-3.2153769
2.35,21.438808,14.223728,7.241636,2.1778033,-7.1976185,-3.1775875
2.352,21.291039,14.20203,7.1194158,2.3089998,-6.9679766,-3.1388566
2.354,21.14671,14.180796,7.0012856,2.4356637,-6.7466516,-3.0991116
2.356,21.00625,14.159971,6.886645,2.5576253,-6.534226,-3.0581865
2.358,20.869694,14.139659,6.7748504,2.6747646,-6.3311043,-3.015884
2.36,20.737274,14.119776,6.665243,2.7869806,-6.137558,-2.9719985
2.362,20.609022,14.100386,6.557108,2.8942146,-5.9537616,-2.9263926
2.364,20.48473,14.0816345,6.4497366,2.996461,-5.7798204,-2.879021
2.366,20.364384,14.063435,6.3424435,3.0937722,-5.615806,-2.8299375
2.368,20.247902,14.045898,6.2346015,3.1862173,-5.4617834,-2.779295
2.37,20.134874,14.028993,6.125867,3.2738986,-5.317827,-2.7273586
2.372,20.025131,14.012724,6.0157766,3.356942,-5.184004,-2.6744652
2.374,19.918266,13.9970455,5.9041514,3.4354825,-5.0604,-2.6210134
2.376,19.81395,13.981847,5.79088,3.5096378,-4.9470882,-2.5674138
2.378,19.711866,13.966991,5.676054,3.579503,-4.844137,-2.51408
2.38,19.611729,13.952454,5.559847,3.645143,-4.7516084,-2.4613957
2.382,19.513077,13.938081,5.442838,3.7066045,-4.6695557,-2.4097123
2.384,19.415781,13.9235,5.3256936,3.7638779,-4.5980062,-2.3593059
2.386,19.319542,13.90848,5.209238,3.816922,-4.5369463,-2.3103867
2.388,19.224167,13.892573,5.0944552,3.8656526,-4.486319,-2.2630842
2.39,19.129436,13.875307,4.9824786,3.909956,-4.4460154,-2.217476
2.392,19.035332,13.856285,4.874437,3.949685,-4.4158826,-2.173595
2.394,18.941628,13.834975,4.7716265,3.9846783,-4.395691,-2.13143
2.396,18.848433,13.810832,4.675367,4.014776,-4.385144,-2.090956
2.398,18.755764,13.7834,4.587004,4.0398493,-4.383861,-2.052143
2.4,18.663418,13.7522335,4.507566,4.059774,-4.3913627,-2.0149477
2.402,18.571651,13.716888,4.4380765,4.0744896,-4.407107,-1.9793444
2.404,18.480469,13.6769085,4.3794227,4.084001,-4.4304686,-1.9453008
2.406,18.39001,13.631995,4.332327,4.0883904,-4.460732,-1.9127986
2.408,18.300297,13.5818615,4.297342,4.0878534,-4.4971104,-1.8818408
2.41,18.211452,13.526148,4.2749615,4.0826817,-4.538724,-1.8524207
2.412,18.12341,13.464539,4.2655134,4.0732374,-4.5846686,-1.8245342
2.414,18.036222,13.39679,4.269096,4.059973,-4.634002,-1.7982149
2.416,17.949951,13.322565,4.2855806,4.0434093,-4.6857443,-1.7734998
2.418,17.864502,13.241689,4.314722,4.0241094,-4.7389007,-1.7504214
2.42,17.779741,13.154051,4.3562937,4.00265,-4.7925014,-1.7290388
2.422,17.695621,13.059555,4.409614,3.9796352,-4.8456287,-1.7094026
2.424,17.611958,12.958152,4.47429,3.9556255,-4.8974223,-1.691538
2.426,17.52854,12.849786,4.5495996,3.9311552,-4.9470944,-1.675487
2.428,17.445328,12.734576,4.634741,3.9066923,-4.9939613,-1.6612724
2.43,17.36221,12.612705,4.728696,3.8826485,-5.037468,-1.6489052
2.432,17.278994,12.484344,4.8306713,3.8593793,-5.0771637,-1.6383979
2.434,17.195625,12.349574,4.939756,3.8371565,-5.1126833,-1.6297376
2.436,17.112091,12.208767,5.0548267,3.8162088,-5.143727,-1.6228949
2.438,17.028418,12.062224,5.1750793,3.7967176,-5.170042,-1.6178001
2.44,16.944567,11.910403,5.299362,3.7788153,-5.191412,-1.6143597
2.442,16.860706,11.753699,5.426752,3.7625964,-5.207633,-1.6124332
2.444,16.77692,11.592487,5.556179,3.7481382,-5.2184873,-1.611834
2.446,16.693363,11.427281,5.6867886,3.7355278,-5.2237377,-1.612324
2.448,16.610369,11.258517,5.8176756,3.7248416,-5.2231503,-1.6136353
2.45,16.527996,11.086716,5.9478846,3.7161415,-5.2164803,-1.6154815
2.452,16.44646,10.912423,6.0765533,3.7094798,-5.203518,-1.6175711
2.454,16.366045,10.736114,6.202734,3.704934,-5.1840744,-1.6196108
2.456,16.286823,10.558369,6.3255196,3.7025461,-5.1580153,-1.621318
2.458,16.209087,10.379813,6.4440365,3.702365,-5.1252418,-1.6224562
2.46,16.13303,10.200912,6.557481,3.7044137,-5.085744,-1.6228199
2.462,16.05889,10.022226,6.6650515,3.7086856,-5.0395546,-1.6222167
2.464,15.986689,9.8441305,6.7659254,3.7151432,-4.9867835,-1.6204747
2.466,15.916545,9.667047,6.859291,3.7237282,-4.927559,-1.617431
2.468,15.848522,9.491317,6.9444566,3.7343411,-4.862055,-1.6129324
2.47,15.78257,9.317291,7.02102,3.74687,-4.7904797,-1.6068289
2.472,15.718534,9.14523,7.088213,3.7611713,-4.713112,-1.5990037
2.474,15.656433,8.975346,7.1456184,3.7770762,-4.6302743,-1.5893486
2.476,15.596233,8.807737,7.1928296,3.794394,-4.542283,-1.577798
2.478,15.537441,8.642586,7.229455,3.8129303,-4.449519,-1.5643252
2.48,15.480083,8.479895,7.255266,3.8324819,-4.352414,-1.5489465
2.482,15.423933,8.319603,7.270164,3.8528206,-4.251466,-1.5317289
2.484,15.368857,8.161577,7.2740693,3.8737128,-4.147235,-1.5128101
2.486,15.314536,8.005752,7.266924,3.8948827,-4.040372,-1.4923702
2.488,15.260719,7.8519883,7.249036,3.9160278,-3.9316065,-1.47065
2.49,15.207306,7.7000265,7.2205915,3.9368253,-3.8217506,-1.4479082
2.492,15.154178,7.5495834,7.1819487,3.9569294,-3.7116864,-1.4244213
2.494,15.101082,7.400532,7.1335635,3.9759552,-3.6023555,-1.4004431
2.496,15.048052,7.2524786,7.0760612,3.9935384,-3.4947014,-1.3762002
2.498,14.994844,7.105302,7.0100403,4.009309,-3.3896801,-1.3518735
2.5,14.941443,6.9587293,6.9362593,4.022913,-3.2881885,-1.3275825
2.502,14.887881,6.8125453,6.855526,4.034047,-3.1910431,-1.3033848
2.504,14.834089,6.666525,6.7686443,4.042464,-3.0989745,-1.2792808
2.506,14.780102,6.520442,6.6764255,4.047952,-3.0126143,-1.2552434
2.508,14.725851,6.3743105,6.5797014,4.050346,-2.9325004,-1.2312274
2.51,14.671531,6.227811,6.4794803,4.0495133,-2.8590856,-1.2071906
2.512,14.61705,6.08083,6.3766723,4.045345,-2.7927628,-1.1831057
2.514,14.56246,5.9333334,6.2719946,4.037761,-2.7338438,-1.1589639
2.516,14.507655,5.7852592,6.166433,4.026705,-2.6825876,-1.1348019
2.518,14.452723,5.636442,6.0608044,4.0121107,-2.63919,-1.1106968
2.52,14.397611,5.4870133,5.9559493,3.9939365,-2.603783,-1.0867317
2.522,14.34244,5.3367963,5.852448,3.972153,-2.5764298,-1.0630143
2.524,14.287122,5.185827,5.751127,3.9467375,-2.5571256,-1.0396672
2.526,14.231404,5.0340934,5.652576,3.9176998,-2.5457492,-1.0168002
2.528,14.175364,4.88153,5.5574174,3.8850822,-2.5421026,-0.99451476
2.53,14.118791,4.728261,5.466035,3.8489664,-2.545936,-0.97290087
2.532,14.061525,4.5742073,5.379071,3.809455,-2.556929,-0.9520141
2.534,14.003494,4.419264,5.2968435,3.766675,-2.574688,-0.93190074
2.536,13.944345,4.2635536,5.219736,3.7208056,-2.5987673,-0.9125645
2.538,13.883893,4.106991,5.148148,3.6720514,-2.6286964,-0.89399374
2.54,13.821983,3.9495385,5.082391,3.6206477,-2.6639552,-0.87612617
2.542,13.758525,3.7911737,5.022591,3.5668426,-2.7039795,-0.8588716
2.544,13.693231,3.6319466,4.969026,3.5109131,-2.748176,-0.84210587
2.546,13.625996,3.4717247,4.9217596,3.4531436,-2.7959108,-0.82569695
2.548,13.556766,3.3105674,4.8809476,3.3938434,-2.8465238,-0.80951726
2.55,13.485409,3.1483755,4.8465824,3.3333092,-2.8993516,-0.7934208
2.552,13.412077,2.9852664,4.8183136,3.2718472,-2.9537606,-0.77727354
2.554,13.33667,2.8213477,4.7962713,3.2097588,-3.009155,-0.76099133
2.556,13.259539,2.6564593,4.7801585,3.1473281,-3.0650125,-0.7444922
2.558,13.180551,2.4909186,4.7699475,3.084798,-3.1208827,-0.7277297
2.56,13.099885,2.3245997,4.7653394,3.0223937,-3.1764185,-0.7106819
2.562,13.017974,2.1573713,4.7659125,2.9602928,-3.2313948,-0.6933491
2.564,12.935053,1.9892673,4.77147,2.8986247,-3.2856731,-0.6757511
2.566,12.85133,1.8203192,4.781623,2.8374686,-3.3392072,-0.657905
2.568,12.767096,1.6503685,4.7961254,2.7768455,-3.392044,-0.63984907
2.57,12.682611,1.4795301,4.8146424,2.7167265,-3.444272,-0.62162876
2.572,12.597941,1.3077528,4.8368797,2.6570766,-3.4960222,-0.60328424
2.574,12.513541,1.135009,4.862544,2.5978212,-3.5474281,-0.58486784
2.576,12.429473,0.96126246,4.891382,2.5388966,-3.5986161,-0.5664445
2.578,12.346002,0.78647757,4.9230824,2.4802608,-3.649671,-0.5480926
2.58,12.263145,0.6106641,4.95733,2.421892,-3.7005954,-0.52991664
2.582,12.181134,0.4337957,4.9941993,2.363836,-3.751328,-0.511992
2.584,12.099762,0.25590515,5.0335684,2.3061836,-3.8017626,-0.49438238
2.586,12.018918,0.077044964,5.075366,2.2490761,-3.8517177,-0.47716975
2.588,11.938766,-0.10274172,5.119711,2.192733,-3.9008808,-0.4603839
2.59,11.858792,-0.28323793,5.1665606,2.137442,-3.9488132,-0.44399977
2.592,11.778866,-0.46435928,5.216086,2.0835204,-3.9950337,-0.4278984
2.594,11.698702,-0.6459389,5.2684555,2.0313115,-4.0390444,-0.41189384
2.596,11.617971,-0.8276863,5.323807,1.9811621,-4.080333,-0.395751
2.598,11.53632,-1.0093887,5.382184,1.9333944,-4.1183863,-0.37920403
2.6,11.453346,-1.1907828,5.4437695,1.8883157,-4.1527076,-0.36194706
2.602,11.368716,-1.3714786,5.5086403,1.8461801,-4.182847,-0.34368968
2.604,11.2819605,-1.5512223,5.576788,1.8071961,-4.2084,-0.3241663
2.606,11.192737,-1.7295847,5.6481285,1.7715337,-4.228984,-0.30315208
2.608,11.100663,-1.9062476,5.722759,1.73931,-4.244253,-0.28046322
2.61,11.005402,-2.0808177,5.8004546,1.710617,-4.253876,-0.25595903
2.612,10.906567,-2.2528965,5.881155,1.6855192,-4.2575674,-0.22953367
2.614,10.804125,-2.4220939,5.9646974,1.6640484,-4.2550654,-0.20113754
2.616,10.697712,-2.588183,6.0507855,1.6462066,-4.246139,-0.17072082
2.618,10.587188,-2.750719,6.1391597,1.6319937,-4.230629,-0.13825512
2.62,10.472517,-2.9093623,6.229375,1.621374,-4.208439,-0.10371494
2.622,10.353663,-3.0637727,6.320968,1.6142812,-4.1795554,-0.06706357
2.624,10.230648,-3.2137113,6.4135265,1.6106327,-4.1440682,-0.028264284
2.626,10.103643,-3.3590193,6.506497,1.6102787,-4.102148,0.0127084255
2.628,9.972746,-3.4993753,6.5993495,1.6130604,-4.0540686,0.055869102
2.63,9.838138,-3.6347923,6.6916494,1.6187862,-4.000159,0.10122943
2.632,9.699869,-3.7650285,6.7829814,1.6272426,-3.940816,0.14876151
2.634,9.558212,-3.8900228,6.872787,1.6382126,-3.8765068,0.19843066
2.636,9.413644,-4.009725,6.9607773,1.651459,-3.8076916,0.25014126
2.638,9.266193,-4.124011,7.0464463,1.6667542,-3.7348237,0.30376995
2.64,9.116328,-4.233099,7.129444,1.6838882,-3.6583395,0.3592006
2.642,8.964376,-4.3368683,7.209387,1.7026448,-3.5787134,0.41627133
2.644,8.81068,-4.4354115,7.2859974,1.722813,-3.4963942,0.47479963
2.646,8.655624,-4.5287647,7.358979,1.7442133,-3.4117498,0.5345855
2.648,8.49951,-4.6169662,7.4281325,1.7666838,-3.3250766,0.595454
2.65,8.342512,-4.7000337,7.4933386,1.7900902,-3.2366524,0.65727997
2.652,8.185068,-4.7780704,7.55452,1.8142936,-3.1467242,0.71996903
2.654,8.02723,-4.8510923,7.611665,1.8391666,-3.055505,0.78346145
2.656,7.869278,-4.9191513,7.6648684,1.864597,-2.9631894,0.8477305
2.658,7.711356,-4.9823036,7.7140927,1.8904679,-2.8699503,0.91277003
2.66,7.5538073,-5.0405025,7.759694,1.9166647,-2.7759776,0.9785886
2.662,7.39624,-5.0938745,7.802101,1.9430802,-2.6814582,1.0451972
2.664,7.2390566,-5.1423454,7.841304,1.9695842,-2.5865738,1.112594
2.666,7.0820093,-5.185936,7.877753,1.9960556,-2.4915109,1.1807574
2.668,6.925214,-5.2247686,7.911783,2.022375,-2.3964648,1.2496648
2.67,6.768469,-5.258603,7.9437838,2.0484154,-2.301601,1.3192465
2.672,6.6116285,-5.287382,7.974397,2.074048,-2.2070625,1.3894292
2.674,6.4544854,-5.3109922,8.0040045,2.099164,-2.1129599,1.4601325
2.676,6.296905,-5.329485,8.033259,2.1236615,-2.0193472,1.5312538
2.678,6.1383386,-5.3426876,8.062565,2.1474538,-1.9262329,1.6027203
2.68,5.9787493,-5.35059,8.092536,2.1704688,-1.8335762,1.6744695
2.682,5.817854,-5.3531322,8.123727,2.192659,-1.7412895,1.7464601
2.684,5.6550436,-5.350148,8.156741,2.2139964,-1.6492519,1.8186761
2.686,5.490076,-5.341487,8.192148,2.2344568,-1.5573118,1.8911339
2.688,5.3224587,-5.32707,8.23051,2.254041,-1.4652939,1.9638456
2.69,5.151796,-5.3067875,8.272323,2.2727475,-1.3730255,2.0368469
2.692,4.977724,-5.280494,8.318123,2.2905877,-1.2803402,2.1101897
2.694,4.799946,-5.248166,8.368292,2.3075924,-1.1870885,2.1839259
2.696,4.6182475,-5.2095957,8.423224,2.3237774,-1.093147,2.2581086
2.698,4.432089,-5.164673,8.483195,2.3391645,-0.9983915,2.3327916
2.7,4.2414703,-5.113389,8.548605,2.3537915,-0.90273464,2.4080245
2.702,4.046046,-5.05552,8.619572,2.367684,-0.8061199,2.4838467
2.704,3.8455663,-4.9909744,8.696249,2.380858,-0.70849836,2.5602808
2.706,3.6399257,-4.9197664,8.778765,2.3933363,-0.60982454,2.6373487
2.708,3.4289112,-4.841797,8.867074,2.4051318,-0.5100584,2.7150497
2.71,3.2126408,-4.7570415,8.961107,2.4162397,-0.40914786,2.7933846
2.712,2.9908915,-4.665436,9.060724,2.4266558,-0.3070283,2.872339
2.714,2.7637331,-4.56703,9.165618,2.4363537,-0.20361567,2.9518824
2.716,2.531334,-4.4618444,9.275509,2.4453225,-0.098829865,3.0319943
2.718,2.2940083,-4.3498993,9.389805,2.4535394,0.0074318647,3.1126323
2.72,2.0519562,-4.2314625,9.508128,2.4609523,0.11528659,3.1937547
2.722,1.8054962,-4.106638,9.62965,2.4675322,0.22487628,3.2753222
2.724,1.5552517,-3.975679,9.753683,2.473246,0.33632946,3.3572948
2.726,1.3017402,-3.8388033,9.87942,2.478047,0.44979227,3.4396126
2.728,1.0457559,-3.6964025,10.005753,2.4818954,0.5654172,3.522204
2.73,0.78794074,-3.5488183,10.131706,2.4847896,0.6833557,3.6049902
2.732,0.5293765,-3.3965616,10.256062,2.4867258,0.8037772,3.6878705
2.734,0.2710669,-3.2401783,10.377592,2.4877448,0.9268304,3.7707107
2.736,0.013936758,-3.080134,10.495001,2.4879034,1.0526559,3.8533368
2.738,-0.2406981,-2.917105,10.606991,2.487297,1.1813525,3.9355285
2.74,-0.49184942,-2.75175,10.712219,2.486062,1.3129877,4.0170155
2.742,-0.73816323,-2.584748,10.809549,2.4843545,1.4475754,4.0974736
2.744,-0.97862124,-2.4167905,10.897667,2.4823325,1.5850586,4.1765265
2.746,-1.2123892,-2.2484155,10.975452,2.480143,1.7253244,4.2537775
2.748,-1.4382932,-2.0803459,11.042101,2.4778955,1.8681989,4.3288126
2.75,-1.6555204,-1.9131086,11.096782,2.4756746,2.0134504,4.401245
2.752,-1.8631825,-1.7472804,11.138887,2.473516,2.1608195,4.4707537
2.754,-2.0607197,-1.5831306,11.168068,2.4713993,2.3100405,4.537112
2.756,-2.2475166,-1.4209614,11.184113,2.4692755,2.4608622,4.6002235
2.758,-2.4234285,-1.2608256,11.186965,2.46705,2.6130595,4.6601076
2.76,-2.5880306,-1.1027489,11.176886,2.4646003,2.7664692,4.716938
2.762,-2.7412696,-0.94654465,11.1542015,2.4617894,2.9209874,4.7710266
2.764,-2.8831258,-0.7919922,11.119452,2.4584904,3.076628,4.8228035
2.766,-3.0138097,-0.6386275,11.073326,2.4545774,3.2334988,4.872796
2.768,-3.1337948,-0.48578358,11.01658,2.449944,3.3918056,4.921614
2.77,-3.2435205,-0.33281755,10.95008,2.4444816,3.5518515,4.969883
2.772,-3.343173,-0.17872906,10.874788,2.438116,3.7140002,5.0182486
2.774,-3.4333649,-0.022683144,10.791815,2.4307933,3.878686,5.0673056
2.776,-3.5144722,0.13647509,10.702005,2.4224682,4.0463643,5.117559
2.778,-3.5870478,0.29985046,10.606259,2.4131193,4.2175064,5.1694365
2.78,-3.6515353,0.46853876,10.505495,2.402728,4.392574,5.223255
2.782,-3.7084455,0.64376974,10.400431,2.3912787,4.5719776,5.279192
2.784,-3.7582073,0.8265295,10.291775,2.3787456,4.756069,5.337308
2.786,-3.8009474,1.0179911,10.180055,2.3651307,4.94516,5.397545
2.788,-3.836654,1.2190671,10.065699,2.3504252,5.1395006,5.4597445
2.79,-3.8656049,1.4309735,9.948961,2.334636,5.3392754,5.5236616
2.792,-3.8877425,1.6545193,9.830012,2.3177402,5.5446033,5.5890045
2.794,-3.9030118,1.8906257,9.709024,2.2997208,5.7555184,5.655456
2.796,-3.911244,2.1399665,9.585806,2.280551,5.9719715,5.722675
2.798,-3.9118705,2.4031756,9.460007,2.2602015,6.193821,5.7902985
2.8,-3.9042802,2.6808426,9.331399,2.2386339,6.4207826,5.8579326
2.802,-3.8885312,2.973551,9.199621,2.2157843,6.652446,5.925156
2.804,-3.8639488,3.2819543,9.064097,2.1915739,6.8882446,5.9915037
2.806,-3.829808,3.6062374,8.924304,2.1658912,7.127451,6.0564466
2.808,-3.7854695,3.9466438,8.779692,2.1386077,7.3691792,6.1194024
2.81,-3.730064,4.303196,8.629615,2.109589,7.6124415,6.179758
2.812,-3.6627874,4.6757107,8.47367,2.0786643,7.85611,6.236855
2.814,-3.5831032,5.064144,8.311122,2.045645,8.098977,6.290024
2.816,-3.4902472,5.4681954,8.141317,2.0103223,8.339808,6.3385878
2.818,-3.3835752,5.8876667,7.963531,1.9725211,8.577382,6.3818946
2.82,-3.2626715,6.322172,7.776962,1.9320489,8.810481,6.4192533
2.822,-3.1267362,6.771149,7.5807066,1.8887291,9.037998,6.449977
2.824,-2.9753795,7.234328,7.3739886,1.8424834,9.258974,6.4734807
2.826,-2.808188,7.7111583,7.15573,1.7932836,9.472594,6.4892044
2.828,-2.6250143,8.201198,6.9251204,1.7411299,9.678102,6.496629
2.83,-2.4257727,8.704261,6.6811104,1.6860921,9.874846,6.495318
2.832,-2.2106419,9.219926,6.422843,1.6283398,10.062275,6.484891
2.834,-1.9798993,9.747784,6.1492724,1.5681417,10.239853,6.465064
2.836,-1.7338269,10.287262,5.8595285,1.5057942,10.406945,6.4356585
2.838,-1.4729534,10.837712,5.5527706,1.4416051,10.5627365,6.396503
2.84,-1.197965,11.398595,5.2281723,1.3759164,10.706211,6.34745
2.842,-0.9099051,11.969085,4.8850513,1.3090755,10.836154,6.2883177
2.844,-0.60957223,12.548268,4.5227804,1.2414504,10.951223,6.2188253
2.846,-0.29789585,13.135075,4.14095,1.1733867,11.049943,6.138492
2.848,0.024096847,13.728181,3.7392907,1.1051486,11.130791,6.0465927
2.85,0.35534012,14.326153,3.3177614,1.0368932,11.192267,5.9421935
2.852,0.6947143,14.927346,2.876523,0.9686353,11.232963,5.824158
2.854,1.0413134,15.53002,2.4162545,0.90022475,11.251649,5.6912184
2.856,1.394203,16.132029,1.9376097,0.8313381,11.247313,5.5421476
2.858,1.752322,16.731249,1.4416466,0.761482,11.2191725,5.375866
2.86,2.1147938,17.325483,0.9298029,0.6900155,11.166739,5.191634
2.862,2.4806519,17.912216,0.40373755,0.6162136,11.089798,4.989202
2.864,2.84935,18.488876,-0.13450432,0.53933066,10.988433,4.7689075
2.866,3.2202177,19.052782,-0.6827402,0.45873594,10.863031,4.531757
2.868,3.5929039,19.60129,-1.2383342,0.37399042,10.714301,4.2794223
2.87,3.966939,20.131908,-1.7985802,0.28494245,10.54329,4.014155
2.872,4.34179,20.642067,-2.3605628,0.19179732,10.3514,3.738637
2.874,4.7172604,21.129354,-2.9212327,0.095178306,10.14037,3.4557774
2.876,5.093129,21.591434,-3.4776125,-0.0039385557,9.912262,3.1685157
2.878,5.4692636,22.026052,-4.0266438,-0.10432351,9.66938,2.8794732
2.88,5.845389,22.43128,-4.5653653,-0.20455474,9.414299,2.5909317
2.882,6.2212253,22.805109,-5.091157,-0.30313736,9.1498,2.3046749
2.884,6.5962887,23.146198,-5.601587,-0.39868677,8.878734,2.0219107
2.886,6.971099,23.452374,-6.092747,-0.49005938,8.603949,1.7432961
2.888,7.3376126,23.721579,-6.5588694,-0.5764125,8.328231,1.4690034
2.89,7.6996107,23.940657,-6.9876075,-0.65717715,8.054284,1.198839
2.892,8.080936,24.10244,-7.385017,-0.73209053,7.784629,0.9324167
2.894,8.464079,24.259485,-7.778608,-0.80117404,7.521504,0.6692591
2.896,8.93298,24.424074,-8.27103,-0.8646382,7.266843,0.40892297
2.898,9.466255,24.49498,-8.581406,-0.9228222,7.022198,0.15109602
2.9,9.987223,24.541239,-8.914581,-0.9760874,6.7887936,-0.10434201
2.902,10.496682,24.550573,-9.294624,-1.0247905,6.567493,-0.35730225
2.904,11.058691,24.49823,-9.673962,-1.069246,6.358822,-0.60751617
2.906,11.677025,24.382528,-10.04286,-1.1097531,6.1629944,-0.8545583
2.908,12.344673,24.21035,-10.407869,-1.1466038,5.979905,-1.0978813
2.91,13.062702,23.99308,-10.775623,-1.1801,5.809176,-1.3368769
2.912,13.842478,23.726458,-11.154665,-1.2105916,5.650207,-1.5708747
2.914,14.689826,23.409636,-11.554449,-1.2384676,5.502161,-1.7991958
2.916,15.610968,23.040997,-11.979556,-1.2644122,5.36408,-2.020945
2.918,16.601944,22.65726,-12.421388,-1.2890751,5.235559,-2.2365549
2.92,17.680239,22.22572,-12.900432,-1.3139529,5.1180167,-2.445285
2.922,18.848747,21.746002,-13.422071,-1.3411705,5.016135,-2.640311
2.924,20.108753,21.217613,-13.990732,-1.3716359,4.93508,-2.8133068
2.926,21.458828,20.640368,-14.609913,-1.3952297,4.901822,-2.9573185
2.928,22.895292,20.01411,-15.281922,-1.4101774,4.922413,-3.0749812
2.93,24.411942,19.33901,-16.007702,-1.4163804,4.996502,-3.164523
2.932,25.999945,18.615625,-16.786716,-1.4048395,5.150683,-3.2128174
2.934,27.648293,17.844723,-17.61715,-1.3695438,5.405521,-3.2118096
2.936,29.343864,17.027641,-18.495565,-1.3035127,5.779812,-3.155726
2.938,31.07209,16.166029,-19.417393,-1.1968769,6.288271,-3.0410712
2.94,32.8172,15.262058,-20.376755,-1.0386509,6.93778,-2.8677835
2.942,34.562893,14.318413,-21.366747,-0.8192171,7.724846,-2.6400132
2.944,36.292473,13.338352,-22.379751,-0.5325494,8.6324,-2.3667457
2.946,37.989803,12.325672,-23.407658,-0.19077182,9.621971,-2.072289
2.948,39.639557,11.284528,-24.442019,0.20541596,10.660176,-1.7681808
2.95,41.227806,10.219257,-25.474415,0.6419275,11.698593,-1.4720665
2.952,42.742264,9.1346035,-26.496704,1.0999522,12.688017,-1.1992886
2.954,44.172253,8.03537,-27.501091,1.5583878,13.584793,-0.96092355
2.956,45.50924,6.926264,-28.480572,1.9967217,14.355959,-0.7627678
2.958,46.746624,5.8122406,-29.428734,2.397633,14.982193,-0.60536623
2.96,47.880093,4.6979,-30.34016,2.7487817,15.458143,-0.48501688
2.962,48.907005,3.5876207,-31.210243,3.0434985,15.790541,-0.39528486
2.964,49.82658,2.4854288,-32.035427,3.28049,15.994942,-0.32854614
2.966,50.639717,1.3952284,-32.812794,3.4628425,16.092056,-0.27729952
2.968,51.348877,0.32034874,-33.540516,3.5966625,16.104506,-0.23498969
