Time_s_,Acc_x_m_s_2_,Acc_y_m_s_2_,Acc_z_m_s_2_,Gyro_x_1_s_,Gyro_y_1_s_,Gyro_z_1_s_
0,-1.4044579,-0.056745738,0.9740002,-0.6773405,-2.1298957,-0.075728476
0.002,-1.4454291,-0.084204435,1.0058643,-0.68027973,-2.0945096,-0.06781322
0.004,-1.476981,-0.11273049,1.024758,-0.68189347,-2.0508406,-0.058164418
0.006,-1.4986992,-0.14206721,1.0293225,-0.68174535,-1.9974881,-0.046479642
0.008,-1.5094451,-0.17198664,1.0182936,-0.679345,-1.9331076,-0.032426775
0.01,-1.5080901,-0.20220949,0.99002004,-0.67419434,-1.8565557,-0.015663028
0.012,-1.4931836,-0.23243788,0.94264996,-0.6657895,-1.7670534,0.0041670203
0.014,-1.46347,-0.2623207,0.87492204,-0.65373635,-1.6643845,0.027338266
0.016,-1.4179404,-0.29150906,0.7852504,-0.6378181,-1.5490746,0.05401516
0.018,-1.3555379,-0.3195216,0.6722113,-0.6180973,-1.4224951,0.08419198
0.02,-1.2753451,-0.34589052,0.5344372,-0.5949414,-1.2868669,0.117649436
0.022,-1.1762252,-0.3704486,0.37075794,-0.5690578,-1.145198,0.15394568
0.024,-1.0571886,-0.39278096,0.18014878,-0.5414642,-1.0011007,0.1924282
0.026,-0.91751146,-0.41254637,-0.037973404,-0.5134282,-0.8585884,0.23225892
0.028,-0.75707006,-0.42928016,-0.28351384,-0.48622376,-0.719423,0.27311203
0.03,-0.57618135,-0.44254202,-0.55587333,-0.4612542,-0.5905157,0.31326607
0.032,-0.37567997,-0.45177475,-0.8534988,-0.4398954,-0.47544855,0.35186672
0.034,-0.15677997,-0.4563175,-1.1741972,-0.42331544,-0.3773472,0.38819996
0.036,0.07893288,-0.45560846,-1.5153785,-0.41236582,-0.29883164,0.42172492
0.038,0.32982147,-0.44919044,-1.8736026,-0.40766215,-0.24211727,0.45208323
0.04,0.59399104,-0.43682194,-2.2446618,-0.40954363,-0.20890613,0.4790941
0.042,0.8693913,-0.41851753,-2.6240206,-0.418001,-0.20031293,0.50271064
0.044,1.1534996,-0.3942828,-3.0069828,-0.4327796,-0.21692355,0.52301174
0.046,1.4437222,-0.3643074,-3.3885994,-0.45341587,-0.25878274,0.5401192
0.048,1.7379541,-0.3293333,-3.7633705,-0.4792543,-0.32535988,0.5541959
0.05,2.0342722,-0.29016957,-4.1260166,-0.50952506,-0.41554973,0.5654821
0.052,2.3304017,-0.24758887,-4.471266,-0.5433247,-0.5276246,0.5743107
0.054,2.6243906,-0.20261109,-4.7938514,-0.57960427,-0.65916663,0.58114064
0.056,2.9145813,-0.15686786,-5.090128,-0.61723536,-0.80712545,0.5865847
0.058,3.2022994,-0.11143595,-5.3562274,-0.65505177,-0.96795297,0.5914013
0.06,3.4850519,-0.06749457,-5.587633,-0.691921,-1.1376833,0.59652543
0.062,3.7621994,-0.026744246,-5.7810783,-0.72675574,-1.3120117,0.60296893
0.064,4.0337267,0.009243488,-5.9345307,-0.75850976,-1.486422,0.6117777
0.066,4.2993035,0.039010167,-6.046301,-0.7862589,-1.6563842,0.6239108
0.068,4.5595593,0.060914576,-6.1157,-0.8091603,-1.8175689,0.6402195
0.07,4.8148637,0.07376373,-6.1423984,-0.8264737,-1.965951,0.661394
0.072,5.065717,0.0764994,-6.126678,-0.8375259,-2.097983,0.6879618
0.074,5.312191,0.068506986,-6.069815,-0.84178585,-2.210763,0.7202455
0.076,5.5542965,0.04972837,-5.97436,-0.83886373,-2.3021772,0.7583763
0.078,5.7917075,0.020068012,-5.842745,-0.82855004,-2.3709102,0.8023614
0.08,6.023672,-0.01974994,-5.6778717,-0.81082237,-2.4164197,0.8521322
0.082,6.249023,-0.06865555,-5.483115,-0.7859566,-2.4390826,0.90750086
0.084,6.466071,-0.12512076,-5.2622833,-0.7545198,-2.4400823,0.96819633
0.086,6.672741,-0.18711156,-5.018938,-0.71738476,-2.4212568,1.0339146
0.088,6.8659477,-0.25183415,-4.7566795,-0.6755617,-2.384873,1.1042978
0.09,7.0424895,-0.31617796,-4.4789634,-0.63033104,-2.3337955,1.1788628
0.092,7.19831,-0.37673074,-4.1890144,-0.5830562,-2.271195,1.2570357
0.094,7.3295197,-0.4301083,-3.8901305,-0.53514117,-2.2004027,1.3381333
0.096,7.432007,-0.47268403,-3.5851192,-0.48797336,-2.1248314,1.4213431
0.098,7.501922,-0.50116026,-3.2766223,-0.44278088,-2.047808,1.5057001
0.1,7.5355663,-0.5126126,-2.9668312,-0.4005944,-1.9724953,1.5901344
0.102,7.529827,-0.50460017,-2.6576233,-0.3622255,-1.901743,1.6734965
0.104,7.4822493,-0.47522414,-2.3504004,-0.32823184,-1.8379767,1.7545767
0.106,7.39063,-0.422992,-2.0464237,-0.29897055,-1.7831622,1.8321303
0.108,7.2536187,-0.3470117,-1.7465861,-0.27465612,-1.7387496,1.9049352
0.11,7.07079,-0.24700439,-1.4516478,-0.2553455,-1.7055849,1.9718863
0.112,6.8426523,-0.12332904,-1.1624177,-0.24093246,-1.6838762,2.0320227
0.114,6.570821,0.022883177,-0.8799715,-0.23118925,-1.673205,2.084558
0.116,6.258628,0.18950856,-0.60537267,-0.22577193,-1.6725833,2.1289515
0.118,5.909957,0.37392128,-0.33989286,-0.22426748,-1.6805718,2.1648998
0.12,5.5295353,0.5729692,-0.08459234,-0.22619402,-1.6954027,2.1923513
0.122,5.1227913,0.7829952,0.15950966,-0.23099971,-1.714994,2.2114866
0.124,4.695511,1.0002395,0.39090157,-0.2380811,-1.7371509,2.2226682
0.126,4.254208,1.2206874,0.6084918,-0.24683738,-1.7597203,2.226367
0.128,3.8055677,1.4403567,0.8108388,-0.256674,-1.780704,2.223174
0.13,3.3565154,1.6552842,0.99665713,-0.2669998,-1.7983011,2.2137332
0.132,2.9138498,1.8619357,1.1647259,-0.27726072,-1.8110546,2.1986856
0.134,2.4843357,2.0566854,1.3141599,-0.2869964,-1.8179665,2.1786244
0.136,2.074408,2.2364438,1.4442389,-0.2957866,-1.8184144,2.1541147
0.138,1.6900841,2.398651,1.5541477,-0.30329233,-1.812167,2.125671
0.14,1.3366822,2.541497,1.6432022,-0.30924818,-1.7994081,2.0937328
0.142,1.019163,2.6636405,1.7107791,-0.31356752,-1.7807264,2.0586689
0.144,0.7416872,2.7641292,1.7564987,-0.3161344,-1.756743,2.0208547
0.146,0.5073874,2.8428154,1.7807496,-0.31694186,-1.7282996,1.9806212
0.148,0.31811786,2.9001896,1.784037,-0.31604043,-1.6963103,1.9382893
0.15,0.17513442,2.9373045,1.7672683,-0.3134722,-1.6615918,1.8942513
0.152,0.07860434,2.955863,1.7317692,-0.30931386,-1.6248431,1.8489351
0.154,0.028277874,2.957909,1.6793172,-0.30361867,-1.5866004,1.8027947
0.156,0.022988677,2.945722,1.6119066,-0.29641336,-1.5472475,1.7563131
0.158,0.060333967,2.922185,1.5312974,-0.28771988,-1.507036,1.7100067
0.16,0.13721466,2.8901088,1.4394073,-0.27755493,-1.466121,1.6644194
0.162,0.25039637,2.852121,1.3381349,-0.26592746,-1.4246209,1.6200984
0.164,0.39644563,2.810882,1.2292006,-0.252868,-1.382717,1.5775539
0.166,0.5709475,2.7692728,1.1143248,-0.23846751,-1.3406659,1.5372741
0.168,0.7680688,2.7300844,0.99575293,-0.22284168,-1.2988247,1.4997239
0.17,0.98457164,2.6952524,0.87494147,-0.20616372,-1.2576833,1.4653175
0.172,1.214639,2.6675076,0.75356543,-0.18863428,-1.2178291,1.4343787
0.174,1.452628,2.6489782,0.6335819,-0.17048216,-1.1798773,1.4071578
0.176,1.6933227,2.6416717,0.51711845,-0.15196085,-1.1445104,1.3837899
0.178,1.9312048,2.6471279,0.40615642,-0.13332377,-1.1123793,1.3642923
0.18,2.1615145,2.6664286,0.3024727,-0.11475907,-1.083987,1.3485984
0.182,2.3797877,2.7001226,0.20763886,-0.09635872,-1.0596178,1.3365256
0.184,2.5823197,2.7482905,0.12339008,-0.07814658,-1.0393467,1.3277738
0.186,2.7657735,2.810675,0.05190921,-0.06004469,-1.0230327,1.3219184
0.188,2.9274387,2.886875,-0.004463315,-0.04189205,-1.0102957,1.3184527
0.19,3.0651908,2.975968,-0.043152213,-0.023502588,-1.0005925,1.3167702
0.192,3.177291,3.0767431,-0.061745048,-0.004693657,-0.99331594,1.3162029
0.194,3.2627347,3.18763,-0.057950497,0.01464358,-0.9878524,1.3160543
0.196,3.3211079,3.3065586,-0.029749393,0.034550756,-0.9836339,1.3156649
0.198,3.352838,3.43148,0.024613738,0.054951876,-0.9802145,1.3144338
0.2,3.3585322,3.5602276,0.10647297,0.07565105,-0.9772815,1.3118576
0.202,3.3392844,3.6907072,0.21668828,0.09636992,-0.9746829,1.3075981
0.204,3.2964349,3.8208785,0.3556075,0.116755515,-0.9723852,1.3015168
0.206,3.2318954,3.9484625,0.52300394,0.1364344,-0.9703958,1.2936532
0.208,3.1472666,4.071631,0.7181741,0.15502393,-0.9687399,1.2842363
0.21,3.0444186,4.1885157,0.9399828,0.17218804,-0.96740973,1.2736648
0.212,2.9253535,4.2975464,1.1864686,0.18769395,-0.96638924,1.2624829
0.214,2.7919617,4.3974304,1.4549875,0.20142663,-0.96564007,1.2513419
0.216,2.6464863,4.4871826,1.7422181,0.21339846,-0.9651243,1.2409332
0.218,2.4907308,4.566289,2.0446324,0.22371748,-0.9647519,1.2319324
0.22,2.3264732,4.6345234,2.358339,0.2325694,-0.9643846,1.2249234
0.222,2.1554465,4.6920595,2.6789904,0.24016908,-0.9638291,1.2203003
0.224,1.9793286,4.7393856,3.002215,0.24671274,-0.96285117,1.2182494
0.226,1.799632,4.777102,3.3234985,0.25237045,-0.96117103,1.2187375
0.228,1.6176147,4.8060203,3.638641,0.25729316,-0.9585065,1.2215277
0.23,1.4348371,4.827193,3.943512,0.26160607,-0.9545646,1.2261809
0.232,1.2526445,4.8419747,4.234116,0.26542115,-0.9490306,1.2320914
0.234,1.0724547,4.8517714,4.506965,0.26884735,-0.94155806,1.2385663
0.236,0.8969238,4.8572903,4.7594185,0.27197444,-0.93178034,1.2449098
0.238,0.7259884,4.8604093,4.9882956,0.2749092,-0.91930455,1.2505006
0.24,0.558584,4.863513,5.1882915,0.27778327,-0.90362597,1.2548853
0.242,0.39751816,4.8674464,5.356847,0.2807691,-0.8840628,1.2578002
0.244,0.24453068,4.8734913,5.493659,0.28405845,-0.85982573,1.2591968
0.246,0.099568605,4.8837867,5.5996485,0.28781316,-0.83011514,1.2591622
0.248,-0.03661585,4.899632,5.674431,0.29220182,-0.79415685,1.2578881
0.25,-0.16109705,4.921105,5.716179,0.2973519,-0.75126106,1.2556334
0.252,-0.2709508,4.94863,5.7225046,0.30334568,-0.7009489,1.2526265
0.254,-0.36436105,4.982891,5.692462,0.3102178,-0.64304394,1.2489729
0.256,-0.44025087,5.024067,5.6269426,0.31788564,-0.5777795,1.2446003
0.258,-0.49748564,5.07211,5.5278835,0.32619807,-0.50586617,1.2392493
0.26,-0.5351789,5.1268353,5.397362,0.33489898,-0.42852718,1.2325077
0.262,-0.5522027,5.1878414,5.237188,0.34364188,-0.34743297,1.2237787
0.264,-0.54752994,5.2546954,5.048794,0.35193932,-0.26473832,1.21234
0.266,-0.5200758,5.3272266,4.833686,0.3591382,-0.18292853,1.1974221
0.268,-0.46946955,5.405019,4.593893,0.3647111,-0.10438673,1.1783736
0.27,-0.39562345,5.4875526,4.3323746,0.36822373,-0.0313825,1.1546493
0.272,-0.29902768,5.574565,4.0521564,0.3690499,0.033436596,1.1259935
0.274,-0.1808281,5.6655374,3.7566633,0.36680266,0.087740436,1.0925518
0.276,-0.042265892,5.75989,3.4495084,0.3614104,0.12988983,1.0546936
0.278,0.115162134,5.8569984,3.1344037,0.3530889,0.15903923,1.0130941
0.28,0.28967762,5.956188,2.8150125,0.34233934,0.17514181,0.9688852
0.282,0.47926545,6.056592,2.49517,0.32986772,0.17864922,0.9233764
0.284,0.68180203,6.1573167,2.1787922,0.31647885,0.17026682,0.8778111
0.286,0.8949702,6.257318,1.8696432,0.30302048,0.15093112,0.83333135
0.288,1.1163676,6.3556395,1.5716681,0.29027325,0.12177851,0.79098094
0.29,1.343378,6.4512587,1.2888675,0.2788704,0.08405815,0.7516969
0.292,1.5730709,6.5432205,1.0251441,0.2692241,0.03905449,0.71628195
0.294,1.8026917,6.630357,0.7839148,0.26151425,-0.012043737,0.6853347
0.296,2.0297663,6.7111893,0.56794876,0.25572067,-0.06820061,0.6592239
0.298,2.2517881,6.784213,0.37952232,0.25171143,-0.12844098,0.63806057
0.3,2.4663806,6.848002,0.22086287,0.24933985,-0.1917119,0.62172306
0.302,2.671091,6.90164,0.09420991,0.2484482,-0.2569244,0.609885
0.304,2.8636684,6.944195,0.0015345812,0.24893066,-0.32299116,0.60203636
0.306,3.0419753,6.9748797,-0.055331707,0.25077242,-0.38882542,0.59755546
0.308,3.2039847,6.992814,-0.07488775,0.2540398,-0.45336336,0.5957924
0.31,3.3481836,6.9972725,-0.056241035,0.25888076,-0.51560724,0.5960976
0.312,3.473363,6.987714,0.00090134144,0.2654388,-0.5746697,0.5978626
0.314,3.5783393,6.9639244,0.09666157,0.27385336,-0.62978876,0.6005888
0.316,3.66205,6.926145,0.23030603,0.28419283,-0.68043023,0.603901
0.318,3.7240973,6.874693,0.40046978,0.2964437,-0.72625726,0.60751045
0.32,3.7640083,6.810449,0.6050458,0.31048977,-0.7672047,0.61113936
0.322,3.7816637,6.7345963,0.84199405,0.3259291,-0.80368584,0.6144499
0.324,3.7771485,6.6484513,1.1089026,0.3423013,-0.8362807,0.6171111
0.326,3.7506924,6.5535836,1.4029119,0.35933533,-0.86530846,0.6186876
0.328,3.702896,6.4519024,1.7204951,0.37655282,-0.89146274,0.6186856
0.33,3.6346033,6.345556,2.0580986,0.39339536,-0.9157474,0.616735
0.332,3.5469778,6.236658,2.4117653,0.40939867,-0.9390793,0.6124594
0.334,3.4414713,6.127501,2.7772799,0.42424983,-0.9620709,0.6054153
0.336,3.3200927,6.020402,3.150225,0.43785125,-0.9847817,0.5953582
0.338,3.1849961,5.917595,3.525581,0.45035464,-1.006727,0.58235145
0.34,3.0384068,5.8210487,3.8984087,0.46213156,-1.0271139,0.56658214
0.342,2.8829207,5.73262,4.263936,0.4737276,-1.0449196,0.54823434
0.344,2.7214499,5.653752,4.6176114,0.48585555,-1.0588821,0.5274739
0.346,2.5557783,5.5862513,4.954944,0.4993074,-1.0674981,0.5044674
0.348,2.3904498,5.530304,5.272995,0.5148957,-1.0690569,0.47942388
0.35,2.2298849,5.4858246,5.570763,0.5333662,-1.0617459,0.45258546
0.352,2.0744617,5.453916,5.84464,0.55533046,-1.0438544,0.4242234
0.354,1.9264579,5.434717,6.089985,0.58121383,-1.0139652,0.39459813
0.356,1.7897596,5.4272256,6.302826,0.6112509,-0.9710314,0.36393547
0.358,1.666841,5.431052,6.4821525,0.6454307,-0.9144981,0.33243036
0.36,1.558217,5.44621,6.628977,0.68347156,-0.84440804,0.3002313
0.362,1.4644544,5.4718657,6.7447047,0.72484136,-0.76148367,0.26743346
0.364,1.3874705,5.5067925,6.8294773,0.7688054,-0.6670955,0.2340974
0.366,1.329402,5.5499215,6.882449,0.81447935,-0.5632499,0.20023744
0.368,1.2915287,5.6001997,6.9028444,0.860872,-0.4525357,0.1658156
0.37,1.2742388,5.6564975,6.8912745,0.9069376,-0.33799392,0.13071269
0.372,1.2774613,5.717608,6.8496804,0.95162725,-0.22296,0.09473969
0.374,1.3006358,5.782168,6.780914,0.9939308,-0.11091642,0.05765313
0.376,1.342619,5.8488965,6.687705,1.0329162,-0.005290076,0.01916194
0.378,1.4022355,5.916828,6.5725265,1.0677189,0.0907196,-0.02104038
0.38,1.47819,5.9851384,6.437321,1.0975912,0.17428657,-0.06321362
0.382,1.5690203,6.0529327,6.2843285,1.1219265,0.24308363,-0.107593924
0.384,1.6727767,6.1197987,6.115848,1.1403106,0.29542574,-0.15432581
0.386,1.7874885,6.1852436,5.9344645,1.1525532,0.33026496,-0.20349246
0.388,1.9107985,6.249016,5.74272,1.1586862,0.3472038,-0.25509214
0.39,2.0402784,6.3108916,5.5431023,1.1589687,0.3464612,-0.30906188
0.392,2.1737394,6.3705873,5.337986,1.1538547,0.32882136,-0.36530188
0.394,2.3090572,6.4279504,5.129829,1.1439986,0.29562956,-0.42368782
0.396,2.443978,6.4827967,4.9211664,1.130196,0.24864386,-0.48407796
0.398,2.5764792,6.5349813,4.714411,1.1132785,0.18986444,-0.5463136
0.4,2.704777,6.5842466,4.5121074,1.0940592,0.121407636,-0.6102146
0.402,2.8272758,6.6303926,4.316835,1.0732827,0.04542976,-0.67558455
0.404,2.9426312,6.6730547,4.1310673,1.0516092,-0.03595209,-0.74219847
0.406,3.0495386,6.7120495,3.957552,1.0295812,-0.12071265,-0.8097855
0.408,3.1470847,6.7470503,3.7987666,1.0076418,-0.20693314,-0.87802273
0.41,3.2345083,6.7777,3.6566002,0.9861685,-0.29279286,-0.9465498
0.412,3.3116608,6.803443,3.532701,0.9655268,-0.37650204,-1.0149635
0.414,3.378194,6.824193,3.4287486,0.9460991,-0.45626205,-1.0828313
0.416,3.4340003,6.8398433,3.346254,0.928316,-0.5302216,-1.1496776
0.418,3.4788847,6.8504996,3.2866673,0.9126278,-0.59649503,-1.2150365
0.42,3.5128803,6.8562956,3.2511764,0.899526,-0.6531915,-1.2784556
0.422,3.5361238,6.8573084,3.2406147,0.8895135,-0.69847083,-1.339525
0.424,3.5490477,6.85355,3.2553518,0.8831066,-0.7305852,-1.3978668
0.426,3.5520906,6.8450146,3.295452,0.88076985,-0.7480493,-1.4531806
0.428,3.5459483,6.831687,3.3608837,0.8828692,-0.74978495,-1.505239
0.43,3.5315006,6.8136854,3.4508924,0.88963026,-0.7352548,-1.5539201
0.432,3.5096967,6.7910914,3.5642295,0.90114546,-0.70451623,-1.5992044
0.434,3.4817502,6.7639713,3.6989503,0.9173255,-0.65821064,-1.6412123
0.436,3.4491053,6.7323446,3.852656,0.9379062,-0.59752584,-1.6801373
0.438,3.4134126,6.69608,4.022473,0.96246886,-0.5241263,-1.7162561
0.44,3.3760748,6.655124,4.205216,0.9904965,-0.43995824,-1.7498765
0.442,3.3389664,6.6093373,4.397746,1.0214027,-0.34711793,-1.7813438
0.444,3.303265,6.5588765,4.596714,1.0545844,-0.2477026,-1.8110011
0.446,3.2701406,6.504126,4.798924,1.0894651,-0.14374068,-1.8391701
0.448,3.2405305,6.445402,5.0011654,1.1254714,-0.03713291,-1.8661397
0.45,3.2155802,6.3830385,5.199914,1.1620744,0.070481196,-1.8921146
0.452,3.1963043,6.3172197,5.391773,1.1988343,0.17776167,-1.9172081
0.454,3.1835132,6.2484984,5.5730543,1.2353754,0.283588,-1.9414537
0.456,3.1778731,6.177389,5.740271,1.2713403,0.38700956,-1.9647996
0.458,3.1797462,6.1046886,5.8902626,1.3064253,0.48718804,-1.9871298
0.46,3.189388,6.031211,6.0202847,1.3403842,0.5834259,-2.0083122
0.462,3.206715,5.9578,6.128234,1.3730288,0.6751001,-2.028216
0.464,3.2314892,5.885271,6.2123203,1.404217,0.76165366,-2.0467465
0.466,3.263013,5.8144817,6.2713785,1.4338491,0.8425781,-2.0638773
0.468,3.3004932,5.7463284,6.304571,1.461868,0.9174422,-2.0796816
0.47,3.3431673,5.6818857,6.311146,1.4882649,0.9859184,-2.0943475
0.472,3.390192,5.6222954,6.290666,1.5130801,1.0477825,-2.1081336
0.474,3.4403787,5.568417,6.2432613,1.5363572,1.1028571,-2.1213856
0.476,3.4927492,5.5212364,6.1693172,1.5581079,1.150976,-2.1345317
0.478,3.546367,5.481577,6.0702085,1.578293,1.1919479,-2.1480649
0.48,3.6003144,5.4501247,5.9476633,1.5968096,1.2255418,-2.162543
0.482,3.653562,5.4275274,5.803832,1.613464,1.2514433,-2.1785479
0.484,3.7051613,5.414192,5.641353,1.6279997,1.2692552,-2.1966715
0.486,3.754204,5.410411,5.463463,1.6400921,1.2785027,-2.2174249
0.488,3.8001137,5.416342,5.2739077,1.6494058,1.2786826,-2.24123
0.49,3.8423257,5.4318724,5.07668,1.6556331,1.2693713,-2.2684083
0.492,3.8800263,5.457158,4.875944,1.658553,1.2503623,-2.2991576
0.494,3.9129314,5.4919844,4.6760054,1.6580508,1.2217155,-2.3335352
0.496,3.9405565,5.536105,4.4811172,1.6541834,1.1838906,-2.3714437
0.498,3.9630108,5.588877,4.295557,1.6472014,1.1377939,-2.4126577
0.5,3.9800587,5.649678,4.1236353,1.6375372,1.0847813,-2.4568481
0.502,3.991749,5.7177577,3.969502,1.6257802,1.0265815,-2.5036123
0.504,3.998098,5.7922573,3.8369472,1.6126857,0.9653064,-2.5524862
0.506,3.9995766,5.872191,3.7291687,1.5991153,0.9033495,-2.602943
0.508,3.9971154,5.956293,3.6488528,1.5859463,0.84323704,-2.6544147
0.51,3.9916964,6.043184,3.5982347,1.5740777,0.78749335,-2.7063131
0.512,3.9844804,6.131124,3.57912,1.5643151,0.7385584,-2.7580175
0.514,3.9762008,6.2188206,3.59295,1.5573227,0.69861233,-2.8089018
0.516,3.9679346,6.3048697,3.6401048,1.5535744,0.6694392,-2.8583636
0.518,3.9605854,6.387862,3.7206202,1.5533285,0.65236866,-2.9058158
0.52,3.9550843,6.4664364,3.8341942,1.5566587,0.648213,-2.9507284
0.522,3.9524736,6.539187,3.9795785,1.5634018,0.657231,-2.9926488
0.524,3.9537678,6.6046734,4.154708,1.5732143,0.67913574,-3.0312483
0.526,3.9598,6.6619453,4.356689,1.5856142,0.7131882,-3.066338
0.528,3.9714613,6.709896,4.582226,1.6000379,0.7583431,-3.0978541
0.53,3.9890504,6.7479753,4.827656,1.6159105,0.81336236,-3.1258054
0.532,4.012928,6.77583,5.0890923,1.6326673,0.8768755,-3.1502666
0.534,4.043069,6.7934246,5.362191,1.6498125,0.94750607,-3.171338
0.536,4.079816,6.8008313,5.6425447,1.6669543,1.0239592,-3.1891823
0.538,4.12311,6.798274,5.925212,1.6838002,1.1050435,-3.203985
0.54,4.1730785,6.785998,6.2056093,1.7001944,1.189712,-3.2159922
0.542,4.2293854,6.764405,6.478799,1.7160897,1.2770675,-3.2254577
0.544,4.291457,6.734552,6.740489,1.731528,1.3663039,-3.2326415
0.546,4.3585615,6.697543,6.986213,1.7466271,1.4566636,-3.2378175
0.548,4.42999,6.6544833,7.211871,1.7615626,1.5474675,-3.2412984
0.55,4.5051084,6.606572,7.413613,1.776545,1.6380937,-3.2434645
0.552,4.5828037,6.555125,7.5879326,1.7917562,1.7279465,-3.244725
0.554,4.6626277,6.501173,7.7317023,1.8073661,1.8164725,-3.2454684
0.556,4.7436094,6.4457374,7.842338,1.8235447,1.9031312,-3.246049
0.558,4.8253875,6.389851,7.9181643,1.8403949,1.9873598,-3.2467866
0.56,4.906877,6.334623,7.9581556,1.8579893,2.0686216,-3.2479494
0.562,4.9870863,6.2812734,7.9619412,1.8764044,2.1464508,-3.2496972
0.564,5.065096,6.230591,7.9299045,1.8956566,2.2204115,-3.2521183
0.566,5.140011,6.183428,7.8628683,1.915762,2.2900248,-3.2552376
0.568,5.211177,6.1403112,7.762281,1.9367324,2.3548574,-3.2590404
0.57,5.2779026,6.1016116,7.630089,1.9585838,2.4145422,-3.263511
0.572,5.339923,6.067668,7.468564,1.9813167,2.4687343,-3.2686775
0.574,5.396656,6.0387206,7.280694,2.0048892,2.517074,-3.2746377
0.576,5.4478397,6.0148354,7.0697966,2.029265,2.5592222,-3.2815683
0.578,5.493456,5.995909,6.8396826,2.0543556,2.5948539,-3.289762
0.58,5.5329804,5.981721,6.594717,2.0800447,2.6236708,-3.2995586
0.582,5.566505,5.971972,6.3390923,2.1061916,2.645443,-3.3113184
0.584,5.594327,5.966235,6.0768366,2.1326528,2.6600866,-3.3253798
0.586,5.616729,5.963831,5.812045,2.1592822,2.667734,-3.3419833
0.588,5.6341963,5.963888,5.5481997,2.1859674,2.668718,-3.3612416
0.59,5.6473913,5.9655905,5.2888007,2.2126322,2.663608,-3.3831391
0.592,5.6568346,5.9679823,5.037214,2.2392364,2.6532094,-3.407513
0.594,5.663358,5.9701295,4.796335,2.26578,2.6385303,-3.4340658
0.596,5.66794,5.9709916,4.568901,2.292327,2.620727,-3.4623976
0.598,5.671323,5.9695315,4.357192,2.3189707,2.6010623,-3.4920614
0.6,5.674103,5.964995,4.1632032,2.3458366,2.5808125,-3.5225978
0.602,5.677313,5.9561915,3.9883313,2.3730867,2.5611956,-3.553554
0.604,5.68144,5.9422383,3.833633,2.4008694,2.5432787,-3.584511
0.606,5.6871843,5.9223337,3.6997075,2.4293442,2.527976,-3.6151226
0.608,5.69483,5.895929,3.586876,2.4586308,2.5160232,-3.6450992
0.61,5.704771,5.8626204,3.4949272,2.4888246,2.508007,-3.674211
0.612,5.7173533,5.8222575,3.4232783,2.519987,2.504334,-3.7022593
0.614,5.732937,5.774812,3.371093,2.5521636,2.5052485,-3.7290738
0.616,5.7516303,5.720277,3.3375676,2.5853817,2.5108275,-3.7545004
0.618,5.773246,5.658995,3.3216581,2.6196733,2.5209925,-3.7783995
0.62,5.7976475,5.591398,3.321889,2.65504,2.5355232,-3.8006604
0.622,5.825099,5.5180063,3.3365407,2.6914792,2.55401,-3.821192
0.624,5.856413,5.439047,3.3639536,2.7289321,2.5758367,-3.8399534
0.626,5.8920593,5.3547144,3.4026566,2.7673144,2.6002097,-3.8569686
0.628,5.9329224,5.2653227,3.4512517,2.8065171,2.6261742,-3.8723297
0.63,5.9798765,5.1711287,3.5081978,2.8463778,2.6526208,-3.8861794
0.632,6.033995,5.072357,3.5724576,2.8866892,2.6783204,-3.8987164
0.634,6.0961924,4.9693427,3.6429434,2.9272032,2.7020106,-3.9102147
0.636,6.167871,4.8620667,3.7185242,2.9676545,2.7224572,-3.920984
0.638,6.250439,4.7506876,3.7976818,3.0077767,2.7385387,-3.9313152
0.64,6.3456135,4.635084,3.8789291,3.047316,2.7492862,-3.94148
0.642,6.454832,4.515171,3.9607782,3.0860684,2.7539926,-3.9516716
0.644,6.5799637,4.390788,4.0419006,3.1238973,2.7522645,-3.9619892
0.646,6.721882,4.261878,4.1209593,3.160763,2.7440104,-3.972443
0.648,6.881907,4.128281,4.196604,3.1966767,2.7294357,-3.982986
0.65,7.0608654,3.9898615,4.267293,3.2316985,2.7090003,-3.9934676
0.652,7.2595825,3.8466134,4.3316994,3.265941,2.6834068,-4.0036736
0.654,7.478384,3.698402,4.3881226,3.2995305,2.6534667,-4.0133257
0.656,7.717366,3.545433,4.435289,3.3325698,2.6200192,-4.0221205
0.658,7.9762754,3.3879547,4.4717703,3.3651526,2.583887,-4.0297384
0.66,8.254305,3.226432,4.4962063,3.3973346,2.5457764,-4.0358696
0.662,8.5501795,3.0615451,4.507308,3.4291406,2.5062327,-4.0402803
0.664,8.862229,2.893899,4.503803,3.4605818,2.465639,-4.0427694
0.666,9.188582,2.724282,4.4842,3.4916816,2.424278,-4.043207
0.668,9.526594,2.5534248,4.447343,3.5224907,2.3823426,-4.0415015
0.67,9.873594,2.3823023,4.392373,3.553121,2.3400173,-4.037609
0.672,10.226677,2.211632,4.318466,3.58375,2.297524,-4.0315247
0.674,10.582884,2.0423574,4.225173,3.61461,2.2551308,-4.0232797
0.676,10.939123,1.8755164,4.1121616,3.6459756,2.2131758,-4.012927
0.678,11.292335,1.7118087,3.979566,3.6781485,2.1720948,-4.0005183
0.68,11.639679,1.5518527,3.8276286,3.7114131,2.1323729,-3.9861135
0.682,11.97833,1.3959694,3.6568627,3.7460122,2.0944567,-3.9697843
0.684,12.306131,1.2445273,3.4678817,3.7821164,2.0586631,-3.951632
0.686,12.62121,1.0976253,3.2615914,3.819827,2.0251298,-3.9317918
0.688,12.921836,0.95529747,3.0390978,3.859163,1.9937569,-3.9104528
0.69,13.207072,0.81729937,2.8016353,3.9000347,1.9641552,-3.8878903
0.692,13.475952,0.6830578,2.5507615,3.9422636,1.9356811,-3.8644485
0.694,13.727922,0.55213404,2.2881844,3.985624,1.9075227,-3.8405077
0.696,13.962957,0.42391253,2.015679,4.0298386,1.8787181,-3.8164918
0.698,14.181404,0.2978139,1.7352655,4.0746207,1.8481978,-3.7928157
0.7,14.383792,0.17321134,1.4488577,4.119712,1.8149084,-3.7698753
0.702,14.571216,0.049493074,1.1584284,4.1649237,1.7779241,-3.7480319
0.704,14.744805,-0.07397747,0.8659531,4.21014,1.7365162,-3.7275782
0.706,14.906229,-0.19776201,0.57301193,4.2553053,1.6901529,-3.7087166
0.708,15.05758,-0.32234883,0.28124577,4.300459,1.638569,-3.6915774
0.71,15.201197,-0.44835734,-0.0073014796,4.3457375,1.5817333,-3.6761901
0.712,15.339361,-0.5760355,-0.2903669,4.391332,1.5198448,-3.662511
0.714,15.474581,-0.7057116,-0.5663612,4.437481,1.4532425,-3.6504292
0.716,15.609827,-0.83765364,-0.83362967,4.4844456,1.3823929,-3.6397586
0.718,15.748213,-0.9719062,-1.0906403,4.5325117,1.3078399,-3.630311
0.72,15.892746,-1.1083357,-1.3358961,4.581939,1.2301486,-3.621884
0.722,16.045856,-1.2466819,-1.5678747,4.6329775,1.1498939,-3.6142938
0.724,16.210754,-1.386896,-1.7849574,4.6858525,1.06761,-3.6073437
0.726,16.390121,-1.5287958,-1.9857918,4.740767,0.98374474,-3.6007893
0.728,16.58651,-1.6721706,-2.1693525,4.7978935,0.8986885,-3.594341
0.73,16.802753,-1.8167559,-2.3346233,4.8573637,0.81273234,-3.5877073
0.732,17.04161,-1.962587,-2.4793456,4.919255,0.726079,-3.5805583
0.734,17.30397,-2.1092026,-2.6017084,4.9835625,0.63885045,-3.5725408
0.736,17.590532,-2.2559578,-2.7025487,5.050191,0.55111736,-3.5632663
0.738,17.903822,-2.4032433,-2.7823117,5.118984,0.462861,-3.5523324
0.74,18.242262,-2.550284,-2.8392556,5.189673,0.37399495,-3.539339
0.742,18.606634,-2.6987867,-2.8702073,5.2619,0.2843548,-3.5239046
0.744,18.995672,-2.848509,-2.8770094,5.335229,0.1937164,-3.5056524
0.746,19.406874,-2.999565,-2.8585427,5.4091415,0.10174465,-3.4842262
0.748,19.839767,-3.1536744,-2.8120923,5.483015,0.007947624,-3.4593225
0.75,20.290197,-3.309649,-2.7388332,5.5561547,-0.08828616,-3.430715
0.752,20.753824,-3.467021,-2.6385667,5.627833,-0.18765718,-3.3982532
0.754,21.2259,-3.6255348,-2.5103843,5.6972804,-0.29101455,-3.3619437
0.756,21.69892,-3.784057,-2.354145,5.763713,-0.39935604,-3.321915
0.758,22.173271,-3.9457326,-2.1679225,5.8263454,-0.5137751,-3.2784133
0.76,22.644339,-4.111452,-1.9556172,5.884396,-0.6354803,-3.23184
0.762,23.103655,-4.2803946,-1.7214985,5.9370704,-0.76576054,-3.1827471
0.764,23.54642,-4.4537907,-1.4627715,5.983729,-0.9056834,-3.131822
0.766,23.966734,-4.632124,-1.1775434,6.0239706,-1.055969,-3.0797923
0.768,24.359163,-4.815537,-0.86693525,6.057527,-1.2173007,-3.0274057
0.77,24.719004,-5.0048,-0.5323781,6.0842133,-1.3903182,-2.9755328
0.772,25.041885,-5.200298,-0.17571193,6.1042356,-1.5745895,-2.924859
0.774,25.323797,-5.4015274,0.20141315,6.118191,-1.7688029,-2.8757925
0.776,25.561373,-5.607854,0.59779406,6.126751,-1.9714422,-2.828623
0.778,25.752281,-5.8186164,1.0113622,6.131239,-2.1795259,-2.7830415
0.78,25.894808,-6.033289,1.4389412,6.133463,-2.388911,-2.7382812
0.782,25.987852,-6.2508507,1.8763863,6.135387,-2.5948794,-2.693394
0.784,26.031183,-6.470093,2.3187778,6.139281,-2.7917647,-2.6468987
0.786,26.025684,-6.689412,2.7611573,6.1475954,-2.973088,-2.5968556
0.788,25.972849,-6.9065647,3.1983812,6.162996,-3.1314893,-2.5408916
0.79,25.874817,-7.1188116,3.624753,6.188126,-3.2593515,-2.476419
0.792,25.734684,-7.3230977,4.0341563,6.225091,-3.3502977,-2.4011188
0.794,25.556074,-7.516393,4.420949,6.275574,-3.3991923,-2.3127372
0.796,25.343088,-7.6951847,4.779895,6.3409534,-3.4016912,-2.2091184
0.798,25.10033,-7.85623,5.106517,6.4218426,-3.3552287,-2.088854
0.8,24.832642,-7.996236,5.3969493,6.517997,-3.2596502,-1.951342
0.802,24.545204,-8.112153,5.6482577,6.628483,-3.1170805,-1.7965448
0.804,24.24276,-8.201282,5.8586307,6.751668,-2.9320822,-1.6251101
0.806,23.929674,-8.261126,6.0276184,6.885166,-2.7115314,-1.4385289
0.808,23.609634,-8.28962,6.156155,7.0259953,-2.4639902,-1.2390583
0.81,23.286156,-8.28522,6.2461934,7.1707077,-2.199265,-1.0296319
0.812,22.96192,-8.247095,6.3007703,7.3155513,-1.9278558,-0.813596
0.814,22.638893,-8.174751,6.324183,7.456767,-1.6602451,-0.5944203
0.816,22.318077,-8.068242,6.322008,7.590781,-1.4062631,-0.37550622
0.818,21.99955,-7.9280853,6.300189,7.7143617,-1.1745305,-0.16001862
0.82,21.682648,-7.755475,6.264902,7.824864,-0.97181225,0.049267173
0.822,21.366112,-7.5520983,6.222651,7.9205065,-0.8024211,0.25016505
0.824,21.047672,-7.3201227,6.1804414,8.000402,-0.66838884,0.44127494
0.826,20.7245,-7.062209,6.1449757,8.0642395,-0.57037723,0.621731
0.828,20.393145,-6.7814107,6.122349,8.112352,-0.50731707,0.79116184
0.83,20.050243,-6.4811783,6.11798,8.1457,-0.4763738,0.9498148
0.832,19.692596,-6.1651497,6.1362147,8.165162,-0.47470665,1.0980318
0.834,19.31668,-5.8369045,6.1798835,8.171687,-0.49932003,1.2364167
0.836,18.92017,-5.5001316,6.2506824,8.166341,-0.54717505,1.3658415
0.838,18.500763,-5.1585007,6.3496466,8.14993,-0.61606526,1.4868761
0.84,18.055822,-4.815249,6.4767957,8.123058,-0.70467496,1.5997909
0.842,17.582966,-4.4728312,6.6304464,8.086083,-0.81266606,1.7045398
0.844,17.082113,-4.1338873,6.808914,8.039363,-0.9400208,1.8009189
0.846,16.553684,-3.8011467,7.012006,7.983554,-1.0861981,1.8887401
0.848,15.996905,-3.4761088,7.237694,7.919296,-1.2508432,1.9674437
0.85,15.415588,-3.1612062,7.4813256,7.8471746,-1.4340711,2.0362413
0.852,14.810706,-2.8563862,7.737325,7.7681293,-1.6353829,2.0946803
0.854,14.186335,-2.5634067,8.004676,7.6833344,-1.8533902,2.1424692
0.856,13.546767,-2.282975,8.279022,7.593946,-2.0861807,2.1793718
0.858,12.894425,-2.0142064,8.555542,7.5011683,-2.3312898,2.2054458
0.86,12.235236,-1.7584977,8.833757,7.406281,-2.5858686,2.2212045
0.862,11.574094,-1.5154829,9.1117115,7.3105416,-2.8469915,2.227488
0.864,10.915661,-1.284028,9.387106,7.2151446,-3.1117184,2.2253602
0.866,10.266405,-1.0633855,9.659159,7.121172,-3.377112,2.2159343
0.868,9.625153,-0.8489628,9.925946,7.0295415,-3.640357,2.2003093
0.87,8.997085,-0.63945293,10.191197,6.9409943,-3.8988624,2.1795502
0.872,8.389848,-0.43493605,10.457412,6.8560734,-4.1504245,2.1546245
0.874,7.8063126,-0.23351908,10.720669,6.7751427,-4.3932204,2.1263676
0.876,7.249918,-0.03400612,10.979698,6.698387,-4.625705,2.095464
0.878,6.722687,0.16468239,11.237062,6.6258388,-4.846534,2.0624552
0.88,6.2260237,0.36413908,11.495205,6.557404,-5.054547,2.0278351
0.882,5.7605624,0.5656066,11.756705,6.492842,-5.248811,1.9920933
0.884,5.326635,0.7695689,12.023682,6.43187,-5.4285626,1.9556916
0.886,4.9240723,0.97622013,12.297396,6.374169,-5.593158,1.9190824
0.888,4.552304,1.1858711,12.579116,6.319416,-5.74203,1.8827217
0.89,4.210642,1.3989,12.870012,6.267358,-5.8746786,1.8470917
0.892,3.8981616,1.6152043,13.171102,6.2177544,-5.9906645,1.8127038
0.894,3.6133018,1.8345828,13.48311,6.1703873,-6.089565,1.7800677
0.896,3.3537765,2.056304,13.806044,6.125068,-6.1710196,1.749654
0.898,3.1168964,2.2797146,14.138935,6.081563,-6.234784,1.7218814
0.9,2.9001129,2.5034952,14.481112,6.03961,-6.280816,1.6971338
0.902,2.7004113,2.7264514,14.831375,5.9989157,-6.3093185,1.6757567
0.904,2.515136,2.9472513,15.187662,5.9591413,-6.3207912,1.6580081
0.906,2.3415246,3.1644454,15.547382,5.919947,-6.316026,1.6439967
0.908,2.1766303,3.376954,15.907403,5.8810534,-6.296089,1.6336939
0.91,2.0175905,3.583592,16.264761,5.842263,-6.2622848,1.6269386
0.912,1.8615212,3.7833858,16.61614,5.8034954,-6.2160363,1.6234636
0.914,1.706002,3.9754353,16.958038,5.764818,-6.1588163,1.6229804
0.916,1.5485511,4.1590104,17.287096,5.726419,-6.0920863,1.6252236
0.918,1.3870356,4.333357,17.59989,5.688532,-6.017192,1.6299794
0.92,1.2191999,4.4979544,17.89352,5.6513734,-5.93536,1.637125
0.922,1.0426729,4.652662,18.165472,5.6150723,-5.847701,1.6466355
0.924,0.85565495,4.7972174,18.413105,5.579668,-5.755205,1.658565
0.926,0.6562624,4.931607,18.63401,5.545067,-5.6587133,1.6730464
0.928,0.443254,5.056028,18.82611,5.5110536,-5.558973,1.6901932
0.93,0.215024,5.1710334,18.98778,5.4773164,-5.4566402,1.710129
0.932,-0.029434681,5.277076,19.117912,5.443529,-5.352335,1.7329164
0.934,-0.29079437,5.3749475,19.215574,5.409368,-5.246626,1.7585278
0.936,-0.5696659,5.465623,19.280285,5.3745666,-5.140093,1.7868257
0.938,-0.8662071,5.54989,19.311794,5.338898,-5.033312,1.8175476
0.94,-1.1798644,5.6286716,19.309721,5.3022165,-4.926856,1.850306
0.942,-1.5094056,5.702658,19.274204,5.2644563,-4.821279,1.8845916
0.944,-1.8538809,5.7729354,19.20608,5.2256403,-4.717141,1.9197626
0.946,-2.2116227,5.840374,19.106312,5.1859274,-4.6149464,1.9551132
0.948,-2.5805745,5.905869,18.976309,5.1456113,-4.515083,1.9899018
0.95,-2.9579968,5.969718,18.817154,5.105098,-4.417757,2.0234106
0.952,-3.3403373,6.0319757,18.62991,5.064921,-4.322986,2.055023
0.954,-3.7244382,6.092673,18.416237,5.0256433,-4.2305403,2.08429
0.956,-4.107113,6.1524134,18.177818,4.987873,-4.1400385,2.1109273
0.958,-4.485251,6.2117844,17.916533,4.952143,-4.050981,2.134849
0.96,-4.855874,6.271489,17.634947,4.9188714,-3.9628525,2.1561682
0.962,-5.216008,6.332176,17.33582,4.888339,-3.8752527,2.1751163
0.964,-5.563042,6.3944325,17.022163,4.860644,-3.7879264,2.1919708
0.966,-5.894622,6.458763,16.697094,4.835697,-3.7008147,2.207036
0.968,-6.2086177,6.5258265,16.363363,4.8132725,-3.6140542,2.220542
0.97,-6.503715,6.596437,16.02359,4.7930174,-3.5279164,2.2326548
0.972,-6.779033,6.671402,15.680542,4.7745404,-3.442793,2.243427
0.974,-7.0347486,6.751954,15.337208,4.7574315,-3.3591223,2.252853
0.976,-7.271676,6.8393755,14.99669,4.741283,-3.277341,2.2608907
0.978,-7.491563,6.9353924,14.662296,4.7256985,-3.197731,2.2674863
0.98,-7.697056,7.0417957,14.337204,4.7103686,-3.1203306,2.2726088
0.982,-7.8912416,7.160379,14.024275,4.6950016,-3.045004,2.276256
0.984,-8.077669,7.292944,13.726122,4.67937,-2.9714377,2.2784455
0.986,-8.260389,7.441261,13.445333,4.663288,-2.899159,2.279238
0.988,-8.443541,7.606873,13.183903,4.6466265,-2.8275945,2.2787097
0.99,-8.631422,7.791341,12.94346,4.6293073,-2.7561677,2.2769203
0.992,-8.828318,7.9956965,12.725193,4.6112957,-2.6843414,2.2738948
0.994,-9.038709,8.221141,12.529907,4.592593,-2.6116683,2.269604
0.996,-9.266773,8.468788,12.358149,4.573223,-2.5378385,2.2639549
0.998,-9.516784,8.7394085,12.210163,4.5532484,-2.4626422,2.256805
1,-9.792741,9.0335,12.086126,4.5327415,-2.385979,2.2479534
1.002,-10.097883,9.35108,11.98561,4.5117826,-2.3078628,2.237215
1.004,-10.435258,9.692127,11.907791,4.4904613,-2.2283726,2.2244167
1.006,-10.805556,10.055961,11.85046,4.4688673,-2.1476614,2.2094057
1.008,-11.209245,10.441243,11.811672,4.447113,-2.0659363,2.1920352
1.01,-11.646517,10.846915,11.788708,4.4252586,-1.9834573,2.1721735
1.012,-12.115644,11.271263,11.778616,4.4033766,-1.9005451,2.1496706
1.014,-12.616459,11.713141,11.778024,4.381508,-1.8175763,2.1243382
1.016,-13.146286,12.170078,11.786363,4.359667,-1.7349856,2.0958912
1.018,-13.702567,12.6394205,11.803317,4.3378925,-1.6532197,2.0639508
1.02,-14.281925,13.118727,11.8244295,4.316243,-1.5727155,2.0280554
1.022,-14.879379,13.6055355,11.845569,4.2947893,-1.4938612,1.9876999
1.024,-15.489924,14.097101,11.865873,4.2736273,-1.4169319,1.9423456
1.026,-16.108448,14.590699,11.884823,4.2528896,-1.3420876,1.8914797
1.028,-16.729136,15.083107,11.902276,4.2327113,-1.2693317,1.8346546
1.03,-17.346895,15.570968,11.917819,4.2131853,-1.1985867,1.7715255
1.032,-17.95658,16.051432,11.931014,4.1943507,-1.1297461,1.701882
1.034,-18.55343,16.521957,11.942067,4.17615,-1.0627366,1.6256217
1.036,-19.132442,16.979822,11.951684,4.158471,-0.9974717,1.542727
1.038,-19.689272,17.422451,11.96094,4.1410875,-0.9339707,1.453258
1.04,-20.219564,17.847296,11.971251,4.1236863,-0.872371,1.3573047
1.042,-20.719687,18.252382,11.9840765,4.105919,-0.8128766,1.2549622
1.044,-21.186066,18.636028,12.000272,4.0874023,-0.7557906,1.1463239
1.046,-21.615776,18.996948,12.020903,4.067672,-0.70168275,1.0314564
1.048,-22.0065,19.333988,12.048126,4.0463276,-0.65109444,0.910444
1.05,-22.35688,19.646078,12.084832,4.023096,-0.6044087,0.7833942
1.052,-22.666592,19.93266,12.134049,3.997603,-0.5623824,0.6504433
1.054,-22.935474,20.193073,12.198253,3.9694905,-0.5258906,0.5118098
1.056,-23.164265,20.427353,12.27947,3.9384522,-0.49567592,0.36770618
1.058,-23.353552,20.635555,12.379267,3.9041219,-0.47252756,0.218279
1.06,-23.504648,20.818375,12.499611,3.866126,-0.4572183,0.063720465
1.062,-23.619812,20.976517,12.642313,3.8241487,-0.45047262,-0.095676064
1.064,-23.70086,21.110844,12.808594,3.777966,-0.4529509,-0.2595632
1.066,-23.750221,21.222267,12.999887,3.7274785,-0.465137,-0.4275961
1.068,-23.770567,21.311789,13.2172575,3.672701,-0.48731092,-0.5994643
1.07,-23.764824,21.380335,13.461082,3.6136973,-0.5195187,-0.7748296
1.072,-23.736076,21.4289,13.731624,3.5505764,-0.5615319,-0.95333433
1.074,-23.68747,21.458336,14.02883,3.4835248,-0.6127433,-1.1346002
1.076,-23.622175,21.469524,14.351979,3.412718,-0.6723167,-1.3182944
1.078,-23.543106,21.463295,14.700088,3.338284,-0.73921573,-1.5041399
1.08,-23.452898,21.44023,15.071734,3.2602973,-0.8121447,-1.6918725
1.082,-23.353943,21.401115,15.464915,3.1787772,-0.8897419,-1.881283
1.084,-23.248325,21.346474,15.877402,3.0937355,-0.97055495,-2.0721126
1.086,-23.13764,21.276953,16.306602,3.0052261,-1.053161,-2.2640412
1.088,-23.023329,21.192883,16.74982,2.9133575,-1.1362641,-2.4566975
1.09,-22.90603,21.094591,17.203962,2.818321,-1.2186669,-2.649642
1.092,-22.7862,20.982124,17.665546,2.7204187,-1.2992514,-2.8424277
1.094,-22.663607,20.855778,18.131159,2.6200118,-1.3770279,-3.0345864
1.096,-22.537752,20.715542,18.597198,2.517529,-1.4510423,-3.225634
1.098,-22.407694,20.56171,19.060423,2.413456,-1.5202713,-3.415092
1.1,-22.272312,20.394318,19.517874,2.3083744,-1.5835191,-3.6025383
1.102,-22.130087,20.213669,19.96695,2.2027764,-1.6396612,-3.7876172
1.104,-21.979235,20.019697,20.405191,2.097124,-1.6875848,-3.9700027
1.106,-21.818073,19.812656,20.83046,1.9919838,-1.7258017,-4.1493497
1.108,-21.644625,19.592836,21.240814,1.8878949,-1.7529128,-4.3253155
1.11,-21.456781,19.360733,21.634615,1.7853229,-1.767823,-4.497511
1.112,-21.252777,19.117126,22.010609,1.6847762,-1.7695261,-4.6655293
1.114,-21.030025,18.862425,22.367592,1.5867059,-1.757231,-4.829073
1.116,-20.787722,18.59745,22.705177,1.4914469,-1.7304235,-4.988011
1.118,-20.524338,18.323322,23.02233,1.3992422,-1.6888034,-5.1422744
1.12,-20.238373,18.041117,23.31891,1.3102257,-1.6323683,-5.2918463
1.122,-19.929771,17.752142,23.595016,1.2244506,-1.5613314,-5.436757
1.124,-19.596949,17.4572,23.85103,1.141901,-1.4760729,-5.577103
1.126,-19.240513,17.15808,24.085207,1.0624697,-1.3771731,-5.7130413
1.128,-18.860653,16.856419,24.296772,0.98595405,-1.2653782,-5.844736
1.13,-18.458206,16.553413,24.48879,0.91217065,-1.1414407,-5.9723086
1.132,-18.035116,16.25013,24.662834,0.8409591,-1.006202,-6.095858
1.134,-17.592796,15.947891,24.817158,0.7722316,-0.8605964,-6.2155304
1.136,-17.132534,15.647891,24.95057,0.70594764,-0.70564854,-6.331472
1.138,-16.656624,15.352015,25.062443,0.6421201,-0.5425167,-6.443894
1.14,-16.166656,15.061938,25.152725,0.5808046,-0.37247503,-6.5530915
1.142,-15.66452,14.778745,25.22144,0.52211237,-0.19687128,-6.65938
1.144,-15.152689,14.5035305,25.26847,0.4661975,-0.017110825,-6.763139
1.146,-14.633537,14.237305,25.29321,0.41322255,0.16532159,-6.864749
1.148,-14.109673,13.981075,25.295204,0.36337972,0.34893084,-6.964621
1.15,-13.583667,13.735925,25.273958,0.31681466,0.5321759,-7.0631514
1.152,-13.058199,13.502454,25.228924,0.2736261,0.7135637,-7.160721
1.154,-12.536112,13.281228,25.16054,0.23385787,0.89170396,-7.2576694
1.156,-12.019727,13.072469,25.06853,0.19748378,1.0653172,-7.354318
1.158,-11.510949,12.876588,24.951778,0.16438961,1.233232,-7.4509916
1.16,-11.011476,12.694146,24.809174,0.13438964,1.3943744,-7.548007
1.162,-10.522485,12.525427,24.639835,0.10724759,1.5477321,-7.6456604
1.164,-10.04492,12.370661,24.443819,0.08268976,1.6923225,-7.744252
1.166,-9.57947,12.229654,24.22165,0.060413122,1.8272061,-7.844097
1.168,-9.126777,12.102162,23.973942,0.040136814,1.9515111,-7.945531
1.17,-8.686721,11.987591,23.70121,0.021636963,2.0644722,-8.048869
1.172,-8.258868,11.885517,23.404222,0.0047488213,2.1654706,-8.154415
1.174,-7.842989,11.795446,23.084202,-0.010605574,2.254098,-8.262441
1.176,-7.438139,11.716646,22.74273,-0.024425507,2.3301919,-8.373183
1.178,-7.0429993,11.648266,22.381659,-0.036615133,2.3938708,-8.486813
1.18,-6.655938,11.589581,22.002926,-0.047035933,2.4454682,-8.603406
1.182,-6.2747917,11.539741,21.60859,-0.055553436,2.4854853,-8.722976
1.184,-5.897355,11.497965,21.201166,-0.06204343,2.5145457,-8.845471
1.186,-5.5210214,11.463301,20.78339,-0.06642485,2.5333228,-8.9707985
1.188,-5.1429677,11.434647,20.358252,-0.06869626,2.5423913,-9.098848
1.19,-4.7605324,11.410844,19.9287,-0.06888342,2.54222,-9.229573
1.192,-4.370846,11.390678,19.497866,-0.06710386,2.5331001,-9.362951
1.194,-3.9709811,11.372969,19.069191,-0.063544035,2.5151494,-9.498995
1.196,-3.558227,11.356451,18.645872,-0.058413267,2.4882858,-9.637741
1.198,-3.1299796,11.340224,18.231384,-0.051939726,2.4522488,-9.779257
1.2,-2.6836429,11.32329,17.829117,-0.044353962,2.4066856,-9.923611
1.202,-2.216784,11.304897,17.44222,-0.035867214,2.3511255,-10.070864
1.204,-1.7269416,11.284101,17.07337,-0.026670098,2.2850084,-10.221082
1.206,-1.2118449,11.26021,16.725056,-0.016917229,2.207677,-10.374339
1.208,-0.66968155,11.232513,16.399675,-0.006765127,2.1183934,-10.53067
1.21,-0.09901333,11.200717,16.099497,0.0036309958,2.0163903,-10.690105
1.212,0.50114393,11.164729,15.826543,0.014080286,1.9008269,-10.852676
1.214,1.1316056,11.124762,15.58289,0.02431035,1.7708368,-11.018446
1.216,1.7925507,11.081377,15.37045,0.033946633,1.6256127,-11.187532
1.218,2.4838507,11.0351925,15.19092,0.042513847,1.4643984,-11.360049
1.22,3.205424,10.986905,15.045862,0.0494529,1.2865677,-11.5360985
1.222,3.9565027,10.937622,14.936957,0.054091573,1.0916162,-11.715763
1.224,4.73596,10.888767,14.865741,0.055681348,0.8791518,-11.899113
1.226,5.5424175,10.841968,14.833881,0.053424478,0.6489005,-12.086172
1.228,6.3743715,10.798701,14.8431,0.046503842,0.4007306,-12.27692
1.23,7.229935,10.760634,14.894507,0.03412783,0.13465929,-12.47126
1.232,8.107147,10.729806,14.989255,0.015529871,-0.14919186,-12.6690445
1.234,9.004367,10.708678,15.128378,-0.009981632,-0.45056486,-12.8700695
1.236,9.921032,10.699236,15.312703,-0.042991906,-0.769125,-13.074062
1.238,10.855614,10.703506,15.543182,-0.083985835,-1.1044536,-13.280701
1.24,11.807053,10.72327,15.820632,-0.13335246,-1.456048,-13.489601
1.242,12.774457,10.760039,16.146011,-0.19139856,-1.8232884,-13.70038
1.244,13.756677,10.815283,16.519995,-0.25837675,-2.2054753,-13.912593
1.246,14.752605,10.890343,16.942709,-0.33445695,-2.601862,-14.12579
1.248,15.761801,10.986296,17.41379,-0.4197772,-3.0117264,-14.339529
1.25,16.783928,11.103784,17.932583,-0.5144418,-3.4343724,-14.553374
1.252,17.819061,11.243144,18.498222,-0.6185108,-3.869206,-14.7669115
1.254,18.867853,11.404097,19.10918,-0.7320106,-4.3157077,-14.979787
1.256,19.931248,11.586135,19.76344,-0.8549278,-4.7734156,-15.19163
1.258,21.010534,11.787887,20.458534,-0.98718274,-5.2418814,-15.402022
1.26,22.10699,12.007637,21.191422,-1.1286789,-5.720623,-15.610453
1.262,23.221792,12.243204,21.958944,-1.2792594,-6.209138,-15.81635
1.264,24.356464,12.491961,22.757494,-1.438747,-6.7067566,-16.01906
1.266,25.51269,12.750702,23.5837,-1.6068966,-7.2125316,-16.217865
1.268,26.691933,13.01556,24.433987,-1.7834036,-7.725173,-16.411932
1.27,27.895401,13.282249,25.303993,-1.9679506,-8.243101,-16.600231
1.272,29.124382,13.546194,26.189014,-2.1602204,-8.764366,-16.781622
1.274,30.38011,13.802246,27.084438,-2.359906,-9.286698,-16.954838
1.276,31.66331,14.045266,27.986012,-2.5666537,-9.807475,-17.118504
1.278,32.974873,14.269732,28.889643,-2.7800596,-10.323759,-17.271133
1.28,34.314575,14.470076,29.790962,-2.9996245,-10.832428,-17.411137
1.282,35.682404,14.64086,30.686205,-3.2247064,-11.330252,-17.53686
1.284,37.07757,14.776647,31.572014,-3.4544735,-11.813932,-17.646576
1.286,38.499973,14.871667,32.44496,-3.687873,-12.280174,-17.738525
1.288,39.94883,14.920001,33.30284,-3.9235938,-12.725757,-17.810913
1.29,41.42284,14.916002,34.144447,-4.160075,-13.147606,-17.861952
1.292,42.920116,14.854719,34.9684,-4.3955045,-13.542925,-17.889915
1.294,44.439156,14.731568,35.77401,-4.627783,-13.909235,-17.893173
1.296,45.9783,14.541926,36.560513,-4.8546405,-14.244549,-17.870209
1.298,47.536297,14.2818365,37.327587,-5.07364,-14.547371,-17.819708
1.3,49.11132,13.9484415,38.07547,-5.2822495,-14.816601,-17.740608
1.302,50.70164,13.539155,38.804703,-5.477866,-15.051653,-17.632141
1.304,52.30561,13.052116,39.515644,-5.6578684,-15.252463,-17.49383
1.306,53.921368,12.486285,40.209053,-5.81976,-15.41952,-17.325432
1.308,55.546715,11.8414345,40.88584,-5.961195,-15.5537815,-17.126928
1.31,57.179295,11.118337,41.54682,-6.0800457,-15.656718,-16.898525
1.312,58.816914,10.318669,42.19285,-6.174488,-15.730302,-16.64059
1.314,60.457115,9.445092,42.824863,-6.2430563,-15.7768135,-16.35365
1.316,62.097126,8.501342,43.443367,-6.2846565,-15.798867,-16.038324
1.318,63.73446,7.492244,44.048332,-6.298536,-15.799509,-15.695226
1.32,65.36649,6.4241457,44.639656,-6.2843475,-15.782131,-15.325037
1.322,66.9904,5.3048162,45.217148,-6.2420797,-15.75036,-14.928617
1.324,68.603035,4.143793,45.780872,-6.1719174,-15.707859,-14.507053
1.326,70.20148,2.9516754,46.33058,-6.07417,-15.65832,-14.061532
1.328,71.78293,1.7406158,46.86646,-5.9492235,-15.605402,-13.5933275
1.33,73.34429,0.5239458,47.38858,-5.797495,-15.552614,-13.103871
1.332,74.8833,-0.6838379,47.897327,-5.619301,-15.503047,-12.594668
1.334,76.39961,-1.8675404,48.392937,-5.4148426,-15.459208,-12.0672035
1.336,77.894066,-3.0117798,48.875145,-5.184253,-15.423131,-11.522841
1.338,79.368706,-4.100129,49.343807,-4.9275556,-15.396238,-10.962835
1.34,80.82796,-5.113558,49.800102,-4.6446967,-15.379305,-10.388221
1.342,82.277626,-6.0333242,50.24622,-4.335581,-15.372619,-9.7998295
1.344,83.722694,-6.840214,50.683784,-4.0000772,-15.376082,-9.198305
1.346,85.16861,-7.511627,51.116676,-3.6379943,-15.389187,-8.584105
1.348,86.62753,-8.026699,51.545612,-3.249121,-15.411207,-7.9574866
1.35,88.10016,-8.349762,51.972748,-2.833269,-15.441367,-7.318613
1.352,89.59555,-8.45825,52.413963,-2.3903308,-15.479075,-6.667585
1.354,91.132065,-8.339476,52.88004,-1.920291,-15.523903,-6.004429
1.356,92.72038,-7.9639664,53.372253,-1.4233305,-15.575526,-5.3291197
1.358,94.37517,-7.2975597,53.89261,-0.89987993,-15.633774,-4.641617
1.36,96.108894,-6.301523,54.44301,-0.350667,-15.698644,-3.9418182
1.362,97.93097,-4.9293823,55.023266,0.22319674,-15.770238,-3.2294579
1.364,99.849686,-3.1657753,55.62552,0.82020307,-15.848665,-2.5041575
1.366,101.862045,-0.98462296,56.243202,1.4384913,-15.934096,-1.7653623
1.368,103.9521,1.6495991,56.876656,2.0758834,-16.026821,-1.0122361
1.37,106.11339,4.7611103,57.536175,2.7297912,-16.127142,-0.2434783
1.372,108.32945,8.374914,58.231003,3.3972075,-16.23525,0.5423879
1.374,110.55092,12.53515,58.949158,4.0750313,-16.351158,1.3467665
1.376,112.76451,17.26167,59.6936,4.7600346,-16.474583,2.171085
1.378,114.97077,22.540627,60.5072,5.449066,-16.604614,3.017202
1.38,117.265175,28.301422,61.46993,6.1389956,-16.739634,3.8865235
1.382,119.31853,34.588245,62.66902,6.825265,-16.879587,4.779646
1.384,121.14782,41.469063,63.973736,7.503413,-17.02346,5.6999235
1.386,122.85006,48.888325,65.40169,8.170873,-17.166002,6.6533937
1.388,124.65726,56.738556,66.97573,8.825674,-17.300446,7.646559
1.39,126.4776,64.996,68.72506,9.466024,-17.419453,8.686227
1.392,128.11632,73.6541,70.684616,10.090644,-17.513752,9.77964
1.394,129.52783,82.58795,72.861465,10.697961,-17.572002,10.933934
1.396,130.69148,91.73127,75.25304,11.285977,-17.581429,12.155825
1.398,131.6133,101.06973,77.905594,11.8525715,-17.528742,13.448395
1.4,132.28574,110.49852,80.98624,12.396098,-17.400076,14.812698
1.402,132.68733,119.81836,84.55032,12.914505,-17.179588,16.250437
1.404,132.85858,128.98708,88.49906,13.40328,-16.853434,17.757204
1.406,132.78505,137.72487,92.71925,13.852013,-16.414803,19.318146
1.408,132.55774,146.05157,97.18431,14.2372675,-15.868879,20.913635
1.41,132.04813,154.00238,102.12664,14.531,-15.227932,22.539562
1.412,131.14946,161.44562,107.55475,14.740278,-14.471607,24.219162
1.414,130.62158,167.76695,113.28323,14.900059,-13.53953,25.957054
1.416,130.08398,173.0046,119.38181,15.007083,-12.455629,27.656391
1.418,129.44414,177.22084,125.763466,15.060955,-11.1986065,29.297426
1.42,129.04291,180.31328,132.41582,15.06282,-9.750124,30.889154
1.422,128.92363,182.30113,139.2201,15.047186,-8.077398,32.433376
1.424,129.14284,183.18483,146.02777,15.046598,-6.211046,33.867577
1.426,129.75136,182.98462,152.67122,15.122285,-4.094954,35.19578
1.428,130.82356,181.72705,158.95087,15.36986,-1.595623,36.46198
1.43,132.39552,179.44661,164.68689,15.839331,1.2724819,37.561256
1.432,134.4664,176.23206,169.72394,16.5661,4.5618973,38.374416
1.434,136.9929,172.21484,173.89828,17.525835,8.277275,38.82311
1.436,139.9168,167.53487,177.07828,18.598406,12.258606,38.850853
1.438,143.14856,162.33466,179.15245,19.684872,16.400337,38.405712
1.44,146.58044,156.75124,179.98367,20.792395,20.666351,37.40941
1.442,150.11028,150.92766,179.46085,21.850492,24.95855,35.705574
1.444,153.61136,145.01793,177.52213,22.591112,29.017677,33.32161
1.446,156.93835,139.16222,174.1772,22.82802,32.66218,30.324978
1.448,159.9515,133.48645,169.48505,22.471252,35.76814,26.796972
1.45,162.52377,128.09724,163.54306,21.458193,38.193512,22.848343
1.452,164.54298,123.08176,156.4835,19.76146,39.803795,18.57442
1.454,165.91231,118.501816,148.48361,17.406109,40.489502,14.064339
1.456,166.55896,114.39153,139.74922,14.471176,40.175884,9.410493
1.458,166.43433,110.76839,130.50583,11.080279,38.829823,4.72019
1.46,165.53642,107.62334,120.98664,7.376899,36.465405,0.120277405
1.462,163.8859,104.95336,111.41578,3.501049,33.149513,-4.24932
1.464,161.5269,102.749306,102.019554,-0.42766416,29.001244,-8.250529
1.466,158.5414,100.97232,93.01306,-4.3378835,24.167309,-11.750761
1.468,155.03012,99.57646,84.58119,-8.174202,18.835085,-14.594566
1.47,151.11299,98.51255,76.8719,-11.843207,13.31615,-16.595499
1.472,146.92093,97.72779,69.99265,-15.275495,7.8723226,-17.726341
1.474,142.58408,97.195755,64.01695,-18.414726,2.7561975,-18.024757
1.476,138.23743,96.87106,58.967728,-21.226639,-1.8188941,-17.562824
1.478,134.01466,96.69835,54.821007,-23.656933,-5.6391525,-16.426685
1.48,130.02055,96.63579,51.51706,-25.668066,-8.639626,-14.825183
1.482,126.3481,96.64307,48.978935,-27.23853,-10.833599,-12.991494
1.484,123.08985,96.66858,47.130547,-28.31401,-12.146496,-11.032287
1.486,120.27387,96.6894,45.865112,-28.876715,-12.661728,-9.095292
1.488,117.899956,96.70493,45.04165,-28.922197,-12.4702835,-7.3537316
1.49,115.88466,96.741745,44.51084,-28.462605,-11.620705,-5.933798
1.492,114.49371,96.70615,44.15504,-27.62266,-10.325845,-4.891482
1.494,113.5708,96.51219,44.060238,-26.61544,-8.858613,-4.204521
1.496,112.926,96.20069,44.14258,-25.532143,-7.393306,-3.7801795
1.498,112.32329,95.82775,44.34039,-24.33746,-5.991994,-3.6744802
1.5,111.873085,95.349396,44.613853,-23.147633,-4.8341665,-3.8812163
1.502,111.70362,94.72033,44.9438,-22.120817,-4.0965605,-4.3436375
1.504,111.74376,94.005104,45.354435,-21.348011,-3.8630972,-4.9982677
1.506,111.90356,93.193794,45.88157,-20.873663,-4.167758,-5.7534924
1.508,112.088585,92.24297,46.520157,-20.71691,-5.0084705,-6.5245247
1.51,112.24064,91.208046,47.188545,-20.872894,-6.3472996,-7.2429113
1.512,112.327446,90.20437,47.947605,-21.31073,-8.107758,-7.852458
1.514,112.277145,89.18321,48.964783,-21.96896,-10.181011,-8.306839
1.516,112.09168,88.31256,50.340347,-22.762024,-12.439529,-8.568513
1.518,111.694435,87.462074,52.038757,-23.600296,-14.752779,-8.610253
1.52,111.22021,86.56475,53.80852,-24.3976,-16.9966,-8.418333
1.522,110.725266,85.744965,55.660793,-25.077774,-19.061588,-7.997158
1.524,109.56858,85.46974,57.728733,-25.57854,-20.86397,-7.3690968
1.526,108.30844,85.48809,59.850998,-25.849112,-22.340145,-6.5692434
1.528,107.04876,85.63737,62.020195,-25.854126,-23.444168,-5.6404333
1.53,105.501305,85.96872,64.138916,-25.579287,-24.159231,-4.62912
1.532,103.74201,86.43155,66.202255,-25.029816,-24.497143,-3.5789728
1.534,101.80954,87.02971,68.19862,-24.22612,-24.488377,-2.526228
1.536,99.727585,87.767975,70.107506,-23.200422,-24.176155,-1.4986315
1.538,97.48732,88.65714,71.91641,-21.993238,-23.6126,-0.5153761
1.54,95.10741,89.70575,73.58185,-20.649956,-22.854757,0.4108429
1.542,92.61987,90.878815,75.0483,-19.21783,-21.960556,1.2716217
1.544,90.06565,92.122284,76.29052,-17.74176,-20.98421,2.0632744
1.546,87.46637,93.39748,77.28111,-16.261911,-19.972511,2.786951
1.548,84.844864,94.67642,78.010544,-14.812758,-18.963934,3.4465275
1.55,82.21507,95.94112,78.52507,-13.42183,-17.988386,4.047059
1.552,79.56929,97.1655,78.86598,-12.109146,-17.066761,4.5943894
1.554,76.91604,98.31332,79.055466,-10.887384,-16.210922,5.0948925
1.556,74.27413,99.36052,79.0895,-9.762487,-15.424662,5.5550747
1.558,71.65315,100.28842,78.967575,-8.734118,-14.705341,5.981359
1.56,69.05577,101.08436,78.6998,-7.7965994,-14.045358,6.3791122
1.562,66.48448,101.74127,78.30308,-6.941081,-13.433442,6.7519007
1.564,63.94664,102.25986,77.787544,-6.157577,-12.856954,7.1015806
1.566,61.44717,102.64574,77.16296,-5.436486,-12.303924,7.428993
1.568,58.988434,102.902756,76.443504,-4.7695045,-11.76426,7.7349
1.57,56.56619,103.03281,75.6425,-4.150017,-11.230349,8.020222
1.572,54.175125,103.03412,74.7706,-3.573125,-10.697347,8.286072
1.574,51.810493,102.9075,73.83501,-3.0356488,-10.163149,8.533613
1.576,49.466694,102.65761,72.8438,-2.536205,-9.628179,8.763567
1.578,47.138535,102.2896,71.804405,-2.0749133,-9.095002,8.975739
1.58,44.822033,101.80992,70.725105,-1.6527967,-8.567645,9.1691
1.582,42.514984,101.22591,69.61549,-1.2711539,-8.050862,9.342411
1.584,40.21802,100.54899,68.48132,-0.9310365,-7.549571,9.494538
1.586,37.9308,99.79233,67.331505,-0.63297415,-7.0683813,9.624603
1.588,35.650223,98.96874,66.173454,-0.3768406,-6.6112976,9.73215
1.59,33.37275,98.08883,65.008606,-0.16181993,-6.181249,9.817263
1.592,31.095253,97.1595,63.83526,0.013583183,-5.780056,9.880602
1.594,28.815794,96.185745,62.65146,0.15148306,-5.4084105,9.923283
1.596,26.531315,95.173035,61.457443,0.25449896,-5.065932,9.946894
1.598,24.239807,94.12892,60.25512,0.32558727,-4.7514024,9.953504
1.6,21.94055,93.061424,59.04761,0.36795902,-4.462838,9.94554
1.602,19.634836,91.97789,57.83744,0.3849826,-4.197645,9.925664
1.604,17.32451,90.8848,56.62599,0.38009262,-3.9527411,9.896544
1.606,15.011684,89.78755,55.41394,0.35671616,-3.7246766,9.860733
1.608,12.698272,88.68971,54.200897,0.3181877,-3.5097694,9.82065
1.61,10.386934,87.59367,52.985508,0.2676401,-3.3042123,9.778594
1.612,8.081566,86.501465,51.766476,0.20807886,-3.1040864,9.736675
1.614,5.787708,85.41486,50.543262,0.14222574,-2.9056158,9.696844
1.616,3.5113494,84.33492,49.31583,0.072485924,-2.7052321,9.660524
1.618,1.2588441,83.26265,48.08457,0.0010404587,-2.4994411,9.628798
1.62,-0.9629773,82.19875,46.850033,-0.07027769,-2.2851205,9.602437
1.622,-3.1468997,81.144264,45.611767,-0.13997793,-2.0596862,9.581744
1.624,-5.285233,80.10023,44.36871,-0.20686913,-1.8210199,9.566643
1.626,-7.3690424,79.06689,43.11969,-0.26996946,-1.5674626,9.556651
1.628,-9.390331,78.04426,41.862476,-0.32843876,-1.2977031,9.550958
1.63,-11.341241,77.031494,40.59474,-0.3815086,-1.0106761,9.548435
1.632,-13.2138,76.02735,39.313965,-0.4283538,-0.7052845,9.54785
1.634,-15.000209,75.03025,38.01632,-0.46793604,-0.38023853,9.547964
1.636,-16.692183,74.03829,36.696724,-0.4989531,-0.034045696,9.547497
1.638,-18.281406,73.04914,35.348778,-0.51984143,0.3350184,9.545336
1.64,-19.757614,72.0599,33.964836,-0.52869964,0.7288623,9.540774
1.642,-21.11437,71.06893,32.536434,-0.52335286,1.1494324,9.533361
1.644,-22.344545,70.07333,31.056084,-0.5014837,1.5984952,9.522872
1.646,-23.439314,69.06943,29.515501,-0.46069288,2.077605,9.509216
1.648,-24.39208,68.0547,27.90686,-0.3986001,2.5879796,9.492401
1.65,-25.197384,67.026306,26.222818,-0.31289387,3.1304307,9.472436
1.652,-25.850018,65.9822,24.456432,-0.20133758,3.7053328,9.449318
1.654,-26.346378,64.92058,22.600859,-0.062013388,4.312421,9.422817
1.656,-26.683533,63.839783,20.649496,0.10655987,4.9506674,9.392413
1.658,-26.860634,62.738373,18.597164,0.30538857,5.618161,9.357323
1.66,-26.878025,61.61502,16.439777,0.53486717,6.311841,9.316459
1.662,-26.738058,60.46965,14.175186,0.79465747,7.027179,9.268395
1.664,-26.44616,59.30256,11.802761,1.083703,7.7580986,9.211504
1.666,-26.009026,58.114838,9.324013,1.4000802,8.496753,9.143976
1.668,-25.435135,56.908554,6.743416,1.7409765,9.233427,9.063919
1.67,-24.734549,55.6865,4.067791,2.1027021,9.956667,8.969492
1.672,-23.919308,54.451954,1.3071041,2.4808047,10.65362,8.8588505
1.674,-23.002876,53.209007,-1.5252781,2.870053,11.310346,8.7302475
1.676,-22.000683,51.96267,-4.4128704,3.2644942,11.912274,8.582113
1.678,-20.929218,50.71854,-7.336132,3.657678,12.444711,8.413084
1.68,-19.805822,49.48227,-10.272633,4.04282,12.893495,8.222059
1.682,-18.648514,48.259773,-13.197863,4.4130588,13.245523,8.0082035
1.684,-17.474857,47.05699,-16.085396,4.761649,13.489235,7.771053
1.686,-16.301872,45.87984,-18.907679,5.0821996,13.615087,7.5105786
1.688,-15.145372,44.73427,-21.636805,5.3689494,13.616007,7.2272854
1.69,-14.019989,43.62554,-24.245234,5.6170874,13.487783,6.9223304
1.692,-12.93849,42.558556,-26.706083,5.8231306,13.229369,6.597539
1.694,-11.911796,41.537254,-28.993742,5.9851093,12.843216,6.2553844
1.696,-10.949299,40.56523,-31.084122,6.1028275,12.335299,5.898919
1.698,-10.058085,39.64579,-32.955826,6.1779056,11.715134,5.5316935
1.7,-9.242726,38.781307,-34.590412,6.213719,10.995489,5.1575456
1.702,-8.505796,37.973637,-35.973183,6.2151833,10.191939,4.780272
1.704,-7.848322,37.223976,-37.093285,6.1884813,9.322254,4.403413
1.706,-7.2686625,36.53288,-37.94437,6.1406417,8.40559,4.03001
1.708,-6.763141,35.900097,-38.524788,6.079238,7.461625,3.6627135
1.71,-6.326641,35.32472,-38.837296,6.011915,6.509526,3.3037057
1.712,-5.952457,34.80534,-38.888412,5.945923,5.5670357,2.9547622
1.714,-5.6323624,34.339943,-38.688316,5.887746,4.6497645,2.6172686
1.716,-5.357601,33.925934,-38.250423,5.8428493,3.7706673,2.2923687
1.718,-5.1183543,33.56065,-37.590935,5.8154626,2.9396646,1.9809424
1.72,-4.904645,33.241062,-36.727955,5.80856,2.163732,1.6837641
1.722,-4.7071924,32.96395,-35.681576,5.8239284,1.4471467,1.401456
1.724,-4.5174737,32.726402,-34.4736,5.862227,0.79187053,1.1344295
1.726,-4.326992,32.52575,-33.126457,5.9231453,0.198042,0.8828248
1.728,-4.1274214,32.359375,-31.66293,6.005653,-0.33550948,0.64645296
1.73,-3.9109583,32.22464,-30.105858,6.1081986,-0.8108367,0.42475867
1.732,-3.6705568,32.118797,-28.476513,6.2288427,-1.2305233,0.21687497
1.734,-3.400635,32.03911,-26.794838,6.3654084,-1.5974774,0.021690067
1.736,-3.0970144,31.983273,-25.079952,6.515696,-1.9147397,-0.16206113
1.738,-2.7557266,31.949627,-23.349354,6.6776023,-2.1854496,-0.3356858
1.74,-2.373628,31.936829,-21.619125,6.849181,-2.4129112,-0.5004365
1.742,-1.9485857,31.94376,-19.903835,7.0286665,-2.6005774,-0.65740764
1.744,-1.4792254,31.969532,-18.215506,7.2143717,-2.752208,-0.8075572
1.746,-0.9655814,32.01362,-16.563871,7.404641,-2.8719232,-0.95166415
1.748,-0.40835428,32.075844,-14.956541,7.5978074,-2.9642787,-1.0902967
1.75,0.19173717,32.156464,-13.399664,7.792119,-3.0342383,-1.2238086
1.752,0.83310723,32.255733,-11.897298,7.9857225,-3.0870812,-1.3523464
1.754,1.514208,32.374275,-10.452666,8.176695,-3.128268,-1.4758741
1.756,2.2328463,32.51267,-9.0679245,8.363057,-3.1632388,-1.5942395
1.758,2.9867375,32.67118,-7.7440686,8.542829,-3.197204,-1.7072709
1.76,3.773107,32.85026,-6.4805756,8.71408,-3.2350242,-1.8148236
1.762,4.5889454,33.049854,-5.275514,8.874988,-3.2809935,-1.9168648
1.764,5.4311776,33.270058,-4.1258693,9.023917,-3.338729,-2.0135245
1.766,6.2966022,33.510635,-3.0271964,9.159482,-3.4110634,-2.1051123
1.768,7.1822314,33.771076,-1.9747934,9.280608,-3.5000334,-2.1920745
1.77,8.085001,34.050865,-0.9635987,9.38656,-3.6068966,-2.2750087
1.772,9.002101,34.348957,0.011660814,9.476895,-3.7321851,-2.3545864
1.774,9.930725,34.66372,0.95657253,9.551511,-3.8757846,-2.4315424
1.776,10.867664,34.99326,1.8766782,9.610562,-4.0370235,-2.5066197
1.778,11.809927,35.335194,2.7772393,9.654456,-4.214781,-2.5805655
1.78,12.754325,35.686928,3.6629694,9.6837435,-4.407581,-2.654114
1.782,13.698374,36.045216,4.538117,9.699075,-4.6137075,-2.7280018
1.784,14.6390085,36.406765,5.40645,9.701186,-4.831221,-2.8029652
1.786,15.573079,36.768143,6.271015,9.690813,-5.058021,-2.8797848
1.788,16.498526,37.125343,7.134478,9.668672,-5.291919,-2.9592805
1.79,17.41141,37.475147,7.998429,9.635418,-5.530663,-3.0422761
1.792,18.309261,37.81356,8.863893,9.591679,-5.771926,-3.1295645
1.794,19.189005,38.136852,9.7314415,9.538064,-6.0132947,-3.221895
1.796,20.047764,38.441437,10.600952,9.475187,-6.2523427,-3.3199334
1.798,20.88223,38.7239,11.472076,9.403687,-6.4866242,-3.4241958
1.8,21.689936,38.98087,12.343739,9.324252,-6.713698,-3.5349824
1.802,22.467981,39.209328,13.214266,9.237623,-6.9311604,-3.6523688
1.804,23.213785,39.406673,14.081285,9.144644,-7.136718,-3.776195
1.806,23.92465,39.57059,14.941847,9.046196,-7.328222,-3.9060714
1.808,24.598408,39.69914,15.792683,8.943186,-7.5037494,-4.041386
1.81,25.232862,39.7907,16.630095,8.836468,-7.66166,-4.1813183
1.812,25.826395,39.844185,17.45005,8.726829,-7.800658,-4.3248963
1.814,26.377312,39.859104,18.248177,8.614964,-7.919816,-4.4710283
1.816,26.88435,39.835155,19.020092,8.501383,-8.018666,-4.6186047
1.818,27.346184,39.77262,19.761593,8.386469,-8.097138,-4.7664833
1.82,27.762215,39.67215,20.468311,8.270479,-8.155467,-4.9135528
1.822,28.131954,39.534756,21.13599,8.153542,-8.194275,-5.0588436
1.824,28.455162,39.361794,21.760757,8.035673,-8.214556,-5.201502
1.826,28.732252,39.154778,22.339062,7.9168243,-8.217546,-5.3408327
1.828,28.963581,38.915688,22.867874,7.7969313,-8.204575,-5.47634
1.83,29.149822,38.646736,23.344208,7.675965,-8.176998,-5.6077404
1.832,29.292244,38.350502,23.765732,7.55391,-8.136136,-5.734975
1.834,29.392147,38.029488,24.130598,7.430852,-8.083206,-5.858203
1.836,29.451406,37.68656,24.437462,7.306959,-8.019272,-5.9778013
1.838,29.472012,37.3246,24.68512,7.182432,-7.9452305,-6.094296
1.84,29.456306,36.94662,24.87313,7.057531,-7.861803,-6.20826
1.842,29.406818,36.555676,25.001238,6.932468,-7.7695665,-6.3202515
1.844,29.326633,36.154892,25.069681,6.807377,-7.668977,-6.430748
1.846,29.218771,35.747414,25.079052,6.6822486,-7.560404,-6.5400553
1.848,29.086716,35.33632,25.030249,6.5568886,-7.444136,-6.648242
1.85,28.934301,34.92451,24.924305,6.430887,-7.3203955,-6.7551007
1.852,28.765331,34.514984,24.7627,6.303651,-7.1893806,-6.860174
1.854,28.583689,34.11056,24.54697,6.1743984,-7.05128,-6.9627542
1.856,28.39341,33.71411,24.278965,6.0422735,-6.9062524,-7.061967
1.858,28.198622,33.328186,23.960686,5.9063993,-6.7544236,-7.156784
1.86,28.00322,32.955055,23.594212,5.765972,-6.5959597,-7.2461343
1.862,27.8112,32.59694,23.182089,5.6203566,-6.4311256,-7.3289795
1.864,27.626255,32.255764,22.726933,5.469144,-6.260268,-7.4043794
1.866,27.451927,31.932907,22.23157,5.3122416,-6.0838118,-7.4715133
1.868,27.291275,31.629654,21.699318,5.1498556,-5.902324,-7.529787
1.87,27.146954,31.346626,21.133324,4.982483,-5.716547,-7.578797
1.872,27.021168,31.08425,20.537327,4.81085,-5.5274515,-7.618415
1.874,26.91558,30.842365,19.91523,4.6358433,-5.336236,-7.648758
1.876,26.83099,30.620714,19.271345,4.458457,-5.1441855,-7.6701365
1.878,26.768177,30.418398,18.609894,4.279718,-4.952706,-7.683083
1.88,26.727047,30.234138,17.935751,4.100582,-4.7633467,-7.6883416
1.882,26.706537,30.066702,17.253895,3.9218361,-4.5777817,-7.686782
1.884,26.705017,29.9146,16.569859,3.7440681,-4.3977404,-7.6794066
1.886,26.720387,29.776236,15.888636,3.5676725,-4.224873,-7.667244
1.888,26.75096,29.64953,15.2149105,3.3928018,-4.0607185,-7.651386
1.89,26.794617,29.532427,14.553607,3.2193801,-3.906598,-7.6328735
1.892,26.848179,29.423216,13.909464,3.047192,-3.7635894,-7.6126957
1.894,26.908825,29.319984,13.286844,2.8759184,-3.6324348,-7.591766
1.896,26.973625,29.221092,12.689915,2.705208,-3.5134711,-7.570856
1.898,27.038834,29.12568,12.122305,2.5347753,-3.4066334,-7.550544
1.9,27.102558,29.032166,11.587334,2.3644352,-3.3114655,-7.5312023
1.902,27.161747,28.940214,11.087748,2.1941793,-3.2271514,-7.5129766
1.904,27.21423,28.849415,10.625592,2.0242105,-3.1525373,-7.495798
1.906,27.258038,28.759418,10.202061,1.854931,-3.086226,-7.4794044
1.908,27.291786,28.670418,9.817724,1.6869895,-3.0267262,-7.46341
1.91,27.31399,28.582726,9.4726925,1.5211807,-2.9725964,-7.4473677
1.912,27.324156,28.49688,9.166517,1.3584476,-2.9224489,-7.430848
1.914,27.321932,28.41358,8.898361,1.1998596,-2.8750105,-7.4134774
1.916,27.307552,28.333483,8.666856,1.0465539,-2.8291469,-7.3950343
1.918,27.281242,28.257776,8.470146,0.89964724,-2.7840428,-7.375412
1.92,27.243736,28.187296,8.305923,0.76017976,-2.7392054,-7.354703
1.922,27.195938,28.122974,8.171719,0.62912744,-2.6943054,-7.333101
1.924,27.139057,28.065535,8.064772,0.50736237,-2.6491115,-7.3109026
1.926,27.074423,28.015673,7.9820085,0.39562726,-2.6034665,-7.2884617
1.928,27.003735,27.97388,7.920219,0.29451156,-2.5572038,-7.2661076
1.93,26.92821,27.940632,7.876202,0.2044734,-2.5100627,-7.2440844
1.932,26.849499,27.91627,7.846579,0.12583426,-2.4616601,-7.2225075
1.934,26.768953,27.900822,7.8279357,0.058789313,-2.411501,-7.201339
1.936,26.687826,27.894203,7.8168287,0.0034253001,-2.359034,-7.180361
1.938,26.607256,27.896126,7.8102117,-0.04027617,-2.3036625,-7.159197
1.94,26.528273,27.905813,7.805238,-0.07243568,-2.2448714,-7.137325
1.942,26.451366,27.922611,7.798973,-0.0932439,-2.1822531,-7.1141105
1.944,26.377419,27.945475,7.788649,-0.10294986,-2.1155486,-7.088867
1.946,26.306604,27.973112,7.771733,-0.10190695,-2.0446417,-7.060916
1.948,26.239061,28.004372,7.745996,-0.09053764,-1.9695694,-7.029648
1.95,26.174406,28.038029,7.7092237,-0.06932567,-1.8904965,-6.994577
1.952,26.112217,28.07283,7.6596117,-0.03880073,-1.8076339,-6.9553957
1.954,26.051912,28.107126,7.5954647,0.00046496093,-1.7212067,-6.9119887
1.956,25.99256,28.139532,7.51534,0.047884732,-1.6314125,-6.864392
1.958,25.93326,28.168367,7.418288,0.1028873,-1.5384264,-6.812786
1.96,25.872587,28.192163,7.303688,0.16490611,-1.4423437,-6.757429
1.962,25.809525,28.209192,7.1711426,0.23338863,-1.3432193,-6.6986237
1.964,25.742485,28.217735,7.020648,0.3078239,-1.2411091,-6.6366963
1.966,25.67015,28.216179,6.852462,0.38769516,-1.1361313,-6.5720024
1.968,25.590986,28.202875,6.6671705,0.4724751,-1.0284927,-6.504866
1.97,25.50374,28.176344,6.465517,0.56163114,-0.9184663,-6.4355693
1.972,25.407011,28.135025,6.248637,0.6546285,-0.80630493,-6.3644032
1.974,25.299538,28.077648,6.017853,0.7509011,-0.6923282,-6.291616
1.976,25.18018,28.003204,5.7748804,0.8498489,-0.57703376,-6.2174573
1.978,25.048264,27.910702,5.5213223,0.9508153,-0.46111393,-6.1421995
1.98,24.903267,27.799492,5.2592344,1.0531156,-0.3454442,-6.066121
1.982,24.744745,27.669132,4.990556,1.1560564,-0.23108697,-5.9895477
1.984,24.572578,27.519573,4.7173557,1.2589424,-0.119297266,-5.9128175
1.986,24.387192,27.350864,4.4415483,1.3610952,-0.011445284,-5.836217
1.988,24.188583,27.16357,4.165493,1.46184,0.09102845,-5.759947
1.99,23.977646,26.958557,3.8911333,1.5605457,0.18674183,-5.684067
1.992,23.755527,26.736744,3.6202402,1.6566133,0.2744217,-5.6084757
1.994,23.523655,26.499468,3.354474,1.7495153,0.35302687,-5.532892
1.996,23.283209,26.248299,3.0957713,1.8387766,0.421772,-5.456897
1.998,23.035187,25.98534,2.8461208,1.9240235,0.48020267,-5.37997
2,22.780863,25.71263,2.6068525,2.0050168,0.52817786,-5.3015738
2.002,22.522121,25.43229,2.3791618,2.0816329,0.5658492,-5.2212176
2.004,22.260538,25.146458,2.163784,2.1538882,0.59360254,-5.138545
2.006,21.997898,24.857378,1.9613185,2.2219424,0.61200774,-5.053427
2.008,21.735928,24.56725,1.7721162,2.28608,0.6217525,-4.9659233
2.01,21.476154,24.278297,1.596067,2.3466651,0.6235751,-4.876376
2.012,21.219967,23.992432,1.4330544,2.4041297,0.6182184,-4.7852936
2.014,20.968706,23.711512,1.2826533,2.458926,0.6063627,-4.693338
2.016,20.723473,23.43726,1.1442661,2.5114675,0.58863056,-4.601215
2.018,20.485405,23.171043,1.017128,2.5621023,0.56554556,-4.5096283
2.02,20.255377,22.91407,0.90038633,2.6110706,0.53751636,-4.4192257
2.022,20.034016,22.667065,0.7928605,2.6585033,0.50484633,-4.3305964
2.024,19.821737,22.430702,0.69358826,2.704417,0.46773565,-4.2442684
2.026,19.618893,22.20538,0.60142565,2.7487237,0.42631423,-4.1606565
2.028,19.425632,21.990921,0.51529217,2.7912693,0.38066912,-4.0800815
2.03,19.241863,21.787258,0.4342873,2.8318586,0.33087432,-4.0027266
2.032,19.067303,21.594168,0.35735917,2.8702745,0.277004,-3.9286597
2.034,18.9017,21.411161,0.28384066,2.9063168,0.21914768,-3.857819
2.036,18.744614,21.237648,0.21314287,2.9398057,0.15740645,-3.7900476
2.038,18.595276,21.072865,0.14475417,2.9706037,0.09189761,-3.7250795
2.04,18.453241,20.915867,0.078415155,2.9986389,0.022750378,-3.6626086
2.042,18.317886,20.765553,0.01378274,3.0239222,-0.04987812,-3.6023254
2.044,18.188217,20.62127,-0.04929185,3.046509,-0.12581086,-3.5439372
2.046,18.063383,20.48233,-0.110936165,3.0665107,-0.20481372,-3.487172
2.048,17.942524,20.347971,-0.17147756,3.0840764,-0.2866217,-3.431819
2.05,17.824804,20.217653,-0.23086596,3.099391,-0.37088406,-3.3777168
2.052,17.709475,20.090845,-0.28912687,3.1126456,-0.45719445,-3.3247766
2.054,17.595573,19.966997,-0.34609413,3.124034,-0.54507995,-3.2729394
2.056,17.482405,19.845705,-0.40176964,3.133771,-0.6340171,-3.2222161
2.058,17.369255,19.72639,-0.45605493,3.1420746,-0.72343826,-3.172652
2.06,17.255535,19.608524,-0.5088401,3.14914,-0.8128214,-3.124322
2.062,17.14069,19.491695,-0.5602844,3.1551676,-0.90168715,-3.0773458
2.064,17.02404,19.375978,-0.61039174,3.1603584,-0.9896389,-3.0318801
2.066,16.905273,19.261005,-0.65920794,3.1648855,-1.0763739,-2.9881325
2.068,16.783798,19.146667,-0.7068951,3.1689126,-1.1616728,-2.946331
2.07,16.65952,19.032917,-0.75363576,3.1725788,-1.2453829,-2.906711
2.072,16.532146,18.919617,-0.79960346,3.1759737,-1.327415,-2.8694835
2.074,16.40166,18.806725,-0.8448833,3.1791441,-1.4077368,-2.8348393
2.076,16.2679,18.694038,-0.88958144,3.1820793,-1.486361,-2.8029604
2.078,16.130991,18.581585,-0.93359685,3.184722,-1.5632799,-2.7739673
2.08,15.990751,18.469147,-0.97680366,3.1869884,-1.6384565,-2.7479463
2.082,15.8473835,18.356707,-1.0191116,3.1887722,-1.711796,-2.7248876
2.084,15.70104,18.244,-1.0602496,3.1899662,-1.7831165,-2.704684
2.086,15.551919,18.130886,-1.0997818,3.190495,-1.8521531,-2.6871185
2.088,15.400147,18.017202,-1.1372182,3.1902993,-1.9185959,-2.6718402
2.09,15.245753,17.902878,-1.1720357,3.189376,-1.9821184,-2.6583996
2.092,15.088855,17.787903,-1.2034881,3.1877632,-2.0424035,-2.6463096
2.094,14.92981,17.672039,-1.2307373,3.1855412,-2.0991788,-2.6350565
2.096,14.768679,17.555363,-1.2528735,3.1828198,-2.1522522,-2.6241574
2.098,14.6057625,17.437847,-1.2692273,3.1797454,-2.2015152,-2.6132202
2.1,14.441316,17.319376,-1.2789855,3.1764615,-2.246911,-2.6019647
2.102,14.275606,17.200026,-1.2814001,3.1731045,-2.2883906,-2.5902095
2.104,14.10899,17.079811,-1.2759109,3.169797,-2.3258963,-2.5778673
2.106,13.941924,16.958765,-1.2621256,3.1666298,-2.3592887,-2.5649056
2.108,13.7745695,16.837147,-1.2398262,3.163669,-2.3883216,-2.5513375
2.11,13.607397,16.71524,-1.209002,3.1609612,-2.412616,-2.537133
2.112,13.440835,16.59326,-1.1701037,3.1585655,-2.4316807,-2.5222418
2.114,13.27541,16.47163,-1.1234108,3.156574,-2.4449039,-2.5065758
2.116,13.11157,16.35053,-1.069659,3.15514,-2.4516337,-2.489992
2.118,12.94951,16.230385,-1.0097737,3.1544776,-2.4512477,-2.4723213
2.12,12.789894,16.111538,-0.94474787,3.154869,-2.4431996,-2.4533815
2.122,12.632992,15.994457,-0.8758966,3.1566677,-2.4270968,-2.4330316
2.124,12.479153,15.879495,-0.8045766,3.1602664,-2.4027507,-2.4111512
2.126,12.328957,15.76709,-0.73217607,3.1660843,-2.3702104,-2.3876653
2.128,12.182669,15.6574745,-0.66025317,3.1745214,-2.3297477,-2.362547
2.13,12.040649,15.551017,-0.5903597,3.1859314,-2.2818685,-2.3357644
2.132,11.903152,15.448033,-0.5238071,3.2005901,-2.227291,-2.3073184
2.134,11.770468,15.348543,-0.4620428,3.2186813,-2.1669416,-2.2772217
2.136,11.64275,15.25265,-0.4062732,3.240265,-2.1018507,-2.2455535
2.138,11.52022,15.160497,-0.35750997,3.265325,-2.0331497,-2.2124383
2.14,11.402957,15.072041,-0.3166625,3.2937326,-1.96199,-2.1780453
2.142,11.291181,14.987158,-0.28431213,3.325303,-1.8894885,-2.1426013
2.144,11.184893,14.905732,-0.26094615,3.3597891,-1.8166608,-2.1063647
2.146,11.0839815,14.827554,-0.24688572,3.3969312,-1.7443929,-2.0695958
2.148,10.988472,14.752565,-0.24202102,3.4364398,-1.6734076,-2.0325603
2.15,10.898239,14.680552,-0.24625432,3.4780238,-1.6042539,-1.995512
2.152,10.813278,14.611301,-0.25926536,3.5214047,-1.5372981,-1.9586725
2.154,10.733767,14.5442915,-0.28060576,3.5663323,-1.4727478,-1.9222431
2.156,10.659818,14.47913,-0.30971128,3.6125689,-1.4106834,-1.8863864
2.158,10.591412,14.415536,-0.34604716,3.6598992,-1.3510787,-1.8512164
2.16,10.528657,14.353121,-0.38916904,3.708138,-1.2938323,-1.816803
2.162,10.471378,14.291602,-0.43842822,3.757119,-1.2388308,-1.7831571
2.164,10.419664,14.230909,-0.49326015,3.8066728,-1.1859813,-1.7502556
2.166,10.373609,14.17066,-0.5531032,3.8566284,-1.1352375,-1.718022
2.168,10.333123,14.110859,-0.6173148,3.906816,-1.0866044,-1.686373
2.17,10.298295,14.051442,-0.6853633,3.9570463,-1.0401592,-1.6552231
2.172,10.269165,13.992178,-0.7566463,4.0071077,-0.99604774,-1.62449
2.174,10.24571,13.933032,-0.8307632,4.0567923,-0.9544771,-1.5941068
2.176,10.227954,13.874072,-0.90724987,4.1058707,-0.9156618,-1.5640016
2.178,10.215727,13.815384,-0.9858172,4.1541243,-0.8798306,-1.5341538
2.18,10.209102,13.756907,-1.0660572,4.201359,-0.84716904,-1.5045426
2.182,10.207867,13.698902,-1.1477306,4.2473803,-0.817852,-1.4751465
2.184,10.211865,13.641532,-1.2306497,4.2920275,-0.79201937,-1.4459599
2.186,10.221095,13.585079,-1.3146467,4.3351836,-0.76978433,-1.4169756
2.188,10.235255,13.529697,-1.3996556,4.3767734,-0.7512026,-1.388198
2.19,10.254334,13.475732,-1.4855527,4.416769,-0.7363033,-1.3596151
2.192,10.278086,13.423372,-1.5722957,4.4551663,-0.7250793,-1.3312167
2.194,10.306242,13.372963,-1.6597865,4.4920063,-0.71750224,-1.302994
2.196,10.33861,13.324764,-1.748082,4.52734,-0.7135346,-1.2749369
2.198,10.374847,13.27896,-1.8369846,4.561223,-0.71312594,-1.2470493
2.2,10.414823,13.235857,-1.9264601,4.59372,-0.71620345,-1.2193364
2.202,10.458419,13.195504,-2.0163238,4.624897,-0.7226745,-1.191804
2.204,10.505109,13.158258,-2.1064234,4.654825,-0.7324133,-1.1644459
2.206,10.55466,13.1240635,-2.196569,4.683564,-0.7452743,-1.1372476
2.208,10.60692,13.09304,-2.286442,4.711175,-0.76109946,-1.1101899
2.21,10.661596,13.06528,-2.3756711,4.737719,-0.7796966,-1.0832329
2.212,10.7185,13.040793,-2.4638867,4.763239,-0.80087113,-1.056339
2.214,10.777154,13.019461,-2.550519,4.7877665,-0.82442725,-1.0294771
2.216,10.837525,13.0012245,-2.6349769,4.8113317,-0.8501904,-1.0026587
2.218,10.899377,12.985859,-2.716599,4.833957,-0.8779917,-0.9759042
2.22,10.96247,12.973162,-2.7946596,4.8556423,-0.9077016,-0.94927436
2.222,11.026587,12.962836,-2.8683772,4.8763647,-0.93924725,-0.9228444
2.224,11.09152,12.954685,-2.9370666,4.8960886,-0.9726012,-0.89671034
2.226,11.157173,12.948316,-3.000002,4.914752,-1.0077692,-0.87095714
2.228,11.223412,12.943364,-3.0565338,4.9322586,-1.0448027,-0.84566736
2.23,11.289997,12.939429,-3.1059036,4.948502,-1.0837947,-0.82091737
2.232,11.356697,12.936138,-3.147524,4.9633517,-1.1248267,-0.79673934
2.234,11.42356,12.933053,-3.1809256,4.9766583,-1.1679733,-0.77314293
2.236,11.49005,12.929787,-3.205751,4.9883013,-1.2132523,-0.7500795
2.238,11.556188,12.926105,-3.221708,4.9981613,-1.2606376,-0.72749674
2.24,11.621843,12.921552,-3.228626,5.006124,-1.3100715,-0.7053509
2.242,11.68676,12.915819,-3.2264779,5.012144,-1.3614203,-0.6835667
2.244,11.750878,12.908744,-3.2153423,5.016247,-1.4144735,-0.6620722
2.246,11.814,12.899967,-3.1955185,5.018544,-1.4689552,-0.64081675
2.248,11.875941,12.8893,-3.1674612,5.019216,-1.5245639,-0.61976326
2.25,11.936643,12.876506,-3.1316366,5.018539,-1.5809575,-0.5988837
2.252,11.995797,12.861305,-3.0885842,5.0168533,-1.63781,-0.5781408
2.254,12.053302,12.843589,-3.039055,5.0145373,-1.6948259,-0.55749935
2.256,12.1090145,12.823302,-2.983672,5.0119963,-1.7517489,-0.5369262
2.258,12.162687,12.800245,-2.9234016,5.009615,-1.8083612,-0.5163547
2.26,12.214186,12.7743845,-2.8589034,5.007754,-1.8645086,-0.49571955
2.262,12.263319,12.745636,-2.7909088,5.00672,-1.9200735,-0.47494608
2.264,12.310032,12.71406,-2.7202933,5.006759,-1.974994,-0.45396388
2.266,12.354051,12.6795225,-2.647733,5.0080414,-2.0292077,-0.43269622
2.268,12.395355,12.642024,-2.5738811,5.010664,-2.0826945,-0.41108036
2.27,12.433765,12.6016445,-2.4992607,5.014671,-2.135423,-0.38905644
2.272,12.469352,12.558349,-2.4243534,5.0200415,-2.1873536,-0.3666116
2.274,12.501925,12.512256,-2.3495643,5.0267315,-2.2384305,-0.34374046
2.276,12.531456,12.463536,-2.2751014,5.0346794,-2.2885818,-0.32047427
2.278,12.558175,12.412102,-2.2012353,5.0438204,-2.337689,-0.29684657
2.28,12.581953,12.35811,-2.1279402,5.0540934,-2.3856106,-0.27291006
2.282,12.602797,12.301839,-2.0552897,5.0654545,-2.4321833,-0.24869126
2.284,12.620829,12.243382,-1.9830508,5.077881,-2.4772189,-0.22419822
2.286,12.63601,12.182987,-1.911053,5.091365,-2.5205245,-0.19941115
2.288,12.648792,12.120949,-1.8389765,5.105918,-2.561892,-0.17427468
2.29,12.658969,12.057676,-1.766698,5.12156,-2.6011372,-0.14872289
2.292,12.666985,11.993406,-1.6938393,5.1383266,-2.6380682,-0.12267053
2.294,12.673016,11.92853,-1.619978,5.1562557,-2.6725104,-0.096004486
2.296,12.677199,11.863466,-1.5447937,5.175356,-2.7043417,-0.06863892
2.298,12.679855,11.798804,-1.4679698,5.195614,-2.7335002,-0.040491104
2.3,12.681227,11.73484,-1.3890927,5.2169886,-2.7599423,-0.011490822
2.302,12.681912,11.671992,-1.3077835,5.2394238,-2.783633,0.018437266
2.304,12.682455,11.610516,-1.2238818,5.262842,-2.8045995,0.04933858
2.306,12.682964,11.551092,-1.1370125,5.287138,-2.8228707,0.08127105
2.308,12.683882,11.494269,-1.0471513,5.3121977,-2.8384948,0.11429405
2.31,12.685486,11.440492,-0.9540481,5.3378873,-2.8515348,0.14846432
2.312,12.6881,11.390398,-0.8576073,5.364075,-2.8620691,0.18384194
2.314,12.692115,11.344477,-0.7578387,5.39063,-2.8701835,0.22049129
2.316,12.698019,11.303114,-0.654742,5.4174137,-2.87597,0.25845253
2.318,12.706056,11.266626,-0.54836583,5.444306,-2.8795512,0.29773545
2.32,12.716362,11.235361,-0.43896013,5.4711986,-2.8810794,0.33831203
2.322,12.729083,11.209391,-0.32661176,5.4979954,-2.8807063,0.38011897
2.324,12.744668,11.188916,-0.2115705,5.5245786,-2.8786511,0.42304265
2.326,12.762944,11.173935,-0.09397572,5.5508432,-2.875176,0.46689522
2.328,12.784036,11.164362,0.026066184,5.5766807,-2.870572,0.5113901
2.33,12.807623,11.1601,0.14844263,5.601979,-2.8651505,0.55620134
2.332,12.833752,11.160893,0.2731493,5.626633,-2.8592594,0.60094935
2.334,12.861862,11.166404,0.4003657,5.650542,-2.8532615,0.64526427
2.336,12.891598,11.176484,0.5302107,5.673578,-2.8475041,0.68878317
2.338,12.922479,11.190638,0.66296977,5.6956253,-2.842339,0.7311729
2.34,12.953655,11.2086525,0.79905385,5.716584,-2.8381062,0.77214366
2.342,12.984545,11.230193,0.939015,5.736369,-2.835076,0.8115009
2.344,13.014013,11.255223,1.0834162,5.754928,-2.8334384,0.8491683
2.346,13.041336,11.283415,1.2330477,5.7722187,-2.8332791,0.8852495
2.348,13.065402,11.3146,1.3886112,5.7882633,-2.8345633,0.920017
2.35,13.08503,11.348836,1.5508806,5.8031497,-2.8370838,0.9539157
2.352,13.099048,11.386257,1.7207117,5.8170037,-2.840489,0.98757243
2.354,13.106007,11.427054,1.8988708,5.8300047,-2.8442764,1.0217055
2.356,13.104831,11.471648,2.0862195,5.8424025,-2.8478045,1.0571326
2.358,13.094477,11.520325,2.2834582,5.854471,-2.850324,1.094663
2.36,13.073566,11.5737505,2.491123,5.866522,-2.8510175,1.1350143
2.362,13.041111,11.632505,2.7096035,5.8788614,-2.849078,1.1788058
2.364,12.996138,11.697116,2.9391072,5.8917913,-2.8437428,1.2264644
2.366,12.937837,11.767983,3.1796756,5.9055643,-2.8343296,1.2782297
2.368,12.865505,11.845694,3.4311433,5.9203825,-2.820296,1.334158
2.37,12.778407,11.930616,3.693159,5.936388,-2.801292,1.3941576
2.372,12.676008,12.023132,3.9651144,5.953622,-2.7771437,1.4580104
2.374,12.557854,12.123215,4.246354,5.9720383,-2.7478914,1.525398
2.376,12.423677,12.230974,4.5360456,5.9915175,-2.713766,1.5959681
2.378,12.27324,12.346296,4.833202,6.011856,-2.6751566,1.6693482
2.38,12.106504,12.468838,5.1367383,6.0327735,-2.6326108,1.7451936
2.382,11.923552,12.598259,5.445546,6.053896,-2.5868196,1.8231853
2.384,11.724624,12.733747,5.7583046,6.0747957,-2.538551,1.9029734
2.386,11.51022,12.874563,6.0737696,6.095011,-2.4886227,1.9842181
2.388,11.28093,13.019532,6.3905177,6.1140404,-2.4378579,2.0665722
2.39,11.037917,13.167343,6.7071114,6.131366,-2.3870635,2.1496954
2.392,10.782124,13.316558,7.022095,6.146452,-2.3369908,2.2332757
2.394,10.514458,13.465689,7.334017,6.1587896,-2.288299,2.317044
2.396,10.236217,13.613267,7.641471,6.1678877,-2.2415967,2.4007564
2.398,9.948681,13.757585,7.943111,6.1733117,-2.1973815,2.4841893
2.4,9.653362,13.89726,8.237759,6.174708,-2.1560578,2.5671325
2.402,9.351591,14.030697,8.524232,6.1717887,-2.1179295,2.649369
2.404,9.044975,14.156438,8.801444,6.164325,-2.0832205,2.7306986
2.406,8.735166,14.273138,9.068565,6.152201,-2.0520513,2.8109388
2.408,8.423399,14.379527,9.3248205,6.135356,-2.0244803,2.8899212
2.41,8.111051,14.474791,9.56966,6.113806,-2.000487,2.9674747
2.412,7.7991333,14.558249,9.802736,6.0876646,-1.979944,3.0434422
2.414,7.4886584,14.6293745,10.023964,6.057099,-1.9626292,3.1177225
2.416,7.1808333,14.687756,10.233267,6.022376,-1.9481993,3.1902401
2.418,6.8761964,14.7333355,10.431261,5.983824,-1.9362203,3.2609868
2.42,6.575289,14.766298,10.618375,5.9418163,-1.9262073,3.3300104
2.422,6.2780433,14.786934,10.795419,5.896723,-1.9176499,3.3973792
2.424,5.9842706,14.795999,10.963384,5.848913,-1.9100425,3.4631472
2.426,5.6932907,14.794481,11.123497,5.798709,-1.9029607,3.5273142
2.428,5.4042687,14.783492,11.277063,5.746347,-1.8960716,3.589809
2.43,5.1162944,14.764303,11.425635,5.691984,-1.8891497,3.650466
2.432,4.8281693,14.738377,11.570649,5.6356707,-1.8821114,3.7090187
2.434,4.5382814,14.70708,11.713641,5.5773835,-1.8749695,3.7651343
2.436,4.2451425,14.671861,11.856137,5.5170283,-1.8678155,3.8184557
2.438,3.9470167,14.634189,11.999451,5.4544525,-1.8608174,3.8686633
2.44,3.6424608,14.595366,12.145006,5.389486,-1.8541735,3.9154997
2.442,3.3298075,14.556631,12.293784,5.321974,-1.8480947,3.9588008
2.444,3.0079246,14.519032,12.446639,5.251766,-1.8428104,3.998516
2.446,2.6755786,14.483128,12.604316,5.1787243,-1.83858,4.0346785
2.448,2.3318624,14.449557,12.767214,5.1027255,-1.8356884,4.0673614
2.45,1.9760156,14.418552,12.935589,5.023654,-1.8344373,4.096669
2.452,1.6073279,14.390292,13.109566,4.941416,-1.8351997,4.1227417
2.454,1.2252936,14.364727,13.289282,4.855934,-1.8383763,4.145708
2.456,0.8295114,14.341751,13.474569,4.767167,-1.8444014,4.1657143
2.458,0.42012835,14.321008,13.665242,4.6751466,-1.85373,4.182906
2.46,-0.0026148558,14.301975,13.860993,4.5799727,-1.8668053,4.1974382
2.462,-0.43810725,14.2841,14.061503,4.481815,-1.8840338,4.2095094
2.464,-0.88576734,14.266678,14.266357,4.3809347,-1.9057581,4.2193584
2.466,-1.3448051,14.249012,14.475094,4.277653,-1.9322487,4.227276
2.468,-1.8145853,14.230349,14.687373,4.1723514,-1.9636532,4.233568
2.47,-2.2939076,14.209885,14.902748,4.065443,-2.000001,4.2385616
2.472,-2.782095,14.186759,15.120935,3.9573317,-2.041176,4.242569
2.474,-3.2784574,14.160316,15.341628,3.8484387,-2.0868797,4.2458506
2.476,-3.782401,14.12998,15.564585,3.7391987,-2.136634,4.2486343
2.478,-4.293393,14.095141,15.78962,3.6300046,-2.1898165,4.251113
2.48,-4.811007,14.055387,16.016508,3.5212436,-2.2456768,4.2534237
2.482,-5.334986,14.0102825,16.245268,3.413275,-2.3033452,4.2556057
2.484,-5.865136,13.959642,16.475716,3.30644,-2.3618584,4.25764
2.486,-6.401441,13.903347,16.70779,3.201094,-2.420188,4.259436
2.488,-6.944298,13.841448,16.941442,3.0975602,-2.4772902,4.2608624
2.49,-7.4939384,13.774039,17.176626,2.9961724,-2.5321624,4.2617445
2.492,-8.050747,13.701261,17.413248,2.8972569,-2.5838494,4.2619047
2.494,-8.615253,13.6234665,17.651114,2.8011086,-2.6314921,4.2611694
2.496,-9.187989,13.540905,17.88994,2.7080286,-2.6743116,4.259415
2.498,-9.769679,13.454349,18.129393,2.6183116,-2.7116227,4.2565866
2.5,-10.361295,13.3645,18.368967,2.5322733,-2.7428007,4.2527275
2.502,-10.963043,13.271957,18.608173,2.450216,-2.7672668,4.248018
2.504,-11.574893,13.177317,18.846218,2.3724637,-2.784474,4.2427053
2.506,-12.196604,13.081028,19.082138,2.2993655,-2.7938309,4.237104
2.508,-12.828285,12.983639,19.314796,2.2312865,-2.7947187,4.231583
2.51,-13.469803,12.885805,19.543053,2.16858,-2.7864842,4.2264814
2.512,-14.120649,12.788374,19.765495,2.1116083,-2.768424,4.222098
2.514,-14.780267,12.692066,19.980701,2.060679,-2.7398355,4.218642
2.516,-15.447723,12.597673,20.186972,2.0160394,-2.7000675,4.21621
2.518,-16.121582,12.505991,20.38234,1.9778028,-2.6485515,4.214771
2.52,-16.800041,12.417704,20.564678,1.9459586,-2.5848472,4.2141647
2.522,-17.481125,12.333306,20.731483,1.9203086,-2.5086899,4.2141743
2.524,-18.162588,12.253366,20.880373,1.9004557,-2.4199743,4.2145357
2.526,-18.841778,12.178165,21.00872,1.8858044,-2.318812,4.214999
2.528,-19.515926,12.108166,21.113703,1.8755385,-2.2055657,4.215375
2.53,-20.1819,12.043443,21.192764,1.8686516,-2.0808268,4.2155128
2.532,-20.836409,11.984293,21.243416,1.8640094,-1.9454019,4.2152996
2.534,-21.476189,11.930487,21.26333,1.8603957,-1.8002887,4.214672
2.536,-22.097956,11.881907,21.250618,1.8565714,-1.646691,4.2135577
2.538,-22.698587,11.838205,21.203753,1.8513298,-1.4860405,4.211808
2.54,-23.275059,11.799023,21.12167,1.8434954,-1.3200049,4.209181
2.542,-23.824526,11.763693,21.003922,1.8319826,-1.1504903,4.2052464
2.544,-24.344305,11.731548,20.850533,1.8158119,-0.9796158,4.1993914
2.546,-24.832275,11.701952,20.662382,1.79411,-0.80971575,4.1908317
2.548,-25.286463,11.674192,20.440905,1.7661266,-0.64329386,4.1786413
2.55,-25.705488,11.647505,20.18816,1.7312121,-0.48295474,4.1618004
2.552,-26.088612,11.621281,19.907007,1.6888505,-0.33130908,4.13931
2.554,-26.43528,11.59476,19.600721,1.6386639,-0.19086671,4.110262
2.556,-26.74557,11.567415,19.273064,1.5804179,-0.06390166,4.073929
2.558,-27.019922,11.538647,18.928335,1.5140463,0.047685623,4.0298223
2.56,-27.258982,11.507987,18.570995,1.4396502,0.14243853,3.9777064
2.562,-27.46371,11.474834,18.205566,1.3575019,0.21946692,3.9175837
2.564,-27.63539,11.4388075,17.836689,1.2680104,0.278445,3.849677
2.566,-27.77551,11.399574,17.468824,1.1716886,0.31957293,3.774362
2.568,-27.885946,11.356902,17.10641,1.0691485,0.34352946,3.6921124
2.57,-27.968872,11.310722,16.753523,0.9610575,0.35141993,3.6034427
2.572,-28.026033,11.260847,16.413946,0.8481161,0.34459734,3.5088763
2.574,-28.059456,11.207326,16.091053,0.730998,0.32451928,3.408883
2.576,-28.07121,11.150277,15.787714,0.61036843,0.2926638,3.3038676
2.578,-28.06302,11.089755,15.506196,0.48689622,0.25044107,3.194194
2.58,-28.036674,11.025992,15.248398,0.36122686,0.19918144,3.080192
2.582,-27.993507,10.959236,15.015568,0.23400196,0.14011621,2.9621801
2.584,-27.93489,10.889652,14.808445,0.10588235,0.07438123,2.8404868
2.586,-27.861961,10.817448,14.627174,-0.0224576,0.0030279756,2.7154613
2.588,-27.775724,10.742755,14.471581,-0.1503318,-0.072901905,2.587496
2.59,-27.677069,10.665848,14.340903,-0.2770337,-0.15239233,2.457049
2.592,-27.566822,10.586918,14.234022,-0.40185416,-0.23433602,2.324633
2.594,-27.445724,10.506234,14.149534,-0.5240428,-0.31754464,2.190842
2.596,-27.314442,10.424083,14.085805,-0.6428474,-0.40077937,2.0563698
2.598,-27.173332,10.340583,14.040954,-0.75752574,-0.4827583,1.9219828
2.6,-27.023136,10.256312,14.012918,-0.8673446,-0.56218946,1.7884998
2.602,-26.864304,10.171489,13.999683,-0.9716028,-0.63777435,1.6567875
2.604,-26.697441,10.086666,13.999123,-1.069627,-0.7082298,1.5277246
2.606,-26.522917,10.002347,14.009054,-1.1608038,-0.7722997,1.4021527
2.608,-26.341072,9.919025,14.0273,-1.2445852,-0.8288065,1.280859
2.61,-26.152027,9.83704,14.051683,-1.320517,-0.87665546,1.1645443
2.612,-25.95627,9.756907,14.079937,-1.3882581,-0.9148694,1.0538193
2.614,-25.754192,9.679112,14.109953,-1.4475935,-0.94261336,0.94919634
2.616,-25.5461,9.604212,14.139724,-1.4984419,-0.95925725,0.851041
2.618,-25.332052,9.532589,14.167292,-1.5408461,-0.9643526,0.75958705
2.62,-25.111801,9.464323,14.190505,-1.574991,-0.95767045,0.6749186
2.622,-24.885244,9.399483,14.207687,-1.6011968,-0.9392189,0.5969838
2.624,-24.652287,9.338009,14.217224,-1.6199049,-0.9092647,0.5256119
2.626,-24.41289,9.279797,14.217816,-1.6316518,-0.868273,0.4605196
2.628,-24.167137,9.224802,14.208504,-1.6370407,-0.8169025,0.4013528
2.63,-23.915247,9.172712,14.188595,-1.6367515,-0.75599444,0.34768012
2.632,-23.657122,9.123388,14.157846,-1.6315043,-0.68655217,0.29902995
2.634,-23.392878,9.076576,14.116058,-1.6220239,-0.6096804,0.25492212
2.636,-23.122803,9.031911,14.063278,-1.6090386,-0.52655846,0.21486908
2.638,-22.846975,8.988923,13.99996,-1.5932578,-0.438385,0.17839381
2.64,-22.565735,8.947428,13.92661,-1.575341,-0.34634128,0.14505252
2.642,-22.27941,8.906944,13.843866,-1.5559016,-0.25157088,0.114426985
2.644,-21.988262,8.867226,13.752657,-1.5354627,-0.15509254,0.086141154
2.646,-21.692654,8.828024,13.653783,-1.5144691,-0.05783406,0.059879005
2.648,-21.393003,8.7890625,13.548231,-1.4932841,0.039429307,0.035375983
2.65,-21.089745,8.750043,13.437103,-1.4721885,0.1360819,0.012404054
2.652,-20.783545,8.710944,13.321259,-1.4513879,0.2316857,-0.009209305
2.654,-20.474922,8.671715,13.201845,-1.4310138,0.32596466,-0.02957794
2.656,-20.164406,8.632206,13.079608,-1.4111434,0.41878754,-0.048793882
2.658,-19.852535,8.592346,12.955493,-1.3918017,0.5101628,-0.06691483
2.66,-19.540045,8.55217,12.830164,-1.3729842,0.60020167,-0.08397263
2.662,-19.22723,8.511629,12.704292,-1.3546607,0.68912536,-0.09997541
2.664,-18.914797,8.470758,12.578389,-1.3367878,0.77720296,-0.1149281
2.666,-18.603159,8.429661,12.45289,-1.3193071,0.8647612,-0.12882188
2.668,-18.292786,8.388329,12.32796,-1.3021724,0.9521371,-0.14167082
2.67,-17.984056,8.346678,12.203658,-1.2853397,1.0396781,-0.1534617
2.672,-17.67743,8.304968,12.080009,-1.2687681,1.1276996,-0.16419369
2.674,-17.373146,8.26302,11.956832,-1.2524319,1.2165005,-0.17387113
2.676,-17.07164,8.220971,11.833846,-1.236315,1.3063368,-0.18249637
2.678,-16.773186,8.178839,11.710852,-1.220392,1.3974109,-0.19008172
2.68,-16.477774,8.136568,11.58737,-1.2046566,1.4898763,-0.19661999
2.682,-16.185953,8.094287,11.462869,-1.1891083,1.5838288,-0.20210135
2.684,-15.897606,8.051884,11.336838,-1.1737447,1.6792996,-0.2065019
2.686,-15.612944,8.009344,11.208817,-1.1585789,1.7762675,-0.20980161
2.688,-15.332039,7.9667234,11.078302,-1.143631,1.8746359,-0.21199417
2.69,-15.055008,7.9239106,10.944724,-1.1289225,1.9742556,-0.21306169
2.692,-14.781879,7.8809066,10.807617,-1.1144968,2.0748932,-0.21299303
2.694,-14.512573,7.8376245,10.66655,-1.1004219,2.1762538,-0.21181345
2.696,-14.247154,7.7940507,10.521349,-1.0867728,2.2779708,-0.20957029
2.698,-13.985538,7.7501497,10.371671,-1.073654,2.379605,-0.20634311
2.7,-13.727561,7.7056656,10.217509,-1.0611854,2.4806747,-0.20224744
2.702,-13.473192,7.660564,10.058754,-1.049495,2.580661,-0.19744557
2.704,-13.222378,7.614729,9.89555,-1.0387077,2.6790495,-0.19210118
2.706,-12.9748955,7.568098,9.727986,-1.0289329,2.775313,-0.18640035
2.708,-12.730776,7.52063,9.556421,-1.0202565,2.868977,-0.18053603
2.71,-12.489906,7.472068,9.381192,-1.0127158,2.959631,-0.17466712
2.712,-12.252123,7.422508,9.202755,-1.0063105,3.0469408,-0.16893864
2.714,-12.0172415,7.371848,9.021568,-1.0009918,3.130669,-0.16345608
2.716,-11.785332,7.3200474,8.83825,-0.996664,3.210686,-0.15827787
2.718,-11.556197,7.267003,8.653402,-0.99318624,3.2869604,-0.15342963
2.72,-11.329725,7.2126513,8.467556,-0.99039984,3.359553,-0.1488874
2.722,-11.105789,7.157078,8.2814245,-0.9881211,3.4286253,-0.14459074
2.724,-10.884367,7.1003394,8.095587,-0.9861754,3.4944077,-0.14046776
2.726,-10.665451,7.0423965,7.910575,-0.9843919,3.5571878,-0.13642919
2.728,-10.448774,6.98336,7.726922,-0.9826048,3.6173046,-0.13235974
2.73,-10.234236,6.9233084,7.545208,-0.9806669,3.6751237,-0.12816525
2.732,-10.021783,6.862341,7.365876,-0.9784584,3.7310247,-0.1237607
2.734,-9.811322,6.800699,7.1890125,-0.9758603,3.785382,-0.11908209
2.736,-9.602734,6.7384806,7.015001,-0.9727854,3.8385582,-0.114073515
2.738,-9.39585,6.6757603,6.8441243,-0.96915674,3.890883,-0.10869026
2.74,-9.190652,6.6129103,6.676388,-0.9649035,3.9426472,-0.10290241
2.742,-8.98707,6.5500875,6.511714,-0.9599763,3.9940915,-0.09668827
2.744,-8.784959,6.487447,6.350121,-0.9543484,4.045408,-0.09006274
2.746,-8.58421,6.4252653,6.1915913,-0.9479969,4.0967607,-0.08304262
2.748,-8.384805,6.3637567,6.0358834,-0.9409053,4.1482496,-0.075656176
2.75,-8.186644,6.30303,5.8828416,-0.9330775,4.1999207,-0.067944765
2.752,-7.9898314,6.243313,5.7322755,-0.9245217,4.2518044,-0.059962273
2.754,-7.7943115,6.184845,5.5838833,-0.9152438,4.303876,-0.05178106
2.756,-7.59997,6.1277833,5.43747,-0.9052796,4.3560834,-0.04345584
2.758,-7.406713,6.0723,5.29274,-0.8946649,4.4083323,-0.035057545
2.76,-7.214734,6.018708,5.149368,-0.8834485,4.460522,-0.026654243
2.762,-7.0239215,5.9670496,5.0073195,-0.87168497,4.512527,-0.01830256
2.764,-6.834442,5.9175715,4.8662634,-0.85943866,4.564196,-0.010049701
2.766,-6.646259,5.870392,4.7261705,-0.8467755,4.6153684,-0.001917243
2.768,-6.459546,5.825782,4.5867915,-0.8337672,4.6658874,0.0060663223
2.77,-6.2743335,5.783942,4.4480343,-0.82047206,4.7155795,0.013878942
2.772,-6.090849,5.7449865,4.3098574,-0.80695444,4.7642817,0.021537542
2.774,-5.9090757,5.709163,4.172269,-0.79328614,4.8118334,0.029032707
2.776,-5.729186,5.676605,4.0351954,-0.77950937,4.8580856,0.036371946
2.778,-5.5512743,5.647534,3.898667,-0.7656633,4.9028997,0.043573618
2.78,-5.375538,5.6221046,3.7628055,-0.7517691,4.9461746,0.05064106
2.782,-5.2020054,5.600328,3.6276786,-0.73783827,4.9878225,0.057585
2.784,-5.0309386,5.5825467,3.4933999,-0.72388196,5.0277905,0.06441307
2.786,-4.862407,5.5687156,3.3602288,-0.7098969,5.0660524,0.07114053
2.788,-4.696496,5.5590744,3.2281349,-0.69586885,5.102607,0.07776928
2.79,-4.5332947,5.553604,3.0975041,-0.68176913,5.137475,0.08429313
2.792,-4.372905,5.552474,2.9684818,-0.66758597,5.1706815,0.090697765
2.794,-4.2154207,5.5557327,2.8412542,-0.6533228,5.202251,0.09695697
2.796,-4.060841,5.563409,2.716015,-0.63896143,5.2322235,0.103052855
2.798,-3.9093192,5.5756297,2.59299,-0.6245078,5.26062,0.10896826
2.8,-3.7608,5.592387,2.4723747,-0.60997593,5.2874546,0.11466479
2.802,-3.615189,5.6137643,2.3543947,-0.59540236,5.312736,0.12013006
2.804,-3.4726694,5.6397734,2.2392058,-0.580827,5.336471,0.12534237
2.806,-3.3328896,5.6703615,2.1268904,-0.5663111,5.3586574,0.1302917
2.808,-3.195928,5.7055407,2.0175745,-0.55191654,5.3793063,0.13498807
2.81,-3.0616198,5.745419,1.9113297,-0.5377013,5.3984375,0.13942337
2.812,-2.9298556,5.7900305,1.8082745,-0.5237393,5.4160986,0.1436081
2.814,-2.8003685,5.839249,1.7083912,-0.51009226,5.4323444,0.14756417
2.816,-2.6730714,5.8931403,1.6117568,-0.49680197,5.447248,0.15130615
2.818,-2.5475864,5.9516754,1.5182736,-0.48389757,5.460909,0.15485883
2.82,-2.4236696,6.014883,1.4279397,-0.4713835,5.473445,0.15824962
2.822,-2.3010302,6.0827,1.3405223,-0.45924246,5.48499,0.16150856
2.824,-2.1794097,6.1550846,1.2560906,-0.4474458,5.4956865,0.16467977
2.826,-2.058302,6.231903,1.1743381,-0.43594456,5.5056767,0.1677978
2.828,-1.9374979,6.3130436,1.0950596,-0.4246782,5.515106,0.17090297
2.83,-1.816555,6.3984013,1.018112,-0.41359705,5.524102,0.17402029
2.832,-1.6951623,6.487788,0.9431169,-0.40264863,5.532775,0.17716861
2.834,-1.5728476,6.580967,0.8697915,-0.3918017,5.5412045,0.18036151
2.836,-1.4491313,6.677746,0.79785776,-0.3810385,5.5494347,0.18357849
2.838,-1.3237122,6.777837,0.72697306,-0.37034112,5.557482,0.18678069
2.84,-1.1962888,6.8808513,0.6568699,-0.35972828,5.5653405,0.18991327
2.842,-1.0663998,6.9865723,0.5871556,-0.3492437,5.572957,0.19290161
2.844,-0.9336435,7.0944757,0.5176816,-0.33893746,5.5802565,0.19564152
2.846,-0.79796964,7.2043138,0.44811773,-0.32887983,5.587131,0.19801855
2.848,-0.65896887,7.315646,0.37812352,-0.31916112,5.593446,0.19991374
2.85,-0.5164931,7.42795,0.3074565,-0.30990112,5.5990105,0.20118308
2.852,-0.3703795,7.5408216,0.2360754,-0.30121368,5.6036224,0.20170665
2.854,-0.22070765,7.653861,0.16385913,-0.29323012,5.6070323,0.20136523
2.856,-0.06730524,7.7664976,0.090649605,-0.2860863,5.608974,0.20003843
2.858,0.08970803,7.878352,0.016323805,-0.27992293,5.6091576,0.19763398
2.86,0.2502596,7.98899,-0.05911565,-0.27488357,5.6072774,0.19407511
2.862,0.4142926,8.097967,-0.13562894,-0.2711231,5.603027,0.18927908
2.864,0.5815221,8.204695,-0.21313357,-0.26880592,5.5961094,0.18319249
2.866,0.7514734,8.308809,-0.29157162,-0.26807642,5.5862412,0.17576098
2.868,0.9238677,8.409855,-0.3707528,-0.26909846,5.5731764,0.16693473
2.87,1.0983523,8.507383,-0.45069408,-0.2720357,5.556712,0.15667748
2.872,1.2743896,8.60101,-0.5312853,-0.2770393,5.5366893,0.1449604
2.874,1.4516499,8.690325,-0.6123657,-0.28424758,5.5129747,0.13175416
2.876,1.6294737,8.775099,-0.69389033,-0.2937634,5.4855013,0.117049456
2.878,1.8040149,8.854322,-0.7732148,-0.30568245,5.454239,0.100841284
2.88,1.9774064,8.928236,-0.8521712,-0.32005998,5.4191976,0.08314109
2.882,2.1488724,8.9967785,-0.9306257,-0.33692032,5.380406,0.06399083
2.884,2.317703,9.059711,-1.0084138,-0.35626215,5.3379097,0.043455362
2.886,2.4832678,9.116983,-1.0853009,-0.37805608,5.291782,0.021600246
2.888,2.6448584,9.168543,-1.1611261,-0.4022358,5.2421036,-0.001491785
2.89,2.801892,9.214471,-1.2357609,-0.42871833,5.1889687,-0.025703192
2.892,2.953703,9.254866,-1.3090105,-0.4574119,5.1324897,-0.050908327
2.894,3.0998454,9.289885,-1.3807414,-0.48818138,5.072789,-0.076979876
2.896,3.2398844,9.319856,-1.4508028,-0.52088535,5.0100203,-0.10376692
2.898,3.373354,9.344969,-1.519022,-0.5553737,4.9443417,-0.13110542
2.9,3.499991,9.365653,-1.5853753,-0.59147006,4.875938,-0.15882063
2.902,3.6196861,9.3821335,-1.6496663,-0.6289947,4.8049965,-0.18673801
2.904,3.732191,9.394929,-1.7117925,-0.66777325,4.7317286,-0.21468484
2.906,3.8375487,9.404406,-1.7716718,-0.70607406,4.6593275,-0.24160278
2.908,3.9358532,9.410927,-1.8292682,-0.7444271,4.5866504,-0.2677884
2.91,4.027249,9.414899,-1.8844287,-0.78236985,4.514491,-0.2929721
2.912,4.111792,9.4167,-1.9372325,-0.81943756,4.443682,-0.31691575
2.914,4.189909,9.416687,-1.9875951,-0.85517746,4.375075,-0.33941197
2.916,4.261721,9.415222,-2.0355248,-0.8891853,4.309456,-0.36030102
2.918,4.327633,9.412598,-2.0810337,-0.9211329,4.247493,-0.37948656
2.92,4.387905,9.409039,-2.1241407,-0.9507958,4.1896973,-0.39693165
2.922,4.443073,9.404713,-2.1649394,-0.9780428,4.136382,-0.41266072
2.924,4.4933844,9.39995,-2.2034278,-1.0028427,4.0876727,-0.42674375
2.926,4.5392985,9.394779,-2.2397785,-1.0252512,4.043515,-0.43929088
2.928,4.58106,9.389392,-2.2740796,-1.045392,4.003734,-0.45042706
