Time_s_,Acc_x_m_s_2_,Acc_y_m_s_2_,Acc_z_m_s_2_,Gyro_x_1_s_,Gyro_y_1_s_,Gyro_z_1_s_
0,0.6250907,-0.36190587,-0.7840488,-0.27287537,-0.78277403,0.45920277
0.002,0.64061105,-0.3627796,-0.754039,-0.28866476,-0.8146082,0.4552055
0.004,0.6538332,-0.361845,-0.7199721,-0.30603778,-0.849725,0.450917
0.006,0.6640849,-0.35905236,-0.6814399,-0.3249855,-0.8881078,0.44637942
0.008,0.6712004,-0.3539886,-0.63832915,-0.34540838,-0.92951816,0.44168338
0.01,0.6744372,-0.34631607,-0.59047633,-0.36709508,-0.97342575,0.43695852
0.012,0.6731771,-0.3355994,-0.5377581,-0.38968006,-1.0189439,0.43237707
0.014,0.666665,-0.3213985,-0.48025903,-0.41263434,-1.064801,0.4281695
0.016,0.6543719,-0.30345434,-0.41838828,-0.43526703,-1.1093416,0.4246251
0.018,0.6356619,-0.28138387,-0.35273057,-0.45675266,-1.1505593,0.42207423
0.02,0.61027557,-0.25507167,-0.28397113,-0.47617358,-1.186224,0.42086226
0.022,0.5778044,-0.22424057,-0.21291037,-0.49258417,-1.2140524,0.42132092
0.024,0.53770375,-0.18865743,-0.14055747,-0.5050931,-1.2318923,0.42376027
0.026,0.4897011,-0.14820628,-0.06789931,-0.5129289,-1.2378988,0.42842945
0.028,0.4334249,-0.10285658,0.0039098263,-0.5161262,-1.2318339,0.43538725
0.03,0.36887443,-0.052717716,0.073656306,-0.5134063,-1.2111211,0.44488546
0.032,0.29622263,0.0019976646,0.13991518,-0.5048029,-1.1758528,0.4568475
0.034,0.21574037,0.06101621,0.20126083,-0.49056402,-1.1266723,0.47108683
0.036,0.12792277,0.12390955,0.25630358,-0.47115195,-1.0647821,0.48731783
0.038,0.033459455,0.19013768,0.3036896,-0.4472492,-0.99186563,0.50517654
0.04,-0.06703739,0.259123,0.34203932,-0.41967803,-0.91002274,0.52421534
0.042,-0.17251542,0.3301881,0.37034068,-0.38935953,-0.8216009,0.5439021
0.044,-0.28190464,0.40257347,0.38762638,-0.35726383,-0.72908175,0.56365097
0.046,-0.39376384,0.47533756,0.39302155,-0.32436198,-0.63496286,0.58286405
0.048,-0.50665116,0.54757696,0.38592535,-0.2915855,-0.5416942,0.6009237
0.05,-0.6193506,0.6184797,0.36624667,-0.25981233,-0.45160034,0.6172566
0.052,-0.7303132,0.6873486,0.33414856,-0.22985345,-0.3668141,0.63133144
0.054,-0.8382616,0.7534549,0.28991082,-0.20245403,-0.28924683,0.6426825
0.056,-0.9422096,0.8166066,0.23487055,-0.17826788,-0.22055657,0.65094274
0.058,-1.0399868,0.8753031,0.169054,-0.15787144,-0.16214547,0.65583867
0.06,-1.130412,0.92902774,0.093960665,-0.14178273,-0.11515656,0.65720636
0.062,-1.2125083,0.9772845,0.01118657,-0.13041747,-0.08049154,0.65496945
0.064,-1.2852575,1.0200111,-0.07760537,-0.12409004,-0.05881387,0.64914227
0.066,-1.3477503,1.0569928,-0.17042395,-0.12300731,-0.05052936,0.6398127
0.068,-1.3993022,1.088053,-0.26537496,-0.1272331,-0.055777103,0.6271219
0.07,-1.4394248,1.113311,-0.36056948,-0.13667883,-0.074406266,0.6112517
0.072,-1.4677423,1.1328621,-0.45418185,-0.15108103,-0.105972655,0.5924144
0.074,-1.4843563,1.1470157,-0.5443282,-0.1699991,-0.14967035,0.5708672
0.076,-1.4892154,1.1562073,-0.6293835,-0.19281888,-0.20433754,0.5469124
0.078,-1.4825385,1.1610537,-0.7076441,-0.21878994,-0.26847446,0.5208769
0.08,-1.4648261,1.1620827,-0.7775638,-0.24706739,-0.34029764,0.49312788
0.082,-1.4364467,1.1599892,-0.8380829,-0.27670878,-0.41772407,0.46406627
0.084,-1.3977611,1.1552975,-0.8885845,-0.3067441,-0.49842313,0.43412316
0.086,-1.3496828,1.1486394,-0.92864764,-0.33617672,-0.57991415,0.40373713
0.088,-1.292793,1.1404207,-0.95807624,-0.36405087,-0.65970755,0.37337387
0.09,-1.2278771,1.1311727,-0.97720146,-0.3894975,-0.73539627,0.34348205
0.092,-1.1557328,1.1214576,-0.98617685,-0.4117406,-0.80477357,0.3144847
0.094,-1.0771517,1.1116571,-0.9854634,-0.43013996,-0.86591244,0.28675276
0.096,-0.99305093,1.1024463,-0.97586,-0.44422644,-0.9172896,0.26059115
0.098,-0.90419275,1.0941658,-0.95829856,-0.45370308,-0.95782244,0.23622006
0.1,-0.8113458,1.0871446,-0.933897,-0.45846716,-0.986928,0.2137672
0.102,-0.71555835,1.0816815,-0.90376806,-0.45857564,-1.0044993,0.19329232
0.104,-0.61733925,1.0779389,-0.869135,-0.4542388,-1.0108521,0.1747705
0.106,-0.5174112,1.0759768,-0.8310643,-0.4457978,-1.0067027,0.15809372
0.108,-0.4164236,1.0758841,-0.7905341,-0.4337216,-0.99314237,0.14307624
0.11,-0.31505522,1.0777917,-0.74866664,-0.4185579,-0.9714621,0.12950388
0.112,-0.21381707,1.081783,-0.70635223,-0.40089047,-0.94302404,0.11715105
0.114,-0.11365281,1.0877322,-0.66456616,-0.38129532,-0.90921247,0.10579175
0.116,-0.014997795,1.0957965,-0.6240867,-0.36035514,-0.87136626,0.09519938
0.118,0.08114347,1.1059726,-0.58520585,-0.33859557,-0.83066857,0.08518034
0.12,0.17413846,1.118353,-0.54822475,-0.3164875,-0.78814876,0.075611204
0.122,0.26322716,1.1330739,-0.51336944,-0.2944339,-0.7446319,0.06642534
0.124,0.34776643,1.1503377,-0.4808001,-0.2727592,-0.7007375,0.05759695
0.126,0.42694134,1.1704395,-0.45027688,-0.25171036,-0.65687394,0.04916869
0.128,0.50003916,1.1936805,-0.42146093,-0.23145731,-0.6133027,0.041211456
0.13,0.5660529,1.220557,-0.3938172,-0.21210727,-0.57015073,0.03383018
0.132,0.6240837,1.2514343,-0.36702502,-0.19369277,-0.5274534,0.027145654
0.134,0.6736395,1.2866484,-0.34059864,-0.17618573,-0.4851951,0.021271914
0.136,0.71396965,1.3265538,-0.3143214,-0.15952343,-0.443378,0.016316488
0.138,0.74440455,1.3714492,-0.2877859,-0.14361984,-0.4020223,0.012358621
0.14,0.7643238,1.4217696,-0.26076502,-0.12838992,-0.3611494,0.009443261
0.142,0.7730032,1.4779416,-0.23276305,-0.11373167,-0.32076442,0.0075725242
0.144,0.76992965,1.5403867,-0.20337975,-0.09951591,-0.28085494,0.006697491
0.146,0.75451607,1.6095097,-0.17237991,-0.08563036,-0.24141,0.006743811
0.148,0.7262968,1.6855514,-0.139489,-0.071958125,-0.20238051,0.0076287463
0.15,0.68530947,1.7686641,-0.1044395,-0.058382016,-0.1636723,0.009261709
0.152,0.6312209,1.859059,-0.067230344,-0.044804413,-0.12514383,0.0115433745
0.154,0.5641993,1.9566882,-0.027655303,-0.031130131,-0.08661388,0.014363904
0.156,0.48428035,2.0614438,0.0143255,-0.017261958,-0.047872793,0.017599154
0.158,0.3920943,2.172928,0.05856508,-0.0031178053,-0.008723507,0.021145599
0.16,0.28849125,2.2905035,0.10469493,0.01138666,0.03107068,0.024925645
0.162,0.17414367,2.4134197,0.1523931,0.026343644,0.07177253,0.028851457
0.164,0.049803853,2.5407226,0.2015174,0.04182949,0.11357322,0.03279399
0.166,-0.08376324,2.671704,0.2515607,0.05791137,0.15658022,0.036618985
0.168,-0.22563791,2.8053682,0.30239475,0.07465452,0.20087944,0.040201474
0.17,-0.3745798,2.9407477,0.3536039,0.092159405,0.24653277,0.04343233
0.172,-0.52914953,3.0766842,0.4046421,0.11054002,0.29353642,0.046182718
0.174,-0.68782544,3.2118523,0.45499742,0.12994571,0.34188092,0.048289105
0.176,-0.84880304,3.3450525,0.5040795,0.15056446,0.39154506,0.049572505
0.178,-1.0104561,3.475161,0.55114025,0.17259412,0.44251114,0.049858578
0.18,-1.170866,3.600937,0.595495,0.19625807,0.4947595,0.048983485
0.182,-1.3282266,3.7210999,0.6366246,0.22175714,0.5482832,0.046797633
0.184,-1.4806716,3.8344128,0.67384964,0.24924931,0.6030334,0.043161392
0.186,-1.626277,3.9398093,0.7066422,0.2788072,0.65892005,0.037971452
0.188,-1.7631989,4.0363894,0.73431575,0.3104035,0.715734,0.031168997
0.19,-1.8897312,4.1234436,0.75645924,0.34385484,0.77306646,0.022705376
0.192,-2.0046356,4.2005863,0.7731464,0.37883225,0.8303014,0.01254645
0.194,-2.1068773,4.2675333,0.7848354,0.41486016,0.8865716,0.00069877505
0.196,-2.1953075,4.3242455,0.7918039,0.4513015,0.9407408,-0.012826651
0.198,-2.269051,4.371138,0.7948118,0.48736686,0.99142575,-0.02803269
0.2,-2.3280468,4.4086514,0.7947343,0.5222027,1.0370734,-0.044960737
0.202,-2.3717318,4.4370456,0.7924715,0.5548944,1.0760546,-0.06369501
0.204,-2.400155,4.4571395,0.7888754,0.5845659,1.106819,-0.08433691
0.206,-2.4135299,4.469647,0.7850487,0.6104507,1.1280291,-0.106972605
0.208,-2.4125185,4.4756765,0.78204215,0.6319566,1.1387522,-0.13165852
0.21,-2.3980122,4.476267,0.78144366,0.64872074,1.1385399,-0.15837026
0.212,-2.3710096,4.472744,0.7852768,0.66065204,1.1275066,-0.18700656
0.214,-2.3332005,4.466508,0.7951765,0.66797036,1.1063616,-0.2173343
0.216,-2.285789,4.4588175,0.81258535,0.6712074,1.076432,-0.24896872
0.218,-2.230206,4.450761,0.83872837,0.67115784,1.0395513,-0.28141928
0.22,-2.1680999,4.443543,0.8744098,0.6688338,0.9979515,-0.31418765
0.222,-2.101347,4.4382644,0.9211326,0.6654126,0.9541271,-0.3467601
0.224,-2.0314574,4.4361544,0.979874,0.6621468,0.9107151,-0.3786281
0.226,-1.9606864,4.4382405,1.0507183,0.6603033,0.8703412,-0.40934786
0.228,-1.8907316,4.4455433,1.1324232,0.66107404,0.8354609,-0.43855003
0.23,-1.8217561,4.4579,1.22493,0.66548884,0.8082333,-0.46592456
0.232,-1.7545723,4.475239,1.3297838,0.67442447,0.79048383,-0.49121556
0.234,-1.6905413,4.4980426,1.4468799,0.6885025,0.7836866,-0.51421905
0.236,-1.6296566,4.525846,1.5747297,0.70813215,0.788952,-0.53474677
0.238,-1.5716914,4.557783,1.7117565,0.73347473,0.8069819,-0.55262184
0.24,-1.5164329,4.592786,1.856355,0.7644303,0.8379921,-0.56768537
0.242,-1.4629325,4.6295652,2.0065217,0.8006426,0.88179314,-0.5798087
0.244,-1.4108338,4.6670156,2.1603103,0.8415568,0.9378542,-0.5889165
0.246,-1.359745,4.704222,2.315411,0.8864625,1.0053132,-0.59500784
0.248,-1.3094165,4.740546,2.4694452,0.934522,1.082978,-0.5981763
0.25,-1.2591345,4.7748737,2.620214,0.98482525,1.1694192,-0.59858835
0.252,-1.2079535,4.805916,2.7655382,1.036404,1.2629282,-0.59647906
0.254,-1.1547313,4.8323,2.9035716,1.0882456,1.3615661,-0.5921288
0.256,-1.098506,4.852793,3.0328288,1.1393529,1.4632735,-0.5858395
0.258,-1.038213,4.866249,3.15226,1.1887591,1.5659266,-0.5779515
0.26,-0.97294545,4.8715334,3.261139,1.2354149,1.6671467,-0.5688678
0.262,-0.9015176,4.86744,3.3589635,1.2781835,1.7642585,-0.5589447
0.264,-0.82303715,4.8532267,3.4450529,1.3160696,1.8550085,-0.5485393
0.266,-0.73637986,4.82811,3.5194144,1.3481293,1.9374232,-0.5380839
0.268,-0.6418648,4.792077,3.5827541,1.3734465,2.009573,-0.52804726
0.27,-0.53873754,4.744756,3.6354017,1.3912878,2.069873,-0.51888883
0.272,-0.42635894,4.6857624,3.677092,1.4011927,2.117259,-0.51097625
0.274,-0.30396628,4.6151743,3.7076316,1.4029335,2.1510172,-0.50461316
0.276,-0.17175913,4.5330467,3.7274384,1.3965157,2.1707873,-0.50004596
0.278,-0.029910088,4.4395847,3.736661,1.3821654,2.1765747,-0.49747902
0.28,0.12070775,4.3354545,3.7360168,1.3602731,2.1686943,-0.4969973
0.282,0.27905798,4.22128,3.7275555,1.3313868,2.1477475,-0.49855834
0.284,0.4447682,4.0973725,3.711774,1.2961545,2.1145573,-0.5020312
0.286,0.6173353,3.9645982,3.688274,1.2552433,2.07004,-0.50721
0.288,0.7958882,3.8253005,3.6557605,1.2093577,2.015113,-0.5138254
0.29,0.97753024,3.6787558,3.6200242,1.1591827,1.9506574,-0.5215339
0.292,1.1603122,3.5277867,3.5807848,1.1054536,1.8775146,-0.5299392
0.294,1.3415997,3.3749087,3.5395856,1.0489503,1.7965254,-0.53864616
0.296,1.5180666,3.222278,3.498962,0.9904901,1.7084417,-0.54729754
0.298,1.6860398,3.0720875,3.4615328,0.9309462,1.6139716,-0.5556084
0.3,1.8441557,2.925506,3.4277236,0.87128013,1.5141251,-0.5633371
0.302,1.9926841,2.7831578,3.3973713,0.81253177,1.4103677,-0.5702169
0.304,2.1299684,2.646472,3.3711898,0.7558501,1.3046615,-0.5759665
0.306,2.253622,2.5168338,3.3503003,0.7024993,1.199617,-0.5802922
0.308,2.362351,2.3950782,3.333999,0.6538455,1.0984994,-0.58286285
0.31,2.455488,2.2820666,3.3216805,0.6112919,1.005047,-0.58331996
0.312,2.5320141,2.1787214,3.3125625,0.5761731,0.9232851,-0.5812926
0.314,2.5914867,2.0856566,3.3056927,0.5497894,0.8574914,-0.57631886
0.316,2.6339803,2.003035,3.2998552,0.53331935,0.81164825,-0.56803685
0.318,2.6599262,1.9303186,3.293745,0.52752507,0.78849316,-0.5563099
0.32,2.6702082,1.8668487,3.2853632,0.53286046,0.7896445,-0.54116523
0.322,2.6662726,1.8113849,3.2723923,0.5493561,0.81554234,-0.52284265
0.324,2.649766,1.7625453,3.252808,0.57646435,0.86503994,-0.5018822
0.326,2.6219578,1.7190534,3.2252493,0.61308277,0.93543464,-0.4791826
0.328,2.5840957,1.6796342,3.1884484,0.65775883,1.0229168,-0.45578596
0.33,2.5378869,1.6428508,3.1417542,0.70880497,1.1229283,-0.43272927
0.332,2.4851942,1.607211,3.0838332,0.76427186,1.2301562,-0.41093758
0.334,2.4281964,1.5709937,3.0141845,0.8221864,1.3390403,-0.39138412
0.336,2.369535,1.5324922,2.9330301,0.8807624,1.4445381,-0.37513041
0.338,2.3115745,1.4899569,2.841365,0.9384358,1.542479,-0.3630625
0.34,2.2541637,1.4432907,2.7378812,0.99392676,1.6297317,-0.3558092
0.342,2.1982608,1.3920093,2.619443,1.0463408,1.7045372,-0.35371435
0.344,2.145899,1.3351799,2.4860232,1.095269,1.7665609,-0.35687184
0.346,2.0979307,1.2730714,2.3396251,1.1407189,1.8167368,-0.36514723
0.348,2.0557337,1.2062421,2.1824198,1.1830913,1.8570039,-0.37813234
0.35,2.0206642,1.135283,2.0155177,1.2230624,1.8900349,-0.39515024
0.352,1.9937601,1.0604621,1.8397827,1.2614522,1.9187561,-0.4153191
0.354,1.9764302,0.98185045,1.6557438,1.2990649,1.9457829,-0.43773246
0.356,1.969735,0.89968395,1.464603,1.3365644,1.9731894,-0.4615966
0.358,1.9745942,0.81513596,1.2669314,1.3743418,2.0023162,-0.4862262
0.36,1.9906399,0.7298986,1.0630965,1.412466,2.0335543,-0.51112527
0.362,2.0172074,0.64611995,0.8531809,1.4506102,2.0663033,-0.53606707
0.364,2.0535808,0.5658588,0.6370176,1.4881063,2.0991147,-0.5610568
0.366,2.098814,0.49127746,0.41465634,1.5240479,2.1299424,-0.58626914
0.368,2.1518106,0.42457074,0.18699771,1.5573571,2.1563678,-0.6120727
0.37,2.210718,0.36784357,-0.044570267,1.5869128,2.1760128,-0.6388384
0.372,2.2736015,0.32333553,-0.27791047,1.6116595,2.186695,-0.6667891
0.374,2.3385587,0.29280627,-0.5103253,1.6306905,2.1864252,-0.6960039
0.376,2.4037247,0.27798063,-0.738721,1.643326,2.1735888,-0.7264634
0.378,2.4681768,0.2796312,-0.95978475,1.649191,2.147067,-0.7579997
0.38,2.5292845,0.29904747,-1.1696811,1.6482322,2.1063125,-0.7903368
0.382,2.5847754,0.33690798,-1.3643031,1.640619,2.0512376,-0.8232415
0.384,2.633041,0.3931759,-1.5396817,1.6266747,1.9819643,-0.85650223
0.386,2.6737027,0.4670505,-1.692146,1.6069479,1.8991582,-0.8898144
0.388,2.704543,0.55805457,-1.8164954,1.582013,1.8037865,-0.9228262
0.39,2.722442,0.6654271,-1.9072423,1.5523939,1.6968181,-0.9552291
0.392,2.7255225,0.7885092,-1.9614704,1.5186493,1.5793893,-0.9869227
0.394,2.712946,0.9261141,-1.9768858,1.4813113,1.4529161,-1.0179288
0.396,2.6839347,1.0759704,-1.9507109,1.4408715,1.319015,-1.0483317
0.398,2.6371768,1.2349468,-1.880218,1.3978002,1.1795818,-1.0781802
0.4,2.5725784,1.4030744,-1.7701638,1.3526802,1.0369322,-1.1074016
0.402,2.4893625,1.5768977,-1.6198833,1.306255,0.89374757,-1.1358161
0.404,2.3877907,1.7538061,-1.4317214,1.2594955,0.752987,-1.1631447
0.406,2.2680469,1.9317267,-1.2091317,1.2135692,0.6178508,-1.1890147
0.408,2.1304955,2.1088452,-0.95622087,1.169819,0.49164015,-1.2130013
0.41,1.9732747,2.2845345,-0.67636096,1.1296493,0.37756038,-1.2346749
0.412,1.7947193,2.4582782,-0.37423468,1.0944022,0.2785354,-1.2536933
0.414,1.5964986,2.6287193,-0.05653,1.0652113,0.19708894,-1.2697922
0.416,1.3815687,2.7944648,0.26959622,1.0429476,0.13513616,-1.2827972
0.418,1.1522713,2.9546108,0.5980166,1.0280559,0.09379866,-1.2927891
0.42,0.91191655,3.1082017,0.9223108,1.0205904,0.073525086,-1.300038
0.422,0.66446054,3.2543085,1.2359891,1.0202931,0.07429011,-1.3048975
0.424,0.41459084,3.3920083,1.5333071,1.0266408,0.09540304,-1.3078398
0.426,0.16714942,3.5206947,1.8091105,1.0389109,0.13532105,-1.3095503
0.428,-0.07217276,3.639896,2.0589607,1.0562664,0.19184926,-1.310864
0.43,-0.29738808,3.7491722,2.2792811,1.0778348,0.26222175,-1.3126259
0.432,-0.5027454,3.8478699,2.4675286,1.1026545,0.34298652,-1.3156474
0.434,-0.6822988,3.9353528,2.6221309,1.1296517,0.43004057,-1.3206735
0.436,-0.8299897,4.010514,2.7423315,1.157716,0.5189312,-1.3283197
0.438,-0.9399135,4.0723567,2.828157,1.18577,0.60522246,-1.3390754
0.44,-1.0071645,4.1200805,2.880357,1.2127953,0.6845744,-1.3532455
0.442,-1.027195,4.1524878,2.9008732,1.2378557,0.7529909,-1.370748
0.444,-0.9967439,4.168983,2.8922641,1.2601223,0.8069875,-1.3911817
0.446,-0.9136245,4.169057,2.8579304,1.2788383,0.84378445,-1.4139495
0.448,-0.7766597,4.152359,2.8016272,1.2933624,0.86138797,-1.4383458
0.45,-0.58503306,4.118399,2.7284305,1.3030453,0.85860014,-1.4635653
0.452,-0.33953428,4.0671177,2.6436493,1.3072274,0.8349865,-1.4887855
0.454,-0.04354906,3.9989433,2.551638,1.3052661,0.7908002,-1.5132433
0.456,0.2988026,3.9147232,2.455635,1.2965779,0.7269405,-1.5362335
0.458,0.68201923,3.8156526,2.3587873,1.2806727,0.6448237,-1.5571133
0.46,1.1001185,3.7035007,2.2654786,1.2572727,0.5462437,-1.5752933
0.462,1.5456593,3.5808375,2.1805148,1.2263782,0.43336913,-1.5902567
0.464,2.0108235,3.4504082,2.1076264,1.1884038,0.3087393,-1.6015486
0.466,2.4876854,3.3146625,2.049581,1.1441866,0.17523426,-1.6087718
0.468,2.9679103,3.1755362,2.0086462,1.0949996,0.036072217,-1.6116375
0.47,3.4432113,3.0353844,1.9865972,1.0424719,-0.105190754,-1.609983
0.472,3.9045072,2.8970175,1.9846938,0.9885018,-0.24476409,-1.6036557
0.474,4.343118,2.7635157,2.0042715,0.93502504,-0.3789123,-1.5925894
0.476,4.75088,2.638155,2.0457973,0.8838266,-0.50417566,-1.5768468
0.478,5.1198983,2.5241451,2.1081052,0.83643186,-0.6172357,-1.5565312
0.48,5.4436626,2.424547,2.189624,0.7940898,-0.71487767,-1.5317053
0.482,5.7160807,2.341905,2.2879694,0.757676,-0.7944445,-1.5025088
0.484,5.9322166,2.2787957,2.399249,0.7276845,-0.85407317,-1.4691935
0.486,6.0881724,2.2371483,2.5195775,0.704368,-0.8925679,-1.4320326
0.488,6.1813087,2.218379,2.6449547,0.6877874,-0.9094161,-1.3913105
0.49,6.2104588,2.2233686,2.7710867,0.67783034,-0.9048687,-1.3473976
0.492,6.175391,2.2529426,2.8938956,0.6742646,-0.87985784,-1.3007678
0.494,6.0763655,2.307322,3.009582,0.67678964,-0.8358432,-1.2519593
0.496,5.914283,2.386528,3.1139581,0.6850908,-0.7746376,-1.2015562
0.498,5.69288,2.4892716,3.201849,0.69888425,-0.6983013,-1.150194
0.5,5.417467,2.6137483,3.268497,0.7179744,-0.60903996,-1.0985845
0.502,5.092537,2.7576156,3.3114977,0.7422079,-0.5091649,-1.0474857
0.504,4.722045,2.9186082,3.3305025,0.77155703,-0.40097734,-0.99768007
0.506,4.311534,3.094396,3.3246226,0.806064,-0.2866553,-0.94996643
0.508,3.868298,3.2819805,3.29298,0.8457976,-0.16825983,-0.90521663
0.51,3.4001148,3.4776933,3.2352333,0.8908789,-0.0476205,-0.8643534
0.512,2.9144669,3.6776404,3.1521373,0.94148344,0.07381539,-0.8282863
0.514,2.4185798,3.8780553,3.0450358,0.99775106,0.19493088,-0.7978238
0.516,1.9200985,4.075306,2.915686,1.0597761,0.3147257,-0.77368164
0.518,1.4262227,4.2660823,2.7666755,1.1275656,0.43240392,-0.75636864
0.52,0.94411826,4.4468412,2.6014633,1.200998,0.5473602,-0.7460877
0.522,0.48001635,4.614469,2.4241023,1.2797036,0.65896416,-0.7428102
0.524,0.039422512,4.766023,2.238719,1.3630614,0.7664859,-0.746287
0.526,-0.37249637,4.8988147,2.0492303,1.4502051,0.8691435,-0.7560563
0.528,-0.7511256,5.010677,1.85967,1.5400531,0.9659671,-0.7715416
0.53,-1.0926265,5.09965,1.6736683,1.6313093,1.055778,-0.79213715
0.532,-1.3936695,5.1642694,1.4947691,1.7225622,1.1371018,-0.8172678
0.534,-1.6514392,5.203351,1.3261098,1.812311,1.2081766,-0.84641784
0.536,-1.8639175,5.216325,1.1707538,1.8990586,1.2670183,-0.87920123
0.538,-2.0299802,5.2032223,1.0315341,1.9813771,1.3115201,-0.9153766
0.54,-2.1490147,5.1641436,0.9110267,2.0579326,1.3396177,-0.95484734
0.542,-2.2203484,5.0995913,0.81148994,2.1275969,1.3494483,-0.99757403
0.544,-2.2440567,5.0104256,0.7348167,2.1894643,1.3395457,-1.0434793
0.546,-2.2205832,4.8978705,0.682147,2.2429173,1.3090024,-1.092437
0.548,-2.1509109,4.7632346,0.65451264,2.2876155,1.2576184,-1.1442449
0.55,-2.036063,4.6079216,0.65234137,2.323519,1.186013,-1.1985978
0.552,-1.8779627,4.434038,0.6750425,2.3508852,1.0957367,-1.255065
0.554,-1.6783036,4.2435117,0.7217262,2.3702846,0.9892065,-1.3130552
0.556,-1.4390373,4.0384436,0.79069155,2.3825884,0.86958194,-1.3718563
0.558,-1.1621696,3.8211029,0.87978786,2.3888743,0.7404965,-1.4306753
0.56,-0.84965,3.593583,0.9863279,2.390431,0.6058335,-1.4886421
0.562,-0.503719,3.3581295,1.1074178,2.3886666,0.46958625,-1.5448039
0.564,-0.12590659,3.1167254,1.2395695,2.3850482,0.33559206,-1.5982275
0.566,0.28150004,2.8713715,1.3793353,2.3810277,0.20737326,-1.6480453
0.568,0.71610034,2.6239915,1.5225614,2.3779845,0.08807129,-1.6935171
0.57,1.1760224,2.3760538,1.6653509,2.3771658,-0.0195795,-1.7339681
0.572,1.6591407,2.1291692,1.8037214,2.3796244,-0.11344817,-1.7688582
0.574,2.1629138,1.8848218,1.9342072,2.3862453,-0.19200012,-1.7977976
0.576,2.6851215,1.6444433,2.053424,2.397785,-0.25422025,-1.820406
0.578,3.2233047,1.4092348,2.1585472,2.4148111,-0.2996654,-1.8363303
0.58,3.7749496,1.1804824,2.2465658,2.437707,-0.32853124,-1.8453168
0.582,4.3382425,0.9587505,2.3147678,2.4666524,-0.34151316,-1.847177
0.584,4.9105177,0.7445655,2.3602448,2.5016847,-0.3396988,-1.8417618
0.586,5.4892564,0.5381074,2.3806505,2.5426865,-0.32449025,-1.8290244
0.588,6.071526,0.3396592,2.374553,2.5894005,-0.29756024,-1.809039
0.59,6.654373,0.14947772,2.341022,2.64143,-0.26077777,-1.7819575
0.592,7.234894,-0.032226086,2.2797565,2.698252,-0.21612108,-1.7480047
0.594,7.8099217,-0.20527077,2.191857,2.7592301,-0.16567406,-1.7074939
0.596,8.37626,-0.36933184,2.077897,2.8236084,-0.11158031,-1.6608245
0.598,8.930982,-0.52396154,1.938721,2.8905697,-0.056040227,-1.6084571
0.6,9.471123,-0.668885,1.7761581,2.9592054,-0.0013267994,-1.5508711
0.602,9.994027,-0.80422163,1.5922799,3.0286245,0.050303042,-1.4885575
0.604,10.497417,-0.93002105,1.3892252,3.0979755,0.09660751,-1.4220438
0.606,10.979441,-1.0466392,1.1696613,3.1664712,0.13536662,-1.3518661
0.608,11.438478,-1.1545687,0.93650544,3.2334437,0.16445875,-1.2786179
0.61,11.873157,-1.2545216,0.69312584,3.2983596,0.18200016,-1.2029326
0.612,12.281938,-1.3468978,0.44308996,3.3608608,0.18639362,-1.1254965
0.614,12.663842,-1.4324195,0.19024247,3.4207544,0.17638099,-1.0470006
0.616,13.018487,-1.5120132,-0.061537385,3.4780092,0.15114838,-0.9681377
0.618,13.346142,-1.5870926,-0.30821693,3.5327458,0.11037195,-0.889554
0.62,13.647141,-1.6589775,-0.54551244,3.58524,0.054285645,-0.8118141
0.622,13.922031,-1.7290606,-0.7694402,3.6359127,-0.016295016,-0.735343
0.624,14.171777,-1.7990057,-0.97624826,3.6852784,-0.1000188,-0.6604122
0.626,14.397748,-1.8706973,-1.1629039,3.7339563,-0.19508082,-0.58714825
0.628,14.601641,-1.9460268,-1.3266834,3.7825794,-0.29936194,-0.51552415
0.63,14.785379,-2.0267208,-1.4653645,3.8317528,-0.41057557,-0.44539458
0.632,14.951121,-2.1146762,-1.577009,3.8820143,-0.5263768,-0.37652472
0.634,15.100947,-2.2114468,-1.6603868,3.9337935,-0.64451045,-0.3086075
0.636,15.2366905,-2.3185093,-1.7146058,3.9873714,-0.76295966,-0.2413344
0.638,15.360119,-2.4371293,-1.7396555,4.0428147,-0.88005817,-0.17442492
0.64,15.473309,-2.5682545,-1.7356658,4.099965,-0.9945588,-0.10765397
0.642,15.5792,-2.7130957,-1.701493,4.1584506,-1.1056383,-0.04087459
0.644,15.674107,-2.8698676,-1.638582,4.217703,-1.2128975,0.025964577
0.646,15.758479,-3.038367,-1.5532628,4.2769785,-1.3163478,0.09282284
0.648,15.837979,-3.2198672,-1.4498428,4.3354006,-1.4163378,0.15956339
0.65,15.91176,-3.4129725,-1.3290104,4.392021,-1.5134754,0.22597922
0.652,15.976251,-3.615025,-1.192013,4.445864,-1.6085391,0.2918234
0.654,16.031456,-3.824822,-1.0428776,4.4959726,-1.702434,0.3568105
0.656,16.07912,-4.041039,-0.8863832,4.5413995,-1.7961675,0.42066747
0.658,16.119501,-4.2621365,-0.72647804,4.5813446,-1.8907208,0.48315516
0.66,16.148678,-4.4839964,-0.56762046,4.6151843,-1.9870201,0.5440333
0.662,16.162998,-4.702383,-0.41237146,4.642476,-2.085958,0.60309625
0.664,16.161531,-4.914115,-0.26179382,4.6630163,-2.1884394,0.660161
0.666,16.144104,-5.116238,-0.11865178,4.676821,-2.295328,0.7150774
0.668,16.109432,-5.3063183,0.013681512,4.6841493,-2.4074662,0.7676914
0.67,16.056383,-5.483238,0.13423647,4.685441,-2.525688,0.8178498
0.672,15.984395,-5.645647,0.24355154,4.681231,-2.6509466,0.8653197
0.674,15.892738,-5.790833,0.34107432,4.6722813,-2.7838821,0.90984493
0.676,15.778737,-5.914925,0.4243367,4.6596503,-2.9244483,0.95128083
0.678,15.644312,-6.016952,0.49486443,4.644382,-3.072911,0.98948693
0.68,15.489484,-6.0953555,0.5558898,4.627398,-3.2298567,1.0241591
0.682,15.311515,-6.146995,0.60904694,4.609698,-3.3952422,1.0549678
0.684,15.113614,-6.172756,0.65904117,4.5924425,-3.5681725,1.0817302
0.686,14.897812,-6.17301,0.71022606,4.576908,-3.74726,1.1042287
0.688,14.665782,-6.1477633,0.76439476,4.5644197,-3.9307816,1.122144
0.69,14.421559,-6.099531,0.824945,4.5561976,-4.117017,1.1351361
0.692,14.168812,-6.0307746,0.89627707,4.553323,-4.3042107,1.1430185
0.694,13.911009,-5.943625,0.98254836,4.556923,-4.490075,1.145933
0.696,13.651632,-5.8403435,1.0868621,4.5681295,-4.671877,1.1441138
0.698,13.394659,-5.723311,1.212021,4.5877175,-4.8471785,1.1376555
0.7,13.144005,-5.5952497,1.3608094,4.615999,-5.013988,1.1268368
0.702,12.904033,-5.458914,1.5355173,4.652934,-5.1704073,1.1124306
0.704,12.678937,-5.317123,1.737858,4.698175,-5.314659,1.095447
0.706,12.472589,-5.1726484,1.9688622,4.751,-5.445402,1.0768448
0.708,12.288542,-5.028148,2.2291749,4.8104515,-5.5615783,1.0576539
0.71,12.130331,-4.8860145,2.5187483,4.8756,-5.6620936,1.0390208
0.712,12.000445,-4.7480383,2.8370764,4.9455013,-5.746046,1.0219424
0.714,11.900558,-4.6153827,3.1828718,5.019324,-5.812423,1.0074782
0.716,11.831384,-4.488568,3.5544336,5.0966344,-5.8598194,0.99684393
0.718,11.793031,-4.3676047,3.9498844,5.1772413,-5.8867908,0.99094546
0.72,11.784429,-4.252037,4.366711,5.261034,-5.8921227,0.9904475
0.722,11.80397,-4.1409655,4.8020263,5.3479815,-5.874861,0.9959806
0.724,11.849166,-4.032965,5.252257,5.4379435,-5.8344784,1.0080165
0.726,11.916445,-3.926405,5.713451,5.5305467,-5.770918,1.0268452
0.728,12.001701,-3.8190954,6.1814156,5.6249533,-5.6850286,1.052538
0.73,12.100305,-3.708828,6.651521,5.7199497,-5.5785427,1.0849477
0.732,12.206919,-3.5931373,7.1190825,5.8142314,-5.453068,1.1239511
0.734,12.315912,-3.469316,7.5794067,5.906422,-5.3105536,1.169535
0.736,12.42108,-3.33471,8.028054,5.9949636,-5.1540613,1.2216575
0.738,12.516537,-3.187364,8.46069,6.078248,-4.9873037,1.2802136
0.74,12.596149,-3.0251977,8.873407,6.154872,-4.8140116,1.345182
0.742,12.653649,-2.846205,9.262442,6.2236853,-4.637884,1.4165816
0.744,12.683355,-2.6490197,9.624832,6.283879,-4.462534,1.4942653
0.746,12.680138,-2.4323587,9.957745,6.334893,-4.291768,1.5776727
0.748,12.639501,-2.1957378,10.259172,6.376212,-4.1298504,1.6657751
0.75,12.557673,-1.939162,10.527319,6.4074874,-3.9809742,1.7572985
0.752,12.431004,-1.6629405,10.759346,6.4288106,-3.8484254,1.8508116
0.754,12.261941,-1.3696895,10.955519,6.4406533,-3.734644,1.9444197
0.756,12.048085,-1.0599754,11.119717,6.443683,-3.641418,2.0358536
0.758,11.783957,-0.733598,11.252566,6.438784,-3.5695777,2.1230187
0.76,11.471637,-0.392972,11.352017,6.427186,-3.5186164,2.2043648
0.762,11.11503,-0.041278362,11.418337,6.410336,-3.4869456,2.278741
0.764,10.7144785,0.320194,11.4551325,6.3897247,-3.4722352,2.3453898
0.766,10.270238,0.68962646,11.466295,6.3669305,-3.4713287,2.4042327
0.768,9.785287,1.0645897,11.454319,6.343458,-3.4808059,2.455528
0.77,9.267148,1.4403315,11.422132,6.3204846,-3.4973507,2.4998195
0.772,8.722293,1.8128369,11.370827,6.298973,-3.5176673,2.5381608
0.774,8.154556,2.1795356,11.300463,6.2796583,-3.5387816,2.571712
0.776,7.5679827,2.538393,11.213554,6.262876,-3.5584185,2.6014488
0.778,6.970318,2.8869536,11.112001,6.248627,-3.575201,2.6282492
0.78,6.3668456,3.2246969,10.996658,6.236622,-3.5887015,2.6528678
0.782,5.764221,3.5497465,10.866737,6.226313,-3.5993767,2.6758473
0.784,5.1696734,3.8588495,10.723201,6.216922,-3.608479,2.6974664
0.786,4.591712,4.1484184,10.56898,6.2075744,-3.6178555,2.717729
0.788,4.0345745,4.418088,10.403316,6.19736,-3.6297512,2.7364697
0.79,3.5047455,4.6670394,10.224077,6.185377,-3.6466305,2.7533767
0.792,3.011261,4.8930025,10.032181,6.170802,-3.6710696,2.7680361
0.794,2.5568125,5.097948,9.826472,6.152932,-3.7054954,2.7800496
0.796,2.1451726,5.283112,9.607403,6.1312656,-3.7519708,2.7890258
0.798,1.7801394,5.449417,9.378016,6.1054964,-3.8120801,2.7946823
0.8,1.4627118,5.6000404,9.139908,6.075554,-3.8868003,2.7968726
0.802,1.1939166,5.7377863,8.894055,6.0415874,-3.97651,2.7956014
0.804,0.97381455,5.865136,8.642319,6.003943,-4.080965,2.7910123
0.806,0.8021475,5.9845023,8.38752,5.963151,-4.199295,2.7833512
0.808,0.6768736,6.098552,8.132132,5.9198747,-4.3299727,2.7730157
0.81,0.59450805,6.2104073,7.8782735,5.8748875,-4.470896,2.7604327
0.812,0.55076915,6.323162,7.6280174,5.8289924,-4.619447,2.7461512
0.814,0.5405996,6.4398623,7.383532,5.782981,-4.7727423,2.7308192
0.816,0.55801463,6.5637803,7.1469526,5.7375526,-4.9277267,2.715199
0.818,0.5966014,6.6978483,6.9201097,5.6933136,-5.0813546,2.7001648
0.82,0.64950776,6.844445,6.705056,5.6507263,-5.2308083,2.6865742
0.822,0.7098148,7.00583,6.5030165,5.6100802,-5.373672,2.6751952
0.824,0.77108145,7.1833487,6.3154335,5.571537,-5.508045,2.666656
0.826,0.82677567,7.378037,6.143958,5.5351295,-5.632655,2.6613297
0.828,0.8708683,7.590205,5.989897,5.5008197,-5.7468414,2.6592727
0.83,0.89796287,7.820071,5.854249,5.468498,-5.850547,2.660203
0.832,0.9033181,8.067108,5.738003,5.438066,-5.9442368,2.663544
0.834,0.8830044,8.330643,5.6419344,5.4094014,-6.0287876,2.6684494
0.836,0.83403933,8.609655,5.566594,5.3823867,-6.1053624,2.6739278
0.838,0.75408924,8.902821,5.5122795,5.356967,-6.1751895,2.6789713
0.84,0.64178234,9.208721,5.479155,5.33312,-6.239492,2.6826448
0.842,0.49683398,9.525512,5.467222,5.310868,-6.2993193,2.6841602
0.844,0.31916913,9.851274,5.4763155,5.2903104,-6.355463,2.6829
0.846,0.10971467,10.184173,5.5064116,5.271572,-6.4083767,2.6783972
0.848,-0.12996422,10.522538,5.5572815,5.2547736,-6.4582696,2.6703084
0.85,-0.3977957,10.864321,5.6284246,5.2400455,-6.505046,2.6584208
0.852,-0.6905094,11.207516,5.719103,5.2275105,-6.548374,2.6425943
0.854,-1.0047941,11.550216,5.8282585,5.2172327,-6.5878263,2.6227117
0.856,-1.3371911,11.890601,5.9546614,5.2092257,-6.622886,2.5986867
0.858,-1.6839147,12.22722,6.0966,5.203479,-6.653016,2.5705063
0.86,-2.041248,12.558707,6.2527323,5.199962,-6.677792,2.5382168
0.862,-2.4055085,12.884034,6.421678,5.198592,-6.6969347,2.5018983
0.864,-2.7730594,13.201992,6.6013956,5.199279,-6.7103224,2.4617267
0.866,-3.1397793,13.51141,6.78971,5.201913,-6.7180414,2.417842
0.868,-3.5018516,13.811515,6.9845076,5.2063885,-6.720268,2.370376
0.87,-3.855495,14.101572,7.1833596,5.212615,-6.717288,2.3194294
0.872,-4.1971574,14.3812065,7.38364,5.2205286,-6.7094407,2.2650752
0.874,-4.5237107,14.649905,7.582699,5.230076,-6.6970444,2.207425
0.876,-4.8326864,14.9078455,7.778633,5.2412357,-6.6803927,2.1466248
0.878,-5.121926,15.155641,7.969855,5.253975,-6.659748,2.0828538
0.88,-5.390214,15.394235,8.155109,5.268252,-6.6353292,2.0163836
0.882,-5.63696,15.624845,8.333807,5.284003,-6.6073623,1.9475709
0.884,-5.8617415,15.848791,8.505886,5.3011394,-6.5760374,1.8767923
0.886,-6.064464,16.067284,8.671349,5.3195486,-6.541532,1.8044463
0.888,-6.24719,16.282444,8.831336,5.339102,-6.504044,1.7309148
0.89,-6.409609,16.495506,8.98595,5.359647,-6.4637637,1.6565092
0.892,-6.5538445,16.708519,9.136904,5.380999,-6.420857,1.5814662
0.894,-6.6822944,16.923653,9.286167,5.402959,-6.3754086,1.5059474
0.896,-6.7973666,17.142876,9.435291,5.425318,-6.3273826,1.4300014
0.898,-6.9017835,17.368074,9.586456,5.447846,-6.276657,1.35362
0.9,-6.9988503,17.600744,9.742313,5.470272,-6.2230515,1.2767644
0.902,-7.091998,17.84229,9.905245,5.492301,-6.166306,1.1993697
0.904,-7.184597,18.093712,10.077446,5.5135937,-6.1061254,1.1213228
0.906,-7.279792,18.355375,10.260912,5.5337653,-6.042221,1.0424467
0.908,-7.3803196,18.627283,10.457466,5.552403,-5.974303,0.9625082
0.91,-7.4886026,18.908829,10.668346,5.569065,-5.902182,0.8811941
0.912,-7.606797,19.199223,10.894384,5.583282,-5.8258014,0.79809153
0.914,-7.736039,19.496895,11.135876,5.594651,-5.7451434,0.71273947
0.916,-7.877912,19.80017,11.39276,5.602811,-5.6603465,0.6246643
0.918,-8.032908,20.106882,11.664883,5.6074433,-5.571719,0.5334245
0.92,-8.200919,20.414568,11.951577,5.608317,-5.479683,0.4386537
0.922,-8.381907,20.720755,12.251776,5.6052427,-5.384795,0.34008145
0.924,-8.574986,21.022532,12.564023,5.598092,-5.287749,0.23757589
0.926,-8.778584,21.316904,12.886339,5.586748,-5.1893578,0.13109267
0.928,-8.990876,21.600828,13.2162895,5.571089,-5.0905137,0.0206846
0.93,-9.209635,21.871515,13.551204,5.551015,-4.9921823,-0.09351742
0.932,-9.432306,22.125961,13.8889885,5.5263834,-4.895329,-0.21132255
0.934,-9.656187,22.361681,14.227234,5.497038,-4.800917,-0.3324988
0.936,-9.878317,22.57639,14.563456,5.4628067,-4.7098722,-0.45680308
0.938,-10.09581,22.768328,14.895485,5.4234986,-4.6230965,-0.58398163
0.94,-10.305868,22.935715,15.221633,5.378943,-4.5414114,-0.7137734
0.942,-10.505655,23.077238,15.5405035,5.329,-4.4654975,-0.84593016
0.944,-10.693045,23.191866,15.851072,5.2735734,-4.395917,-0.9802096
0.946,-10.866165,23.27894,16.152592,5.2126083,-4.3331547,-1.1163688
0.948,-11.023266,23.338234,16.4444,5.1461415,-4.277534,-1.2541826
0.95,-11.162882,23.369772,16.726036,5.0742702,-4.2292027,-1.3934104
0.952,-11.284032,23.374002,16.99702,4.9971385,-4.1881423,-1.5338582
0.954,-11.385691,23.351526,17.256973,4.9149733,-4.154172,-1.6753464
0.956,-11.467489,23.303108,17.505682,4.828043,-4.126924,-1.8177207
0.958,-11.529582,23.229837,17.743101,4.736682,-4.1058626,-1.9608623
0.96,-11.572556,23.1332,17.969328,4.64126,-4.090271,-2.104642
0.962,-11.597714,23.014652,18.18472,4.5421925,-4.0792885,-2.2489028
0.964,-11.606186,22.875893,18.389637,4.4399037,-4.0719557,-2.3934608
0.966,-11.599161,22.718529,18.584608,4.3348293,-4.067247,-2.538117
0.968,-11.578129,22.544281,18.770493,4.227361,-4.064131,-2.6826518
0.97,-11.545032,22.354973,18.94782,4.1178975,-4.0615716,-2.8268328
0.972,-11.501208,22.15219,19.117046,4.0068126,-4.0585475,-2.9703894
0.974,-11.448057,21.937737,19.278854,3.894454,-4.054155,-3.1130328
0.976,-11.3871355,21.713291,19.433628,3.7811556,-4.0476146,-3.2544675
0.978,-11.319997,21.480762,19.581684,3.6672359,-4.0382576,-3.3944085
0.98,-11.247893,21.241844,19.723372,3.553019,-4.0255356,-3.5325859
0.982,-11.17211,20.998268,19.859257,3.438826,-4.0090218,-3.6687758
0.984,-11.093377,20.75153,19.990242,3.3249674,-3.9883792,-3.8028114
0.986,-11.012585,20.503052,20.116974,3.2117648,-3.96335,-3.934578
0.988,-10.930044,20.254091,20.240162,3.0995274,-3.9336896,-4.0640316
0.99,-10.845828,20.005886,20.360542,2.988533,-3.899115,-4.191162
0.992,-10.759614,19.759485,20.478554,2.8790534,-3.859333,-4.315993
0.994,-10.671298,19.515854,20.594639,2.7713194,-3.8140535,-4.438565
0.996,-10.580216,19.275879,20.709122,2.6655354,-3.763008,-4.558928
0.998,-10.485795,19.040325,20.822266,2.5618773,-3.705935,-4.6771426
1,-10.387291,18.809586,20.934334,2.4605277,-3.6425548,-4.7932777
1.002,-10.283768,18.58417,21.045385,2.361643,-3.5726423,-4.9073935
1.004,-10.174875,18.36456,21.155153,2.2653906,-3.4960594,-5.01954
1.006,-10.05986,18.150976,21.263508,2.171912,-3.4127564,-5.129738
1.008,-9.938082,17.943779,21.36977,2.0813313,-3.3227959,-5.2380185
1.01,-9.808596,17.743042,21.473072,1.9937329,-3.2263513,-5.3444147
1.012,-9.67086,17.548763,21.57255,1.9091482,-3.1237175,-5.448983
1.014,-9.524279,17.360825,21.667576,1.8275578,-3.015307,-5.5517874
1.016,-9.3686,17.179102,21.75718,1.748858,-2.9016504,-5.6529074
1.018,-9.203606,17.003258,21.84022,1.6728857,-2.7833524,-5.752432
1.02,-9.029316,16.832912,21.915436,1.5993967,-2.661141,-5.8504276
1.022,-8.846041,16.667683,21.981369,1.5281129,-2.5358524,-5.946969
1.024,-8.654149,16.507141,22.03656,1.4587004,-2.4084108,-6.0421467
1.026,-8.454317,16.350891,22.079582,1.3908353,-2.2798312,-6.1360474
1.028,-8.247127,16.198395,22.108612,1.3241897,-2.1511543,-6.2287836
1.03,-8.033449,16.049091,22.122139,1.2584579,-2.0234673,-6.320472
1.032,-7.8139544,15.9022255,22.118776,1.1933599,-1.8978791,-6.4112377
1.034,-7.5895567,15.75709,22.097101,1.1286609,-1.775456,-6.50119
1.036,-7.3610115,15.613018,22.055943,1.0641735,-1.6571336,-6.5904346
1.038,-7.129141,15.469351,21.994339,0.999779,-1.54369,-6.6790705
1.04,-6.8946924,15.325369,21.911543,0.93541,-1.4357576,-6.767189
1.042,-6.658448,15.180412,21.80684,0.87106204,-1.3338177,-6.85488
1.044,-6.4212093,15.033947,21.679834,0.8067963,-1.2381876,-6.942211
1.046,-6.1833725,14.885244,21.530088,0.7427306,-1.1489828,-7.0292387
1.048,-5.9455442,14.733635,21.3573,0.679029,-1.0661467,-7.116006
1.05,-5.7078037,14.57848,21.161327,0.6158917,-0.9895184,-7.202507
1.052,-5.4702835,14.41918,20.942394,0.5535326,-0.9188614,-7.2887344
1.054,-5.232951,14.255186,20.701199,0.4921646,-0.85393023,-7.3746576
1.056,-4.995281,14.085858,20.43856,0.43199754,-0.7944665,-7.4602566
1.058,-4.7569647,13.910528,20.155722,0.3732152,-0.74021864,-7.5455093
1.06,-4.5177526,13.728795,19.853981,0.31597638,-0.6910043,-7.630396
1.062,-4.2771354,13.54023,19.534706,0.26039028,-0.646693,-7.7148623
1.064,-4.0346894,13.344802,19.199352,0.20652962,-0.6072047,-7.7988334
1.066,-3.7898889,13.142433,18.849201,0.1544267,-0.5724981,-7.882213
1.068,-3.5420928,12.933189,18.486122,0.10409534,-0.54257464,-7.9648895
1.07,-3.2906647,12.717103,18.111958,0.055520296,-0.51750255,-8.046728
1.072,-3.0351253,12.494399,17.728905,0.008655429,-0.49739695,-8.127535
1.074,-2.7752447,12.265371,17.338966,-0.036557436,-0.48239636,-8.207109
1.076,-2.5107837,12.030495,16.944107,-0.080207944,-0.47268748,-8.285249
1.078,-2.2412715,11.790304,16.546263,-0.12239194,-0.46845245,-8.361764
1.08,-1.966114,11.545551,16.147396,-0.16322744,-0.46986485,-8.436528
1.082,-1.6851745,11.296914,15.749647,-0.20283282,-0.4771037,-8.509472
1.084,-1.3981423,11.045258,15.355305,-0.24132526,-0.49028134,-8.580605
1.086,-1.1050367,10.791536,14.9663925,-0.27879596,-0.5094495,-8.650017
1.088,-0.8057842,10.53657,14.584869,-0.3153329,-0.53455496,-8.717899
1.09,-0.5004895,10.281509,14.21244,-0.35099483,-0.5654652,-8.7844715
1.092,-0.18924475,10.027418,13.850491,-0.3858235,-0.60194325,-8.849991
1.094,0.12764382,9.775565,13.500238,-0.41983438,-0.6437056,-8.91472
1.096,0.44997525,9.527021,13.162725,-0.45302224,-0.6904235,-8.978912
1.098,0.77732825,9.282753,12.838987,-0.48535383,-0.7417836,-9.042823
1.1,1.1093972,9.043585,12.530176,-0.51678765,-0.7975259,-9.106688
1.102,1.4458673,8.810171,12.2373085,-0.54724646,-0.8574424,-9.170691
1.104,1.7862662,8.583336,11.961235,-0.5766797,-0.9213562,-9.234978
1.106,2.1300063,8.363636,11.702625,-0.60501945,-0.98914814,-9.299609
1.108,2.4766135,8.151631,11.46187,-0.63220954,-1.0607071,-9.364603
1.11,2.8251534,7.948012,11.239053,-0.6582301,-1.1359925,-9.429905
1.112,3.1748965,7.753187,11.033985,-0.68309987,-1.214982,-9.495422
1.114,3.5250983,7.567567,10.846571,-0.70689857,-1.2976775,-9.561005
1.116,3.8748565,7.391505,10.676266,-0.7297607,-1.3841176,-9.626465
1.118,4.223344,7.225144,10.522715,-0.7519084,-1.4744039,-9.691587
1.12,4.569437,7.068864,10.38558,-0.7736354,-1.5686479,-9.7561
1.122,4.9124055,6.9228,10.264318,-0.7953124,-1.666996,-9.81973
1.124,5.2513485,6.787113,10.158133,-0.8173681,-1.7696128,-9.882186
1.126,5.585676,6.6618166,10.066589,-0.8402642,-1.8766775,-9.943177
1.128,5.914909,6.546931,9.989078,-0.8644747,-1.9884162,-10.002394
1.13,6.2387066,6.4426155,9.925141,-0.8904854,-2.1050725,-10.059537
1.132,6.556871,6.348748,9.874472,-0.91877234,-2.2269478,-10.11433
1.134,6.8689146,6.265479,9.836892,-0.9497781,-2.354387,-10.16653
1.136,7.174955,6.1928244,9.812364,-0.9839089,-2.4877243,-10.215943
1.138,7.474983,6.131017,9.801159,-1.0215075,-2.6273532,-10.262478
1.14,7.7693934,6.080013,9.803399,-1.0628918,-2.773725,-10.306097
1.142,8.058604,6.039907,9.819394,-1.108303,-2.927282,-10.346844
1.144,8.343472,6.0104885,9.8495035,-1.1579324,-3.088438,-10.38486
1.146,8.624973,5.991416,9.894222,-1.2119157,-3.2575274,-10.420338
1.148,8.904112,5.9824066,9.954021,-1.2703159,-3.434731,-10.453501
1.15,9.182003,5.983443,10.029463,-1.3331609,-3.620088,-10.484577
1.152,9.459791,5.9941454,10.121332,-1.4004686,-3.8135006,-10.513757
1.154,9.738403,6.0143204,10.230415,-1.4722415,-4.014679,-10.541174
1.156,10.018829,6.0438566,10.35747,-1.5484847,-4.2232256,-10.566901
1.158,10.301899,6.0827494,10.503172,-1.6291708,-4.438614,-10.59096
1.16,10.588341,6.1308746,10.668108,-1.7142687,-4.6602135,-10.613334
1.162,10.878761,6.188265,10.852413,-1.8037376,-4.8873734,-10.633942
1.164,11.173784,6.2547016,11.055996,-1.8975129,-5.1194706,-10.6526575
1.166,11.473555,6.330215,11.278635,-1.9955103,-5.3559413,-10.66935
1.168,11.778419,6.414745,11.519954,-2.0976276,-5.5962677,-10.68387
1.17,12.08861,6.50815,11.779571,-2.2037535,-5.8399925,-10.696084
1.172,12.403828,6.6105223,12.056832,-2.313763,-6.0866694,-10.705841
1.174,12.7239065,6.721778,12.350945,-2.427502,-6.335809,-10.713011
1.176,13.048528,6.841848,12.660761,-2.5447931,-6.586787,-10.717444
1.178,13.377347,6.9707427,12.984712,-2.665432,-6.838866,-10.719028
1.18,13.710128,7.108653,13.321245,-2.7891805,-7.091168,-10.717652
1.182,14.046758,7.255784,13.668491,-2.9157367,-7.342669,-10.713245
1.184,14.387332,7.412184,14.02459,-3.0447335,-7.5922146,-10.70575
1.186,14.732111,7.5775867,14.388097,-3.1757274,-7.838593,-10.695143
1.188,15.081376,7.751524,14.7576275,-3.3082008,-8.080609,-10.681427
1.19,15.435624,7.9331455,15.131965,-3.441601,-8.317205,-10.664618
1.192,15.795315,8.121918,15.51021,-3.575345,-8.547476,-10.6447315
1.194,16.161032,8.316869,15.891426,-3.7088323,-8.770796,-10.621815
1.196,16.53397,8.516766,16.275043,-3.8415174,-8.98681,-10.595934
1.198,16.915312,8.720367,16.660555,-3.9729068,-9.195466,-10.567157
1.2,17.306217,8.926211,17.047754,-4.1025476,-9.396921,-10.535591
1.202,17.707844,9.132725,17.4368,-4.230031,-9.591559,-10.501399
1.204,18.121582,9.337872,17.828121,-4.35499,-9.779835,-10.464783
1.206,18.548601,9.5397005,18.222324,-4.477042,-9.962235,-10.425978
1.208,18.989855,9.736164,18.620235,-4.595787,-10.139183,-10.385218
1.21,19.445972,9.925293,19.022486,-4.7107964,-10.310959,-10.342688
1.212,19.91724,10.105322,19.430222,-4.821609,-10.477742,-10.298501
1.214,20.403984,10.2742195,19.8446,-4.9277496,-10.639517,-10.252658
1.216,20.905848,10.430127,20.26702,-5.028719,-10.796198,-10.205025
1.218,21.42208,10.57138,20.698803,-5.1240625,-10.947509,-10.155329
1.22,21.951832,10.696493,21.14107,-5.2133803,-11.093182,-10.103153
1.222,22.493591,10.804438,21.594633,-5.296354,-11.232916,-10.047988
1.224,23.045937,10.894495,22.060116,-5.372789,-11.366428,-9.989284
1.226,23.606907,10.966351,22.537653,-5.4425964,-11.493441,-9.926504
1.228,24.174316,11.019729,23.026894,-5.5058002,-11.613716,-9.859175
1.23,24.746067,11.054888,23.526968,-5.5624685,-11.72702,-9.786957
1.232,25.320034,11.072208,24.036804,-5.6126804,-11.833054,-9.709661
1.234,25.893967,11.072451,24.555105,-5.6564865,-11.93145,-9.6272335
1.236,26.465836,11.056385,25.08004,-5.6938725,-12.021791,-9.539718
1.238,27.033411,11.025164,25.60939,-5.7247515,-12.103626,-9.447267
1.24,27.595098,10.979866,26.140684,-5.7489705,-12.176434,-9.350078
1.242,28.14931,10.921764,26.67093,-5.766294,-12.239701,-9.248423
1.244,28.695425,10.851889,27.196617,-5.7764153,-12.292978,-9.142621
1.246,29.23304,10.771428,27.714197,-5.7790174,-12.335972,-9.0329685
1.248,29.762295,10.68122,28.219698,-5.7737727,-12.368582,-8.919754
1.25,30.283796,10.582216,28.709446,-5.760347,-12.390974,-8.803209
1.252,30.798763,10.475178,29.180092,-5.73842,-12.403589,-8.683492
1.254,31.308767,10.360439,29.628517,-5.707708,-12.407086,-8.560685
1.256,31.815712,10.238299,30.052324,-5.667925,-12.402388,-8.434806
1.258,32.321774,10.108756,30.450212,-5.618802,-12.3905325,-8.305753
1.26,32.829357,9.971567,30.82135,-5.560075,-12.372677,-8.173363
1.262,33.34138,9.826792,31.164944,-5.491549,-12.350036,-8.037485
1.264,33.86134,9.67392,31.47986,-5.413083,-12.323772,-7.89793
1.266,34.393154,9.51222,31.765507,-5.324599,-12.294975,-7.75455
1.268,34.941444,9.340717,32.021446,-5.2260838,-12.26465,-7.6072655
1.27,35.51106,9.158173,32.24791,-5.1175942,-12.233702,-7.4561577
1.272,36.106625,8.963474,32.445835,-4.9992247,-12.202964,-7.301386
1.274,36.733093,8.755597,32.61668,-4.87112,-12.173198,-7.143198
1.276,37.395576,8.533541,32.762028,-4.733479,-12.145146,-6.9818845
1.278,38.09903,8.296268,32.88387,-4.586505,-12.119457,-6.817774
1.28,38.848648,8.042641,32.984818,-4.4304037,-12.0966835,-6.6511426
1.282,39.64915,7.7717485,33.067833,-4.2653475,-12.077214,-6.4821486
1.284,40.504936,7.4830427,33.13607,-4.0915117,-12.061305,-6.310749
1.286,41.42008,7.176833,33.192535,-3.9090674,-12.049124,-6.13661
1.288,42.398834,6.8534207,33.240173,-3.7181907,-12.040747,-5.95913
1.29,43.444603,6.513688,33.28121,-3.5190864,-12.036183,-5.7773685
1.292,44.560356,6.1591473,33.3178,-3.3119206,-12.035406,-5.590027
1.294,45.747856,5.7926803,33.351677,-3.09685,-12.038446,-5.395558
1.296,47.00757,5.4186783,33.38288,-2.8739927,-12.045434,-5.1921663
1.298,48.341995,5.0413103,33.41237,-2.6434326,-12.056582,-4.9779043
1.3,49.75139,4.6660633,33.441956,-2.4051704,-12.072185,-4.75076
1.302,51.235085,4.3003063,33.47352,-2.159156,-12.092529,-4.5087323
1.304,52.7921,3.9515853,33.50988,-1.9052975,-12.117828,-4.249921
1.306,54.416542,3.6301181,33.552803,-1.6434369,-12.148172,-3.9725933
1.308,56.107456,3.3425126,33.603077,-1.3733826,-12.183552,-3.6752148
1.31,57.86508,3.0956378,33.66486,-1.0949304,-12.223885,-3.3565433
1.312,59.684723,2.9003363,33.744297,-0.8078761,-12.269179,-3.015634
1.314,61.55753,2.7731228,33.84448,-0.5120094,-12.319589,-2.651884
1.316,63.47592,2.7310686,33.96647,-0.2071383,-12.375479,-2.2650127
1.318,65.44151,2.7847204,34.11682,0.10690367,-12.437484,-1.8550891
1.32,67.45022,2.951754,34.30272,0.4302274,-12.506481,-1.4224606
1.322,69.49387,3.2537842,34.53171,0.7628908,-12.583447,-0.9676465
1.324,71.56537,3.7142973,34.80858,1.1048808,-12.669282,-0.4912026
1.326,73.661476,4.3530116,35.13201,1.4561045,-12.764617,0.006319195
1.328,75.78387,5.1838875,35.505756,1.816267,-12.8697605,0.5245142
1.33,77.92925,6.228708,35.933815,2.1848915,-12.98459,1.0631442
1.332,80.094055,7.5150375,36.4202,2.5613897,-13.108257,1.6220322
1.334,82.275185,9.075,36.96955,2.9450507,-13.239199,2.200901
1.336,84.47095,10.935892,37.592735,3.3351672,-13.375058,2.7995005
1.338,86.679184,13.112276,38.303913,3.731131,-13.512819,3.4178166
1.34,88.9018,15.615753,39.105972,4.1323786,-13.649217,4.0560827
1.342,91.123955,18.47063,39.994255,4.538615,-13.780587,4.7144356
1.344,93.345245,21.695879,40.963806,4.9502482,-13.902327,5.392733
1.346,95.55399,25.30999,42.022182,5.3684206,-14.008766,6.0908175
1.348,97.765434,29.28366,43.238358,5.794564,-14.093231,6.8090777
1.35,99.926315,33.62326,44.652206,6.230191,-14.148505,7.548498
1.352,102.096725,38.307465,46.289288,6.677472,-14.165774,8.310776
1.354,104.37074,43.2998,48.177444,7.1393213,-14.134028,9.098585
1.356,106.81687,48.606552,50.2797,7.6187444,-14.040264,9.916236
1.358,109.35046,54.28496,52.54233,8.117982,-13.870851,10.770086
1.36,111.980385,60.323746,54.96394,8.638447,-13.611659,11.668316
1.362,114.72248,66.69689,57.560158,9.18096,-13.247144,12.619824
1.364,117.590866,73.35839,60.363625,9.745546,-12.761012,13.633333
1.366,120.593,80.22489,63.42981,10.330653,-12.138207,14.716974
1.368,123.7408,87.211624,66.78904,10.933546,-11.363236,15.879934
1.37,127.06102,94.26962,70.40396,11.550416,-10.419739,17.132977
1.372,130.58221,101.34209,74.240326,12.178011,-9.290421,18.486341
1.374,134.32878,108.34691,78.25951,12.81467,-7.9575453,19.946907
1.376,138.32306,115.18646,82.46259,13.45779,-6.4053726,21.513601
1.378,142.5922,121.7738,86.88786,14.101243,-4.6151857,23.184572
1.38,147.15588,127.99576,91.5393,14.73468,-2.5725975,24.941961
1.382,152.03767,133.75479,96.331955,15.347425,-0.2603016,26.765835
1.384,157.25723,138.9531,101.16314,15.926974,2.336007,28.632805
1.386,162.81506,143.49101,105.93809,16.465902,5.2242737,30.51016
1.388,168.69504,147.28967,110.57393,16.9679,8.40105,32.356133
1.39,174.85982,150.29552,114.97275,17.438194,11.8569355,34.11082
1.392,181.30367,152.46182,119.01328,17.879349,15.56596,35.713104
1.394,187.99854,153.75577,122.56247,18.295086,19.486986,37.097565
1.396,194.90158,154.16188,125.48686,18.688152,23.572239,38.186295
1.398,201.95268,153.68425,127.659294,19.066162,27.751734,38.920036
1.4,209.07109,152.34386,128.96443,19.452185,31.93618,39.2613
1.402,216.16278,150.16954,129.29156,19.88269,36.028473,39.182682
1.404,223.11522,147.20201,128.53163,20.4057,39.930176,38.66253
1.406,229.80444,143.49208,126.587906,21.074795,43.553974,37.68665
1.408,236.0912,139.10316,123.3952,21.936419,46.826458,36.239178
1.41,241.85138,134.095,118.92861,23.021612,49.700794,34.306755
1.412,246.95241,128.5373,113.20123,24.33861,52.151432,31.883816
1.414,251.26068,122.51193,106.25511,25.864197,54.15708,28.973099
1.416,254.6482,116.103745,98.16588,27.539013,55.697216,25.58952
1.418,256.9873,109.40975,89.03822,29.26885,56.748276,21.765045
1.42,258.1722,102.550766,79.01287,30.935894,57.281097,17.549177
1.422,258.1485,95.62799,68.27021,32.41477,57.259857,13.005634
1.424,256.86237,88.724884,57.011063,33.584507,56.64499,8.212166
1.426,254.27422,81.92229,45.437737,34.335945,55.39863,3.2658005
1.428,250.37396,75.31811,33.772797,34.58352,53.495483,-1.7153778
1.43,245.18382,69.008675,22.249031,34.278446,50.933918,-6.594303
1.432,238.75612,63.088943,11.09198,33.411327,47.73688,-11.22821
1.434,231.17743,57.646435,0.508934,32.00697,43.95843,-15.465246
1.436,222.56474,52.76245,-9.308495,30.11452,39.67095,-19.17065
1.438,213.0572,48.5185,-18.197968,27.80323,34.96399,-22.232279
1.44,202.81662,44.98392,-26.021442,25.150652,29.93948,-24.56536
1.442,192.0109,42.21448,-32.670776,22.236677,24.707233,-26.12541
1.444,180.81703,40.248726,-38.0728,19.148968,19.370605,-26.910788
1.446,169.41635,39.11266,-42.193703,15.977018,14.0314,-26.98
1.448,157.99022,38.81883,-45.035904,12.802186,8.786877,-26.43588
1.45,146.70891,39.3545,-46.623486,9.697151,3.727014,-25.407969
1.452,135.742,40.672215,-47.008354,6.7167926,-1.0555506,-24.061224
1.454,125.226105,42.708588,-46.27269,3.892457,-5.4778094,-22.566906
1.456,115.287964,45.380486,-44.534084,1.245619,-9.475035,-21.075722
1.458,106.0069,48.623684,-41.972107,-1.2069147,-13.002253,-19.703156
1.46,97.49657,52.31403,-38.72947,-3.4526787,-16.038586,-18.523752
1.462,89.736694,56.339466,-34.936478,-5.4805827,-18.580774,-17.566582
1.464,82.68696,60.5846,-30.727825,-7.2826357,-20.645,-16.828987
1.466,76.34097,64.88931,-26.188002,-8.854383,-22.252506,-16.287018
1.468,70.804794,69.06937,-21.411701,-10.192104,-23.41907,-15.902154
1.47,66.04249,73.03174,-16.554193,-11.291513,-24.1612,-15.633245
1.472,61.998077,76.70125,-11.77187,-12.147752,-24.49508,-15.445516
1.474,58.608013,80.02388,-7.21179,-12.758488,-24.43564,-15.312698
1.476,55.806915,82.97673,-3.0095177,-13.127269,-23.999258,-15.216377
1.478,53.519447,85.53176,0.7547169,-13.261137,-23.205812,-15.145386
1.48,51.65751,87.63476,4.0735626,-13.16938,-22.081562,-15.094788
1.482,50.13925,89.25981,6.929164,-12.868984,-20.664692,-15.061063
1.484,48.894897,90.41887,9.305961,-12.389304,-19.008036,-15.035816
1.486,47.86306,91.14317,11.1595,-11.769916,-17.177149,-15.00249
1.488,46.985,91.458916,12.437951,-11.056951,-15.24608,-14.936904
1.49,46.216347,91.421265,13.151094,-10.299853,-13.291377,-14.811949
1.492,45.51487,91.070435,13.392027,-9.548145,-11.387057,-14.604361
1.494,44.846893,90.45231,13.245107,-8.847844,-9.602562,-14.302012
1.496,44.197308,89.617096,12.768468,-8.2380705,-7.998422,-13.907598
1.498,43.5593,88.59973,12.001893,-7.748466,-6.6204333,-13.439461
1.5,42.93254,87.42265,10.998383,-7.39753,-5.4982243,-12.929221
1.502,42.278366,86.11598,9.827023,-7.1931176,-4.6484337,-12.417174
1.504,41.57854,84.707985,8.557567,-7.1338563,-4.076089,-11.94466
1.506,40.82212,83.22254,7.251205,-7.208624,-3.7704911,-11.546372
1.508,40.003983,81.67813,5.9591126,-7.3991256,-3.706847,-11.243426
1.51,39.126564,80.091354,4.722988,-7.686617,-3.8524234,-11.038267
1.512,38.19125,78.48304,3.585328,-8.053142,-4.168838,-10.920057
1.514,37.20453,76.87125,2.59164,-8.478819,-4.614669,-10.870033
1.516,36.171947,75.27196,1.7798471,-8.942071,-5.1470113,-10.861803
1.518,35.101334,73.69716,1.1656342,-9.421991,-5.7236032,-10.863738
1.52,33.98488,72.16633,0.74469185,-9.899676,-6.304575,-10.843602
1.522,32.827564,70.68936,0.5036812,-10.358875,-6.8530498,-10.772009
1.524,31.63935,69.26934,0.43055344,-10.785701,-7.3370724,-10.625156
1.526,30.434784,67.90932,0.5101824,-11.168787,-7.7321005,-10.387865
1.528,29.231735,66.60904,0.72671604,-11.499608,-8.021645,-10.0554905
1.53,28.040035,65.35334,1.0522366,-11.772215,-8.196533,-9.633093
1.532,26.849182,64.15144,1.4490738,-11.982967,-8.254316,-9.1338625
1.534,25.678368,63.02414,1.8896866,-12.130791,-8.198886,-8.576828
1.536,24.55003,61.98933,2.3615665,-12.2174425,-8.039901,-7.983775
1.538,23.472471,61.04872,2.8355255,-12.247351,-7.7915783,-7.376401
1.54,22.455585,60.1967,3.2827168,-12.227388,-7.4714465,-6.774176
1.542,21.50682,59.426254,3.6836834,-12.166305,-7.098773,-6.1927066
1.544,20.622562,58.734886,4.031885,-12.074026,-6.693345,-5.643062
1.546,19.793247,58.12242,4.3220425,-11.960853,-6.274349,-5.131798
1.548,19.010563,57.5816,4.548664,-11.83656,-5.859087,-4.661481
1.55,18.271648,57.098454,4.7045765,-11.709747,-5.462213,-4.231528
1.552,17.580181,56.65886,4.7847824,-11.587444,-5.0952225,-3.839203
1.554,16.936169,56.252666,4.7887516,-11.474822,-4.766086,-3.4806423
1.556,16.33596,55.87412,4.719322,-11.374951,-4.479141,-3.1517787
1.558,15.774351,55.521816,4.582758,-11.288825,-4.23536,-2.8488946
1.56,15.2468,55.194805,4.387291,-11.215637,-4.0330276,-2.5689952
1.562,14.750159,54.891235,4.1416836,-11.153061,-3.8682504,-2.309842
1.564,14.279925,54.609932,3.8532982,-11.097686,-3.7355604,-2.0698037
1.566,13.830981,54.35022,3.5289536,-11.04542,-3.6284275,-1.8477175
1.568,13.398723,54.11135,3.1743698,-10.991975,-3.5397568,-1.6427071
1.57,12.979869,53.891846,2.793747,-10.933256,-3.46244,-1.4540589
1.572,12.571253,53.690445,2.3889332,-10.8656435,-3.3897254,-1.2811275
1.574,12.169748,53.505028,1.9597778,-10.786218,-3.31551,-1.1232895
1.576,11.77254,53.332184,1.5053806,-10.69282,-3.2345483,-0.97987235
1.578,11.376474,53.16779,1.02491,-10.58413,-3.1426795,-0.8502163
1.58,10.979157,53.007244,0.51773834,-10.459617,-3.0369625,-0.7337456
1.582,10.578596,52.846516,-0.017089844,-10.319503,-2.9157083,-0.63002807
1.584,10.173548,52.681717,-0.5811806,-10.164628,-2.7783682,-0.53881097
1.586,9.7637415,52.509476,-1.1763172,-9.996377,-2.6254368,-0.45996457
1.588,9.350172,52.326702,-1.804491,-9.8165655,-2.4582913,-0.39342195
1.59,8.934304,52.13081,-2.467146,-9.627318,-2.2790546,-0.3390783
1.592,8.517937,51.919872,-3.164938,-9.430984,-2.0903265,-0.2967204
1.594,8.1032915,51.692863,-3.8978615,-9.230005,-1.8949652,-0.26597118
1.596,7.6932526,51.44875,-4.66502,-9.0268545,-1.6959262,-0.24634802
1.598,7.290919,51.186493,-5.463935,-8.823869,-1.4960656,-0.23720527
1.6,6.8987975,50.90495,-6.2914104,-8.623176,-1.2980728,-0.23779547
1.602,6.5193615,50.602757,-7.1438026,-8.426608,-1.1043922,-0.24732101
1.604,6.1552396,50.278336,-8.017371,-8.235683,-0.9172041,-0.26501358
1.606,5.809088,49.929916,-8.908307,-8.051513,-0.7383956,-0.29015255
1.608,5.483212,49.55593,-9.81217,-7.8748126,-0.5695617,-0.322114
1.61,5.179495,49.155018,-10.723877,-7.7059493,-0.41200978,-0.36039555
1.612,4.899635,48.726276,-11.637772,-7.544962,-0.2667068,-0.40462255
1.614,4.645306,48.269188,-12.547992,-7.3916154,-0.13423502,-0.45447958
1.616,4.4176536,47.783478,-13.447894,-7.245489,-0.014879227,-0.5096487
1.618,4.2176294,47.26934,-14.331033,-7.1060863,0.09131086,-0.5697923
1.62,4.0456333,46.727364,-15.190666,-6.972859,0.18453556,-0.63445663
1.622,3.9017792,46.158577,-16.020369,-6.8452363,0.2652027,-0.70306623
1.624,3.7855625,45.564465,-16.813913,-6.7226973,0.333929,-0.7749288
1.626,3.6963573,44.946526,-17.56561,-6.6047645,0.39141554,-0.84921086
1.628,3.6334689,44.306465,-18.270832,-6.4910326,0.43831855,-0.92495656
1.63,3.595663,43.646137,-18.925566,-6.3811417,0.47525883,-1.0011708
1.632,3.5816784,42.96744,-19.526579,-6.274726,0.50284445,-1.076879
1.634,3.5900261,42.272503,-20.071304,-6.1714296,0.5216613,-1.1511481
1.636,3.6188638,41.563385,-20.557896,-6.0708985,0.5321965,-1.2231406
1.638,3.666037,40.842262,-20.985271,-5.972775,0.534764,-1.2921584
1.64,3.7297854,40.11098,-21.353365,-5.876699,0.5296294,-1.3576583
1.642,3.8080854,39.371593,-21.663544,-5.7822566,0.5170707,-1.419333
1.644,3.8988853,38.62621,-21.918167,-5.689002,0.49749583,-1.4771329
1.646,4.000344,37.876663,-22.120552,-5.5964346,0.47152323,-1.5313162
1.648,4.110633,37.12485,-22.27466,-5.5040064,0.440118,-1.5823889
1.65,4.227955,36.372307,-22.385942,-5.411044,0.40464282,-1.6310743
1.652,4.35057,35.62028,-22.460175,-5.316803,0.36684576,-1.6782528
1.654,4.476888,34.8697,-22.503885,-5.22041,0.32881787,-1.7248819
1.656,4.605326,34.121265,-22.523643,-5.120865,0.29284623,-1.7718662
1.658,4.734627,33.375347,-22.526014,-5.0170193,0.26125216,-1.8199297
1.66,4.8634076,32.63184,-22.517542,-4.907665,0.23623773,-1.8695972
1.662,4.9905767,31.890594,-22.504309,-4.791543,0.21966681,-1.9211357
1.664,5.1153035,31.151226,-22.491995,-4.667402,0.21298951,-1.9745054
1.666,5.236912,30.412996,-22.485256,-4.5340886,0.2171411,-2.0293922
1.668,5.3543973,29.675283,-22.488161,-4.3906527,0.23248589,-2.085276
1.67,5.467245,28.937244,-22.503927,-4.2363987,0.25892624,-2.1414812
1.672,5.575008,28.198023,-22.534893,-4.0709424,0.2960037,-2.1972208
1.674,5.6775303,27.457026,-22.582615,-3.8942776,0.34294856,-2.2516692
1.676,5.7744355,26.713593,-22.647547,-3.7067723,0.3987963,-2.3039515
1.678,5.865455,25.967257,-22.728989,-3.5091157,0.46244156,-2.3531504
1.68,5.9504123,25.21799,-22.825367,-3.30229,0.53272396,-2.3983545
1.682,6.0293536,24.465672,-22.934164,-3.0874953,0.6084338,-2.4385977
1.684,6.1023164,23.710546,-23.051987,-2.866087,0.6882269,-2.472855
1.686,6.1692233,22.953278,-23.174658,-2.6394913,0.77061874,-2.5000744
1.688,6.230377,22.19467,-23.297888,-2.409133,0.8540625,-2.5192463
1.69,6.2857957,21.436106,-23.416899,-2.1763763,0.9370928,-2.5294604
1.692,6.335708,20.67919,-23.526855,-1.9425116,1.0183758,-2.5299816
1.694,6.380605,19.92581,-23.622795,-1.7087507,1.0966554,-2.5202954
1.696,6.4209957,19.178064,-23.699911,-1.4762325,1.1708198,-2.5000873
1.698,6.4572835,18.438387,-23.753403,-1.2460039,1.239947,-2.469265
1.7,6.4898157,17.709343,-23.779041,-1.0189772,1.3032807,-2.4279227
1.702,6.519183,16.993687,-23.772867,-0.79595566,1.3602203,-2.3763928
1.704,6.5457883,16.294151,-23.731342,-0.5776371,1.4102943,-2.3152034
1.706,6.5698695,15.613673,-23.651506,-0.36460084,1.4531592,-2.2450435
1.708,6.592237,14.955085,-23.531565,-0.15731311,1.4885308,-2.1667182
1.71,6.61386,14.320755,-23.370129,0.043878138,1.5162034,-2.0811172
1.712,6.635707,13.713069,-23.166262,0.23872694,1.5360073,-1.9891706
1.714,6.6579714,13.134267,-22.919006,0.42710218,1.5477607,-1.8918099
1.716,6.6806684,12.5867405,-22.62771,0.60893595,1.551302,-1.789921
1.718,6.7040987,12.072348,-22.292557,0.7842369,1.54645,-1.68433
1.72,6.728842,11.592619,-21.914429,0.9530807,1.5330678,-1.5758045
1.722,6.7551374,11.148724,-21.494783,1.1155934,1.5111039,-1.4650444
1.724,6.7831745,10.741463,-21.035374,1.2719212,1.4805857,-1.3526772
1.726,6.8131704,10.371357,-20.538595,1.4222381,1.4416505,-1.2392848
1.728,6.845481,10.038616,-20.006847,1.5667322,1.3945428,-1.1253986
1.73,6.8802824,9.743278,-19.442957,1.7055908,1.3395941,-1.0115132
1.732,6.917697,9.485046,-18.850084,1.8390077,1.2772554,-0.8980717
1.734,6.9579706,9.263239,-18.231253,1.9672105,1.2080333,-0.7854615
1.736,7.0011997,9.07701,-17.589779,2.090435,1.1325158,-0.674062
1.738,7.047385,8.925109,-16.92892,2.2089438,1.0513111,-0.5642216
1.74,7.0967727,8.805978,-16.25216,2.3230095,0.965009,-0.45626044
1.742,7.149558,8.718036,-15.562811,2.4329464,0.8741356,-0.35045016
1.744,7.205847,8.659256,-14.864443,2.5391169,0.7791352,-0.24703228
1.746,7.265571,8.62779,-14.160513,2.6419408,0.6803653,-0.14623141
1.748,7.328855,8.621626,-13.454477,2.7418792,0.5781307,-0.048267603
1.75,7.395359,8.638777,-12.749634,2.8394363,0.47265607,0.04662454
1.752,7.465211,8.676997,-12.04906,2.9351327,0.36410755,0.13819063
1.754,7.5384836,8.734098,-11.35561,3.0294883,0.25266764,0.22618413
1.756,7.6151204,8.80785,-10.671889,3.1230266,0.13856286,0.3103813
1.758,7.6952734,8.895927,-10.0003605,3.2162564,0.022142138,0.3905955
1.76,7.778907,8.996199,-9.342844,3.3096454,-0.09616271,0.46670717
1.762,7.866151,9.10661,-8.701376,3.4036095,-0.21578899,0.538699
1.764,7.956925,9.225388,-8.07747,3.4984965,-0.33610305,0.60666806
1.766,8.051279,9.350706,-7.472455,3.594568,-0.4563966,0.6708393
1.768,8.149141,9.481076,-6.8873677,3.6920218,-0.5759024,0.73157656
1.77,8.250594,9.615308,-6.323018,3.7909584,-0.69386864,0.7893523
1.772,8.355584,9.752195,-5.7797956,3.891371,-0.809604,0.8447119
1.774,8.464084,9.8907,-5.2579393,3.9931505,-0.9225151,0.89824265
1.776,8.576064,10.030275,-4.7574196,4.096123,-1.0320953,0.9505197
1.778,8.691755,10.170302,-4.277987,4.200034,-1.1379453,1.002033
1.78,8.810796,10.310562,-3.8191183,4.304569,-1.2397748,1.0531714
1.782,8.933238,10.450923,-3.380184,4.40936,-1.3374,1.1041914
1.784,9.058877,10.591296,-2.960261,4.514019,-1.4307116,1.1551998
1.786,9.187798,10.731853,-2.5584977,4.618141,-1.5196977,1.2061753
1.788,9.319693,10.872799,-2.1737869,4.721323,-1.6043825,1.256991
1.79,9.454474,11.014501,-1.804926,4.8231993,-1.6848593,1.3074563
1.792,9.591974,11.15732,-1.4505972,4.9234457,-1.7612209,1.3573412
1.794,9.732078,11.301828,-1.1094828,5.021788,-1.8335675,1.4064044
1.796,9.874316,11.448412,-0.78023696,5.118027,-1.9019924,1.4543865
1.798,10.018469,11.597431,-0.461442,5.2120023,-1.9666079,1.5010426
1.8,10.164571,11.749176,-0.1516676,5.303618,-2.0275273,1.546166
1.802,10.31232,11.903916,0.15055859,5.3928246,-2.0848274,1.5895922
1.804,10.461201,12.061895,0.44658893,5.479623,-2.1385705,1.6312346
1.806,10.611019,12.223362,0.7376879,5.564057,-2.1888003,1.6710606
1.808,10.761474,12.388352,1.0248737,5.6461782,-2.2355494,1.7091142
1.81,10.912317,12.556871,1.3091649,5.7260456,-2.2788281,1.7455082
1.812,11.063222,12.72879,1.5914526,5.803708,-2.31865,1.7804283
1.814,11.214067,12.90386,1.8723228,5.879208,-2.3549972,1.8141062
1.816,11.364624,13.08179,2.1522164,5.9525924,-2.3878465,1.8467957
1.818,11.514527,13.262108,2.4318666,6.0239143,-2.4171658,1.8787559
1.82,11.663714,13.444768,2.7112942,6.093214,-2.4429393,1.9102026
1.822,11.811877,13.629161,2.99082,6.160545,-2.4651787,1.9412884
1.824,11.959134,13.814953,3.2702742,6.2259903,-2.4839468,1.9720764
1.826,12.105304,14.001581,3.5494094,6.2896247,-2.499327,2.002576
1.828,12.250173,14.1885395,3.8281066,6.3515434,-2.5114534,2.0327282
1.83,12.393312,14.375495,4.106248,6.4118443,-2.5205047,2.0624104
1.832,12.534559,14.56197,4.383519,6.4706097,-2.5267155,2.091483
1.834,12.673705,14.747635,4.6596303,6.5279193,-2.5303292,2.1197827
1.836,12.81073,14.93211,4.9341264,6.583864,-2.531614,2.1471326
1.838,12.9454775,15.115106,5.2067165,6.638472,-2.5308137,2.1733742
1.84,13.077824,15.296275,5.476851,6.691764,-2.5281868,2.198373
1.842,13.207604,15.47558,5.744334,6.7437453,-2.5239966,2.2220032
1.844,13.334676,15.653026,6.0087976,6.7943606,-2.518491,2.244195
1.846,13.459149,15.828553,6.26988,6.843535,-2.5119169,2.2649236
1.848,13.5809555,16.0024,6.527346,6.8911676,-2.5044866,2.2842138
1.85,13.70007,16.174812,6.781126,6.937111,-2.4964085,2.3021293
1.852,13.816343,16.346128,7.031175,6.981207,-2.4878824,2.3187606
1.854,13.929933,16.516739,7.27764,7.0233016,-2.4791012,2.3342307
1.856,14.04097,16.686989,7.520729,7.0632296,-2.4702613,2.348658
1.858,14.149557,16.857214,7.760622,7.100837,-2.4615445,2.3621671
1.86,14.25569,17.027973,7.997538,7.1359773,-2.4531152,2.374889
1.862,14.359331,17.19971,8.231844,7.168524,-2.4451554,2.386928
1.864,14.460467,17.37293,8.463878,7.198375,-2.4378452,2.3983686
1.866,14.559226,17.548069,8.693906,7.225458,-2.4313319,2.4092646
1.868,14.655426,17.725563,8.922312,7.2497253,-2.4257255,2.4196532
1.87,14.74912,17.905697,9.14935,7.271102,-2.4211264,2.429564
1.872,14.840119,18.088583,9.375467,7.2895355,-2.417604,2.4390144
1.874,14.92844,18.27406,9.600905,7.3049874,-2.4151871,2.4479995
1.876,15.013915,18.462002,9.826017,7.317384,-2.413886,2.456478
1.878,15.096386,18.652065,10.051002,7.3266487,-2.4137077,2.4643984
1.88,15.175536,18.843817,10.276006,7.3327165,-2.414617,2.4716725
1.882,15.25136,19.036371,10.501005,7.335511,-2.4165826,2.4781508
1.884,15.323601,19.228928,10.726008,7.3349376,-2.419575,2.4836226
1.886,15.39177,19.420362,10.950809,7.330937,-2.423564,2.4878206
1.888,15.455734,19.60925,11.175154,7.323443,-2.4285367,2.4904368
1.89,15.515125,19.794216,11.39851,7.31241,-2.4345212,2.4911158
1.892,15.569763,19.973362,11.620441,7.2978134,-2.4415915,2.4894643
1.894,15.619511,20.144749,11.840581,7.2796426,-2.4498332,2.4850502
1.896,15.664153,20.306358,12.057955,7.2578917,-2.4593654,2.4774456
1.898,15.703638,20.456104,12.271803,7.2325687,-2.47034,2.466203
1.9,15.737839,20.591705,12.481369,7.203693,-2.4829242,2.4508643
1.902,15.76673,20.71105,12.685713,7.171279,-2.4972796,2.4309936
1.904,15.790321,20.811861,12.883946,7.135337,-2.5135481,2.4061754
1.906,15.809039,20.892157,13.074845,7.095864,-2.5318406,2.3760443
1.908,15.822919,20.95019,13.257383,7.052838,-2.5522697,2.3402581
1.91,15.832086,20.984247,13.430416,7.006245,-2.5748892,2.2985525
1.912,15.836998,20.992968,13.592855,6.9560947,-2.599703,2.25076
1.914,15.838226,20.97533,13.743498,6.9024053,-2.626695,2.1968706
1.916,15.836203,20.930584,13.8813095,6.845232,-2.655787,2.137049
1.918,15.8315935,20.85842,14.005263,6.784651,-2.686914,2.071641
1.92,15.825083,20.758995,14.114342,6.720765,-2.7199671,2.0012002
1.922,15.8174925,20.632986,14.207332,6.653695,-2.7548258,1.9264475
1.924,15.809433,20.481361,14.283386,6.5835924,-2.7913427,1.8482295
1.926,15.8019,20.305536,14.341641,6.5106153,-2.8293314,1.7675169
1.928,15.795814,20.107428,14.381308,6.4349303,-2.8685498,1.6853459
1.93,15.792045,19.889103,14.401675,6.356686,-2.9087062,1.6027398
1.932,15.791506,19.653368,14.401989,6.2760406,-2.9494483,1.5206758
1.934,15.795185,19.40292,14.381852,6.193116,-2.9904194,1.4400424
1.936,15.804195,19.14083,14.340907,6.108049,-3.0311925,1.3616507
1.938,15.819448,18.87045,14.278823,6.0209565,-3.0713167,1.28619
1.94,15.841983,18.595005,14.195381,5.931942,-3.1103725,1.2142129
1.942,15.872879,18.317694,14.090617,5.8410974,-3.1479983,1.1461384
1.944,15.913013,18.041819,13.964597,5.748463,-3.1839108,1.082274
1.946,15.963066,17.770494,13.817806,5.654079,-3.217945,1.0228212
1.948,16.0238,17.506765,13.650555,5.5579386,-3.2500768,0.9678677
1.95,16.096058,17.253407,13.463678,5.459983,-3.2804537,0.91742826
1.952,16.180328,17.012882,13.257828,5.3601513,-3.3093424,0.87139887
1.954,16.277025,16.787489,13.033894,5.2583704,-3.3371549,0.829601
1.956,16.386326,16.579319,12.793044,5.154579,-3.3644593,0.7917925
1.958,16.508396,16.389992,12.536639,5.04871,-3.3919044,0.7576864
1.96,16.643354,16.220848,12.265959,4.9407525,-3.4202228,0.7269453
1.962,16.79115,16.072964,11.982563,4.8307343,-3.450185,0.6992109
1.964,16.9516,15.947041,11.688116,4.7187104,-3.4826303,0.6741009
1.966,17.124397,15.843449,11.384438,4.604743,-3.518423,0.65123427
1.968,17.30896,15.762651,11.073533,4.4889417,-3.5584188,0.63023466
1.97,17.504963,15.704381,10.757495,4.371392,-3.6034703,0.6107327
1.972,17.711918,15.668463,10.438292,4.252184,-3.654378,0.5923916
1.974,17.929165,15.654188,10.118055,4.131384,-3.7119517,0.5748885
1.976,18.15587,15.660969,9.799096,4.0090303,-3.7769456,0.5579442
1.978,18.391272,15.688044,9.483741,3.8851259,-3.85003,0.5412988
1.98,18.634052,15.7345495,9.174285,3.7596424,-3.9318032,0.5247075
1.982,18.883308,15.799602,8.872857,3.632556,-4.02276,0.50797653
1.984,19.138065,15.88199,8.581278,3.5038247,-4.123264,0.4909591
1.986,19.397682,15.980502,8.301485,3.3734307,-4.2335362,0.47351748
1.988,19.660702,16.093946,8.035444,3.2413797,-4.35365,0.4555549
1.99,19.926031,16.221123,7.78514,3.1077104,-4.4835405,0.4369926
1.992,20.192562,16.360874,7.5519953,2.9725244,-4.6229835,0.41780663
1.994,20.459433,16.511875,7.337274,2.835977,-4.7716017,0.39803278
1.996,20.725853,16.672928,7.1422615,2.698295,-4.9288874,0.37774783
1.998,20.990278,16.843214,6.968292,2.559788,-5.0942373,0.35707176
2,21.251749,17.021471,6.8165965,2.4208136,-5.267006,0.33614826
2.002,21.509083,17.206894,6.68795,2.2818112,-5.4464955,0.31518084
2.004,21.760897,17.398746,6.5831194,2.1432853,-5.632054,0.29437846
2.006,22.00639,17.596079,6.502924,2.0057538,-5.823102,0.27396762
2.008,22.244617,17.797789,6.4476576,1.8697855,-6.019112,0.25415486
2.01,22.474365,18.003077,6.41772,1.7360088,-6.2195807,0.23506582
2.012,22.694641,18.210983,6.4133387,1.605068,-6.4240456,0.21673292
2.014,22.90421,18.420698,6.4348636,1.4775842,-6.63212,0.19908917
2.016,23.102032,18.631283,6.4824543,1.3541675,-6.843437,0.18201697
2.018,23.287176,18.841816,6.5562663,1.2354227,-7.057529,0.16529047
2.02,23.458666,19.051344,6.6561003,1.1219767,-7.2737083,0.14857548
2.022,23.61561,19.258835,6.781921,1.0144482,-7.491054,0.13148487
2.024,23.757326,19.463287,6.933366,0.91346836,-7.708355,0.11359596
2.026,23.883194,19.663736,7.1098323,0.8196795,-7.924058,0.09449464
2.028,23.992657,19.859146,7.310461,0.7337861,-8.136196,0.073795915
2.03,24.085392,20.04849,7.5341196,0.65658545,-8.34241,0.051190972
2.032,24.161312,20.23056,7.7796116,0.5889702,-8.540033,0.02650255
2.034,24.220528,20.404303,8.045364,0.5319457,-8.726201,-0.00025635958
2.036,24.263071,20.568504,8.329549,0.48661637,-8.897968,-0.028891802
2.038,24.289186,20.72211,8.630208,0.4541676,-9.052492,-0.058960974
2.04,24.29953,20.863836,8.945238,0.43580532,-9.187137,-0.08978599
2.042,24.294662,20.992525,9.272407,0.4327247,-9.299618,-0.12051499
2.044,24.275352,21.107384,9.609083,0.4460094,-9.388136,-0.15019017
2.046,24.242277,21.207407,9.952628,0.47656035,-9.451424,-0.17783973
2.048,24.196604,21.29177,10.30051,0.5250101,-9.488817,-0.20257246
2.05,24.13927,21.359695,10.6500225,0.59168625,-9.500181,-0.22361827
2.052,24.071342,21.41078,10.99855,0.6765845,-9.48587,-0.24039797
2.054,23.993956,21.444487,11.343389,0.7793448,-9.446583,-0.25255278
2.056,23.90831,21.460516,11.681933,0.8993218,-9.383256,-0.25992388
2.058,23.815594,21.458694,12.011762,1.0356231,-9.296907,-0.2624852
2.06,23.716852,21.439005,12.330637,1.1872098,-9.1885395,-0.26029998
2.062,23.613148,21.40151,12.636377,1.3529227,-9.059142,-0.25343752
2.064,23.505617,21.34646,12.927039,1.5315585,-8.909657,-0.24189566
2.066,23.395185,21.274303,13.200757,1.7219179,-8.740981,-0.22560096
2.068,23.28291,21.185545,13.455949,1.9228148,-8.553973,-0.2044102
2.07,23.169397,21.080908,13.691252,2.133071,-8.349577,-0.17814198
2.072,23.055405,20.961113,13.905487,2.3514533,-8.12895,-0.14661977
2.074,22.941532,20.827085,14.097648,2.5767052,-7.8934946,-0.10971597
2.076,22.828354,20.67993,14.26683,2.8075275,-7.64479,-0.06742811
2.078,22.716335,20.52069,14.4123745,3.0426016,-7.384588,-0.019871593
2.08,22.605797,20.350576,14.533852,3.2805958,-7.1147647,0.032702148
2.082,22.496931,20.170856,14.631125,3.5202007,-6.8372817,0.08993548
2.084,22.3899,19.983004,14.704042,3.7601595,-6.554113,0.15140784
2.086,22.284956,19.78825,14.752829,3.9993143,-6.267149,0.21670604
2.088,22.18208,19.588017,14.777658,4.236621,-5.9781294,0.2854612
2.09,22.081638,19.383568,14.77914,4.4711556,-5.688672,0.35741365
2.092,21.98339,19.176153,14.75809,4.702131,-5.400239,0.43237168
2.094,21.886852,18.967422,14.715885,4.9288545,-5.1141753,0.5102632
2.096,21.791481,18.758736,14.653572,5.1506987,-4.8317223,0.5910898
2.098,21.697294,18.551214,14.572554,5.3670797,-4.5540323,0.6749041
2.1,21.60403,18.34607,14.474186,5.5774307,-4.2821736,0.7617483
2.102,21.510971,18.144543,14.360476,5.7812033,-4.0171247,0.85162324
2.104,21.417591,17.947721,14.233515,5.97786,-3.7597961,0.9444454
2.106,21.323322,17.756493,14.095152,6.1668735,-3.5109882,1.0400683
2.108,21.227936,17.571543,13.947365,6.3477535,-3.2714179,1.1382585
2.11,21.131111,17.39358,13.792227,6.5200295,-3.0417132,1.238722
2.112,21.032312,17.223146,13.631971,6.683289,-2.8223798,1.3411114
2.114,20.93134,17.060616,13.468622,6.837186,-2.6138244,1.4450711
2.116,20.827717,16.906448,13.304499,6.9814434,-2.41631,1.5502259
2.118,20.721012,16.761164,13.141782,7.1158795,-2.2299795,1.6561999
2.12,20.611427,16.624767,12.98246,7.2404013,-2.054867,1.7626408
2.122,20.498646,16.49749,12.8282795,7.3550153,-1.8909193,1.8692149
2.124,20.383041,16.379286,12.680832,7.459783,-1.7379988,1.9756324
2.126,20.264595,16.270035,12.541926,7.5548496,-1.5959044,2.0816417
2.128,20.143402,16.16965,12.412734,7.640393,-1.4644017,2.1870615
2.13,20.019794,16.078003,12.294706,7.7166424,-1.3432142,2.2917564
2.132,19.894049,15.994773,12.188917,7.7838593,-1.2320209,2.395631
2.134,19.766342,15.919758,12.096285,7.8423047,-1.1304767,2.4986405
2.136,19.636955,15.852619,12.017758,7.8922095,-1.0381888,2.6007788
2.138,19.506042,15.793039,11.954069,7.9338303,-0.9546903,2.702052
2.14,19.373844,15.740599,11.905935,7.9674034,-0.87944037,2.8024755
2.142,19.240498,15.695002,11.873634,7.993168,-0.8118042,2.9020693
2.144,19.105984,15.655906,11.857393,8.011377,-0.75104576,3.000855
2.146,18.970549,15.623007,11.857281,8.022292,-0.6963361,3.0988636
2.148,18.834103,15.5955925,11.873044,8.026202,-0.6467734,3.1961105
2.15,18.696434,15.573357,11.904306,8.023447,-0.6013952,3.292623
2.152,18.55748,15.555532,11.950457,8.014399,-0.55920905,3.388396
2.154,18.41697,15.541304,12.011095,7.9994645,-0.5192238,3.4833956
2.156,18.274029,15.530252,12.085369,7.9791017,-0.48048067,3.5775712
2.158,18.128233,15.521605,12.172521,7.953738,-0.4421235,3.670853
2.16,17.979677,15.514155,12.271536,7.9238334,-0.40336713,3.763111
2.162,17.82773,15.506975,12.381386,7.8898206,-0.36356178,3.8541892
2.164,17.671896,15.498962,12.50134,7.8521137,-0.32219028,3.9438725
2.166,17.511831,15.488983,12.630209,7.8110676,-0.2788761,4.0319266
2.168,17.346905,15.475878,12.7665825,7.766974,-0.23337793,4.1180906
2.17,17.17698,15.458303,12.908899,7.7200623,-0.18560334,4.2020807
2.172,17.001945,15.435276,13.055997,7.670489,-0.13558006,4.283614
2.174,16.821522,15.40553,13.206725,7.618322,-0.08345918,4.3624153
2.176,16.636038,15.368006,13.3601265,7.563544,-0.02950491,4.4382277
2.178,16.445524,15.321729,13.515304,7.506085,0.025927149,4.510828
2.18,16.250357,15.2660475,13.67116,7.4458203,0.082403935,4.580037
2.182,16.05096,15.200203,13.826468,7.3825917,0.13950136,4.645728
2.184,15.847978,15.12355,13.980314,7.3161826,0.1966655,4.707825
2.186,15.64213,15.035561,14.131792,7.2463393,0.25332096,4.766286
2.188,15.434463,14.935549,14.279956,7.1729016,0.30907562,4.821099
2.19,15.225691,14.823453,14.423858,7.0957017,0.36351955,4.872324
2.192,15.016795,14.699294,14.562656,7.0145364,0.4162083,4.9200273
2.194,14.808935,14.563195,14.695673,6.9292593,0.46680695,4.9643106
2.196,14.603033,14.415653,14.821928,6.839805,0.5151417,5.0052624
2.198,14.400003,14.257151,14.940743,6.746156,0.56116056,5.0430064
2.2,14.2005205,14.088465,15.051177,6.648351,0.6049058,5.0776734
2.202,14.005474,13.910607,15.152543,6.54648,0.64655554,5.109413
2.204,13.81537,13.72467,15.243912,6.440678,0.6863616,5.138393
2.206,13.630664,13.531986,15.32467,6.331075,0.724617,5.164818
2.208,13.45182,13.334067,15.393896,6.2178407,0.7616189,5.1889153
2.21,13.278801,13.132441,15.451104,6.1011558,0.7976974,5.2109165
2.212,13.111553,12.928749,15.495708,5.9812593,0.8331244,5.231042
2.214,12.949805,12.724815,15.527209,5.858373,0.8680172,5.249522
2.216,12.793236,12.522299,15.545402,5.732737,0.9023565,5.266571
2.218,12.641339,12.323027,15.550243,5.6045675,0.93593967,5.2823887
2.22,12.493327,12.128815,15.541671,5.474029,0.96832985,5.297142
2.222,12.348251,11.941281,15.520055,5.341237,0.9988663,5.310923
2.224,12.205199,11.761974,15.48587,5.206251,1.0266831,5.323737
2.226,12.063221,11.59227,15.43994,5.0690603,1.0507163,5.3354797
2.228,11.921386,11.433361,15.383212,4.9295835,1.0698004,5.345934
2.23,11.778636,11.286265,15.31692,4.7877293,1.0827389,5.354772
2.232,11.634105,11.151873,15.24258,4.6433835,1.0884057,5.3615966
2.234,11.486754,11.030778,15.16178,4.49646,1.0857908,5.365966
2.236,11.335785,10.9232435,15.076183,4.34693,1.0740688,5.367446
2.238,11.180471,10.829432,14.987753,4.1948733,1.0527568,5.365655
2.24,11.020254,10.749096,14.89841,4.0404577,1.0216511,5.360317
2.242,10.8545685,10.681905,14.810081,3.8838832,0.98068607,5.351289
2.244,10.683174,10.627168,14.724717,3.7254996,0.9302158,5.3385334
2.246,10.505813,10.584029,14.64412,3.565772,0.8709036,5.3221493
2.248,10.322393,10.551688,14.570178,3.4051964,0.8035283,5.3023286
2.25,10.133041,10.528945,14.504202,3.2442908,0.7290019,5.2793293
2.252,9.937757,10.514632,14.44775,3.0836186,0.64837897,5.2534456
2.254,9.736966,10.507466,14.401833,2.9237761,0.5628261,5.2249613
2.256,9.53091,10.506108,14.367334,2.7653565,0.47355092,5.1941557
2.258,9.320106,10.509393,14.34495,2.6089566,0.3817835,5.1612663
2.26,9.105087,10.515866,14.335042,2.4551737,0.288723,5.1265306
2.262,8.886407,10.524445,14.337732,2.3045564,0.19550884,5.090151
2.264,8.6647,10.5340805,14.3526745,2.157562,0.103123516,5.052329
2.266,8.440959,10.543437,14.379451,2.0145907,0.012458004,5.0132694
2.268,8.21559,10.551687,14.417352,1.8759693,-0.07572587,4.97315
2.27,7.9887238,10.558374,14.465624,1.7419438,-0.16082501,4.932153
2.272,7.761096,10.562758,14.523306,1.6126913,-0.24239306,4.8904467
2.274,7.5334463,10.564276,14.58909,1.4883264,-0.32009822,4.8481836
2.276,7.3062425,10.562495,14.661894,1.3688781,-0.39377174,4.8055406
2.278,7.0800166,10.557148,14.74077,1.2542818,-0.46335527,4.762686
2.28,6.855016,10.548074,14.824585,1.1444246,-0.5289024,4.7197795
2.282,6.6315975,10.535048,14.912023,1.039128,-0.59055036,4.676959
2.284,6.4099364,10.518185,15.001635,0.9381486,-0.6485318,4.63435
2.286,6.18992,10.49745,15.092106,0.8412018,-0.7031492,4.5920405
2.288,5.9717855,10.472953,15.182207,0.74796236,-0.75473595,4.550082
2.29,5.7555027,10.444571,15.270974,0.6580868,-0.80367607,4.5085053
2.292,5.5408325,10.412615,15.357653,0.57122636,-0.8503661,4.467313
2.294,5.327584,10.377384,15.441328,0.48703897,-0.89520574,4.4264717
2.296,5.1156034,10.339071,15.521273,0.40520024,-0.938558,4.3859167
2.298,4.9044766,10.297983,15.59671,0.32541525,-0.98074245,4.3455834
2.3,4.694123,10.254271,15.66716,0.24743152,-1.0220184,4.3053923
2.302,4.4842634,10.207924,15.732109,0.17103028,-1.0625721,4.2652597
2.304,4.274272,10.159037,15.791093,0.0960325,-1.102534,4.2251253
2.306,4.0639567,10.107657,15.843766,0.02231443,-1.1419599,4.1849203
2.308,3.853074,10.053842,15.889753,-0.050215483,-1.1808603,4.144604
2.31,3.6414752,9.997509,15.928872,-0.12161541,-1.2192323,4.1041403
2.312,3.4288788,9.938613,15.960994,-0.19191718,-1.2570457,4.0634995
2.314,3.215197,9.877041,15.98603,-0.26112533,-1.2942994,4.022662
2.316,3.000167,9.812615,16.003988,-0.32923555,-1.3310083,3.9816272
2.318,2.78372,9.7452545,16.014885,-0.3962009,-1.3671945,3.9403963
2.32,2.5658631,9.674829,16.018787,-0.4619739,-1.402921,3.8989885
2.322,2.34649,9.601286,16.015753,-0.5265124,-1.438258,3.8574507
2.324,2.1255636,9.524535,16.005936,-0.5897566,-1.4732902,3.8158445
2.326,1.9032178,9.444476,15.989325,-0.65166366,-1.5080729,3.7742538
2.328,1.6793804,9.361132,15.965937,-0.71219456,-1.5426228,3.7327878
2.33,1.4540505,9.274586,15.936,-0.7713206,-1.5768676,3.6915512
2.332,1.2275462,9.184845,15.899394,-0.82901394,-1.6106277,3.6506622
2.334,0.999979,9.09212,15.856194,-0.8852626,-1.6435971,3.6102288
2.336,0.7715192,8.996566,15.806362,-0.9400786,-1.6753516,3.5703454
2.338,0.54239225,8.89838,15.749798,-0.9934994,-1.7053554,3.5310698
2.34,0.31289577,8.797962,15.686424,-1.0455921,-1.7329886,3.4924579
2.342,0.083291054,8.695367,15.616089,-1.0964532,-1.75757,3.454553
2.344,-0.14591408,8.59098,15.538702,-1.1462132,-1.7784098,3.4174051
2.346,-0.37436056,8.485199,15.454037,-1.1950318,-1.794892,3.3810396
2.348,-0.6017661,8.378324,15.362015,-1.2430905,-1.8065057,3.3454933
2.35,-0.8278041,8.270662,15.262617,-1.2905904,-1.8129125,3.3107991
2.352,-1.0519738,8.162549,15.155661,-1.3377415,-1.8139582,3.2769794
2.354,-1.2738438,8.054319,15.041222,-1.3847505,-1.8097131,3.2440321
2.356,-1.4931579,7.946274,14.919241,-1.431811,-1.8004665,3.2119367
2.358,-1.709475,7.8386307,14.789667,-1.4791005,-1.7866817,3.180636
2.36,-1.9226627,7.731801,14.652885,-1.526767,-1.768992,3.150036
2.362,-2.1322098,7.626032,14.508938,-1.5749412,-1.7481318,3.1200418
2.364,-2.3380876,7.521537,14.3582115,-1.6237078,-1.7248985,3.0905478
2.366,-2.5399983,7.418624,14.201083,-1.6731176,-1.7001077,3.061437
2.368,-2.738039,7.317643,14.03816,-1.723187,-1.6745065,3.0326102
2.37,-2.9322207,7.2189007,13.870059,-1.7738861,-1.6487684,3.0039852
2.372,-3.1225822,7.122594,13.697398,-1.8251568,-1.6234471,2.9755032
2.374,-3.3094065,7.0288963,13.521019,-1.8769007,-1.5989432,2.9471269
2.376,-3.4928405,6.9382277,13.341745,-1.9289865,-1.5755056,2.9188519
2.378,-3.6730993,6.850756,13.160312,-1.9812675,-1.5532322,2.8907006
2.38,-3.8507547,6.766938,12.977675,-2.0335815,-1.5320861,2.8627028
2.382,-4.026121,6.687028,12.794511,-2.085777,-1.5119373,2.8349073
2.384,-4.199552,6.611425,12.611676,-2.1376936,-1.4926001,2.8073804
2.386,-4.371613,6.5404415,12.430017,-2.1892066,-1.4738345,2.7801664
2.388,-4.542466,6.4744062,12.2502575,-2.2401996,-1.455384,2.75329
2.39,-4.712494,6.4136715,12.072935,-2.2905707,-1.4369553,2.7267752
2.392,-4.8821464,6.3585653,11.898538,-2.3402457,-1.4182144,2.7006059
2.394,-5.051445,6.3093204,11.727591,-2.3891535,-1.3988016,2.67476
2.396,-5.220699,6.2662573,11.560371,-2.437253,-1.3783356,2.6491978
2.398,-5.3900785,6.229553,11.397095,-2.4844866,-1.3563797,2.6238496
2.4,-5.5593934,6.1995125,11.23796,-2.5308118,-1.332448,2.5986717
2.402,-5.7286863,6.176309,11.082968,-2.5761704,-1.3060585,2.5736084
2.404,-5.897797,6.1599464,10.932135,-2.6205184,-1.2767518,2.5486112
2.406,-6.066609,6.150571,10.785245,-2.6637812,-1.2441268,2.5236359
2.408,-6.234733,6.148136,10.642157,-2.705893,-1.2078704,2.4986544
2.41,-6.4018717,6.1525292,10.50244,-2.746789,-1.1677798,2.4735804
2.412,-6.5675354,6.1636205,10.365599,-2.7864237,-1.1237956,2.4482884
2.414,-6.7311974,6.18113,10.231237,-2.8247495,-1.0759665,2.4226751
2.416,-6.8923817,6.204759,10.098946,-2.8617253,-1.0244561,2.3965802
2.418,-7.0504646,6.234213,9.968121,-2.8973188,-0.9694902,2.3698204
2.42,-7.204974,6.269244,9.838093,-2.9315178,-0.91132057,2.34218
2.422,-7.355379,6.3094034,9.708081,-2.964311,-0.85019624,2.3134427
2.424,-7.5011415,6.354399,9.577557,-2.9956942,-0.7862903,2.2833862
2.426,-7.6416454,6.4038935,9.445718,-3.025672,-0.7197174,2.2518368
2.428,-7.776544,6.457506,9.311937,-3.0542772,-0.6505386,2.2186718
2.43,-7.905195,6.5149527,9.175542,-3.0815415,-0.57876307,2.1838257
2.432,-8.02722,6.5760365,9.035833,-3.1075146,-0.50438255,2.147305
2.434,-8.142368,6.640452,8.892138,-3.1322374,-0.42740262,2.1092172
2.436,-8.2505,6.7082973,8.744165,-3.155768,-0.34785014,2.0697198
2.438,-8.351205,6.77936,8.591285,-3.178162,-0.26581323,2.0290198
2.44,-8.444481,6.853732,8.433172,-3.19946,-0.1814546,1.9873643
2.442,-8.530312,6.9316115,8.269568,-3.2197084,-0.095008284,1.9450171
2.444,-8.608928,7.013006,8.100235,-3.2389376,-0.006754011,1.9022264
2.446,-8.680378,7.098249,7.9250197,-3.2571702,0.08298865,1.8592142
2.448,-8.744904,7.187642,7.7439246,-3.2744215,0.17389,1.816149
2.45,-8.802787,7.281417,7.556884,-3.29072,0.2656208,1.7731614
2.452,-8.854222,7.3800416,7.364087,-3.3061209,0.35784456,1.7303288
2.454,-8.899753,7.4839697,7.1656218,-3.3206682,0.45023802,1.6876657
2.456,-8.939547,7.5935726,6.9617805,-3.334433,0.54250306,1.6451199
2.458,-8.9739065,7.70911,6.7526407,-3.3474767,0.63438284,1.6025896
2.46,-9.003101,7.831041,6.5382414,-3.3598964,0.72562206,1.559914
2.462,-9.027514,7.9597535,6.3190665,-3.3717818,0.8159881,1.5169055
2.464,-9.047474,8.095375,6.0953035,-3.3832128,0.9052442,1.473374
2.466,-9.063073,8.2381935,5.867297,-3.3942566,0.99316615,1.4291065
2.468,-9.074538,8.388313,5.635352,-3.405004,1.0795418,1.3838476
2.47,-9.081962,8.545672,5.3995795,-3.415517,1.1641828,1.3373543
2.472,-9.085508,8.710318,5.160424,-3.425855,1.2468821,1.2894092
2.474,-9.085114,8.882054,4.9180174,-3.4360664,1.3274274,1.239815
2.476,-9.080854,9.060721,4.6726933,-3.4461985,1.4056181,1.1883779
2.478,-9.072487,9.246031,4.42441,-3.4562814,1.481253,1.1349536
2.48,-9.059917,9.437631,4.1734633,-3.4663298,1.554174,1.0794129
2.482,-9.0431595,9.63512,3.9199839,-3.4763436,1.6242819,1.021651
2.484,-9.021934,9.838246,3.6642115,-3.4862988,1.6915308,0.9616301
2.486,-8.996137,10.046562,3.406304,-3.4961665,1.7559507,0.8993579
2.488,-8.965821,10.259692,3.1464064,-3.5059004,1.817641,0.83488333
2.49,-8.930777,10.477239,2.8844507,-3.515424,1.8767794,0.76833725
2.492,-8.890972,10.698767,2.6208158,-3.52466,1.93361,0.69987357
2.494,-8.846458,10.923992,2.3554988,-3.5335011,1.9884132,0.6296958
2.496,-8.796994,11.152593,2.0885415,-3.5418336,2.0415106,0.55802226
2.498,-8.742815,11.384256,1.8201098,-3.5495434,2.0932143,0.48509514
2.5,-8.683944,11.618616,1.550246,-3.556513,2.1438277,0.41115224
2.502,-8.620314,11.855499,1.2788794,-3.5626347,2.1936285,0.33641434
2.504,-8.552122,12.094576,1.0059474,-3.5677917,2.2428608,0.26107347
2.506,-8.479467,12.33589,0.7316114,-3.571885,2.2917306,0.18530047
2.508,-8.402396,12.579236,0.45565867,-3.5748382,2.3404062,0.10922742
2.51,-8.321162,12.824299,0.17797029,-3.5765948,2.3890007,0.03295195
2.512,-8.235656,13.070923,-0.10152936,-3.5771127,2.437569,-0.04345882
2.514,-8.146022,13.319033,-0.38301063,-3.5763755,2.4861352,-0.1199891
2.516,-8.052205,13.568376,-0.6667,-3.5743787,2.5346742,-0.19664872
2.518,-7.9542537,13.818793,-0.95276654,-3.5711398,2.583156,-0.2734754
2.52,-7.8523517,14.070077,-1.2413688,-3.566683,2.6315126,-0.35053015
2.522,-7.7462606,14.321939,-1.5325522,-3.5610456,2.679635,-0.42789823
2.524,-7.6359105,14.574153,-1.8266652,-3.5542786,2.7273872,-0.5056674
2.526,-7.521349,14.826345,-2.1237395,-3.5464654,2.7746024,-0.58394116
2.528,-7.402591,15.078169,-2.4237857,-3.5376704,2.82108,-0.66280377
2.53,-7.279525,15.329152,-2.7266731,-3.5279727,2.8665693,-0.74233496
2.532,-7.1520042,15.579008,-3.0325117,-3.5174801,2.9107857,-0.8226237
2.534,-7.0199823,15.827289,-3.3411226,-3.5063071,2.9534214,-0.90373665
2.536,-6.8834887,16.073593,-3.6523173,-3.4945757,2.9941335,-0.98571205
2.538,-6.742448,16.317564,-3.965712,-3.4824123,3.0325723,-1.0685863
2.54,-6.5969124,16.558855,-4.280987,-3.46996,3.0683875,-1.152369
2.542,-6.446785,16.796907,-4.5975704,-3.4573607,3.1012335,-1.237051
2.544,-6.291725,17.031343,-4.9149513,-3.4447725,3.1307592,-1.3226142
2.546,-6.131919,17.261702,-5.2325644,-3.4323664,3.156639,-1.4089941
2.548,-5.9673676,17.487644,-5.549648,-3.4203215,3.1785862,-1.4961231
2.55,-5.797938,17.70868,-5.865595,-3.4088016,3.1963542,-1.5839071
2.552,-5.6236506,17.924467,-6.1796055,-3.3979611,3.209771,-1.6722604
2.554,-5.44439,18.134693,-6.49094,-3.3879414,3.2187467,-1.7610774
2.556,-5.260174,18.338861,-6.7989407,-3.378857,3.2232904,-1.8502519
2.558,-5.070967,18.536667,-7.1028404,-3.3707654,3.2235277,-1.9396691
2.56,-4.876763,18.727833,-7.4020095,-3.3636835,3.2196934,-2.0291946
2.562,-4.6774774,18.91186,-7.6958256,-3.3575797,3.2121375,-2.1186776
2.564,-4.473007,19.088486,-7.983803,-3.3523767,3.2012877,-2.2079666
2.566,-4.2633367,19.257341,-8.265446,-3.3479633,3.1876373,-2.296916
2.568,-4.048441,19.418127,-8.540353,-3.3441873,3.1717205,-2.3853621
2.57,-3.8283596,19.570518,-8.808205,-3.3409173,3.1540585,-2.473145
2.572,-3.602992,19.714117,-9.068878,-3.338005,3.1351209,-2.5600896
2.574,-3.372305,19.848478,-9.32221,-3.3353324,3.1153345,-2.646003
2.576,-3.1350322,19.972157,-9.567375,-3.33279,3.0950718,-2.7306776
2.578,-2.8942595,20.085428,-9.805031,-3.3303037,3.074619,-2.8139224
2.58,-2.651565,20.187391,-10.034428,-3.3278022,3.054205,-2.8955324
2.582,-2.4038868,20.276253,-10.252714,-3.3252723,3.034,-2.975337
2.584,-2.1521535,20.348728,-10.463186,-3.3227086,3.0141351,-3.0531793
2.586,-1.8951883,20.398003,-10.660258,-3.3201087,2.994703,-3.128942
2.588,-1.635539,20.426638,-10.841025,-3.317494,2.9757903,-3.2025757
2.59,-1.3740721,20.443424,-11.007069,-3.3148694,2.957483,-3.274086
2.592,-1.1109734,20.44963,-11.159989,-3.3122306,2.9398665,-3.3435192
2.594,-0.8441515,20.441004,-11.300929,-3.3095694,2.9230053,-3.4109666
2.596,-0.5723696,20.412926,-11.426397,-3.30684,2.9069602,-3.4765134
2.598,-0.29703617,20.363655,-11.531475,-3.303968,2.8917768,-3.540259
2.6,-0.017811775,20.293766,-11.612694,-3.3008618,2.8774552,-3.6022687
2.602,0.26962757,20.201199,-11.668634,-3.2974043,2.8639667,-3.6625438
2.604,0.5626221,20.089193,-11.701799,-3.2934337,2.8512826,-3.7210302
2.606,0.8614731,19.956001,-11.711256,-3.2886975,2.8395977,-3.7775187
2.608,1.1681175,19.800749,-11.696399,-3.2827208,2.8291163,-3.8317657
2.61,1.4835186,19.625002,-11.656042,-3.2750673,2.8196692,-3.8836854
2.612,1.808465,19.430115,-11.589407,-3.2654347,2.8116374,-3.9324841
2.614,2.1436634,19.21772,-11.496454,-3.2529473,2.8055358,-3.9777617
2.616,2.4913807,18.98674,-11.37686,-3.2367504,2.8020954,-4.0186224
2.618,2.8553052,18.735928,-11.229031,-3.216251,2.8032908,-4.052386
2.62,3.2350492,18.473934,-11.059659,-3.1907783,2.8120742,-4.0757203
2.622,3.635459,18.201996,-10.872771,-3.1586902,2.8322668,-4.086499
2.624,4.059428,17.923424,-10.673147,-3.1172237,2.8689232,-4.082982
2.626,4.5068307,17.642727,-10.468188,-3.0632691,2.9279943,-4.062487
2.628,4.980859,17.360674,-10.26418,-2.9937072,3.0165286,-4.0211563
2.63,5.483198,17.078213,-10.069199,-2.904895,3.1431146,-3.9553957
2.632,6.0147576,16.796585,-9.892108,-2.7929816,3.316999,-3.86206
2.634,6.575932,16.517134,-9.742481,-2.653417,3.547658,-3.7397501
2.636,7.165832,16.241135,-9.630816,-2.4804754,3.844186,-3.5899968
2.638,7.782996,15.969181,-9.5676985,-2.2685275,4.214084,-3.4160614
2.64,8.424728,15.701045,-9.563092,-2.012545,4.6619406,-3.2233222
2.642,9.087297,15.435149,-9.625705,-1.7085376,5.1881046,-3.019721
2.644,9.766009,15.168855,-9.763359,-1.3541641,5.7877955,-2.815376
2.646,10.454917,14.898669,-9.982425,-0.9496684,6.4504185,-2.6215951
2.648,11.147063,14.620888,-10.287408,-0.49875307,7.159672,-2.44894
2.65,11.834895,14.331466,-10.680458,-0.009004116,7.8942566,-2.3065634
2.652,12.510779,14.026063,-11.160957,0.5081024,8.628171,-2.2027543
2.654,13.166822,13.700268,-11.725824,1.0377102,9.333145,-2.1430516
2.656,13.795663,13.350057,-12.3698845,1.5629578,9.9808655,-2.13055
2.658,14.389542,12.97216,-13.085476,2.0662322,10.545065,-2.1657357
2.66,14.941451,12.564129,-13.862496,2.5304456,11.003363,-2.2461495
2.662,15.445087,12.124371,-14.68889,2.9403741,11.338917,-2.3667145
2.664,15.895233,11.652351,-15.55085,3.2840648,11.541424,-2.520299
2.666,16.287598,11.148731,-16.433456,3.5536375,11.606489,-2.699104
2.668,16.619558,10.615202,-17.32108,3.7450006,11.535816,-2.8941875
2.67,16.889284,10.0545845,-18.19775,3.8582919,11.336161,-3.0969317
2.672,17.096375,9.470691,-19.047966,3.8971395,11.017621,-3.2999687
2.674,17.241734,8.867992,-19.856522,3.8674319,10.593256,-3.4959352
2.676,17.327274,8.25188,-20.609577,3.775963,10.078091,-3.6769333
2.678,17.355955,7.62821,-21.294634,3.6300855,9.487738,-3.8366146
2.68,17.331287,7.0032797,-21.900768,3.4378734,8.837939,-3.9713635
2.682,17.25743,6.383356,-22.419348,3.207625,8.1437235,-4.0796647
2.684,17.139187,5.774892,-22.843838,2.9468994,7.4186482,-4.1606894
2.686,16.980822,5.1845274,-23.170452,2.6626596,6.675173,-4.2146707
2.688,16.789795,4.61666,-23.395512,2.3607936,5.9241014,-4.24244
2.69,16.57081,4.0766172,-23.518967,2.0461102,5.174347,-4.245426
2.692,16.32476,3.5689135,-23.54443,1.7235138,4.4330606,-4.2271147
2.694,16.057117,3.0981684,-23.471193,1.397641,3.7057219,-4.191978
2.696,15.770901,2.669567,-23.308378,1.0724803,2.9962773,-4.144537
2.698,15.471903,2.2783089,-23.06158,0.7512313,2.307272,-4.089161
2.7,15.162941,1.9164705,-22.733376,0.43646407,1.640311,-4.0300045
2.702,14.846013,1.5854597,-22.32833,0.13023174,0.99638325,-3.9712331
2.704,14.520842,1.2904768,-21.85308,-0.1659882,0.37626922,-3.9159477
2.706,14.188594,1.0340986,-21.318733,-0.4512223,-0.2184354,-3.8651388
2.708,13.85251,0.81475353,-20.73616,-0.72487503,-0.7860949,-3.8193953
2.71,13.513604,0.6283102,-20.113377,-0.9868105,-1.3249639,-3.7783873
2.712,13.169527,0.47350693,-19.456396,-1.2368454,-1.833036,-3.7413197
2.714,12.824877,0.34445286,-18.768362,-1.4744688,-2.3082607,-3.7076066
2.716,12.480291,0.24083328,-18.057014,-1.6988626,-2.748757,-3.676687
2.718,12.135191,0.16106033,-17.32976,-1.9090022,-3.1529837,-3.6479797
2.72,11.790232,0.10157776,-16.594309,-2.1037889,-3.519868,-3.6208014
2.722,11.446268,0.05988407,-15.857836,-2.2821336,-3.8489606,-3.5944881
2.724,11.103839,0.03412819,-15.126841,-2.4430273,-4.140563,-3.5685756
2.726,10.762452,0.024694443,-14.408024,-2.585677,-4.395694,-3.5427508
2.728,10.420752,0.031714916,-13.708555,-2.7096639,-4.6160183,-3.5168157
2.73,10.081605,0.046883583,-13.028525,-2.8150377,-4.8036633,-3.4906404
2.732,9.7426815,0.07088661,-12.37235,-2.9023046,-4.9609413,-3.4640384
2.734,9.404657,0.10228729,-11.744418,-2.9724064,-5.090336,-3.4367766
2.736,9.07062,0.13912868,-11.146971,-3.0266814,-5.194402,-3.4085646
2.738,8.73987,0.18275356,-10.584073,-3.0667548,-5.275708,-3.379099
2.74,8.413546,0.23326302,-10.057964,-3.0943508,-5.3367033,-3.348065
2.742,8.092663,0.289773,-9.569969,-3.1111941,-5.379734,-3.3151834
2.744,7.7781954,0.3506236,-9.120547,-3.118959,-5.407132,-3.2801976
2.746,7.4719763,0.4140463,-8.708957,-3.1192064,-5.421236,-3.2429166
2.748,7.175124,0.47843504,-8.333998,-3.113357,-5.424449,-3.2032423
2.75,6.8889155,0.5427356,-7.9943085,-3.1026897,-5.419202,-3.161199
2.752,6.614605,0.60642004,-7.6882353,-3.088335,-5.4079022,-3.1169841
2.754,6.3536005,0.6690726,-7.413684,-3.0712748,-5.3928685,-3.0710053
2.756,6.107066,0.73050356,-7.1677885,-3.0523448,-5.376148,-3.023849
2.758,5.8761063,0.79000473,-6.947692,-3.03222,-5.3594084,-2.9762905
2.76,5.661562,0.846889,-6.7505083,-3.0113945,-5.3438253,-2.929186
2.762,5.4636135,0.90060353,-6.573537,-2.990172,-5.3300247,-2.883385
2.764,5.282279,0.95072913,-6.414091,-2.9686983,-5.318072,-2.8396287
2.766,5.117493,0.996634,-6.269137,-2.9469619,-5.3075438,-2.7985048
2.768,4.969266,1.0376511,-6.1360188,-2.9247801,-5.2975407,-2.760344
2.77,4.837384,1.0730844,-6.0125575,-2.901843,-5.2868094,-2.7252183
2.772,4.721547,1.1025496,-5.8969126,-2.8777685,-5.2739763,-2.6929426
2.774,4.6210904,1.1256337,-5.787708,-2.8521836,-5.2576733,-2.663137
2.776,4.535505,1.1420596,-5.6836505,-2.824712,-5.2365837,-2.6353111
2.778,4.463783,1.1517975,-5.5840483,-2.795004,-5.2094736,-2.6088455
2.78,4.4052334,1.1549358,-5.4884605,-2.762782,-5.1753817,-2.5830941
2.782,4.358905,1.151782,-5.3966126,-2.727871,-5.133657,-2.5574434
2.784,4.323902,1.1426294,-5.3087406,-2.690174,-5.083967,-2.5313575
2.786,4.2991495,1.1278656,-5.225109,-2.6496527,-5.0262694,-2.5044188
2.788,4.2838316,1.1079764,-5.1461577,-2.6063488,-4.96076,-2.4763384
2.79,4.2770085,1.0835183,-5.0724764,-2.5603576,-4.887865,-2.4469547
2.792,4.2779665,1.055017,-5.0045652,-2.5117943,-4.8081336,-2.4162178
2.794,4.285699,1.023016,-4.942712,-2.4607925,-4.722204,-2.3841608
2.796,4.2992907,0.98825574,-4.8873777,-2.4074733,-4.6307144,-2.3508883
2.798,4.3184366,0.9514394,-4.839279,-2.3519359,-4.534248,-2.316575
2.8,4.342676,0.9132621,-4.798643,-2.294248,-4.433304,-2.2814393
2.802,4.371403,0.8747337,-4.7653065,-2.2344513,-4.328246,-2.2456994
2.804,4.403771,0.8366189,-4.7389636,-2.1725626,-4.2193484,-2.2096095
2.806,4.4393196,0.79971933,-4.719509,-2.1085818,-4.1067595,-2.173379
2.808,4.4777913,0.76465774,-4.7067347,-2.0424795,-3.990519,-2.137185
2.81,4.5189767,0.7320883,-4.7004867,-1.9742223,-3.8706074,-2.101161
2.812,4.562791,0.70253587,-4.7003226,-1.9037907,-3.7469726,-2.0653875
2.814,4.6090665,0.676321,-4.705843,-1.8311516,-3.619522,-2.0299127
2.816,4.658064,0.6539571,-4.7163844,-1.7562963,-3.488184,-1.9947258
2.818,4.7097454,0.6356132,-4.7315345,-1.679224,-3.3529088,-1.9597623
2.82,4.7641907,0.62162375,-4.7506104,-1.5999618,-3.2137065,-1.9249213
2.822,4.8181753,0.61108994,-4.7722864,-1.5185547,-3.0706682,-1.8900855
2.824,4.8742495,0.6048336,-4.7969446,-1.4350798,-2.9239697,-1.8551254
2.826,4.9323297,0.60283136,-4.824157,-1.3496485,-2.7738857,-1.8199128
2.828,4.9924135,0.60500836,-4.8535786,-1.2624023,-2.620786,-1.7843281
2.83,5.054417,0.6112597,-4.8848658,-1.1735237,-2.4650986,-1.7482697
2.832,5.1182237,0.62127423,-4.917596,-1.083211,-2.3073359,-1.7116756
2.834,5.183928,0.6347296,-4.9514503,-0.99167377,-2.1480584,-1.6745279
2.836,5.251357,0.65127945,-4.9860973,-0.89915663,-1.9878755,-1.6368374
2.838,5.320395,0.6704731,-5.021271,-0.8059029,-1.8274262,-1.5986457
2.84,5.3908057,0.6919527,-5.0565996,-0.71217823,-1.667357,-1.5600145
2.842,5.462389,0.7153604,-5.0919294,-0.61822724,-1.5083225,-1.5210115
2.844,5.534845,0.74034595,-5.1268625,-0.524304,-1.3509682,-1.4817168
2.846,5.6077833,0.7664776,-5.16127,-0.43066418,-1.1959442,-1.4422005
2.848,5.6809635,0.7934878,-5.194933,-0.3375563,-1.0438819,-1.4025439
2.85,5.7540665,0.8210106,-5.2275596,-0.24815652,-0.8995373,-1.3642098
2.852,5.8267374,0.84871745,-5.259127,-0.16121083,-0.7612033,-1.3265452
2.854,5.898991,0.8763766,-5.2895,-0.0774097,-0.6299265,-1.2898257
2.856,5.970242,0.9037132,-5.3187346,0.0025565634,-0.50666505,-1.2543477
2.858,6.040314,0.930629,-5.3468113,0.07804112,-0.39221194,-1.2203957
2.86,6.109009,0.9569187,-5.3736734,0.14850013,-0.28712428,-1.1882448
2.862,6.1761837,0.9824343,-5.39932,0.21352842,-0.19169302,-1.1581272
2.864,6.2415147,1.0072017,-5.423716,0.27291378,-0.10590297,-1.1302112
2.866,6.3050323,1.031045,-5.446974,0.32663053,-0.029463768,-1.1045859
2.868,6.3667245,1.0538771,-5.469098,0.37481707,0.038132995,-1.0812564
2.87,6.426335,1.0757573,-5.4900837,0.41776687,0.09757486,-1.0601709
2.872,6.483981,1.096699,-5.5100718,0.45586818,0.14964056,-1.0412216
