Time_s_,Acc_x_m_s_2_,Acc_y_m_s_2_,Acc_z_m_s_2_,Gyro_x_1_s_,Gyro_y_1_s_,Gyro_z_1_s_
0,0.6634285,-0.37290698,-0.45260444,0.42712453,-0.09900963,0.26118588
0.002,0.6609581,-0.36942428,-0.44025913,0.42884773,-0.10217437,0.26124853
0.004,0.65842783,-0.36590856,-0.42718598,0.43061775,-0.10591416,0.2612366
0.006,0.65558004,-0.36230433,-0.41342074,0.43240768,-0.110327736,0.2611242
0.008,0.6524833,-0.3586338,-0.39901188,0.43418604,-0.115504935,0.2608857
0.01,0.6491824,-0.35487798,-0.38384327,0.43592268,-0.12150669,0.26048264
0.012,0.645748,-0.3510728,-0.36791927,0.43758628,-0.12837526,0.25987452
0.014,0.6419465,-0.34718645,-0.35124284,0.43915075,-0.1361162,0.2590437
0.016,0.6378362,-0.34314716,-0.33377737,0.44060308,-0.14467968,0.257966
0.018,0.63332295,-0.33895037,-0.3156066,0.4419483,-0.15395507,0.25664544
0.02,0.628448,-0.3346069,-0.2966989,0.44320372,-0.16377455,0.2550888
0.022,0.6231249,-0.3300875,-0.27712104,0.44441208,-0.1739303,0.25330526
0.024,0.61734724,-0.32529715,-0.25697953,0.4456277,-0.18417704,0.2513277
0.026,0.61097914,-0.32028893,-0.23629144,0.4469093,-0.1942528,0.24918155
0.028,0.6040358,-0.31494182,-0.21518372,0.44839147,-0.20411137,0.24689324
0.03,0.59642595,-0.3092091,-0.19393098,0.45002675,-0.21326432,0.24452372
0.032,0.5881969,-0.30308086,-0.17262183,0.4518601,-0.22156349,0.24211226
0.034,0.579471,-0.2965539,-0.15149431,0.4539315,-0.22890723,0.23970488
0.036,0.570057,-0.28956464,-0.13070872,0.4562553,-0.23525035,0.23734397
0.038,0.5601077,-0.28207964,-0.11044212,0.45882306,-0.24059731,0.235056
0.04,0.5494269,-0.27412063,-0.090848565,0.46161646,-0.24499062,0.23288375
0.042,0.53824645,-0.2656251,-0.07206943,0.46459192,-0.24850032,0.2308604
0.044,0.5265574,-0.25670913,-0.054190524,0.46771175,-0.25124764,0.22900574
0.046,0.51427495,-0.24721785,-0.037300203,0.4709181,-0.2533656,0.227326
0.048,0.5014842,-0.2372551,-0.021404292,0.47415957,-0.25500035,0.22582187
0.05,0.48818713,-0.226732,-0.006533541,0.47737706,-0.25630122,0.22448257
0.052,0.47443402,-0.21571767,0.0073495917,0.48051947,-0.2574123,0.2232854
0.054,0.460172,-0.20418285,0.020368412,0.483536,-0.25846225,0.22218949
0.056,0.44527185,-0.19188985,0.03315565,0.4863903,-0.25956807,0.22114065
0.058,0.430293,-0.17924377,0.04519459,0.48903775,-0.2608263,0.22011201
0.06,0.41495296,-0.16622928,0.056614593,0.49145126,-0.26232088,0.2190696
0.062,0.39950255,-0.15292433,0.06771068,0.49359703,-0.26410925,0.21797842
0.064,0.3838518,-0.1392999,0.07869826,0.49546102,-0.26623943,0.21682486
0.066,0.3681844,-0.12548012,0.089931995,0.49703363,-0.26871663,0.2155894
0.068,0.35233358,-0.11147016,0.10164062,0.49829933,-0.27152377,0.21426861
0.07,0.33637685,-0.097346894,0.114036754,0.49926177,-0.27462775,0.21287918
0.072,0.32024878,-0.08302807,0.12743844,0.49991783,-0.27799004,0.21141046
0.074,0.30398688,-0.06874879,0.14203884,0.5002701,-0.28156173,0.2098784
0.076,0.28757343,-0.05437909,0.15797666,0.5003072,-0.2852977,0.20830028
0.078,0.27101886,-0.040016636,0.17544484,0.50002736,-0.2891615,0.20665981
0.08,0.25442797,-0.02570194,0.19441737,0.49943322,-0.29310954,0.2049444
0.082,0.23768541,-0.011362195,0.215036,0.49852866,-0.29709578,0.20312726
0.084,0.22087929,0.0028266609,0.23736842,0.49734363,-0.30106604,0.20118463
0.086,0.20393378,0.016877234,0.26131868,0.4959108,-0.30495298,0.19911247
0.088,0.18678924,0.0307253,0.2868183,0.49427217,-0.3086692,0.19691694
0.09,0.16944106,0.044401586,0.31397653,0.492481,-0.31210464,0.19461495
0.092,0.15171762,0.05796027,0.34250554,0.49058557,-0.3151376,0.19225256
0.094,0.13384944,0.07152235,0.37225097,0.48864606,-0.3176199,0.18988013
0.096,0.11566985,0.0851592,0.4030236,0.48671907,-0.31940493,0.1875659
0.098,0.096962534,0.09897884,0.4343967,0.48484707,-0.32034084,0.18538915
0.1,0.07790718,0.11308356,0.46614826,0.48305202,-0.3203009,0.18343346
0.102,0.05852226,0.12743022,0.4978977,0.4813436,-0.31919244,0.18176807
0.104,0.03879182,0.14220756,0.5293008,0.47970155,-0.31696606,0.18045804
0.106,0.01871936,0.15748808,0.5599236,0.47809553,-0.31362596,0.17954822
0.108,-0.0016758144,0.17333853,0.58958256,0.4764739,-0.30922708,0.17906833
0.11,-0.022492647,0.18997188,0.6178846,0.47474465,-0.30388072,0.17903286
0.112,-0.043720245,0.20722865,0.6446463,0.47281617,-0.29776818,0.17941242
0.114,-0.06527589,0.22519292,0.6696414,0.47056758,-0.29111618,0.18016845
0.116,-0.08702232,0.24387538,0.6926773,0.46788928,-0.28421375,0.1812568
0.118,-0.10906206,0.26317048,0.71381485,0.4646649,-0.27735946,0.18261239
0.12,-0.13148336,0.28314427,0.73293227,0.46079096,-0.27088127,0.18417026
0.122,-0.15411541,0.30372417,0.75010276,0.45620492,-0.2651201,0.18581909
0.124,-0.17695723,0.3247554,0.76553154,0.45085078,-0.2603889,0.18745196
0.126,-0.2000897,0.34614563,0.77940357,0.44472477,-0.25696552,0.18897146
0.128,-0.2235488,0.36785075,0.79206276,0.43785298,-0.25504842,0.19026732
0.13,-0.24723251,0.38968664,0.8036681,0.43029922,-0.25475064,0.1912427
0.132,-0.2711643,0.41150838,0.8147265,0.42215085,-0.2560956,0.19183396
0.134,-0.29535207,0.43302435,0.8255523,0.41351476,-0.25902066,0.1920125
0.136,-0.31970248,0.45401514,0.8364626,0.40451023,-0.26335758,0.19177309
0.138,-0.34432018,0.47416198,0.8479153,0.39525318,-0.26885307,0.19114184
0.14,-0.36918005,0.49331993,0.8603098,0.38586092,-0.2751984,0.19016932
0.142,-0.39429832,0.511329,0.87386674,0.37643862,-0.28207773,0.18893132
0.144,-0.4197631,0.5279231,0.8889659,0.3670824,-0.28915206,0.18750715
0.146,-0.4452715,0.54296243,0.9055908,0.35787892,-0.29609826,0.18597053
0.148,-0.47072634,0.556157,0.92388695,0.348903,-0.3026316,0.18437433
0.15,-0.49570647,0.5673178,0.9436536,0.3402199,-0.30849653,0.18275839
0.152,-0.52028525,0.57606494,0.9648931,0.33187544,-0.3134915,0.18115547
0.154,-0.5443263,0.5823617,0.98755956,0.32391387,-0.31745228,0.17958592
0.156,-0.5677576,0.58578026,1.0116096,0.31635815,-0.32022205,0.17807685
0.158,-0.59038395,0.58616376,1.0370148,0.30923295,-0.32165018,0.17665605
0.16,-0.61204493,0.5831297,1.0635682,0.3025263,-0.32158053,0.17536402
0.162,-0.63258666,0.5766368,1.0911379,0.2962583,-0.3198492,0.17427796
0.164,-0.6517099,0.5663947,1.1193838,0.2904376,-0.31628954,0.17350562
0.166,-0.6693137,0.5524412,1.1480311,0.2850865,-0.31071958,0.17318872
0.168,-0.68514055,0.53458947,1.1764272,0.2802308,-0.30295128,0.17346092
0.17,-0.69884366,0.5127339,1.2041202,0.2759211,-0.29278886,0.17443022
0.172,-0.71020216,0.48686078,1.2305865,0.27220634,-0.28005332,0.17618
0.174,-0.71893054,0.45684484,1.2553697,0.26915628,-0.2645728,0.17874397
0.176,-0.7249345,0.4227897,1.2779993,0.26682627,-0.2462062,0.18210295
0.178,-0.7279166,0.3847434,1.2979598,0.26524487,-0.22489269,0.18618418
0.18,-0.7277597,0.342851,1.3149668,0.2644117,-0.2006398,0.19089729
0.182,-0.7242886,0.29739606,1.3285697,0.26429045,-0.17357163,0.19611098
0.184,-0.7175778,0.2487744,1.3385577,0.26480114,-0.14390996,0.20170134
0.186,-0.7076605,0.19709012,1.3447068,0.26580468,-0.1120047,0.2075562
0.188,-0.6945777,0.14296772,1.3469821,0.26711157,-0.07838484,0.2135888
0.19,-0.67851985,0.08680195,1.3454441,0.26846877,-0.043750286,0.2197386
0.192,-0.6597268,0.029030286,1.3401031,0.26959646,-0.008942798,0.22594914
0.194,-0.6385211,-0.02962732,1.3312061,0.27020812,0.025129288,0.23215324
0.196,-0.6150378,-0.088646,1.3189439,0.27002764,0.05756776,0.23824042
0.198,-0.5897212,-0.14748105,1.3037314,0.26880756,0.08756691,0.24408388
0.2,-0.5629693,-0.20546877,1.2859437,0.26637015,0.114483595,0.24955374
0.202,-0.53506565,-0.26220888,1.2659508,0.2625931,0.13791975,0.25453442
0.204,-0.5067268,-0.31722942,1.2444435,0.25743565,0.1577828,0.25893226
0.206,-0.47833422,-0.37017182,1.2218926,0.25094754,0.17427576,0.26270938
0.208,-0.45023805,-0.4206524,1.1987021,0.24323922,0.18787089,0.26589426
0.21,-0.42296785,-0.46849066,1.1752108,0.23447612,0.19922447,0.26859087
0.212,-0.3969425,-0.51323044,1.1518424,0.2248624,0.20911065,0.27094555
0.214,-0.37237048,-0.5549284,1.1286362,0.2146446,0.21835344,0.27314714
0.216,-0.3495981,-0.5932623,1.1056972,0.20405549,0.22773603,0.2753619
0.218,-0.32894674,-0.628318,1.082731,0.19333959,0.23795708,0.27774262
0.22,-0.31056264,-0.6600932,1.0596288,0.18270487,0.24956116,0.2804124
0.222,-0.29475293,-0.6885127,1.0361217,0.17234051,0.26291656,0.28347492
0.224,-0.2814169,-0.71369386,1.0118446,0.1623579,0.27820623,0.2870065
0.226,-0.27080378,-0.7357346,0.986468,0.1528366,0.29543272,0.29105696
0.228,-0.2628753,-0.75470185,0.9596541,0.14378755,0.31443453,0.295649
0.23,-0.2574871,-0.7709259,0.9310348,0.13515295,0.3349138,0.30080146
0.232,-0.2548303,-0.7845006,0.90028703,0.12684637,0.35645506,0.3064867
0.234,-0.25457856,-0.7957152,0.8670777,0.11873302,0.3785399,0.31263644
0.236,-0.25673985,-0.80476093,0.8312583,0.110649765,0.40059268,0.31918734
0.238,-0.26100758,-0.8119005,0.79277575,0.10242422,0.42199484,0.32604492
0.24,-0.2674367,-0.8172679,0.75179327,0.0939036,0.4421397,0.33306926
0.242,-0.27580267,-0.82108986,0.7083185,0.08497125,0.46051353,0.3400884
0.244,-0.28605682,-0.82337105,0.66263425,0.07555652,0.4767083,0.34692377
0.246,-0.29794455,-0.8241733,0.61501235,0.0656324,0.49042946,0.3533985
0.248,-0.31145492,-0.82350755,0.5657934,0.055203497,0.50150084,0.35934436
0.25,-0.32649985,-0.8215355,0.5154294,0.044335693,0.50987345,0.36462384
0.252,-0.34277442,-0.81821394,0.46423918,0.03311351,0.5156114,0.36912626
0.254,-0.36041388,-0.8134883,0.41250795,0.021630555,0.51892257,0.37276697
0.256,-0.3792436,-0.8074495,0.36077416,0.010017693,0.52011275,0.37551123
0.258,-0.3994945,-0.79996854,0.30946097,-0.001605928,0.5195439,0.37736958
0.26,-0.42123955,-0.7910126,0.25907785,-0.013138145,0.5176303,0.3783928
0.262,-0.44422206,-0.7804866,0.20979978,-0.024466217,0.51482,0.37867758
0.264,-0.46827084,-0.76844084,0.16180676,-0.03548515,0.51155627,0.37834856
0.266,-0.49335253,-0.7548182,0.11534698,-0.04610625,0.50827086,0.3775521
0.268,-0.51969695,-0.73933184,0.07051563,-0.056225568,0.50534064,0.37640637
0.27,-0.54728186,-0.72192913,0.027257517,-0.06573075,0.5031117,0.3750071
0.272,-0.5762898,-0.7024346,-0.014525354,-0.07450169,0.50185424,0.37341785
0.274,-0.60691565,-0.6806198,-0.054921508,-0.0823971,0.5018015,0.37165526
0.276,-0.63932806,-0.656407,-0.093919426,-0.08927694,0.50313085,0.3697115
0.278,-0.6739346,-0.6294802,-0.13151774,-0.0949997,0.5059715,0.3675598
0.28,-0.71075356,-0.59951204,-0.16784777,-0.09944579,0.5104002,0.3651654
0.282,-0.75005525,-0.5662747,-0.20324534,-0.10253629,0.5164515,0.36250708
0.284,-0.7922503,-0.529405,-0.2377663,-0.10423362,0.5241004,0.35956004
0.286,-0.8373494,-0.48890483,-0.27162337,-0.10455799,0.53327143,0.35633624
0.288,-0.88546675,-0.44458744,-0.30521306,-0.10359755,0.5438477,0.35286787
0.29,-0.93656975,-0.3965761,-0.33857787,-0.10147372,0.5556813,0.3491906
0.292,-0.99099946,-0.34480911,-0.37169796,-0.09833795,0.56860673,0.34535223
0.294,-1.0487776,-0.28924954,-0.40456545,-0.09437278,0.58243704,0.34140247
0.296,-1.1101239,-0.22981328,-0.43715966,-0.08976486,0.59697115,0.33734813
0.298,-1.1749945,-0.16672802,-0.46955326,-0.08465487,0.612045,0.333163
0.3,-1.2434334,-0.10006851,-0.50157917,-0.079143375,0.6275398,0.32878786
0.302,-1.3152525,-0.029761195,-0.53277385,-0.07325336,0.64341295,0.3241164
0.304,-1.3905767,0.0440588,-0.563125,-0.0669432,0.65967864,0.31902155
0.306,-1.4693564,0.121309936,-0.59268934,-0.060066164,0.6764399,0.3133679
0.308,-1.5515609,0.20195794,-0.62293994,-0.05243215,0.69387627,0.30706084
0.31,-1.6366136,0.2854812,-0.6523232,-0.043819338,0.7122538,0.3000429
0.312,-1.7251549,0.37228125,-0.6790041,-0.03397742,0.73191535,0.29232222
0.314,-1.8174818,0.46239454,-0.702613,-0.022650748,0.7532637,0.28396726
0.316,-1.9120309,0.5553041,-0.7236551,-0.00960961,0.776734,0.27510124
0.318,-2.0079298,0.650564,-0.74220634,0.0053475797,0.80277157,0.26587886
0.32,-2.105019,0.74797696,-0.7579421,0.022372723,0.8317239,0.2564635
0.322,-2.203002,0.84709805,-0.77058005,0.041559845,0.8639086,0.24698797
0.324,-2.3010945,0.94749624,-0.7799835,0.06295806,0.8995529,0.23752525
0.326,-2.3985407,1.0486438,-0.7862879,0.08657411,0.9387848,0.22807102
0.328,-2.494882,1.1505297,-0.789362,0.11235368,0.98160684,0.2185526
0.33,-2.589685,1.2530293,-0.7889664,0.14016819,1.0278263,0.20880249
0.332,-2.6824107,1.3558661,-0.78497887,0.16983262,1.0770919,0.19862641
0.334,-2.7726448,1.4588785,-0.77731645,0.20111746,1.128987,0.18780316
0.336,-2.8596897,1.5619476,-0.7661264,0.23379627,1.1830372,0.1761341
0.338,-2.943058,1.6649665,-0.75165325,0.2676496,1.2387534,0.16351146
0.34,-3.0221915,1.767896,-0.7339914,0.30235076,1.2953432,0.14986761
0.342,-3.0963194,1.8703353,-0.7131236,0.33755073,1.3518546,0.13521926
0.344,-3.16476,1.9720321,-0.6890621,0.37295982,1.407605,0.119668394
0.346,-3.226772,2.0724337,-0.6618422,0.40824568,1.4619235,0.1033971
0.348,-3.281582,2.1708844,-0.63136107,0.44304192,1.5139171,0.086584
0.35,-3.3282278,2.2666094,-0.5973354,0.47697562,1.5626245,0.06936875
0.352,-3.3657608,2.3587146,-0.5594682,0.5096673,1.607178,0.05182314
0.354,-3.393287,2.446135,-0.5174995,0.5407,1.6467965,0.033945948
0.356,-3.4096742,2.5278158,-0.47104296,0.569587,1.6808004,0.015661836
0.358,-3.4140534,2.602606,-0.41988218,0.5958395,1.7087646,-0.0032115579
0.36,-3.4056704,2.6694517,-0.3636021,0.6189692,1.7305553,-0.022926211
0.362,-3.3840342,2.7271733,-0.302197,0.6385685,1.7464032,-0.043754876
0.364,-3.3482628,2.7747698,-0.23579334,0.65432584,1.7568847,-0.06591183
0.366,-3.298004,2.8113914,-0.1648669,0.66607875,1.7628897,-0.08949
0.368,-3.232635,2.8361862,-0.09007277,0.67384744,1.7654982,-0.11444247
0.37,-3.1519458,2.8485684,-0.012165949,0.67783403,1.7658619,-0.14055365
0.372,-3.0562158,2.8480732,0.06808702,0.67840314,1.7650521,-0.1674487
0.374,-2.9456296,2.8344493,0.14974533,0.67599475,1.7639222,-0.19461226
0.376,-2.8204315,2.8076396,0.23209408,0.67101526,1.762861,-0.22147799
0.378,-2.6813645,2.7676284,0.31449133,0.6637112,1.7617131,-0.24752015
0.38,-2.5293627,2.715035,0.3966609,0.6541123,1.759762,-0.27232075
0.382,-2.3653426,2.6503701,0.47826108,0.6419524,1.7557418,-0.29563487
0.384,-2.19053,2.5745714,0.5593879,0.62670755,1.7479644,-0.31741577
0.386,-2.0063474,2.4886243,0.64003336,0.60761833,1.7343876,-0.33785522
0.388,-1.8140006,2.3936825,0.72037196,0.58378804,1.7127864,-0.35732353
0.39,-1.6150749,2.291034,0.80094844,0.5543487,1.6810424,-0.37635276
0.392,-1.4110029,2.1821842,0.88257843,0.5185979,1.6373765,-0.3955273
0.394,-1.2031062,2.0685241,0.9662062,0.47620183,1.5807073,-0.4153399
0.396,-0.9928331,1.9517158,1.0530626,0.42721143,1.5105977,-0.43613985
0.398,-0.7817042,1.8332472,1.1448911,0.37202054,1.4270909,-0.45807698
0.4,-0.5711638,1.7147645,1.2431152,0.31151065,1.3312055,-0.48106167
0.402,-0.3620209,1.5975301,1.3491874,0.24694017,1.2250177,-0.5046976
0.404,-0.15546787,1.4829085,1.4645118,0.17982155,1.1113585,-0.52833253
0.406,0.048019826,1.3719093,1.5907934,0.11184332,0.9935429,-0.55115986
0.408,0.24767625,1.2655553,1.7290884,0.04479885,0.8752922,-0.5722816
0.41,0.44305897,1.1647402,1.8800743,-0.019493908,0.7605234,-0.5907912
0.412,0.6335459,1.0699869,2.044159,-0.07936315,0.65302956,-0.6058244
0.414,0.81899947,0.98180735,2.221732,-0.13329059,0.5562633,-0.6166465
0.416,0.9989316,0.90059114,2.4125218,-0.1800223,0.47312194,-0.62272
0.418,1.1731386,0.8265375,2.617127,-0.21858586,0.40581843,-0.6237531
0.42,1.3401685,0.76054883,2.832805,-0.24835187,0.35573122,-0.61969876
0.422,1.5019901,0.7015476,3.0564811,-0.2690606,0.32337677,-0.6107403
0.424,1.6594056,0.6490669,3.286486,-0.28081444,0.3084479,-0.5972817
0.426,1.8101768,0.6035392,3.522423,-0.2840696,0.30990538,-0.5799181
0.428,1.952947,0.56492305,3.7633617,-0.27958155,0.32610387,-0.55941385
0.43,2.08802,0.5325235,4.00704,-0.26833725,0.35498446,-0.53658473
0.432,2.2157576,0.5057838,4.250819,-0.25147265,0.39424098,-0.51230377
0.434,2.335505,0.48443687,4.492285,-0.23019756,0.4414615,-0.4874713
0.436,2.446565,0.4682405,4.7292023,-0.20568334,0.49434516,-0.4629003
0.438,2.5481696,0.45667934,4.959227,-0.17903608,0.5507548,-0.43929708
0.44,2.6397302,0.44933295,5.1796565,-0.15124477,0.6087721,-0.41725564
0.442,2.720587,0.4461441,5.387636,-0.12313512,0.666772,-0.39722097
0.444,2.790124,0.4471693,5.5806503,-0.095388204,0.72345984,-0.3794455
0.446,2.8474324,0.4526627,5.756599,-0.06851494,0.77785516,-0.36402828
0.448,2.8915987,0.4631455,5.9135785,-0.04288268,0.82930315,-0.3509075
0.45,2.9216802,0.47902393,6.0498924,-0.018760562,0.8773991,-0.33989882
0.452,2.9368086,0.50115657,6.1639147,0.0036830306,0.921955,-0.33066815
0.454,2.9362876,0.53024364,6.254328,0.024309695,0.9628361,-0.3228262
0.456,2.9196558,0.5672226,6.3199716,0.04306248,0.9999814,-0.31605715
0.458,2.8864458,0.6129625,6.3598127,0.059890985,1.0333319,-0.310125
0.46,2.8369167,0.668067,6.3728,0.07468873,1.0627154,-0.3048353
0.462,2.771212,0.7332072,6.3585362,0.087332994,1.0878518,-0.3000582
0.464,2.6899304,0.80870676,6.3169637,0.0976997,1.1083492,-0.29578382
0.466,2.593577,0.89459896,6.2481594,0.10567972,1.1237562,-0.29218116
0.468,2.4835331,0.9908011,6.152665,0.111169815,1.1336128,-0.28956276
0.47,2.3612654,1.0967481,6.0314193,0.114099234,1.1375679,-0.28830266
0.472,2.2285352,1.2117238,5.8860517,0.114467174,1.1354623,-0.28878376
0.474,2.0871813,1.3347551,5.718237,0.112392426,1.1274097,-0.29139376
0.476,1.9394585,1.4644667,5.530082,0.10813883,1.1138318,-0.2964764
0.478,1.787646,1.5993166,5.3238106,0.10215923,1.0954521,-0.30431968
0.48,1.6343087,1.73744,5.101487,0.09507781,1.0732601,-0.31510994
0.482,1.4822323,1.8767881,4.865336,0.087647736,1.0484253,-0.32890558
0.484,1.3341805,2.015184,4.618165,0.08071539,1.0221764,-0.3456729
0.486,1.1928862,2.1503248,4.3632855,0.075172335,0.9957385,-0.3652687
0.488,1.0613433,2.279672,4.1040053,0.07186893,0.970224,-0.38747758
0.49,0.94258773,2.4008245,3.8430777,0.07154727,0.9464488,-0.41208267
0.492,0.8391732,2.5113533,3.5828319,0.07478744,0.9249587,-0.43884876
0.494,0.7538166,2.608925,3.3257976,0.08199683,0.9060929,-0.46754092
0.496,0.6885339,2.691613,3.0749798,0.09332834,0.8898605,-0.49793437
0.498,0.6451893,2.7575402,2.8330908,0.10871601,0.87601596,-0.52981126
0.5,0.6250508,2.8054445,2.6024039,0.12791574,0.8641559,-0.56296074
0.502,0.6287199,2.8344364,2.3848374,0.15053035,0.8537952,-0.5971335
0.504,0.65664935,2.8440092,2.1816998,0.17608532,0.84444237,-0.6320356
0.506,0.7087295,2.8341517,1.9939718,0.20407644,0.8356879,-0.6673323
0.508,0.78438514,2.805254,1.8221223,0.23403734,0.82730603,-0.70260024
0.51,0.8826011,2.758184,1.6664075,0.26554686,0.8192079,-0.7372831
0.512,1.0016465,2.694166,1.5268611,0.29829025,0.8114486,-0.77080315
0.514,1.139744,2.6148367,1.4030449,0.33204454,0.80423963,-0.8026334
0.516,1.2940404,2.5225277,1.2937925,0.36659893,0.7979089,-0.83229065
0.518,1.4618092,2.4197814,1.1976879,0.40171406,0.79283607,-0.8593041
0.52,1.639879,2.309398,1.1129924,0.43714106,0.78938097,-0.88322574
0.522,1.8250812,2.1944232,1.0376903,0.47258523,0.7877909,-0.90371436
0.524,2.0141525,2.077933,0.96973026,0.5076944,0.78808475,-0.9205845
0.526,2.204245,1.9628681,0.9076974,0.54203856,0.790046,-0.9337939
0.528,2.3923557,1.8519647,0.8496071,0.575133,0.7932643,-0.9434206
0.53,2.5763469,1.7474768,0.7935133,0.6064509,0.79710925,-0.9496479
0.532,2.7520185,1.6525404,0.7378297,0.6354534,0.8008095,-0.9527589
0.534,2.916835,1.5693669,0.681082,0.66168416,0.80356014,-0.9531052
0.536,3.0700135,1.4993807,0.6214677,0.6848613,0.8046312,-0.95107746
0.538,3.210783,1.4437242,0.55709594,0.70488954,0.8034426,-0.94708824
0.54,3.3379078,1.4033864,0.48704505,0.7218923,0.799615,-0.94151926
0.542,3.450295,1.3789288,0.41113472,0.73625004,0.79305077,-0.93468565
0.544,3.5478842,1.3700204,0.32922274,0.74857116,0.7839941,-0.92681813
0.546,3.6311386,1.3759316,0.24135447,0.75964266,0.77295345,-0.91805786
0.548,3.7007577,1.3958535,0.14752412,0.77032053,0.76058555,-0.90847445
0.55,3.7576227,1.4284358,0.048098087,0.78147554,0.747683,-0.89810795
0.552,3.8026886,1.4723117,-0.056378603,0.79390705,0.7350477,-0.8869809
0.554,3.8371792,1.5253991,-0.16518366,0.8082305,0.7234107,-0.8751014
0.556,3.862689,1.585725,-0.277686,0.8248365,0.7133143,-0.86248994
0.558,3.880977,1.651041,-0.39309144,0.8438559,0.705063,-0.84918016
0.56,3.8936152,1.719343,-0.5106989,0.86516815,0.69870067,-0.835208
0.562,3.9021401,1.7884912,-0.6296452,0.8884343,0.69397753,-0.8206261
0.564,3.908102,1.8565888,-0.7490387,0.91316545,0.6903541,-0.8055239
0.566,3.9126787,1.9216194,-0.8679855,0.93881106,0.6870902,-0.79000753
0.568,3.9170957,1.9820683,-0.9854418,0.96483207,0.6833359,-0.7741945
0.57,3.921972,2.0365245,-1.1004206,0.99075687,0.67813385,-0.7582358
0.572,3.9282117,2.0837836,-1.2120421,1.0161554,0.67047286,-0.7422824
0.574,3.9362624,2.12306,-1.3193532,1.040673,0.65941906,-0.72649235
0.576,3.9465451,2.153727,-1.4211247,1.0640258,0.6442156,-0.711006
0.578,3.9592106,2.1752956,-1.516316,1.0859846,0.6243471,-0.69593644
0.58,3.9744058,2.1876965,-1.6041896,1.1063273,0.599506,-0.68135226
0.582,3.9917371,2.1912005,-1.6837406,1.1248465,0.5695317,-0.66726446
0.584,4.0108647,2.186254,-1.7537966,1.141358,0.53442913,-0.6536377
0.586,4.031105,2.1734364,-1.8132002,1.1556896,0.49430108,-0.6403762
0.588,4.0520277,2.153615,-1.860662,1.1676798,0.44927058,-0.62738883
0.59,4.0730143,2.1275568,-1.8945109,1.1771784,0.39944685,-0.6146096
0.592,4.093801,2.0962467,-1.9132395,1.184067,0.3448763,-0.6019987
0.594,4.1138506,2.060433,-1.9160197,1.1882919,0.28549433,-0.5895971
0.596,4.1323385,2.0211234,-1.9026456,1.1898437,0.22115019,-0.57751477
0.598,4.1485605,1.9795458,-1.872787,1.1887678,0.15159844,-0.5659338
0.6,4.16153,1.9365814,-1.8256395,1.1851804,0.07660329,-0.55508846
0.602,4.171151,1.8931773,-1.7599332,1.1792743,-0.0039775968,-0.545202
0.604,4.176451,1.8502766,-1.6744714,1.1713057,-0.090085104,-0.5364687
0.606,4.176817,1.8085021,-1.5681504,1.1615818,-0.18140262,-0.5290277
0.608,4.171602,1.7684575,-1.4400456,1.1504709,-0.27733913,-0.52293146
0.61,4.1605797,1.7303991,-1.2898259,1.1384171,-0.37694293,-0.5181403
0.612,4.1437793,1.6945823,-1.1173828,1.1259371,-0.47888124,-0.5145361
0.614,4.12069,1.6613787,-0.922578,1.1136587,-0.5814365,-0.51195025
0.616,4.0910234,1.6308336,-0.7056901,1.102286,-0.6825301,-0.5101539
0.618,4.054233,1.6030567,-0.4675762,1.0925792,-0.7798506,-0.50887924
0.62,4.0092983,1.5782896,-0.21015912,1.0852877,-0.87100714,-0.5078214
0.622,3.9554746,1.5569271,0.06443465,1.0811107,-0.95365715,-0.50667584
0.624,3.891859,1.5393372,0.3537919,1.0806494,-1.0256205,-0.5051122
0.626,3.8177829,1.5258468,0.6554153,1.0843673,-1.0850012,-0.5028373
0.628,3.7322454,1.5168512,0.9665621,1.092509,-1.1302962,-0.4995432
0.63,3.6338952,1.512986,1.2839701,1.1050986,-1.1604795,-0.49494004
0.632,3.5214431,1.5149981,1.603648,1.1219232,-1.1750858,-0.48878756
0.634,3.3937082,1.5237968,1.92147,1.1425669,-1.1742132,-0.48092318
0.636,3.2492893,1.540502,2.2329435,1.1664057,-1.1584541,-0.47128427
0.638,3.0871444,1.5662961,2.5341392,1.1926534,-1.1288483,-0.45988223
0.64,2.9062786,1.602175,2.8213458,1.2204187,-1.0868993,-0.44682238
0.642,2.7060254,1.6490061,3.0914855,1.2487884,-1.0344902,-0.43234628
0.644,2.4858432,1.707752,3.3416457,1.2768925,-0.97383773,-0.4168561
0.646,2.2459736,1.7788756,3.5692153,1.3039815,-0.90737057,-0.40088665
0.648,1.986664,1.8629764,3.7724671,1.3294197,-0.8376464,-0.3850874
0.65,1.7085774,1.9601042,3.9501858,1.3526953,-0.7672709,-0.37021282
0.652,1.412987,2.0699415,4.1018744,1.3734323,-0.6987305,-0.35704148
0.654,1.1012447,2.1920767,4.2276144,1.3913728,-0.63425684,-0.34632337
0.656,0.7754744,2.3255227,4.328099,1.4064009,-0.57569385,-0.33876956
0.658,0.4385357,2.4687207,4.404933,1.4185159,-0.5244123,-0.33498892
0.66,0.09274769,2.6203902,4.4602194,1.4278442,-0.48117664,-0.33545053
0.662,-0.25899684,2.7784724,4.4965324,1.4346619,-0.44606578,-0.34044737
0.664,-0.6135112,2.940998,4.5158525,1.4393888,-0.41857985,-0.35009894
0.666,-0.966746,3.1052463,4.5200195,1.4425797,-0.3977285,-0.36433303
0.668,-1.3158376,3.268891,4.511404,1.444893,-0.38214308,-0.38294846
0.67,-1.6575897,3.429317,4.49325,1.447061,-0.37021732,-0.40563774
0.672,-1.9884313,3.5836375,4.4679375,1.4498149,-0.36020803,-0.4320125
0.674,-2.3046908,3.7289848,4.437371,1.4538735,-0.35038888,-0.46166462
0.676,-2.6028767,3.8629534,4.4039035,1.4598342,-0.3391891,-0.49416736
0.678,-2.8803644,3.9831963,4.369437,1.4681298,-0.32532173,-0.5291386
0.68,-3.1349063,4.087761,4.335773,1.4789917,-0.30785903,-0.566216
0.682,-3.3645105,4.1747093,4.304371,1.492421,-0.28631485,-0.60509354
0.684,-3.5674062,4.242609,4.2760625,1.508178,-0.26065534,-0.64547384
0.686,-3.7425275,4.2908697,4.2508593,1.5258304,-0.23122379,-0.6870567
0.688,-3.8890324,4.319207,4.228891,1.54478,-0.19873586,-0.72954655
0.69,-4.006947,4.32797,4.210786,1.564343,-0.16426262,-0.77267855
0.692,-4.0966988,4.3175306,4.1965437,1.5838019,-0.12909317,-0.81626797
0.694,-4.1585474,4.288598,4.1850605,1.6024721,-0.094522655,-0.8601458
0.696,-4.192754,4.242425,4.1748776,1.6197331,-0.061787426,-0.904106
0.698,-4.2005286,4.1806626,4.1649523,1.6350608,-0.03199917,-0.94798255
0.7,-4.183255,4.1055317,4.154488,1.6480563,-0.0059879124,-0.99167645
0.702,-4.142682,4.0190444,4.142478,1.6584948,0.015789986,-1.0350748
0.704,-4.0802865,3.9237022,4.12769,1.6662716,0.03314683,-1.078057
0.706,-3.9971678,3.8217509,4.109217,1.6714016,0.04614672,-1.1205344
0.708,-3.8947864,3.7152116,4.0861444,1.6740453,0.05513832,-1.162481
0.71,-3.7745337,3.6063297,4.0576167,1.6744528,0.06067133,-1.2038809
0.712,-3.6382115,3.497271,4.022246,1.6729648,0.0633955,-1.2447137
0.714,-3.4869294,3.389792,3.9783065,1.670007,0.06398827,-1.2849015
0.716,-3.321699,3.285728,3.9244118,1.6660701,0.063066155,-1.3243353
0.718,-3.1439712,3.186688,3.859853,1.661677,0.061169088,-1.3629194
0.72,-2.9551256,3.093804,3.7847028,1.6573625,0.05870089,-1.4005715
0.722,-2.7565658,3.0079377,3.699215,1.653643,0.055965185,-1.4371744
0.724,-2.549599,2.9296083,3.6036904,1.6509842,0.05317834,-1.4725283
0.726,-2.335404,2.859244,3.498862,1.6497598,0.050430924,-1.5063747
0.728,-2.1149764,2.7969038,3.385916,1.6502095,0.047684073,-1.5384729
0.73,-1.8892095,2.7424047,3.2666957,1.6524663,0.04485461,-1.5686482
0.732,-1.6594489,2.6951795,3.1430414,1.6564959,0.04188946,-1.5967522
0.734,-1.4269397,2.6545777,3.016944,1.6621456,0.038814753,-1.6227217
0.736,-1.1932027,2.6197557,2.890413,1.6692302,0.03576243,-1.6465716
0.738,-0.9595638,2.589858,2.7657368,1.6775575,0.03297791,-1.6684023
0.74,-0.7269969,2.5638416,2.6450784,1.6870159,0.030830264,-1.688343
0.742,-0.49694318,2.5405927,2.5309286,1.6975918,0.029842913,-1.7064929
0.744,-0.27111232,2.5190206,2.425542,1.7093744,0.030699521,-1.7228763
0.746,-0.051150143,2.4981484,2.3306756,1.7225864,0.034269214,-1.737417
0.748,0.16140908,2.4768984,2.2477298,1.7375304,0.041522294,-1.7499574
0.75,0.36484134,2.454597,2.1779413,1.7545553,0.053538352,-1.7602705
0.752,0.5575284,2.4305427,2.122017,1.774008,0.071444124,-1.768006
0.754,0.73805565,2.4041533,2.0802076,1.7961885,0.09622121,-1.7728237
0.756,0.9045507,2.3752444,2.0525622,1.8212918,0.12864354,-1.7744662
0.758,1.0559962,2.3434772,2.0384862,1.849427,0.16929787,-1.7727687
0.76,1.1914951,2.3087249,2.037095,1.8805306,0.2184476,-1.7676688
0.762,1.3101823,2.2709885,2.0468774,1.9143349,0.2758872,-1.7591941
0.764,1.4117589,2.2301717,2.0659862,1.9504147,0.3409971,-1.7475287
0.766,1.4960437,2.1862493,2.0922332,1.9882135,0.4127925,-1.732994
0.768,1.562974,2.1394062,2.1230989,2.027037,0.4899313,-1.7160485
0.77,1.6132905,2.08938,2.156032,2.0660985,0.57078207,-1.6972066
0.772,1.6477685,2.0361843,2.1886344,2.1045768,0.6534933,-1.6769798
0.774,1.6674664,1.9797535,2.218908,2.1416597,0.73609245,-1.655891
0.776,1.6732491,1.920078,2.245431,2.1765838,0.81653637,-1.634499
0.778,1.6673126,1.8567564,2.2661586,2.2086895,0.89280224,-1.6134093
0.78,1.6517069,1.7894918,2.2789378,2.2374551,0.96302414,-1.5932133
0.782,1.6279218,1.71834,2.2829084,2.2625244,1.0255802,-1.5744175
0.784,1.5973933,1.6432142,2.277845,2.283694,1.0790651,-1.5574623
0.786,1.5620658,1.5637609,2.2630973,2.3009505,1.1223085,-1.542757
0.788,1.5240796,1.4798418,2.238721,2.3144388,1.1544766,-1.5306288
0.79,1.4857731,1.3912456,2.20516,2.324418,1.1750937,-1.521297
0.792,1.4490769,1.2980562,2.1631482,2.331243,1.1840932,-1.5148662
0.794,1.4155545,1.2003031,2.1140628,2.3353176,1.1817607,-1.5112906
0.796,1.3867704,1.0978823,2.0597095,2.3370924,1.1687193,-1.5103921
0.798,1.3638364,0.9908091,2.0014493,2.3370638,1.1458952,-1.5118674
0.8,1.3478405,0.87929034,1.9403356,2.3357232,1.1144354,-1.5152776
0.802,1.3399546,0.7639133,1.8778174,2.333569,1.0757,-1.52013
0.804,1.3401899,0.64552486,1.816034,2.331086,1.0311615,-1.5258908
0.806,1.3481734,0.52505505,1.7567127,2.3287249,0.98234,-1.5320481
0.808,1.3636853,0.40336165,1.700836,2.3269036,0.9307327,-1.5381233
0.81,1.3864571,0.28127402,1.6489084,2.3259878,0.8777675,-1.5437317
0.812,1.4156839,0.16006202,1.6015052,2.3262897,0.8247161,-1.5485926
0.814,1.4504477,0.040807724,1.5596981,2.3280308,0.77262104,-1.5525218
0.816,1.489453,-0.07526803,1.5237826,2.3313284,0.72228456,-1.5554566
0.818,1.5314249,-0.1869933,1.4942346,2.3362012,0.6742341,-1.5574199
0.82,1.575265,-0.29355073,1.47107,2.342591,0.6287644,-1.5585458
0.822,1.6197618,-0.39411476,1.4541825,2.3503687,0.5859676,-1.5590377
0.824,1.6638378,-0.48785928,1.4431788,2.3593483,0.5457971,-1.5591371
0.826,1.7063342,-0.574224,1.4375632,2.369348,0.5081276,-1.5591133
0.828,1.7463202,-0.65295875,1.4367601,2.3801908,0.4727714,-1.559242
0.83,1.7828602,-0.7238866,1.4403422,2.3917477,0.43955004,-1.5597692
0.832,1.8153964,-0.7871283,1.4477865,2.4039838,0.40837765,-1.5609176
0.834,1.8435198,-0.8428472,1.4586283,2.4169664,0.37929946,-1.5628601
0.836,1.8666133,-0.8912852,1.4724307,2.4308634,0.35248375,-1.5657095
0.838,1.8844458,-0.93291116,1.4890709,2.4459376,0.32822722,-1.5694598
0.84,1.8969193,-0.9683285,1.5084571,2.4625242,0.30690062,-1.5740199
0.842,1.9038564,-0.99806833,1.5307134,2.480976,0.28886348,-1.5791888
0.844,1.9052324,-1.0228403,1.5561032,2.501627,0.27446997,-1.5847015
0.846,1.9010816,-1.0432891,1.5849521,2.5247765,0.26398975,-1.5902166
0.848,1.8914728,-1.0601387,1.6174535,2.5506225,0.25761944,-1.5953879
0.85,1.8764828,-1.074005,1.6540642,2.5792475,0.25542063,-1.5998398
0.852,1.8562908,-1.0853577,1.6949332,2.6106017,0.25733483,-1.6032081
0.854,1.8311424,-1.0947819,1.7403235,2.6445096,0.2631722,-1.6052059
0.856,1.8014265,-1.1028228,1.7906177,2.6806908,0.27264756,-1.6056378
0.858,1.7673093,-1.1098931,1.8459836,2.7187843,0.28542727,-1.6043992
0.86,1.7290628,-1.1164215,1.9065088,2.7583919,0.30115885,-1.6014942
0.862,1.6870708,-1.1227425,1.9723382,2.799084,0.31943476,-1.5969894
0.864,1.6415331,-1.1291561,2.0434067,2.840423,0.33979672,-1.5909938
0.866,1.5928162,-1.1359378,2.1197462,2.8819628,0.3617497,-1.5836549
0.868,1.5410953,-1.1432718,2.2012358,2.9232888,0.38474733,-1.5751544
0.87,1.4865855,-1.1512405,2.2876937,2.9640021,0.40818655,-1.5656868
0.872,1.4297822,-1.1599147,2.3790636,3.0037336,0.4314003,-1.555463
0.874,1.3709832,-1.169358,2.4752884,3.0421414,0.45361876,-1.544686
0.876,1.3105177,-1.1795753,2.5763254,3.0789254,0.47399372,-1.5335581
0.878,1.2487622,-1.1906643,2.6822133,3.1138768,0.4916321,-1.522292
0.88,1.1863172,-1.2027841,2.792851,3.1468444,0.50565994,-1.5111111
0.882,1.1236352,-1.2159702,2.9081652,3.1777544,0.5153024,-1.5002522
0.884,1.0610824,-1.2302759,3.0281792,3.2066216,0.51989514,-1.489959
0.886,0.9994828,-1.245973,3.1525636,3.2334857,0.5189363,-1.4804566
0.888,0.9396142,-1.2632663,3.281204,3.2584076,0.5121616,-1.4719304
0.89,0.88204753,-1.2822307,3.413958,3.2814832,0.49960452,-1.4645426
0.892,0.827312,-1.3029308,3.550479,3.3028183,0.48164284,-1.4584
0.894,0.7762319,-1.3255118,3.6904519,3.3225188,0.4589799,-1.4535654
0.896,0.7293186,-1.3501391,3.8335772,3.340692,0.43258148,-1.4500583
0.898,0.68736315,-1.3771105,3.979291,3.3574765,0.40362197,-1.4478079
0.9,0.6509199,-1.4063447,4.126845,3.3730237,0.37340903,-1.446693
0.902,0.62067044,-1.4380538,4.2753253,3.387529,0.34324342,-1.4465384
0.904,0.59716314,-1.4723191,4.42359,3.401205,0.31436014,-1.4471548
0.906,0.58095944,-1.5091739,4.570499,3.4143,0.28782642,-1.4483191
0.908,0.5723791,-1.5485921,4.714889,3.4270713,0.26448768,-1.4497781
0.91,0.57212776,-1.5906402,4.8553915,3.4397357,0.24487782,-1.4512691
0.912,0.5803385,-1.6352274,4.9903803,3.4524772,0.22923076,-1.452575
0.914,0.5972452,-1.6823837,5.118499,3.4653845,0.21743983,-1.4535245
0.916,0.6229923,-1.7320337,5.238306,3.4784899,0.2091586,-1.4539845
0.918,0.65773916,-1.7840563,5.3483315,3.4917731,0.2038691,-1.4538414
0.92,0.7012211,-1.8380383,5.447236,3.5051665,0.20092595,-1.4529815
0.922,0.753533,-1.8938437,5.533835,3.5185645,0.19960529,-1.4513272
0.924,0.8143371,-1.951092,5.6069736,3.5318315,0.19910586,-1.4488196
0.926,0.88342154,-2.009495,5.6660476,3.544812,0.1986031,-1.4453905
0.928,0.9602057,-2.0683584,5.7104096,3.5573494,0.19731295,-1.4409655
0.93,1.0440922,-2.1272225,5.739806,3.5693288,0.1945244,-1.4354688
0.932,1.1346514,-2.185555,5.75426,3.580658,0.18967044,-1.4288194
0.934,1.2313384,-2.2428813,5.7541614,3.59132,0.18235278,-1.4209646
0.936,1.3336076,-2.2987514,5.7397556,3.6013832,0.1723705,-1.4118447
0.938,1.4409398,-2.352611,5.711648,3.6109776,0.15978944,-1.4014283
0.94,1.5529944,-2.403953,5.67055,3.620337,0.14486927,-1.389715
0.942,1.6693637,-2.4524243,5.6173425,3.6297517,0.12803698,-1.3767753
0.944,1.7898437,-2.4978664,5.553151,3.6395788,0.10986549,-1.3627002
0.946,1.9144238,-2.5403183,5.4790134,3.6501853,0.09098053,-1.3476114
0.948,2.0431898,-2.5798035,5.39602,3.6619225,0.071967244,-1.3316283
0.95,2.1763904,-2.6165247,5.305436,3.6750972,0.053298593,-1.3148448
0.952,2.3143098,-2.6507587,5.2084665,3.6899233,0.035235822,-1.2973369
0.954,2.4573097,-2.6828852,5.106493,3.7065291,0.017814994,-1.2791235
0.956,2.605936,-2.713316,5.0008,3.72495,0.0009211302,-1.2601817
0.958,2.7607799,-2.7426276,4.8929167,3.7451208,-0.015738845,-1.2404493
0.96,2.9222736,-2.771355,4.784276,3.766872,-0.032635927,-1.2198602
0.962,3.0910857,-2.800212,4.676179,3.7899551,-0.050331473,-1.1983153
0.964,3.2677073,-2.8296685,4.569755,3.8140934,-0.06935692,-1.1757373
0.966,3.4527833,-2.8604574,4.4659643,3.8389785,-0.0901835,-1.1520644
0.968,3.6471047,-2.8931737,4.365544,3.8642948,-0.11317247,-1.1272675
0.97,3.8512,-2.9284456,4.269156,3.889728,-0.13855553,-1.101367
0.972,4.0658484,-2.9670072,4.177148,3.9149659,-0.16645834,-1.0744182
0.974,4.2914076,-3.0092516,4.0898995,3.9397235,-0.19689745,-1.0464808
0.976,4.5281873,-3.0556612,4.007359,3.9637425,-0.22977298,-1.0175923
0.978,4.776395,-3.1064246,3.9294581,3.9867907,-0.2649128,-0.98777163
0.98,5.0360756,-3.161665,3.855907,4.008653,-0.30214977,-0.95704275
0.982,5.307291,-3.2214496,3.785945,4.0291414,-0.34137404,-0.92540073
0.984,5.5900364,-3.285684,3.7187603,4.048077,-0.38254547,-0.89279884
0.986,5.883663,-3.353942,3.6536312,4.0653057,-0.42574856,-0.85914123
0.988,6.186798,-3.4254827,3.5902367,4.0806937,-0.47120786,-0.82426727
0.99,6.4983835,-3.4997957,3.5280707,4.0941567,-0.5192595,-0.7880138
0.992,6.8184433,-3.5768027,3.4658809,4.1056175,-0.57033396,-0.7501906
0.994,7.144473,-3.6553273,3.4038858,4.1150265,-0.62489617,-0.71059513
0.996,7.4732256,-3.7339284,3.3432298,4.122361,-0.683412,-0.66900945
0.998,7.8054976,-3.8135757,3.2826238,4.1276097,-0.7462955,-0.62524164
1,8.141532,-3.8941464,3.2178588,4.1307793,-0.813854,-0.5791292
1.002,8.479785,-3.9743824,3.14649,4.1319027,-0.8862191,-0.5305312
1.004,8.815023,-4.0521502,3.068389,4.1310186,-0.96330124,-0.47934413
1.006,9.143589,-4.125263,2.9837565,4.128202,-1.0448058,-0.42550585
1.008,9.464882,-4.192563,2.8934634,4.1235423,-1.1302539,-0.36897567
1.01,9.774167,-4.251371,2.796848,4.117182,-1.2190356,-0.30973065
1.012,10.06896,-4.301033,2.692711,4.109282,-1.3104516,-0.24778032
1.014,10.350309,-4.3428526,2.580708,4.1000314,-1.4037995,-0.1831581
1.016,10.615786,-4.375719,2.4594982,4.089576,-1.4985352,-0.11597848
1.018,10.8620615,-4.3980083,2.3284378,4.078001,-1.5943744,-0.046417534
1.02,11.087075,-4.4092097,2.188425,4.0654397,-1.6910672,0.02534622
1.022,11.289482,-4.4085145,2.0398645,4.052004,-1.7885039,0.09912425
1.024,11.468454,-4.395033,1.8823376,4.0375977,-1.8872396,0.1745199
1.026,11.623759,-4.368917,1.7159433,4.022049,-1.9879594,0.2509315
1.028,11.755451,-4.3305216,1.5407748,4.0055447,-2.0906205,0.32798767
1.03,11.864063,-4.2801127,1.3570837,3.9884055,-2.1950998,0.40538424
1.032,11.950259,-4.21788,1.1655856,3.97078,-2.3018785,0.4825014
1.034,12.015551,-4.14425,0.9672909,3.952968,-2.4112768,0.5587119
1.036,12.06191,-4.0596743,0.76326156,3.93562,-2.5227504,0.6336584
1.038,12.09176,-3.9648855,0.5544467,3.9197373,-2.635033,0.70712984
1.04,12.107597,-3.8603976,0.34225202,3.9065557,-2.7464318,0.7788751
1.042,12.111632,-3.746943,0.12842536,3.8975232,-2.8546793,0.8487979
1.044,12.1067705,-3.6253817,-0.08482456,3.8943334,-2.9570062,0.9172925
1.046,12.096121,-3.4968624,-0.2948581,3.898678,-3.0507398,0.98494947
1.048,12.082826,-3.3624597,-0.49916506,3.9119804,-3.133686,1.0523288
1.05,12.07017,-3.223423,-0.6952021,3.935424,-3.2038684,1.120151
1.052,12.060912,-3.080855,-0.8802756,3.96987,-3.2596521,1.1891296
1.054,12.057659,-2.935829,-1.0520693,4.015668,-3.3000386,1.2597136
1.056,12.062331,-2.789106,-1.2082148,4.0726247,-3.3246012,1.3321551
1.058,12.076627,-2.6414163,-1.3466468,4.140053,-3.3332937,1.4066157
1.06,12.101469,-2.4933276,-1.4657459,4.2168517,-3.3263497,1.483223
1.062,12.137491,-2.3453245,-1.5639013,4.3016596,-3.3041277,1.5621046
1.064,12.18436,-2.1974642,-1.6400256,4.392973,-3.2669306,1.6434863
1.066,12.241338,-2.0497892,-1.6933393,4.489312,-3.2149434,1.7277694
1.068,12.3075075,-1.9022465,-1.723775,4.5892534,-3.1483035,1.8155009
1.07,12.381819,-1.7546202,-1.7317259,4.6915097,-3.0672169,1.9073801
1.072,12.462419,-1.6061215,-1.7180474,4.794911,-2.9720936,2.004171
1.074,12.547089,-1.4559702,-1.684129,4.898321,-2.8637094,2.1065536
1.076,12.633284,-1.3030837,-1.6319972,5.0007496,-2.7430491,2.2150764
1.078,12.718328,-1.1463418,-1.5642748,5.101407,-2.611049,2.3301613
1.08,12.79966,-0.98445725,-1.4838697,5.1994944,-2.4692025,2.4519584
1.082,12.874075,-0.815809,-1.3938019,5.293992,-2.3198428,2.5800216
1.084,12.9388895,-0.6389869,-1.2972596,5.3841076,-2.1650672,2.7136574
1.086,12.991532,-0.45251673,-1.1975486,5.469445,-2.0064168,2.852203
1.088,13.0295,-0.25528312,-1.0979325,5.5496106,-1.845865,2.99466
1.09,13.050776,-0.046062633,-1.0015038,5.624127,-1.6860613,3.1396732
1.092,13.053244,0.17599502,-0.9110205,5.6925745,-1.5297387,3.2858267
1.094,13.035287,0.41189185,-0.82910866,5.7546625,-1.3793342,3.4318545
1.096,12.996163,0.6620015,-0.7584328,5.810155,-1.2372273,3.5764568
1.098,12.935543,0.92640764,-0.70143944,5.858745,-1.1057343,3.7181892
1.1,12.852706,1.2055302,-0.6595944,5.900242,-0.9866966,3.8559017
1.102,12.746224,1.4995794,-0.63336253,5.9346075,-0.8814993,3.9887795
1.104,12.617248,1.8079238,-0.6238917,5.9617586,-0.79153025,4.116051
1.106,12.466554,2.1300206,-0.63201636,5.981616,-0.7179885,4.2371564
1.108,12.291589,2.4670806,-0.65556777,5.9942784,-0.66161263,4.35183
1.11,12.091821,2.8184328,-0.6899797,6.0000105,-0.6227782,4.459909
1.112,11.86835,3.1824186,-0.733032,5.9992027,-0.60161066,4.5612016
1.114,11.624899,3.557226,-0.7842103,5.992364,-0.597883,4.655545
1.116,11.362777,3.9413114,-0.8422133,5.9800835,-0.6111187,4.742855
1.118,11.080094,4.3345733,-0.90543056,5.963011,-0.64065576,4.8231096
1.12,10.779626,4.7352495,-0.97013545,5.9418383,-0.68559813,4.8963885
1.122,10.4598255,5.1442237,-1.0315799,5.917332,-0.74472785,4.9628506
1.124,10.121223,5.562087,-1.0884461,5.89031,-0.816435,5.022728
1.126,9.762179,5.9881935,-1.1350749,5.8615966,-0.89884484,5.0762916
1.128,9.3857765,6.4206867,-1.1693786,5.8320107,-0.9898875,5.123833
1.13,8.993438,6.85854,-1.1906836,5.802329,-1.0873492,5.165645
1.132,8.585323,7.300511,-1.1964891,5.7732716,-1.1888626,5.2020864
1.134,8.162147,7.745158,-1.1845953,5.745486,-1.2920469,5.2335005
1.136,7.724433,8.191855,-1.1536801,5.7195153,-1.3945698,5.2602224
1.138,7.2734203,8.639578,-1.1031561,5.6957536,-1.49431,5.282571
1.14,6.8107753,9.086578,-1.0330758,5.674472,-1.5894487,5.300831
1.142,6.338016,9.531366,-0.9440229,5.6558332,-1.678498,5.3152514
1.144,5.8570337,9.971869,-0.8370848,5.6398516,-1.7604338,5.3260136
1.146,5.3698115,10.40621,-0.7136347,5.626391,-1.8347845,5.3332667
1.148,4.878523,10.832543,-0.5747173,5.6152067,-1.9016681,5.337084
1.15,4.385466,11.249022,-0.42190623,5.605925,-1.9617159,5.3374295
1.152,3.8934348,11.65401,-0.2571311,5.5980515,-2.0160704,5.33414
1.154,3.4047437,12.046064,-0.08241916,5.5909567,-2.0664363,5.327014
1.156,2.9219694,12.424028,0.10038257,5.583947,-2.1147947,5.315721
1.158,2.4471087,12.786797,0.28990054,5.576355,-2.1632497,5.299912
1.16,1.9823011,13.133454,0.4848895,5.567453,-2.214149,5.2792234
1.162,1.5298083,13.463271,0.6842679,5.556574,-2.269711,5.253271
1.164,1.091729,13.775709,0.887527,5.543162,-2.3318646,5.221706
1.166,0.67047465,14.0701475,1.0941674,5.526756,-2.402192,5.1842723
1.168,0.26756427,14.346449,1.3039154,5.5070534,-2.4818025,5.140822
1.17,-0.11561575,14.604782,1.516927,5.483929,-2.5712519,5.0913033
1.172,-0.4782362,14.845415,1.7330186,5.45741,-2.6705403,5.0357614
1.174,-0.8195568,15.0687065,1.9523922,5.427683,-2.779123,4.9743137
1.176,-1.1394532,15.275268,2.1753125,5.3950377,-2.8959723,4.9071784
1.178,-1.4386704,15.465954,2.4019241,5.359853,-3.0196629,4.8346424
1.18,-1.718421,15.641623,2.6324089,5.3225875,-3.1483765,4.757058
1.182,-1.979665,15.802699,2.8665533,5.283747,-3.2800298,4.6748247
1.184,-2.2236223,15.949832,3.1040797,5.24387,-3.4123907,4.588349
1.186,-2.4521778,16.083656,3.3444414,5.2035227,-3.5432096,4.49802
1.188,-2.6666355,16.20453,3.5868158,5.1632805,-3.6702976,4.404254
1.19,-2.8691425,16.312813,3.829932,5.1237097,-3.7916255,4.3074694
1.192,-3.0614357,16.408634,4.0721326,5.0853877,-3.905336,4.2081017
1.194,-3.2457838,16.49208,4.311846,5.0488577,-4.0098305,4.106624
1.196,-3.424489,16.563345,4.5472946,5.014627,-4.1038218,4.003506
1.198,-3.5998724,16.622572,4.7769012,4.9831715,-4.1863256,3.899239
1.2,-3.7738676,16.669775,4.998965,4.954902,-4.256593,3.7942863
1.202,-3.9482987,16.704967,5.2120423,4.930126,-4.314241,3.689104
1.204,-4.124733,16.728127,5.414849,4.909011,-4.359246,3.5841792
1.206,-4.304546,16.739218,5.6062274,4.891622,-4.391863,3.4800081
1.208,-4.4883847,16.738237,5.785172,4.877872,-4.4126334,3.3770273
1.21,-4.6768374,16.725336,5.950876,4.8675137,-4.422515,3.2756982
1.212,-4.8701487,16.700935,6.103067,4.860175,-4.422763,3.1763718
1.214,-5.0682516,16.665255,6.2419286,4.8554826,-4.414712,3.079326
1.216,-5.2706823,16.618843,6.3681984,4.8529572,-4.3999796,2.984767
1.218,-5.476986,16.562267,6.483413,4.8520746,-4.380405,2.892764
1.22,-5.6862707,16.496235,6.5889688,4.8523293,-4.357864,2.8032465
1.222,-5.8973074,16.421602,6.686722,4.8532667,-4.3341885,2.7159684
1.224,-6.109289,16.339462,6.7791286,4.8544736,-4.311052,2.63054
1.226,-6.3210487,16.25089,6.8688836,4.855645,-4.2898707,2.5464888
1.228,-6.5312777,16.157066,6.95838,4.8565664,-4.271773,2.4632902
1.23,-6.739155,16.059454,7.0502133,4.857116,-4.2575355,2.38041
1.232,-6.942033,15.958783,7.14618,4.857301,-4.2475414,2.297332
1.234,-7.141061,15.856723,7.250722,4.8572016,-4.24176,2.2135758
1.236,-7.3322754,15.753571,7.3639483,4.85699,-4.2397337,2.1287663
1.238,-7.516342,15.650686,7.4880896,4.8568974,-4.2405734,2.0426838
1.24,-7.693122,15.549583,7.6246686,4.857225,-4.243048,1.9552407
1.242,-7.861636,15.4512825,7.774151,4.858284,-4.2456107,1.8665
1.244,-8.022109,15.357053,7.9369955,4.8604,-4.2465153,1.7766668
1.246,-8.173477,15.267242,8.114026,4.863838,-4.243985,1.6860335
1.248,-8.316747,15.182975,8.305345,4.8688173,-4.236281,1.595016
1.25,-8.45197,15.104925,8.509182,4.8754888,-4.221772,1.5041049
1.252,-8.578849,15.033647,8.723337,4.883897,-4.199222,1.4137827
1.254,-8.697744,14.969905,8.9454975,4.8939505,-4.167825,1.3244858
1.256,-8.8084755,14.913909,9.172571,4.905465,-4.127143,1.2365961
1.258,-8.911497,14.865813,9.400504,4.918147,-4.077253,1.1502986
1.26,-9.006525,14.825352,9.628233,4.931615,-4.0187073,1.0655956
1.262,-9.094416,14.792139,9.854906,4.9454856,-3.9523277,0.98229164
1.264,-9.176552,14.766278,10.07682,4.9593267,-3.8792825,0.9000223
1.266,-9.252975,14.747495,10.288982,4.9727144,-3.800902,0.8182753
1.268,-9.322781,14.735365,10.48704,4.985325,-3.7184465,0.7364775
1.27,-9.385499,14.72961,10.668491,4.9969025,-3.6331496,0.65409744
1.272,-9.440857,14.729619,10.832084,5.0072746,-3.546132,0.57064885
1.274,-9.488941,14.734268,10.977394,5.016383,-3.4583645,0.48569983
1.276,-9.530069,14.742604,11.103919,5.0242047,-3.370739,0.39894164
1.278,-9.5637455,14.753899,11.2109585,5.0307555,-3.2840292,0.31021798
1.28,-9.590277,14.767827,11.298663,5.0360937,-3.1988585,0.21951813
1.282,-9.609962,14.784402,11.368309,5.0402865,-3.1157804,0.12692273
1.284,-9.623376,14.803394,11.420948,5.043414,-3.0352008,0.03256619
1.286,-9.63064,14.8244705,11.457159,5.045588,-2.957394,-0.06336129
1.288,-9.631772,14.847408,11.477823,5.0469327,-2.88252,-0.16064382
1.29,-9.626536,14.872266,11.484421,5.0474706,-2.8107076,-0.2590708
1.292,-9.615465,14.899571,11.479855,5.0471992,-2.7418997,-0.3584622
1.294,-9.599323,14.929753,11.467444,5.046109,-2.675807,-0.45860738
1.296,-9.578635,14.963373,11.450413,5.044126,-2.6122098,-0.5592071
1.298,-9.554834,15.001305,11.431533,5.0411906,-2.550921,-0.65995383
1.3,-9.528613,15.044416,11.413761,5.037235,-2.4917586,-0.7606589
1.302,-9.501173,15.093747,11.40015,5.0321527,-2.4346874,-0.86138505
1.304,-9.472944,15.149847,11.393212,5.025737,-2.3798208,-0.9622707
1.306,-9.44496,15.213529,11.395479,5.017693,-2.3272982,-1.0633852
1.308,-9.417908,15.285387,11.409099,5.0076604,-2.2774115,-1.1647513
1.31,-9.39246,15.36586,11.435539,4.995205,-2.2306645,-1.2664771
1.312,-9.368679,15.455245,11.475971,4.979905,-2.187556,-1.3687472
1.314,-9.346661,15.55351,11.531972,4.9614034,-2.1485524,-1.4717748
1.316,-9.326632,15.660553,11.605486,4.939351,-2.1141605,-1.5757359
1.318,-9.308958,15.7761345,11.698414,4.9134917,-2.0847516,-1.6807418
1.32,-9.293687,15.899582,11.811905,4.8836417,-2.0605311,-1.7868639
1.322,-9.280384,16.03005,11.946185,4.8496513,-2.0416238,-1.894237
1.324,-9.268196,16.166368,12.100968,4.8114476,-2.0278387,-2.0029879
1.326,-9.255884,16.307192,12.275736,4.7690077,-2.01873,-2.1131659
1.328,-9.24219,16.450953,12.469868,4.722314,-2.0136983,-2.224694
1.33,-9.225832,16.595871,12.682947,4.671434,-2.0119982,-2.3374758
1.332,-9.204704,16.739756,12.913711,4.616486,-2.012827,-2.4514084
1.334,-9.176903,16.880651,13.160011,4.557595,-2.0154798,-2.5664368
1.336,-9.140878,17.016708,13.419369,4.4949026,-2.0193985,-2.682485
1.338,-9.095039,17.145903,13.689438,4.4285474,-2.0241733,-2.799456
1.34,-9.037619,17.26605,13.96784,4.358595,-2.0295496,-2.9172828
1.342,-8.967669,17.37559,14.252169,4.2851167,-2.0354025,-3.0359807
1.344,-8.884243,17.472765,14.538982,4.208192,-2.0416532,-3.1556485
1.346,-8.785591,17.555515,14.825336,4.1277885,-2.0483465,-3.2764626
1.348,-8.670724,17.622026,15.108467,4.0437775,-2.0556011,-3.398644
1.35,-8.539328,17.670618,15.385323,3.9560008,-2.0633812,-3.5224185
1.352,-8.391203,17.69989,15.652735,3.864296,-2.0716064,-3.6478696
1.354,-8.226255,17.708511,15.907958,3.7685733,-2.0802276,-3.7748528
1.356,-8.045875,17.695969,16.14793,3.6688876,-2.0891986,-3.9030733
1.358,-7.8500147,17.66112,16.370268,3.5654924,-2.098481,-4.032279
1.36,-7.6403875,17.603848,16.57397,3.4588392,-2.1079717,-4.1622334
1.362,-7.4189157,17.523968,16.757513,3.3494558,-2.117464,-4.2926145
1.364,-7.187214,17.42164,16.919455,3.237945,-2.1265552,-4.422874
1.366,-6.947734,17.297485,17.05907,3.124946,-2.1346679,-4.552312
1.368,-6.7023115,17.152222,17.176329,3.0110807,-2.1411004,-4.680194
1.37,-6.453162,16.986979,17.26856,2.8969898,-2.144926,-4.8058333
1.372,-6.2016935,16.802843,17.334679,2.783299,-2.1450844,-4.9285736
1.374,-5.9490356,16.600727,17.376528,2.670547,-2.1405442,-5.047767
1.376,-5.697811,16.381905,17.396885,2.559163,-2.1303673,-5.162732
1.378,-5.450577,16.147873,17.397423,2.449513,-2.1138446,-5.272854
1.38,-5.209077,15.899958,17.378262,2.341864,-2.090557,-5.377686
1.382,-4.974395,15.639666,17.33931,2.2363956,-2.0603952,-5.4769797
1.384,-4.746931,15.368763,17.280544,2.1331947,-2.02359,-5.5706477
1.386,-4.526888,15.08863,17.203156,2.032281,-1.9807343,-5.6587963
1.388,-4.314609,14.800159,17.10888,1.9336386,-1.932673,-5.741701
1.39,-4.1095324,14.503773,16.998978,1.8372384,-1.8803992,-5.819834
1.392,-3.9108963,14.199764,16.87416,1.7430592,-1.825048,-5.893833
1.394,-3.71778,13.888645,16.73587,1.6511093,-1.7678086,-5.96443
1.396,-3.5298214,13.57095,16.586056,1.561424,-1.7097644,-6.032352
1.398,-3.3464422,13.247054,16.426113,1.474052,-1.6518757,-6.098231
1.4,-3.167122,12.916933,16.256374,1.3890744,-1.5949697,-6.162568
1.402,-2.9906583,12.580365,16.076225,1.306577,-1.5396936,-6.225718
1.404,-2.8158112,12.237127,15.88509,1.2266232,-1.486523,-6.287874
1.406,-2.6417198,11.887007,15.683025,1.1491917,-1.4358301,-6.3491025
1.408,-2.4674063,11.529671,15.470434,1.0741997,-1.3878787,-6.4093213
1.41,-2.2919068,11.164772,15.247133,1.0014942,-1.3428516,-6.4683237
1.412,-2.114459,10.791892,15.012762,0.9308635,-1.3009276,-6.5258474
1.414,-1.9350061,10.41129,14.767031,0.8620788,-1.2622755,-6.5816636
1.416,-1.7532663,10.023002,14.509574,0.79495,-1.2270362,-6.635602
1.418,-1.5694809,9.627443,14.240402,0.7293068,-1.195309,-6.6875753
1.42,-1.3843288,9.225214,13.959769,0.66502666,-1.1671762,-6.7375255
1.422,-1.1987638,8.817179,13.667695,0.6020336,-1.1426449,-6.7854357
1.424,-1.0135236,8.404258,13.3637905,0.5403223,-1.1216753,-6.831309
1.426,-0.8290739,7.987585,13.0476265,0.47993946,-1.1041424,-6.875164
1.428,-0.64581895,7.5682616,12.719153,0.42100477,-1.089822,-6.917059
1.43,-0.46446228,7.147664,12.379303,0.36367804,-1.0784183,-6.957045
1.432,-0.2858591,6.727229,12.02964,0.30812246,-1.0696154,-6.9951878
1.434,-0.11130071,6.308678,11.671953,0.25451672,-1.0630543,-7.0315256
1.436,0.057930708,5.8936443,11.30794,0.20306927,-1.0583408,-7.0661087
1.438,0.22098005,5.4839544,10.9389515,0.1540063,-1.0550773,-7.098999
1.44,0.37707818,5.081491,10.566677,0.10758728,-1.0528641,-7.1302824
1.442,0.5253509,4.688298,10.193391,0.06408417,-1.0513196,-7.16006
1.444,0.66538465,4.3059497,9.8218565,0.023801267,-1.0501087,-7.1884475
1.446,0.7967534,3.9359736,9.454984,-0.012943089,-1.048981,-7.215596
1.448,0.9194701,3.5797937,9.095738,-0.045860767,-1.0477896,-7.241694
1.45,1.0334355,3.238575,8.746685,-0.0746904,-1.0464709,-7.2669826
1.452,1.1391335,2.913082,8.41052,-0.09920448,-1.045063,-7.2917843
1.454,1.2367601,2.6041174,8.089933,-0.11924222,-1.0437267,-7.31651
1.456,1.3264961,2.3122518,7.787635,-0.13471857,-1.042728,-7.3416357
1.458,1.408963,2.0375996,7.506206,-0.1456115,-1.0424352,-7.3676734
1.46,1.4846861,1.7800221,7.247935,-0.1519804,-1.0432496,-7.3951735
1.462,1.5545892,1.5391979,7.0148296,-0.15397984,-1.0456367,-7.4246893
1.464,1.6195507,1.3145931,6.808335,-0.1518216,-1.0500405,-7.4568195
1.466,1.6808863,1.1054783,6.629553,-0.14575706,-1.0568702,-7.492141
1.468,1.7398336,0.91090584,6.479762,-0.13611008,-1.0665615,-7.53119
1.47,1.7978458,0.72963285,6.3601103,-0.12323586,-1.0795436,-7.574418
1.472,1.8562198,0.5604851,6.271442,-0.10753713,-1.0962565,-7.6222105
1.474,1.9164128,0.40209913,6.2139225,-0.0894316,-1.1170914,-7.674849
1.476,1.9798965,0.25341058,6.1873965,-0.06937092,-1.1424024,-7.7325172
1.478,2.0483775,0.11327505,6.1914487,-0.04784733,-1.1725326,-7.795295
1.48,2.1227667,-0.018922806,6.2256303,-0.025395185,-1.2078743,-7.8631296
1.482,2.204545,-0.14357138,6.2890334,-0.0026145577,-1.248877,-7.935805
1.484,2.2949524,-0.26085806,6.3808618,0.019841254,-1.2960987,-8.013024
1.486,2.3953056,-0.370373,6.5002,0.041276842,-1.3502226,-8.094375
1.488,2.5069902,-0.4718715,6.646371,0.060925037,-1.412142,-8.17938
1.49,2.6309078,-0.564708,6.8189554,0.07797098,-1.4829884,-8.2675705
1.492,2.7681875,-0.6482798,7.0175614,0.09153676,-1.5641379,-8.358497
1.494,2.919394,-0.7216948,7.2419176,0.10071021,-1.6571331,-8.451795
1.496,3.0853465,-0.7837187,7.4916835,0.10455382,-1.7636304,-8.547251
1.498,3.2668915,-0.83290327,7.766259,0.10209358,-1.8853092,-8.644785
1.5,3.4648137,-0.8674152,8.065364,0.092363775,-2.0237505,-8.744453
1.502,3.6799617,-0.8855734,8.389195,0.07442927,-2.1802716,-8.84644
1.504,3.9128335,-0.8857205,8.738069,0.047402263,-2.3558874,-8.951017
1.506,4.1643353,-0.86614203,9.11258,0.010467291,-2.5512555,-9.058519
1.508,4.434974,-0.82537913,9.513532,-0.03708327,-2.7666214,-9.169261
1.51,4.725601,-0.76198244,9.941636,-0.09584439,-3.001869,-9.283531
1.512,5.0371966,-0.6747563,10.397427,-0.16627586,-3.2565422,-9.401583
1.514,5.370789,-0.56273603,10.880829,-0.248662,-3.5298567,-9.523596
1.516,5.7274466,-0.4253657,11.391882,-0.34310532,-3.8207674,-9.649702
1.518,6.1081324,-0.26228523,11.930264,-0.4495592,-4.128067,-9.779993
1.52,6.5135493,-0.07352948,12.495642,-0.56788826,-4.4504375,-9.914481
1.522,6.944805,0.14074063,13.087244,-0.697875,-4.786433,-10.053173
1.524,7.403197,0.37993217,13.70385,-0.83920836,-5.134427,-10.195974
1.526,7.890092,0.64287734,14.343794,-0.9914801,-5.492624,-10.342655
1.528,8.406955,0.92805696,15.005217,-1.1541631,-5.859088,-10.492904
1.53,8.9551525,1.2332721,15.686091,-1.3266115,-6.2318172,-10.64633
1.532,9.535898,1.5561137,16.384096,-1.5081201,-6.608771,-10.80243
1.534,10.15012,1.8941379,17.0964,-1.6979284,-6.987872,-10.960575
1.536,10.79875,2.244701,17.819473,-1.8952875,-7.3670816,-11.120062
1.538,11.482187,2.6051288,18.549788,-2.0995016,-7.74442,-11.28005
1.54,12.200947,2.972351,19.283735,-2.3099632,-8.118006,-11.439661
1.542,12.955007,3.3432145,20.017618,-2.5261478,-8.4860935,-11.597956
1.544,13.744006,3.7145033,20.747807,-2.747591,-8.847093,-11.753967
1.546,14.568039,4.0827274,21.47092,-2.9738798,-9.199626,-11.906743
1.548,15.425394,4.4448166,22.18399,-3.2046065,-9.5425,-12.05529
1.55,16.314533,4.7974877,22.884243,-3.4392939,-9.874614,-12.198614
1.552,17.233534,5.1375284,23.568665,-3.6773272,-10.194904,-12.335737
1.554,18.180006,5.461733,24.23455,-3.9178905,-10.5023365,-12.4657135
1.556,19.151443,5.7673254,24.879845,-4.1599503,-10.795914,-12.587639
1.558,20.144463,6.0517507,25.502766,-4.402276,-11.07467,-12.700649
1.56,21.155937,6.31284,26.1017,-4.643459,-11.337622,-12.803875
1.562,22.182499,6.548603,26.67519,-4.881932,-11.583744,-12.89645
1.564,23.221115,6.757028,27.223003,-5.1159945,-11.811981,-12.977509
1.566,24.26848,6.9361515,27.74538,-5.3439074,-12.02137,-13.0462055
1.568,25.320892,7.084242,28.243362,-5.5639157,-12.211077,-13.101753
1.57,26.375118,7.199727,28.718239,-5.7742705,-12.380377,-13.143402
1.572,27.42829,7.2813506,29.171318,-5.9732265,-12.528617,-13.170481
1.574,28.477726,7.3280954,29.604334,-6.1590796,-12.65526,-13.182474
1.576,29.52079,7.339145,30.018888,-6.3302293,-12.759988,-13.179017
1.578,30.555763,7.31393,30.416208,-6.4852285,-12.842745,-13.159974
1.58,31.581448,7.2518883,30.7975,-6.622833,-12.903609,-13.125349
1.582,32.597134,7.1525507,31.164286,-6.742009,-12.942962,-13.075258
1.584,33.60237,7.0155964,31.518412,-6.8419995,-12.961436,-13.009958
1.586,34.597347,6.840581,31.861427,-6.922295,-12.959986,-12.929789
1.588,35.582207,6.6273627,32.195015,-6.9826446,-12.939917,-12.8351965
1.59,36.5582,6.375498,32.520763,-7.0230265,-12.902837,-12.726688
1.592,37.52597,6.0846,32.84003,-7.043654,-12.850702,-12.604875
1.594,38.486485,5.75459,33.154232,-7.0449166,-12.785736,-12.470448
1.596,39.4404,5.3856483,33.464138,-7.027399,-12.710306,-12.324162
1.598,40.388897,4.9783645,33.770107,-6.9917336,-12.626773,-12.166798
1.6,41.33308,4.5337462,34.072174,-6.938571,-12.537338,-11.999163
1.602,42.274208,4.0528455,34.370174,-6.8685665,-12.444094,-11.822107
1.604,43.21376,3.5368657,34.66443,-6.7822723,-12.348914,-11.636478
1.606,44.153065,2.9866776,34.955173,-6.680131,-12.253411,-11.4430685
1.608,45.093136,2.4032583,35.242992,-6.5624495,-12.158871,-11.242603
1.61,46.03486,1.7877588,35.528214,-6.4294076,-12.066368,-11.035692
1.612,46.97883,1.1416377,35.810932,-6.281104,-11.976751,-10.822804
1.614,47.92565,0.4666984,36.090942,-6.117556,-11.890702,-10.60423
1.616,48.875748,-0.23494506,36.36792,-5.938823,-11.808836,-10.380067
1.618,49.829666,-0.960659,36.641445,-5.744997,-11.731721,-10.150231
1.62,50.788235,-1.7077513,36.910786,-5.5362554,-11.659938,-9.91446
1.622,51.752632,-2.473288,37.175087,-5.31285,-11.594214,-9.672398
1.624,52.724236,-3.253952,37.434036,-5.0751867,-11.535475,-9.423728
1.626,53.704597,-4.0458717,37.68701,-4.823733,-11.484807,-9.168177
1.628,54.69537,-4.8445697,37.933743,-4.5589743,-11.443413,-8.905579
1.63,55.699276,-5.645105,38.17383,-4.2813907,-11.41257,-8.635928
1.632,56.71893,-6.4418397,38.40754,-3.9914088,-11.393604,-8.359261
1.634,57.757637,-7.2282853,38.63552,-3.6893988,-11.387837,-8.0756645
1.636,58.818768,-7.9967074,38.858036,-3.3756404,-11.396407,-7.7851477
1.638,59.906227,-8.738382,39.074917,-3.0503268,-11.420172,-7.48746
1.64,61.02506,-9.443626,39.28662,-2.7136154,-11.45971,-7.1820903
1.642,62.180244,-10.101785,39.494217,-2.3656633,-11.515513,-6.8681693
1.644,63.37725,-10.7010765,39.699528,-2.0067163,-11.588026,-6.544444
1.646,64.62273,-11.229415,39.905437,-1.637124,-11.6777,-6.2093744
1.648,65.92377,-11.6755,40.114666,-1.2572997,-11.785003,-5.861238
1.65,67.28768,-12.026113,40.330437,-0.8677112,-11.910487,-5.4982996
1.652,68.719406,-12.265137,40.5567,-0.46891916,-12.054837,-5.118889
1.654,70.22615,-12.375491,40.79704,-0.061537266,-12.218855,-4.721445
1.656,71.813705,-12.338466,41.054676,0.3537761,-12.4033375,-4.3045096
1.658,73.48673,-12.131258,41.333046,0.7761737,-12.60914,-3.8667068
1.66,75.25284,-11.730902,41.639565,1.2045529,-12.837229,-3.4067862
1.662,77.11161,-11.113179,41.98498,1.637484,-13.088593,-2.9236128
1.664,79.06607,-10.259294,42.38163,2.0731907,-13.364099,-2.4162374
1.666,81.12236,-9.145879,42.83483,2.509544,-13.664492,-1.8839812
1.668,83.28427,-7.742975,43.34863,2.9441147,-13.990448,-1.326657
1.67,85.551575,-6.0169106,43.928295,3.3743348,-14.342435,-0.7446625
1.672,87.92067,-3.93777,44.58309,3.797718,-14.720405,-0.13912058
1.674,90.38728,-1.4841497,45.316467,4.212185,-15.123404,0.4878738
1.676,92.94195,1.3549478,46.12539,4.6163077,-15.54924,1.1331601
1.678,95.57212,4.607789,47.007236,5.0095243,-15.994388,1.7927791
1.68,98.26485,8.286315,47.981995,5.3923244,-16.453814,2.4621823
1.682,100.994576,12.396569,49.080444,5.766515,-16.920633,3.1363997
1.684,103.69055,16.974705,50.3007,6.1354394,-17.385973,3.8103948
1.686,106.3032,22.046,51.64161,6.504196,-17.838812,4.479619
1.688,108.82413,27.581871,53.162037,6.8794756,-18.266314,5.1407576
1.69,111.22607,33.518,54.979233,7.2686696,-18.655222,5.792267
1.692,113.52615,39.875034,57.041164,7.679595,-18.991837,6.43529
1.694,115.923645,46.593803,59.32714,8.120112,-19.26156,7.075494
1.696,118.367325,53.654316,61.862206,8.598068,-19.449263,7.723906
1.698,120.705124,61.057037,64.67477,9.119961,-19.541407,8.395746
1.7,122.92249,68.75165,67.79721,9.6900425,-19.526972,9.109305
1.702,125.01508,76.69508,71.21909,10.309836,-19.39579,9.885869
1.704,126.96354,84.766556,74.96709,10.976908,-19.1386,10.749916
1.706,128.78044,92.91837,79.10751,11.685957,-18.74642,11.727604
1.708,130.4755,101.06091,83.71638,12.431193,-18.208817,12.84437
1.71,132.06235,109.07904,88.76683,13.2054,-17.51471,14.12286
1.712,133.56134,116.8432,94.10922,14.001219,-16.647308,15.582645
1.714,135.02316,124.28884,99.660385,14.817641,-15.574917,17.237597
1.716,136.50606,131.34248,105.49899,15.658362,-14.259834,19.090385
1.718,137.87604,138.11983,111.81827,16.514772,-12.68458,21.121449
1.72,139.46497,144.24419,118.514305,17.378899,-10.814379,23.309587
1.722,141.22504,149.3746,125.461975,18.252337,-8.611273,25.61425
1.724,143.2124,153.60184,132.61887,19.132717,-6.0415325,27.984287
1.726,145.48428,156.86806,139.86967,20.010775,-3.0823526,30.362701
1.728,148.11876,159.09479,147.12918,20.879038,0.2804575,32.67182
1.73,151.13765,160.27722,154.25795,21.729769,4.051193,34.811317
1.732,154.55511,160.42705,161.0924,22.554071,8.204299,36.68953
1.734,158.40178,159.56505,167.46794,23.332962,12.686192,38.22781
1.736,162.7138,157.71677,173.22345,24.04675,17.430237,39.340042
1.738,167.49065,154.92719,178.197,24.676325,22.357063,39.945396
1.74,172.6948,151.26674,182.21133,25.197063,27.362545,40.008205
1.742,178.26843,146.81667,185.08983,25.589249,32.309063,39.566772
1.744,184.12039,141.68045,186.66205,25.864826,37.06391,38.66582
1.746,190.13943,135.97269,186.7956,26.077522,41.520756,37.327057
1.748,196.20815,129.81036,185.39638,26.31905,45.619427,35.595226
1.75,202.18802,123.319244,182.40108,26.625412,49.24523,33.52241
1.752,207.924,116.62281,177.78174,27.012367,52.26927,31.198095
1.754,213.27531,109.83511,171.55273,27.547672,54.66289,28.697475
1.756,218.07947,103.07336,163.7792,28.30029,56.3979,26.069904
1.758,222.1945,96.464294,154.56726,29.296473,57.430267,23.324993
1.76,225.5026,90.098946,144.07463,30.522728,57.735374,20.432955
1.762,227.90509,84.0269,132.50491,31.929377,57.30347,17.337357
1.764,229.29175,78.272835,120.09206,33.424747,56.13619,13.971577
1.766,229.5575,72.89401,107.09023,34.875088,54.241707,10.280209
1.768,228.63768,67.94528,93.777115,36.11563,51.635628,6.242962
1.77,226.50375,63.457077,80.420334,36.97662,48.357445,1.8937626
1.772,223.17883,59.444542,67.28387,37.312634,44.48174,-2.66708
1.774,218.70862,55.938267,54.62374,37.003323,40.077095,-7.295349
1.776,213.16034,52.964096,42.68876,35.966507,35.228073,-11.798711
1.778,206.61928,50.541508,31.705727,34.183125,30.037487,-15.973883
1.78,199.19109,48.688713,21.866348,31.696423,24.622108,-19.639406
1.782,190.99991,47.422695,13.32177,28.596142,19.100832,-22.652689
1.784,182.18706,46.754154,6.1864014,25.011827,13.59211,-24.933758
1.786,172.9069,46.686703,0.5296669,21.098244,8.222569,-26.497263
1.788,163.30762,47.200462,-3.6296616,17.021267,3.1059546,-27.432327
1.79,153.5337,48.282135,-6.334915,12.9311695,-1.6743021,-27.858747
1.792,143.73392,49.90375,-7.669937,8.955144,-6.0558844,-27.91716
1.794,134.07841,51.996452,-7.7187233,5.199439,-9.981646,-27.766998
1.796,124.68526,54.498226,-6.6005898,1.7417707,-13.398143,-27.564674
1.798,115.62085,57.387062,-4.507164,-1.3780351,-16.288439,-27.384882
1.8,106.9704,60.635548,-1.6684036,-4.1464953,-18.66277,-27.227846
1.802,98.76741,64.11449,1.8430061,-6.559652,-20.545618,-27.086494
1.804,90.91194,67.767746,5.882963,-8.560381,-21.893787,-26.93791
1.806,83.57022,71.48707,10.25593,-10.113931,-22.674332,-26.776659
1.808,76.93224,75.15352,14.774057,-11.256556,-22.9379,-26.5734
1.81,70.99721,78.70411,19.259743,-12.018693,-22.691565,-26.292564
1.812,65.74844,82.06659,23.584862,-12.402683,-21.917871,-25.899406
1.814,61.176956,85.23362,27.595175,-12.413426,-20.626507,-25.370274
1.816,57.23797,88.12,31.131222,-12.068937,-18.84744,-24.69849
1.818,53.891422,90.692955,34.068245,-11.392435,-16.628399,-23.89296
1.82,51.094707,92.94151,36.401466,-10.412977,-14.037438,-22.97538
1.822,48.800194,94.86137,38.21205,-9.173126,-11.167057,-21.975689
1.824,46.937225,96.39664,39.47921,-7.73186,-8.132602,-20.9274
1.826,45.44214,97.529144,40.054604,-6.158709,-5.061898,-19.86629
1.828,44.40921,98.118515,39.77338,-4.5281916,-2.0866203,-18.831343
1.83,43.504524,98.4962,38.802895,-2.9148211,0.6651702,-17.863781
1.832,42.821594,98.83417,37.285362,-1.3890074,3.077231,-17.00356
1.834,42.316906,98.89217,35.265762,-0.013397694,5.053707,-16.285568
1.836,41.943897,98.661964,32.856705,1.1599925,6.5242796,-15.736891
1.838,41.63808,98.17694,30.130798,2.0906014,7.4457245,-15.376481
1.84,41.384712,97.42245,27.204931,2.7504747,7.802722,-15.211171
1.842,41.156513,96.40469,24.196804,3.1264596,7.610016,-15.233771
1.844,40.899193,95.14949,21.203362,3.2189925,6.908166,-15.425787
1.846,40.552757,93.6973,18.305433,3.0396643,5.7557755,-15.759468
1.848,40.08986,92.083206,15.576994,2.6086726,4.2228794,-16.198868
1.85,39.504116,90.33206,13.099043,1.9525995,2.3887706,-16.699516
1.852,38.789806,88.47104,10.941107,1.104753,0.34122515,-17.214523
1.854,37.953728,86.51707,9.1593685,0.10659701,-1.8297069,-17.702984
1.856,37.002014,84.486855,7.7750483,-0.99382055,-4.0348477,-18.132643
1.858,35.932175,82.401085,6.7873144,-2.1481342,-6.1882277,-18.477312
1.86,34.752655,80.274635,6.1878853,-3.3119073,-8.211462,-18.714806
1.862,33.480457,78.12475,5.9592733,-4.445594,-10.037438,-18.828896
1.864,32.117424,75.97293,6.072033,-5.5154524,-11.612813,-18.810724
1.866,30.689865,73.83147,6.4817004,-6.493743,-12.89819,-18.658031
1.868,29.209785,71.7016,7.141415,-7.358762,-13.868288,-18.374119
1.87,27.683039,69.61177,7.992594,-8.095694,-14.512482,-17.967665
1.872,26.12207,67.60772,8.972357,-8.696974,-14.8349,-17.451921
1.874,24.566183,65.731155,10.025582,-9.161576,-14.853363,-16.843935
1.876,23.060354,63.97232,11.106118,-9.493375,-14.597024,-16.163788
1.878,21.623665,62.318405,12.166084,-9.700386,-14.104529,-15.433607
1.88,20.258156,60.777634,13.1764555,-9.794552,-13.421961,-14.675987
1.882,18.952812,59.36094,14.110924,-9.79151,-12.599713,-13.911732
1.884,17.70158,58.060616,14.9445,-9.709257,-11.688679,-13.159285
1.886,16.504038,56.864605,15.653594,-9.566859,-10.738011,-12.435222
1.888,15.368097,55.7612,16.218424,-9.383744,-9.792912,-11.753236
1.89,14.301428,54.73867,16.628275,-9.17864,-8.892286,-11.123203
1.892,13.307667,53.78987,16.880322,-8.968542,-8.067319,-10.551207
1.894,12.382929,52.914192,16.979898,-8.767853,-7.3407483,-10.039587
1.896,11.522242,52.112328,16.942995,-8.587869,-6.7267885,-9.587304
1.898,10.729076,51.37725,16.79137,-8.43634,-6.2314644,-9.190458
1.9,10.003464,50.70054,16.548002,-8.317517,-5.8536134,-8.842814
1.902,9.341774,50.077515,16.236395,-8.23251,-5.5862255,-8.536472
1.904,8.738434,49.50399,15.878771,-8.179762,-5.4180856,-8.262807
1.906,8.188534,48.974945,15.494034,-8.155632,-5.3352485,-8.013399
1.908,7.685251,48.48046,15.097242,-8.154956,-5.3222203,-7.7804856
1.91,7.2169933,48.01642,14.699661,-8.171778,-5.3630667,-7.5572085
1.912,6.7777996,47.58068,14.310351,-8.199903,-5.442174,-7.338002
1.914,6.362253,47.16995,13.936483,-8.233122,-5.544651,-7.118744
1.916,5.9658318,46.78141,13.581377,-8.265606,-5.656722,-6.8966103
1.918,5.5847225,46.412243,13.246184,-8.292273,-5.7661405,-6.6698956
1.92,5.2161036,46.059845,12.931408,-8.308954,-5.862503,-6.437889
1.922,4.857589,45.72236,12.636696,-8.312401,-5.9372473,-6.2006555
1.924,4.506899,45.398968,12.359017,-8.300221,-5.9836206,-5.958755
1.926,4.163377,45.08925,12.093077,-8.2709055,-5.996634,-5.7130394
1.928,3.8272524,44.79328,11.831144,-8.223726,-5.972996,-5.464511
1.93,3.4995317,44.511883,11.56504,-8.158678,-5.9110136,-5.2142525
1.932,3.181405,44.24746,11.286945,-8.07638,-5.810456,-4.9634075
1.934,2.875454,44.000763,10.989699,-7.9780083,-5.6724415,-4.713209
1.936,2.5837317,43.770874,10.667137,-7.8651752,-5.499229,-4.464965
1.938,2.3071394,43.557014,10.314587,-7.739815,-5.2939534,-4.220065
1.94,2.046629,43.35777,9.928254,-7.6040463,-5.0603986,-3.9799461
1.942,1.8034048,43.17059,9.505068,-7.4600534,-4.8028173,-3.7460227
1.944,1.5791578,42.992317,9.041794,-7.3099833,-4.52571,-3.519708
1.946,1.3761396,42.820107,8.535799,-7.15585,-4.2336335,-3.3023162
1.948,1.1964273,42.65086,7.9852347,-6.999486,-3.9310062,-3.094998
1.95,1.0421581,42.48135,7.389636,-6.8424635,-3.6219277,-2.898698
1.952,0.915215,42.308556,6.750016,-6.6861286,-3.310221,-2.7141201
1.954,0.81771564,42.129192,6.0688047,-6.531619,-2.9994369,-2.5417037
1.956,0.7509017,41.94027,5.3499775,-6.3798795,-2.6929188,-2.3816485
1.958,0.7161741,41.738674,4.5982585,-6.2317,-2.3937342,-2.2339354
1.96,0.7143431,41.52136,3.8190587,-6.0877085,-2.1046898,-2.0983715
1.962,0.7461486,41.28538,3.0182817,-5.948433,-1.828446,-1.9746912
1.964,0.8116627,41.027798,2.2018018,-5.814326,-1.5674944,-1.8625801
1.966,0.91073346,40.745987,1.3754512,-5.6857805,-1.3241527,-1.7617171
1.968,1.0429939,40.437534,0.5446812,-5.563048,-1.1005764,-1.6717336
1.97,1.2079854,40.100334,-0.28527734,-5.446272,-0.8987208,-1.5922623
1.972,1.4044552,39.73305,-1.1095059,-5.3354635,-0.7203078,-1.5229583
1.974,1.6311084,39.334488,-1.9232811,-5.2305155,-0.56679875,-1.4635009
1.976,1.8860803,38.904068,-2.7225378,-5.131191,-0.43932676,-1.4135833
1.978,2.1676319,38.44135,-3.5037732,-5.03713,-0.33860415,-1.3729153
1.98,2.4733856,37.946262,-4.264091,-4.947836,-0.26491004,-1.3412058
1.982,2.8008785,37.419174,-5.0012355,-4.8627315,-0.2180431,-1.3181444
1.984,3.1476693,36.860542,-5.713184,-4.781104,-0.19724727,-1.303364
1.986,3.5103016,36.271564,-6.3982563,-4.7021246,-0.20124078,-1.2963991
1.988,3.885828,35.653744,-7.0555053,-4.6248565,-0.22821382,-1.2966987
1.99,4.27136,35.007954,-7.6859283,-4.5482593,-0.27589726,-1.3035676
1.992,4.6637526,34.335587,-8.289963,-4.4712067,-0.34164134,-1.3161749
1.994,5.05951,33.638317,-8.868275,-4.392498,-0.42250597,-1.3335676
1.996,5.4544063,32.9183,-9.421517,-4.3108854,-0.515344,-1.3546524
1.998,5.8451524,32.177776,-9.951053,-4.225092,-0.6169383,-1.3781654
2,6.2284846,31.419155,-10.458673,-4.133905,-0.7241514,-1.4027634
2.002,6.6018643,30.644815,-10.946311,-4.0362263,-0.83406353,-1.4270654
2.004,6.9625993,29.857178,-11.415571,-3.9311368,-0.9441315,-1.4497123
2.006,7.308387,29.05851,-11.867829,-3.818002,-1.0522778,-1.4694597
2.008,7.636732,28.251408,-12.303939,-3.696498,-1.1569672,-1.4852134
2.01,7.9456596,27.438091,-12.724396,-3.5666704,-1.2572725,-1.4961071
2.012,8.233408,26.620672,-13.12917,-3.428934,-1.3528578,-1.5015423
2.014,8.498327,25.801495,-13.51773,-3.284062,-1.4439712,-1.5011802
2.016,8.739475,24.982653,-13.8892565,-3.1332116,-1.5313644,-1.494985
2.018,8.956043,24.166428,-14.242495,-2.9777493,-1.616177,-1.4831414
2.02,9.147097,23.355076,-14.575973,-2.819018,-1.699343,-1.4658465
2.022,9.312658,22.550453,-14.887642,-2.6584501,-1.7818528,-1.4434419
2.024,9.452518,21.754696,-15.175295,-2.4975047,-1.864851,-1.4163547
2.026,9.56676,20.96979,-15.43659,-2.3374498,-1.9491646,-1.3849195
2.028,9.655812,20.19784,-15.668971,-2.1792383,-2.0352213,-1.3493708
2.03,9.720252,19.440958,-15.869768,-2.0235164,-2.1230714,-1.3098577
2.032,9.760523,18.701166,-16.036633,-1.8705899,-2.2123833,-1.2663977
2.034,9.777519,17.98053,-16.167244,-1.7204224,-2.3024366,-1.2189081
2.036,9.77234,17.281101,-16.259937,-1.5726442,-2.3922193,-1.1672238
2.038,9.745974,16.604967,-16.313025,-1.4266324,-2.4805064,-1.1111176
2.04,9.69973,15.954191,-16.325462,-1.2815908,-2.5659552,-1.0503016
2.042,9.634938,15.330644,-16.29636,-1.1366313,-2.6472647,-0.98441553
2.044,9.553234,14.736044,-16.2255,-0.99089265,-2.7232459,-0.9131148
2.046,9.45603,14.171981,-16.112576,-0.8436054,-2.7929146,-0.836074
2.048,9.345165,13.639858,-15.958048,-0.69415987,-2.8555355,-0.7530582
2.05,9.222393,13.140976,-15.76278,-0.54217124,-2.9106264,-0.66399205
2.052,9.089609,12.676252,-15.528477,-0.38744628,-2.9579303,-0.5689682
2.054,8.9489155,12.246594,-15.256776,-0.22993591,-2.9973474,-0.46820852
2.056,8.802461,11.852158,-14.949739,-0.06970373,-3.0289323,-0.36207852
2.058,8.652135,11.493206,-14.609312,0.093152225,-3.0528235,-0.2510322
2.06,8.499606,11.169492,-14.237721,0.2585832,-3.069251,-0.13555452
2.062,8.347128,10.880421,-13.837737,0.42658705,-3.0785413,-0.016131252
2.064,8.196489,10.62537,-13.412064,0.5972241,-3.0811164,0.106818035
2.066,8.049913,10.403291,-12.963645,0.7706085,-3.0775154,0.23294653
2.068,7.9090686,10.212967,-12.494993,0.9468622,-3.0683622,0.36199462
2.07,7.7756386,10.052924,-12.008923,1.1261195,-3.0543642,0.49381876
2.072,7.6511154,9.921624,-11.508094,1.3083903,-3.0363064,0.62833226
2.074,7.5370398,9.817557,-10.994998,1.493472,-3.0153427,0.7653777
2.076,7.4346833,9.739023,-10.472166,1.6811196,-2.9924233,0.9048388
2.078,7.345273,9.684262,-9.941879,1.8710375,-2.9682689,1.0466139
2.08,7.2698517,9.651579,-9.406188,2.0627375,-2.9437757,1.1905007
2.082,7.209462,9.639264,-8.8671055,2.2555642,-2.9199407,1.3362161
2.084,7.16469,9.645777,-8.326424,2.448798,-2.8977525,1.4834279
2.086,7.1361113,9.669452,-7.785693,2.6416593,-2.8782418,1.6317003
2.088,7.123998,9.708828,-7.246326,2.8333504,-2.8623762,1.7805285
2.09,7.1287403,9.762485,-6.709639,3.0231023,-2.8510108,1.9293408
2.092,7.150361,9.829326,-6.176854,3.2101662,-2.8449342,2.077528
2.094,7.1889763,9.908189,-5.6490965,3.3938196,-2.8448825,2.2244306
2.096,7.244543,9.998077,-5.1275053,3.5733993,-2.8515098,2.369346
2.098,7.316533,10.098111,-4.613058,3.7483184,-2.8653414,2.5115747
2.1,7.404344,10.208053,-4.1055107,3.9180815,-2.886756,2.650473
2.102,7.50743,10.327615,-3.605728,4.0823064,-2.9159584,2.7854693
2.104,7.6258593,10.45621,-3.1148934,4.2407084,-2.9529955,2.9161446
2.106,7.760005,10.593556,-2.6341105,4.3931026,-2.9977317,3.0422285
2.108,7.909276,10.739556,-2.1638803,4.539407,-3.049868,3.1636279
2.11,8.073052,10.894277,-1.70455,4.6796527,-3.1089404,3.280469
2.112,8.250559,11.058107,-1.2561357,4.8139367,-3.174388,3.3930674
2.114,8.441193,11.231623,-0.81908655,4.9424233,-3.2455814,3.5018766
2.116,8.644544,11.415359,-0.39359927,5.0653105,-3.3219116,3.6074219
2.118,8.860498,11.6099615,0.019928455,5.182804,-3.4028444,3.710191
2.12,9.088675,11.816357,0.4211979,5.295095,-3.4879577,3.8105934
2.122,9.328733,12.035497,0.8103802,5.402353,-3.5769737,3.90888
2.124,9.580426,12.268094,1.1874838,5.5046635,-3.6697726,4.0050683
2.126,9.843071,12.51519,1.5528283,5.602068,-3.7663724,4.098981
2.128,10.116195,12.777598,1.9070847,5.6945653,-3.8668482,4.1902776
2.13,10.399388,13.056336,2.2510614,5.782127,-3.97133,4.2784977
2.132,10.691928,13.352499,2.585711,5.864707,-4.079945,4.363101
2.134,10.993255,13.666861,2.9123235,5.9422956,-4.192782,4.4435477
2.136,11.302719,14.000323,3.2322965,6.014928,-4.3097963,4.519382
2.138,11.619584,14.353684,3.547327,6.08274,-4.4308114,4.5902634
2.14,11.942974,14.7277155,3.859303,6.1459417,-4.555475,4.655981
2.142,12.272295,15.123098,4.1701317,6.20485,-4.683333,4.7164445
2.144,12.606427,15.540409,4.481767,6.2598677,-4.813795,4.771685
2.146,12.944332,15.97998,4.796418,6.3114934,-4.946089,4.8218613
2.148,13.285061,16.441946,5.1161475,6.3603506,-5.07919,4.8672724
2.15,13.62743,16.926426,5.4430285,6.4071236,-5.2119117,4.908305
2.152,13.970228,17.433418,5.7790713,6.4525456,-5.34294,4.9454412
2.154,14.312243,17.96263,6.1263924,6.4973745,-5.470846,4.979203
2.156,14.6522255,18.513659,6.486557,6.542374,-5.5941234,5.0101504
2.158,14.988924,19.085865,6.860945,6.5882974,-5.711199,5.038831
2.16,15.321033,19.678352,7.2506547,6.6358557,-5.820484,5.065767
2.162,15.647376,20.289919,7.656772,6.6856833,-5.920455,5.0914364
2.164,15.966573,20.919125,8.079757,6.7383256,-6.0096884,5.1162424
2.166,16.27745,21.564344,8.51961,6.794224,-6.0869055,5.1405144
2.168,16.578993,22.223648,8.975908,6.8537087,-6.151006,5.164481
2.17,16.870148,22.89492,9.448002,6.916995,-6.201094,5.1882534
2.172,17.149715,23.575884,9.935011,6.984204,-6.236489,5.2118316
2.174,17.416447,24.264093,10.435909,7.0553317,-6.2567506,5.2351
2.176,17.669296,24.956991,10.949273,7.130264,-6.2617054,5.2578545
2.178,17.907307,25.651693,11.473043,7.2088146,-6.251407,5.2798734
2.18,18.12987,26.345356,12.005326,7.2906966,-6.2261753,5.3008943
2.182,18.336235,27.03497,12.544,7.375474,-6.1866326,5.320657
2.184,18.52568,27.717564,13.086931,7.462609,-6.1336446,5.3389297
2.186,18.697561,28.390297,13.631819,7.551442,-6.0683465,5.3555384
2.188,18.851381,29.050293,14.176594,7.6411695,-5.9920864,5.370363
2.19,18.986715,29.694727,14.719443,7.730874,-5.906436,5.3833528
2.192,19.10317,30.320602,15.258447,7.8195114,-5.8131423,5.3945518
2.194,19.200325,30.9253,15.79208,7.9059362,-5.71413,5.4040565
2.196,19.277937,31.506113,16.31873,7.988915,-5.611413,5.412011
2.198,19.33568,32.060516,16.837143,8.067174,-5.5070176,5.418537
2.2,19.373291,32.58611,17.346622,8.139487,-5.4028964,5.423707
2.202,19.390522,33.080402,17.846733,8.204696,-5.300908,5.4274874
2.204,19.38684,33.541195,18.337055,8.26174,-5.2027144,5.429727
2.206,19.362106,33.96615,18.817421,8.309745,-5.1097,5.4301047
2.208,19.315767,34.35313,19.287909,8.348072,-5.0229173,5.4280543
2.21,19.247637,34.70002,19.74896,8.376344,-4.943063,5.422822
2.212,19.157593,35.0045,20.200905,8.394467,-4.870455,5.4134545
2.214,19.045069,35.26473,20.644386,8.402654,-4.8050733,5.39883
2.216,18.909481,35.479015,21.079678,8.40139,-4.7465224,5.377726
2.218,18.750324,35.645523,21.50696,8.391393,-4.694102,5.3488874
2.22,18.56775,35.762676,21.926476,8.37361,-4.646838,5.311128
2.222,18.361351,35.829144,22.33813,8.349119,-4.6035185,5.263391
2.224,18.131348,35.843704,22.741625,8.319102,-4.5627217,5.2048535
2.226,17.877697,35.805714,23.136427,8.284791,-4.5228324,5.1349583
2.228,17.600845,35.71445,23.521915,8.247369,-4.4821687,5.0534587
2.23,17.301434,35.56952,23.8973,8.207982,-4.438981,4.9604416
2.232,16.980505,35.37094,24.261255,8.167647,-4.391472,4.8563404
2.234,16.639,35.119324,24.612597,8.1272745,-4.3377886,4.7419147
2.236,16.278564,34.81556,24.949705,8.087575,-4.2761936,4.618223
2.238,15.90095,34.461002,25.270496,8.04905,-4.20511,4.486626
2.24,15.508479,34.05742,25.572735,8.011983,-4.123151,4.3487053
2.242,15.103691,33.607075,25.853992,7.9763813,-4.029231,4.2062407
2.244,14.689558,33.112793,26.111555,7.94204,-3.922541,4.0611
2.246,14.269573,32.577736,26.342337,7.9084992,-3.8025527,3.9151406
2.248,13.847221,32.005512,26.54342,7.875144,-3.6689823,3.770187
2.25,13.426531,31.400066,26.711727,7.8411484,-3.5218868,3.627934
2.252,13.011259,30.765831,26.844452,7.805537,-3.3616114,3.4899056
2.254,12.605704,30.107498,26.938738,7.7672777,-3.1887493,3.3574104
2.256,12.213958,29.430012,26.991985,7.7252884,-3.0041308,3.2315264
2.258,11.840147,28.738514,27.001772,7.6784906,-2.808822,3.1130679
2.26,11.488302,28.038221,26.966194,7.6258593,-2.6041703,3.0026016
2.262,11.162119,27.334305,26.883625,7.566434,-2.3917713,2.9004784
2.264,10.864922,26.631966,26.752846,7.499386,-2.1734772,2.8067951
2.266,10.599781,25.936338,26.57358,7.424036,-1.951377,2.721426
2.268,10.3692045,25.252407,26.34588,7.3398685,-1.7277943,2.6440396
2.27,10.175068,24.584621,26.070574,7.2465525,-1.505277,2.5741136
2.272,10.01889,23.937387,25.749123,7.143921,-1.2865262,2.5109682
2.274,9.901652,23.314402,25.383484,7.0319567,-1.0743325,2.4537632
2.276,9.823544,22.719097,24.97641,6.9108076,-0.87148905,2.4015174
2.278,9.784393,22.154219,24.531034,6.7807484,-0.68072414,2.3531206
2.28,9.783361,21.62211,24.051247,6.642133,-0.5045762,2.3073676
2.282,9.818958,21.124376,23.5414,6.4954534,-0.34523344,2.26296
2.284,9.889296,20.661964,23.006033,6.3412814,-0.2045281,2.2185585
2.286,9.992098,20.235325,22.450104,6.1802473,-0.08393645,2.1727707
2.288,10.124722,19.84426,21.878838,6.0130677,0.015501022,2.1242151
2.29,10.2841625,19.488243,21.297346,5.840579,0.09324193,2.0715785
2.292,10.467148,19.16612,20.710844,5.6636515,0.14913821,2.013607
2.294,10.670605,18.876265,20.124159,5.483198,0.18338895,1.9491887
2.296,10.891247,18.616798,19.541918,5.3001757,0.19652557,1.8773628
2.298,11.1255245,18.385544,18.968477,5.1155066,0.1893115,1.7974155
2.3,11.370331,18.180143,18.407618,4.9300847,0.16268706,1.7089424
2.302,11.622452,17.99815,17.862915,4.7447004,0.11769903,1.6118057
2.304,11.879108,17.836882,17.337263,4.5600576,0.055512667,1.5061635
2.306,12.13739,17.693815,16.833431,4.376749,-0.022667885,1.3924413
2.308,12.394735,17.566355,16.353436,4.195221,-0.115659714,1.2713013
2.31,12.6489315,17.452116,15.898622,4.015814,-0.22227824,1.1435919
2.312,12.897929,17.34892,15.470091,3.8387737,-0.3413911,1.0102978
2.314,13.139996,17.25468,15.068546,3.6642487,-0.47194576,0.87248814
2.316,13.37347,17.167685,14.694244,3.4923365,-0.6129725,0.7312243
2.318,13.5970545,17.086407,14.34729,3.323094,-0.76358104,0.58755374
2.32,13.809573,17.009575,14.027169,3.1565568,-0.9229947,0.44247198
2.322,14.009885,16.936255,13.733343,2.9927778,-1.0904989,0.29689822
2.324,14.197667,16.865515,13.465269,2.8318005,-1.2654351,0.1516788
2.326,14.372428,16.796574,13.222077,2.6736908,-1.4471865,0.007573678
2.328,14.53383,16.729065,13.003001,2.5185208,-1.6351428,-0.13475576
2.33,14.681333,16.662733,12.806918,2.366371,-1.828678,-0.27469057
2.332,14.815163,16.597406,12.6327715,2.2173178,-2.0271242,-0.41170126
2.334,14.935144,16.533125,12.479728,2.0713983,-2.229796,-0.5453657
2.336,15.041618,16.469852,12.346638,1.9286218,-2.4359627,-0.675361
2.338,15.134775,16.407816,12.232466,1.7889676,-2.6448488,-0.80144876
2.34,15.215155,16.347206,12.135971,1.6523716,-2.8556192,-0.92349935
2.342,15.283342,16.288164,12.056055,1.5187286,-3.0674136,-1.0414842
2.344,15.340106,16.230713,11.99144,1.3879205,-3.2793226,-1.1554823
2.346,15.386207,16.174843,11.941058,1.2598244,-3.490427,-1.2656369
2.348,15.422607,16.12043,11.903956,1.1343167,-3.699846,-1.3721805
2.35,15.450047,16.067307,11.879163,1.0112672,-3.9067414,-1.4753914
2.352,15.46963,16.015192,11.865572,0.8905617,-4.1103706,-1.5756352
2.354,15.482441,15.963521,11.862318,0.772086,-4.310077,-1.6733512
2.356,15.48963,15.911766,11.868547,0.65575445,-4.5053296,-1.7690427
2.358,15.492666,15.859169,11.883063,0.5415046,-4.695703,-1.8632665
2.36,15.492706,15.804947,11.904868,0.42925286,-4.8809457,-1.9566242
2.362,15.491564,15.748207,11.932727,0.31891334,-5.0609927,-2.049743
2.364,15.490721,15.687899,11.965594,0.21039593,-5.235954,-2.143231
2.366,15.491824,15.623175,12.00235,0.103598595,-5.406091,-2.2376766
2.368,15.496424,15.552961,12.041806,-0.0015779734,-5.5717907,-2.3336003
2.37,15.506181,15.476068,12.082979,-0.10528171,-5.733594,-2.4314265
2.372,15.522545,15.391708,12.124776,-0.20766377,-5.892127,-2.5314677
2.374,15.546971,15.299177,12.16625,-0.30890727,-6.04807,-2.633882
2.376,15.582103,15.197229,12.205775,-0.4092133,-6.2021313,-2.738675
2.378,15.628305,15.085665,12.242528,-0.5087848,-6.3550096,-2.845692
2.38,15.687407,14.96386,12.2752,-0.60783947,-6.507328,-2.9545949
2.382,15.760629,14.831373,12.302977,-0.706617,-6.659632,-3.0648754
2.384,15.848262,14.688217,12.324981,-0.8053453,-6.8123026,-3.1759052
2.386,15.951439,14.534334,12.339981,-0.9042454,-6.965541,-3.2869508
2.388,16.070576,14.369959,12.347148,-1.0034962,-7.119353,-3.3972173
2.39,16.205856,14.195677,12.345111,-1.1032271,-7.2735033,-3.505935
2.392,16.357273,14.012321,12.333092,-1.2035129,-7.4275675,-3.612385
2.394,16.524323,13.82069,12.310139,-1.3043067,-7.580893,-3.7159128
2.396,16.706415,13.621773,12.275389,-1.4054518,-7.732642,-3.8159451
2.398,16.902563,13.416954,12.228136,-1.5066584,-7.881826,-3.9119792
2.4,17.111572,13.2073965,12.1676235,-1.6074939,-8.027335,-4.0035696
2.402,17.332153,12.994504,12.093294,-1.7073871,-8.168022,-4.0902996
2.404,17.562443,12.779592,12.004649,-1.8056595,-8.302835,-4.171796
2.406,17.800648,12.563878,11.901475,-1.9015493,-8.430759,-4.247708
2.408,18.045002,12.348626,11.783432,-1.9942632,-8.550996,-4.317726
2.41,18.293034,12.135036,11.650596,-2.083014,-8.662927,-4.3816295
2.412,18.54258,11.924072,11.503079,-2.1671305,-8.766197,-4.4393115
2.414,18.791222,11.716652,11.341197,-2.2460022,-8.860654,-4.4908133
2.416,19.03684,11.513435,11.165512,-2.3191621,-8.9464035,-4.5363445
2.418,19.276997,11.315109,10.976694,-2.386365,-9.023789,-4.5763316
2.42,19.509354,11.1219015,10.775526,-2.4475305,-9.093266,-4.6113944
2.422,19.73176,10.934168,10.562991,-2.5027952,-9.155353,-4.642273
2.424,19.942019,10.751963,10.340317,-2.552455,-9.210543,-4.6698365
2.426,20.138151,10.575369,10.108797,-2.5969226,-9.259186,-4.6949406
2.428,20.318457,10.404335,9.869681,-2.6366892,-9.301433,-4.718375
2.43,20.481184,10.238651,9.624502,-2.6722496,-9.337194,-4.7407994
2.432,20.624886,10.078218,9.374704,-2.7040486,-9.366145,-4.7626257
2.434,20.748224,9.922805,9.121765,-2.7324061,-9.387802,-4.7839885
2.436,20.85032,9.772295,8.8673935,-2.7575169,-9.4015465,-4.804773
2.438,20.93054,9.626461,8.61301,-2.7794118,-9.406741,-4.824582
2.44,20.988325,9.4852085,8.36015,-2.7979655,-9.402784,-4.842827
2.442,21.02329,9.348606,8.109958,-2.8129296,-9.389185,-4.858795
2.444,21.035517,9.216612,7.8636346,-2.8239722,-9.3656435,-4.8717327
2.446,21.025143,9.089381,7.622204,-2.8307204,-9.332038,-4.8809586
2.448,20.992682,8.966998,7.386496,-2.8327925,-9.288432,-4.88591
2.45,20.938597,8.849705,7.1574802,-2.8298585,-9.235043,-4.8862095
2.452,20.863695,8.737759,6.9357986,-2.8216448,-9.172251,-4.8817058
2.454,20.76924,8.631214,6.7220426,-2.8079793,-9.100503,-4.872424
2.456,20.656336,8.530376,6.5166597,-2.788785,-9.0203085,-4.8585844
2.458,20.526335,8.435435,6.3197365,-2.764055,-8.932214,-4.8405232
2.46,20.380749,8.346511,6.131422,-2.7338755,-8.836846,-4.818664
2.462,20.22096,8.263715,5.951649,-2.6984007,-8.734821,-4.7935
2.464,20.048569,8.1870775,5.780166,-2.657856,-8.626823,-4.7655263
2.466,19.865044,8.116396,5.6167526,-2.6124628,-8.513522,-4.735247
2.468,19.67178,8.05162,5.461134,-2.562524,-8.395608,-4.7031527
2.47,19.470434,7.9925733,5.312768,-2.5083244,-8.273691,-4.6696806
2.472,19.262266,7.938879,5.171385,-2.450152,-8.148358,-4.63524
2.474,19.048641,7.890152,5.0363054,-2.388315,-8.020194,-4.600172
2.476,18.830849,7.8459773,4.906925,-2.3231058,-7.889704,-4.564784
2.478,18.610039,7.8059726,4.7827964,-2.254811,-7.7573323,-4.529323
2.48,18.387213,7.769621,4.6630616,-2.1837296,-7.6234784,-4.4939976
2.482,18.163649,7.736351,4.5472183,-2.1101546,-7.4884815,-4.458975
2.484,17.94024,7.7054405,4.434692,-2.0343528,-7.3526096,-4.424376
2.486,17.716549,7.676921,4.325329,-1.9565744,-7.2160473,-4.3903017
2.488,17.494436,7.6499476,4.2181764,-1.8770527,-7.0789104,-4.3568234
2.49,17.273956,7.624521,4.112938,-1.7959541,-6.941237,-4.3239584
2.492,17.055391,7.600397,4.0086884,-1.7134151,-6.8030167,-4.2917113
2.494,16.839922,7.577311,3.9048977,-1.629508,-6.6641755,-4.2600355
2.496,16.627502,7.5549793,3.8011904,-1.5442611,-6.52461,-4.2288423
2.498,16.41842,7.533369,3.696901,-1.4576555,-6.3841815,-4.1980157
2.5,16.212927,7.5123343,3.591774,-1.3696455,-6.2427545,-4.16741
2.502,16.011242,7.4918237,3.485076,-1.2801864,-6.1002307,-4.13688
2.504,15.8137455,7.4719634,3.3764534,-1.1892331,-5.956544,-4.1062527
2.506,15.620524,7.452856,3.2653785,-1.0967687,-5.811688,-4.0753446
2.508,15.431891,7.434486,3.1515303,-1.0028055,-5.665746,-4.04398
2.51,15.248014,7.417035,3.0346396,-0.9073987,-5.5188904,-4.011985
2.512,15.069017,7.400817,2.9144442,-0.81066155,-5.371364,-3.9792118
2.514,14.895089,7.386016,2.7907586,-0.71275127,-5.2235217,-3.945526
2.516,14.726353,7.372934,2.663575,-0.61386216,-5.075801,-3.9108305
2.518,14.562887,7.3619537,2.532795,-0.51422143,-4.928693,-3.8750985
2.52,14.404957,7.3531284,2.3983927,-0.4140836,-4.7827287,-3.8383627
2.522,14.252685,7.3467255,2.260581,-0.3137102,-4.6384463,-3.8007193
2.524,14.106122,7.3430004,2.119535,-0.21337295,-4.496365,-3.7623334
2.526,13.965292,7.342071,1.9752814,-0.113322854,-4.356951,-3.7234209
2.528,13.830478,7.343935,1.8281398,-0.013794661,-4.2206,-3.6842442
2.53,13.701668,7.3487015,1.6784722,0.08499718,-4.087639,-3.64507
2.532,13.578821,7.3562927,1.526494,0.18287688,-3.9583054,-3.6061556
2.534,13.461986,7.3667774,1.3725488,0.27969396,-3.8327613,-3.5677304
2.536,13.351194,7.3799663,1.2170436,0.3753339,-3.7110908,-3.5299778
2.538,13.246239,7.395774,1.0602112,0.46968943,-3.5933325,-3.4930272
2.54,13.14715,7.414136,0.9023226,0.5626793,-3.4794917,-3.4569402
2.542,13.053839,7.434821,0.7437437,0.6542395,-3.369554,-3.4217415
2.544,12.966065,7.457857,0.584695,0.74429494,-3.2635252,-3.3874161
2.546,12.883721,7.4829473,0.42556947,0.8327768,-3.1614375,-3.3539114
2.548,12.80661,7.5100417,0.2666219,0.91961277,-3.0633364,-3.3211641
2.55,12.734589,7.5390434,0.1080209,1.0047344,-2.9693108,-3.2890885
2.552,12.66767,7.5697045,-0.049885213,1.0880637,-2.8794909,-3.2576196
2.554,12.605702,7.601898,-0.20699036,1.1695443,-2.7940545,-3.226683
2.556,12.548574,7.635543,-0.36310387,1.2491131,-2.7131958,-3.196198
2.558,12.495962,7.670519,-0.517925,1.3267388,-2.6371334,-3.1661303
2.56,12.44789,7.7066717,-0.6713505,1.4023825,-2.5660844,-3.136456
2.562,12.404072,7.743911,-0.8231517,1.4760253,-2.5002594,-3.1071606
2.564,12.3643,7.782316,-0.9732146,1.5476582,-2.4398317,-3.0782595
2.566,12.328596,7.8216286,-1.1213473,1.6172881,-2.3849382,-3.049768
2.568,12.296723,7.8618126,-1.2672566,1.6849358,-2.3356647,-3.021714
2.57,12.268478,7.9028425,-1.4108119,1.7506071,-2.292029,-2.994146
2.572,12.243852,7.9445257,-1.5517626,1.8143246,-2.2539976,-2.9671063
2.574,12.2226715,7.986854,-1.6898984,1.8761008,-2.2214813,-2.9406426
2.576,12.204724,8.029676,-1.8250824,1.93595,-2.1943278,-2.9148004
2.578,12.190054,8.072818,-1.9571964,1.9938993,-2.1723704,-2.8896234
2.58,12.178226,8.11604,-2.0860226,2.0499716,-2.1554074,-2.86512
2.582,12.169243,8.159283,-2.2116256,2.1042075,-2.1432261,-2.8412828
2.584,12.162811,8.202509,-2.3337965,2.1566613,-2.135617,-2.818096
2.586,12.158705,8.245478,-2.4524815,2.207419,-2.1323807,-2.795525
2.588,12.15687,8.2880745,-2.5676928,2.2565794,-2.1333368,-2.7735147
2.59,12.1571,8.330177,-2.6793427,2.3042665,-2.1383238,-2.751987
2.592,12.159243,8.371689,-2.7874973,2.3506126,-2.1471958,-2.7308757
2.594,12.163046,8.412452,-2.8920963,2.3957756,-2.1598141,-2.7101138
2.596,12.1685295,8.452429,-2.9931953,2.4399,-2.1760612,-2.6896563
2.598,12.175448,8.491566,-3.0906713,2.4831538,-2.1958065,-2.6694605
2.6,12.183687,8.529618,-3.184626,2.5256727,-2.2189155,-2.649503
2.602,12.193196,8.566584,-3.275041,2.5675726,-2.2452707,-2.6297898
2.604,12.203815,8.602281,-3.3619847,2.6089525,-2.2747405,-2.6103354
2.606,12.21547,8.63683,-3.4454446,2.649874,-2.307187,-2.5911582
2.608,12.228233,8.670078,-3.5254586,2.6903658,-2.3424702,-2.5722888
2.61,12.242031,8.702028,-3.6020734,2.7304382,-2.3804805,-2.5537615
2.612,12.256691,8.732697,-3.6753714,2.770064,-2.42111,-2.5355873
2.614,12.272286,8.76203,-3.7453825,2.809215,-2.4642782,-2.5177877
2.616,12.288842,8.789971,-3.8121023,2.84785,-2.509923,-2.500387
2.618,12.306317,8.8166895,-3.8754747,2.8859334,-2.5580058,-2.4833746
2.62,12.324573,8.842317,-3.935483,2.9234314,-2.6085029,-2.466742
2.622,12.343612,8.866759,-3.9921045,2.9603348,-2.6613946,-2.4504883
2.624,12.363483,8.890163,-4.045189,2.9966557,-2.7166662,-2.4345934
2.626,12.384115,8.9126215,-4.094865,3.0323977,-2.7742949,-2.419043
2.628,12.405483,8.934135,-4.140964,3.0675983,-2.8342369,-2.4038498
2.63,12.427488,8.954993,-4.1833158,3.1023064,-2.89643,-2.3890247
2.632,12.450132,8.975311,-4.2219477,3.1365647,-2.9607668,-2.3745928
2.634,12.473252,8.995178,-4.256544,3.170435,-3.0271251,-2.3605928
2.636,12.496755,9.014917,-4.287112,3.203989,-3.095352,-2.3470578
2.638,12.520425,9.0347395,-4.3134813,3.237287,-3.1652617,-2.3339944
2.64,12.544035,9.054918,-4.3354797,3.270401,-3.2366393,-2.3213985
2.642,12.567597,9.075602,-4.3528867,3.3033867,-3.3092632,-2.3092582
2.644,12.590945,9.097051,-4.365512,3.3363159,-3.3828886,-2.2975175
2.646,12.613726,9.119518,-4.3732233,3.3692396,-3.4572778,-2.2861097
2.648,12.635846,9.143229,-4.375768,3.4022083,-3.5321703,-2.2749557
2.65,12.65703,9.168371,-4.3728967,3.4352546,-3.6073103,-2.2639499
2.652,12.677021,9.195136,-4.364379,3.4684043,-3.682449,-2.2529957
2.654,12.6955805,9.22375,-4.3499727,3.5016847,-3.7573423,-2.2419915
2.656,12.712361,9.254445,-4.329523,3.5351264,-3.8317451,-2.2308366
2.658,12.727109,9.2873955,-4.302746,3.568759,-3.9054294,-2.219456
2.66,12.73956,9.322683,-4.269222,3.6026292,-3.978168,-2.2077892
2.662,12.749412,9.360614,-4.228683,3.636814,-4.049733,-2.195791
2.664,12.75634,9.40127,-4.180784,3.6714115,-4.1198797,-2.1834395
2.666,12.7600765,9.444712,-4.1250696,3.7065423,-4.1883874,-2.1707196
2.668,12.760392,9.491055,-4.061226,3.7423697,-4.2550025,-2.1576068
2.67,12.75684,9.54033,-3.988856,3.7790632,-4.3194556,-2.1440594
2.672,12.749309,9.59261,-3.9074917,3.816807,-4.381471,-2.1300266
2.674,12.737499,9.647755,-3.816795,3.8557837,-4.4407444,-2.1154227
2.676,12.720924,9.705804,-3.716273,3.8961565,-4.4969654,-2.100116
2.678,12.699271,9.766664,-3.605484,3.9380512,-4.549821,-2.083958
2.68,12.6724,9.830067,-3.484065,3.9815526,-4.5990014,-2.0667713
2.682,12.6399555,9.895939,-3.3517094,4.026678,-4.644195,-2.048379
2.684,12.60169,9.963971,-3.208077,4.073411,-4.6850963,-2.0286224
2.686,12.5575285,10.03374,-3.0528827,4.121667,-4.721409,-2.0073857
2.688,12.50709,10.104875,-2.8859208,4.1713367,-4.7528234,-1.9845755
2.69,12.450392,10.176953,-2.7070508,4.22228,-4.7790627,-1.9601582
2.692,12.386939,10.24952,-2.516344,4.274364,-4.7998443,-1.9341254
2.694,12.316704,10.3219795,-2.3137622,4.327454,-4.814888,-1.9064913
2.696,12.239504,10.393894,-2.0994513,4.3814626,-4.8239155,-1.8772515
2.698,12.155197,10.464678,-1.8735521,4.436312,-4.8266706,-1.8464149
2.7,12.063623,10.533837,-1.6363645,4.4919734,-4.822895,-1.8139181
2.702,11.964845,10.600612,-1.388251,4.5484324,-4.8123527,-1.7796689
2.704,11.858809,10.664415,-1.1298349,4.6057086,-4.7948503,-1.7435468
2.706,11.745715,10.724447,-0.86160797,4.6638165,-4.7702174,-1.705392
2.708,11.625511,10.779955,-0.5843374,4.722794,-4.738304,-1.665008
2.71,11.498432,10.830249,-0.2988076,4.7826657,-4.698976,-1.622219
2.712,11.364413,10.874603,-0.00583246,4.843447,-4.652134,-1.5768615
2.714,11.223857,10.912284,0.29360557,4.9051366,-4.59771,-1.5288033
2.716,11.076975,10.942515,0.5985185,4.9676948,-4.535661,-1.4779643
2.718,10.924042,10.964654,0.9077588,5.031068,-4.4659696,-1.4242944
2.72,10.76556,10.977912,1.2201626,5.0951657,-4.388613,-1.3677913
2.722,10.602064,10.981557,1.5345843,5.159889,-4.3036075,-1.3084743
2.724,10.433886,10.97483,1.8495922,5.2251143,-4.2109685,-1.2464108
2.726,10.261526,10.957249,2.1638973,5.290696,-4.110723,-1.1816607
2.728,10.085623,10.928187,2.476013,5.3564596,-4.002919,-1.1142838
2.73,9.906881,10.88698,2.7845423,5.4222,-3.8876152,-1.0443206
2.732,9.725964,10.833256,3.0879288,5.487692,-3.764917,-0.9717967
2.734,9.543556,10.766563,3.3846831,5.5526605,-3.6349678,-0.896726
2.736,9.36061,10.686284,3.673395,5.616804,-3.4979954,-0.8190775
2.738,9.177981,10.59213,3.9524071,5.6797705,-3.3542852,-0.7388061
2.74,8.9965515,10.483706,4.220276,5.741209,-3.2042172,-0.65586936
2.742,8.816927,10.360908,4.47564,5.8007345,-3.0482454,-0.57025766
2.744,8.639936,10.223768,4.71693,5.857956,-2.8868718,-0.48197782
2.746,8.466223,10.072418,4.9429746,5.9124928,-2.7206764,-0.39109972
2.748,8.296715,9.907045,5.1524076,5.963996,-2.550277,-0.29774848
2.75,8.132175,9.727851,5.3440423,6.012147,-2.3762865,-0.20211196
2.752,7.9731293,9.535472,5.5168743,6.056695,-2.1993217,-0.10439655
2.754,7.820293,9.330385,5.6699033,6.0974407,-2.0199971,-0.0048567653
2.756,7.6743298,9.113335,5.802395,6.134244,-1.8388968,0.09624663
2.758,7.5354953,8.885187,5.913753,6.1670256,-1.6565688,0.19865498
2.76,7.4042926,8.646988,6.003511,6.1957493,-1.4735558,0.30212128
2.762,7.28102,8.399759,6.071383,6.2203884,-1.2903874,0.406402
2.764,7.1658015,8.14477,6.1172123,6.240943,-1.1075625,0.51129395
2.766,7.0584755,7.8834696,6.1411004,6.257412,-0.9255302,0.6166191
2.768,6.958938,7.617431,6.143253,6.269791,-0.7446959,0.72223246
2.77,6.866925,7.348319,6.1239595,6.278088,-0.56540084,0.8280153
2.772,6.7819977,7.07784,6.0837016,6.282283,-0.38791466,0.9338858
2.774,6.703628,6.807899,6.0230765,6.28238,-0.21241832,1.0397785
2.776,6.6310697,6.5405254,5.942794,6.278383,-0.038975477,1.1456785
2.778,6.563543,6.2776923,5.843891,6.2703476,0.13246632,1.2516501
2.78,6.500178,6.021415,5.727252,6.2583685,0.30205774,1.3578085
2.782,6.439782,5.7737303,5.593863,6.2425985,0.47006035,1.4643291
2.784,6.3812065,5.5367255,5.445088,6.2232456,0.6368022,1.5714626
2.786,6.323409,5.3121886,5.281938,6.2005424,0.8026321,1.67951
2.788,6.265268,5.101897,5.1058025,6.1747346,0.96788955,1.7887775
2.79,6.2053766,4.9076295,4.9180627,6.1460485,1.1328428,1.899528
2.792,6.14251,4.7308955,4.7202435,6.114664,1.2976437,2.0119781
2.794,6.075366,4.573144,4.513895,6.0806828,1.462265,2.1262183
2.796,6.0026484,4.435601,4.30043,6.0441074,1.6264496,2.2421966
2.798,5.9232917,4.319173,4.0813885,6.004843,1.7897222,2.3596752
2.8,5.836345,4.224478,3.8582711,5.9626846,1.9514232,2.4782844
2.802,5.7411213,4.151925,3.632653,5.9173346,2.1106935,2.5975065
2.804,5.636669,4.101676,3.4061925,5.8683953,2.2665246,2.7167068
2.806,5.522207,4.073625,3.180241,5.815429,2.417845,2.835189
2.808,5.3971252,4.067465,2.956222,5.7579656,2.5635796,2.952247
2.81,5.2612057,4.082436,2.7355318,5.6955366,2.7026725,3.0671823
2.812,5.114076,4.11769,2.519492,5.627683,2.8341553,3.1793387
2.814,4.95613,4.171812,2.30927,5.5540013,2.9571753,3.2880924
2.816,4.788326,4.2430334,2.1054523,5.4741583,3.0709884,3.3928714
2.818,4.6100516,4.3301287,1.9099629,5.3878803,3.1749492,3.493156
2.82,4.420739,4.4318,1.7244419,5.2949824,3.2685118,3.5884395
2.822,4.221389,4.5460224,1.5495046,5.195382,3.3512325,3.6782374
2.824,4.012869,4.670589,1.3859179,5.0890846,3.4227273,3.762106
2.826,3.7955196,4.8036423,1.2348464,4.9761925,3.482668,3.839638
2.828,3.5697465,4.9431877,1.0972444,4.85693,3.5308285,3.9105198
2.83,3.336353,5.0872016,0.97366756,4.7316036,3.567029,3.9744906
2.832,3.0959942,5.233754,0.86467314,4.600588,3.5911222,4.031358
2.834,2.8494654,5.380985,0.7710043,4.464312,3.6030302,4.0810328
2.836,2.5978198,5.526853,0.6928469,4.3232574,3.602789,4.1235237
2.838,2.3414931,5.6697283,0.63075554,4.1779523,3.5905807,4.1589074
2.84,2.0813794,5.8083425,0.58484125,4.028941,3.5667124,4.187354
2.842,1.8181314,5.9411907,0.55532455,3.8767982,3.5316553,4.209148
2.844,1.5522404,6.0673122,0.5422026,3.7220867,3.4859457,4.224638
2.846,1.2842587,6.186066,0.54546094,3.5653803,3.430058,4.234289
2.848,1.0146956,6.2966433,0.5650847,3.4072113,3.364521,4.2386255
2.85,0.74401224,6.398592,0.60056496,3.2481704,3.2900994,4.238148
2.852,0.4727708,6.4915314,0.6515291,3.0889301,3.2076175,4.233394
2.854,0.20130992,6.5751066,0.7173066,2.9301066,3.1177256,4.2248826
2.856,-0.06997979,6.649172,0.7970965,2.7723265,3.0210493,4.213112
2.858,-0.3411454,6.7139835,0.88989115,2.6162767,2.918252,4.1985326
2.86,-0.61196285,6.7697554,0.9945445,2.4626577,2.8100326,4.181531
2.862,-0.88229525,6.816923,1.109551,2.312203,2.6971858,4.162401
2.864,-1.1521437,6.855958,1.2332468,2.1656487,2.5806952,4.141404
2.866,-1.4214542,6.8874598,1.3637321,2.0237885,2.4617682,4.118775
2.868,-1.6900285,6.911949,1.4989681,1.8873596,2.3419068,4.09466
2.87,-1.9579879,6.9301305,1.6367245,1.7570195,2.2229238,4.0690536
2.872,-2.225061,6.942795,1.7745845,1.6334018,2.1069036,4.0419664
2.874,-2.4910994,6.9505243,1.9102795,1.5170219,1.996066,4.013413
2.876,-2.755916,6.9540734,2.0413842,1.4082413,1.8926675,3.9833615
2.878,-3.0194087,6.9541025,2.1656544,1.307241,1.7988203,3.9517787
2.88,-3.281348,6.951333,2.2808115,1.2140353,1.7163328,3.9186943
2.882,-3.5415869,6.9465256,2.384864,1.1284336,1.6464903,3.8842332
2.884,-3.799772,6.9403,2.4758945,1.0501126,1.5900457,3.8486352
2.886,-4.0555363,6.933302,2.5522938,0.97865796,1.5471544,3.8122559
2.888,-4.308621,6.9261675,2.612568,0.9135773,1.5173622,3.7755299
2.89,-4.558524,6.9194727,2.65574,0.8543385,1.4996519,3.7389266
2.892,-4.8048606,6.9136477,2.681213,0.8003912,1.492625,3.7029152
2.894,-5.047247,6.9091883,2.6885042,0.7512169,1.4946619,3.6678615
2.896,-5.285295,6.9065323,2.6776762,0.70633316,1.5040897,3.6340137
2.898,-5.5187187,6.9059305,2.6489289,0.66529953,1.5193927,3.6014638
2.9,-5.74722,6.907653,2.6029098,0.6277095,1.5393467,3.5701342
2.902,-5.9703293,6.9116955,2.5405326,0.5932026,1.5629158,3.539856
2.904,-6.187642,6.918068,2.4627585,0.56137645,1.5891875,3.5104318
2.906,-6.3987,6.9266796,2.3709831,0.5318175,1.6175939,3.481571
2.908,-6.6032615,6.93734,2.2666621,0.5042256,1.6479857,3.4529803
2.91,-6.8012314,6.9498863,2.1513839,0.4782816,1.6803409,3.4244118
2.912,-6.992342,6.96397,2.0267024,0.45365357,1.714648,3.3956919
2.914,-7.176287,6.9792786,1.8940153,0.43001994,1.7508991,3.3666964
2.916,-7.3528934,6.99534,1.7551894,0.40706676,1.7890556,3.3373911
2.918,-7.521811,7.011718,1.6116564,0.38452476,1.8290007,3.307747
2.92,-7.683037,7.028026,1.4648509,0.36208206,1.8705363,3.2777407
2.922,-7.8365726,7.0439544,1.3161032,0.33949676,1.913378,3.2474086
2.924,-7.9825354,7.059361,1.1668773,0.31657237,1.9571856,3.2168288
2.926,-8.121843,7.0741987,1.0185041,0.29307348,2.001588,3.1859589
2.928,-8.252854,7.087783,0.8711121,0.26880795,2.0462415,3.15474
2.93,-8.375008,7.0995502,0.7248292,0.24363211,2.090837,3.12314
2.932,-8.488973,7.109668,0.5810487,0.21744433,2.1351113,3.0911083
2.934,-8.595163,7.118191,0.44036746,0.19016382,2.178858,3.058568
2.936,-8.693178,7.125161,0.3028679,0.1617499,2.2219546,3.0254116
2.938,-8.782897,7.130602,0.16882873,0.13217919,2.2643166,2.9915507
2.94,-8.864572,7.1347184,0.03861499,0.10145715,2.3059154,2.9568906
2.942,-8.938176,7.137892,-0.08774662,0.06960352,2.3467765,2.9213598
2.944,-9.00379,7.140445,-0.21042418,0.0366695,2.3869374,2.8849099
2.946,-9.06165,7.1428633,-0.3292942,0.002738167,2.4264717,2.8475394
2.948,-9.111507,7.1453733,-0.44475842,-0.032115012,2.4654505,2.809256
2.95,-9.153629,7.148309,-0.5569763,-0.06779132,2.503929,2.7700853
2.952,-9.187938,7.152359,-0.66625977,-0.104186766,2.541928,2.7300868
2.954,-9.214426,7.1578684,-0.77307725,-0.1411902,2.5794744,2.6893086
2.956,-9.2333,7.1653314,-0.8777745,-0.17867857,2.6165724,2.647832
2.958,-9.244566,7.1753535,-0.98080945,-0.21651492,2.6532094,2.60572
2.96,-9.248337,7.188428,-1.082521,-0.25456864,2.6893187,2.5630436
2.962,-9.244652,7.2051487,-1.1833136,-0.29273257,2.7248175,2.5198438
2.964,-9.233682,7.226054,-1.2834079,-0.33088252,2.7596335,2.4761815
2.966,-9.215523,7.2515917,-1.3831341,-0.36889732,2.7937217,2.432107
2.968,-9.1902485,7.2821903,-1.4826863,-0.4066819,2.827041,2.3876798
2.97,-9.1580105,7.318174,-1.5822649,-0.4441297,2.859591,2.3429196
2.972,-9.118875,7.359702,-1.6820061,-0.4811725,2.8914025,2.2978354
2.974,-9.073071,7.4070225,-1.7818362,-0.51773316,2.922533,2.2524402
2.976,-9.020521,7.4602175,-1.8817188,-0.5537815,2.9530478,2.2067306
2.978,-8.961456,7.519388,-1.9816923,-0.5893082,2.982995,2.1606958
2.98,-8.895875,7.5844083,-2.0815225,-0.62432194,3.0123985,2.1143203
2.982,-8.823954,7.655141,-2.1809728,-0.6588745,3.0412166,2.067578
2.984,-8.745783,7.7313404,-2.2799282,-0.6930379,3.0693235,2.020436
2.986,-8.66117,7.812585,-2.378189,-0.7268986,3.096557,1.9728602
2.988,-8.570323,7.8986073,-2.4756231,-0.76055956,3.122685,1.9247923
2.99,-8.473194,7.988844,-2.5719278,-0.7941261,3.1474366,1.8762
2.992,-8.369752,8.082817,-2.6669369,-0.82770014,3.170515,1.8270454
2.994,-8.260102,8.180035,-2.7603164,-0.861362,3.1916327,1.7773058
2.996,-8.144275,8.279824,-2.8519325,-0.8951695,3.2105215,1.7269707
2.998,-8.02241,8.381682,-2.9415019,-0.9291753,3.2269588,1.6760257
3,-7.8947644,8.484984,-3.028779,-0.96339476,3.2407668,1.6244664
3.002,-7.76138,8.58914,-3.1136212,-0.9978157,3.2518456,1.5723116
3.004,-7.6224656,8.693544,-3.1958232,-1.032427,3.260181,1.5195794
3.006,-7.478267,8.797739,-3.2752762,-1.0671934,3.2658234,1.466278
3.008,-7.329022,8.901197,-3.3519413,-1.1020688,3.2688718,1.4124174
3.01,-7.175001,9.003408,-3.4256392,-1.1370032,3.2694933,1.3580091
3.012,-7.0167246,9.104132,-3.4964807,-1.1719514,3.2678974,1.3030643
3.014,-6.854539,9.203121,-3.5645094,-1.2068429,3.2643902,1.247618
3.016,-6.688858,9.300065,-3.629776,-1.2415969,3.2592843,1.1916904
3.018,-6.5201235,9.394859,-3.6924574,-1.2761481,3.2528973,1.1353023
3.02,-6.3485427,9.487342,-3.7527585,-1.3104353,3.2455487,1.0784886
3.022,-6.1746507,9.577415,-3.811027,-1.3443694,3.2375598,1.0212979
3.024,-5.9987316,9.665081,-3.8675232,-1.3778851,3.2292178,0.96381116
3.026,-5.821148,9.750386,-3.922695,-1.4109106,3.2207913,0.90610605
3.028,-5.6424236,9.833429,-3.9767787,-1.4433678,3.2125053,0.84826666
3.03,-5.4628115,9.914433,-4.030143,-1.4751797,3.2045443,0.7903878
3.032,-5.282573,9.993476,-4.083169,-1.5062916,3.1970367,0.7325573
3.034,-5.1020803,10.070751,-4.1363735,-1.5366392,3.190046,0.6748713
3.036,-4.921141,10.146334,-4.1899843,-1.5661682,3.183566,0.6174171
3.038,-4.740369,10.220396,-4.2442675,-1.5948446,3.177527,0.5602744
3.04,-4.5598125,10.293159,-4.299239,-1.6226435,3.1717935,0.5035024
3.042,-4.3796086,10.364779,-4.3553247,-1.6495532,3.1662018,0.44714373
3.044,-4.1998425,10.435478,-4.412505,-1.6755819,3.1605484,0.3912264
3.046,-4.020563,10.505192,-4.4708896,-1.7007456,3.154632,0.33576262
3.048,-3.841667,10.574035,-4.5304966,-1.7250948,3.1482606,0.2807647
3.05,-3.6632676,10.642333,-4.5913277,-1.7486805,3.1412573,0.22624213
3.052,-3.4853287,10.709845,-4.6530704,-1.7715788,3.133492,0.17221904
3.054,-3.3076658,10.776733,-4.715534,-1.7938644,3.1248865,0.11871934
3.056,-3.1303213,10.843058,-4.7785606,-1.8156111,3.1153924,0.065773666
3.058,-2.9531887,10.908739,-4.8418016,-1.836909,3.1049938,0.013422549
3.06,-2.7761934,10.973738,-4.904905,-1.8578365,3.0937045,-0.038276255
3.062,-2.59907,11.037924,-4.9675145,-1.8784666,3.081546,-0.08925867
3.064,-2.4218197,11.1011715,-5.02925,-1.8988745,3.0685625,-0.13947576
3.066,-2.2443662,11.16338,-5.0898247,-1.9191287,3.054782,-0.18889302
3.068,-2.0665166,11.22451,-5.1489077,-1.9392946,3.040227,-0.23748356
3.07,-1.8882315,11.28429,-5.206089,-1.9594419,3.0249283,-0.28523606
3.072,-1.7095461,11.342567,-5.2610054,-1.9796188,3.0089204,-0.33216304
3.074,-1.530251,11.39929,-5.3134737,-1.9998761,2.9922295,-0.3782918
3.076,-1.3505421,11.454311,-5.3630996,-2.0202668,2.9748855,-0.42365694
3.078,-1.1702247,11.507326,-5.409732,-2.0408216,2.956922,-0.46830505
3.08,-0.9893818,11.558392,-5.4531794,-2.0615678,2.9383702,-0.51227206
3.082,-0.80813694,11.607295,-5.4932775,-2.0825253,2.9192877,-0.5555937
3.084,-0.626503,11.653866,-5.5298357,-2.103681,2.8997233,-0.5982974
3.086,-0.4446869,11.697987,-5.5628405,-2.1250224,2.8797495,-0.6403943
3.088,-0.26265335,11.739534,-5.592154,-2.1465147,2.8594728,-0.6818924
3.09,-0.080685616,11.778446,-5.617901,-2.1681027,2.8389945,-0.72277784
3.092,0.101092815,11.814636,-5.640156,-2.189713,2.8184366,-0.7630271
3.094,0.28252935,11.848067,-5.658841,-2.2112825,2.7979107,-0.80260646
3.096,0.4632373,11.878715,-5.674021,-2.2327049,2.7775474,-0.8414623
3.098,0.6432705,11.906473,-5.685785,-2.2538943,2.757481,-0.8795466
3.1,0.8223419,11.931445,-5.694238,-2.2747412,2.7378397,-0.91681534
3.102,1.0000253,11.953695,-5.6994267,-2.295125,2.7187436,-0.95321417
3.104,1.176286,11.973279,-5.701521,-2.314943,2.7003279,-0.98870623
3.106,1.3506191,11.990373,-5.7005644,-2.3340855,2.6827106,-1.0232563
3.108,1.523087,12.005033,-5.696729,-2.3524668,2.665992,-1.0568347
3.11,1.6934068,12.01758,-5.6901946,-2.3699892,2.6502814,-1.0894064
3.112,1.8613372,12.028234,-5.6810565,-2.386567,2.6356764,-1.1209457
3.114,2.026694,12.037159,-5.6694546,-2.4021351,2.6222749,-1.1514431
3.116,2.1894007,12.044516,-5.6554246,-2.4166408,2.610155,-1.1808891
3.118,2.3491573,12.050696,-5.639104,-2.4300346,2.5993748,-1.2092736
3.12,2.506038,12.055794,-5.6207333,-2.4422827,2.5899777,-1.236583
3.122,2.6598792,12.06011,-5.600296,-2.45337,2.581973,-1.2628262
3.124,2.8105936,12.063859,-5.577899,-2.463291,2.575329,-1.2880065
3.126,2.958019,12.067244,-5.5536747,-2.4720669,2.5699868,-1.3121526
3.128,3.1022794,12.070407,-5.5277557,-2.4797301,2.565859,-1.3353013
3.13,3.2431734,12.0735235,-5.5002456,-2.4863353,2.5628352,-1.3575003
3.132,3.3808882,12.076704,-5.4711833,-2.491955,2.5607753,-1.3788183
3.134,3.515445,12.08009,-5.4407706,-2.496692,2.5595489,-1.399341
3.136,3.6469722,12.0837345,-5.409196,-2.5006545,2.5590334,-1.4191598
3.138,3.7755194,12.087648,-5.376649,-2.5039663,2.559145,-1.4383636
3.14,3.9011621,12.091792,-5.3432875,-2.5067313,2.5598226,-1.4570317
3.142,4.024216,12.096257,-5.309289,-2.5090647,2.5610332,-1.4752245
3.144,4.144865,12.100799,-5.2748933,-2.5110455,2.5628138,-1.4929779
3.146,4.2631855,12.105454,-5.2402596,-2.512725,2.56523,-1.5102979
3.148,4.379531,12.110066,-5.205714,-2.5141149,2.5683625,-1.5271723
3.15,4.494064,12.1145525,-5.171486,-2.5152168,2.5723093,-1.5435611
3.152,4.6070476,12.118738,-5.1377788,-2.5159774,2.5771594,-1.5594105
3.154,4.718613,12.12254,-5.1049986,-2.5163305,2.5829844,-1.5746462
3.156,4.829082,12.12585,-5.0731916,-2.516213,2.5898232,-1.5892165
3.158,4.938474,12.128532,-5.0426235,-2.5155315,2.5976727,-1.6030667
3.16,5.047159,12.13027,-5.0135665,-2.5142093,2.6064968,-1.61616
3.162,5.155277,12.131153,-4.986229,-2.5121865,2.616225,-1.628489
3.164,5.2628274,12.131052,-4.960799,-2.5094218,2.6267486,-1.6400535
3.166,5.3699136,12.129794,-4.937395,-2.5058959,2.6379447,-1.6508679
3.168,5.4766717,12.127466,-4.916109,-2.5016024,2.6496673,-1.6609486
3.17,5.583147,12.123905,-4.897025,-2.4965625,2.6617827,-1.6703217
3.172,5.6892295,12.119107,-4.880253,-2.4908214,2.6741567,-1.6790127
3.174,5.7948966,12.113204,-4.865716,-2.484426,2.6866622,-1.6870589
3.176,5.9002156,12.106129,-4.853431,-2.4774365,2.699208,-1.694478
3.178,6.004915,12.097883,-4.8432865,-2.4699268,2.7117035,-1.7012923
3.18,6.1090665,12.088565,-4.8352222,-2.4619646,2.724074,-1.7075098
3.182,6.21248,12.078339,-4.829046,-2.4536214,2.7362702,-1.7131299
3.184,6.314952,12.067187,-4.8246,-2.444965,2.748235,-1.7181587
3.186,6.4164824,12.055191,-4.8217278,-2.4360447,2.7599328,-1.7225821
3.188,6.516751,12.042583,-4.8201523,-2.426914,2.7713213,-1.7263794
3.19,6.615715,12.029407,-4.819646,-2.4176202,2.7823403,-1.7295474
3.192,6.7132316,12.015863,-4.819945,-2.4081895,2.7929273,-1.7320678
3.194,6.809201,12.002049,-4.820924,-2.3986516,2.8030162,-1.7339251
3.196,6.903554,11.988107,-4.822214,-2.3890169,2.8125365,-1.7351128
3.198,6.9961934,11.9741,-4.8236446,-2.3792987,2.8213992,-1.7356422
3.2,7.0871296,11.960076,-4.8248787,-2.3695004,2.8295336,-1.735537
3.202,7.176203,11.94614,-4.8256836,-2.3596382,2.8368728,-1.7348183
3.204,7.2634573,11.93239,-4.8259478,-2.349712,2.843355,-1.7335255
3.206,7.3489227,11.918779,-4.8254366,-2.3397422,2.848927,-1.73171
3.208,7.4324055,11.905277,-4.824009,-2.3297548,2.8535593,-1.729422
3.21,7.513917,11.891797,-4.821468,-2.319771,2.8572397,-1.7267098
3.212,7.593652,11.878192,-4.8177624,-2.3098207,2.8599563,-1.7236154
3.214,7.6714783,11.864374,-4.812806,-2.2999423,2.861711,-1.7201792
3.216,7.7476034,11.850184,-4.8064165,-2.2901583,2.8625336,-1.7164414
3.218,7.821752,11.835462,-4.798611,-2.2805054,2.8624408,-1.712446
3.22,7.8941474,11.819962,-4.7894096,-2.2710059,2.8614452,-1.7082502
3.222,7.9645925,11.803448,-4.778789,-2.2616925,2.8595667,-1.7039055
3.224,8.033235,11.785681,-4.7667994,-2.2525973,2.8568053,-1.6994759
3.226,8.099915,11.766504,-4.753539,-2.243729,2.8531718,-1.6950266
3.228,8.164791,11.745626,-4.7389455,-2.2351222,2.8486638,-1.6906093
3.23,8.227564,11.722881,-4.7231903,-2.2268019,2.8432493,-1.6862904
3.232,8.288446,11.698075,-4.7063003,-2.2187881,2.8369026,-1.6821215
3.234,8.347211,11.670963,-4.6883383,-2.2111201,2.8295684,-1.6781449
3.236,8.40409,11.641545,-4.669387,-2.2038338,2.821186,-1.6743807
3.238,8.458885,11.609674,-4.6494102,-2.196968,2.811685,-1.6708357
3.24,8.511711,11.575305,-4.6285563,-2.190588,2.8009794,-1.6675049
3.242,8.562418,11.538483,-4.6068497,-2.184733,2.7889693,-1.664368
3.244,8.610963,11.499231,-4.584293,-2.1794577,2.7755752,-1.6613803
3.246,8.657424,11.4576845,-4.5608487,-2.1748173,2.7607186,-1.6584998
3.248,8.701962,11.414021,-4.536539,-2.1708527,2.7443323,-1.655672
3.25,8.74456,11.368462,-4.51134,-2.1675878,2.7263792,-1.6528203
3.252,8.785234,11.321124,-4.4852924,-2.1650302,2.7068536,-1.6498575
3.254,8.824044,11.272457,-4.458276,-2.1631653,2.6857681,-1.6466868
3.256,8.861143,11.222711,-4.4302616,-2.161953,2.6631715,-1.6432204
3.258,8.89657,11.172233,-4.4012117,-2.161341,2.6391444,-1.6393583
3.26,8.929625,11.122369,-4.37209,-2.1612473,2.6137867,-1.6350024
3.262,8.961127,11.072684,-4.3421717,-2.1615646,2.5872042,-1.6300532
3.264,8.9911785,11.023553,-4.3114214,-2.1621766,2.5595303,-1.6244366
3.266,9.019801,10.975324,-4.2800274,-2.1629593,2.5309038,-1.6180899
3.268,9.047162,10.928328,-4.2480307,-2.1637816,2.5014582,-1.6109765
3.27,9.073287,10.882903,-4.2154255,-2.164528,2.4713223,-1.6030748
3.272,9.098248,10.839286,-4.182432,-2.1650708,2.440635,-1.5944005
3.274,9.122149,10.797619,-4.1491375,-2.1653142,2.4095354,-1.5849893
3.276,9.145114,10.758135,-4.1156945,-2.165175,2.3781486,-1.5748988
3.278,9.167106,10.720899,-4.0822735,-2.164596,2.346608,-1.5642052
3.28,9.188166,10.686073,-4.04901,-2.1635308,2.3150263,-1.5529895
3.282,9.2083435,10.653624,-4.016041,-2.1619513,2.2835093,-1.5413411
3.284,9.227742,10.623477,-3.983553,-2.159856,2.252174,-1.5293486
3.286,9.246336,10.595627,-3.9516397,-2.1572363,2.2211065,-1.51709
3.288,9.264162,10.570003,-3.9204674,-2.1543136,2.1913798,-1.5050871
3.29,9.281177,10.546568,-3.8901482,-2.1510315,2.1625686,-1.4931967
3.292,9.297504,10.525071,-3.860869,-2.1474626,2.134895,-1.4815525
3.294,9.313137,10.505458,-3.8325963,-2.1436882,2.1085713,-1.4702905
3.296,9.328011,10.487634,-3.8054285,-2.1397998,2.0838015,-1.4595342
3.298,9.342217,10.471371,-3.7794256,-2.135886,2.0607378,-1.4493936
3.3,9.355702,10.456533,-3.7545867,-2.1320286,2.0394893,-1.4399469
3.302,9.368606,10.44295,-3.7309103,-2.128294,2.0201135,-1.4312471
3.304,9.380896,10.430583,-3.7084103,-2.1247463,2.0026002,-1.4233181
3.306,9.392525,10.419228,-3.6871283,-2.12142,1.986889,-1.4161552
3.308,9.403505,10.408825,-3.666964,-2.1183352,1.9728756,-1.409728
3.31,9.413871,10.399303,-3.6479702,-2.1155019,1.9604316,-1.4039814
