Time_s_,Acc_x_m_s_2_,Acc_y_m_s_2_,Acc_z_m_s_2_,Gyro_x_1_s_,Gyro_y_1_s_,Gyro_z_1_s_
0,-0.008487157,-0.055729393,0.081419125,0.040010482,0.26898062,0.37020758
0.002,0.00024846802,-0.06132574,0.07215194,0.03997682,0.28919035,0.3735179
0.004,0.009921942,-0.06666889,0.0603182,0.039917514,0.31168395,0.3773035
0.006,0.021659022,-0.07225242,0.049775038,0.03981307,0.3365877,0.381626
0.008,0.032375433,-0.077655956,0.04276572,0.03962809,0.36394376,0.3865545
0.01,0.040927883,-0.08262178,0.037412412,0.03932646,0.39373192,0.39216557
0.012,0.049471337,-0.087805346,0.030304488,0.038868293,0.4258574,0.39849776
0.014,0.05880932,-0.09262434,0.01861015,0.038224027,0.4601272,0.40557745
0.016,0.069013044,-0.09626261,0.0013320819,0.037383735,0.49626654,0.4133782
0.018,0.0796189,-0.09823625,-0.020695684,0.036364257,0.5339416,0.4218228
0.02,0.09008175,-0.098653175,-0.04602237,0.035209596,0.5727707,0.430784
0.022,0.10040788,-0.09778717,-0.073501095,0.033963203,0.6123179,0.44008756
0.024,0.1101817,-0.095641255,-0.10259569,0.032673627,0.65211564,0.44953197
0.026,0.1190829,-0.09211439,-0.13343287,0.031376272,0.6916641,0.45889348
0.028,0.12700973,-0.08725034,-0.16626403,0.03002578,0.7314144,0.46817976
0.03,0.13373676,-0.080720566,-0.20153445,0.028616905,0.76934755,0.47693884
0.032,0.13928765,-0.07213904,-0.23942429,0.027097136,0.8050134,0.48506403
0.034,0.14354864,-0.061377693,-0.2797806,0.025298715,0.837844,0.49247384
0.036,0.14621171,-0.048288364,-0.32223976,0.022927135,0.8669641,0.4990575
0.038,0.14702037,-0.032818787,-0.36648276,0.01978165,0.8917337,0.50471824
0.04,0.14601254,-0.015073709,-0.41204423,0.015733927,0.9119528,0.5094439
0.042,0.14306243,0.0048644096,-0.4585681,0.01060003,0.927388,0.5133361
0.044,0.13794787,0.02706644,-0.5055194,0.0042618215,0.9378741,0.5165241
0.046,0.1306976,0.051430985,-0.5525758,-0.0032296777,0.9435009,0.51902676
0.048,0.12111002,0.077881634,-0.5993122,-0.011787921,0.944611,0.5208145
0.05,0.10942906,0.10623871,-0.6453745,-0.021352291,0.94169354,0.52191657
0.052,0.0958305,0.13623907,-0.69049597,-0.031826466,0.93537974,0.52248216
0.054,0.080508366,0.16777778,-0.7344227,-0.04306355,0.9264039,0.52271503
0.056,0.06401512,0.20059697,-0.7775575,-0.054857314,0.915486,0.522821
0.058,0.046367764,0.23430622,-0.8190196,-0.06697002,0.90317434,0.5230205
0.06,0.028115213,0.2684564,-0.858647,-0.07915911,0.88980687,0.52345693
0.062,0.009766951,0.30260435,-0.89645016,-0.0911895,0.8754858,0.5241399
0.064,-0.008478627,0.33652946,-0.93220615,-0.10289571,0.860077,0.5248756
0.066,-0.026362062,0.36986402,-0.9658836,-0.11422321,0.84329987,0.5252918
0.068,-0.043476418,0.40233377,-0.9974412,-0.12526017,0.8248515,0.5248728
0.07,-0.059582457,0.433743,-1.0266552,-0.1362234,0.8044915,0.5230789
0.072,-0.07426466,0.46379787,-1.0536811,-0.14740187,0.78218174,0.51941276
0.074,-0.08698727,0.49232686,-1.078451,-0.15907365,0.75813323,0.5135102
0.076,-0.09752261,0.51916873,-1.1011189,-0.1714108,0.7328651,0.50520396
0.078,-0.10558431,0.5442815,-1.1217349,-0.18443203,0.7071915,0.49455953
0.08,-0.11084139,0.5676961,-1.1406096,-0.19797674,0.68209296,0.48187247
0.082,-0.113082014,0.58966815,-1.1578625,-0.21172398,0.658595,0.4675708
0.084,-0.112023026,0.610283,-1.1738645,-0.22527412,0.6376008,0.45213705
0.086,-0.107642606,0.6297995,-1.1887872,-0.23819785,0.6197884,0.4360482
0.088,-0.10004155,0.6486788,-1.202697,-0.2500111,0.60565674,0.41969582
0.09,-0.0893745,0.6672376,-1.2156687,-0.26029402,0.5955608,0.403382
0.092,-0.075543866,0.68571794,-1.2276204,-0.26891333,0.5892265,0.38726902
0.094,-0.058826074,0.70441693,-1.2384299,-0.27590275,0.58593905,0.37133747
0.096,-0.03927532,0.7235122,-1.247778,-0.2813208,0.585119,0.3554662
0.098,-0.017207682,0.7432038,-1.2554901,-0.28538305,0.5861595,0.33956087
0.1,0.007017061,0.7637895,-1.2612672,-0.28841633,0.588251,0.3236397
0.102,0.033025816,0.78552836,-1.2649043,-0.2907119,0.59051496,0.30771032
0.104,0.06051396,0.8086208,-1.2660207,-0.29246607,0.59214056,0.2916792
0.106,0.08894791,0.83322567,-1.2641793,-0.2938558,0.5923973,0.2754112
0.108,0.11763069,0.859627,-1.2588319,-0.29504782,0.5906484,0.25881025
0.11,0.14594656,0.88774836,-1.2488949,-0.29618043,0.5864481,0.24187277
0.112,0.17443633,0.91702485,-1.2327831,-0.29733837,0.57959586,0.22466172
0.114,0.20129347,0.94791883,-1.2105923,-0.29854977,0.5700849,0.20731518
0.116,0.22565174,0.98064584,-1.1836816,-0.29980886,0.5580384,0.19005266
0.118,0.2489189,1.0148332,-1.1520282,-0.30108353,0.5436752,0.17318155
0.12,0.27114913,1.0504973,-1.1132876,-0.30231303,0.5272621,0.1570362
0.122,0.29007408,1.087622,-1.0644509,-0.30343273,0.5091021,0.1419174
0.124,0.30493402,1.1256588,-1.0042682,-0.30439848,0.4895047,0.12805296
0.126,0.31573027,1.1640193,-0.93291503,-0.30520356,0.46873555,0.115603685
0.128,0.32266417,1.2026396,-0.85204965,-0.3058721,0.44702443,0.104647085
0.13,0.326187,1.2417879,-0.7634455,-0.30645925,0.42450204,0.095188
0.132,0.32596463,1.281776,-0.6681892,-0.30703354,0.40119073,0.08714269
0.134,0.32238966,1.322444,-0.56664133,-0.30765632,0.37707567,0.080338694
0.136,0.3156051,1.363675,-0.45869535,-0.30834925,0.35213435,0.07455345
0.138,0.3055675,1.4054255,-0.3443545,-0.30913067,0.32632065,0.06954798
0.14,0.2925739,1.4472499,-0.22383076,-0.31004146,0.2995625,0.065070875
0.142,0.27683926,1.4887552,-0.097756565,-0.31116748,0.27172488,0.06085909
0.144,0.25869578,1.5299027,0.03266275,-0.31262916,0.24267878,0.05667294
0.146,0.23855433,1.5706708,0.16620642,-0.31454176,0.21234089,0.052305132
0.148,0.21690136,1.6110463,0.30159825,-0.31703737,0.18064621,0.04758456
0.15,0.19397604,1.6510149,0.4376819,-0.32026383,0.14751527,0.042361468
0.152,0.17037481,1.6906939,0.5732964,-0.32431749,0.113038,0.03654506
0.154,0.1465249,1.7298677,0.70723444,-0.32929736,0.0772344,0.030081302
0.156,0.12284893,1.7686266,0.83853173,-0.33527458,0.040122043,0.022950053
0.158,0.09989548,1.8068967,0.9661412,-0.34227163,0.001837492,0.015158743
0.16,0.077759385,1.8448449,1.0890906,-0.35027158,-0.037452437,0.006674327
0.162,0.056617856,1.882633,1.2066188,-0.35923368,-0.07754442,-0.0025018156
0.164,0.036767006,1.9203161,1.3178253,-0.3691116,-0.11825189,-0.012355149
0.166,0.018134713,1.9580683,1.4218813,-0.37983567,-0.1593771,-0.022867829
0.168,0.00095176697,1.9961762,1.5182097,-0.39131737,-0.20068029,-0.033998966
0.17,-0.014835298,2.0348747,1.6062164,-0.4034707,-0.24190323,-0.045698762
0.172,-0.029257298,2.0744202,1.6855924,-0.41617942,-0.28278872,-0.057916224
0.174,-0.042177916,2.114874,1.7559578,-0.42931676,-0.32304665,-0.070558906
0.176,-0.05383885,2.1563287,1.8171132,-0.44272715,-0.36236754,-0.08351341
0.178,-0.064385414,2.1990314,1.8688958,-0.45619583,-0.40038884,-0.09664452
0.18,-0.07432628,2.2431436,1.9111747,-0.4694792,-0.43668795,-0.10977954
0.182,-0.083901405,2.288743,1.9439496,-0.48229292,-0.47076875,-0.12272963
0.184,-0.093527675,2.3359504,1.9673371,-0.4943179,-0.5020728,-0.13526341
0.186,-0.10343051,2.3848395,1.9815055,-0.505211,-0.53001463,-0.14714053
0.188,-0.11417234,2.4353518,1.9867381,-0.51463836,-0.554031,-0.15808716
0.19,-0.12619233,2.487619,1.9836178,-0.52233046,-0.573619,-0.16783649
0.192,-0.13972116,2.541349,1.9724925,-0.5280704,-0.5883453,-0.17615378
0.194,-0.1550889,2.5963562,1.9538779,-0.53170747,-0.59791434,-0.18284988
0.196,-0.17228174,2.6525207,1.9282635,-0.53318053,-0.60218966,-0.18778393
0.198,-0.19145107,2.7096052,1.8960352,-0.5325211,-0.6012546,-0.19089136
0.2,-0.21254814,2.7673671,1.8578761,-0.52984,-0.5954139,-0.19218719
0.202,-0.23548806,2.8254972,1.8144654,-0.52531236,-0.5851526,-0.19174019
0.204,-0.26020408,2.8837352,1.7666,-0.51913255,-0.57109165,-0.18969238
0.206,-0.28660858,2.9417024,1.7149596,-0.51151174,-0.55406696,-0.18626744
0.208,-0.31417704,2.9991088,1.6606033,-0.5026518,-0.5348379,-0.18173754
0.21,-0.34257042,3.0553799,1.6044385,-0.49271712,-0.51417667,-0.1764073
0.212,-0.37135231,3.1101284,1.5474646,-0.4818849,-0.49291748,-0.17057616
0.214,-0.399956,3.1628158,1.4906487,-0.4702972,-0.47180817,-0.16450861
0.216,-0.4279009,3.213048,1.43502,-0.45804435,-0.45147875,-0.1584591
0.218,-0.45467484,3.2604694,1.3814783,-0.4451733,-0.4324352,-0.15263999
0.22,-0.47959757,3.3047013,1.331023,-0.431717,-0.41504872,-0.14720662
0.222,-0.5020822,3.345463,1.2844179,-0.4177035,-0.39961922,-0.14223942
0.224,-0.5215837,3.3824263,1.2424581,-0.40312195,-0.38634887,-0.13775069
0.226,-0.5376376,3.4153922,1.2057967,-0.38797188,-0.37534705,-0.13371322
0.228,-0.5499439,3.4442112,1.175154,-0.37225878,-0.36667067,-0.13009912
0.23,-0.55828047,3.4685464,1.1512948,-0.35598868,-0.36031997,-0.12687844
0.232,-0.56208,3.4886742,1.1345307,-0.33920348,-0.35625148,-0.12402579
0.234,-0.56131756,3.5045094,1.1254447,-0.32195607,-0.35439453,-0.121566206
0.236,-0.5559473,3.5160546,1.1242259,-0.3043129,-0.35463876,-0.119531825
0.238,-0.5458455,3.523393,1.1308156,-0.28634122,-0.3568099,-0.1179997
0.24,-0.53141224,3.52675,1.1451422,-0.26810235,-0.3606732,-0.117054075
0.242,-0.51264966,3.5264893,1.1668935,-0.24966335,-0.36593702,-0.11676867
0.244,-0.49015236,3.5230207,1.1956737,-0.23106006,-0.37227616,-0.117193475
0.246,-0.46436954,3.5167522,1.2308917,-0.21233782,-0.37933034,-0.11834355
0.248,-0.4356401,3.5081296,1.2718854,-0.19353747,-0.386692,-0.120193526
0.25,-0.40472353,3.4976752,1.3180642,-0.17467864,-0.39392054,-0.12266557
0.252,-0.37229514,3.4859776,1.3686497,-0.15577862,-0.4005658,-0.12565278
0.254,-0.3391018,3.473518,1.4228866,-0.13683102,-0.4061671,-0.12900133
0.256,-0.30560243,3.4606848,1.4800817,-0.11782775,-0.41028816,-0.13254581
0.258,-0.27247357,3.448019,1.5394992,-0.098750725,-0.4125105,-0.13610797
0.26,-0.24037075,3.4360929,1.6001077,-0.07956689,-0.41244644,-0.13950059
0.262,-0.20990348,3.4251747,1.6612461,-0.060199454,-0.40972513,-0.14253016
0.264,-0.18162692,3.415739,1.7221031,-0.04058364,-0.4040536,-0.14500207
0.266,-0.15592957,3.4080064,1.7818387,-0.0206445,-0.3952148,-0.14674285
0.268,-0.13331628,3.4023118,1.8397994,-0.0003080964,-0.38305134,-0.14758264
0.27,-0.113961816,3.3987632,1.8951914,0.020487309,-0.36751866,-0.14739588
0.272,-0.09792745,3.397429,1.9473939,0.04180403,-0.34864068,-0.14608775
0.274,-0.08550346,3.3983753,1.9959695,0.06370877,-0.3265026,-0.1436148
0.276,-0.07655239,3.4017258,2.0404677,0.08626488,-0.30120355,-0.13998958
0.278,-0.07109082,3.407203,2.0804372,0.10951044,-0.2728716,-0.13528594
0.28,-0.06873608,3.4148138,2.1153917,0.13349505,-0.2416437,-0.12960878
0.282,-0.069363356,3.4244022,2.1448226,0.15823919,-0.20766774,-0.12310035
0.284,-0.07245588,3.4356186,2.1685371,0.18373747,-0.17112452,-0.11591161
0.286,-0.07750118,3.4483447,2.18637,0.20995659,-0.13224863,-0.10822943
0.288,-0.084192395,3.4622452,2.1983428,0.23682176,-0.09136663,-0.100248665
0.29,-0.09176803,3.4768448,2.2044659,0.2641879,-0.048929315,-0.09219182
0.292,-0.09983659,3.4920063,2.2047906,0.2918684,-0.005516097,-0.084291324
0.294,-0.10802138,3.507425,2.199576,0.3196234,0.038180627,-0.07678864
0.296,-0.11589396,3.5227659,2.189036,0.34718037,0.081377804,-0.06995046
0.298,-0.12029934,3.5461993,2.1787481,0.3742432,0.123208046,-0.06403884
0.3,-0.12532032,3.5631084,2.1602154,0.40050817,0.16276202,-0.05929859
0.302,-0.12859476,3.5798879,2.1380126,0.42570132,0.19914013,-0.05595109
0.304,-0.1299367,3.5964885,2.1127903,0.44958663,0.23150775,-0.05419323
0.306,-0.12948966,3.6128926,2.0852866,0.47197813,0.25916398,-0.054168656
0.308,-0.12705255,3.6291604,2.0563688,0.49273533,0.28156933,-0.05596955
0.31,-0.12267673,3.6452785,2.0267868,0.51182485,0.29837614,-0.059609473
0.312,-0.11648524,3.6614141,1.9973803,0.5292477,0.30941674,-0.06502026
0.314,-0.10886538,3.677628,1.9691465,0.54506564,0.31472754,-0.072078526
0.316,-0.09996915,3.6940298,1.9428328,0.559402,0.31453973,-0.08059153
0.318,-0.09043503,3.7107008,1.9193461,0.57243073,0.30927104,-0.0903126
0.32,-0.08052158,3.7277234,1.8995086,0.58434796,0.29948542,-0.10094726
0.322,-0.070905805,3.7451677,1.8839917,0.595383,0.28583965,-0.11220448
0.324,-0.062130332,3.7630186,1.873483,0.60577565,0.26909158,-0.12376955
0.326,-0.054681063,3.7812471,1.8685555,0.6157509,0.2500315,-0.13535166
0.328,-0.04922366,3.799637,1.8695104,0.6255342,0.22943527,-0.1466847
0.33,-0.046263814,3.8180108,1.8764809,0.63534,0.20808476,-0.15756688
0.332,-0.046391368,3.836032,1.8896768,0.64536166,0.18673599,-0.16783357
0.334,-0.049977303,3.853363,1.9090638,0.65576553,0.16607684,-0.1773855
0.336,-0.057597637,3.869669,1.9345379,0.66670114,0.14673345,-0.18617176
0.338,-0.06947827,3.88447,1.9656783,0.6782879,0.12925975,-0.19418284
0.34,-0.085956335,3.897486,2.0018969,0.69063705,0.11415977,-0.20142628
0.342,-0.107399106,3.9082508,2.0426283,0.7038531,0.10191645,-0.20793776
0.344,-0.13376212,3.9164155,2.0872915,0.7180345,0.09295962,-0.21374807
0.346,-0.16504538,3.9216144,2.1350317,0.73324966,0.08766631,-0.21888788
0.348,-0.20119095,3.923464,2.185218,0.74956596,0.08635968,-0.22336724
0.35,-0.24196422,3.9218004,2.2369943,0.76704437,0.08930757,-0.22718148
0.352,-0.28739595,3.9163938,2.2896667,0.78573734,0.09673595,-0.23031768
0.354,-0.33693123,3.9074028,2.342402,0.8056803,0.10879422,-0.2327669
0.356,-0.39015448,3.8948627,2.3946526,0.8268852,0.12556651,-0.23452507
0.358,-0.44672906,3.8789818,2.4459195,0.84935564,0.14704548,-0.23559308
0.36,-0.5059457,3.8600373,2.4955878,0.87308437,0.17311811,-0.23597942
0.362,-0.5672232,3.8384242,2.5431933,0.89805543,0.20356359,-0.2357049
0.364,-0.6298976,3.814661,2.5883982,0.9242171,0.23807389,-0.23481679
0.366,-0.6933365,3.789322,2.6305716,0.9515215,0.2762617,-0.23338184
0.368,-0.75685704,3.7629585,2.6694522,0.9798824,0.31766444,-0.23147815
0.37,-0.81979513,3.7361796,2.7050009,1.0091606,0.36171395,-0.2291925
0.372,-0.88145506,3.7096446,2.7369993,1.0392094,0.40779543,-0.22661614
0.374,-0.94112873,3.6839342,2.7654753,1.0698538,0.45525736,-0.22384071
0.376,-0.99851537,3.6597297,2.7905214,1.1008831,0.50342065,-0.22095332
0.378,-1.0528004,3.6374235,2.8121078,1.132071,0.55158824,-0.21806377
0.38,-1.1036193,3.6173413,2.8305602,1.163195,0.5990692,-0.21526155
0.382,-1.1504246,3.5997372,2.8458228,1.1940302,0.6452382,-0.21264583
0.384,-1.1928544,3.5847309,2.858093,1.2243592,0.68948066,-0.21032482
0.386,-1.2306124,3.572369,2.8676162,1.253994,0.73126644,-0.20841378
0.388,-1.2634393,3.562737,2.8745947,1.2827629,0.770151,-0.20703208
0.39,-1.2914143,3.5556104,2.8794947,1.3105175,0.8057649,-0.20630091
0.392,-1.314259,3.5508695,2.8826191,1.3371313,0.8378297,-0.20636094
0.394,-1.3320192,3.5482836,2.8841522,1.362487,0.86612093,-0.20732296
0.396,-1.3447973,3.547479,2.8843646,1.3864999,0.89048237,-0.20927614
0.398,-1.3524427,3.548111,2.883479,1.4091094,0.9108466,-0.21228713
0.4,-1.3551754,3.5498528,2.8819504,1.4302979,0.92721814,-0.21639538
0.402,-1.3529512,3.5522318,2.880113,1.4500593,0.9396849,-0.2216155
0.404,-1.3459876,3.5549593,2.8781886,1.4684494,0.94844294,-0.2279352
0.406,-1.3345258,3.5578656,2.8765254,1.4855608,0.95379794,-0.23530465
0.408,-1.3207161,3.5541003,2.8713202,1.5015583,0.95615876,-0.24364465
0.41,-1.300431,3.557801,2.8716874,1.5166626,0.95604336,-0.25281137
0.412,-1.2764702,3.5602958,2.872682,1.5311439,0.95408106,-0.2626189
0.414,-1.2489948,3.561568,2.8743804,1.5453435,0.9510131,-0.27282143
0.416,-1.2182604,3.5615368,2.877022,1.5596408,0.9476778,-0.2831391
0.418,-1.1846485,3.5601206,2.8804708,1.5744629,0.94496477,-0.2932831
0.42,-1.1485375,3.5573397,2.8847735,1.5902363,0.94377816,-0.30296797
0.422,-1.1100103,3.553134,2.8898454,1.6073833,0.9449948,-0.311949
0.424,-1.0694193,3.547571,2.8954122,1.6262922,0.94943607,-0.32003164
0.426,-1.0270858,3.5407658,2.9014564,1.6472802,0.9577788,-0.32707816
0.428,-0.9832809,3.5327964,2.9076424,1.6705872,0.9705606,-0.3329953
0.43,-0.9383558,3.5238037,2.9135468,1.696385,0.9881562,-0.33771956
0.432,-0.892424,3.5138762,2.9189394,1.7247317,1.0107684,-0.3412146
0.434,-0.8457732,3.5031428,2.9234095,1.755589,1.0384156,-0.34347212
0.436,-0.7986152,3.4916925,2.9266336,1.7888253,1.0709922,-0.3444913
0.438,-0.7510724,3.4795883,2.9284244,1.8242428,1.1083223,-0.34425688
0.44,-0.7034906,3.4670143,2.9285703,1.8615925,1.1501327,-0.3427537
0.442,-0.6560166,3.4541726,2.9268196,1.9006001,1.1961222,-0.33996004
0.444,-0.6089183,3.4411073,2.9229887,1.9409821,1.2459638,-0.3358547
0.446,-0.5622232,3.4278986,2.916883,1.9824613,1.2993071,-0.33042872
0.448,-0.51600134,3.414691,2.9084308,2.024791,1.355757,-0.32370907
0.45,-0.47054493,3.4015193,2.8976297,2.0676994,1.414853,-0.3157186
0.452,-0.42586803,3.3885875,2.884443,2.1109178,1.4760013,-0.30649722
0.454,-0.38218617,3.3758578,2.8689177,2.1541467,1.5385025,-0.2960732
0.456,-0.33969688,3.3635013,2.8511834,2.1970706,1.6015359,-0.28449714
0.458,-0.2985221,3.3515625,2.8313944,2.2392836,1.6641631,-0.27184784
0.46,-0.25883126,3.3399909,2.8097806,2.2803261,1.7253659,-0.25823522
0.462,-0.22058296,3.3287911,2.786554,2.3196898,1.7841165,-0.2438246
0.464,-0.18415904,3.3177848,2.7620468,2.3568342,1.8394139,-0.22887206
0.466,-0.1496805,3.307007,2.736427,2.3912287,1.890336,-0.21368682
0.468,-0.11739087,3.2963257,2.709867,2.4223816,1.9360737,-0.1986376
0.47,-0.087347865,3.2856607,2.6827965,2.449901,1.9759762,-0.18412781
0.472,-0.059770584,3.2747915,2.6554918,2.4735017,2.0095792,-0.17056406
0.474,-0.034723878,3.2634535,2.628227,2.4930432,2.0366209,-0.15833521
0.476,-0.0123484135,3.2513988,2.601362,2.5085359,2.0570319,-0.1477722
0.478,0.0073171854,3.2384706,2.5751445,2.5201275,2.070934,-0.13915992
0.48,0.024244308,3.2243812,2.549594,2.528069,2.0786252,-0.13270605
0.482,0.038406968,3.2089946,2.5247104,2.5327072,2.0805259,-0.12853444
0.484,0.049844384,3.1920881,2.500598,2.5344372,2.0771775,-0.12668347
0.486,0.058879256,3.1733756,2.477251,2.533699,2.0692053,-0.12710917
0.488,0.06550348,3.1527307,2.4547138,2.530941,2.057325,-0.1296773
0.49,0.07008326,3.1301267,2.4329073,2.526576,2.0422094,-0.13418984
0.492,0.07271445,3.1055064,2.4118347,2.5209923,2.0245333,-0.14042294
0.494,0.07397103,3.0787916,2.3912642,2.5145264,2.0049057,-0.14814806
0.496,0.07403338,3.0499034,2.3711045,2.5074365,1.9838188,-0.15713847
0.498,0.07322061,3.0189118,2.3511212,2.499941,1.9616567,-0.16718364
0.5,0.07218635,2.985793,2.3310678,2.4921775,1.9386504,-0.17808867
0.502,0.07131255,2.9505298,2.3106937,2.484233,1.9149289,-0.1896801
0.504,0.071000576,2.913243,2.2897286,2.47619,1.8904986,-0.20181084
0.506,0.07183385,2.8740158,2.267978,2.468102,1.8653176,-0.21436143
0.508,0.07405603,2.833024,2.2453485,2.4600017,1.8392692,-0.22722113
0.51,0.0780077,2.7905555,2.221694,2.4519236,1.8122396,-0.24028575
0.512,0.08398485,2.7465627,2.1970105,2.4439166,1.7841206,-0.25345647
0.514,0.09242678,2.701233,2.1711285,2.4360247,1.7548337,-0.26663816
0.516,0.10357517,2.6545284,2.144025,2.4282904,1.7243444,-0.27973568
0.518,0.11749661,2.6067896,2.1157436,2.420738,1.6926538,-0.29265606
0.52,0.13433307,2.5581412,2.0864697,2.4133787,1.6598002,-0.30532038
0.522,0.15403038,2.5088046,2.056328,2.4061875,1.6258461,-0.3176632
0.524,0.17668802,2.458794,2.025517,2.3991132,1.5908655,-0.3296306
0.526,0.20221287,2.408235,1.9941489,2.3920865,1.5549295,-0.34118855
0.528,0.23070723,2.3572054,1.9625138,2.3850186,1.5181035,-0.35236067
0.53,0.26194704,2.3058884,1.9306998,2.3777976,1.480458,-0.36320585
0.532,0.29562306,2.2542994,1.8988392,2.3703363,1.4420757,-0.37378758
0.534,0.33164984,2.2024474,1.8671505,2.3625708,1.4030364,-0.38420457
0.536,0.36970323,2.150352,1.8357512,2.3544424,1.363421,-0.39458102
0.538,0.4096265,2.097973,1.8049855,2.3458998,1.3232834,-0.40507805
0.54,0.4510105,2.045361,1.7751161,2.3369157,1.2826755,-0.41587085
0.542,0.49353975,1.9925296,1.7464092,2.3274977,1.2416574,-0.42715526
0.544,0.53680956,1.9394245,1.7190567,2.3176656,1.2002938,-0.439108
0.546,0.5804636,1.8860198,1.6933272,2.3074548,1.158632,-0.45185906
0.548,0.6242045,1.8323414,1.6696346,2.296946,1.1167264,-0.4655127
0.55,0.6676064,1.7782707,1.6482295,2.28627,1.0746431,-0.48010772
0.552,0.7103311,1.723738,1.6293974,2.275569,1.0324832,-0.49563694
0.554,0.7522335,1.6687815,1.6134311,2.2650387,0.99039274,-0.512018
0.556,0.79293084,1.6132843,1.6005404,2.2548926,0.9485713,-0.52909833
0.558,0.8319507,1.5573412,1.5908911,2.2453685,0.9073262,-0.54664415
0.56,0.8691404,1.5009651,1.5845299,2.2367198,0.8670437,-0.56436
0.562,0.9043865,1.4440427,1.5815024,2.2292073,0.82820195,-0.58189964
0.564,0.93752766,1.3867145,1.5816567,2.2230597,0.79133695,-0.5988603
0.566,0.9684867,1.3289019,1.5849371,2.2184803,0.7570341,-0.6148365
0.568,0.99708974,1.2707131,1.5911752,2.2156053,0.7258661,-0.62943184
0.57,1.0231869,1.2122304,1.6000736,2.2145152,0.69834876,-0.64228415
0.572,1.0466927,1.1535689,1.611355,2.2152464,0.6749035,-0.6530802
0.574,1.0676258,1.0947453,1.6244899,2.2177615,0.6558369,-0.6616037
0.576,1.0859623,1.0356766,1.6389909,2.2219753,0.6413044,-0.66771114
0.578,1.1018302,0.9765735,1.6542546,2.2277782,0.6312883,-0.6713637
0.58,1.1151447,0.9175393,1.6695229,2.2350461,0.6256418,-0.67260945
0.582,1.1259143,0.85873127,1.6842146,2.2436512,0.6240585,-0.67156875
0.584,1.1344208,0.80031455,1.6977304,2.2534587,0.62612474,-0.66844475
0.586,1.1406574,0.7424361,1.7095778,2.2643359,0.63133645,-0.6635132
0.588,1.1447803,0.68511647,1.7191675,2.2761421,0.6391573,-0.65707076
0.59,1.1470306,0.6284643,1.7261968,2.288765,0.6490259,-0.6494245
0.592,1.1474335,0.5725453,1.7304368,2.3020868,0.660409,-0.64083505
0.594,1.1462822,0.51748866,1.7314224,2.3159971,0.67277914,-0.631558
0.596,1.1436404,0.46337402,1.7291857,2.330357,0.685609,-0.6218287
0.598,1.1397226,0.4103669,1.7236233,2.3450162,0.6983992,-0.61186266
0.6,1.1348965,0.35832763,1.7148452,2.3597913,0.7106594,-0.601876
0.602,1.1292583,0.30728984,1.7029018,2.3744607,0.72189057,-0.5920578
0.604,1.123071,0.25711983,1.6882217,2.3887897,0.7316049,-0.58260906
0.606,1.1167775,0.2076338,1.6712239,2.4025438,0.73928905,-0.573732
0.608,1.1104933,0.15869403,1.6524847,2.4154959,0.7444355,-0.56563264
0.61,1.1043613,0.110070705,1.6325669,2.427434,0.74651664,-0.5585397
0.612,1.0985061,0.06159985,1.612226,2.438149,0.7450124,-0.55267906
0.614,1.0931499,0.012976885,1.5921404,2.4474926,0.739481,-0.548245
0.616,1.0884451,-0.03603518,1.5729659,2.4553688,0.7296142,-0.54538393
0.618,1.0846127,-0.08579135,1.5553938,2.461757,0.7152587,-0.54416096
0.62,1.0817448,-0.13661295,1.5400512,2.4667027,0.69644463,-0.54452527
0.622,1.0798699,-0.1885848,1.5276451,2.4703436,0.673407,-0.54633766
0.624,1.0790278,-0.24204147,1.518846,2.4728982,0.64657843,-0.54932845
0.626,1.0793877,-0.29719353,1.514274,2.474665,0.616585,-0.55314225
0.628,1.0808272,-0.3541509,1.5142685,2.4760294,0.5841799,-0.55731726
0.63,1.0831661,-0.41296884,1.5192142,2.4774199,0.55020106,-0.56137246
0.632,1.0863618,-0.47381994,1.5293019,2.4792998,0.51553714,-0.56482756
0.634,1.0902846,-0.5366919,1.5447509,2.4821112,0.48100817,-0.567264
0.636,1.0948155,-0.60165775,1.5655314,2.4862647,0.44737428,-0.5683385
0.638,1.099615,-0.6685974,1.5917572,2.492123,0.41525665,-0.5677965
0.64,1.1045957,-0.73723507,1.6233642,2.4999385,0.3851225,-0.5655006
0.642,1.109501,-0.8073884,1.6601106,2.5098577,0.3572537,-0.5614223
0.644,1.1143852,-0.8788934,1.7016262,2.5219028,0.3317648,-0.55564195
0.646,1.1192769,-0.9516629,1.7474428,2.535992,0.3086164,-0.5483443
0.648,1.1239774,-1.0253928,1.7968229,2.5519223,0.2876332,-0.5397334
0.65,1.1283889,-1.0999302,1.8491411,2.5694282,0.26856154,-0.5300476
0.652,1.1323929,-1.1750323,1.9035708,2.5882154,0.25110304,-0.51953465
0.654,1.1358795,-1.2504241,1.9594699,2.607983,0.23495719,-0.5084199
0.656,1.138763,-1.3258547,2.0161266,2.6284423,0.21986902,-0.4968769
0.658,1.1408907,-1.4010837,2.072656,2.649321,0.20559871,-0.48506317
0.66,1.1423777,-1.4759676,2.1283298,2.6703768,0.1919648,-0.47309226
0.662,1.1430842,-1.5501423,2.182442,2.6914036,0.17889628,-0.46108025
0.664,1.1428466,-1.6234314,2.2343624,2.7122815,0.16642946,-0.44909632
0.666,1.1416883,-1.6956685,2.283451,2.732928,0.15466195,-0.4371935
0.668,1.1396756,-1.7666879,2.3291852,2.7532594,0.14370501,-0.42542145
0.67,1.1367713,-1.8363733,2.3709798,2.7732215,0.13364738,-0.413853
0.672,1.1328367,-1.9044693,2.4083226,2.7927418,0.12455386,-0.4026056
0.674,1.1278541,-1.9710293,2.44081,2.8117647,0.11647412,-0.39181036
0.676,1.1218143,-2.035772,2.468113,2.8302374,0.10942981,-0.3815841
0.678,1.1148591,-2.0987682,2.4900045,2.8480623,0.103300035,-0.3720684
0.68,1.1070206,-2.1597972,2.5064507,2.865095,0.09780508,-0.36342052
0.682,1.0981971,-2.2188902,2.5174806,2.8811545,0.09249455,-0.35582364
0.684,1.0886331,-2.2759857,2.5234232,2.8960352,0.08678979,-0.34944746
0.686,1.0782946,-2.3308825,2.5247014,2.9095082,0.08000231,-0.34442952
0.688,1.0673275,-2.3837051,2.5217776,2.92139,0.07141936,-0.34086853
0.69,1.055722,-2.4344327,2.5154994,2.931525,0.060360253,-0.33883464
0.692,1.0436975,-2.4831915,2.5064905,2.9398339,0.04626292,-0.33833575
0.694,1.031206,-2.530018,2.4955058,2.9463432,0.028724074,-0.3393184
0.696,1.0184824,-2.5748506,2.4832852,2.9511943,0.0076060295,-0.3416494
0.698,1.005527,-2.6177099,2.4707494,2.9546406,-0.017006695,-0.34513244
0.7,0.9925454,-2.65855,2.458642,2.9570217,-0.044809848,-0.34950945
0.702,0.9797899,-2.697537,2.4476564,2.9587307,-0.07528302,-0.35448197
0.704,0.9673823,-2.7346601,2.4386725,2.960193,-0.10777211,-0.35971785
0.706,0.9555454,-2.7700217,2.4322479,2.9618132,-0.1415503,-0.36489332
0.708,0.94435674,-2.803655,2.4288785,2.9639058,-0.17593366,-0.36973608
0.71,0.9338852,-2.8355205,2.429017,2.96668,-0.21030289,-0.3740464
0.712,0.9246426,-2.8658185,2.433049,2.970261,-0.24410146,-0.37767777
0.714,0.9168093,-2.8945704,2.4410381,2.9746876,-0.27686387,-0.3805662
0.716,0.9105842,-2.9218554,2.453008,2.9799058,-0.30827916,-0.38271746
0.718,0.90632,-2.9478424,2.4689126,2.9857552,-0.3381898,-0.38424116
0.72,0.9043187,-2.972501,2.488557,2.9920645,-0.36654997,-0.3853134
0.722,0.9048628,-2.9960656,2.5116649,2.9986439,-0.39340484,-0.38615295
0.724,0.9080673,-3.0185761,2.5379455,3.0053077,-0.4189049,-0.38699785
0.726,0.9141772,-3.04032,2.5668979,3.0119083,-0.44326267,-0.3880516
0.728,0.9233527,-3.061388,2.5979748,3.0183117,-0.4667636,-0.38951716
0.73,0.9357822,-3.0819426,2.6306262,3.02442,-0.48974144,-0.3915777
0.732,0.9516686,-3.1022067,2.6642423,3.0302124,-0.5124352,-0.39434198
0.734,0.9708826,-3.1222801,2.69844,3.035757,-0.5349831,-0.3978242
0.736,0.9935181,-3.1421428,2.7326052,3.0411654,-0.5574154,-0.4019502
0.738,1.0194721,-3.1619618,2.7663608,3.0465767,-0.5796879,-0.4066028
0.74,1.0488148,-3.1818135,2.7990227,3.0521483,-0.6016639,-0.4116258
0.742,1.0814857,-3.2016587,2.8302472,3.0580237,-0.6231594,-0.41685006
0.744,1.1173643,-3.2216969,2.8594265,3.0643373,-0.64395946,-0.422078
0.746,1.1562397,-3.2418494,2.886284,3.0711699,-0.66384536,-0.42713562
0.748,1.1977282,-3.262164,2.9102795,3.0785491,-0.6826223,-0.43187436
0.75,1.2415366,-3.282776,2.931202,3.0864563,-0.70017034,-0.43619242
0.752,1.2872591,-3.3034804,2.9488778,3.0948126,-0.7164389,-0.44002274
0.754,1.3341867,-3.3240514,2.9634988,3.1035118,-0.7314799,-0.44335052
0.756,1.3820992,-3.3442237,2.9746108,3.1124272,-0.74541867,-0.4462056
0.758,1.4306107,-3.3638,2.982187,3.1214268,-0.7584343,-0.44862485
0.76,1.4793602,-3.3824522,2.986158,3.1303988,-0.7707406,-0.4506394
0.762,1.5277389,-3.399939,2.986728,3.1392868,-0.7825233,-0.4522534
0.764,1.5756407,-3.4161558,2.9838262,3.1480944,-0.7939686,-0.45346463
0.766,1.6225924,-3.4309547,2.9773798,3.1568415,-0.8052542,-0.4542541
0.768,1.668254,-3.4442925,2.9675097,3.1655548,-0.8165587,-0.4546061
0.77,1.71222,-3.4558299,2.954411,3.1742675,-0.8280427,-0.45452222
0.772,1.7542294,-3.465601,2.9383738,3.1830401,-0.8398091,-0.45399272
0.774,1.7941899,-3.4735074,2.9195385,3.1919074,-0.8519479,-0.45301765
0.776,1.8318791,-3.4794235,2.8983312,3.2008777,-0.8646023,-0.4516233
0.778,1.8673425,-3.483426,2.8752215,3.2098844,-0.87795585,-0.44985124
0.78,1.9005197,-3.4854362,2.8509536,3.218824,-0.8922726,-0.44778603
0.782,1.9313409,-3.4856415,2.8259654,3.2275567,-0.9079073,-0.44549713
0.784,1.9600191,-3.4839501,2.801043,3.2359064,-0.92524266,-0.44308922
0.786,1.9869459,-3.4808915,2.77674,3.24367,-0.94470716,-0.44073236
0.788,2.0120826,-3.4764025,2.753893,3.2506995,-0.96674985,-0.43854097
0.79,2.035874,-3.4709432,2.7332704,3.2569187,-0.9917593,-0.43663138
0.792,2.0589042,-3.464823,2.715279,3.2623453,-1.0200019,-0.43508103
0.794,2.0815969,-3.4584,2.700596,3.2670927,-1.0515889,-0.43391582
0.796,2.1043968,-3.4521265,2.6897652,3.2713962,-1.0864233,-0.43307912
0.798,2.1278653,-3.4463277,2.68334,3.2755678,-1.124182,-0.4324812
0.8,2.1527352,-3.4414299,2.6814325,3.279991,-1.1643544,-0.4319779
0.802,2.1798103,-3.4377308,2.6843476,3.2850306,-1.206295,-0.43140736
0.804,2.2099555,-3.4356627,2.6924021,3.291007,-1.2492838,-0.43064487
0.806,2.2436328,-3.4356818,2.7057648,3.2981725,-1.2925701,-0.4295872
0.808,2.2818642,-3.4379888,2.7237465,3.3066745,-1.3354132,-0.42821038
0.81,2.3258803,-3.4431243,2.745713,3.316553,-1.3771867,-0.42656788
0.812,2.3766646,-3.4513028,2.7712216,3.327723,-1.4174356,-0.4247914
0.814,2.4350882,-3.4626715,2.8000505,3.3400207,-1.4558874,-0.423059
0.816,2.50171,-3.4773245,2.8319414,3.3532147,-1.492532,-0.42156932
0.818,2.5775154,-3.4955034,2.8664243,3.36704,-1.5275354,-0.42051768
0.82,2.6633162,-3.5173645,2.9026618,3.3812602,-1.5612316,-0.42008406
0.822,2.759923,-3.5429423,2.9398456,3.3956838,-1.5940648,-0.42038816
0.824,2.8679547,-3.572293,2.9770932,3.4101758,-1.6265767,-0.4214799
0.826,2.9878194,-3.6051202,3.013441,3.4246237,-1.659354,-0.4233606
0.828,3.120035,-3.6413505,3.048114,3.4389687,-1.692946,-0.42598793
0.83,3.2647212,-3.6808891,3.0804417,3.4532096,-1.7277774,-0.42926148
0.832,3.4219527,-3.7234497,3.1097653,3.4673765,-1.764159,-0.43303105
0.834,3.591701,-3.7688127,3.1358907,3.4814556,-1.8022816,-0.43712786
0.836,3.7731152,-3.8165753,3.159015,3.4954116,-1.8421943,-0.44137308
0.838,3.9651656,-3.8664017,3.1785827,3.5092177,-1.8837909,-0.4455181
0.84,4.167234,-3.9179914,3.1945894,3.5227966,-1.9269106,-0.44927713
0.842,4.378602,-3.971249,3.2072425,3.5359728,-1.9714184,-0.4524454
0.844,4.596958,-4.025096,3.2160797,3.5485518,-2.01716,-0.45482686
0.846,4.819841,-4.0790124,3.222929,3.5603495,-2.0639021,-0.45624465
0.848,5.0462775,-4.133541,3.229649,3.571216,-2.1113782,-0.45654327
0.85,5.2768183,-4.1896443,3.235284,3.5810404,-2.159319,-0.45559123
0.852,5.510369,-4.2468443,3.2380528,3.5898056,-2.2074594,-0.4532358
0.854,5.742826,-4.303956,3.238974,3.5975857,-2.2554917,-0.44931906
0.856,5.9709044,-4.3601546,3.2395825,3.6045275,-2.3030758,-0.44370735
0.858,6.1932755,-4.4145503,3.2402709,3.6108425,-2.349872,-0.436253
0.86,6.4083233,-4.4664793,3.240915,3.6167293,-2.3955498,-0.42683762
0.862,6.6141715,-4.5158615,3.2424734,3.6223722,-2.439845,-0.4153474
0.864,6.8097525,-4.5630956,3.2449245,3.6278818,-2.482572,-0.4017015
0.866,6.992919,-4.6080046,3.248393,3.6333153,-2.5235677,-0.3858528
0.868,7.162085,-4.65045,3.2537394,3.6387248,-2.5626123,-0.36774522
0.87,7.316106,-4.6902695,3.2615702,3.6441283,-2.599539,-0.3473423
0.872,7.454412,-4.7269874,3.2711537,3.6495647,-2.63421,-0.3245961
0.874,7.5766006,-4.7601943,3.282033,3.6550922,-2.6666079,-0.2994917
0.876,7.6828694,-4.789387,3.2937317,3.6607552,-2.6968646,-0.27211583
0.878,7.773525,-4.8141356,3.3055556,3.6668682,-2.7245038,-0.24240476
0.88,7.849139,-4.8343353,3.3165193,3.6740692,-2.7484412,-0.21011102
0.882,7.910631,-4.8495474,3.3253856,3.6829102,-2.7680187,-0.17511392
0.884,7.959206,-4.8593307,3.330813,3.693909,-2.782763,-0.13735563
0.886,7.996645,-4.863235,3.3311698,3.7078605,-2.791492,-0.0965122
0.888,8.024828,-4.8608465,3.324935,3.7257595,-2.7925415,-0.05209279
0.89,8.046029,-4.851855,3.3102922,3.748593,-2.784298,-0.0036194324
0.892,8.062759,-4.836024,3.285859,3.7773373,-2.7650955,0.049359024
0.894,8.077232,-4.81322,3.2501457,3.812993,-2.7330923,0.1073544
0.896,8.091464,-4.7830615,3.2019315,3.85642,-2.6867712,0.17088646
0.898,8.107911,-4.745679,3.1401732,3.9082227,-2.6251771,0.240385
0.9,8.128125,-4.700762,3.0641723,3.9687626,-2.5478907,0.31613153
0.902,8.153256,-4.648143,2.974062,4.038053,-2.4551795,0.39814377
0.904,8.184222,-4.5878506,2.869872,4.1156635,-2.3481283,0.48611206
0.906,8.221846,-4.5200353,2.7521043,4.2007265,-2.2285514,0.5794304
0.908,8.266217,-4.44476,2.621675,4.2919793,-2.09886,0.677264
0.91,8.31703,-4.3622994,2.4799418,4.387828,-1.9618605,0.7786664
0.912,8.3735075,-4.272785,2.3285155,4.4864397,-1.8205274,0.8826572
0.914,8.434462,-4.1764617,2.1691523,4.5858784,-1.6778324,0.9883319
0.916,8.498693,-4.073551,2.0036383,4.6842365,-1.5365157,1.0949507
0.918,8.564207,-3.9644284,1.8346752,4.7797656,-1.3989141,1.2019657
0.92,8.628489,-3.84895,1.6644179,4.8709445,-1.2669278,1.309032
0.922,8.689449,-3.7273922,1.4947379,4.9565334,-1.1420414,1.4159377
0.924,8.744857,-3.6000807,1.3269384,5.035652,-1.0252194,1.5226066
0.926,8.792644,-3.467148,1.1622496,5.1077614,-0.91705203,1.6290092
0.928,8.8303385,-3.3287954,1.0021877,5.1726522,-0.81777114,1.7351308
0.93,8.855693,-3.1850562,0.84812427,5.230416,-0.72742003,1.8409004
0.932,8.866775,-3.036045,0.7011731,5.281181,-0.6464335,1.9459867
0.934,8.862064,-2.8820596,0.56227607,5.3251557,-0.5753205,2.0498948
0.936,8.840531,-2.723463,0.43198133,5.362869,-0.5139077,2.1522837
0.938,8.80107,-2.560606,0.31051797,5.3948803,-0.46210086,2.2527733
0.94,8.743388,-2.393829,0.19756895,5.4214783,-0.42058182,2.3507519
0.942,8.667461,-2.2235997,0.09279293,5.4428306,-0.3902068,2.4456458
0.944,8.573515,-2.0502915,-0.0046842694,5.4591136,-0.37160325,2.5370226
0.946,8.462588,-1.8744589,-0.095737666,5.470438,-0.3654467,2.6245096
0.948,8.335648,-1.6966684,-0.18035328,5.4768167,-0.3724836,2.7076855
0.95,8.193637,-1.5175167,-0.2591229,5.478271,-0.39319742,2.786138
0.952,8.03761,-1.3375729,-0.33238417,5.4748263,-0.42791092,2.8595176
0.954,7.870216,-1.1582848,-0.39991644,5.4664855,-0.4769138,2.9275224
0.956,7.6937304,-0.9803523,-0.46302202,5.4533243,-0.5402329,2.9899511
0.958,7.5089936,-0.8036217,-0.52221215,5.4355316,-0.6175872,3.0467386
0.96,7.315931,-0.6280265,-0.57528245,5.413394,-0.708495,3.0979042
0.962,7.1168327,-0.45492738,-0.6202678,5.3872733,-0.8123002,3.1435404
0.964,6.916314,-0.28583407,-0.65800476,5.357629,-0.92815626,3.1838229
0.966,6.717479,-0.12183416,-0.68946546,5.3249826,-1.0550046,3.2189717
0.968,6.5208735,0.036565185,-0.7139994,5.2899103,-1.1915716,3.249285
0.97,6.3275995,0.1892249,-0.73077315,5.253007,-1.3364156,3.2751536
0.972,6.1389647,0.33667785,-0.7400681,5.214906,-1.4879651,3.297068
0.974,5.9557123,0.47956228,-0.7411297,5.176265,-1.6445429,3.3155665
0.976,5.7792006,0.6179106,-0.7331058,5.1377563,-1.8043638,3.3312368
0.978,5.6106715,0.7517449,-0.7163755,5.10005,-1.9655954,3.3446784
0.98,5.450726,0.88122886,-0.6910969,5.0637836,-2.1264567,3.3564978
0.982,5.2994466,1.0064702,-0.6564457,5.0295315,-2.2852511,3.3672767
0.984,5.1569805,1.1277695,-0.612309,4.997755,-2.4404259,3.3775659
0.986,5.0234404,1.2453,-0.5589614,4.9688087,-2.5906487,3.3878493
0.988,4.8990984,1.3594477,-0.49698603,4.9429235,-2.7348392,3.398487
0.99,4.783878,1.4706976,-0.4268921,4.920191,-2.8721747,3.4097211
0.992,4.6773944,1.5792894,-0.34893346,4.9005675,-3.0021446,3.4216769
0.994,4.578995,1.6855466,-0.26344037,4.8839135,-3.1245577,3.4343426
0.996,4.4877696,1.7897229,-0.1707027,4.870004,-3.23947,3.447598
0.998,4.4029145,1.8921788,-0.0712198,4.858581,-3.3471422,3.4612622
1,4.323604,1.9931397,0.03482592,4.849353,-3.4479964,3.4751024
1.002,4.249,2.0930023,0.14672923,4.842038,-3.5425568,3.4888878
1.004,4.178618,2.1919746,0.26391006,4.836367,-3.6313777,3.5024002
1.006,4.111888,2.2900608,0.38569784,4.832109,-3.7150135,3.5154395
1.008,4.048089,2.3874629,0.5114697,4.8290567,-3.7939637,3.5278277
1.01,3.9866767,2.4842153,0.6408234,4.82706,-3.8686476,3.5394144
1.012,3.9271612,2.5803177,0.7732697,4.8259983,-3.9393404,3.5500684
1.014,3.8688655,2.6758883,0.9085095,4.8258023,-4.006198,3.5596638
1.016,3.810592,2.7711554,1.0460942,4.8264513,-4.0692587,3.568091
1.018,3.7527723,2.865628,1.1861515,4.827969,-4.1284523,3.5752547
1.02,3.6941812,2.9598696,1.3275268,4.830407,-4.183653,3.5810943
1.022,3.6334822,3.0539885,1.4706361,4.8338184,-4.2347016,3.5855753
1.024,3.5703773,3.1478636,1.6152216,4.838238,-4.2814503,3.5886886
1.026,3.503847,3.2416265,1.7615654,4.8436375,-4.3238482,3.5904753
1.028,3.4328778,3.335504,1.9098219,4.8499312,-4.3619456,3.5910082
1.03,3.3569677,3.4295497,2.06006,4.8569555,-4.395921,3.5903761
1.032,3.2751753,3.5241423,2.212124,4.8645124,-4.426008,3.5886426
1.034,3.1866727,3.6195254,2.3659725,4.8723693,-4.4524813,3.5858376
1.036,3.0908294,3.7159734,2.5216017,4.880327,-4.475604,3.581968
1.038,2.9867556,3.8137298,2.6788726,4.888241,-4.495593,3.5770283
1.04,2.8737195,3.9129064,2.8378186,4.8960123,-4.5125346,3.5710032
1.042,2.7509298,4.013637,2.9982514,4.9036345,-4.5263705,3.5639346
1.044,2.617561,4.1162257,3.1600502,4.9112005,-4.536891,3.5558968
1.046,2.4731,4.2206583,3.323124,4.9188514,-4.5436997,3.547027
1.048,2.3172023,4.3271427,3.4872372,4.9267607,-4.5463843,3.5375776
1.05,2.1494734,4.435707,3.6524584,4.9350896,-4.5445204,3.527855
1.052,1.9699544,4.5463486,3.8185897,4.943991,-4.5376797,3.5181174
1.054,1.7788535,4.658932,3.985357,4.953568,-4.5256033,3.5086503
1.056,1.5765798,4.773312,4.1525064,4.963822,-4.508229,3.49967
1.058,1.3636835,4.8893814,4.3196383,4.9747066,-4.4856405,3.4912965
1.06,1.1406223,5.0069985,4.486409,4.98609,-4.458144,3.4835024
1.062,0.908097,5.1261106,4.65261,4.9977775,-4.4262476,3.4761229
1.064,0.66706884,5.2463546,4.817914,5.009555,-4.390571,3.4688826
1.066,0.4184184,5.367496,4.9819584,5.021229,-4.351778,3.4614239
1.068,0.16357362,5.489184,5.14435,5.0326033,-4.3105445,3.4533768
1.07,-0.09618828,5.61106,5.3049865,5.043513,-4.267503,3.4444244
1.072,-0.35955808,5.7326975,5.463573,5.0537987,-4.2232447,3.4343176
1.074,-0.62491775,5.85363,5.619714,5.0633364,-4.178225,3.422913
1.076,-0.89112896,5.9736342,5.773059,5.0720563,-4.132774,3.410152
1.078,-1.156533,6.092298,5.923326,5.0799046,-4.0870767,3.3960705
1.08,-1.4195917,6.2090993,6.0700045,5.0868454,-4.04118,3.3807516
1.082,-1.6787262,6.323432,6.2125425,5.092865,-3.995033,3.3643212
1.084,-1.9324322,6.43475,6.3499336,5.0979757,-3.9485369,3.3468897
1.086,-2.1793845,6.5425134,6.481182,5.1021748,-3.9015443,3.3285465
1.088,-2.4185529,6.6462564,6.6052155,5.1054707,-3.8539073,3.3093452
1.09,-2.6487546,6.7452216,6.7210126,5.10788,-3.8054676,3.2893114
1.092,-2.8689563,6.838822,6.827221,5.1094074,-3.756106,3.268416
1.094,-3.0788226,6.9266415,6.9229193,5.110072,-3.7057536,3.2466285
1.096,-3.2777815,7.0081,7.00689,5.109881,-3.6544218,3.2239416
1.098,-3.4656925,7.082807,7.0782065,5.1088486,-3.6021712,3.2003322
1.1,-3.6420703,7.1502886,7.1359463,5.1069946,-3.5491574,3.1758041
1.102,-3.806518,7.2101665,7.1789446,5.104325,-3.495514,3.1503325
1.104,-3.9587786,7.262131,7.206134,5.100848,-3.4414952,3.123942
1.106,-4.0986686,7.3059454,7.2166533,5.0965347,-3.3874722,3.0967085
1.108,-4.226865,7.341703,7.210089,5.0913606,-3.3337932,3.0686245
1.11,-4.34373,7.3695474,7.1862364,5.0853033,-3.280832,3.0397243
1.112,-4.4500513,7.389841,7.145376,5.0782995,-3.229054,3.0100513
1.114,-4.5466857,7.4030213,7.087999,5.0702543,-3.1789384,2.9797266
1.116,-4.634333,7.4098706,7.014827,5.0610743,-3.130984,2.948897
1.118,-4.7139397,7.4112425,6.9268155,5.050622,-3.0857196,2.9177032
1.12,-4.786274,7.4080405,6.8250823,5.038746,-3.0436833,2.8862853
1.122,-4.8522463,7.4013376,6.7110615,5.0253367,-3.0053682,2.8547225
1.124,-4.912993,7.3924217,6.5865,5.010306,-2.9712024,2.823048
1.126,-4.969164,7.382503,6.4535213,4.9936323,-2.941522,2.791257
1.128,-5.0229907,7.373396,6.314088,4.9753327,-2.9166307,2.7592807
1.13,-5.0751204,7.366066,6.1713705,4.955451,-2.8967533,2.727011
1.132,-5.1263676,7.362018,6.027134,4.934091,-2.8820164,2.6942792
1.134,-5.1787033,7.3629284,5.884226,4.911384,-2.8724542,2.6608882
1.136,-5.233,7.3701763,5.7451887,4.8874736,-2.8680112,2.6266184
1.138,-5.290616,7.3851175,5.612525,4.86253,-2.868504,2.5912566
1.14,-5.3529606,7.408956,5.488889,4.836739,-2.8736255,2.5546052
1.142,-5.421318,7.4429646,5.3767586,4.810298,-2.8829484,2.5165067
1.144,-5.496638,7.488365,5.2783585,4.783444,-2.8958788,2.4768586
1.146,-5.5803356,7.5462584,5.1957483,4.7564588,-2.911672,2.435661
1.148,-5.673113,7.617517,5.1307874,4.7296467,-2.9294438,2.3929846
1.15,-5.7758255,7.70282,5.0848207,4.703328,-2.9481852,2.348989
1.152,-5.889115,7.802765,5.059064,4.6778197,-2.9668565,2.303914
1.154,-6.013137,7.917488,5.0541177,4.6534185,-2.9844117,2.2580414
1.156,-6.1483126,8.047209,5.0702333,4.630368,-2.9998696,2.2116528
1.158,-6.2945085,8.191783,5.1075797,4.608843,-3.012386,2.1649706
1.16,-6.451372,8.350666,5.165855,4.5889244,-3.021297,2.1181417
1.162,-6.618534,8.523159,5.244281,4.570608,-3.0262225,2.0712075
1.164,-6.7954755,8.708294,5.341868,4.5538125,-3.0270386,2.0240388
1.166,-6.9812765,8.904918,5.4571304,4.538382,-3.0238543,1.9763634
1.168,-7.174898,9.111593,5.5883226,4.5241265,-3.017003,1.9277809
1.17,-7.375023,9.326778,5.73352,4.5108128,-3.00697,1.8778062
1.172,-7.5801888,9.548643,5.890318,4.498179,-2.9943535,1.8259668
1.174,-7.7888007,9.775375,6.0562706,4.4859457,-2.9798226,1.7718132
1.176,-7.999233,10.004954,6.2289433,4.4738045,-2.9640162,1.7149673
1.178,-8.209744,10.235359,6.4058595,4.461435,-2.9475043,1.655156
1.18,-8.418569,10.464513,6.5845714,4.4485126,-2.930743,1.5922271
1.182,-8.623938,10.690236,6.7629175,4.434709,-2.9140522,1.52617
1.184,-8.82428,10.910477,6.9387255,4.4196978,-2.8976438,1.4570827
1.186,-9.017685,11.123192,7.1100106,4.403164,-2.8816419,1.385141
1.188,-9.20276,11.326516,7.274991,4.3848443,-2.8660808,1.3105435
1.19,-9.378383,11.518976,7.432338,4.3645267,-2.8508878,1.2334988
1.192,-9.543517,11.699335,7.5810943,4.342083,-2.835928,1.1542015
1.194,-9.697465,11.866534,7.720566,4.317487,-2.8209836,1.0728282
1.196,-9.839436,12.01976,7.8503423,4.290803,-2.805773,0.98953164
1.198,-9.968977,12.158495,7.970099,4.2621937,-2.789945,0.9044492
1.2,-10.086006,12.282494,8.079796,4.231881,-2.7730727,0.8177117
1.202,-10.190896,12.391775,8.179847,4.2001534,-2.7546918,0.7294586
1.204,-10.283961,12.486733,8.270541,4.167342,-2.7343104,0.63985217
1.206,-10.365951,12.568035,8.352251,4.1337523,-2.7114234,0.5490756
1.208,-10.437704,12.63638,8.425608,4.0996666,-2.685592,0.4573096
1.21,-10.5006275,12.692945,8.491338,4.06531,-2.656437,0.3647502
1.212,-10.556065,12.738884,8.550318,4.030813,-2.6236908,0.27161807
1.214,-10.605842,12.775716,8.603584,3.9962435,-2.5872095,0.17811811
1.216,-10.6517935,12.805119,8.652056,3.961584,-2.5470216,0.08445543
1.218,-10.695324,12.828563,8.696545,3.926746,-2.5033598,-0.009171426
1.22,-10.738114,12.847779,8.737888,3.89159,-2.4566453,-0.10260421
1.222,-10.781535,12.864386,8.777033,3.8559546,-2.4074686,-0.19574142
1.224,-10.827243,12.879919,8.814835,3.819662,-2.3565934,-0.28855026
1.226,-10.876654,12.895811,8.852034,3.782554,-2.3048725,-0.38110602
1.228,-10.930866,12.9134,8.889193,3.7444751,-2.2532098,-0.4735723
1.23,-10.990946,12.933987,8.926758,3.7053013,-2.2025793,-0.56621736
1.232,-11.057703,12.958795,8.964977,3.66492,-2.1539075,-0.6593846
1.234,-11.131292,12.988598,9.004055,3.6232567,-2.1079633,-0.75349414
1.236,-11.211578,13.023964,9.043815,3.5802584,-2.0653615,-0.8489867
1.238,-11.2982855,13.065303,9.084175,3.535901,-2.0265641,-0.9462896
1.24,-11.390532,13.112693,9.125191,3.490168,-1.9918528,-1.0457643
1.242,-11.487296,13.166077,9.1666565,3.4430764,-1.9613565,-1.1476842
1.244,-11.587439,13.225047,9.208418,3.3946345,-1.9350858,-1.2522327
1.246,-11.689547,13.289066,9.250285,3.3448293,-1.9130113,-1.3595095
1.248,-11.79175,13.357359,9.291939,3.2936387,-1.8950826,-1.4695375
1.25,-11.892389,13.4288845,9.333316,3.241039,-1.8812655,-1.5823017
1.252,-11.989369,13.5024805,9.374302,3.1869612,-1.8715826,-1.6977663
1.254,-12.080864,13.5769005,9.414829,3.1313417,-1.8660536,-1.8158765
1.256,-12.164907,13.650875,9.454687,3.0741198,-1.8646759,-1.936549
1.258,-12.239687,13.723199,9.493483,3.0152457,-1.8674047,-2.0596871
1.26,-12.3033905,13.792822,9.531078,2.9547,-1.8741317,-2.1851435
1.262,-12.354374,13.858517,9.567322,2.8925126,-1.884625,-2.3127275
1.264,-12.391412,13.919278,9.602303,2.8287768,-1.8985286,-2.4422097
1.266,-12.41335,13.974113,9.636448,2.7636418,-1.9153556,-2.5733156
1.268,-12.419464,14.022169,9.66984,2.6972976,-1.9344823,-2.7056904
1.27,-12.409144,14.06299,9.702732,2.629967,-1.9551487,-2.8389392
1.272,-12.382284,14.096104,9.735645,2.561882,-1.9765164,-2.9726143
1.274,-12.338877,14.121413,9.769081,2.4932547,-1.9977192,-3.106239
1.276,-12.279268,14.138915,9.80357,2.424268,-2.0179317,-3.239341
1.278,-12.203928,14.148821,9.839834,2.35506,-2.0363655,-3.3714848
1.28,-12.113759,14.151374,9.878659,2.2857223,-2.0523365,-3.5022573
1.282,-12.009938,14.14718,9.920577,2.2163124,-2.0652885,-3.6313276
1.284,-11.893904,14.1370735,9.966338,2.1468542,-2.0747952,-3.7584186
1.286,-11.767115,14.121882,10.016674,2.0773573,-2.0806167,-3.8833632
1.288,-11.631369,14.102631,10.07242,2.0078182,-2.082708,-4.0060654
1.29,-11.4885025,14.080425,10.13423,1.9382439,-2.0811281,-4.1265163
1.292,-11.340172,14.056426,10.202927,1.8686467,-2.0760105,-4.24478
1.294,-11.188229,14.031914,10.279171,1.7990264,-2.0676136,-4.360988
1.296,-11.034633,14.008114,10.363546,1.7293594,-2.0562716,-4.475311
1.298,-10.880882,13.986189,10.456543,1.6596181,-2.042367,-4.5879283
1.3,-10.7285385,13.967267,10.558607,1.5897572,-2.0262673,-4.6990194
1.302,-10.579141,13.952247,10.670143,1.5197119,-2.0083117,-4.8087554
1.304,-10.43402,13.942118,10.79125,1.4494057,-1.9888294,-4.9172745
1.306,-10.294615,13.93755,10.921899,1.3787812,-1.9681146,-5.0247126
1.308,-10.161809,13.93906,11.061691,1.3077899,-1.9464419,-5.131225
1.31,-10.036633,13.9473715,11.209955,1.2364173,-1.9239962,-5.236988
1.312,-9.919448,13.962805,11.365515,1.1647124,-1.9008589,-5.342191
1.314,-9.810556,13.985388,11.527189,1.0927671,-1.8770275,-5.447037
1.316,-9.710112,14.014973,11.693885,1.020735,-1.8524109,-5.5517235
1.318,-9.618001,14.051327,11.864077,0.94884145,-1.826804,-5.656439
1.32,-9.533989,14.093828,12.035999,0.87735355,-1.7999104,-5.7613535
1.322,-9.457946,14.141898,12.207815,0.8065746,-1.77138,-5.866627
1.324,-9.389011,14.194564,12.377353,0.73683465,-1.7408437,-5.972337
1.326,-9.326382,14.250683,12.542274,0.66845155,-1.7079301,-6.0785275
1.328,-9.268898,14.309129,12.699858,0.601727,-1.672324,-6.1852055
1.33,-9.215624,14.368636,12.847555,0.53690815,-1.633783,-6.292326
1.332,-9.165339,14.4279,12.982798,0.4742,-1.5921769,-6.399809
1.334,-9.116238,14.485541,13.103093,0.4137491,-1.5474646,-6.507599
1.336,-9.066804,14.540147,13.206165,0.35565615,-1.4997193,-6.615631
1.338,-9.015257,14.590324,13.289835,0.29999733,-1.4490743,-6.723849
1.34,-8.959574,14.6345415,13.352058,0.246827,-1.3957003,-6.832189
1.342,-8.897665,14.6712055,13.391123,0.19622767,-1.3397934,-6.940616
1.344,-8.827436,14.698989,13.405807,0.14828384,-1.2815971,-7.049095
1.346,-8.746923,14.7165165,13.395363,0.103097916,-1.2213879,-7.1576138
1.348,-8.653731,14.7224245,13.359062,0.0607754,-1.1594775,-7.2661552
1.35,-8.545731,14.715475,13.296576,0.021400452,-1.0962582,-7.3747215
1.352,-8.420633,14.694241,13.208206,-0.014965892,-1.0322504,-7.4833307
1.354,-8.276064,14.657704,13.094471,-0.048304796,-0.96813154,-7.59201
1.356,-8.110142,14.604731,12.956614,-0.078674674,-0.90476346,-7.700793
1.358,-7.921051,14.534489,12.796097,-0.10617828,-0.84316564,-7.809741
1.36,-7.707017,14.446241,12.614626,-0.13099766,-0.78450966,-7.918919
1.362,-7.466875,14.339469,12.414278,-0.15334535,-0.73002386,-8.028383
1.364,-7.1996408,14.213816,12.197211,-0.17347932,-0.6809275,-8.138182
1.366,-6.904317,14.069233,11.965751,-0.19169903,-0.6383381,-8.248335
1.368,-6.580827,13.90576,11.722336,-0.20830059,-0.60317636,-8.358814
1.37,-6.229007,13.723609,11.469299,-0.223616,-0.5761516,-8.469563
1.372,-5.849333,13.523097,11.209233,-0.23799288,-0.55778384,-8.58046
1.374,-5.4425673,13.30483,10.944528,-0.25178897,-0.54838204,-8.691334
1.376,-5.009888,13.069618,10.677066,-0.265396,-0.54812694,-8.801976
1.378,-4.552742,12.818755,10.40904,-0.27923226,-0.55711675,-8.912191
1.38,-4.073259,12.553549,10.142509,-0.29374468,-0.57547355,-9.021768
1.382,-3.5736325,12.275742,9.879492,-0.30941296,-0.603384,-9.130535
1.384,-3.0562983,11.986899,9.6219015,-0.32672435,-0.6411693,-9.238364
1.386,-2.523974,11.688876,9.371485,-0.34617454,-0.68930197,-9.345171
1.388,-1.9793121,11.383591,9.12969,-0.3682261,-0.7483227,-9.450897
1.39,-1.424999,11.073215,8.897913,-0.3933078,-0.818799,-9.555525
1.392,-0.8638854,10.759826,8.677517,-0.4217891,-0.9012711,-9.659045
1.394,-0.29873562,10.445713,8.469493,-0.45395064,-0.99613094,-9.761467
1.396,0.2678268,10.133074,8.274464,-0.48996168,-1.1035309,-9.862737
1.398,0.83337426,9.824161,8.092741,-0.52984184,-1.2233019,-9.962752
1.4,1.3958007,9.521057,7.924575,-0.573462,-1.354928,-10.061372
1.402,1.9531881,9.22591,7.7698736,-0.620511,-1.4975233,-10.1584
1.404,2.5040636,8.940629,7.6285152,-0.6704968,-1.6498222,-10.253562
1.406,3.047247,8.666913,7.500311,-0.72276133,-1.8102374,-10.346496
1.408,3.5818005,8.406284,7.38511,-0.77651197,-1.9769845,-10.436794
1.41,4.1073513,8.159948,7.2830076,-0.8308724,-2.1481996,-10.52402
1.412,4.6235723,7.9290276,7.193885,-0.8849373,-2.322062,-10.607758
1.414,5.1305313,7.714071,7.118067,-0.93783474,-2.496913,-10.687681
1.416,5.6287265,7.5154643,7.0557184,-0.9888316,-2.6714482,-10.763567
1.418,6.1188087,7.3332767,7.0072145,-1.0373559,-2.8448465,-10.835324
1.42,6.6020355,7.167035,6.9732113,-1.0830575,-3.0168033,-10.902983
1.422,7.0794067,7.0162544,6.954402,-1.1258066,-3.1875181,-10.966692
1.424,7.552044,6.8802404,6.9514914,-1.1657029,-3.3576827,-11.026724
1.426,8.0213585,6.7583055,6.965208,-1.2030632,-3.5283628,-11.083414
1.428,8.488988,6.6492434,6.9962387,-1.2383574,-3.700889,-11.137114
1.43,8.956457,6.5518937,7.045349,-1.2721589,-3.8767104,-11.188156
1.432,9.425723,6.4649973,7.1134615,-1.3050892,-4.0572133,-11.236797
1.434,9.898053,6.3872676,7.2019215,-1.3377638,-4.243592,-11.28325
1.436,10.374481,6.3176513,7.31217,-1.3707843,-4.4367523,-11.327616
1.438,10.855709,6.25508,7.445692,-1.4046974,-4.637288,-11.369953
1.44,11.342714,6.1982603,7.6037207,-1.4400427,-4.8454957,-11.410253
1.442,11.835951,6.1464787,7.787261,-1.4773512,-5.061481,-11.448513
1.444,12.335564,6.098721,7.99736,-1.5171227,-5.285202,-11.48473
1.446,12.841425,6.054698,8.234524,-1.5598667,-5.5165586,-11.518915
1.448,13.353312,6.014138,8.499136,-1.6060896,-5.7555,-11.551115
1.45,13.870269,5.977043,8.791397,-1.6562853,-6.00204,-11.581387
1.452,14.391445,5.943757,9.111088,-1.7109125,-6.2562222,-11.60981
1.454,14.915423,5.9146085,9.457321,-1.7703872,-6.518117,-11.636448
1.456,15.440998,5.8903456,9.829108,-1.8351102,-6.7878304,-11.661362
1.458,15.967029,5.8716187,10.225227,-1.9054177,-7.0654235,-11.684594
1.46,16.491867,5.859295,10.644663,-1.981601,-7.350754,-11.706083
1.462,17.014105,5.854455,11.0859375,-2.0638514,-7.643371,-11.725691
1.464,17.53239,5.857785,11.54744,-2.152268,-7.942604,-11.743227
1.466,18.045427,5.8701296,12.027397,-2.2468395,-8.247503,-11.758413
1.468,18.552185,5.892222,12.524002,-2.3474483,-8.556875,-11.770921
1.47,19.051922,5.9249334,13.034821,-2.4538393,-8.869285,-11.780409
1.472,19.544537,5.9687295,13.557262,-2.565651,-9.183153,-11.786562
1.474,20.03035,6.023999,14.089048,-2.6823707,-9.496775,-11.789066
1.476,20.509521,6.090887,14.628099,-2.8034267,-9.808527,-11.787634
1.478,20.982908,6.169541,15.172609,-2.928146,-10.116925,-11.782047
1.48,21.45104,6.259856,15.720577,-3.0557761,-10.420606,-11.772183
1.482,21.915432,6.361438,16.269743,-3.185524,-10.718408,-11.757958
1.484,22.37743,6.47384,16.817892,-3.3166013,-11.009335,-11.739351
1.486,22.838995,6.596491,17.363075,-3.4482198,-11.292613,-11.716338
1.488,23.302229,6.7284317,17.903164,-3.5796046,-11.56761,-11.688857
1.49,23.7693,6.8686314,18.43602,-3.7100382,-11.833765,-11.656836
1.492,24.242378,7.015805,18.959435,-3.8388124,-12.090565,-11.62017
1.494,24.723797,7.168731,19.471603,-3.965261,-12.337477,-11.578684
1.496,25.215403,7.325989,19.970825,-4.0887885,-12.574005,-11.532147
1.498,25.719055,7.4863195,20.455742,-4.208848,-12.799684,-11.480304
1.5,26.236162,7.6482444,20.925041,-4.324937,-13.014112,-11.422921
1.502,26.768269,7.8102684,21.377697,-4.4366174,-13.216979,-11.359756
1.504,27.316364,7.9708376,21.812786,-4.543494,-13.408139,-11.290636
1.506,27.881435,8.128603,22.229397,-4.645213,-13.587561,-11.215418
1.508,28.464136,8.282322,22.62679,-4.74145,-13.755264,-11.133974
1.51,29.064575,8.430796,23.004398,-4.831854,-13.911222,-11.046228
1.512,29.682484,8.572881,23.36214,-4.91611,-14.055368,-10.95213
1.514,30.317533,8.707369,23.700203,-4.99389,-14.187635,-10.851631
1.516,30.96869,8.833172,24.019093,-5.0648727,-14.3078575,-10.744699
1.518,31.635342,8.949469,24.318953,-5.128726,-14.4157715,-10.631376
1.52,32.316,9.055725,24.600214,-5.1851225,-14.511126,-10.511811
1.522,33.009228,9.151113,24.864197,-5.2337203,-14.593695,-10.386187
1.524,33.713512,9.235024,25.112309,-5.2741637,-14.663313,-10.254731
1.526,34.42695,9.30712,25.346224,-5.306074,-14.719855,-10.117687
1.528,35.147774,9.367085,25.567749,-5.3290334,-14.763304,-9.975336
1.53,35.87429,9.414475,25.778547,-5.3425574,-14.79362,-9.827917
1.532,36.60497,9.448934,25.980406,-5.3460956,-14.810778,-9.675643
1.534,37.33842,9.469952,26.17527,-5.339055,-14.814767,-9.518697
1.536,38.07279,9.477462,26.365368,-5.320793,-14.805505,-9.357277
1.538,38.80609,9.471674,26.552864,-5.2906065,-14.782847,-9.191587
1.54,39.536816,9.452644,26.739735,-5.2477846,-14.746598,-9.021914
1.542,40.263325,9.4203,26.927607,-5.191621,-14.696529,-8.848555
1.544,40.984375,9.374525,27.117508,-5.121415,-14.632426,-8.671814
1.546,41.699253,9.315311,27.310112,-5.036566,-14.55412,-8.491961
1.548,42.407734,9.242807,27.505852,-4.9365215,-14.46154,-8.309189
1.55,43.1092,9.157501,27.704931,-4.820873,-14.354813,-8.123659
1.552,43.803715,9.059421,27.90718,-4.6893578,-14.234243,-7.935405
1.554,44.49134,8.949013,28.112282,-4.541877,-14.100376,-7.7443514
1.556,45.1728,8.8262615,28.31969,-4.378519,-13.953966,-7.5503116
1.558,45.849026,8.691565,28.528547,-4.1995153,-13.795998,-7.3530703
1.56,46.521744,8.545575,28.737072,-4.0052314,-13.627648,-7.152363
1.562,47.19316,8.388989,28.943184,-3.7961383,-13.450282,-6.9479704
1.564,47.86622,8.22266,29.144844,-3.5727797,-13.26532,-6.7396746
1.566,48.54368,8.047867,29.340008,-3.3357174,-13.074201,-6.5273275
1.568,49.22892,7.866415,29.526688,-3.085477,-12.878254,-6.3108425
1.57,49.92655,7.6802278,29.702784,-2.8225355,-12.678715,-6.090106
1.572,50.64108,7.491802,29.867119,-2.5473347,-12.476715,-5.8649354
1.574,51.37731,7.304357,30.019457,-2.2602377,-12.273323,-5.635071
1.576,52.14052,7.1216707,30.160017,-1.9615521,-12.069564,-5.400145
1.578,52.936375,6.947932,30.29007,-1.6515558,-11.866526,-5.1597104
1.58,53.770775,6.7876916,30.412273,-1.3305418,-11.665375,-4.9132223
1.582,54.649406,6.6462026,30.529572,-0.9988141,-11.467358,-4.660078
1.584,55.57729,6.5303745,30.64455,-0.6566911,-11.273842,-4.3996344
1.586,56.55992,6.4474363,30.760094,-0.30448055,-11.086307,-4.131202
1.588,57.603535,6.4046893,30.879482,0.057501554,-10.90628,-3.8541284
1.59,58.713737,6.4103847,31.007446,0.42896652,-10.735256,-3.5677824
1.592,59.894012,6.4745564,31.14993,0.8097029,-10.574628,-3.2715456
1.594,61.147667,6.6073604,31.313509,1.1995997,-10.425612,-2.9647865
1.596,62.477028,6.8203526,31.504105,1.5986451,-10.289196,-2.646949
1.598,63.8816,7.127985,31.728788,2.006961,-10.1660795,-2.3175447
1.6,65.356155,7.5469327,31.993832,2.424722,-10.056809,-1.9761317
1.602,66.89994,8.088668,32.299927,2.8521287,-9.9618225,-1.6222031
1.604,68.51213,8.757971,32.6586,3.289293,-9.881505,-1.255182
1.606,70.186066,9.57209,33.08355,3.7361085,-9.816363,-0.8744575
1.608,71.91574,10.553661,33.575768,4.1921573,-9.767197,-0.47943932
1.61,73.695885,11.729242,34.13019,4.6565585,-9.735201,-0.069490135
1.612,75.5198,13.117359,34.7458,5.127995,-9.721675,0.35613865
1.614,77.37917,14.735346,35.4226,5.6045895,-9.728319,0.7981939
1.616,79.260605,16.609129,36.163147,6.0838737,-9.757284,1.2573514
1.618,81.150894,18.771807,36.965557,6.562941,-9.8106985,1.7345033
1.62,83.038925,21.25212,37.830894,7.038426,-9.890681,2.2307942
1.622,84.91014,24.064812,38.764614,7.50671,-9.99922,2.7474613
1.624,86.75392,27.196207,39.77767,7.964268,-10.137402,3.2861586
1.626,88.5552,30.66927,40.861835,8.407886,-10.305189,3.8490942
1.628,90.27194,34.529095,41.984463,8.834932,-10.501409,4.438712
1.63,91.8825,38.77904,43.168804,9.243645,-10.723169,5.057555
1.632,93.34544,43.41902,44.451157,9.633371,-10.965417,5.7092457
1.634,94.57031,48.444954,45.895157,10.003782,-11.222129,6.3985767
1.636,95.56563,53.813717,47.576355,10.355926,-11.484737,7.130351
1.638,96.43577,59.55594,49.399918,10.693701,-11.740238,7.9096217
1.64,97.347145,65.606514,51.391693,11.022523,-11.973812,8.741422
1.642,98.21104,71.955826,53.576828,11.347748,-12.170501,9.630771
1.644,99.03964,78.55053,55.983326,11.6744,-12.314081,10.58329
1.646,99.75553,85.35889,58.648117,12.006911,-12.386827,11.605207
1.648,100.370514,92.32625,61.60377,12.348487,-12.370284,12.703285
1.65,100.908676,99.4132,64.84923,12.700485,-12.2469845,13.884376
1.652,101.39407,106.55107,68.48631,13.061574,-12.000533,15.154518
1.654,101.84924,113.63612,72.576164,13.426098,-11.616009,16.520374
1.656,102.31134,120.58342,77.019226,13.785831,-11.079254,17.987986
1.658,102.805374,127.23593,81.717545,14.132077,-10.377234,19.55795
1.66,103.39613,133.54102,86.84406,14.451018,-9.499015,21.224264
1.662,104.155914,139.44482,92.35272,14.724228,-8.432953,22.972767
1.664,104.65017,145.14265,98.32419,14.929591,-7.1666083,24.797144
1.666,105.70982,150.04086,104.78714,15.053418,-5.6867156,26.707344
1.668,107.08836,153.99313,111.6312,15.095926,-3.9860973,28.680763
1.67,108.79054,157.08325,118.76272,15.063508,-2.0578365,30.678305
1.672,110.834984,159.25208,126.0851,14.960568,0.1137867,32.670624
1.674,113.31218,160.4388,133.45683,14.794183,2.5405302,34.633675
1.676,116.274994,160.61974,140.7143,14.588999,5.22375,36.54766
1.678,119.76114,159.8039,147.71819,14.382093,8.15778,38.387
1.68,123.76759,158.03299,154.32884,14.213712,11.322443,40.12999
1.682,128.29028,155.3581,160.3759,14.129139,14.688711,41.742992
1.684,133.31056,151.85576,165.67314,14.168886,18.22831,43.164722
1.686,138.79504,147.61865,170.04604,14.354502,21.895351,44.342205
1.688,144.68819,142.75183,173.34169,14.674925,25.584297,45.251827
1.69,150.9025,137.37527,175.43005,15.116337,29.186592,45.85354
1.692,157.32506,131.62128,176.19505,15.686056,32.63505,46.10642
1.694,163.83052,125.62553,175.5414,16.389816,35.89106,45.930096
1.696,170.28835,119.52099,173.40544,17.151432,38.85096,45.28992
1.698,176.56491,113.43157,169.76698,17.86818,41.405342,44.17872
1.7,182.51631,107.474365,164.64674,18.481173,43.514687,42.58937
1.702,187.99936,101.75425,158.10124,18.95491,45.15156,40.54351
1.704,192.87953,96.36169,150.2251,19.256096,46.27948,38.072395
1.706,197.03339,91.370224,141.15414,19.364153,46.867912,35.21133
1.708,200.35419,86.83449,131.05392,19.285988,46.912266,31.994698
1.71,202.76059,82.78679,120.112335,19.053701,46.43265,28.46022
1.712,204.19347,79.24064,108.538536,18.710964,45.471703,24.654343
1.714,204.61519,76.19265,96.54007,18.305767,44.091515,20.634678
1.716,204.01486,73.61038,84.32762,17.880379,42.367886,16.473122
1.718,202.39783,71.45049,72.12109,17.462751,40.385643,12.247197
1.72,199.7912,69.664955,60.132534,17.055487,38.23089,8.043013
1.722,196.24637,68.21418,48.550385,16.640556,35.98719,3.9886847
1.724,191.83722,67.06114,37.541595,16.195469,33.719902,0.20915318
1.726,186.65561,66.16556,27.249718,15.701748,31.46625,-3.2060075
1.728,180.80533,65.48851,17.793728,15.140745,29.247581,-6.1969733
1.73,174.3989,65.00179,9.261398,14.488162,27.07168,-8.7366085
1.732,167.55696,64.69229,1.7088566,13.728561,24.93077,-10.826796
1.734,160.39705,64.57052,-4.838478,12.862137,22.812286,-12.506885
1.736,153.043,64.60568,-10.359354,11.896589,20.698906,-13.832195
1.738,145.63159,64.75648,-14.836091,10.849258,18.571737,-14.861377
1.74,138.26428,65.02656,-18.323717,9.746338,16.432495,-15.678564
1.742,131.0476,65.41404,-20.889729,8.617923,14.321295,-16.375685
1.744,124.10545,65.912766,-22.618446,7.4666133,12.249313,-16.993465
1.746,117.44771,66.53844,-23.588913,6.269986,10.190213,-17.54666
1.748,111.0197,67.22947,-23.735159,5.0223937,8.125683,-18.00623
1.75,104.76346,68.01146,-23.144104,3.7822213,6.1065273,-18.383043
1.752,98.86998,68.838745,-21.897636,2.5857396,4.1580715,-18.686296
1.754,93.38345,69.700806,-20.077618,1.4120014,2.243712,-18.906528
1.756,88.402084,70.55565,-17.768799,0.24318147,0.35412633,-19.053604
1.758,83.90464,71.379074,-15.047066,-0.9133979,-1.4869637,-19.138826
1.76,79.8575,72.12841,-11.961488,-2.0451922,-3.2516594,-19.177462
1.762,76.22855,72.787506,-8.652023,-3.1479516,-4.920797,-19.188993
1.764,72.988075,73.36161,-5.195265,-4.221415,-6.472783,-19.197031
1.766,70.09332,73.827415,-1.5395565,-5.260049,-7.8803463,-19.224226
1.768,67.51567,74.21826,2.3028326,-6.2521377,-9.112378,-19.28729
1.77,65.19471,74.46561,6.0675774,-7.182619,-10.138956,-19.392838
1.772,63.07949,74.53195,9.738888,-8.0341625,-10.935488,-19.535414
1.774,61.517857,74.21648,13.177291,-8.788347,-11.485748,-19.698313
1.776,59.69317,74.04391,16.318497,-9.427638,-11.783742,-19.857182
1.778,57.98776,73.96278,19.213161,-9.9380665,-11.833985,-19.985182
1.78,56.42375,73.75966,21.85305,-10.311052,-11.650479,-20.057259
1.782,54.989655,73.43784,24.210758,-10.544598,-11.255886,-20.054035
1.784,53.60845,73.02145,26.283283,-10.644426,-10.6813755,-19.964422
1.786,52.253513,72.517525,28.067041,-10.6240635,-9.965638,-19.786324
1.788,50.91074,71.928345,29.52709,-10.503616,-9.151934,-19.526089
1.79,49.59172,71.254486,30.638538,-10.308136,-8.286066,-19.196712
1.792,48.289852,70.51509,31.416489,-10.065651,-7.414618,-18.814829
1.794,46.997833,69.72444,31.894573,-9.804756,-6.5815563,-18.397728
1.796,45.70695,68.89957,32.102707,-9.552429,-5.8253574,-17.961662
1.798,44.414707,68.05767,32.067547,-9.332981,-5.177415,-17.52061
1.8,43.13029,67.209755,31.819517,-9.167034,-4.6607804,-17.08505
1.802,41.86577,66.35973,31.404522,-9.070399,-4.289362,-16.661144
1.804,40.625614,65.51001,30.876076,-9.053492,-4.0683107,-16.251005
1.806,39.40549,64.66319,30.284184,-9.120718,-3.995072,-15.85405
1.808,38.19817,63.822567,29.667667,-9.2703,-4.0604324,-15.46805
1.81,37.005333,62.986713,29.05946,-9.49511,-4.2499804,-15.08926
1.812,35.829964,62.151627,28.490955,-9.784131,-4.5454717,-14.712635
1.814,34.671516,61.314564,27.987553,-10.123272,-4.9255934,-14.332425
1.816,33.530006,60.47357,27.56387,-10.496332,-5.3668528,-13.942478
1.818,32.405495,59.628952,27.229706,-10.886351,-5.8446016,-13.536324
1.82,31.295399,58.78738,26.992928,-11.276527,-6.3333054,-13.107204
1.822,30.193722,57.96233,26.856207,-11.651335,-6.807645,-12.648919
1.824,29.10006,57.17012,26.817598,-11.997339,-7.2442093,-12.156681
1.826,28.01926,56.425816,26.870434,-12.303249,-7.6220913,-11.627667
1.828,26.96045,55.73944,27.00289,-12.560009,-7.923345,-11.061115
1.83,25.931648,55.117764,27.198673,-12.7609825,-8.133835,-10.458226
1.832,24.937412,54.56404,27.439137,-12.902008,-8.243831,-9.821857
1.834,23.980507,54.078064,27.70324,-12.981308,-8.24838,-9.156126
1.836,23.065098,53.657406,27.968243,-12.999489,-8.147286,-8.466122
1.838,22.193562,53.29954,28.215796,-12.959345,-7.9447904,-7.757534
1.84,21.366901,53.004135,28.430046,-12.86567,-7.6489773,-7.036424
1.842,20.587173,52.770905,28.598593,-12.724855,-7.2709284,-6.308908
1.844,19.857239,52.596756,28.713434,-12.544482,-6.8237014,-5.581042
1.846,19.177227,52.4795,28.766474,-12.332735,-6.321487,-4.8587866
1.848,18.548944,52.416214,28.7484,-12.098098,-5.77903,-4.1480722
1.85,17.974745,52.40399,28.651464,-11.848831,-5.2108927,-3.4546535
1.852,17.455574,52.439346,28.471977,-11.592498,-4.630741,-2.7839003
1.854,16.991413,52.517494,28.209583,-11.335688,-4.0507765,-2.1406276
1.856,16.580778,52.63252,27.86573,-11.083737,-3.4813385,-1.5289459
1.858,16.221464,52.77746,27.443317,-10.840643,-2.9307032,-0.9523562
1.86,15.910081,52.94565,26.947021,-10.609095,-2.405039,-0.41378844
1.862,15.64222,53.130955,26.383091,-10.3906355,-1.9084561,0.084367156
1.864,15.412676,53.32856,25.75869,-10.185843,-1.4431973,0.5403545
1.866,15.216229,53.533825,25.080647,-9.994626,-1.0099528,0.9531269
1.868,15.048062,53.74252,24.356117,-9.816481,-0.60831094,1.3223159
1.87,14.903118,53.951145,23.59202,-9.650717,-0.23718643,1.6482112
1.872,14.776602,54.15664,22.793869,-9.496597,0.104813516,1.93171
1.874,14.662943,54.356445,21.96672,-9.353491,0.41894352,2.1742377
1.876,14.557317,54.547485,21.1149,-9.220953,0.7060924,2.3776426
1.878,14.4550905,54.726707,20.241987,-9.098723,0.9666458,2.5440872
1.88,14.351849,54.889954,19.351648,-8.986752,1.2004547,2.6759543
1.882,14.243658,55.033688,18.446491,-8.885097,1.4068801,2.7757382
1.884,14.126886,55.15566,17.528389,-8.793833,1.585001,2.8459246
1.886,13.998867,55.254257,16.59943,-8.713011,1.733856,2.8889134
1.888,13.857758,55.32859,15.661869,-8.6425705,1.852715,2.9069488
1.89,13.702587,55.378056,14.717684,-8.582228,1.9412496,2.9021335
1.892,13.533485,55.402035,13.768593,-8.531488,1.9996709,2.8764632
1.894,13.350846,55.40015,12.81624,-8.489589,2.0287948,2.8317914
1.896,13.155472,55.371883,11.8621025,-8.455535,2.0300322,2.7699006
1.898,12.948679,55.31692,10.907652,-8.428062,2.005422,2.6925342
1.9,12.732206,55.235054,9.953736,-8.405611,1.957654,2.6014516
1.902,12.508405,55.125633,9.001028,-8.386357,1.889996,2.4984052
1.904,12.279253,54.988255,8.049836,-8.368299,1.806107,2.3851275
1.906,12.047492,54.822258,7.100424,-8.349355,1.7098324,2.2633011
1.908,11.815518,54.62716,6.152942,-8.327433,1.6050311,2.13453
1.91,11.585985,54.40247,5.207438,-8.300554,1.4955094,2.0003295
1.912,11.361128,54.147625,4.2642746,-8.26684,1.3849406,1.8620473
1.914,11.142983,53.86247,3.3234668,-8.22467,1.2766719,1.7208271
1.916,10.933475,53.54644,2.3851056,-8.172782,1.1735588,1.5775555
1.918,10.734311,53.199364,1.4487667,-8.110311,1.0778975,1.4328672
1.92,10.5466585,52.82102,0.51411533,-8.036839,0.99142337,1.2871587
1.922,10.37164,52.411423,-0.41964817,-7.952444,0.91523325,1.1405957
1.924,10.209771,51.970337,-1.3531389,-7.857697,0.84971374,0.99317646
1.926,10.061801,51.497826,-2.2866964,-7.753608,0.794585,0.84482765
1.928,9.927776,50.99411,-3.220395,-7.6415596,0.7489574,0.69544196
1.93,9.807627,50.459785,-4.1542816,-7.523202,0.7114424,0.54500175
1.932,9.701135,49.895428,-5.088566,-7.4003706,0.6802578,0.39357448
1.934,9.608025,49.301735,-6.022974,-7.274979,0.65337664,0.24133909
1.936,9.527348,48.67965,-6.9572754,-7.1488347,0.6287504,0.08865428
1.938,9.458401,48.03013,-7.8908215,-7.023609,0.6043166,-0.06398356
1.94,9.400061,47.354248,-8.822889,-6.900741,0.578123,-0.21600854
1.942,9.351555,46.653095,-9.751758,-6.781392,0.5484402,-0.36681998
1.944,9.311497,45.92801,-10.675741,-6.6663957,0.5139189,-0.51577556
1.946,9.278541,45.180744,-11.593561,-6.556242,0.47362784,-0.6622486
1.948,9.251936,44.412964,-12.503616,-6.451085,0.42706764,-0.805608
1.95,9.23045,43.62661,-13.404411,-6.3507586,0.37417093,-0.9452668
1.952,9.21319,42.82392,-14.294023,-6.2547874,0.31526217,-1.0806798
1.954,9.199194,42.00706,-15.170471,-6.1624255,0.25102043,-1.2113075
1.956,9.187568,41.17811,-16.031445,-6.0726795,0.1823651,-1.3366644
1.958,9.177512,40.33943,-16.874565,-5.984413,0.110381946,-1.4563183
1.96,9.168087,39.493443,-17.697468,-5.8963847,0.03625329,-1.5698508
1.962,9.158514,38.642483,-18.497787,-5.807287,-0.03874515,-1.6768652
1.964,9.147865,37.78894,-19.273565,-5.7158093,-0.11337894,-1.7769816
1.966,9.1353445,36.935394,-20.02261,-5.6207113,-0.18651628,-1.8698301
1.968,9.120159,36.0842,-20.74286,-5.5208535,-0.25708213,-1.9550446
1.97,9.101662,35.237583,-21.432251,-5.415202,-0.3241259,-2.0322816
1.972,9.079127,34.39778,-22.088547,-5.302938,-0.38691863,-2.1012282
1.974,9.051914,33.566746,-22.70994,-5.1833997,-0.4449138,-2.1615758
1.976,9.019401,32.746468,-23.294704,-5.056042,-0.49773076,-2.2130265
1.978,8.980955,31.938848,-23.841639,-4.92048,-0.545138,-2.2553554
1.98,8.936075,31.145687,-24.349865,-4.776447,-0.5871123,-2.288463
1.982,8.884554,30.368631,-24.81862,-4.623792,-0.6237685,-2.3123598
1.984,8.826043,29.609215,-25.247574,-4.4624467,-0.65532243,-2.3271708
1.986,8.760488,28.868685,-25.636587,-4.292386,-0.6820414,-2.3330615
1.988,8.687983,28.147919,-25.985851,-4.1136084,-0.70418745,-2.3302448
1.99,8.608742,27.44791,-26.295958,-3.9261646,-0.7220525,-2.3190002
1.992,8.52277,26.769276,-26.567345,-3.7301037,-0.7358668,-2.2995827
1.994,8.430851,26.112528,-26.800623,-3.525507,-0.7458141,-2.2722325
1.996,8.333708,25.477781,-26.99686,-3.312491,-0.7520349,-2.2371767
1.998,8.231898,24.865177,-27.157497,-3.0912266,-0.75468856,-2.194649
2,8.126134,24.274702,-27.283682,-2.8619456,-0.7539349,-2.1448858
2.002,8.016774,23.706366,-27.376564,-2.6249638,-0.74993294,-2.0881343
2.004,7.904611,23.160162,-27.437038,-2.3806987,-0.7428726,-2.0246239
2.006,7.7905407,22.636074,-27.466013,-2.1297033,-0.7329747,-1.9545994
2.008,7.6751995,22.13415,-27.464497,-1.8726476,-0.72052,-1.8783052
2.01,7.559554,21.654041,-27.433262,-1.61032,-0.70581603,-1.795955
2.012,7.444187,21.195744,-27.373026,-1.3435898,-0.6892289,-1.7077374
2.014,7.3300014,20.759201,-27.28406,-1.0733838,-0.67118627,-1.6137998
2.016,7.217825,20.344435,-27.166746,-0.8006719,-0.6522006,-1.5142426
2.018,7.1082134,19.95144,-27.020973,-0.52639353,-0.6328155,-1.4091197
2.02,7.00188,19.58037,-26.846851,-0.25144774,-0.6136329,-1.2984695
2.022,6.8996496,19.23148,-26.644293,0.023349911,-0.5953391,-1.1823368
2.024,6.802389,18.904898,-26.413218,0.29726666,-0.57864803,-1.0607909
2.026,6.7108917,18.601017,-26.15355,0.5696831,-0.56431603,-0.9339739
2.028,6.6257987,18.320152,-25.864956,0.84003335,-0.55317366,-0.8021026
2.03,6.547912,18.062565,-25.54724,1.1077855,-0.5460495,-0.66547066
2.032,6.47799,17.828236,-25.200169,1.3724484,-0.54375446,-0.52449286
2.034,6.416973,17.617298,-24.823732,1.6335877,-0.5470182,-0.37965292
2.036,6.3654494,17.429789,-24.418114,1.8908051,-0.55649203,-0.23152076
2.038,6.324324,17.265568,-23.983545,2.1437054,-0.5727899,-0.08075294
2.04,6.2943373,17.12432,-23.520706,2.3919146,-0.596431,0.07190949
2.042,6.2760587,17.005714,-23.029924,2.6351016,-0.62779707,0.22572535
2.044,6.269996,16.909172,-22.511963,2.8729827,-0.66711694,0.37996256
2.046,6.2769637,16.834013,-21.967829,3.1053514,-0.7144492,0.5339412
2.048,6.2976856,16.77964,-21.398806,3.3320663,-0.76971215,0.6870842
2.05,6.332895,16.745335,-20.806324,3.5530744,-0.8326539,0.83890593
2.052,6.3828926,16.730415,-20.19242,3.768382,-0.9028594,0.9890092
2.054,6.4484043,16.734112,-19.559093,3.9780483,-0.97979015,1.1371394
2.056,6.5299935,16.755424,-18.908056,4.182171,-1.0628222,1.2831378
2.058,6.628075,16.793367,-18.241434,4.380865,-1.1513271,1.4268721
2.06,6.7429085,16.847078,-17.561491,4.5742106,-1.2447104,1.5682083
2.062,6.87496,16.915625,-16.870785,4.762233,-1.3424516,1.7069833
2.064,7.024267,16.998283,-16.171976,4.9448915,-1.4441608,1.8429573
2.066,7.1911197,17.094475,-15.467646,5.122045,-1.5495878,1.9757782
2.068,7.3755875,17.203465,-14.760168,5.293442,-1.6586478,2.1049514
2.07,7.577472,17.324768,-14.051875,5.4587255,-1.7714117,2.2298496
2.072,7.796789,17.45784,-13.34501,5.61745,-1.8880683,2.349751
2.074,8.033349,17.602238,-12.641527,5.7691526,-2.0088634,2.4638834
2.076,8.286936,17.757515,-11.943205,5.913352,-2.1340854,2.5714645
2.078,8.557078,17.923273,-11.251503,6.049568,-2.2640674,2.671683
2.08,8.843295,18.099396,-10.567762,6.1773734,-2.3991394,2.763753
2.082,9.144902,18.285564,-9.89308,6.296427,-2.5395768,2.8469326
2.084,9.461179,18.4815,-9.227989,6.4065094,-2.6855788,2.9205697
2.086,9.7912855,18.687056,-8.572924,6.507556,-2.8372502,2.984152
2.088,10.134418,18.902111,-7.928015,6.5996222,-2.9945898,3.037275
2.09,10.489542,19.12637,-7.293117,6.6828985,-3.1574936,3.0797122
2.092,10.855327,19.359676,-6.6677504,6.7577395,-3.3257327,3.111424
2.094,11.230663,19.601831,-6.051117,6.8246226,-3.4989386,3.132563
2.096,11.614344,19.852703,-5.4425073,6.8841043,-3.676628,3.1434157
2.098,12.004855,20.112118,-4.8407884,6.936799,-3.8582227,3.1444006
2.1,12.400688,20.37975,-4.244763,6.9833574,-4.0430207,3.135999
2.102,12.800536,20.65527,-3.6531625,7.024439,-4.230215,3.118725
2.104,13.20274,20.938179,-3.0647717,7.060666,-4.4189167,3.0931103
2.106,13.605239,21.228525,-2.478588,7.092628,-4.608179,3.059638
2.108,14.007003,21.52531,-1.8931928,7.120861,-4.796998,3.0186844
2.11,14.40614,21.827812,-1.3071465,7.1458454,-4.984348,2.970599
2.112,14.800851,22.13515,-0.7193055,7.16801,-5.169184,2.9156814
2.114,15.189552,22.446327,-0.12877274,7.1877475,-5.350493,2.8541894
2.116,15.570405,22.76027,0.465281,7.2054267,-5.5273113,2.7863188
2.118,15.942062,23.075445,1.0633633,7.221397,-5.6987553,2.712254
2.12,16.302763,23.39051,1.6660428,7.235988,-5.8640246,2.6321797
2.122,16.650938,23.703728,2.2736192,7.249521,-6.0224466,2.546284
2.124,16.985075,24.013496,2.8862011,7.2622776,-6.1734467,2.4547558
2.126,17.303669,24.31785,3.5037498,7.274489,-6.31657,2.3577683
2.128,17.6056,24.614971,4.12573,7.286282,-6.4514637,2.2555337
2.13,17.889807,24.902914,4.751601,7.2977304,-6.5778446,2.1482859
2.132,18.155216,25.179897,5.380473,7.3088064,-6.695469,2.036332
2.134,18.401064,25.444033,6.0114627,7.3194094,-6.804119,1.9200921
2.136,18.6265,25.693506,6.6434517,7.329344,-6.9036164,1.8000149
2.138,18.831215,25.926624,7.2751465,7.338341,-6.9938254,1.6766324
2.14,19.014683,26.141857,7.9052253,7.3460526,-7.0746746,1.5505422
2.142,19.1766,26.33789,8.5320015,7.352173,-7.14608,1.4224527
2.144,19.3169,26.513393,9.154038,7.356441,-7.2079864,1.293107
2.146,19.435543,26.667135,9.769637,7.3586307,-7.260391,1.1632235
2.148,19.53263,26.798283,10.377214,7.3585286,-7.3034253,1.0334768
2.15,19.608349,26.90623,10.975077,7.3559785,-7.3373003,0.90448177
2.152,19.662954,26.990318,11.561577,7.350896,-7.3623075,0.7767843
2.154,19.696898,27.05045,12.135303,7.3432226,-7.3788204,0.65083706
2.156,19.710213,27.086468,12.695042,7.3329363,-7.3872766,0.52696073
2.158,19.70322,27.098318,13.239462,7.3200536,-7.388179,0.40534884
2.16,19.67636,27.086218,13.767479,7.304576,-7.382044,0.2860787
2.162,19.630266,27.050491,14.277981,7.2865334,-7.3693933,0.16912016
2.164,19.565222,26.991417,14.770109,7.265982,-7.35073,0.054349005
2.166,19.481863,26.90956,15.243055,7.242996,-7.326492,-0.058404744
2.168,19.380657,26.805483,15.695998,7.217686,-7.29703,-0.16934843
2.17,19.262476,26.679852,16.128227,7.190152,-7.2626076,-0.2786963
2.172,19.127897,26.533264,16.5391,7.160537,-7.2233977,-0.38665122
2.174,18.978172,26.366463,16.928013,7.1289687,-7.179479,-0.49337405
2.176,18.813915,26.18005,17.294266,7.095597,-7.1308064,-0.59895927
2.178,18.636503,25.975018,17.637007,7.06056,-7.0772276,-0.70345175
2.18,18.447254,25.751991,17.955593,7.0239906,-7.0184774,-0.8068205
2.182,18.247597,25.511944,18.249437,6.9860168,-6.9541965,-0.90902877
2.184,18.039436,25.255762,18.517784,6.9467244,-6.883944,-1.0099726
2.186,17.824486,24.98457,18.759808,6.906226,-6.8072095,-1.1095184
2.188,17.605104,24.699566,18.974634,6.8646197,-6.7234645,-1.2075354
2.19,17.383526,24.401789,19.161491,6.822003,-6.6321526,-1.3038316
2.192,17.162443,24.09248,19.319359,6.77847,-6.532748,-1.3981593
2.194,16.94452,23.773075,19.447214,6.734144,-6.424807,-1.4902304
2.196,16.732765,23.445057,19.544167,6.689075,-6.3080378,-1.5796993
2.198,16.53008,23.109976,19.609455,6.6433234,-6.182329,-1.6661482
2.2,16.339502,22.769611,19.642563,6.5969386,-6.047732,-1.7490371
2.202,16.164299,22.425493,19.642876,6.5499816,-5.9045043,-1.8277664
2.204,16.007484,22.079445,19.610128,6.5024405,-5.7531266,-1.9017421
2.206,15.87178,21.733257,19.544363,6.4542465,-5.5943503,-1.9704294
2.208,15.760103,21.388655,19.445715,6.405259,-5.4291954,-2.0334206
2.21,15.67477,21.047396,19.31465,6.355232,-5.2589154,-2.0904567
2.212,15.617738,20.711395,19.151806,6.303803,-5.085009,-2.1414948
2.214,15.590709,20.382133,18.95827,6.25053,-4.9091697,-2.186685
2.216,15.595267,20.060873,18.735355,6.1948557,-4.733224,-2.22641
2.218,15.631465,19.749409,18.484303,6.136114,-4.559128,-2.2612667
2.22,15.699589,19.448967,18.206669,6.0736017,-4.3888707,-2.2920012
2.222,15.799441,19.160492,17.904455,6.0065966,-4.224383,-2.3194406
2.224,15.929919,18.884855,17.579838,5.9344106,-4.0674987,-2.3444643
2.226,16.089912,18.622524,17.235039,5.856437,-3.9198618,-2.3679605
2.228,16.277426,18.374117,16.87265,5.772178,-3.7829041,-2.3908296
2.23,16.49022,18.139858,16.495275,5.681291,-3.6577954,-2.4139209
2.232,16.725563,17.919937,16.105574,5.5836344,-3.5454433,-2.4380262
2.234,16.98032,17.714352,15.706247,5.4792395,-3.4464624,-2.4638689
2.236,17.25146,17.522928,15.299993,5.368319,-3.3612087,-2.4920955
2.238,17.53558,17.345245,14.889509,5.25128,-3.289794,-2.5232928
2.24,17.829123,17.18088,14.477293,5.128643,-3.2321296,-2.5579553
2.242,18.128819,17.029202,14.065736,5.001043,-3.187983,-2.596454
2.244,18.431293,16.889624,13.657034,4.8692,-3.1569703,-2.6390183
2.246,18.733707,16.76148,13.253144,4.7338705,-3.1385906,-2.6857388
2.248,19.032997,16.64401,12.855947,4.5957823,-3.1322799,-2.7365391
2.25,19.32667,16.536495,12.467087,4.455631,-3.1374192,-2.7911978
2.252,19.612514,16.438187,12.088284,4.314034,-3.1533167,-2.8493752
2.254,19.888412,16.348572,11.720898,4.1715393,-3.1792517,-2.9106588
2.256,20.152264,16.267399,11.366202,4.028631,-3.2144842,-2.9746065
2.258,20.403683,16.19385,11.024981,3.8857198,-3.258296,-3.0407732
2.26,20.64102,16.127495,10.69832,3.7431376,-3.3099828,-3.1087646
2.262,20.863827,16.067966,10.386726,3.6011953,-3.3688269,-3.1782353
2.264,21.071608,16.014845,10.090628,3.4602318,-3.4341235,-3.248897
2.266,21.264427,15.967869,9.810326,3.3205788,-3.5052276,-3.3204956
2.268,21.442234,15.926862,9.546009,3.1825335,-3.5816197,-3.3928275
2.27,21.60534,15.891623,9.297773,3.0463793,-3.6628854,-3.4657083
2.272,21.754204,15.86198,9.065412,2.9123528,-3.7486758,-3.5389514
2.274,21.889378,15.838095,8.848699,2.7806504,-3.8387074,-3.6123867
2.276,22.011448,15.819792,8.647265,2.6513872,-3.932743,-3.68587
2.278,22.121113,15.807042,8.4606905,2.5245988,-4.0304775,-3.759262
2.28,22.219193,15.799772,8.288278,2.4002361,-4.131503,-3.83242
2.282,22.30663,15.79785,8.129162,2.2781963,-4.235241,-3.9052057
2.284,22.383991,15.801155,7.982361,2.1583462,-4.340925,-3.9774976
2.286,22.452444,15.809389,7.846814,2.0405712,-4.4475865,-4.049171
2.288,22.512733,15.822061,7.7213044,1.9247682,-4.5540824,-4.1201315
2.29,22.565697,15.838894,7.6041994,1.8108995,-4.6591606,-4.1902823
2.292,22.612047,15.859391,7.493847,1.6990168,-4.761579,-4.259486
2.294,22.652523,15.883069,7.3884907,1.5892537,-4.860175,-4.3275833
2.296,22.687866,15.909268,7.2864647,1.4818916,-4.953926,-4.3943725
2.298,22.718636,15.9371805,7.1859727,1.3772933,-5.0420303,-4.45962
2.3,22.745443,15.966249,7.0853977,1.2759268,-5.1239705,-4.523084
2.302,22.768755,15.995698,6.9831285,1.1783419,-5.199471,-4.5844636
2.304,22.788902,16.024818,6.8777566,1.0851579,-5.268473,-4.6434565
2.306,22.806234,16.052746,6.7678065,0.996999,-5.3311057,-4.699717
2.308,22.821022,16.078846,6.651934,0.91446304,-5.3876677,-4.752877
2.31,22.833565,16.102486,6.529075,0.8380847,-5.4385295,-4.802577
2.312,22.84402,16.123226,6.3983293,0.7683027,-5.4841504,-4.848471
2.314,22.85248,16.140524,6.2591424,0.7054584,-5.5250554,-4.8902197
2.316,22.859163,16.154097,6.1111917,0.6497371,-5.5618763,-4.927538
2.318,22.863913,16.16387,5.95446,0.60117626,-5.5953045,-4.9602256
2.32,22.866787,16.169827,5.7892084,0.5596876,-5.626081,-4.9881654
2.322,22.867874,16.172192,5.6159396,0.5250778,-5.654961,-5.0113215
2.324,22.867077,16.171482,5.435576,0.49705672,-5.6827145,-5.029744
2.326,22.864271,16.168163,5.249237,0.47526622,-5.7100844,-5.04356
2.328,22.859413,16.162693,5.0583515,0.45926,-5.7377253,-5.052916
2.33,22.852295,16.155827,4.864457,0.44856644,-5.766126,-5.057971
2.332,22.842777,16.148415,4.66919,0.44270515,-5.7955832,-5.0588536
2.334,22.830803,16.141125,4.4742575,0.44117975,-5.826199,-5.0556564
2.336,22.815914,16.134897,4.2814817,0.44351625,-5.857818,-5.0484433
2.338,22.79781,16.130558,4.092455,0.4492693,-5.890087,-5.037259
2.34,22.776531,16.128939,3.9086533,0.4580791,-5.9224377,-5.0221357
2.342,22.751919,16.130585,3.7315722,0.46968508,-5.954155,-5.00309
2.344,22.723986,16.136024,3.5624626,0.48393178,-5.9844255,-4.9802203
2.346,22.692348,16.14584,3.4025059,0.50080395,-6.0123825,-4.9536977
2.348,22.65683,16.160454,3.2527897,0.52037644,-6.037182,-4.923792
2.35,22.617464,16.179844,3.1141238,0.5427966,-6.0580554,-4.8908496
2.352,22.574228,16.204123,2.9870799,0.56831765,-6.074355,-4.855278
2.354,22.527061,16.23317,2.8721294,0.59720397,-6.085553,-4.817527
2.356,22.475945,16.266624,2.7695062,0.6297307,-6.0912666,-4.7780457
2.358,22.420876,16.304188,2.6791568,0.66613555,-6.0913253,-4.737258
2.36,22.362251,16.345366,2.6008976,0.70660424,-6.0857296,-4.695558
2.362,22.300144,16.389626,2.5342991,0.75128293,-6.0746136,-4.6533027
2.364,22.234957,16.436302,2.4788594,0.8002343,-6.0583096,-4.6107926
2.366,22.167473,16.484482,2.4339967,0.85344934,-6.037286,-4.568285
2.368,22.097225,16.533813,2.3993056,0.9108529,-6.012151,-4.5260262
2.37,22.025517,16.583422,2.373959,0.9723264,-5.9835873,-4.4842544
2.372,21.952496,16.632805,2.35743,1.0377125,-5.952316,-4.4431963
2.374,21.87873,16.681202,2.348995,1.1068182,-5.919056,-4.403065
2.376,21.804611,16.72812,2.3479805,1.1794344,-5.884465,-4.3640175
2.378,21.730745,16.772987,2.3537014,1.2553173,-5.8491135,-4.3261657
2.38,21.657545,16.815386,2.3656197,1.3342125,-5.8134384,-4.2895484
2.382,21.585485,16.854906,2.383073,1.4158587,-5.777703,-4.2541275
2.384,21.5151,16.891056,2.4055173,1.4999708,-5.7419963,-4.219794
2.386,21.446611,16.923754,2.432314,1.5862514,-5.706244,-4.186411
2.388,21.38031,16.95266,2.4628563,1.674402,-5.670212,-4.153817
2.39,21.316362,16.977596,2.4965124,1.764128,-5.63359,-4.121874
2.392,21.254833,16.998648,2.5327039,1.8551567,-5.595976,-4.090484
2.394,21.195889,17.015585,2.570818,1.9472245,-5.5569415,-4.059644
2.396,21.139416,17.028498,2.6103034,2.0400953,-5.516086,-4.0294147
2.398,21.085161,17.03754,2.6505756,2.1335454,-5.473052,-3.9999077
2.4,21.033066,17.042788,2.691061,2.2273502,-5.4275303,-3.9712584
2.402,20.98279,17.044418,2.7311897,2.3213224,-5.3792973,-3.9436002
2.404,20.93402,17.042412,2.770574,2.4152656,-5.3281984,-3.91702
2.406,20.886526,17.036987,2.808536,2.5089765,-5.2741766,-3.8915622
2.408,20.839954,17.028538,2.8445725,2.6022723,-5.2172623,-3.867193
2.41,20.793861,17.017174,2.878129,2.6949697,-5.1575665,-3.8438387
2.412,20.747866,17.003157,2.9088533,2.7868834,-5.0952544,-3.8213737
2.414,20.701786,16.986603,2.9364164,2.8778555,-5.0305576,-3.7996454
2.416,20.655422,16.967815,2.9605653,2.967714,-4.9637437,-3.778499
2.418,20.608372,16.946943,2.9812696,3.0563397,-4.895114,-3.7578094
2.42,20.560526,16.924149,2.9984844,3.1436048,-4.8249974,-3.7374876
2.422,20.511612,16.899616,3.012331,3.2293935,-4.7537107,-3.7174783
2.424,20.461512,16.873472,3.0229168,3.313622,-4.681609,-3.6978054
2.426,20.410204,16.845793,3.0305812,3.3962185,-4.6090527,-3.6785479
2.428,20.357641,16.816633,3.0357046,3.4771323,-4.5363884,-3.6598315
2.43,20.30397,16.78596,3.038679,3.5563378,-4.4639487,-3.6418254
2.432,20.248987,16.753733,3.040081,3.6338303,-4.3920636,-3.6247046
2.434,20.192875,16.719786,3.0403526,3.709596,-4.32105,-3.6086295
2.436,20.135603,16.68405,3.039946,3.783645,-4.251203,-3.5937202
2.438,20.077162,16.646496,3.0393095,3.8559628,-4.1827717,-3.5800183
2.44,20.017801,16.606878,3.0389712,3.9265063,-4.1159525,-3.5675008
2.442,19.95732,16.56509,3.0394533,3.9951918,-4.050887,-3.5560365
2.444,19.89583,16.521032,3.0411916,4.061887,-3.9876366,-3.5454276
2.446,19.833197,16.474371,3.0445385,4.126426,-3.9261942,-3.535442
2.448,19.769503,16.424944,3.0499856,4.188622,-3.8664575,-3.5258105
2.45,19.70463,16.372513,3.0576994,4.2482867,-3.808257,-3.516265
2.452,19.638544,16.317019,3.0677376,4.305243,-3.7513628,-3.5065572
2.454,19.57104,16.258366,3.080308,4.359351,-3.695501,-3.496466
2.456,19.502144,16.196465,3.0953841,4.4105263,-3.64037,-3.4858155
2.458,19.43172,16.131247,3.1128793,4.458756,-3.585659,-3.474463
2.46,19.359583,16.062971,3.1325083,4.5041013,-3.5310526,-3.4622853
2.462,19.285614,15.991589,3.1539655,4.5466924,-3.4762797,-3.4491796
2.464,19.209751,15.917419,3.1768832,4.586726,-3.4211237,-3.435051
2.466,19.131865,15.840593,3.2009492,4.6244493,-3.3654342,-3.4198205
2.468,19.052032,15.761241,3.2258008,4.6601224,-3.309122,-3.403404
2.47,18.970074,15.679771,3.250991,4.694035,-3.2521746,-3.3857203
2.472,18.886019,15.596421,3.2760499,4.7264433,-3.1946378,-3.3666859
2.474,18.79994,15.5114765,3.3005974,4.7575927,-3.136624,-3.346243
2.476,18.711918,15.425282,3.3241603,4.787677,-3.0782783,-3.3243384
2.478,18.621933,15.33815,3.346332,4.8168464,-3.01978,-3.300922
2.48,18.530085,15.250495,3.3668475,4.845201,-2.9613318,-3.27598
2.482,18.436575,15.162445,3.385396,4.872796,-2.9031594,-3.2495239
2.484,18.341572,15.074477,3.4017928,4.899636,-2.8455176,-3.2215884
2.486,18.245356,14.986806,3.4158292,4.925692,-2.7886608,-3.192223
2.488,18.147997,14.899752,3.427534,4.9509273,-2.732832,-3.1615114
2.49,18.050032,14.813444,3.4366796,4.9752584,-2.678289,-3.1295428
2.492,17.951567,14.728271,3.4433274,4.99862,-2.6252644,-3.0964153
2.494,17.85294,14.644348,3.4474683,5.0209365,-2.573971,-3.062245
2.496,17.754536,14.561839,3.4491806,5.0421567,-2.524585,-3.027147
2.498,17.656736,14.481007,3.4485114,5.0622435,-2.4772265,-2.9912186
2.5,17.559893,14.402052,3.4455993,5.081181,-2.431965,-2.9545255
2.502,17.46446,14.324968,3.4405782,5.0989733,-2.3888192,-2.9171178
2.504,17.370901,14.249877,3.4335558,5.115645,-2.347741,-2.879026
2.506,17.279673,14.176844,3.4246447,5.1312423,-2.3086474,-2.8402328
2.508,17.191147,14.105894,3.4140189,5.145808,-2.27142,-2.8007095
2.51,17.105701,14.037046,3.4018211,5.1593866,-2.2359476,-2.7604065
2.512,17.023943,13.970295,3.3881834,5.1720033,-2.202147,-2.7192717
2.514,16.94613,13.905701,3.3731847,5.183659,-2.1699421,-2.677288
2.516,16.87262,13.843125,3.3570168,5.194357,-2.1392984,-2.6344612
2.518,16.803791,13.78245,3.3398957,5.204081,-2.110237,-2.59085
2.52,16.739822,13.723634,3.3219607,5.2128143,-2.0828156,-2.5465412
2.522,16.68124,13.66661,3.3032684,5.220522,-2.0571363,-2.5016673
2.524,16.628105,13.611162,3.2839365,5.2271476,-2.0333471,-2.4563732
2.526,16.58039,13.557087,3.2641785,5.2326336,-2.0116181,-2.410837
2.528,16.538364,13.504312,3.243908,5.236924,-1.9921303,-2.3652153
2.53,16.502127,13.452654,3.2231734,5.2399635,-1.9750748,-2.3196776
2.532,16.471518,13.401914,3.2021096,5.2416735,-1.9606055,-2.2743912
2.534,16.446602,13.351844,3.1807065,5.2420125,-1.9488542,-2.2294898
2.536,16.427162,13.302326,3.1589587,5.240915,-1.9398911,-2.1850784
2.538,16.412971,13.253143,3.1369376,5.2383575,-1.9337286,-2.1412354
2.54,16.403801,13.204161,3.1146634,5.234341,-1.9303288,-2.0980432
2.542,16.399422,13.155207,3.0920987,5.228888,-1.929583,-2.055542
2.544,16.399406,13.106251,3.0692592,5.2220545,-1.9313278,-2.0137405
2.546,16.403618,13.057055,3.046288,5.213936,-1.9353586,-1.9726468
2.548,16.411507,13.007637,3.0230737,5.20466,-1.9414334,-1.9322343
2.55,16.42258,12.957962,2.9996457,5.1943836,-1.9492861,-1.892503
2.552,16.436625,12.907851,2.9759796,5.1832933,-1.9586653,-1.8534344
2.554,16.453121,12.857187,2.9520607,5.171582,-1.9693081,-1.8150426
2.556,16.471903,12.806053,2.927935,5.15945,-1.9809942,-1.7773616
2.558,16.492361,12.754439,2.9035752,5.14709,-1.9935297,-1.740436
2.56,16.514204,12.702226,2.8790452,5.1346545,-2.0067677,-1.704343
2.562,16.537052,12.649474,2.8544002,5.1222844,-2.020606,-1.6691692
2.564,16.560629,12.596173,2.829661,5.1100693,-2.0349855,-1.6349958
2.566,16.58466,12.542337,2.804912,5.0980587,-2.04988,-1.6018895
2.568,16.608816,12.487895,2.7801611,5.086257,-2.065294,-1.5698763
2.57,16.632866,12.4329,2.7556362,5.0746193,-2.0812707,-1.5389587
2.572,16.656734,12.377481,2.7313318,5.063073,-2.0978546,-1.5090894
2.574,16.680195,12.321441,2.707469,5.051514,-2.115098,-1.4801964
2.576,16.703135,12.264912,2.684065,5.039843,-2.1330402,-1.4521806
2.578,16.7254,12.207866,2.6613321,5.0279527,-2.1517115,-1.4249209
2.58,16.74694,12.150212,2.6394634,5.0157604,-2.1711123,-1.3982829
2.582,16.767591,12.091997,2.6186013,5.0031967,-2.1912205,-1.3721427
2.584,16.787233,12.033312,2.5988803,4.9902134,-2.211997,-1.3463897
2.586,16.805824,11.974108,2.5805295,4.976808,-2.2334018,-1.3209299
2.588,16.823463,11.914359,2.56367,4.963008,-2.2553527,-1.2956922
2.59,16.840029,11.854228,2.5484047,4.948885,-2.277759,-1.2706494
2.592,16.855476,11.793776,2.5347712,4.9345264,-2.3005214,-1.2457892
2.594,16.869751,11.732867,2.5229607,4.920047,-2.3235219,-1.2210772
2.596,16.882748,11.671649,2.5130696,4.9055696,-2.3466616,-1.1965269
2.598,16.894548,11.610122,2.505154,4.8912377,-2.3698306,-1.1721392
2.6,16.904856,11.548324,2.4993858,4.8771844,-2.3929324,-1.1479039
2.602,16.913826,11.486185,2.4957602,4.8635206,-2.415893,-1.1238296
2.604,16.921278,11.423815,2.4944594,4.8503447,-2.4386663,-1.0999017
2.606,16.927172,11.361064,2.4956532,4.8377295,-2.4612002,-1.0761331
2.608,16.931448,11.297983,2.4993844,4.825742,-2.48349,-1.0525239
2.61,16.93404,11.2344675,2.5059536,4.8144093,-2.5055637,-1.0290797
2.612,16.934666,11.170527,2.515495,4.8037405,-2.527473,-1.005832
2.614,16.933378,11.106143,2.5281901,4.793748,-2.549294,-0.9828167
2.616,16.930092,11.041124,2.544304,4.7844,-2.571145,-0.96008945
2.618,16.924862,10.975369,2.5641055,4.7756805,-2.5931702,-0.93773293
2.62,16.9175,10.908847,2.5879407,4.7675653,-2.6155505,-0.9158256
2.622,16.907894,10.841475,2.6160617,4.760009,-2.6384706,-0.89447093
2.624,16.896124,10.773287,2.6487193,4.7529783,-2.6621053,-0.87375975
2.626,16.882174,10.704246,2.6862688,4.746437,-2.6866202,-0.85376763
2.628,16.866,10.634268,2.72885,4.7403426,-2.7121465,-0.8345158
2.63,16.847801,10.563377,2.7765973,4.7346573,-2.7387595,-0.81598496
2.632,16.827318,10.491608,2.8297653,4.729348,-2.7664614,-0.7981076
2.634,16.804855,10.419074,2.8884597,4.724381,-2.795216,-0.78075695
2.636,16.780487,10.345852,2.952715,4.7197423,-2.8249164,-0.7637639
2.638,16.754307,10.271839,3.022544,4.715415,-2.8553886,-0.7469239
2.64,16.726177,10.197355,3.0978491,4.711403,-2.886447,-0.7300205
2.642,16.696468,10.12233,3.178591,4.7077093,-2.9178746,-0.7128668
2.644,16.665264,10.046989,3.2644942,4.7043476,-2.949442,-0.6952863
2.646,16.632576,9.971419,3.3552852,4.7013574,-2.9809387,-0.6771519
2.648,16.59871,9.895696,3.450771,4.6987963,-3.012167,-0.6583984
2.65,16.563572,9.820007,3.5505834,4.6967087,-3.0429666,-0.63898563
2.652,16.527401,9.74429,3.6542466,4.6951456,-3.0732028,-0.6189313
2.654,16.490334,9.668712,3.7614446,4.6941643,-3.1027653,-0.59828234
2.656,16.452303,9.593424,3.8715944,4.6938233,-3.1315665,-0.57710004
2.658,16.41351,9.51837,3.98435,4.694177,-3.1595354,-0.5554545
2.66,16.37413,9.443647,4.0992975,4.6952477,-3.1866248,-0.533406
2.662,16.334057,9.3693285,4.215998,4.697053,-3.212787,-0.51100373
2.664,16.293499,9.295452,4.334149,4.6995955,-3.237979,-0.48827457
2.666,16.252216,9.221995,4.453336,4.70284,-3.26217,-0.46522617
2.668,16.210556,9.148939,4.5732803,4.706729,-3.2853296,-0.4418459
2.67,16.168407,9.076284,4.693758,4.7111974,-3.3074124,-0.41808152
2.672,16.125816,9.0040455,4.8146234,4.716148,-3.3283825,-0.3938918
2.674,16.082813,8.932172,4.9357195,4.7214704,-3.3481913,-0.36921692
2.676,16.039417,8.860617,5.0569735,4.727068,-3.3668242,-0.34400225
2.678,15.995716,8.789436,5.178292,4.7328176,-3.384252,-0.31820536
2.68,15.95166,8.718487,5.2996583,4.7386003,-3.4004898,-0.29181123
2.682,15.907195,8.6477375,5.4211817,4.744318,-3.4155388,-0.26483774
2.684,15.86252,8.577154,5.5426598,4.749892,-3.42944,-0.23732138
2.686,15.817671,8.506689,5.664254,4.755238,-3.4422364,-0.20930243
2.688,15.772667,8.436339,5.785783,4.760296,-3.4539597,-0.18085265
2.69,15.727511,8.366089,5.9072733,4.7650204,-3.4646597,-0.15203786
2.692,15.682451,8.295796,6.028752,4.76936,-3.4743583,-0.12293577
2.694,15.637478,8.225403,6.1501665,4.7732687,-3.4830778,-0.09360266
2.696,15.592667,8.154919,6.2714357,4.776698,-3.4908457,-0.0640738
2.698,15.548059,8.084261,6.3924675,4.7795796,-3.4976754,-0.03435588
2.7,15.503607,8.013332,6.5131702,4.781831,-3.5035954,-0.0044424534
2.702,15.459455,7.942156,6.6335163,4.7833476,-3.508632,0.025676727
2.704,15.415657,7.870743,6.7532983,4.7840495,-3.5128293,0.056035757
2.706,15.372273,7.798957,6.8723745,4.783842,-3.51627,0.08665514
2.708,15.329199,7.726862,6.990601,4.7826147,-3.519064,0.11755538
2.71,15.286407,7.6544657,7.10793,4.780294,-3.521328,0.14874244
2.712,15.243716,7.5819397,7.224224,4.776802,-3.5231977,0.18021917
2.714,15.201052,7.5092864,7.339321,4.7720914,-3.5248134,0.21197724
2.716,15.15843,7.4366684,7.453188,4.766142,-3.5263026,0.24399233
2.718,15.115396,7.364195,7.565748,4.7589545,-3.5277817,0.27625275
2.72,15.071871,7.292077,7.676965,4.750546,-3.529336,0.30875087
2.722,15.027731,7.2204294,7.786905,4.7409635,-3.531048,0.34146714
2.724,14.982683,7.1494503,7.8956194,4.730263,-3.5329585,0.37440848
2.726,14.936409,7.079305,8.003079,4.7185187,-3.5350785,0.4075923
2.728,14.88858,7.0102625,8.1094475,4.705808,-3.537406,0.44103456
2.73,14.839041,6.9424057,8.214837,4.692217,-3.5398855,0.47478223
2.732,14.787453,6.8759375,8.319401,4.677839,-3.5424557,0.50886893
2.734,14.733455,6.810998,8.423389,4.6627603,-3.5450158,0.543339
2.736,14.676761,6.747649,8.5269165,4.647069,-3.5474598,0.5782578
2.738,14.617066,6.6861653,8.630244,4.6308427,-3.5496588,0.6136706
2.74,14.554071,6.6264753,8.733633,4.6141562,-3.551479,0.64962816
2.742,14.487528,6.568581,8.837236,4.5970826,-3.5527859,0.6861789
2.744,14.417181,6.51239,8.941239,4.5796657,-3.5534434,0.7233553
2.746,14.342914,6.457835,9.045877,4.5619545,-3.5533268,0.76119256
2.748,14.264419,6.404889,9.151352,4.5439706,-3.5523052,0.7997124
2.75,14.181542,6.3532763,9.257786,4.5257373,-3.550251,0.8389112
2.752,14.094071,6.3030024,9.365269,4.507261,-3.5470507,0.87877905
2.754,14.001636,6.2538476,9.474047,4.4885483,-3.5425806,0.9193233
2.756,13.904307,6.2055826,9.584266,4.4696045,-3.536728,0.96056604
2.758,13.801779,6.158063,9.69593,4.450435,-3.5293615,1.0025135
2.76,13.693842,6.1110635,9.809061,4.431069,-3.5203452,1.0452127
2.762,13.580326,6.064563,9.923931,4.411551,-3.5095234,1.0887231
2.764,13.461206,6.018217,10.040474,4.3919377,-3.4967377,1.1331095
2.766,13.336217,5.971826,10.158806,4.3723116,-3.4818377,1.1784471
2.768,13.205321,5.925269,10.278832,4.3527474,-3.4646685,1.2247982
2.77,13.068199,5.87833,10.400554,4.333334,-3.4450788,1.2722366
2.772,12.924885,5.83103,10.523983,4.3141623,-3.4229276,1.3208088
2.774,12.775028,5.7833796,10.649055,4.295314,-3.3981032,1.3705546
2.776,12.618771,5.735218,10.775712,4.276861,-3.3705182,1.4215086
2.778,12.455899,5.686749,10.903887,4.258846,-3.340111,1.4736671
2.78,12.28639,5.637869,11.033419,4.241312,-3.3068511,1.5270268
2.782,12.110356,5.5885477,11.164201,4.2242856,-3.2707345,1.581563
2.784,11.927691,5.5388947,11.296078,4.207768,-3.2317877,1.6372339
2.786,11.738438,5.488945,11.428857,4.1917615,-3.1900535,1.6940312
2.788,11.542802,5.4387617,11.562433,4.1762547,-3.145595,1.751943
2.79,11.340662,5.388568,11.6966095,4.1612134,-3.098483,1.8109696
2.792,11.1321125,5.3385997,11.831129,4.146603,-3.0487905,1.8711457
2.794,10.917311,5.2891474,11.965893,4.1323857,-2.9965806,1.932532
2.796,10.69663,5.240366,12.100528,4.118501,-2.9418995,1.9952122
2.798,10.470274,5.1924243,12.234974,4.1048913,-2.8848026,2.059282
2.8,10.238707,5.145691,12.368996,4.091477,-2.8253632,2.124823
2.802,10.002153,5.100156,12.502182,4.0781713,-2.7636409,2.191901
2.804,9.761101,5.0558777,12.634314,4.0648785,-2.6997268,2.2605338
2.806,9.5160055,5.0130253,12.765279,4.0515175,-2.633723,2.3306646
2.808,9.2671585,4.971701,12.894761,4.0379806,-2.565773,2.4021492
2.81,9.015295,4.9318743,13.022589,4.0241847,-2.4960403,2.4747665
2.812,8.760858,4.893579,13.148533,4.01004,-2.424721,2.548237
2.814,8.504356,4.8568096,13.2724285,3.995461,-2.3520124,2.6221986
2.816,8.246395,4.8216186,13.394103,3.9803739,-2.2781763,2.6962783
2.818,7.9876213,4.7879353,13.513432,3.9646924,-2.2034812,2.7700613
2.82,7.728653,4.755667,13.630134,3.948338,-2.1282177,2.8431234
2.822,7.469946,4.7245216,13.744276,3.9312296,-2.0526822,2.9150531
2.824,7.2122,4.6944933,13.855711,3.9132884,-1.9771607,2.9854543
2.826,6.955671,4.6653194,13.9644785,3.894436,-1.9019222,3.053986
2.828,6.7009945,4.636714,14.070655,3.8746111,-1.8271965,3.1203878
2.83,6.4481697,4.6085844,14.174318,3.8537679,-1.7531452,3.1844935
2.832,6.1976147,4.5808153,14.275585,3.8319,-1.679863,3.2462578
2.834,5.9492903,4.553278,14.374715,3.8090134,-1.6073827,3.3057656
2.836,5.703353,4.5259314,14.471986,3.7851505,-1.5356646,3.363186
2.838,5.4597263,4.4985847,14.5675335,3.7603853,-1.464628,3.4187553
2.84,5.21814,4.4713216,14.6616745,3.7348094,-1.3941324,3.472732
2.842,4.97849,4.444031,14.754749,3.7085395,-1.3240224,3.5253582
2.844,4.7403994,4.416873,14.846894,3.6816878,-1.2541313,3.5768418
2.846,4.503266,4.3901434,14.93855,3.6543632,-1.1843002,3.6273165
2.848,4.2667265,4.3639183,15.029989,3.6266556,-1.1143737,3.6768723
2.85,4.030016,4.3385406,15.121398,3.5986433,-1.0442274,3.7255554
2.852,3.7924266,4.3143754,15.2131,3.5703726,-0.9737348,3.7734008
2.854,3.5530539,4.291929,15.3053875,3.541879,-0.90277994,3.8204494
2.856,3.3112564,4.2714977,15.398382,3.513166,-0.8312793,3.8667662
2.858,3.066226,4.253645,15.4923315,3.484195,-0.75917447,3.9124506
2.86,2.8172917,4.2387934,15.587372,3.4549196,-0.686438,3.9576044
2.862,2.5637422,4.2273808,15.68354,3.4252687,-0.6130587,4.0023274
2.864,2.3051114,4.219884,15.780746,3.3951685,-0.5390384,4.0466723
2.866,2.040907,4.2167253,15.878914,3.3645482,-0.46437737,4.090643
2.868,1.7707648,4.218183,15.977743,3.333335,-0.3890702,4.1341763
2.87,1.4945631,4.224558,16.077038,3.301477,-0.3130866,4.177151
2.872,1.212017,4.2360334,16.176405,3.268939,-0.236372,4.2194033
2.874,0.9231024,4.2528987,16.275372,3.2356982,-0.15882266,4.2607584
2.876,0.628232,4.2752295,16.373434,3.2017436,-0.0803023,4.3010387
2.878,0.32749987,4.3030753,16.470097,3.1670825,-0.0006222129,4.3400784
2.88,0.02145195,4.336454,16.564585,3.1317313,0.0804432,4.377757
2.882,-0.2894559,4.375268,16.656145,3.0957255,0.16312546,4.413975
2.884,-0.60453224,4.4194694,16.743992,3.0590847,0.24763775,4.4486933
2.886,-0.92304945,4.4690495,16.827358,3.0218232,0.33413333,4.4819145
2.888,-1.244318,4.523832,16.905525,2.983959,0.4227345,4.513657
2.89,-1.5677147,4.583839,16.97795,2.9454975,0.5134898,4.543996
2.892,-1.8928812,4.6492248,17.044123,2.9064388,0.60635084,4.573008
2.894,-2.2191112,4.7200303,17.10352,2.8667624,0.70117235,4.600782
2.896,-2.5458298,4.7962956,17.155731,2.826427,0.79772615,4.627391
2.898,-2.872461,4.8778887,17.200369,2.7853951,0.89570487,4.652882
2.9,-3.1984384,4.9648204,17.237019,2.7436244,0.99474347,4.6772757
2.902,-3.5235708,5.0570827,17.26554,2.7010617,1.0944524,4.7005296
2.904,-3.8479402,5.1548367,17.285898,2.6576524,1.1944366,4.7225757
2.906,-4.17172,5.2582655,17.298208,2.6133335,1.2942876,4.743296
2.908,-4.4950266,5.3675804,17.302515,2.5680404,1.3936324,4.762545
2.91,-4.8182583,5.482803,17.298986,2.521755,1.4921677,4.780176
2.912,-5.141914,5.6045423,17.287981,2.474461,1.58963,4.7960315
2.914,-5.466674,5.73305,17.269945,2.4261484,1.6858277,4.810008
2.916,-5.7931976,5.8684993,17.245022,2.376834,1.780625,4.8220572
2.918,-6.122118,6.0110435,17.21344,2.3265471,1.8739188,4.8321753
2.92,-6.454171,6.160851,17.175465,2.2753148,1.9656758,4.840417
2.922,-6.790029,6.318034,17.13119,2.2231994,2.0559504,4.846904
2.924,-7.1305146,6.4826765,17.080572,2.1702554,2.1448927,4.8517814
2.926,-7.4763303,6.6547623,17.023674,2.1165576,2.2327085,4.8552384
2.928,-7.8280835,6.834211,16.960297,2.0621576,2.3196092,4.8574624
2.93,-8.185938,7.020835,16.889856,2.0070996,2.4057972,4.858621
2.932,-8.551674,7.214513,16.812922,1.9514128,2.4914837,4.8588266
2.934,-8.924287,7.414753,16.728342,1.895152,2.5769057,4.8581076
2.936,-9.303786,7.621453,16.634834,1.8383934,2.6623514,4.8564177
2.938,-9.690402,7.8342767,16.531866,1.7812515,2.748147,4.8536167
2.94,-10.083636,8.052635,16.418293,1.7238684,2.834643,4.8495054
2.942,-10.482974,8.275877,16.293003,1.6664181,2.922192,4.843821
2.944,-10.887701,8.503439,16.154768,1.6091201,3.0111496,4.8362713
2.946,-11.297156,8.73454,16.002401,1.5521914,3.1018467,4.826562
2.948,-11.710249,8.9686,15.834703,1.4958607,3.194549,4.8144145
2.95,-12.1260395,9.204871,15.650496,1.4403067,3.2893841,4.7995973
2.952,-12.543455,9.44256,15.448649,1.3856374,3.3862996,4.78193
2.954,-12.961292,9.681083,15.22817,1.3318613,3.4850452,4.7612867
2.956,-13.378023,9.919611,14.988213,1.2788894,3.585165,4.737567
2.958,-13.792401,10.157637,14.727941,1.2265143,3.6860445,4.710699
2.96,-14.202879,10.394559,14.446839,1.174415,3.7868867,4.680638
2.962,-14.6081295,10.629815,14.144333,1.1221666,3.8868604,4.647356
2.964,-15.00666,10.862999,13.820259,1.0693862,3.9851341,4.6109114
2.966,-15.397154,11.093863,13.474671,1.0155821,4.0807157,4.5712748
2.968,-15.778437,11.322047,13.107656,0.9602312,4.1726313,4.5283403
2.97,-16.149145,11.547369,12.719757,0.9028717,4.2599816,4.48202
2.972,-16.508263,11.769884,12.311575,0.8430829,4.341937,4.4322553
2.974,-16.854815,11.9896145,11.884062,0.7805251,4.41773,4.3789907
2.976,-17.187744,12.206654,11.438371,0.7149251,4.486685,4.3221893
2.978,-17.506174,12.421303,10.975735,0.64611113,4.5482445,4.2618337
2.98,-17.80937,12.633731,10.497694,0.5740025,4.6019726,4.197916
2.982,-18.096542,12.844099,10.005671,0.49860635,4.6475825,4.1304235
2.984,-18.367132,13.052724,9.501454,0.41998976,4.6848674,4.0593114
2.986,-18.62076,13.259867,8.986816,0.33824885,4.71366,3.984466
2.988,-18.856943,13.465701,8.463621,0.2534945,4.7338004,3.905714
2.99,-19.075424,13.670478,7.9339113,0.165835,4.7451315,3.8228228
2.992,-19.27595,13.874154,7.399666,0.07540243,4.7475095,3.735533
2.994,-19.458523,14.076847,6.862917,-0.017650329,4.740848,3.6435833
2.996,-19.623112,14.278547,6.32561,-0.11314301,4.725113,3.546766
2.998,-19.769672,14.479042,5.7896614,-0.2108599,4.7003665,3.4449515
3,-19.898308,14.678221,5.2569647,-0.31052545,4.666758,3.3381388
3.002,-20.008955,14.875622,4.7292337,-0.4118142,4.624551,3.2264583
3.004,-20.102089,15.070969,4.2084074,-0.51432025,4.574153,3.110154
3.006,-20.178104,15.263975,3.6963263,-0.61761004,4.5160713,2.9895837
3.008,-20.237526,15.454221,3.194642,-0.72121644,4.4508696,2.8651845
3.01,-20.280731,15.641139,2.70498,-0.8246714,4.379145,2.7374449
3.012,-20.30818,15.824216,2.2288036,-0.9275107,4.3014946,2.6068704
3.014,-20.320244,16.002697,1.767232,-1.0293005,4.218506,2.473927
3.016,-20.31734,16.175861,1.3214083,-1.1296407,4.130701,2.3390536
3.018,-20.300154,16.343159,0.8923187,-1.2282398,4.038568,2.2025805
3.02,-20.269188,16.50385,0.48078823,-1.3247211,3.9427502,2.0649147
3.022,-20.224804,16.657139,0.0875721,-1.4187527,3.8438256,1.9264302
3.024,-20.167511,16.802301,-0.28707218,-1.5100739,3.7423522,1.7873867
3.026,-20.09793,16.938734,-0.6425133,-1.5984364,3.6389284,1.6480005
3.028,-20.016617,17.065897,-0.9784193,-1.683609,3.5341866,1.5084645
3.03,-19.92412,17.183153,-1.2947598,-1.7653921,3.428759,1.3689408
3.032,-19.820995,17.289877,-1.5914898,-1.8436007,3.3233132,1.2295866
3.034,-19.70761,17.385628,-1.8686047,-1.9180808,3.2185173,1.090566
3.036,-19.58432,17.469927,-2.1265497,-1.9886895,3.1150417,0.95207655
3.038,-19.4516,17.542479,-2.3655214,-2.0553195,3.0135279,0.8143538
3.04,-19.310192,17.603064,-2.585638,-2.117883,2.9145718,0.6776928
3.042,-19.159275,17.651384,-2.788186,-2.1763127,2.8187022,0.5424191
3.044,-19.000729,17.687428,-2.9729319,-2.2305763,2.7263818,0.40889394
3.046,-18.834856,17.710838,-3.1400127,-2.2806726,2.63799,0.27748775
3.048,-18.66166,17.721619,-3.290287,-2.3266387,2.553813,0.14858174
3.05,-18.481539,17.719814,-3.4242773,-2.3685298,2.4740844,0.022571564
3.052,-18.295227,17.70562,-3.542532,-2.4064407,2.3989627,-0.100186944
3.054,-18.102932,17.679169,-3.6456585,-2.440485,2.328577,-0.21936154
3.056,-17.905077,17.640709,-3.7342796,-2.4707808,2.2630239,-0.3346628
3.058,-17.70209,17.590528,-3.809043,-2.497483,2.202361,-0.44583535
3.06,-17.500526,17.534124,-3.8719616,-2.5207477,2.146617,-0.55267465
3.062,-17.296265,17.468388,-3.9228296,-2.5407367,2.0958092,-0.65502334
3.064,-17.089989,17.393852,-3.9623451,-2.5576024,2.0499084,-0.752759
3.066,-16.882612,17.311365,-3.991394,-2.5714998,2.008815,-0.84582007
3.068,-16.674923,17.22171,-4.0106087,-2.5825663,1.972404,-0.93419313
3.07,-16.467817,17.125776,-4.0207806,-2.5909421,1.9404669,-1.0179307
3.072,-16.26201,17.024437,-4.0226374,-2.5967493,1.9127772,-1.0971332
3.074,-16.05841,16.91854,-4.0170107,-2.6001012,1.8890688,-1.1719787
3.076,-15.857844,16.808952,-4.0046835,-2.6011093,1.8690188,-1.2427031
3.078,-15.66088,16.696562,-3.986351,-2.5998955,1.8522712,-1.3095827
3.08,-15.468421,16.582241,-3.9628706,-2.5965743,1.8384509,-1.3729475
3.082,-15.2810135,16.46669,-3.9349108,-2.5912848,1.8271763,-1.4331571
3.084,-15.099204,16.350636,-3.9032412,-2.5841513,1.8180598,-1.4905753
3.086,-14.923582,16.234808,-3.868577,-2.5753212,1.8107346,-1.545568
3.088,-14.7545,16.119778,-3.8314428,-2.565568,1.8048259,-1.5969064
3.09,-14.592238,16.006102,-3.792572,-2.5548086,1.8000102,-1.645719
3.092,-14.437006,15.8944,-3.752386,-2.5433228,1.7960442,-1.6920131
3.094,-14.289011,15.784928,-3.7113647,-2.531404,1.7927498,-1.735713
3.096,-14.148195,15.678102,-3.6698494,-2.5193472,1.7900102,-1.776702
3.098,-14.014518,15.574185,-3.6282701,-2.507404,1.7877476,-1.8148481
3.1,-13.8879595,15.473316,-3.5869246,-2.4958043,1.7859356,-1.8500303
3.102,-13.768383,15.375791,-3.5460181,-2.4847188,1.7845545,-1.8821864
3.104,-13.655443,15.281573,-3.5058165,-2.4742794,1.7835822,-1.9113292
3.106,-13.549082,15.190777,-3.4663496,-2.46456,1.7829974,-1.9375225
3.108,-13.4490795,15.103474,-3.427804,-2.4555945,1.782765,-1.9609075
3.11,-13.355013,15.019523,-3.3903751,-2.447392,1.7828362,-1.9816753
