Time_s_,Acc_x_m_s_2_,Acc_y_m_s_2_,Acc_z_m_s_2_,Gyro_x_1_s_,Gyro_y_1_s_,Gyro_z_1_s_
0,0.6479921,-0.3451909,-0.5871886,0.22673072,-0.5888673,0.28560975
0.002,0.6501686,-0.34265533,-0.5915177,0.22531144,-0.60286576,0.28487974
0.004,0.6525232,-0.3402248,-0.595361,0.22379953,-0.6185893,0.28392392
0.006,0.6551712,-0.3380367,-0.5984727,0.22223751,-0.6361317,0.2827032
0.008,0.6584164,-0.33611596,-0.60110873,0.22069874,-0.65551805,0.28117386
0.01,0.66203654,-0.33445394,-0.6029933,0.21925703,-0.6766961,0.2792771
0.012,0.66605496,-0.33302262,-0.6042379,0.21801475,-0.69949836,0.2769845
0.014,0.67066044,-0.33200496,-0.6047472,0.2170997,-0.7236204,0.2742776
0.016,0.6759288,-0.33148327,-0.6045231,0.21665579,-0.7486106,0.2711581
0.018,0.68203163,-0.33146328,-0.60365456,0.2168144,-0.773928,0.2676543
0.02,0.6890379,-0.33205333,-0.60211396,0.21768406,-0.7989718,0.26381582
0.022,0.69695055,-0.33335477,-0.60010266,0.21935628,-0.8231454,0.2597254
0.024,0.7058315,-0.3353614,-0.59768176,0.22186318,-0.8459203,0.25548235
0.026,0.71581435,-0.3382528,-0.59497523,0.22517633,-0.86689,0.25119406
0.028,0.7269634,-0.34205317,-0.59208757,0.22922018,-0.8864565,0.24691781
0.03,0.7392815,-0.3468537,-0.5891824,0.2338874,-0.9036243,0.2428185
0.032,0.752808,-0.3526371,-0.5863864,0.23901877,-0.91857576,0.2389898
0.034,0.7675711,-0.35946563,-0.5838023,0.2444355,-0.93164164,0.23547602
0.036,0.7835299,-0.36743754,-0.5815091,0.24995115,-0.9432646,0.23228279
0.038,0.8006604,-0.37650055,-0.57959086,0.25538957,-0.95392907,0.22940266
0.04,0.8188836,-0.38663208,-0.57810414,0.26058948,-0.9641423,0.22679682
0.042,0.8380799,-0.3977596,-0.5769224,0.2654444,-0.9743881,0.22438328
0.044,0.8578959,-0.4098461,-0.57605684,0.2698589,-0.9850979,0.22207324
0.046,0.8780671,-0.42278206,-0.57554334,0.27376747,-0.9966323,0.2197727
0.048,0.8984115,-0.43643808,-0.5752375,0.2771439,-1.0092576,0.21741065
0.05,0.91852677,-0.45077887,-0.57504535,0.2800015,-1.0231434,0.21491711
0.052,0.9380853,-0.46562672,-0.57489544,0.28237677,-1.038327,0.21226361
0.054,0.956705,-0.48084113,-0.5746852,0.28435305,-1.0547541,0.2094507
0.056,0.9743419,-0.4964762,-0.57453233,0.28605002,-1.0722657,0.20650342
0.058,0.9903599,-0.51232934,-0.57398885,0.2876056,-1.0906065,0.20348077
0.06,1.0042819,-0.5281556,-0.5729432,0.28919086,-1.1094403,0.20046318
0.062,1.0158657,-0.54389006,-0.57144815,0.29099357,-1.1283753,0.19754098
0.064,1.0247941,-0.5593256,-0.56938887,0.2932164,-1.1469834,0.19482954
0.066,1.030742,-0.57440144,-0.56680167,0.29605672,-1.1648237,0.19241711
0.068,1.0336046,-0.58901393,-0.5636851,0.2996869,-1.1815019,0.1904004
0.07,1.0331193,-0.6029671,-0.56015,0.3042385,-1.1966574,0.18886258
0.072,1.0293148,-0.6163034,-0.5562812,0.3098277,-1.20997,0.18785214
0.074,1.0220447,-0.62882024,-0.55234146,0.31652302,-1.2212108,0.1874037
0.076,1.0114515,-0.6405928,-0.5485375,0.32430115,-1.2302656,0.18753037
0.078,0.9975689,-0.6515636,-0.5450719,0.33309868,-1.2371379,0.18823214
0.08,0.980858,-0.6618476,-0.54207313,0.3428136,-1.2419577,0.18949305
0.082,0.9614507,-0.6713244,-0.5397844,0.3532666,-1.2449589,0.19126403
0.084,0.93975765,-0.6801613,-0.5383867,0.36424822,-1.2464926,0.19349219
0.086,0.91594106,-0.68837047,-0.5378247,0.37551004,-1.2470105,0.19610791
0.088,0.8906452,-0.6960374,-0.53817624,0.38677353,-1.2470332,0.19904408
0.09,0.86404395,-0.7031499,-0.5394063,0.39772958,-1.2471361,0.20221287
0.092,0.836862,-0.7098203,-0.54147017,0.40805805,-1.2479788,0.2055047
0.094,0.80942804,-0.7159951,-0.5442451,0.41745213,-1.2501907,0.20881821
0.096,0.78202724,-0.7218413,-0.54749346,0.42562044,-1.2543902,0.2120373
0.098,0.75535214,-0.727394,-0.55101067,0.43228036,-1.261163,0.21505544
0.1,0.7295122,-0.7327278,-0.5544282,0.43719956,-1.2710418,0.2177676
0.102,0.70492506,-0.73778254,-0.5573926,0.4401818,-1.2844315,0.22009158
0.104,0.681743,-0.7424988,-0.5594127,0.44111538,-1.3015847,0.22195469
0.106,0.6602327,-0.7467708,-0.55990356,0.43994534,-1.3226266,0.22331136
0.108,0.64037883,-0.75067925,-0.5584394,0.43666625,-1.3474916,0.22411755
0.11,0.6221888,-0.75397485,-0.5545254,0.43134075,-1.3759551,0.22434177
0.112,0.6055692,-0.7565643,-0.54767096,0.42410147,-1.4076335,0.22396146
0.114,0.5903522,-0.75838864,-0.53743136,0.41511583,-1.4419906,0.22295092
0.116,0.57629967,-0.759269,-0.5236083,0.4045964,-1.4783496,0.22129826
0.118,0.5629121,-0.7589949,-0.50579494,0.39280355,-1.5159143,0.21897021
0.12,0.5499291,-0.7574697,-0.4840368,0.38001642,-1.5538175,0.21597251
0.122,0.5368247,-0.7545381,-0.4581749,0.36653778,-1.5911362,0.21230367
0.124,0.52313715,-0.74992675,-0.42842263,0.3526723,-1.6269805,0.20800757
0.126,0.50819784,-0.74336636,-0.39500645,0.33872217,-1.6604785,0.20318052
0.128,0.49142033,-0.73472536,-0.35813794,0.32498324,-1.6908262,0.1979413
0.13,0.47226518,-0.723827,-0.31844527,0.31173718,-1.7173198,0.19243407
0.132,0.4503192,-0.71038485,-0.27627477,0.29921952,-1.7394036,0.18681407
0.134,0.42502055,-0.6943044,-0.23208761,0.28759316,-1.7566864,0.18123716
0.136,0.3958812,-0.6754035,-0.18636337,0.2769709,-1.7689842,0.17584667
0.138,0.36250895,-0.6536597,-0.1397523,0.26741642,-1.7762804,0.17073625
0.14,0.32482153,-0.6290549,-0.09260546,0.25894248,-1.7787198,0.16594645
0.142,0.2825663,-0.6016689,-0.0455629,0.25153035,-1.7766016,0.16146675
0.144,0.23582077,-0.57159126,0.00075570494,0.24514157,-1.7703478,0.15722045
0.146,0.18476322,-0.53902936,0.04586741,0.23973262,-1.7604413,0.15311664
0.148,0.12971461,-0.50423384,0.08919023,0.23525584,-1.7474248,0.14904869
0.15,0.07093643,-0.4674071,0.13028872,0.23166263,-1.7318342,0.14490685
0.152,0.009032495,-0.42894137,0.16838846,0.22892296,-1.7141502,0.14060798
0.154,-0.05528447,-0.3890606,0.20344111,0.2269749,-1.6947904,0.13611585
0.156,-0.12148123,-0.34807125,0.23546481,0.22575903,-1.6741276,0.13141528
0.158,-0.1888732,-0.30634725,0.26411536,0.22517926,-1.6524704,0.12655821
0.16,-0.25670856,-0.264018,0.289264,0.22513294,-1.6300799,0.121623546
0.162,-0.32394508,-0.2217417,0.31118917,0.22549796,-1.6072066,0.116726875
0.164,-0.38947403,-0.18006971,0.32959324,0.22612196,-1.5841036,0.11200443
0.166,-0.45259172,-0.1391042,0.3441032,0.22683197,-1.5610418,0.10758412
0.168,-0.5122426,-0.09958887,0.35487497,0.2274456,-1.538306,0.10357651
0.17,-0.5674241,-0.061856456,0.36232328,0.2277835,-1.5162168,0.10005784
0.172,-0.6177217,-0.025847837,0.3666453,0.2276572,-1.495112,0.09706429
0.174,-0.6625545,0.008105904,0.36793035,0.22691113,-1.4753265,0.09458621
0.176,-0.70170015,0.039958492,0.3661906,0.22541761,-1.4571512,0.092604294
0.178,-0.7347412,0.06968582,0.36123183,0.22310168,-1.440843,0.09105165
0.18,-0.7612246,0.09690881,0.35354286,0.21989647,-1.4266126,0.089841306
0.182,-0.7813551,0.121938065,0.34351897,0.21579379,-1.4145937,0.08890958
0.184,-0.7954032,0.14492737,0.33156663,0.21078122,-1.4049236,0.08818783
0.186,-0.8038726,0.16604802,0.31801796,0.20485854,-1.397691,0.087628454
0.188,-0.8069569,0.1852841,0.30300945,0.1980694,-1.3928603,0.08721562
0.19,-0.8053682,0.20323992,0.28717935,0.19041908,-1.3904588,0.08692838
0.192,-0.7997712,0.2200566,0.27139843,0.18189093,-1.3904964,0.08675593
0.194,-0.79081583,0.23600122,0.25643164,0.17249489,-1.3928703,0.08671512
0.196,-0.7792095,0.25119692,0.2428579,0.16222382,-1.3975384,0.086780414
0.198,-0.765825,0.26591843,0.23124218,0.15104935,-1.4044795,0.086922824
0.2,-0.75140357,0.28020358,0.22232842,0.13895792,-1.4136295,0.08709635
0.202,-0.73690486,0.29422975,0.21687084,0.12597233,-1.4248581,0.08721608
0.204,-0.72283727,0.3081819,0.21565759,0.11217624,-1.4379406,0.08717859
0.206,-0.71028256,0.32235062,0.21951002,0.09769148,-1.4525745,0.08690788
0.208,-0.7007372,0.33722526,0.22855766,0.08270317,-1.468388,0.08637993
0.21,-0.6945119,0.35283637,0.242838,0.06743008,-1.484911,0.08565676
0.212,-0.6918423,0.3689459,0.2624363,0.052129388,-1.5015798,0.08484152
0.214,-0.6928952,0.38549766,0.28759247,0.037059605,-1.5177512,0.084082335
0.216,-0.698447,0.4026292,0.3183632,0.022491097,-1.5327022,0.08361098
0.218,-0.7091212,0.42062694,0.35476917,0.008672655,-1.5457008,0.08371031
0.22,-0.724674,0.43924636,0.39681312,-0.0042143464,-1.5561417,0.08462599
0.222,-0.7450206,0.45852172,0.443929,-0.016052306,-1.5635138,0.086554974
0.224,-0.77016914,0.47870994,0.49560714,-0.026768327,-1.5673703,0.089601874
0.226,-0.80031264,0.50001156,0.55157685,-0.036350846,-1.5674458,0.09377208
0.228,-0.8356699,0.52261037,0.61126775,-0.044878423,-1.5637228,0.09893155
0.23,-0.8762841,0.5470173,0.6736477,-0.052476168,-1.5563637,0.10486892
0.232,-0.92221457,0.57352215,0.7376378,-0.05928862,-1.5456536,0.11132151
0.234,-0.9719651,0.6014309,0.802978,-0.06548661,-1.5320449,0.11796951
0.236,-1.024224,0.6300834,0.86924493,-0.07127756,-1.5161211,0.12446061
0.238,-1.0785546,0.6596439,0.9352442,-0.0768044,-1.4983988,0.13046408
0.24,-1.1341476,0.6896409,1.0013157,-0.08220202,-1.4793497,0.13570702
0.242,-1.190472,0.7197584,1.0665749,-0.08761436,-1.4594839,0.14002267
0.244,-1.2460943,0.749936,1.1298419,-0.093112946,-1.4391148,0.1433236
0.246,-1.2999846,0.77995014,1.1900655,-0.09877026,-1.4185011,0.14557606
0.248,-1.3509395,0.8093826,1.2466549,-0.10466373,-1.397844,0.1467988
0.25,-1.397942,0.83761805,1.298831,-0.11076528,-1.3770382,0.14716193
0.252,-1.4396825,0.8638809,1.3460993,-0.11697215,-1.3558418,0.14689274
0.254,-1.4754378,0.88766176,1.3880019,-0.12318686,-1.3340786,0.1461835
0.256,-1.5049527,0.90875787,1.4242086,-0.1292719,-1.3115796,0.14530934
0.258,-1.5278354,0.92655635,1.4546545,-0.1350807,-1.2880979,0.14460798
0.26,-1.5429498,0.94015247,1.479614,-0.14041734,-1.263333,0.14436737
0.262,-1.5504959,0.9495567,1.4989331,-0.14507446,-1.2369344,0.14485252
0.264,-1.5511936,0.95490897,1.511986,-0.14883044,-1.2085001,0.14630692
0.266,-1.5449011,0.9555601,1.5192574,-0.15142924,-1.1775059,0.14895368
0.268,-1.5315818,0.9512411,1.5210872,-0.15271097,-1.1436152,0.15285328
0.27,-1.5115137,0.94213724,1.5172111,-0.15261766,-1.1065646,0.15794644
0.272,-1.4853381,0.92827606,1.5079433,-0.15106368,-1.0659001,0.16414766
0.274,-1.4539089,0.9097977,1.4937907,-0.14793745,-1.0210682,0.17128585
0.276,-1.4178318,0.8867213,1.4746753,-0.14313003,-0.9716072,0.1790665
0.278,-1.3774784,0.8592477,1.4508424,-0.13654098,-0.91713893,0.18714105
0.28,-1.3329991,0.82707274,1.4224778,-0.12803477,-0.85728526,0.19520003
0.282,-1.2843316,0.7900957,1.3894069,-0.11745301,-0.79167396,0.20303857
0.284,-1.2317083,0.748484,1.3518709,-0.10466884,-0.72010064,0.21056883
0.286,-1.1747323,0.70194715,1.310692,-0.08963409,-0.64255583,0.21783149
0.288,-1.113373,0.6503248,1.2664777,-0.07236712,-0.55923367,0.22503898
0.29,-1.0477856,0.59382963,1.2193686,-0.053003013,-0.47054493,0.23254633
0.292,-0.9777374,0.5323438,1.1699004,-0.031821176,-0.3773057,0.24077609
0.294,-0.90266705,0.4655108,1.1187117,-0.009259783,-0.28079656,0.2500435
0.296,-0.8222135,0.39343452,1.0665774,0.014134977,-0.18249713,0.2606346
0.298,-0.7364135,0.31627882,1.0147417,0.037795577,-0.08401104,0.272844
0.3,-0.64529645,0.23394068,0.9640528,0.061119724,0.01286637,0.28676695
0.302,-0.548799,0.1467101,0.9156014,0.083504945,0.10628898,0.30232877
0.304,-0.44727224,0.05493846,0.87058586,0.10438609,0.19452588,0.31936032
0.306,-0.34074566,-0.041053705,0.8302597,0.12326911,0.27607274,0.33763742
0.308,-0.22940478,-0.14090496,0.7959913,0.13978377,0.34987378,0.35698643
0.31,-0.11376665,-0.24392264,0.7688613,0.1537071,0.41541395,0.37723714
0.312,0.0053567626,-0.3495051,0.75005984,0.16493583,0.4725638,0.3981735
0.314,0.12650585,-0.45679948,0.74035686,0.173466,0.5216135,0.41960093
0.316,0.24872938,-0.56483966,0.74001914,0.17939073,0.56333375,0.4414156
0.318,0.37112626,-0.6728205,0.749816,0.18289942,0.59886086,0.46357006
0.32,0.49170196,-0.7793192,0.76992995,0.18424803,0.62953985,0.48603272
0.322,0.60836685,-0.8825468,0.8000203,0.18381989,0.6570694,0.50887066
0.324,0.71912557,-0.9810626,0.83884084,0.18201503,0.6831155,0.53216517
0.326,0.8228203,-1.073661,0.8851048,0.17912918,0.70900315,0.55592793
0.328,0.91856444,-1.1592777,0.93708163,0.17537484,0.7358585,0.58026177
0.33,1.0043643,-1.2364962,0.992791,0.17090195,0.7645607,0.6052862
0.332,1.0790148,-1.3042454,1.050358,0.16574752,0.7956103,0.6310679
0.334,1.141656,-1.3616914,1.107521,0.1598199,0.8290792,0.65754825
0.336,1.1914549,-1.407957,1.1617362,0.15292692,0.86462224,0.6845462
0.338,1.2281518,-1.442613,1.2106832,0.14478919,0.9015503,0.7117624
0.34,1.2514994,-1.4654078,1.252461,0.13505763,0.9388648,0.7387846
0.342,1.2617092,-1.476123,1.2853051,0.12332618,0.9753398,0.7651124
0.344,1.2574335,-1.4740162,1.3069499,0.109188795,1.0095763,0.79015994
0.346,1.2389327,-1.4589956,1.3160166,0.092232406,1.0400903,0.8133252
0.348,1.2074271,-1.4320929,1.3120522,0.072098196,1.0654291,0.83408046
0.35,1.1641281,-1.393908,1.293846,0.0484789,1.0840857,0.85185397
0.352,1.1105278,-1.3455038,1.2618117,0.021113217,1.0946165,0.8661272
0.354,1.0475546,-1.2882968,1.2168708,-0.010130405,1.0958464,0.8765678
0.356,0.9767723,-1.2234926,1.1598258,-0.045262277,1.0868492,0.88294846
0.358,0.89969885,-1.1521436,1.0917825,-0.08418572,1.0669731,0.8851002
0.36,0.81784016,-1.0752623,1.0142127,-0.12663776,1.0359848,0.88299394
0.362,0.73271793,-0.9937631,0.92876923,-0.1722436,0.99397326,0.8766887
0.364,0.6460347,-0.90886784,0.83735406,-0.22056442,0.9412831,0.86633265
0.366,0.56001794,-0.82188785,0.74175,-0.27109668,0.8786074,0.8522079
0.368,0.47635996,-0.73365015,0.64379126,-0.32330778,0.80689627,0.8347106
0.37,0.3961079,-0.6449591,0.5451661,-0.3766675,0.72719383,0.81423277
0.372,0.32125533,-0.5571893,0.44853258,-0.43068594,0.6406202,0.79121214
0.374,0.25373265,-0.47144133,0.35635346,-0.48491785,0.5483552,0.7661492
0.376,0.1942538,-0.38779226,0.269898,-0.53895825,0.45158786,0.73955196
0.378,0.14324804,-0.3063826,0.19102654,-0.5924143,0.351538,0.7119062
0.38,0.10110283,-0.22745377,0.12164848,-0.6448818,0.24951324,0.6837105
0.382,0.06795879,-0.15042269,0.06251449,-0.6959164,0.14687112,0.655433
0.384,0.043773342,-0.07481392,0.014515659,-0.7450322,0.045081332,0.6274895
0.386,0.028248452,-0.00010311231,-0.021462567,-0.79166853,-0.05428949,0.6002168
0.388,0.020547979,0.0744326,-0.045658525,-0.8352245,-0.1496349,0.5739045
0.39,0.01981029,0.14940345,-0.058151234,-0.87509656,-0.23933262,0.5487799
0.392,0.025190763,0.22508556,-0.058618978,-0.9106693,-0.32175916,0.5250094
0.394,0.035884075,0.30175146,-0.04753242,-0.9413345,-0.39531946,0.50271404
0.396,0.050745398,0.38000637,-0.025801465,-0.96651864,-0.45849437,0.48193458
0.398,0.06869474,0.4598179,0.005416572,-0.98571074,-0.5099205,0.46265835
0.4,0.08914277,0.5409485,0.0448044,-0.9984665,-0.5484379,0.44482785
0.402,0.11150795,0.62289906,0.090927705,-1.0044317,-0.5731739,0.42836577
0.404,0.1349009,0.7053339,0.14242898,-1.0033935,-0.5836427,0.4131835
0.406,0.15859565,0.78767693,0.19792968,-0.99529195,-0.57979065,0.3991996
0.408,0.18218732,0.8690405,0.25571597,-0.98024297,-0.56198555,0.38632613
0.41,0.2051599,0.9486368,0.31438625,-0.9585368,-0.53098166,0.37447146
0.412,0.22715446,1.0255842,0.37251636,-0.9306257,-0.4878851,0.36354962
0.414,0.24790499,1.0989273,0.42892343,-0.8971332,-0.4340656,0.3534695
0.416,0.26713794,1.1679214,0.4827092,-0.8588302,-0.3711173,0.34418178
0.418,0.2845726,1.2318114,0.5329416,-0.8166356,-0.30080682,0.33566073
0.42,0.30028456,1.2899224,0.57912284,-0.77158266,-0.22498907,0.32793057
0.422,0.31452477,1.3416717,0.6207805,-0.7248082,-0.14552668,0.32103482
0.424,0.3275134,1.3865175,0.65784824,-0.6774786,-0.0642032,0.31505358
0.426,0.3393125,1.4241103,0.690496,-0.63074815,0.017342448,0.31005362
0.428,0.3501038,1.4544246,0.71887493,-0.5856608,0.0976803,0.3060647
0.43,0.3597566,1.4775331,0.7432523,-0.54307747,0.1756168,0.30305538
0.432,0.36826587,1.4936496,0.7640363,-0.503652,0.25021106,0.30087703
0.434,0.37552702,1.5032585,0.7818974,-0.4677682,0.3207891,0.29925737
0.436,0.381306,1.5069616,0.7974293,-0.43553334,0.38696584,0.29781857
0.438,0.38485706,1.5057309,0.8112661,-0.4068309,0.4485887,0.29611915
0.44,0.38600063,1.5003703,0.82394385,-0.38132644,0.50574964,0.29371947
0.442,0.38447386,1.4917624,0.8358926,-0.3585494,0.5587577,0.29020026
0.444,0.38015288,1.4806838,0.84755707,-0.3379632,0.60806704,0.2852362
0.446,0.37290895,1.4679719,0.85907364,-0.319051,0.6541533,0.2786476
0.448,0.36239302,1.4545369,0.8705051,-0.30136707,0.6974982,0.27041247
0.45,0.3484257,1.4411268,0.8818563,-0.2845518,0.7385612,0.26064882
0.452,0.33072776,1.4284087,0.8929253,-0.26835272,0.7777683,0.24960808
0.454,0.30943042,1.4170854,0.90347993,-0.2526214,0.8155057,0.23762396
0.456,0.2844032,1.4076796,0.9131055,-0.23729973,0.8520502,0.22502285
0.458,0.25551903,1.4007139,0.9214877,-0.22239134,0.88756585,0.21208507
0.46,0.22292948,1.3965745,0.9282673,-0.20798051,0.9220612,0.198994
0.462,0.18682617,1.3954816,0.93325776,-0.19418979,0.9554004,0.185857
0.464,0.1474958,1.397687,0.9362009,-0.18118596,0.98728454,0.17267136
0.466,0.10534674,1.4032239,0.9370806,-0.1691806,1.0172746,0.15933597
0.468,0.06123638,1.4119346,0.93597263,-0.15841219,1.0448456,0.1456827
0.47,0.015601039,1.4238372,0.9330996,-0.14908662,1.0694757,0.1314984
0.472,-0.032000065,1.4395542,0.92817914,-0.14137122,1.0906699,0.11655423
0.474,-0.08141011,1.4590576,0.9210048,-0.13537529,1.1079993,0.10060157
0.476,-0.13122034,1.4817605,0.91190314,-0.13115084,1.1211079,0.08342178
0.478,-0.18017948,1.5073493,0.90150654,-0.12871084,1.1297241,0.06483796
0.48,-0.22780758,1.5361373,0.89070463,-0.12800655,1.1336851,0.044733256
0.482,-0.27430046,1.5682535,0.88025045,-0.12896249,1.1329175,0.023054421
0.484,-0.31891054,1.6032771,0.8708054,-0.13146484,1.1274598,-0.00018852949
0.486,-0.36069942,1.6407301,0.86331165,-0.13537017,1.1174502,-0.024927512
0.488,-0.3987643,1.6802552,0.8586165,-0.14054659,1.1030899,-0.05104457
0.49,-0.4324469,1.7215416,0.8575903,-0.14685011,1.0846477,-0.078393504
0.492,-0.46104002,1.7641801,0.86110127,-0.15412214,1.0624441,-0.10678516
0.494,-0.4838977,1.8079679,0.87001324,-0.16223815,1.0368402,-0.1360171
0.496,-0.50023854,1.8526455,0.8850919,-0.17107642,1.0082146,-0.16587833
0.498,-0.50969124,1.8981013,0.9069792,-0.18057825,0.9769313,-0.19614476
0.5,-0.5118671,1.9443402,0.9360069,-0.19069932,0.9433993,-0.22660688
0.502,-0.5066663,1.9914287,0.972512,-0.2014104,0.9080461,-0.2571021
0.504,-0.49413323,2.039412,1.016798,-0.21270329,0.87131786,-0.2874861
0.506,-0.4744364,2.0883045,1.0688787,-0.22455616,0.83366275,-0.31756806
0.508,-0.4476148,2.1381176,1.1289349,-0.2369149,0.7954524,-0.34718987
0.51,-0.41391563,2.188881,1.1969222,-0.24969633,0.75702715,-0.37632903
0.512,-0.3736813,2.2405026,1.2727232,-0.26275685,0.71881026,-0.4050265
0.514,-0.32711458,2.2927809,1.356035,-0.27587342,0.6813284,-0.433292
0.516,-0.2745043,2.3454232,1.4463432,-0.28873527,0.6451156,-0.46113372
0.518,-0.21609592,2.3980267,1.5429645,-0.30095845,0.61076415,-0.48854366
0.52,-0.15209234,2.4500494,1.6449679,-0.31204945,0.5789874,-0.51553136
0.522,-0.08296633,2.500954,1.7512922,-0.32143706,0.5506261,-0.54206187
0.524,-0.009144187,2.5501418,1.8608351,-0.32852983,0.52661604,-0.56804127
0.526,0.06886244,2.5971313,1.9723434,-0.33271345,0.5079937,-0.5933026
0.528,0.15060902,2.6412237,2.0846,-0.33340552,0.4958499,-0.61761
0.53,0.23557436,2.6817412,2.196175,-0.33010763,0.4913193,-0.64067185
0.532,0.32312107,2.7183318,2.3055017,-0.32244915,0.49549383,-0.662168
0.534,0.4127252,2.7505867,2.411023,-0.31021923,0.5093502,-0.6817678
0.536,0.50385916,2.7781625,2.5111337,-0.2933401,0.5337295,-0.69915587
0.538,0.595597,2.800976,2.6042795,-0.2718878,0.56920934,-0.7140416
0.54,0.6873201,2.8190749,2.6889718,-0.24605273,0.6160212,-0.726205
0.542,0.77847147,2.832594,2.7637992,-0.21612152,0.67402345,-0.73552203
0.544,0.8684125,2.8418915,2.8272948,-0.18246081,0.7426974,-0.74197
0.546,0.9564017,2.8475165,2.8782253,-0.14547926,0.8211641,-0.7456228
0.548,1.0418985,2.850081,2.915564,-0.10562189,0.9082175,-0.74665445
0.55,1.124272,2.8503625,2.9384856,-0.0633378,1.0023891,-0.7452825
0.552,1.2029186,2.8492699,2.9463863,-0.019064128,1.102021,-0.7417703
0.554,1.2771077,2.847783,2.9388525,0.026715234,1.2052974,-0.7363809
0.556,1.3464725,2.8469496,2.9159198,0.07349652,1.3103211,-0.72936535
0.558,1.4104531,2.8477707,2.877738,0.12078664,1.4151794,-0.72100174
0.56,1.4689095,2.8511772,2.824788,0.16807458,1.5180293,-0.71164536
0.562,1.5213977,2.8581495,2.7578301,0.2148506,1.6171607,-0.70163167
0.564,1.5678408,2.8694348,2.6778116,0.26064107,1.7109877,-0.6912143
0.566,1.6082859,2.88568,2.5858889,0.30497548,1.7980031,-0.68072355
0.568,1.6428665,2.9073515,2.4834032,0.34744167,1.8768573,-0.67058396
0.57,1.6718073,2.9347615,2.3719325,0.38766968,1.9464855,-0.66121936
0.572,1.6953592,2.968131,2.2530856,0.42534307,2.0060961,-0.65301865
0.574,1.7137713,3.0075507,2.1286402,0.46021068,2.055119,-0.6462829
0.576,1.727514,3.052851,2.0004578,0.49209744,2.0932496,-0.6412623
0.578,1.7369589,3.1038284,1.8701024,0.5209187,2.1204565,-0.6381401
0.58,1.7429595,3.1599212,1.7392149,0.5466576,2.13694,-0.63701594
0.582,1.7471606,3.2199874,1.6100569,0.56938165,2.1431038,-0.6379047
0.584,1.750329,3.2835374,1.4844488,0.5892613,2.1395237,-0.6407541
0.586,1.7518679,3.350543,1.3639402,0.6065375,2.1268983,-0.6454427
0.588,1.7521398,3.4202752,1.2497376,0.6214989,2.106027,-0.6518167
0.59,1.7523446,3.491644,1.1429863,0.63447344,2.0777369,-0.6597059
0.592,1.7539212,3.563806,1.0446959,0.64579463,2.0428662,-0.66894627
0.594,1.7572098,3.63631,0.9560299,0.6557759,2.002227,-0.6793732
0.596,1.7627982,3.7086296,0.87791026,0.6647138,1.9566004,-0.69082546
0.598,1.7711874,3.7798648,0.8113271,0.672856,1.9066586,-0.70316887
0.6,1.7833631,3.849095,0.75715524,0.6803875,1.852993,-0.7162874
0.602,1.7997795,3.9157677,0.71621215,0.6874538,1.7961149,-0.73008347
0.604,1.8209515,3.9792104,0.68924415,0.69413,1.7364981,-0.74448216
0.606,1.8468926,4.039053,0.6768658,0.7004629,1.6745665,-0.75941896
0.608,1.877756,4.094948,0.6793783,0.7064845,1.6107223,-0.7748271
0.61,1.913461,4.1466794,0.69704676,0.7122246,1.5453694,-0.7906313
0.612,1.9541306,4.1938987,0.7299619,0.7177135,1.4789388,-0.8067104
0.614,1.9999342,4.2364826,0.7781472,0.7230331,1.4119236,-0.82294154
0.616,2.0506382,4.27418,0.84166634,0.7283181,1.3448722,-0.83916354
0.618,2.1058881,4.3070383,0.9203589,0.73373914,1.278405,-0.8551981
0.62,2.1652002,4.334984,1.0140407,0.739517,1.2132139,-0.8708414
0.622,2.2283306,4.358133,1.1220965,0.7459196,1.1501316,-0.8858829
0.624,2.2946174,4.3765783,1.2440057,0.7532692,1.0900776,-0.9000986
0.626,2.3634899,4.3904495,1.3790753,0.7619134,1.0340157,-0.91326284
0.628,2.43436,4.3999696,1.5264477,0.7721952,0.98292184,-0.92513764
0.63,2.5066094,4.405421,1.6851635,0.7844368,0.9377024,-0.9354986
0.632,2.5797982,4.40699,1.8540211,0.798914,0.8991852,-0.9441571
0.634,2.6532516,4.4051023,2.0316844,0.8158294,0.8680438,-0.9509535
0.636,2.7264466,4.3999405,2.2166173,0.83527124,0.84474874,-0.9557863
0.638,2.7988977,4.391935,2.4071293,0.8572103,0.8295452,-0.9586035
0.64,2.8700154,4.3814363,2.6013465,0.88150775,0.8224449,-0.9594096
0.642,2.9396296,4.368537,2.7974815,0.90794045,0.8231852,-0.9582741
0.644,3.0075326,4.353591,2.9937391,0.93619704,0.83126986,-0.9553296
0.646,3.0733292,4.33679,3.188284,0.9659047,0.8460092,-0.9507638
0.648,3.1371212,4.318396,3.3792152,0.99666893,0.866555,-0.9448078
0.65,3.198792,4.2986155,3.5647755,1.0280645,0.8919125,-0.9377207
0.652,3.2583005,4.2775292,3.743128,1.0596688,0.92104787,-0.92977005
0.654,3.3158395,4.255263,3.912816,1.0910777,0.95293033,-0.9212339
0.656,3.3714602,4.231904,4.0722013,1.1219311,0.9865703,-0.912353
0.658,3.4254088,4.2075396,4.2198334,1.1519239,1.0210624,-0.9033155
0.66,3.477929,4.182081,4.3544445,1.1808138,1.0555942,-0.89427054
0.662,3.5291824,4.15562,4.474954,1.208435,1.0894836,-0.88531613
0.664,3.579536,4.128165,4.5804367,1.2347193,1.12218,-0.87648964
0.666,3.6292312,4.099529,4.670183,1.2596757,1.1532452,-0.8678092
0.668,3.6786547,4.0697656,4.743731,1.2834,1.1823521,-0.85925364
0.67,3.7277884,4.038776,4.800841,1.3060408,1.2092733,-0.8507854
0.672,3.7769077,4.006419,4.8415074,1.3277832,1.2338324,-0.8423689
0.674,3.8261251,3.9726956,4.8659596,1.3488405,1.2559128,-0.83394784
0.676,3.8754015,3.9375005,4.874555,1.3693831,1.2753959,-0.825484
0.678,3.9249468,3.9007957,4.8677797,1.3895371,1.2921708,-0.81694835
0.68,3.9746716,3.8625064,4.8463736,1.4094017,1.306138,-0.8083036
0.682,4.0246353,3.8223913,4.811158,1.4290204,1.3172097,-0.7995516
0.684,4.0749354,3.780376,4.763239,1.4484038,1.3253148,-0.7906988
0.686,4.1254544,3.7363796,4.7039604,1.4675287,1.330349,-0.78176963
0.688,4.1759477,3.6903558,4.6347947,1.4863484,1.3322048,-0.7728028
0.69,4.2262363,3.6422658,4.5571995,1.5048289,1.3308148,-0.7638465
0.692,4.276072,3.5919852,4.4728103,1.5229425,1.3261163,-0.7549742
0.694,4.3250356,3.5396533,4.3832574,1.5406607,1.3181129,-0.7462669
0.696,4.3729143,3.4851053,4.290007,1.5579766,1.3068937,-0.7377894
0.698,4.419285,3.4284801,4.1946626,1.574904,1.292628,-0.72959447
0.7,4.4635544,3.369805,4.098669,1.5914941,1.2755551,-0.7217077
0.702,4.5054317,3.309119,4.003591,1.6078087,1.2559848,-0.7141342
0.704,4.5445013,3.2464972,3.9107776,1.6239331,1.2343168,-0.70684946
0.706,4.580048,3.1819932,3.821555,1.6399534,1.2109839,-0.6998168
0.708,4.611494,3.1159284,3.7367249,1.6559435,1.1864347,-0.6929842
0.71,4.638232,3.048541,3.657132,1.6719456,1.161125,-0.68628544
0.712,4.6596293,2.9800751,3.5833912,1.6879749,1.1354573,-0.67966735
0.714,4.675057,2.9110272,3.5157762,1.7040093,1.1097829,-0.6730584
0.716,4.6840305,2.8416958,3.454621,1.7199818,1.0843632,-0.6664083
0.718,4.685973,2.7725766,3.400042,1.7357686,1.0593406,-0.6596957
0.72,4.680453,2.7040234,3.3520455,1.7512268,1.034735,-0.6529105
0.722,4.667124,2.636458,3.3105006,1.7661884,1.010437,-0.6460613
0.724,4.645575,2.5702074,3.2752264,1.7805088,0.98624927,-0.63920665
0.726,4.6154995,2.5057993,3.2459955,1.7940755,0.9618935,-0.6324202
0.728,4.576657,2.443608,3.2225266,1.8068054,0.9370207,-0.62583053
0.73,4.529165,2.3840404,3.204383,1.8186791,0.9112838,-0.6195783
0.732,4.4728565,2.3273141,3.1913557,1.8297398,0.88440496,-0.61382663
0.734,4.4081264,2.2736833,3.183025,1.8400614,0.85620147,-0.60873175
0.736,4.3353024,2.2232475,3.1790543,1.8497659,0.8266157,-0.6044451
0.738,4.2545767,2.176221,3.1793022,1.8589882,0.79573834,-0.6011084
0.74,4.1664815,2.132533,3.1834357,1.8678789,0.7638582,-0.59881395
0.742,4.0713477,2.0922105,3.1911638,1.8765969,0.73142385,-0.59763736
0.744,3.9699292,2.0552049,3.202076,1.8852832,0.6990235,-0.59760815
0.746,3.8628922,2.0211258,3.2158132,1.8940644,0.6673689,-0.5987158
0.748,3.7511277,1.9897711,3.231837,1.9030654,0.63723785,-0.6009124
0.75,3.6355932,1.9607818,3.2496614,1.912401,0.6094322,-0.6041404
0.752,3.5171137,1.933766,3.2686996,1.9221799,0.5847101,-0.60830605
0.754,3.3965101,1.9082601,3.2881665,1.9325178,0.5637605,-0.6132728
0.756,3.274671,1.8838592,3.30731,1.9435279,0.5471751,-0.618901
0.758,3.1523938,1.8598512,3.3254633,1.9553373,0.53540146,-0.62503207
0.76,3.0307405,1.8356934,3.3417966,1.9680785,0.528757,-0.6315085
0.762,2.910348,1.8109256,3.3556187,1.9818776,0.5274102,-0.6381863
0.764,2.7919943,1.7850385,3.3661876,1.9968555,0.5313747,-0.64496
0.766,2.6763904,1.7575966,3.3729215,2.0131207,0.5405444,-0.6517574
0.768,2.5640848,1.7281371,3.3751369,2.030758,0.55467856,-0.6585469
0.77,2.4555027,1.6965666,3.372277,2.0498447,0.5734086,-0.66533005
0.772,2.3511312,1.6625543,3.3638406,2.0704708,0.5962972,-0.672127
0.774,2.251307,1.6260083,3.349536,2.09269,0.6228657,-0.6789909
0.776,2.1561968,1.586938,3.3290792,2.1165352,0.652568,-0.68599653
0.778,2.0658216,1.5453053,3.302508,2.142017,0.68484485,-0.69319403
0.78,1.9801221,1.5013707,3.26969,2.1691144,0.7191185,-0.7006143
0.782,1.898973,1.4553392,3.2306666,2.1977427,0.7547914,-0.70824283
0.784,1.822181,1.4073987,3.1855521,2.2277346,0.7912346,-0.71605885
0.786,1.7496219,1.3579303,3.1345377,2.2588367,0.82775784,-0.72402215
0.788,1.6809081,1.3072827,3.078062,2.2906892,0.86359847,-0.73208225
0.79,1.6156483,1.2558885,3.0165904,2.3228378,0.8979249,-0.7401625
0.792,1.5535985,1.20434,2.9506545,2.3547373,0.929803,-0.74822116
0.794,1.4943001,1.152881,2.880878,2.385761,0.9581946,-0.75626534
0.796,1.437276,1.1020008,2.8079062,2.4152737,0.9820069,-0.7643545
0.798,1.3822935,1.051996,2.7323663,2.442637,1.0000937,-0.7726184
0.8,1.3292799,1.0031016,2.6552184,2.4672503,1.0113409,-0.78123903
0.802,1.2779801,0.95557785,2.5771623,2.4886277,1.0147054,-0.79047483
0.804,1.2284548,0.9094859,2.4994175,2.506369,1.0092486,-0.80061275
0.806,1.1804903,0.8649955,2.4228587,2.5202153,0.99425447,-0.8119784
0.808,1.1341463,0.8219905,2.3484783,2.530038,0.96924615,-0.8249171
0.81,1.0896897,0.7805118,2.2771688,2.5358508,0.9340339,-0.8397051
0.812,1.0471716,0.7404459,2.2098217,2.5377717,0.88874805,-0.8565794
0.814,1.0069566,0.70163196,2.147421,2.5360503,0.83384633,-0.87565553
0.816,0.9693301,0.663939,2.090797,2.5310407,0.7701253,-0.89695466
0.818,0.9347086,0.62710273,2.041022,2.5231922,0.69867563,-0.9203885
0.82,0.90349966,0.5910069,1.9985131,2.513034,0.6208657,-0.9457901
0.822,0.8757237,0.5554756,1.9634912,2.501153,0.5383092,-0.97290134
0.824,0.85210395,0.5200605,1.9361362,2.4881802,0.45278883,-1.0013976
0.826,0.8331726,0.48446947,1.9164412,2.4747534,0.36615884,-1.0309042
0.828,0.8193393,0.44846267,1.9049041,2.46154,0.28028232,-1.0609944
0.83,0.81077623,0.41172528,1.901627,2.4491942,0.19695961,-1.0912192
0.832,0.80775493,0.3739211,1.9066131,2.4383368,0.117818296,-1.1211584
0.834,0.81036234,0.3346966,1.9197458,2.429539,0.04427868,-1.1504194
0.836,0.8186212,0.2937804,1.9401562,2.4233005,-0.022517323,-1.1786345
0.838,0.83276176,0.25067902,1.9669888,2.420036,-0.08173174,-1.2054906
0.84,0.85265994,0.20504892,1.9994509,2.4200406,-0.1328404,-1.2307497
0.842,0.8780925,0.15657061,2.0368292,2.4235017,-0.17559314,-1.2542727
0.844,0.9087555,0.104911804,2.0786834,2.4304588,-0.21003294,-1.2760162
0.846,0.9440405,0.04974091,2.124224,2.4408216,-0.23646218,-1.2960196
0.848,0.9838631,-0.009426475,2.172713,2.4543633,-0.25536603,-1.3143992
0.85,1.0275496,-0.07289964,2.2234054,2.4707367,-0.26738042,-1.3313218
0.852,1.0746436,-0.14094019,2.2753918,2.48953,-0.27320838,-1.3470097
0.854,1.1244705,-0.21385401,2.3277261,2.5102541,-0.27367544,-1.3616778
0.856,1.1763201,-0.29164922,2.3795338,2.5323837,-0.26967627,-1.3755113
0.858,1.229363,-0.3744743,2.4302738,2.555422,-0.26209646,-1.3886831
0.86,1.2827752,-0.4621604,2.479574,2.5789034,-0.25182658,-1.4013425
0.862,1.3357104,-0.554444,2.5271323,2.6023965,-0.2397362,-1.4135561
0.864,1.3875155,-0.6509768,2.5726676,2.6255417,-0.2266404,-1.4253445
0.866,1.4376718,-0.7512784,2.6157799,2.6480818,-0.21324259,-1.4367094
0.868,1.4855859,-0.85465395,2.6559184,2.6698325,-0.20015806,-1.4476447
0.87,1.5306739,-0.9605141,2.69266,2.690697,-0.18796319,-1.4581312
0.872,1.5725769,-1.0681531,2.7257996,2.7106404,-0.17711908,-1.4681773
0.874,1.6107748,-1.176878,2.7553575,2.7296789,-0.16799092,-1.4777981
0.876,1.6452211,-1.2859648,2.7811444,2.7478366,-0.16085953,-1.4870195
0.878,1.6761725,-1.394716,2.802453,2.7651458,-0.15594357,-1.4958727
0.88,1.7039877,-1.5025728,2.8187258,2.7816184,-0.15339637,-1.504397
0.882,1.7286209,-1.6089516,2.830284,2.7972546,-0.15332401,-1.5126493
0.884,1.7503802,-1.7134924,2.8373623,2.8120608,-0.15578097,-1.5206695
0.886,1.7698411,-1.8156883,2.839912,2.8260307,-0.16083318,-1.5284953
0.888,1.7876588,-1.915131,2.8378034,2.8391721,-0.16856337,-1.5361584
0.89,1.8045533,-2.011862,2.831706,2.8515246,-0.17904377,-1.543708
0.892,1.8212274,-2.1058042,2.8223844,2.863141,-0.19236761,-1.5511869
0.894,1.8381854,-2.1968467,2.81082,2.8740945,-0.20859766,-1.5586426
0.896,1.856184,-2.2852345,2.7979083,2.8844748,-0.22776389,-1.5661438
0.898,1.8761013,-2.3712687,2.7842445,2.894415,-0.24986267,-1.573771
0.9,1.8986976,-2.4552798,2.7702253,2.9040563,-0.2748168,-1.5816026
0.902,1.9247857,-2.5378122,2.7561853,2.9135382,-0.30252236,-1.5897162
0.904,1.9552456,-2.6194353,2.7422202,2.9229841,-0.33280963,-1.5981736
0.906,1.9907943,-2.700986,2.7285295,2.9325068,-0.3653623,-1.6069963
0.908,2.0318089,-2.7830477,2.7156122,2.9422207,-0.3996895,-1.6161891
0.91,2.0784373,-2.8659046,2.7037253,2.952189,-0.4352588,-1.6257399
0.912,2.1309314,-2.9499464,2.693263,2.9624014,-0.4715786,-1.6355946
0.914,2.1893313,-3.0354924,2.6842644,2.9728274,-0.50810117,-1.6456344
0.916,2.2535768,-3.1226506,2.676995,2.9834397,-0.54420274,-1.6557419
0.918,2.3231847,-3.211372,2.6713426,2.9941466,-0.5793689,-1.6658217
0.92,2.3977308,-3.301533,2.6672592,3.0048122,-0.61325914,-1.6757618
0.922,2.4764645,-3.393075,2.664485,3.015324,-0.6456235,-1.6854558
0.924,2.558846,-3.485641,2.662638,3.0256064,-0.6762862,-1.6948067
0.926,2.6439643,-3.5787303,2.661202,3.0356176,-0.70521927,-1.7037423
0.928,2.730956,-3.6718595,2.659593,3.0453646,-0.73252976,-1.712209
0.93,2.8189514,-3.7645354,2.6576777,3.0549083,-0.75840104,-1.720205
0.932,2.9073687,-3.856163,2.6552556,3.0643556,-0.7830337,-1.7277565
0.934,2.9947028,-3.9459362,2.6521044,3.073808,-0.80663896,-1.7348683
0.936,3.0801353,-4.0332756,2.6480284,3.0833507,-0.82941115,-1.7415141
0.938,3.162796,-4.1176023,2.6423388,3.0930138,-0.85146964,-1.7476352
0.94,3.2420073,-4.1982,2.634809,3.1027675,-0.87283224,-1.7531654
0.942,3.3169994,-4.2746716,2.625247,3.1125052,-0.8934729,-1.7580979
0.944,3.3873317,-4.346717,2.6133132,3.1220593,-0.91334075,-1.7624052
0.946,3.452724,-4.4143577,2.599421,3.1312537,-0.93237615,-1.7660663
0.948,3.5127726,-4.477394,2.5837727,3.1399026,-0.9505751,-1.7690865
0.95,3.5672007,-4.5359077,2.566488,3.1478684,-0.9680141,-1.7714324
0.952,3.6162305,-4.590087,2.5474195,3.1550694,-0.9848479,-1.7730484
0.954,3.6600404,-4.6402693,2.5264168,3.1615112,-1.0013189,-1.7738286
0.956,3.6990955,-4.686817,2.503816,3.1672735,-1.017739,-1.7736461
0.958,3.7336087,-4.730079,2.479908,3.1724873,-1.0344999,-1.7723519
0.96,3.764161,-4.77068,2.4551666,3.177281,-1.0520726,-1.7698152
0.962,3.7911444,-4.8090105,2.4301982,3.1817503,-1.0709107,-1.7659394
0.964,3.8151205,-4.8457685,2.4056199,3.1859705,-1.0913324,-1.7606665
0.966,3.8367138,-4.881415,2.381954,3.189988,-1.1135123,-1.7539986
0.968,3.8565717,-4.9163866,2.3592122,3.1937976,-1.1375622,-1.7460682
0.97,3.875454,-4.951332,2.337513,3.1973777,-1.1634934,-1.7370602
0.972,3.8941562,-4.9867077,2.3171737,3.200749,-1.1911284,-1.7271816
0.974,3.9132757,-5.022876,2.2985878,3.2039766,-1.2201899,-1.7166489
0.976,3.9333162,-5.060175,2.282241,3.2071407,-1.2504003,-1.7056633
0.978,3.9547668,-5.098797,2.2685995,3.2103488,-1.2814837,-1.6943645
0.98,3.9782014,-5.138908,2.2580469,3.2137616,-1.31313,-1.6828265
0.982,4.0040674,-5.180614,2.2506928,3.2175586,-1.3450053,-1.6710721
0.984,4.0330105,-5.2240214,2.24656,3.2219093,-1.3767837,-1.6590567
0.986,4.06505,-5.2689457,2.2460883,3.2269466,-1.4081619,-1.6467118
0.988,4.100147,-5.315402,2.2498722,3.232793,-1.4388134,-1.6339891
0.99,4.138404,-5.3633575,2.258071,3.2395394,-1.468426,-1.6208915
0.992,4.180467,-5.41272,2.2700794,3.2472625,-1.496744,-1.6074809
0.994,4.226447,-5.4633017,2.2854135,3.2560296,-1.5235555,-1.5938113
0.996,4.2763577,-5.5151415,2.3040528,3.265886,-1.548666,-1.5799253
0.998,4.3302298,-5.568237,2.3258727,3.276876,-1.5719166,-1.5659206
1,4.3884115,-5.622472,2.3500886,3.2889972,-1.5932375,-1.5519289
1.002,4.4510236,-5.6778364,2.3759723,3.3022316,-1.6125386,-1.5380651
1.004,4.5184536,-5.7345185,2.402844,3.316522,-1.6297257,-1.524476
1.006,4.5907836,-5.7924533,2.4298692,3.3317764,-1.6447355,-1.5113343
1.008,4.6684246,-5.8517137,2.456355,3.3478534,-1.6575881,-1.4988163
1.01,4.7513556,-5.9122086,2.4821138,3.3645709,-1.6684152,-1.4870716
1.012,4.839373,-5.9738255,2.5076327,3.3817358,-1.6774442,-1.4762193
1.014,4.93287,-6.036569,2.5327182,3.3991432,-1.6850544,-1.4663433
1.016,5.032482,-6.100273,2.556205,3.4165742,-1.6917793,-1.4574783
1.018,5.1391683,-6.165347,2.5770593,3.43379,-1.6983547,-1.4496123
1.02,5.253654,-6.2323513,2.5950565,3.4505293,-1.7056955,-1.4426699
1.022,5.3757696,-6.3013506,2.6104875,3.4665124,-1.7148741,-1.4364983
1.024,5.5055323,-6.37216,2.6241295,3.481453,-1.7270048,-1.4309154
1.026,5.641801,-6.4441032,2.6352835,3.4950666,-1.7431525,-1.4257152
1.028,5.784916,-6.5170455,2.6423736,3.5070877,-1.7642436,-1.4206711
1.03,5.9357867,-6.5913134,2.6448135,3.5172937,-1.7909911,-1.4155712
1.032,6.0949087,-6.6668987,2.643795,3.525503,-1.8238597,-1.4102083
1.034,6.260769,-6.7433558,2.6408021,3.531602,-1.8630186,-1.4043734
1.036,6.4314833,-6.819944,2.6374063,3.5355628,-1.9083109,-1.3978527
1.038,6.6053553,-6.896252,2.6351686,3.5374446,-1.9592707,-1.3904548
1.04,6.782921,-6.972638,2.6335015,3.5373156,-2.015356,-1.3819928
1.042,6.964034,-7.0481625,2.628675,3.5352917,-2.0759215,-1.3722812
1.044,7.145812,-7.1212125,2.6195645,3.531582,-2.1400337,-1.361034
1.046,7.3234444,-7.190815,2.610699,3.5264394,-2.2067409,-1.3479757
1.048,7.495325,-7.256739,2.6056771,3.5200825,-2.275304,-1.3328836
1.05,7.661714,-7.317996,2.6032984,3.5126681,-2.3452244,-1.3155322
1.052,7.8220277,-7.3740573,2.6024985,3.5042512,-2.4162197,-1.2957025
1.054,7.9743767,-7.4260416,2.6043456,3.4948325,-2.488171,-1.2732055
1.056,8.116976,-7.474663,2.6093807,3.484415,-2.5610206,-1.2479227
1.058,8.248223,-7.519165,2.6167963,3.4730177,-2.634802,-1.219825
1.06,8.366472,-7.558516,2.6261182,3.4605927,-2.7098398,-1.1889433
1.062,8.469553,-7.592026,2.6384645,3.4471304,-2.7865522,-1.1554089
1.064,8.555935,-7.619876,2.654712,3.432669,-2.8652635,-1.1194596
1.066,8.624946,-7.6422596,2.674784,3.4172354,-2.9462848,-1.0814137
1.068,8.676428,-7.6596603,2.698352,3.4009695,-3.0296276,-1.0415225
1.07,8.710485,-7.672979,2.725404,3.3844073,-3.1143656,-0.9998152
1.072,8.727205,-7.6833925,2.755848,3.3683114,-3.199158,-0.956432
1.074,8.727178,-7.691765,2.789702,3.3531542,-3.2835274,-0.91183144
1.076,8.711342,-7.6992126,2.8270037,3.3392816,-3.367114,-0.86628515
1.078,8.680584,-7.706534,2.8678935,3.3274102,-3.448318,-0.8195342
1.08,8.635896,-7.714421,2.9119747,3.3184395,-3.5249972,-0.77139145
1.082,8.578682,-7.7233624,2.9582481,3.3129697,-3.5955305,-0.7221298
1.084,8.510865,-7.7339706,3.0055878,3.3113222,-3.6586375,-0.6719254
1.086,8.434576,-7.746481,3.0524886,3.3137934,-3.71284,-0.62049246
1.088,8.352364,-7.760909,3.0971463,3.320641,-3.7566462,-0.56736445
1.09,8.266666,-7.7769833,3.1379704,3.3320227,-3.788931,-0.5122825
1.092,8.179806,-7.7942257,3.1734872,3.3480945,-3.8087306,-0.45512497
1.094,8.094073,-7.811849,3.202434,3.369199,-3.8148494,-0.39568245
1.096,8.011706,-7.8290915,3.2235281,3.395777,-3.8061333,-0.33371043
1.098,7.9345613,-7.844596,3.2360184,3.428276,-3.781775,-0.26901722
1.1,7.8641605,-7.856943,3.2394435,3.4671838,-3.7410607,-0.20134807
1.102,7.80158,-7.8647337,3.23353,3.5130277,-3.6833324,-0.13033044
1.104,7.747648,-7.8664355,3.2183056,3.5662358,-3.6082635,-0.05557227
1.106,7.703086,-7.8607087,3.1940024,3.627026,-3.516074,0.023292065
1.108,7.6681376,-7.846238,3.1609597,3.6953022,-3.407553,0.10653806
1.11,7.642338,-7.82181,3.1198044,3.7705927,-3.2841244,0.19428456
1.112,7.625148,-7.786286,3.071194,3.8520885,-3.1475973,0.28647494
1.114,7.6154947,-7.73868,3.0160358,3.9387949,-2.9998665,0.38282007
1.116,7.611847,-7.6781416,2.9553962,4.0295057,-2.8430295,0.48284757
1.118,7.6123238,-7.6039567,2.8903942,4.122879,-2.6793215,0.5859672
1.12,7.6155148,-7.5156784,2.8217432,4.2175713,-2.510813,0.6915555
1.122,7.6195197,-7.4130654,2.749843,4.312252,-2.3394635,0.7990167
1.124,7.621845,-7.295738,2.675878,4.405494,-2.1673238,0.9078599
1.126,7.620145,-7.163791,2.6014328,4.4960895,-1.9958701,1.0180774
1.128,7.611907,-7.0169983,2.5274773,4.58334,-1.8255079,1.13006
1.13,7.5949965,-6.855393,2.454319,4.6666074,-1.6570818,1.2440408
1.132,7.568282,-6.679474,2.3819542,4.7449226,-1.4927853,1.3599646
1.134,7.530091,-6.489784,2.31042,4.817445,-1.3348467,1.4780374
1.136,7.479928,-6.2872686,2.241173,4.883778,-1.1848422,1.5985811
1.138,7.4156227,-6.072064,2.1760411,4.9436946,-1.0443478,1.7213099
1.14,7.3349247,-5.84395,2.1151128,4.996926,-0.9153478,1.8452262
1.142,7.2364726,-5.6030583,2.0572429,5.0432906,-0.7996466,1.9691774
1.144,7.1205583,-5.3501415,2.00141,5.0827866,-0.69842386,2.0921607
1.146,6.987764,-5.0862055,1.9472094,5.115509,-0.6124257,2.213166
1.148,6.8377447,-4.811698,1.8943,5.1415963,-0.542048,2.3310854
1.15,6.668474,-4.5264487,1.8442899,5.161249,-0.48704553,2.4449391
1.152,6.4792604,-4.2317963,1.8006387,5.174763,-0.44647062,2.5540361
1.154,6.2719293,-3.929411,1.7628139,5.1824574,-0.41887486,2.6580126
1.156,6.048738,-3.6199079,1.7257295,5.184629,-0.40254545,2.7567825
1.158,5.808903,-3.3037357,1.687097,5.18156,-0.39561605,2.8505645
1.16,5.5507116,-2.9823258,1.6492828,5.1735406,-0.39620578,2.939804
1.162,5.274461,-2.6565332,1.6134746,5.1608753,-0.4025979,3.0251322
1.164,4.9821153,-2.3263779,1.5782306,5.1439013,-0.41334915,3.1071978
1.166,4.675674,-1.9928981,1.5424783,5.12299,-0.42730963,3.1865783
1.168,4.357083,-1.6588689,1.5059552,5.098574,-0.44362843,3.2637196
1.17,4.0286655,-1.3268325,1.4675547,5.0711126,-0.46173978,3.3388772
1.172,3.6935139,-0.9987253,1.4248991,5.0411143,-0.4813099,3.4121454
1.174,3.3541894,-0.6755399,1.3762014,5.0090613,-0.5022552,3.4834385
1.176,3.0128932,-0.3582455,1.3203375,4.9753613,-0.5247103,3.5525546
1.178,2.6719046,-0.04764971,1.2564244,4.940348,-0.54900813,3.619224
1.18,2.3340046,0.2556847,1.1832395,4.904258,-0.57559466,3.683147
1.182,2.0021586,0.5513321,1.0997219,4.8672323,-0.60500896,3.7440526
1.184,1.6793483,0.8384498,1.0050654,4.829296,-0.6378534,3.8016858
1.186,1.368534,1.1166764,0.8986779,4.7904015,-0.67480195,3.855853
1.188,1.0725794,1.3852881,0.78052396,4.750442,-0.71662605,3.906403
1.19,0.7944114,1.643944,0.651073,4.709293,-0.7641144,3.9532292
1.192,0.5365301,1.8923132,0.51131666,4.666885,-0.818017,3.9962354
1.194,0.3009776,2.1302266,0.36243826,4.6232214,-0.8789389,4.0353184
1.196,0.08950333,2.3577082,0.20579726,4.5784183,-0.9472977,4.070382
1.198,-0.0966893,2.5748982,0.04306686,4.532705,-1.0232874,4.1013517
1.2,-0.25711757,2.7823143,-0.124456525,4.486429,-1.1068527,4.1281767
1.202,-0.3912156,2.9805353,-0.29543924,4.439992,-1.1976875,4.150879
1.204,-0.4991909,3.1703494,-0.468557,4.3938575,-1.2952366,4.169553
1.206,-0.5819711,3.3526897,-0.64201784,4.3485117,-1.3987073,4.184403
1.208,-0.64043117,3.5282102,-0.8141879,4.3044286,-1.5071037,4.195711
1.21,-0.6760769,3.6978712,-0.98345304,4.262067,-1.6192573,4.203849
1.212,-0.6908165,3.8627732,-1.147952,4.2218513,-1.7338718,4.209286
1.214,-0.6871037,4.0241528,-1.3060074,4.1841373,-1.8496314,4.2125964
1.216,-0.66764504,4.183252,-1.4559057,4.14923,-1.9652219,4.2143893
1.218,-0.6353726,4.3412485,-1.596077,4.117383,-2.0793934,4.2152696
1.22,-0.59321374,4.499282,-1.7250742,4.088808,-2.1909611,4.215808
1.222,-0.5442827,4.658187,-1.8415729,4.0636497,-2.2988915,4.2164774
1.224,-0.49221343,4.8191786,-1.944331,4.042012,-2.4022932,4.2176337
1.226,-0.43964028,4.9828157,-2.0324292,4.0239267,-2.5004644,4.2194824
1.228,-0.39014107,5.150006,-2.1050138,4.0094066,-2.592824,4.2220845
1.23,-0.34673238,5.321327,-2.1616254,3.9984407,-2.6788955,4.225353
1.232,-0.31215715,5.497504,-2.2021785,3.9909744,-2.7583227,4.2291183
1.234,-0.28896803,5.6790285,-2.2267609,3.9869237,-2.8308637,4.233178
1.236,-0.27948755,5.8664327,-2.235518,3.9861495,-2.8964174,4.2373276
1.238,-0.28554374,6.0599093,-2.2290773,3.98845,-2.955058,4.241415
1.24,-0.30853236,6.259593,-2.2082088,3.9935582,-3.00704,4.245345
1.242,-0.3497023,6.465549,-2.1736736,4.0011,-3.05276,4.249061
1.244,-0.4098069,6.6777263,-2.1266294,4.0106354,-3.0928044,4.2525353
1.246,-0.4894408,6.8960314,-2.067819,4.0216446,-3.1279263,4.255751
1.248,-0.58884615,7.1201873,-1.9981016,4.0335274,-3.1590762,4.258672
1.25,-0.7080291,7.349881,-1.9181771,4.0456514,-3.187321,4.2612166
1.252,-0.84642977,7.58485,-1.8289111,4.0574207,-3.2137508,4.2632103
1.254,-1.0035263,7.8246098,-1.7310584,4.068312,-3.2393804,4.264403
1.256,-1.1782663,8.068693,-1.625474,4.077862,-3.2652216,4.264471
1.258,-1.3695166,8.316538,-1.5129213,4.0857177,-3.292178,4.2630653
1.26,-1.5756727,8.567265,-1.3941633,4.091609,-3.3210285,4.259802
1.262,-1.7946298,8.819946,-1.2701421,4.0953717,-3.3524594,4.2543187
1.264,-2.0243895,9.073776,-1.1416662,4.09693,-3.3869867,4.246288
1.266,-2.262814,9.327876,-1.0096457,4.096303,-3.4249175,4.2353964
1.268,-2.5084355,9.581592,-0.8747823,4.0936317,-3.4662924,4.221396
1.27,-2.759415,9.834303,-0.7377238,4.0891476,-3.5108738,4.2041
1.272,-3.0140667,10.08534,-0.59916735,4.083157,-3.5581346,4.1834316
1.274,-3.27038,10.333884,-0.45942545,4.0760584,-3.6073132,4.1593885
1.276,-3.526506,10.579088,-0.31874144,4.068301,-3.6574056,4.1320596
1.278,-3.7804196,10.820002,-0.17733717,4.060392,-3.7072194,4.1016045
1.28,-4.030155,11.055687,-0.03596294,4.052826,-3.7554626,4.0682597
1.282,-4.2738953,11.285315,0.10443139,4.046071,-3.800839,4.032305
1.284,-4.509826,11.507945,0.24280143,4.0405207,-3.8421283,3.9940617
1.286,-4.736041,11.722674,0.37811458,4.0365367,-3.8782368,3.9538774
1.288,-4.9509463,11.92873,0.5093349,4.0343437,-3.9082775,3.912078
1.29,-5.1530623,12.12558,0.6352751,4.0340858,-3.93164,3.8689756
1.292,-5.3410773,12.312633,0.75477725,4.0358047,-3.9479954,3.824836
1.294,-5.5139227,12.489699,0.86653674,4.0394588,-3.9572864,3.7798755
1.296,-5.6708555,12.656384,0.9693277,4.044942,-3.9597297,3.7342741
1.298,-5.8108473,12.812537,1.0621104,4.052067,-3.955784,3.688157
1.3,-5.9336786,12.95819,1.1441891,4.060595,-3.9461148,3.6416144
1.302,-6.0391774,13.093586,1.215455,4.0702767,-3.9315324,3.5947013
1.304,-6.127661,13.219164,1.2759421,4.0808787,-3.9129663,3.5474472
1.306,-6.1995034,13.335472,1.3261259,4.092189,-3.8913605,3.4998431
1.308,-6.255373,13.443176,1.3665957,4.1040545,-3.867636,3.451905
1.31,-6.2958446,13.542986,1.3982443,4.11643,-3.842528,3.4036272
1.312,-6.3221736,13.635911,1.4222722,4.1293397,-3.8166416,3.3549922
1.314,-6.335655,13.722893,1.440009,4.142917,-3.7903223,3.3060095
1.316,-6.337482,13.804909,1.4527707,4.157376,-3.7636423,3.2566874
1.318,-6.3297453,13.883407,1.4621925,4.17297,-3.7364318,3.2070286
1.32,-6.314579,13.959531,1.470062,4.189962,-3.708287,3.157044
1.322,-6.294453,14.034535,1.4779743,4.2086015,-3.678559,3.1067514
1.324,-6.271644,14.109526,1.4876345,4.229087,-3.6464806,3.0561872
1.326,-6.2489715,14.185764,1.5005307,4.2515445,-3.6112132,3.0053995
1.328,-6.2287984,14.264348,1.5179769,4.276,-3.5719528,2.9544806
1.33,-6.2137327,14.346314,1.5406897,4.302382,-3.528002,2.903532
1.332,-6.2059565,14.432703,1.5691701,4.330529,-3.4788537,2.8526378
1.334,-6.2070084,14.523725,1.6031096,4.360195,-3.4242523,2.8018625
1.336,-6.2188854,14.620203,1.6421752,4.3910456,-3.364251,2.7512221
1.338,-6.2425957,14.722291,1.685519,4.4226813,-3.2992449,2.700633
1.34,-6.2795177,14.830252,1.7323058,4.4546533,-3.2299562,2.649893
1.342,-6.3304763,14.944088,1.7815899,4.4864993,-3.1574068,2.5987098
1.344,-6.39593,15.063917,1.8320806,4.5177364,-3.08289,2.5466833
1.346,-6.476125,15.189659,1.8825634,4.547907,-3.0078907,2.493354
1.348,-6.5709133,15.321167,1.9318771,4.5765696,-2.9340508,2.4382384
1.35,-6.6796584,15.458242,1.978952,4.603336,-2.8630662,2.3808718
1.352,-6.8013506,15.600419,2.022704,4.627897,-2.7965703,2.320856
1.354,-6.9343405,15.747153,2.0626354,4.6500187,-2.7360532,2.257848
1.356,-7.0768046,15.897889,2.0980062,4.669551,-2.6827908,2.191601
1.358,-7.2264028,16.05192,2.128426,4.686429,-2.6378014,2.1219501
1.36,-7.380508,16.208536,2.1539202,4.7006674,-2.6018677,2.0488155
1.362,-7.5365953,16.366903,2.1746936,4.7123394,-2.575516,1.9721084
1.364,-7.6920123,16.526474,2.191413,4.7215986,-2.558987,1.8917878
1.366,-7.844083,16.686478,2.2048757,4.728619,-2.5522919,1.8078268
1.368,-7.9899087,16.846191,2.2162795,4.733589,-2.5552268,1.720186
1.37,-8.127454,17.005013,2.2272391,4.7366724,-2.5674162,1.6288302
1.372,-8.25442,17.162262,2.2395468,4.7380047,-2.5883296,1.533743
1.374,-8.369322,17.317497,2.254868,4.73764,-2.617366,1.4349366
1.376,-8.4698105,17.46983,2.2751238,4.7355666,-2.6539152,1.332439
1.378,-8.553881,17.61842,2.3019495,4.7317014,-2.6973567,1.2262865
1.38,-8.620337,17.762772,2.3366487,4.7259045,-2.7470887,1.1165483
1.382,-8.668507,17.902462,2.3809323,4.7179904,-2.8025568,1.0032899
1.384,-8.698078,18.03712,2.4360456,4.70776,-2.863261,0.8866255
1.386,-8.709049,18.166622,2.5027072,4.6949854,-2.9287748,0.7666905
1.388,-8.70228,18.29107,2.5816815,4.6794276,-2.9987097,0.64361006
1.39,-8.678921,18.410536,2.6739132,4.6608696,-3.0726957,0.51754
1.392,-8.640395,18.525045,2.7799723,4.6391044,-3.1503375,0.38864535
1.394,-8.588737,18.63509,2.9003859,4.6139436,-3.2311838,0.2570877
1.396,-8.526365,18.740849,3.035457,4.5852327,-3.3146942,0.12304503
1.398,-8.455416,18.842682,3.1848714,4.5528784,-3.4002705,-0.013314575
1.4,-8.378274,18.940878,3.3482816,4.5168123,-3.4872468,-0.15181728
1.402,-8.297316,19.035858,3.5252059,4.477025,-3.5748956,-0.2922637
1.404,-8.215202,19.128113,3.7150998,4.4335604,-3.6624756,-0.43444616
1.406,-8.13419,19.218262,3.9173756,4.3865066,-3.7492316,-0.5781475
1.408,-8.056665,19.30688,4.131174,4.336012,-3.8343863,-0.7231276
1.41,-7.9847045,19.394432,4.3556547,4.282243,-3.9172578,-0.8692267
1.412,-7.9201612,19.481255,4.589652,4.2253637,-3.9972827,-1.0163538
1.414,-7.8644304,19.567776,4.832492,4.1655345,-4.0739417,-1.164437
1.416,-7.8188295,19.654125,5.083487,4.102924,-4.146848,-1.3134565
1.418,-7.7839603,19.74026,5.3421383,4.037645,-4.2157845,-1.4634851
1.42,-7.760109,19.826015,5.608287,3.9697893,-4.2806907,-1.6146401
1.422,-7.7470903,19.911104,5.8815765,3.8994288,-4.341622,-1.767047
1.424,-7.7447066,19.995182,6.16185,3.8266318,-4.3987656,-1.920836
1.426,-7.752084,20.077827,6.4489455,3.7514524,-4.4523907,-2.0761476
1.428,-7.768052,20.158308,6.7426763,3.673975,-4.5027614,-2.23309
1.43,-7.791106,20.235725,7.0428643,3.5942855,-4.5501556,-2.391751
1.432,-7.8195767,20.309341,7.349535,3.5124893,-4.5948396,-2.5521636
1.434,-7.851898,20.378107,7.6624584,3.4287004,-4.6370454,-2.7143507
1.436,-7.886262,20.44097,7.981377,3.3430402,-4.6769123,-2.8783138
1.438,-7.921112,20.497074,8.306093,3.2556796,-4.714505,-3.044052
1.44,-7.95502,20.545378,8.636332,3.1668258,-4.749767,-3.2115324
1.442,-7.9864836,20.584843,8.971418,3.0767307,-4.7825336,-3.3806448
1.444,-8.014412,20.614838,9.31082,2.9856808,-4.812546,-3.55122
1.446,-8.037896,20.634476,9.653707,2.8939886,-4.839475,-3.7229848
1.448,-8.056028,20.643055,9.998909,2.8020043,-4.862938,-3.8955603
1.45,-8.067995,20.639915,10.345123,2.7100773,-4.8825083,-4.0685225
1.452,-8.073287,20.624512,10.690959,2.6185746,-4.897687,-4.2414064
1.454,-8.071558,20.59623,11.035308,2.527858,-4.9080067,-4.4137487
1.456,-8.062563,20.554626,11.376747,2.4382713,-4.91304,-4.5851603
1.458,-8.046083,20.49945,11.713884,2.3501356,-4.9124312,-4.7552876
1.46,-8.022137,20.430511,12.045,2.263744,-4.9059258,-4.923909
1.462,-7.9909997,20.347954,12.368479,2.1793342,-4.893406,-5.090912
1.464,-7.952857,20.251818,12.68239,2.0971029,-4.8747873,-5.2562385
1.466,-7.9078593,20.142216,12.985088,2.0172167,-4.850046,-5.419877
1.468,-7.8562407,20.01933,13.274874,1.9398046,-4.8192725,-5.5819235
1.47,-7.7981067,19.883133,13.549967,1.8649445,-4.782541,-5.742443
1.472,-7.7331934,19.733673,13.808619,1.7926891,-4.7398815,-5.901479
1.474,-7.661121,19.570768,14.049056,1.7230752,-4.6913166,-6.0590353
1.476,-7.581731,19.394405,14.269756,1.6561074,-4.6368217,-6.2150755
1.478,-7.494546,19.204311,14.469255,1.5918002,-4.5763187,-6.3695364
1.48,-7.3989434,19.000217,14.645819,1.5301731,-4.509727,-6.522337
1.482,-7.2945604,18.781971,14.797788,1.471272,-4.4370117,-6.673399
1.484,-7.1802387,18.54903,14.923744,1.4151776,-4.358171,-6.82265
1.486,-7.055996,18.30122,15.0222645,1.3620307,-4.2732725,-6.9700603
1.488,-6.921412,18.038326,15.092316,1.3120091,-4.182531,-7.115597
1.49,-6.775913,17.75997,15.133175,1.265338,-4.086339,-7.2592454
1.492,-6.6188126,17.465626,15.143549,1.2222314,-3.9852786,-7.401
1.494,-6.449832,17.155342,15.122642,1.1829054,-3.8801107,-7.540843
1.496,-6.268594,16.828772,15.070288,1.1475608,-3.7717566,-7.678769
1.498,-6.0748186,16.485933,14.986458,1.1163285,-3.6613045,-7.8147454
1.5,-5.868379,16.126945,14.871199,1.0892899,-3.5499053,-7.948695
1.502,-5.6493797,15.752203,14.725004,1.0664432,-3.4387693,-8.080515
1.504,-5.4177837,15.361922,14.548654,1.0477035,-3.3291225,-8.210053
1.506,-5.173807,14.95695,14.343328,1.0329032,-3.2221909,-8.33713
1.508,-4.917769,14.537939,14.110644,1.021806,-3.1191397,-8.461521
1.51,-4.650153,14.105983,13.852306,1.0141385,-3.021059,-8.583039
1.512,-4.3713923,13.662003,13.570464,1.0095952,-2.9289246,-8.7015295
1.514,-4.081825,13.20707,13.26737,1.0078626,-2.8435922,-8.816857
1.516,-3.7822065,12.74249,12.945324,1.0086563,-2.765831,-8.92898
1.518,-3.4733047,12.269585,12.607208,1.0117369,-2.6963067,-9.037909
1.52,-3.1555648,11.789659,12.255709,1.0168942,-2.6355498,-9.143728
1.522,-2.829475,11.304242,11.893704,1.0239407,-2.5839715,-9.246567
1.524,-2.495573,10.814702,11.523923,1.0327479,-2.541863,-9.346625
1.526,-2.1542294,10.32265,11.149054,1.0431857,-2.5094073,-9.444111
1.528,-1.8058052,9.8293705,10.771509,1.055089,-2.4866283,-9.53922
1.53,-1.450201,9.336254,10.393621,1.0682532,-2.4734807,-9.632142
1.532,-1.0876067,8.844345,10.017655,1.0824025,-2.469854,-9.723034
1.534,-0.71768045,8.354786,9.645817,1.0971694,-2.4756074,-9.812017
1.536,-0.34055567,7.868628,9.280209,1.1121027,-2.4905825,-9.899211
1.538,0.043853045,7.3868256,8.922806,1.1266886,-2.5146992,-9.984708
1.54,0.4355048,6.9102902,8.575539,1.1403353,-2.5479817,-10.068556
1.542,0.8344321,6.4396853,8.239941,1.1523933,-2.590582,-10.150781
1.544,1.2406946,5.9758053,7.9178925,1.1621907,-2.642819,-10.231351
1.546,1.6542122,5.5193357,7.6108503,1.1690323,-2.705156,-10.310192
1.548,2.07482,5.070861,7.320284,1.1722022,-2.7782085,-10.387167
1.55,2.5024192,4.631147,7.047696,1.170969,-2.8626828,-10.462079
1.552,2.9362767,4.2008266,6.7948027,1.1645885,-2.9592948,-10.534663
1.554,3.3758698,3.7805417,6.563079,1.1523063,-3.0687242,-10.604616
1.556,3.8203332,3.371074,6.3539886,1.1333976,-3.1915283,-10.671598
1.558,4.268866,2.9732823,6.1690865,1.1071777,-3.328066,-10.735261
1.56,4.720355,2.5883343,6.0098605,1.0730193,-3.4784641,-10.795289
1.562,5.173618,2.2175207,5.877781,1.0303857,-3.642581,-10.851392
1.564,5.6272693,1.862222,5.774147,0.97887975,-3.820035,-10.903337
1.566,6.080098,1.5238646,5.700329,0.9182296,-4.0102296,-10.951002
1.568,6.530552,1.2040405,5.6577225,0.848341,-4.212404,-10.994379
1.57,6.9772906,0.9043019,5.648258,0.76925135,-4.4256606,-11.033553
1.572,7.4191966,0.6265172,5.6733084,0.6811543,-4.64905,-11.068725
1.574,7.8548336,0.37276053,5.7339416,0.5843558,-4.8816004,-11.100187
1.576,8.283024,0.14484191,5.8310413,0.47926068,-5.122363,-11.1283245
1.578,8.702729,-0.055266023,5.9650974,0.36633843,-5.370399,-11.153582
1.58,9.112984,-0.2254951,6.13645,0.24610329,-5.6248236,-11.176459
1.582,9.512594,-0.3638066,6.3451586,0.11906016,-5.8847923,-11.197486
1.584,9.900729,-0.46835744,6.5910916,-0.014341116,-6.149522,-11.217138
1.586,10.27666,-0.53768075,6.8736672,-0.15371478,-6.418313,-11.23581
1.588,10.639715,-0.57040524,7.191848,-0.2987858,-6.69052,-11.253836
1.59,10.989158,-0.56548274,7.5447445,-0.44935632,-6.9654837,-11.271446
1.592,11.324403,-0.52212095,7.9310956,-0.6052842,-7.242586,-11.288824
1.594,11.645112,-0.43954027,8.349239,-0.7664814,-7.5212374,-11.306094
1.596,11.950965,-0.31735337,8.797184,-0.93288183,-7.800835,-11.32329
1.598,12.242267,-0.15553045,9.272754,-1.1044295,-8.080821,-11.340364
1.6,12.519103,0.0454911,9.773705,-1.2810488,-8.360583,-11.357195
1.602,12.782012,0.28507638,10.298037,-1.4625795,-8.639369,-11.373627
1.604,13.031887,0.56200767,10.843569,-1.6487458,-8.916392,-11.389526
1.606,13.269656,0.87467194,11.407716,-1.8391268,-9.190745,-11.404765
1.608,13.496722,1.2211211,11.987966,-2.0331357,-9.461364,-11.419218
1.61,13.714611,1.5991488,12.581776,-2.2300189,-9.727034,-11.432756
1.612,13.925257,2.0063443,13.186456,-2.4288476,-9.986404,-11.445293
1.614,14.130671,2.4399152,13.7996025,-2.628589,-10.237972,-11.456787
1.616,14.33328,2.8967466,14.418873,-2.828131,-10.480231,-11.467185
1.618,14.5354395,3.3736324,15.04217,-3.0264325,-10.711735,-11.476385
1.62,14.739812,3.8669014,15.667389,-3.2225318,-10.931168,-11.484242
1.622,14.949255,4.372946,16.292358,-3.4156203,-11.137407,-11.49053
1.624,15.166742,4.887799,16.915169,-3.605031,-11.329525,-11.495019
1.626,15.395023,5.407405,17.534105,-3.7902455,-11.506859,-11.497527
1.628,15.637309,5.927516,18.147507,-3.970899,-11.669058,-11.497873
1.63,15.896435,6.44379,18.754362,-4.1466947,-11.816053,-11.495921
1.632,16.174858,6.9519753,19.353786,-4.3173923,-11.947969,-11.49154
1.634,16.474655,7.4477816,19.94516,-4.482745,-12.065168,-11.484638
1.636,16.79731,7.927185,20.528038,-4.642483,-12.168099,-11.475135
1.638,17.143906,8.3865595,21.101974,-4.7963214,-12.257277,-11.462931
1.64,17.51503,8.822397,21.666384,-4.943929,-12.333191,-11.447891
1.642,17.911087,9.231531,22.221066,-5.084998,-12.396383,-11.429775
1.644,18.331959,9.610805,22.766064,-5.21925,-12.447435,-11.408243
1.646,18.777279,9.957552,23.301561,-5.346428,-12.486854,-11.382853
1.648,19.246048,10.269447,23.827873,-5.466309,-12.515015,-11.3531
1.65,19.73727,10.544325,24.344936,-5.5786276,-12.532164,-11.318447
1.652,20.249146,10.780489,24.85297,-5.6830807,-12.538404,-11.278347
1.654,20.779709,10.976781,25.351952,-5.7793093,-12.533814,-11.232301
1.656,21.326458,11.132243,25.84211,-5.8669267,-12.518421,-11.179809
1.658,21.886694,11.246437,26.323689,-5.945503,-12.492171,-11.120378
1.66,22.457474,11.319275,26.796799,-6.0146046,-12.455038,-11.053621
1.662,23.035849,11.3510895,27.261482,-6.0738406,-12.407163,-10.979259
1.664,23.618385,11.342777,27.71771,-6.122887,-12.348791,-10.897089
1.666,24.201801,11.295302,28.165485,-6.161504,-12.280305,-10.806998
1.668,24.782703,11.210075,28.60454,-6.189513,-12.202286,-10.708967
1.67,25.357986,11.088272,29.03463,-6.206869,-12.115529,-10.603098
1.672,25.924856,10.9314995,29.455502,-6.2135696,-12.021046,-10.489607
1.674,26.480513,10.741568,29.86667,-6.2096815,-11.920055,-10.368763
1.676,27.02226,10.52059,30.267551,-6.1953363,-11.8139515,-10.240887
1.678,27.54791,10.270433,30.657097,-6.17072,-11.704229,-10.106312
1.68,28.055752,9.993441,31.033688,-6.136073,-11.592439,-9.96537
1.682,28.54432,9.69177,31.395885,-6.091635,-11.480054,-9.818404
1.684,29.012564,9.367514,31.742245,-6.0377,-11.368528,-9.665787
1.686,29.459925,9.023077,32.071384,-5.9745793,-11.259201,-9.5079155
1.688,29.886412,8.660628,32.38197,-5.9026055,-11.153366,-9.345246
1.69,30.292696,8.282038,32.67241,-5.8221536,-11.052221,-9.178234
1.692,30.680336,7.8889236,32.941105,-5.733646,-10.956932,-9.007347
1.694,31.051094,7.483122,33.186386,-5.6375303,-10.86865,-8.833113
1.696,31.406998,7.0664377,33.407024,-5.5342927,-10.788483,-8.656077
1.698,31.750872,6.640481,33.601753,-5.4244175,-10.717527,-8.476789
1.7,32.085957,6.2066746,33.769203,-5.308424,-10.656934,-8.295779
1.702,32.416325,5.7661643,33.908245,-5.186847,-10.607862,-8.113541
1.704,32.746338,5.3195996,34.018143,-5.060199,-10.571416,-7.930567
1.706,33.08114,4.8678303,34.09844,-4.928955,-10.548575,-7.747271
1.708,33.425503,4.411332,34.148876,-4.793546,-10.540112,-7.5639973
1.71,33.78528,3.9505806,34.169235,-4.6543145,-10.546555,-7.381012
1.712,34.166126,3.4859872,34.16022,-4.511488,-10.5681715,-7.198538
1.714,34.57395,3.017826,34.12239,-4.365181,-10.604942,-7.0166936
1.716,35.01517,2.5464993,34.05775,-4.2153406,-10.656537,-6.8354783
1.718,35.49539,2.0728145,33.968456,-4.061782,-10.722293,-6.6547813
1.72,36.02089,1.5971336,33.85722,-3.9041677,-10.801265,-6.474375
1.722,36.597225,1.120379,33.727085,-3.7420163,-10.892205,-6.2938623
1.724,37.23049,0.6435051,33.581158,-3.5747132,-10.993585,-6.112651
1.726,37.926086,0.16793966,33.423306,-3.401563,-11.103685,-5.929999
1.728,38.688587,-0.30435133,33.257362,-3.2217946,-11.220691,-5.745032
1.73,39.52232,-0.77055883,33.08748,-3.0346029,-11.342744,-5.5566745
1.732,40.430656,-1.2272902,32.917973,-2.8391266,-11.467993,-5.3636856
1.734,41.416073,-1.670239,32.75352,-2.6345413,-11.59465,-5.1646075
1.736,42.48048,-2.0937214,32.598934,-2.4200363,-11.721031,-4.95778
1.738,43.624756,-2.4923582,32.45967,-2.194822,-11.84553,-4.741412
1.74,44.848038,-2.8599176,32.340633,-1.9581275,-11.966631,-4.5135326
1.742,46.148384,-3.18968,32.24659,-1.7093301,-12.083042,-4.272031
1.744,47.52567,-3.475378,32.183014,-1.447888,-12.193657,-4.014686
1.746,48.97438,-3.707323,32.15459,-1.1734202,-12.297548,-3.7392464
1.748,50.49212,-3.8765144,32.16613,-0.8856683,-12.393961,-3.4435081
1.75,52.078472,-3.9729767,32.22309,-0.5844836,-12.482313,-3.1253333
1.752,53.71843,-3.9771466,32.323627,-0.26986957,-12.562299,-2.7827392
1.754,55.4057,-3.8748865,32.46537,0.058059692,-12.633819,-2.413991
1.756,57.140106,-3.6597958,32.66281,0.39904892,-12.697012,-2.017621
1.758,58.920975,-3.3187943,32.922436,0.7526517,-12.75219,-1.5924277
1.76,60.72853,-2.8267708,33.236004,1.1181719,-12.799835,-1.1375442
1.762,62.556473,-2.161477,33.59565,1.4945585,-12.840593,-0.65241736
1.764,64.4096,-1.3054476,33.99662,1.8803821,-12.875238,-0.13687387
1.766,66.28148,-0.23535919,34.436718,2.273788,-12.9046,0.40879568
1.768,68.16372,1.0774584,34.91327,2.67257,-12.929405,0.9837813
1.77,70.04662,2.663725,35.4317,3.0742297,-12.950193,1.5868057
1.772,71.91395,4.5515933,35.99517,3.476148,-12.967295,2.216246
1.774,73.76338,6.733514,36.58938,3.8757086,-12.980914,2.870298
1.776,75.59613,9.228251,37.203697,4.270467,-12.991059,3.546954
1.778,77.39844,12.100131,37.831146,4.658356,-12.9976015,4.24416
1.78,79.17522,15.361578,38.44719,5.0377417,-13.000503,4.9600205
1.782,80.91682,19.02702,39.03882,5.408114,-12.998833,5.6925945
1.784,82.60094,23.124912,39.613136,5.7697315,-12.991205,6.439881
1.786,84.23345,27.657463,40.20143,6.1222744,-12.977246,7.200424
1.788,85.746025,32.649082,40.826256,6.466335,-12.95572,7.974287
1.79,87.03363,38.09833,41.562035,6.8045096,-12.922849,8.762237
1.792,88.1753,43.946804,42.488464,7.139651,-12.874109,9.565191
1.794,89.30064,50.216007,43.5258,7.4738483,-12.805745,10.3851385
1.796,90.45682,56.88199,44.700554,7.8086205,-12.713441,11.224983
1.798,91.56424,63.911755,46.03749,8.145868,-12.590623,12.087449
1.8,92.6135,71.24638,47.57212,8.486905,-12.430471,12.974752
1.802,93.600075,78.84196,49.36315,8.831909,-12.225322,13.88892
1.804,94.48415,86.68453,51.402313,9.181509,-11.963889,14.832838
1.806,95.26059,94.69176,53.74196,9.535528,-11.634087,15.80997
1.808,95.93558,102.78021,56.4485,9.893109,-11.225508,16.821402
1.81,96.52562,110.86449,59.572685,10.251632,-10.730799,17.867086
1.812,97.05441,118.84623,63.114502,10.604563,-10.145712,18.948713
1.814,97.54816,126.59451,67.085175,10.942127,-9.468067,20.069405
1.816,98.070755,134.06332,71.47363,11.253638,-8.698603,21.235268
1.818,98.54222,141.27391,76.3233,11.530651,-7.8381376,22.45482
1.82,99.10416,147.9508,81.64186,11.770913,-6.867481,23.731056
1.822,99.91255,153.818,87.473175,11.974624,-5.7581425,25.059555
1.824,100.806526,158.90494,93.67172,12.13752,-4.4953423,26.431671
1.826,101.898315,163.1097,100.1347,12.259848,-3.0739322,27.839277
1.828,103.29433,166.33054,106.76928,12.353751,-1.4688683,29.272234
1.83,105.05493,168.51724,113.47046,12.437015,0.37118912,30.718283
1.832,107.242676,169.67168,120.11412,12.526417,2.4910421,32.15256
1.834,109.9043,169.84648,126.55371,12.642764,4.9288454,33.55617
1.836,113.06634,169.09738,132.6272,12.806225,7.71157,34.90994
1.838,116.7441,167.48352,138.16353,13.032892,10.858544,36.175117
1.84,120.918526,165.0848,142.99455,13.33362,14.374013,37.294903
1.842,125.53645,162.00964,146.94395,13.706111,18.233856,38.209183
1.844,130.52402,158.37708,149.84348,14.1256485,22.37379,38.877087
1.846,135.79005,154.31342,151.5597,14.53807,26.64633,39.242393
1.848,141.2118,149.95898,152.00232,14.90818,30.915451,39.24928
1.85,146.64713,145.4574,151.11497,15.212744,35.05664,38.864124
1.852,151.93745,140.9478,148.86731,15.386429,38.909286,38.080193
1.854,156.91736,136.55466,145.26398,15.363001,42.31235,36.889923
1.856,161.42422,132.38155,140.35406,15.0946045,45.139717,35.278267
1.858,165.29715,128.51244,134.22595,14.537099,47.281307,33.230453
1.86,168.38457,125.008705,127.0014,13.656618,48.65404,30.736103
1.862,170.5666,121.90117,118.836205,12.440385,49.21254,27.793777
1.864,171.739,119.20614,109.90782,10.901845,48.950493,24.409544
1.866,171.82191,116.92402,100.40208,9.07477,47.895714,20.603283
1.868,170.76698,115.02901,90.53305,7.0058384,46.10225,16.429344
1.87,168.57635,113.46967,80.53084,4.749523,43.648697,11.986369
1.872,165.27232,112.18856,70.61514,2.363181,40.632576,7.4170513
1.874,160.90216,111.1257,60.989803,-0.10003185,37.151905,2.9032774
1.876,155.55685,110.211945,51.83905,-2.5920372,33.315666,-1.3534341
1.878,149.35312,109.376434,43.324326,-5.0677977,29.251637,-5.1609344
1.88,142.42769,108.554405,35.57247,-7.494961,25.0845,-8.364861
1.882,134.93594,107.69435,28.68361,-9.853116,20.908476,-10.86541
1.884,127.027596,106.78258,22.739882,-12.121343,16.79561,-12.629222
1.886,118.85595,105.7824,17.781094,-14.273076,12.826054,-13.6840515
1.888,110.587326,104.63372,13.80984,-16.282236,9.074328,-14.125966
1.89,102.3618,103.34628,10.812441,-18.120142,5.604801,-14.088517
1.892,94.32369,101.93056,8.733283,-19.757069,2.465478,-13.707784
1.894,86.608505,100.38939,7.4799514,-21.167423,-0.3066721,-13.112651
1.896,79.30499,98.7537,6.933115,-22.330685,-2.6816807,-12.419731
1.898,72.54411,97.032684,6.984934,-23.230957,-4.6341705,-11.727455
1.9,66.4379,95.259346,7.4895735,-23.858555,-6.1230793,-11.07604
1.902,60.90374,93.50189,8.321672,-24.245335,-7.177742,-10.476761
1.904,55.854343,91.73678,9.500332,-24.431349,-7.8529587,-9.933312
1.906,51.308178,89.98473,10.916737,-24.420048,-8.175694,-9.4426155
1.908,47.375717,88.26194,12.475563,-24.228662,-8.183656,-8.980831
1.91,44.05544,86.5917,14.08573,-23.889566,-7.9398117,-8.520786
1.912,41.327507,84.96609,15.654961,-23.426163,-7.499358,-8.050242
1.914,39.188934,83.34743,17.165976,-22.858356,-6.9164267,-7.571866
1.916,37.590332,81.75933,18.547647,-22.210285,-6.2492666,-7.096906
1.918,36.472363,80.207,19.739807,-21.50912,-5.555832,-6.6374717
1.92,35.773647,78.685425,20.717058,-20.778196,-4.8874288,-6.2061367
1.922,35.436012,77.19304,21.50407,-20.037342,-4.283881,-5.8219523
1.924,35.40983,75.74735,22.103706,-19.30589,-3.7755733,-5.5069537
1.926,35.624763,74.28676,22.532822,-18.603012,-3.383956,-5.279169
1.928,36.14213,72.727776,22.755695,-17.944813,-3.1197577,-5.1496267
1.93,36.80847,71.26582,22.780355,-17.342346,-2.9833775,-5.1223516
1.932,37.516914,70.01364,22.585367,-16.803242,-2.969317,-5.19275
1.934,38.448242,68.791985,22.310793,-16.332083,-3.0695128,-5.3468604
1.936,39.47537,67.60675,21.99888,-15.93029,-3.274251,-5.563151
1.938,40.51345,66.4734,21.658302,-15.595995,-3.572176,-5.8162403
1.94,41.53611,65.37452,21.296339,-15.324539,-3.9515712,-6.0809975
1.942,42.51333,64.27663,20.926798,-15.109864,-4.4023933,-6.3355036
1.944,43.425026,63.14358,20.572182,-14.945353,-4.916904,-6.5626297
1.946,44.259914,61.979404,20.256521,-14.824135,-5.489142,-6.7507057
1.948,45.002712,60.811626,20.002329,-14.739098,-6.1136613,-6.8936086
1.95,45.653084,59.66484,19.824018,-14.683331,-6.7846045,-6.990063
1.952,46.21795,58.552025,19.743654,-14.6506605,-7.496425,-7.042498
1.954,46.69765,57.488968,19.776783,-14.635328,-8.243618,-7.0554547
1.956,47.086502,56.489914,19.917402,-14.63151,-9.019401,-7.034221
1.958,47.388863,55.558838,20.144009,-14.633303,-9.815482,-6.9837017
1.96,47.609207,54.695435,20.439161,-14.6349945,-10.622489,-6.9075756
1.962,47.752533,53.898308,20.79771,-14.631308,-11.4303875,-6.808023
1.964,47.819878,53.169594,21.215485,-14.617479,-12.228899,-6.685742
1.966,47.81259,52.511803,21.683163,-14.589291,-13.007795,-6.540376
1.968,47.73191,51.926056,22.191177,-14.5431595,-13.757526,-6.3710837
1.97,47.581127,51.411743,22.731936,-14.476141,-14.469616,-6.1771417
1.972,47.36284,50.96662,23.300611,-14.385986,-15.137097,-5.9586525
1.974,47.077854,50.587326,23.891874,-14.271068,-15.754754,-5.7168646
1.976,46.72804,50.269543,24.49611,-14.130318,-16.319176,-5.454288
1.978,46.31938,50.008087,25.100727,-13.96319,-16.828669,-5.1745863
1.98,45.855793,49.79837,25.695568,-13.769517,-17.283009,-4.8822885
1.982,45.33869,49.63714,26.272923,-13.549424,-17.683084,-4.5823317
1.984,44.768883,49.52121,26.8248,-13.303244,-18.030561,-4.2795324
1.986,44.147915,49.447365,27.343882,-13.031493,-18.327574,-3.9781547
1.988,43.477486,49.411797,27.82474,-12.734768,-18.576387,-3.6815143
1.99,42.75888,49.409332,28.264519,-12.413725,-18.779108,-3.3917875
1.992,41.99278,49.43383,28.662436,-12.069093,-18.93757,-3.1098847
1.994,41.179234,49.478558,29.019413,-11.701686,-19.053331,-2.8356233
1.996,40.31765,49.5366,29.337412,-11.312333,-19.12747,-2.5679502
1.998,39.40649,49.601467,29.6189,-10.901922,-19.160719,-2.305346
2,38.444878,49.667168,29.866512,-10.471434,-19.153543,-2.0461693
2.002,37.431885,49.728336,30.083115,-10.021911,-19.106253,-1.7889388
2.004,36.367035,49.78076,30.271484,-9.55447,-19.019112,-1.5325384
2.006,35.250366,49.82109,30.434687,-9.070406,-18.892462,-1.2763529
2.008,34.082764,49.84657,30.576008,-8.571173,-18.726803,-1.0202534
2.01,32.865513,49.8555,30.6986,-8.0583105,-18.522802,-0.76440597
2.012,31.600178,49.846508,30.8062,-7.533455,-18.281355,-0.50908995
2.014,30.288422,49.81902,30.902397,-6.9983754,-18.003773,-0.25460875
2.016,28.932198,49.772915,30.991146,-6.4549146,-17.691658,-0.0011962652
2.018,27.533836,49.7076,31.07661,-5.904908,-17.346771,0.2510882
2.02,26.096277,49.62251,31.162518,-5.3501997,-16.97094,0.50239694
2.022,24.622444,49.51695,31.251907,-4.7926016,-16.565992,0.75307083
2.024,23.116283,49.38985,31.347656,-4.2339063,-16.133732,1.0035423
2.026,21.581398,49.240177,31.451422,-3.6758375,-15.675761,1.2542866
2.028,20.0215,49.067345,31.56444,-3.1200423,-15.193428,1.505696
2.03,18.440922,48.87073,31.687435,-2.5680535,-14.6877575,1.7580287
2.032,16.844097,48.649998,31.819784,-2.0213256,-14.159379,2.011338
2.034,15.236167,48.40497,31.961025,-1.4811983,-13.608496,2.265458
2.036,13.621989,48.135963,32.10822,-0.9488876,-13.034908,2.5200117
2.038,12.006791,47.843334,32.257156,-0.42552328,-12.438081,2.7745016
2.04,10.3963585,47.527626,32.40271,0.08779061,-11.817333,3.0283737
2.042,8.79628,47.189877,32.53901,0.5899577,-11.171972,3.2810826
2.044,7.2125397,46.831615,32.658886,1.0798497,-10.501487,3.532115
2.046,5.650312,46.454727,32.754578,1.5562998,-9.80571,3.7810042
2.048,4.115129,46.060497,32.81777,2.0180795,-9.084967,4.027367
2.05,2.6124916,45.65059,32.839863,2.463923,-8.340209,4.270931
2.052,1.14675,45.22678,32.812313,2.8925636,-7.573059,4.5115986
2.054,-0.27758837,44.791107,32.72649,3.3027792,-6.785828,4.7494745
2.056,-1.6568618,44.345978,32.574245,3.6933932,-5.9815335,4.984829
2.058,-2.9877324,43.893913,32.3484,4.0632935,-5.1638784,5.218014
2.06,-4.2675085,43.43751,32.042942,4.411461,-4.3371034,5.4493046
2.062,-5.4939632,42.97988,31.65289,4.736906,-3.505928,5.678838
2.064,-6.6656475,42.523968,31.17466,5.0387025,-2.6754768,5.906456
2.066,-7.781517,42.07274,30.605938,5.3159003,-1.851107,6.131546
2.068,-8.840992,41.62906,29.946423,5.567551,-1.0384183,6.353017
2.07,-9.844384,41.195557,29.197535,5.7926693,-0.24316776,6.56933
2.072,-10.792394,40.774433,28.362413,5.9902234,0.52881247,6.778427
2.074,-11.686371,40.367527,27.445795,6.1591606,1.2716415,6.9776936
2.076,-12.528252,39.976154,26.454172,6.2985706,1.9796016,7.16416
2.078,-13.320113,39.60118,25.395653,6.407738,2.6472845,7.334689
2.08,-14.06424,39.24253,24.279427,6.4861517,3.2696147,7.486122
2.082,-14.763063,38.89965,23.11597,6.533581,3.8419771,7.615447
2.084,-15.419027,38.571125,21.916775,6.550112,4.3603425,7.719942
2.086,-16.034569,38.25512,20.693636,6.536197,4.821319,7.797375
2.088,-16.612234,37.94936,19.458553,6.4926195,5.2223377,7.8461094
2.09,-17.15379,37.651073,18.22345,6.420533,5.561771,7.8651743
2.092,-17.661442,37.35716,16.999813,6.321474,5.8390446,7.8543396
2.094,-18.136337,37.06421,15.797973,6.1973653,6.054702,7.814135
2.096,-18.579826,36.7689,14.627556,6.050489,6.2103667,7.7458653
2.098,-18.992908,36.468296,13.496814,5.8834887,6.308737,7.651538
2.1,-19.376326,36.159523,12.412407,5.699349,6.3535447,7.5337467
2.102,-19.730349,35.839912,11.379545,5.5014105,6.3495035,7.395523
2.104,-20.054922,35.50718,10.401523,5.293377,6.3022075,7.240127
2.106,-20.349792,35.159607,9.47982,5.0792556,6.218073,7.0708294
2.108,-20.614536,34.795982,8.614336,4.8633375,6.1041493,6.8907843
2.11,-20.848545,34.415337,7.8032546,4.6501355,5.967991,6.7029095
2.112,-21.051228,34.017532,7.0433297,4.444325,5.8174763,6.509878
2.114,-21.22191,33.602703,6.3299475,4.250579,5.660473,6.3140883
2.116,-21.360134,33.17174,5.6572294,4.073455,5.504611,6.117603
2.118,-21.465664,32.726,5.018381,3.9171898,5.3569613,5.9221325
2.12,-21.538074,32.267086,4.4062424,3.7855535,5.2237635,5.729094
2.122,-21.576946,31.79667,3.8131301,3.6816888,5.1102767,5.53951
2.124,-21.581985,31.31651,3.2315032,3.6079836,5.020655,5.353921
2.126,-21.55302,30.828224,2.6534817,3.5659673,4.9577827,5.172529
2.128,-21.49022,30.33382,2.0718813,3.556256,4.923359,4.995234
2.13,-21.394308,29.835327,1.4800304,3.5785155,4.917912,4.821592
2.132,-21.26632,29.335098,0.8724183,3.6314886,4.9408717,4.6509004
2.134,-21.107193,28.835297,0.24444132,3.713108,4.9906836,4.482302
2.136,-20.9184,28.33805,-0.40737036,3.8205433,5.064887,4.3148947
2.138,-20.70079,27.844856,-1.0856072,3.9503279,5.160226,4.147864
2.14,-20.455751,27.357395,-1.7918961,4.098499,5.2727633,3.9805787
2.142,-20.184551,26.877155,-2.5261445,4.2606983,5.397807,3.8126144
2.144,-19.888998,26.405602,-3.2880692,4.432341,5.530029,3.6438243
2.146,-19.570148,25.944004,-4.0753403,4.608762,5.663582,3.474301
2.148,-19.229925,25.493935,-4.8846054,4.785435,5.7922916,3.3043184
2.15,-18.869888,25.056995,-5.711772,4.958091,5.9098425,3.1342757
2.152,-18.491772,24.634722,-6.5519123,5.1228914,6.009952,2.9646072
2.154,-18.097881,24.228588,-7.398759,5.27654,6.086602,2.795735
2.156,-17.689938,23.839989,-8.245495,5.416349,6.1342325,2.627983
2.158,-17.269955,23.470295,-9.084847,5.5402737,6.1479554,2.4616296
2.16,-16.840065,23.121078,-9.908867,5.6469464,6.1237407,2.2968853
2.162,-16.401861,22.793533,-10.709556,5.7356358,6.0585427,2.1339145
2.164,-15.957108,22.488514,-11.478565,5.806167,5.950309,1.9728451
2.166,-15.507662,22.20673,-12.207691,5.858833,5.7979975,1.8138001
2.168,-15.05493,21.948793,-12.889093,5.8943224,5.601636,1.6568687
2.17,-14.6002655,21.715212,-13.51556,5.913667,5.362307,1.5021756
2.172,-14.145075,21.506151,-14.08057,5.918141,5.0820746,1.3498368
2.174,-13.690056,21.321415,-14.578108,5.909197,4.7639093,1.1999707
2.176,-13.235937,21.160746,-15.002911,5.88844,4.411566,1.0527172
2.178,-12.783323,21.023453,-15.3508835,5.857584,4.0294724,0.9082112
2.18,-12.332294,20.908657,-15.619059,5.818433,3.6226315,0.7665482
2.182,-11.883003,20.815096,-15.805769,5.772835,3.1963882,0.62779665
2.184,-11.435215,20.741436,-15.910482,5.722642,2.7562594,0.49199212
2.186,-10.988609,20.686039,-15.933762,5.669712,2.3078055,0.35910964
2.188,-10.5431,20.64741,-15.87743,5.615846,1.8564534,0.22906482
2.19,-10.098498,20.624056,-15.744296,5.5627527,1.4073113,0.10176265
2.192,-9.654176,20.614204,-15.538312,5.511965,0.9650078,-0.022970676
2.194,-9.20992,20.616283,-15.264143,5.4648256,0.53357244,-0.1453594
2.196,-8.76531,20.62867,-14.926995,5.4224367,0.11641097,-0.26567054
2.198,-8.319929,20.649857,-14.532526,5.3856373,-0.2837379,-0.38420713
2.2,-7.8733644,20.678108,-14.086867,5.3550086,-0.66479206,-0.5012698
2.202,-7.424917,20.712065,-13.59618,5.3308573,-1.0253041,-0.61710835
2.204,-6.974309,20.750317,-13.066349,5.3132267,-1.3644472,-0.7319355
2.206,-6.5211687,20.791748,-12.503508,5.301922,-1.6819606,-0.8458797
2.208,-6.065175,20.835184,-11.913263,5.296541,-1.9780626,-0.95899665
2.21,-5.6059036,20.879843,-11.300923,5.296516,-2.2533495,-1.0712248
2.212,-5.143153,20.925068,-10.671499,5.301154,-2.5087094,-1.1824613
2.214,-4.6766777,20.97033,-10.029436,5.3096676,-2.7452238,-1.2924993
2.216,-4.2062025,21.015049,-9.378636,5.321224,-2.9640522,-1.4010952
2.218,-3.7316055,21.059023,-8.722415,5.3349986,-3.1663182,-1.5079613
2.22,-3.2528334,21.102272,-8.063597,5.3501873,-3.3530679,-1.6128173
2.222,-2.7699604,21.144693,-7.4047003,5.3660555,-3.5252662,-1.7153902
2.224,-2.2830315,21.186264,-6.747795,5.381934,-3.6837597,-1.8154364
2.226,-1.7923851,21.227001,-6.0943155,5.39726,-3.8292549,-1.9127648
2.228,-1.2980976,21.266953,-5.445402,5.4115953,-3.9623094,-2.007277
2.23,-0.80084515,21.306036,-4.802105,5.4246306,-4.0833645,-2.0989542
2.232,-0.30129528,21.344109,-4.1651745,5.436199,-4.192753,-2.1878908
2.234,0.19990063,21.380795,-3.5352929,5.446272,-4.2907267,-2.274328
2.236,0.7018614,21.41577,-2.9128704,5.4549174,-4.3774595,-2.3586173
2.238,1.2035999,21.448486,-2.2984407,5.4623175,-4.453055,-2.4412324
2.24,1.703907,21.47842,-1.6922755,5.4687514,-4.517582,-2.522721
2.242,2.201736,21.50487,-1.0949757,5.4745474,-4.5710716,-2.6036737
2.244,2.6956592,21.526886,-0.5070543,5.480077,-4.6135397,-2.6846545
2.246,3.1844351,21.543495,0.07095575,5.485742,-4.645012,-2.7661464
2.248,3.6665773,21.55368,0.6383691,5.4919095,-4.6655383,-2.8485718
2.25,4.1404696,21.556452,1.1944749,5.4989185,-4.675207,-2.932282
2.252,4.6045055,21.55066,1.7385314,5.5070686,-4.674138,-3.0175037
2.254,5.0571566,21.535341,2.269851,5.5165954,-4.662509,-3.1043239
2.256,5.49694,21.509615,2.7874832,5.5276837,-4.640546,-3.1927097
2.258,5.9224496,21.472742,3.2907367,5.540469,-4.608577,-3.2825098
2.26,6.3321066,21.424124,3.7788162,5.5550213,-4.5669928,-3.3734908
2.262,6.724701,21.363268,4.2509933,5.571379,-4.5163355,-3.4653296
2.264,7.099461,21.289953,4.7064977,5.589515,-4.4572954,-3.5576363
2.266,7.4552345,21.204182,5.1445885,5.609335,-4.3907337,-3.6499448
2.268,7.791191,21.106312,5.5646763,5.6306753,-4.317737,-3.7417607
2.27,8.106894,20.996574,5.966088,5.653266,-4.2395506,-3.832554
2.272,8.401925,20.875591,6.348378,5.6767426,-4.1575947,-3.921805
2.274,8.675947,20.744316,6.7112384,5.7005963,-4.073395,-4.0089765
2.276,8.929264,20.603636,7.0543776,5.7241597,-3.9885075,-4.093588
2.278,9.161926,20.454721,7.3776636,5.7466273,-3.904456,-4.175195
2.28,9.3744335,20.298752,7.6809583,5.767048,-3.8226585,-4.253437
2.282,9.567765,20.137003,7.9642706,5.784332,-3.7443705,-4.3280315
2.284,9.742477,19.970821,8.2276535,5.797291,-3.670617,-4.398806
2.286,9.8995695,19.801403,8.471147,5.8046947,-3.6021934,-4.4657063
2.288,10.040316,19.62985,8.694802,5.8053036,-3.539641,-4.5287867
2.29,10.165895,19.457405,8.898583,5.7979755,-3.4832504,-4.5882587
2.292,10.2776,19.285172,9.0824995,5.781693,-3.4330845,-4.644457
2.294,10.376966,19.113926,9.246544,5.7556405,-3.3889878,-4.6978335
2.296,10.465332,18.944504,9.390584,5.719284,-3.3505967,-4.748928
2.298,10.544248,18.777287,9.51451,5.6723404,-3.3173919,-4.7983356
2.3,10.615213,18.612745,9.618119,5.614836,-3.2887151,-4.8466377
2.302,10.679466,18.451132,9.701287,5.5471363,-3.2637908,-4.8943243
2.304,10.738281,18.29277,9.763887,5.4698505,-3.2417798,-4.9417706
2.306,10.792991,18.137745,9.805665,5.3838367,-3.2218132,-4.989245
2.308,10.844816,17.985767,9.826462,5.2901278,-3.2030299,-5.0368934
2.31,10.894852,17.83671,9.826377,5.189895,-3.1846054,-5.084716
2.312,10.944037,17.690298,9.805342,5.0843506,-3.1658235,-5.132562
2.314,10.993159,17.546246,9.763631,4.9746985,-3.146089,-5.180199
2.316,11.0429125,17.404198,9.701408,4.862079,-3.1249948,-5.2273326
2.318,11.093996,17.263824,9.619303,4.7475295,-3.1023254,-5.2736588
2.32,11.146679,17.124762,9.517874,4.631929,-3.0780602,-5.318888
2.322,11.201464,16.986788,9.398155,4.5159655,-3.0523844,-5.362794
2.324,11.258653,16.84957,9.261325,4.40009,-3.0257177,-5.405177
2.326,11.318291,16.713062,9.108894,4.284557,-2.9986274,-5.445918
2.328,11.380688,16.576992,8.942206,4.169395,-2.9717755,-5.4849606
2.33,11.445739,16.441427,8.762994,4.054471,-2.9458675,-5.5222883
2.332,11.513333,16.306503,8.5732975,3.9394903,-2.9215958,-5.557912
2.334,11.583286,16.172443,8.37512,3.8240483,-2.8996093,-5.5918436
2.336,11.655554,16.039392,8.170568,3.7076993,-2.8804338,-5.6240983
2.338,11.729968,15.907549,7.961625,3.5899844,-2.864481,-5.6546674
2.34,11.806319,15.777349,7.7505116,3.470499,-2.8519764,-5.683533
2.342,11.884615,15.649117,7.5393453,3.3489347,-2.8429866,-5.7106557
2.344,11.964614,15.52337,7.3301334,3.2250872,-2.8374462,-5.7359743
2.346,12.04632,15.400393,7.124771,3.0988877,-2.8351684,-5.75945
2.348,12.129731,15.280567,6.925136,2.9703941,-2.8358831,-5.781049
2.35,12.214773,15.164185,6.732492,2.839788,-2.839242,-5.800758
2.352,12.301569,15.051556,6.548246,2.7074041,-2.8448446,-5.818613
2.354,12.390074,14.943081,6.3734536,2.5736287,-2.852302,-5.834688
2.356,12.480359,14.838949,6.208941,2.43891,-2.86123,-5.849109
2.358,12.572684,14.739399,6.0552044,2.3037481,-2.871264,-5.862029
2.36,12.667166,14.644562,5.9125023,2.1686478,-2.882065,-5.8736405
2.362,12.7639265,14.554562,5.7809463,2.0341103,-2.8933017,-5.8841634
2.364,12.863222,14.469429,5.66026,1.9006,-2.904681,-5.893839
2.366,12.965418,14.389011,5.5500193,1.7685552,-2.9159424,-5.9028797
2.368,13.070664,14.31326,5.4495277,1.6383528,-2.9268742,-5.9114738
2.37,13.1792755,14.241989,5.3580513,1.5103209,-2.937294,-5.9197655
2.372,13.29156,14.174883,5.274714,1.3847206,-2.9470656,-5.927858
2.374,13.407801,14.111575,5.198453,1.2617584,-2.956125,-5.935765
2.376,13.528162,14.051764,5.12826,1.1415857,-2.9644532,-5.943463
2.378,13.653009,13.9949,5.063226,1.0243018,-2.9720666,-5.9508967
2.38,13.7822695,13.940586,5.0023074,0.9099502,-2.979031,-5.9579654
2.382,13.916414,13.888294,4.944542,0.7985577,-2.9854338,-5.964574
2.384,14.055548,13.837442,4.889001,0.6901163,-2.9913847,-5.970637
2.386,14.199448,13.787558,4.834999,0.58459574,-2.9970045,-5.9761176
2.388,14.348183,13.737999,4.781816,0.4819752,-3.0024114,-5.981003
2.39,14.501631,13.688204,4.729003,0.38221675,-3.00777,-5.9853315
2.392,14.659439,13.637536,4.6762023,0.2852826,-3.0132406,-5.9891973
2.394,14.821356,13.585374,4.6231976,0.1911326,-3.0190144,-5.9927483
2.396,14.986965,13.530932,4.5698466,0.09972346,-3.025304,-5.996162
2.398,15.155759,13.473635,4.5163097,0.011011839,-3.0323343,-5.9996476
2.4,15.327028,13.412671,4.4626436,-0.075066686,-3.0403125,-6.0033913
2.402,15.499975,13.347595,4.409165,-0.15856409,-3.0494175,-6.0076046
2.404,15.673693,13.277759,4.356183,-0.23953998,-3.0597599,-6.0124736
2.406,15.847317,13.202691,4.304005,-0.31807017,-3.071362,-6.0181518
2.408,16.01979,13.121853,4.253025,-0.39421535,-3.084135,-6.024775
2.41,16.19015,13.034903,4.2036715,-0.46803486,-3.0979042,-6.0324655
2.412,16.357046,12.941694,4.1563373,-0.5395838,-3.112389,-6.041296
2.414,16.519667,12.842008,4.111452,-0.608919,-3.1272633,-6.0513167
2.416,16.67681,12.735768,4.0692873,-0.6760782,-3.1421604,-6.062539
2.418,16.827478,12.623181,4.030329,-0.7410811,-3.1566944,-6.0749125
2.42,16.97059,12.504557,3.9946837,-0.80393744,-3.170476,-6.0883408
2.422,17.105343,12.380178,3.96261,-0.864635,-3.1831584,-6.102651
2.424,17.231085,12.250617,3.9340992,-0.9231528,-3.194429,-6.1175942
2.426,17.346954,12.116602,3.909267,-0.97945476,-3.20401,-6.1328497
2.428,17.452477,11.978939,3.888011,-1.0335045,-3.2116609,-6.1480417
2.43,17.547367,11.838607,3.870223,-1.085251,-3.2171547,-6.1627398
2.432,17.6311,11.696662,3.8557303,-1.134645,-3.2202802,-6.1764855
2.434,17.703484,11.554214,3.8442733,-1.1816372,-3.2208104,-6.1888366
2.436,17.764584,11.412541,3.835278,-1.2261913,-3.2185526,-6.199379
2.438,17.814327,11.27277,3.8285115,-1.2682605,-3.2132683,-6.207752
2.44,17.8529,11.13607,3.8233516,-1.3077729,-3.2047539,-6.213654
2.442,17.880814,11.003627,3.8192236,-1.3446618,-3.1928174,-6.2168465
2.444,17.898428,10.876456,3.8155873,-1.3788251,-3.17728,-6.217145
2.446,17.9063,10.755663,3.811679,-1.4101274,-3.1580095,-6.214417
2.448,17.904928,10.642149,3.8069067,-1.4384221,-3.134915,-6.2085586
2.45,17.895065,10.53677,3.800613,-1.4635642,-3.107934,-6.199507
2.452,17.877277,10.4401865,3.792015,-1.485394,-3.0770469,-6.1872163
2.454,17.852417,10.352929,3.7804463,-1.5037779,-3.0422888,-6.171659
2.456,17.821049,10.2755,3.7651274,-1.5186216,-3.0037317,-6.152836
2.458,17.784042,10.207958,3.745305,-1.5298793,-2.9614954,-6.1307845
2.46,17.742271,10.150532,3.7205055,-1.5375495,-2.915741,-6.1056094
2.462,17.696346,10.103022,3.6900005,-1.5417043,-2.866662,-6.0774255
2.464,17.647224,10.065158,3.6531808,-1.5424854,-2.8145075,-6.046401
2.466,17.595669,10.036387,3.6095197,-1.5400892,-2.7595925,-6.012757
2.468,17.542206,10.016114,3.5584464,-1.5347588,-2.7022812,-5.9767146
2.47,17.487766,10.0035095,3.4996552,-1.5267761,-2.6429887,-5.9385386
2.472,17.432991,9.997787,3.4326131,-1.516451,-2.5821884,-5.898518
2.474,17.378378,9.997808,3.3572898,-1.5041066,-2.5203884,-5.8569226
2.476,17.324387,10.002586,3.2735078,-1.490086,-2.4581032,-5.8140216
2.478,17.271418,10.010865,3.1811697,-1.4747512,-2.395857,-5.77007
2.48,17.219929,10.021386,3.0804715,-1.4584625,-2.3341503,-5.725337
2.482,17.170135,10.032963,2.9715128,-1.4415925,-2.2734463,-5.68007
2.484,17.121866,10.044363,2.8544643,-1.4245336,-2.2141752,-5.6345253
2.486,17.07557,10.054205,2.7297962,-1.4076736,-2.156707,-5.5889463
2.488,17.031075,10.061344,2.5976832,-1.3913805,-2.1013708,-5.5435524
2.49,16.988354,10.064581,2.4586277,-1.3760214,-2.0484202,-5.4985294
2.492,16.947105,10.062778,2.313146,-1.3619114,-1.9980643,-5.4540105
2.494,16.907162,10.054863,2.1618104,-1.3493237,-1.9504404,-5.410098
2.496,16.86829,10.0399475,2.0050645,-1.3384671,-1.9056177,-5.366831
2.498,16.830053,10.017158,1.8435512,-1.3294768,-1.863625,-5.324196
2.5,16.791943,9.985825,1.6778765,-1.3224149,-1.8244067,-5.28211
2.502,16.753723,9.945361,1.5086937,-1.3172626,-1.7878592,-5.2404647
2.504,16.714773,9.895332,1.3366218,-1.3139379,-1.7538211,-5.1991105
2.506,16.67471,9.835582,1.1624482,-1.31231,-1.7220867,-5.157889
2.508,16.632921,9.765973,0.9867723,-1.3122036,-1.6924248,-5.1166472
2.51,16.588982,9.686518,0.81028605,-1.3134215,-1.6645955,-5.0752316
2.512,16.54251,9.59717,0.63359547,-1.3157488,-1.6383759,-5.0334916
2.514,16.492992,9.498276,0.4573288,-1.3189828,-1.6135764,-4.991316
2.516,16.439964,9.3902,0.28210163,-1.3229284,-1.5900378,-4.948633
2.518,16.383257,9.27344,0.108594775,-1.3274238,-1.567653,-4.905403
2.52,16.322388,9.148602,-0.06262612,-1.3323532,-1.5463756,-4.861632
2.522,16.257383,9.016234,-0.23084116,-1.3376231,-1.5261987,-4.817341
2.524,16.18777,8.877174,-0.39566398,-1.3431879,-1.507154,-4.772579
2.526,16.113575,8.732227,-0.5563648,-1.3490413,-1.4893003,-4.7274284
2.528,16.034678,8.582141,-0.7126088,-1.3551967,-1.4727118,-4.6819634
2.53,15.951244,8.427848,-0.8638518,-1.361686,-1.4574397,-4.636262
2.532,15.863127,8.2702675,-1.0097812,-1.3685553,-1.4435154,-4.59038
2.534,15.770624,8.110327,-1.1500851,-1.3758527,-1.4309125,-4.5443387
2.536,15.673917,7.948916,-1.2844985,-1.3836324,-1.4195386,-4.498142
2.538,15.573125,7.7871084,-1.4130416,-1.3919083,-1.4092393,-4.4517603
2.54,15.468586,7.625826,-1.5356236,-1.400698,-1.3997982,-4.405155
2.542,15.360694,7.4660897,-1.6522928,-1.4099762,-1.3909253,-4.358267
2.544,15.249691,7.308771,-1.7632669,-1.4196827,-1.3822858,-4.311041
2.546,15.135873,7.154731,-1.8687524,-1.429727,-1.3735033,-4.263434
2.548,15.019843,7.0048113,-1.9692398,-1.4399513,-1.3641865,-4.2154036
2.55,14.90202,6.859798,-2.0651317,-1.4501758,-1.3539356,-4.166931
2.552,14.782633,6.7204285,-2.1568837,-1.4601672,-1.3423637,-4.118027
2.554,14.6622,6.5873785,-2.2452319,-1.4696671,-1.3291137,-4.0687075
2.556,14.5411005,6.4612417,-2.3307738,-1.4783952,-1.3138628,-4.019034
2.558,14.419659,6.3425474,-2.4142015,-1.4860547,-1.2963399,-3.9690738
2.56,14.298421,6.2315245,-2.496274,-1.492349,-1.2763176,-3.9189007
2.562,14.177704,6.1286473,-2.5776486,-1.4969926,-1.2536252,-3.8685966
2.564,14.057869,6.0340767,-2.659147,-1.4997251,-1.2281541,-3.818245
2.566,13.939376,5.9479327,-2.7413955,-1.5003198,-1.199848,-3.7679136
2.568,13.822486,5.8704863,-2.8250902,-1.498582,-1.1687022,-3.7176564
2.57,13.707579,5.8015623,-2.9109461,-1.4943731,-1.1347544,-3.6675026
2.572,13.595133,5.741102,-2.9994223,-1.487578,-1.0980746,-3.6174903
2.574,13.48524,5.6889124,-3.0910294,-1.4781456,-1.058776,-3.567614
2.576,13.378308,5.6449256,-3.1861668,-1.46607,-1.0170163,-3.5178552
2.578,13.274639,5.608736,-3.2852693,-1.4513912,-0.9729812,-3.4681582
2.58,13.174487,5.58012,-3.3886135,-1.4341794,-0.9269049,-3.418462
2.582,13.078076,5.5586324,-3.496368,-1.414552,-0.87908006,-3.3687208
2.584,12.985661,5.5439115,-3.6087167,-1.3926514,-0.8298282,-3.3189003
2.586,12.897402,5.535549,-3.7256143,-1.3686407,-0.7795061,-3.269005
2.588,12.813498,5.5329885,-3.8467991,-1.3426936,-0.7285037,-3.2190793
2.59,12.734057,5.535733,-3.9723134,-1.314988,-0.67724407,-3.1692283
2.592,12.659266,5.543167,-4.101739,-1.2857219,-0.6261302,-3.1195858
2.594,12.58921,5.5548763,-4.234549,-1.2550552,-0.5755603,-3.0703323
2.596,12.523793,5.5702047,-4.37026,-1.223143,-0.52590406,-3.0216722
2.598,12.463041,5.588638,-4.5082517,-1.190118,-0.47749764,-2.973807
2.6,12.406893,5.6096153,-4.6479454,-1.1560808,-0.4306147,-2.9269187
2.602,12.3552065,5.63258,-4.788654,-1.1210973,-0.3854773,-2.8811707
2.604,12.307963,5.656984,-4.9296074,-1.0851889,-0.3422497,-2.8366756
2.606,12.264977,5.6823215,-5.070065,-1.0483431,-0.30102134,-2.7935042
2.608,12.226064,5.7082,-5.209152,-1.0105077,-0.26183486,-2.7516947
2.61,12.191118,5.7340617,-5.3461227,-0.97160184,-0.22467454,-2.7112136
2.612,12.15962,5.759656,-5.4801908,-0.9315307,-0.18946251,-2.6720188
2.614,12.131703,5.7845545,-5.6105123,-0.8901835,-0.15608868,-2.6340394
2.616,12.106717,5.8084702,-5.736507,-0.84744656,-0.12439823,-2.5971718
2.618,12.084588,5.8310413,-5.857468,-0.8032083,-0.09421442,-2.561316
2.62,12.065097,5.852066,-5.9727283,-0.7573698,-0.06535231,-2.5263493
2.622,12.047851,5.871457,-6.081841,-0.70984966,-0.037623435,-2.4921558
2.624,12.032674,5.8890786,-6.184398,-0.6605789,-0.01086235,-2.45863
2.626,12.019317,5.9048104,-6.2799873,-0.6095196,0.015088469,-2.4256725
2.628,12.007399,5.9186172,-6.3684397,-0.5566545,0.04035431,-2.3932226
2.63,11.996749,5.9304223,-6.449537,-0.502001,0.06501353,-2.361241
2.632,11.987161,5.9402947,-6.5232086,-0.44558835,0.089100875,-2.329737
2.634,11.978292,5.948247,-6.5893307,-0.38748664,0.11262016,-2.2987251
2.636,11.970063,5.9543123,-6.647977,-0.32777157,0.13555223,-2.2682333
2.638,11.962244,5.9586697,-6.699142,-0.26656544,0.15782776,-2.2383096
2.64,11.954587,5.9612894,-6.742948,-0.2040178,0.1793558,-2.2090192
2.642,11.94713,5.9622674,-6.779486,-0.14029866,0.20001766,-2.1804163
2.644,11.93947,5.9616356,-6.8089986,-0.07559668,0.21969265,-2.1525526
2.646,11.931697,5.959481,-6.8316417,-0.010107197,0.23824991,-2.125464
2.648,11.923712,5.9559064,-6.8476787,0.05596383,0.2555557,-2.099169
2.65,11.915369,5.950859,-6.8573065,0.122428,0.27148938,-2.0736697
2.652,11.906681,5.9444275,-6.860811,0.18912604,0.2859456,-2.04895
2.654,11.897642,5.936784,-6.8584247,0.25592166,0.29883838,-2.024987
2.656,11.888249,5.9280148,-6.8503437,0.32269305,0.31010377,-2.0017564
2.658,11.878295,5.918323,-6.8368726,0.3893471,0.31969914,-1.9792312
2.66,11.867841,5.9077244,-6.8182373,0.45581707,0.32759345,-1.9573976
2.662,11.857014,5.896362,-6.7948985,0.5220393,0.3337692,-1.936234
2.664,11.845794,5.8844767,-6.7671223,0.5879552,0.33822665,-1.9157358
2.666,11.834173,5.8721533,-6.7352576,0.65350664,0.34095946,-1.8958745
2.668,11.822275,5.8596067,-6.6997347,0.7186283,0.3419609,-1.8766215
2.67,11.81006,5.8470716,-6.660985,0.78325945,0.34123448,-1.857928
2.672,11.797689,5.8347282,-6.619342,0.8473423,0.33878785,-1.8397217
2.674,11.785282,5.8227234,-6.5752635,0.91082466,0.33462888,-1.8219374
2.676,11.772813,5.811383,-6.5291758,0.9736777,0.32877278,-1.8044882
2.678,11.760332,5.800811,-6.4815226,1.0358876,0.32125762,-1.787303
2.68,11.748002,5.7912035,-6.432718,1.0974654,0.3121,-1.770318
2.682,11.735922,5.7827873,-6.383249,1.1584362,0.3013512,-1.7534803
2.684,11.7243,5.7757435,-6.3336244,1.2188516,0.2890594,-1.7367753
2.686,11.7131195,5.7702303,-6.284192,1.2787449,0.2752717,-1.7201924
2.688,11.702512,5.766431,-6.235371,1.3381641,0.2600351,-1.7037508
2.69,11.692566,5.7644076,-6.18767,1.3971546,0.24338415,-1.6874661
2.692,11.6834755,5.7643347,-6.1414194,1.4557571,0.22535188,-1.6713496
2.694,11.675305,5.766322,-6.097067,1.5140167,0.20598118,-1.6553988
2.696,11.668284,5.7704487,-6.054896,1.571964,0.18531747,-1.6395925
2.698,11.6624775,5.77681,-6.0153365,1.629606,0.16340137,-1.6238981
2.7,11.657902,5.785589,-5.978553,1.6869535,0.14027688,-1.6082778
2.702,11.654695,5.796815,-5.9448543,1.744007,0.11598997,-1.5926714
2.704,11.653071,5.810275,-5.9144206,1.8007383,0.09057288,-1.5770215
2.706,11.65308,5.826143,-5.8873863,1.8571216,0.06406632,-1.5612832
2.708,11.65478,5.844408,-5.8636785,1.9131204,0.036510587,-1.5454104
2.71,11.658233,5.8650346,-5.8432674,1.9686954,0.007950693,-1.5293705
2.712,11.663447,5.8879857,-5.826085,2.0238023,-0.021577358,-1.5131547
2.714,11.67055,5.91321,-5.8119216,2.0783916,-0.05203834,-1.4967629
2.716,11.67945,5.9406443,-5.800643,2.1324286,-0.083387256,-1.4802405
2.718,11.690221,5.9702396,-5.7919645,2.1858842,-0.11559823,-1.4636347
2.72,11.70283,6.0019426,-5.785596,2.2387414,-0.14864129,-1.4470125
2.722,11.717385,6.0356803,-5.781209,2.2909744,-0.1824787,-1.4304535
2.724,11.733692,6.071393,-5.7785177,2.3425672,-0.21708366,-1.4140428
2.726,11.751923,6.1090393,-5.777083,2.3935037,-0.25242376,-1.39786
2.728,11.771929,6.1485868,-5.7765813,2.443781,-0.28845626,-1.3819662
2.73,11.793665,6.1899357,-5.7765455,2.493378,-0.3251183,-1.3664054
2.732,11.817151,6.2330675,-5.776553,2.5422883,-0.36233425,-1.3511912
2.734,11.842245,6.278023,-5.776333,2.5905046,-0.39999968,-1.3363106
2.736,11.868985,6.324619,-5.775524,2.638033,-0.43801194,-1.321712
2.738,11.897253,6.373028,-5.773763,2.6848814,-0.47623914,-1.3073143
2.74,11.926966,6.4231434,-5.7706747,2.7310915,-0.5145538,-1.2930189
2.742,11.95808,6.4750657,-5.766167,2.7766984,-0.5528268,-1.2787192
2.744,11.990665,6.5286818,-5.7600155,2.8217373,-0.5909403,-1.2643133
2.746,12.024432,6.5841055,-5.752096,2.8662622,-0.6288015,-1.2496947
2.748,12.059355,6.641244,-5.7422614,2.9103284,-0.6663417,-1.2347991
2.75,12.095378,6.7001753,-5.7304883,2.953975,-0.70352054,-1.219596
2.752,12.1324215,6.76101,-5.7167826,2.9972534,-0.74032843,-1.204058
2.754,12.170464,6.8236885,-5.701125,3.0402045,-0.77677524,-1.1882052
2.756,12.209436,6.8882394,-5.683647,3.0828524,-0.81289196,-1.172075
2.758,12.2492485,6.9546337,-5.6643157,3.1252255,-0.84871465,-1.1557032
2.76,12.289836,7.0229588,-5.643387,3.1673417,-0.8843193,-1.1391379
2.762,12.331127,7.093181,-5.620989,3.209224,-0.91978264,-1.1224259
2.764,12.373147,7.165292,-5.5972023,3.2508857,-0.95518875,-1.1056049
2.766,12.415812,7.2393246,-5.572182,3.2923505,-0.99062794,-1.088704
2.768,12.459133,7.315305,-5.546021,3.3336365,-1.0261836,-1.0717266
2.77,12.5030775,7.3931828,-5.5189304,3.3747559,-1.0619497,-1.0546706
2.772,12.547672,7.4729843,-5.490871,3.4157248,-1.098011,-1.0375248
2.774,12.592766,7.5547028,-5.4619627,3.4565606,-1.1344504,-1.0202837
2.776,12.638525,7.638337,-5.432375,3.497293,-1.1713614,-1.0029187
2.778,12.684919,7.723922,-5.402052,3.5379448,-1.2088029,-0.9854275
2.78,12.731983,7.811469,-5.371088,3.578548,-1.2468429,-0.96779495
2.782,12.779682,7.9010334,-5.3395467,3.619143,-1.2855287,-0.9500186
2.784,12.827879,7.992738,-5.3074236,3.6597905,-1.3249052,-0.93211514
2.786,12.876747,8.086595,-5.274716,3.7005343,-1.365001,-0.91408473
2.788,12.926428,8.182768,-5.241415,3.7414553,-1.4058194,-0.8959357
2.79,12.976876,8.281298,-5.20741,3.7826211,-1.4473357,-0.87768686
2.792,13.028027,8.382274,-5.172684,3.824108,-1.489522,-0.85931665
2.794,13.080116,8.485695,-5.1371746,3.865968,-1.532337,-0.8408194
2.796,13.132994,8.591591,-5.1008816,3.9082708,-1.5757279,-0.8221616
2.798,13.186877,8.699956,-5.063633,3.9510663,-1.6196268,-0.8033228
2.8,13.241611,8.810944,-5.0253773,3.9943838,-1.6639817,-0.7842904
2.802,13.297312,8.924437,-4.9859667,4.0382333,-1.7087462,-0.7650441
2.804,13.3539,9.040426,-4.9452677,4.0826216,-1.7538868,-0.7455876
2.806,13.41134,9.158897,-4.903328,4.1275396,-1.799375,-0.7259531
2.808,13.469744,9.27978,-4.8599873,4.1729455,-1.8452158,-0.7061813
2.81,13.528963,9.402922,-4.815118,4.2188053,-1.8914214,-0.68633103
2.812,13.588988,9.528238,-4.7686253,4.265079,-1.93803,-0.66649294
2.814,13.649784,9.655689,-4.7205577,4.311719,-1.9850547,-0.64675665
2.816,13.711241,9.785029,-4.6708145,4.3586826,-2.0325055,-0.6272155
2.818,13.773368,9.916094,-4.6194043,4.405945,-2.0804121,-0.60797393
2.82,13.836177,10.048659,-4.566184,4.4535046,-2.128778,-0.58911574
2.822,13.8995905,10.182585,-4.5112243,4.5013514,-2.177604,-0.5707189
2.824,13.96344,10.317724,-4.454563,4.549515,-2.2268536,-0.5528294
2.826,14.027906,10.453923,-4.3960595,4.598034,-2.276483,-0.53548837
2.828,14.092872,10.590961,-4.3359017,4.646962,-2.3264198,-0.51871574
2.83,14.158495,10.728821,-4.273977,4.696365,-2.3765688,-0.50251746
2.832,14.224638,10.867378,-4.210429,4.7463326,-2.4268436,-0.4868809
2.834,14.29152,11.006696,-4.1452427,4.7969437,-2.4771223,-0.47178698
2.836,14.359278,11.146739,-4.078429,4.8482585,-2.5273,-0.45719743
2.838,14.428127,11.28765,-4.0100718,4.9003315,-2.5772743,-0.4430567
2.84,14.498041,11.429653,-3.940235,4.953217,-2.626956,-0.4292909
2.842,14.569416,11.572828,-3.8688927,5.006936,-2.6762905,-0.41580832
2.844,14.64254,11.717509,-3.7960014,5.0615053,-2.7252455,-0.40249193
2.846,14.717724,11.864002,-3.7216532,5.116933,-2.77381,-0.38921583
2.848,14.795251,12.012497,-3.6458206,5.1732283,-2.8219986,-0.3758099
2.85,14.875386,12.16362,-3.5684605,5.2303867,-2.8698583,-0.36211276
2.852,14.958452,12.317623,-3.489448,5.2884016,-2.9174585,-0.34795046
2.854,15.044787,12.475025,-3.4085734,5.347269,-2.9648714,-0.3331616
2.856,15.134794,12.636242,-3.3256955,5.4069796,-3.0121922,-0.31762505
2.858,15.228528,12.801701,-3.2406914,5.467518,-3.0595117,-0.30125237
2.86,15.326357,12.971724,-3.1532567,5.5288568,-3.1069512,-0.28400874
2.862,15.428468,13.146582,-3.0630784,5.590968,-3.154624,-0.26592517
2.864,15.534899,13.326743,-2.96998,5.653802,-3.2026353,-0.24707603
2.866,15.645841,13.512218,-2.8734066,5.71727,-3.2510905,-0.22757888
2.868,15.761157,13.703275,-2.7731318,5.7812767,-3.3001056,-0.20757365
2.87,15.880724,13.899963,-2.6687136,5.84571,-3.3497813,-0.18723154
2.872,16.004402,14.102316,-2.559745,5.9104376,-3.4001813,-0.16668463
2.874,16.131989,14.310058,-2.4458704,5.97531,-3.4513452,-0.1460805
2.876,16.263128,14.523071,-2.3267174,6.0401793,-3.5033023,-0.12555027
2.878,16.3975,14.740908,-2.201885,6.10487,-3.556047,-0.10518336
2.88,16.53447,14.963427,-2.070822,6.1692114,-3.6095424,-0.0850358
2.882,16.673582,15.190035,-1.9332901,6.2330313,-3.6637387,-0.06516743
2.884,16.814062,15.420265,-1.7889451,6.296143,-3.7185562,-0.045627594
2.886,16.955442,15.653495,-1.6373084,6.3583612,-3.7738926,-0.026457548
2.888,17.097012,15.889099,-1.4781153,6.4195347,-3.8296127,-0.0077102184
2.89,17.23796,16.126335,-1.3109457,6.4795127,-3.8855886,0.010552168
2.892,17.377325,16.364487,-1.1355152,6.5381637,-3.941661,0.028273106
2.894,17.514496,16.602768,-0.95150554,6.5953817,-3.9976473,0.04536748
2.896,17.648556,16.840397,-0.7587979,6.651087,-4.0533643,0.061771154
2.898,17.77862,17.07653,-0.55715007,6.70522,-4.108602,0.07742596
2.9,17.903933,17.31059,-0.3464711,6.7577524,-4.163113,0.09227753
2.902,18.023685,17.54174,-0.12649727,6.8087077,-4.21661,0.10629439
2.904,18.137077,17.76927,0.103004545,6.858124,-4.268792,0.11944127
2.906,18.243645,17.992535,0.34201616,6.906082,-4.319323,0.13170743
2.908,18.34258,18.21091,0.5906068,6.9526925,-4.367813,0.14311934
2.91,18.433342,18.423761,0.8488534,6.9980803,-4.413868,0.15372348
2.912,18.515503,18.630598,1.1166682,7.042412,-4.4570394,0.1635971
2.914,18.588724,18.830893,1.3939617,7.085896,-4.496833,0.17290282
2.916,18.652637,19.024149,1.6806369,7.128709,-4.532819,0.18182254
2.918,18.706915,19.210094,1.9765407,7.1710157,-4.5645685,0.19053054
2.92,18.751493,19.388216,2.2813218,7.213012,-4.591617,0.19928932
2.922,18.786291,19.558321,2.5947618,7.254871,-4.6134872,0.20839977
2.924,18.811258,19.72007,2.9165113,7.2967534,-4.629719,0.21819592
2.926,18.826448,19.873266,3.2460635,7.3387976,-4.639899,0.22900152
2.928,18.832132,20.017494,3.5830462,7.3811007,-4.643667,0.24114895
2.93,18.828451,20.15263,3.9267132,7.423753,-4.640687,0.25495481
2.932,18.815603,20.278307,4.2765503,7.4668083,-4.6306887,0.27067423
2.934,18.79391,20.394299,4.631777,7.5102754,-4.6134167,0.2885294
2.936,18.763548,20.500212,4.991517,7.554143,-4.588682,0.30868053
2.938,18.72497,20.595755,5.35494,7.5983787,-4.556332,0.3312359
2.94,18.678434,20.680405,5.721056,7.642913,-4.51627,0.3562441
2.942,18.624428,20.753698,6.088853,7.6876373,-4.468445,0.38370466
2.944,18.563234,20.815155,6.4572635,7.7324333,-4.4128423,0.4135847
2.946,18.49507,20.864143,6.8251457,7.7771454,-4.349511,0.44582605
2.948,18.420362,20.900011,7.19149,7.821591,-4.2785783,0.48036098
2.95,18.339678,20.921906,7.555131,7.865575,-4.2002163,0.5170965
2.952,18.25291,20.929165,7.9149895,7.9088454,-4.1147203,0.55591965
2.954,18.160664,20.921114,8.269999,7.9511366,-4.0224705,0.5966983
2.956,18.06313,20.89716,8.619055,7.992137,-3.9238982,0.6392803
2.958,17.960768,20.856705,8.96118,8.031536,-3.8195033,0.68352795
2.96,17.853966,20.79899,9.295359,8.069017,-3.7098498,0.72929525
2.962,17.742878,20.72359,9.620781,8.1042385,-3.5955267,0.7764478
2.964,17.627811,20.630257,9.936577,8.1369,-3.4771237,0.8249059
2.966,17.509174,20.518751,10.242113,8.1666975,-3.355233,0.8746307
2.968,17.387272,20.389084,10.536731,8.193358,-3.2304301,0.9256077
2.97,17.262262,20.241426,10.820003,8.216693,-3.103191,0.977932
2.972,17.13454,20.076128,11.091401,8.236543,-2.9739919,1.0317774
2.974,17.004282,19.893702,11.350779,8.252765,-2.843315,1.0872917
2.976,16.871674,19.695019,11.597644,8.265247,-2.7116241,1.1446803
2.978,16.737,19.480877,11.832039,8.27392,-2.5793295,1.2041423
2.98,16.600426,19.252396,12.053827,8.278722,-2.446808,1.2658806
2.982,16.462019,19.010714,12.263031,8.279609,-2.3144283,1.3300619
2.984,16.321793,18.757347,12.4597,8.276519,-2.182562,1.3967938
2.986,16.179873,18.493544,12.6439085,8.269374,-2.0515676,1.4661112
2.988,16.036177,18.220934,12.815905,8.258089,-1.9218099,1.5379624
2.99,15.890714,17.940762,12.975651,8.242549,-1.7936168,1.6122198
2.992,15.7432375,17.654728,13.123486,8.222616,-1.6672728,1.688662
2.994,15.593859,17.364227,13.25955,8.198142,-1.543018,1.7670107
2.996,15.442076,17.070782,13.384014,8.168994,-1.421044,1.8469586
2.998,15.287619,16.775753,13.497002,8.135034,-1.3014741,1.9281557
3,15.130365,16.480621,13.598819,8.096153,-1.1843913,2.0102627
3.002,14.97011,16.186636,13.689567,8.052242,-1.0698049,2.092971
3.004,14.806414,15.894985,13.769632,8.003275,-0.9576827,2.1760337
3.006,14.638977,15.606716,13.839209,7.949254,-0.8479249,2.2592778
3.008,14.467388,15.322996,13.8985195,7.8902154,-0.74040806,2.3426068
3.01,14.291237,15.044697,13.947901,7.8262463,-0.634983,2.4259865
3.012,14.110374,14.772749,13.987522,7.7574854,-0.53146213,2.5094445
3.014,13.924353,14.507989,14.017724,7.684125,-0.4296108,2.5930624
3.016,13.732972,14.251102,14.038861,7.606407,-0.3291936,2.6769342
3.018,13.535754,14.00275,14.051371,7.524612,-0.22993588,2.7611604
3.02,13.332647,13.763398,14.05567,7.4390535,-0.13154787,2.8458576
3.022,13.123287,13.533619,14.052196,7.35008,-0.03372568,2.9311159
3.024,12.90755,13.313835,14.041552,7.258028,0.06383449,3.0169835
3.026,12.685362,13.1044035,14.024359,7.1632566,0.16145617,3.1034584
3.028,12.456581,12.905475,14.001049,7.06612,0.2594412,3.1905098
3.03,12.22108,12.717512,13.972272,6.966934,0.35808867,3.2780185
3.032,11.978999,12.540339,13.938637,6.8660007,0.45764667,3.3658404
3.034,11.730431,12.374192,13.900724,6.7635775,0.5583199,3.4537873
3.036,11.475519,12.219073,13.859205,6.659876,0.66024995,3.5416324
3.038,11.214502,12.074933,13.81446,6.555053,0.7634911,3.6291246
3.04,10.947825,11.941576,13.767169,6.449204,0.86800134,3.7160115
3.042,10.675704,11.819081,13.717931,6.342387,0.97366464,3.8020582
3.044,10.398119,11.707488,13.667698,6.2346296,1.0802639,3.8870625
3.046,10.115185,11.606778,13.617287,6.1259036,1.1874868,3.9708495
3.048,9.82745,11.516758,13.567064,6.016167,1.2949474,4.053306
3.05,9.535256,11.4373865,13.517562,5.9053593,1.4022094,4.134364
3.052,9.239111,11.368519,13.469605,5.7934284,1.5087779,4.214018
3.054,8.939329,11.310038,13.423578,5.680344,1.6141183,4.2922816
3.056,8.6366415,11.262083,13.3798275,5.566107,1.717696,4.3692036
3.058,8.330502,11.224852,13.339214,5.450733,1.8189969,4.4448028
3.06,8.020802,11.19853,13.302334,5.3342924,1.9175504,4.5190973
3.062,7.707896,11.18313,13.269592,5.216895,2.0129154,4.5920696
3.064,7.3913937,11.178594,13.241468,5.098684,2.104711,4.66366
3.066,7.071327,11.184845,13.218372,4.979842,2.1926086,4.733761
3.068,6.7475944,11.201961,13.200562,4.860572,2.2763326,4.802222
3.07,6.4197063,11.229825,13.188375,4.74109,2.3556209,4.8688774
3.072,6.08745,11.268476,13.181958,4.621622,2.430226,4.933522
3.074,5.750092,11.317701,13.181291,4.502404,2.4999897,4.9959316
3.076,5.4070168,11.377152,13.18643,4.3836727,2.5648406,5.0558705
3.078,5.057541,11.446626,13.197168,4.2657003,2.6247046,5.1131167
3.08,4.700953,11.525554,13.213161,4.148725,2.6794693,5.167482
3.082,4.3360543,11.613429,13.23411,4.032981,2.7290518,5.218803
3.084,3.9624119,11.709361,13.259182,3.9187553,2.7734,5.266933
3.086,3.579228,11.812482,13.287626,3.8063047,2.8124692,5.311707
3.088,3.1858478,11.921855,13.318438,3.6958985,2.8463378,5.352908
3.09,2.781886,12.03627,13.350554,3.5878477,2.8753397,5.39028
3.092,2.3671308,12.154495,13.38261,3.48246,2.900023,5.4235134
3.094,1.9416447,12.2751,13.4129925,3.38004,2.921157,5.4522448
3.096,1.5057487,12.396506,13.439838,3.280844,2.9397397,5.476038
3.098,1.0600348,12.51712,13.461059,3.1851199,2.957035,5.4944572
3.1,0.60547733,12.635357,13.4744835,3.0930588,2.974483,5.507094
3.102,0.14324284,12.749445,13.477638,3.004759,2.9936805,5.513567
3.104,-0.32512188,12.857734,13.468053,2.9202073,3.0162294,5.5135727
3.106,-0.79783916,12.958629,13.443055,2.8392627,3.0436816,5.5069346
3.108,-1.2730412,13.050777,13.400137,2.7616167,3.0773773,5.493606
3.11,-1.7486854,13.132613,13.336822,2.6867986,3.1182766,5.473701
3.112,-2.2224813,13.202926,13.250826,2.6141913,3.166853,5.4474735
3.114,-2.6922402,13.260611,13.139916,2.5430431,3.2229612,5.4153194
3.116,-3.1557636,13.30474,13.002268,2.4724772,3.2857375,5.377741
3.118,-3.6107779,13.334499,12.836493,2.4015508,3.3535588,5.3352947
3.12,-4.055418,13.349363,12.641369,2.3293176,3.4240947,5.2885447
3.122,-4.488023,13.349094,12.416214,2.254871,3.4944017,5.2380056
3.124,-4.907158,13.333677,12.160826,2.177392,3.5611181,5.184091
3.126,-5.3118544,13.303232,11.875658,2.0962439,3.6206772,5.127111
3.128,-5.7009916,13.258107,11.561411,2.0109692,3.6695247,5.067276
3.13,-6.0744205,13.198915,11.219509,1.9213403,3.7043943,5.004664
3.132,-6.432156,13.126318,10.851849,1.8273385,3.7225754,4.9392376
3.134,-6.7745647,13.041142,10.460833,1.7291592,3.722028,4.870885
3.136,-7.1023235,12.944213,10.049207,1.6271828,3.7014017,4.7994637
3.138,-7.416311,12.836698,9.620247,1.5218639,3.6600251,4.724849
3.14,-7.7178974,12.719452,9.177483,1.4137683,3.597897,4.646949
3.142,-8.00857,12.59378,8.724565,1.303469,3.5154727,4.565759
3.144,-8.289833,12.460621,8.265567,1.1915027,3.4135468,4.481329
3.146,-8.563355,12.321029,7.8043556,1.078387,3.2932396,4.3937864
3.148,-8.830951,12.176137,7.345157,0.9646028,3.1558945,4.3033195
3.15,-9.094077,12.026912,6.8918524,0.8505788,3.0029805,4.2101774
3.152,-9.354293,11.874167,6.448125,0.73671293,2.8360198,4.114618
3.154,-9.612511,11.718626,6.017346,0.6233685,2.6565814,4.0169215
3.156,-9.869893,11.561128,5.6028314,0.510905,2.4662492,3.9173837
3.158,-10.127791,11.402692,5.207873,0.3996743,2.2666402,3.8163033
3.16,-10.387188,11.244008,4.835165,0.29001808,2.0593827,3.7140028
3.162,-10.648718,11.085913,4.486887,0.18228626,1.8461037,3.610813
3.164,-10.912741,10.929005,4.164973,0.076815605,1.6284568,3.5070844
3.166,-11.179717,10.773756,3.8710082,-0.026082754,1.4080579,3.4032073
3.168,-11.448903,10.620559,3.6056898,-0.12611938,1.1864767,3.2995865
3.17,-11.720077,10.470008,3.3696065,-0.22300208,0.96526694,3.1966486
3.172,-11.993122,10.322416,3.1631134,-0.3164761,0.745901,3.094831
3.174,-12.267647,10.178244,2.9860716,-0.4063245,0.5297488,2.9945536
3.176,-12.543186,10.037782,2.8380797,-0.49233925,0.31807113,2.896182
3.178,-12.819301,9.901111,2.7184455,-0.5743416,0.1119985,2.8000047
3.18,-13.095077,9.768227,2.6260567,-0.652199,-0.08746341,2.7062004
3.182,-13.369897,9.639117,2.559689,-0.7258162,-0.2794438,2.614828
3.184,-13.642773,9.513525,2.5179496,-0.7951387,-0.463188,2.5258584
3.186,-13.91292,9.391292,2.4991794,-0.86015487,-0.6380704,2.439168
3.188,-14.179423,9.271936,2.5016093,-0.9209087,-0.8035989,2.3545504
3.19,-14.441528,9.1552105,2.5235047,-0.9775007,-0.9594008,2.2717633
3.192,-14.698184,9.040479,2.5627975,-1.0300994,-1.1052485,2.1905303
3.194,-14.948943,8.927395,2.6178622,-1.0789206,-1.2410169,2.1105914
3.196,-15.193041,8.815331,2.6867452,-1.1242251,-1.366694,2.0316772
3.198,-15.429828,8.703829,2.767633,-1.1663227,-1.4823565,1.9535589
3.2,-15.65874,8.592176,2.8587866,-1.2055466,-1.5881547,1.8760542
3.202,-15.879519,8.479973,2.958558,-1.2422421,-1.6843011,1.7990263
3.204,-16.09171,8.366695,3.0654874,-1.276747,-1.7710803,1.7224025
3.206,-16.295,8.252012,3.1783872,-1.3093951,-1.8487939,1.646171
3.208,-16.489157,8.135589,3.2960668,-1.3404937,-1.9178044,1.5703843
3.21,-16.673977,8.016974,3.4175277,-1.3703444,-1.9784949,1.4951452
3.212,-16.849297,7.8961535,3.5419698,-1.3992162,-2.0312634,1.4205813
3.214,-17.015108,7.7729325,3.6686153,-1.4273379,-2.0764973,1.3468235
3.216,-17.17129,7.6472735,3.7968187,-1.4549149,-2.1145535,1.2740277
3.218,-17.317654,7.519102,3.9259195,-1.4820892,-2.1457627,1.2023431
3.22,-17.454222,7.38867,4.0554056,-1.5089645,-2.1703916,1.1319175
3.222,-17.58106,7.256211,4.184879,-1.5355918,-2.1886315,1.0628698
3.224,-17.698238,7.1221533,4.313977,-1.5619689,-2.2006023,0.9953234
3.226,-17.805847,6.986867,4.442511,-1.5880167,-2.2063396,0.9293897
3.228,-17.903978,6.8509016,4.570037,-1.6135997,-2.2057986,0.86516386
3.23,-17.992603,6.714665,4.696452,-1.638556,-2.1988661,0.8027178
3.232,-18.071857,6.5786824,4.8216124,-1.6626751,-2.1853771,0.74211395
3.234,-18.141771,6.443487,4.945317,-1.6857312,-2.1651528,0.6833954
3.236,-18.20236,6.309615,5.0672874,-1.7074765,-2.1380074,0.6265826
3.238,-18.253883,6.1776924,5.1874537,-1.7276821,-2.1037812,0.5716775
3.24,-18.296268,6.048291,5.3056564,-1.7461143,-2.062323,0.5186724
3.242,-18.329617,5.9218397,5.421671,-1.7625791,-2.013554,0.46754023
3.244,-18.353958,5.7990203,5.5351863,-1.7769194,-1.9574572,0.4182388
3.246,-18.369402,5.6803565,5.6459203,-1.7890064,-1.8940955,0.3707308
3.248,-18.37618,5.5662074,5.7536263,-1.798775,-1.8236449,0.324961
3.25,-18.37431,5.4571753,5.857989,-1.8062204,-1.7463596,0.28086516
3.252,-18.364088,5.353666,5.958781,-1.8113794,-1.6625835,0.23836926
3.254,-18.345758,5.2559805,6.055498,-1.8143414,-1.5727265,0.1973876
3.256,-18.319439,5.164592,6.1478834,-1.8152384,-1.4772379,0.15782937
3.258,-18.285358,5.0797653,6.2355013,-1.8142401,-1.3765818,0.11958331
3.26,-18.243843,5.001757,6.3179774,-1.8115289,-1.2712309,0.082535535
3.262,-18.194973,4.9308767,6.3949404,-1.8072863,-1.1615916,0.04657343
3.264,-18.139029,4.867314,6.4659376,-1.801675,-1.0480435,0.011587232
3.266,-18.07625,4.8111567,6.530582,-1.7948484,-0.9309056,-0.02251935
3.268,-18.006935,4.762555,6.588621,-1.786938,-0.81044126,-0.05583328
3.27,-17.931103,4.7215614,6.639566,-1.7780359,-0.68687105,-0.088428736
3.272,-17.849056,4.6880655,6.6829863,-1.7682072,-0.56036866,-0.12038344
3.274,-17.760872,4.662138,6.7186637,-1.7574859,-0.4310842,-0.15176833
3.276,-17.666628,4.643544,6.746294,-1.7458687,-0.29916906,-0.1826365
3.278,-17.566435,4.632242,6.7655687,-1.7333331,-0.16477245,-0.21305996
3.28,-17.460463,4.6279793,6.776252,-1.7198637,-0.02806878,-0.24311197
3.282,-17.348688,4.630704,6.7781405,-1.7054234,0.11073679,-0.27286047
3.284,-17.231195,4.6401505,6.7710986,-1.6899867,0.25140342,-0.3023578
3.286,-17.107996,4.6559663,6.7549973,-1.6735413,0.39364773,-0.33168232
3.288,-16.979084,4.6779394,6.7297897,-1.656078,0.53715724,-0.3608904
3.29,-16.844458,4.705806,6.695501,-1.6376185,0.68158084,-0.39004195
3.292,-16.704138,4.7391357,6.6522284,-1.6181937,0.82655084,-0.41918868
3.294,-16.558094,4.7776423,6.60011,-1.5978489,0.971684,-0.44837308
3.296,-16.406387,4.820964,6.539313,-1.5766224,1.1166183,-0.47762513
3.298,-16.249058,4.8687935,6.4702263,-1.554564,1.2609985,-0.50696075
3.3,-16.08612,4.920809,6.393259,-1.5317162,1.4045258,-0.5363978
3.302,-15.91751,4.976705,6.3088083,-1.5080972,1.5469344,-0.5659328
3.304,-15.743333,5.03605,6.21721,-1.483724,1.6880162,-0.59554964
3.306,-15.563737,5.09869,6.119124,-1.4585938,1.8276081,-0.62522936
3.308,-15.378795,5.1641665,6.015039,-1.4326882,1.965601,-0.6549411
3.31,-15.188875,5.2324286,5.9054728,-1.4059821,2.1019297,-0.68465835
3.312,-14.993801,5.303087,5.790987,-1.3784282,2.2365553,-0.7143334
3.314,-14.793892,5.3759775,5.6723633,-1.3499749,2.3694634,-0.74392563
3.316,-14.589228,5.4508705,5.5499954,-1.3205881,2.5006487,-0.7734009
3.318,-14.380152,5.5275555,5.4246097,-1.2902217,2.6301184,-0.80271953
3.32,-14.166846,5.6060643,5.29672,-1.2588494,2.7578595,-0.8318251
3.322,-13.949554,5.6860833,5.166827,-1.2264504,2.8838336,-0.86068153
3.324,-13.728423,5.767578,5.0355797,-1.1930268,3.0079968,-0.88924444
3.326,-13.5037985,5.850383,4.9035397,-1.1585988,3.1302743,-0.91745937
3.328,-13.275951,5.9345827,4.7711573,-1.1231968,3.2505689,-0.94528675
3.33,-13.045182,6.0200443,4.638871,-1.08686,3.3687563,-0.97268593
3.332,-12.811818,6.1066985,4.507161,-1.0496467,3.4846926,-0.9996151
3.334,-12.576081,6.1945286,4.3763895,-1.0116187,3.5982358,-1.0260572
3.336,-12.338254,6.2834888,4.2469244,-0.9728334,3.7092545,-1.0519805
3.338,-12.098663,6.373542,4.119134,-0.93334293,3.8176255,-1.0773815
3.34,-11.857725,6.464694,3.9932566,-0.89319694,3.9232624,-1.1022556
3.342,-11.61576,6.5568943,3.8695354,-0.8524412,4.026079,-1.1266267
3.344,-11.373046,6.650054,3.7482083,-0.8110982,4.1260304,-1.1505059
3.346,-11.129823,6.7442007,3.6294577,-0.7691854,4.223095,-1.173917
3.348,-10.88655,6.8393044,3.5133786,-0.72670984,4.3172636,-1.1968895
3.35,-10.643613,6.9353304,3.4000146,-0.6836717,4.408543,-1.2194774
3.352,-10.401238,7.032324,3.289533,-0.64006996,4.4969516,-1.2417278
3.354,-10.159777,7.130023,3.181988,-0.5958854,4.5825114,-1.2636992
3.356,-9.919609,7.228649,3.0773964,-0.5510956,4.665275,-1.2854385
3.358,-9.686269,7.3250294,2.9778748,-0.50566316,4.745287,-1.3070035
3.36,-9.455934,7.421278,2.881685,-0.45957196,4.8226223,-1.3284576
3.362,-9.229096,7.517186,2.7888083,-0.41278756,4.8973336,-1.3498404
3.364,-9.006227,7.612614,2.6993468,-0.36528242,4.9694824,-1.3711882
3.366,-8.7878475,7.7072186,2.613258,-0.3170551,5.039108,-1.392544
3.368,-8.574414,7.800821,2.5305421,-0.26810336,5.1062484,-1.4139217
3.37,-8.366385,7.893183,2.451216,-0.21844304,5.170879,-1.4353344
3.372,-8.16414,7.983983,2.3752337,-0.16811538,5.232935,-1.4567797
3.374,-7.9681606,8.072994,2.3026083,-0.11716992,5.2923117,-1.478254
3.376,-7.778735,8.160062,2.2333097,-0.06567973,5.348861,-1.4997406
3.378,-7.5961347,8.244888,2.1672645,-0.013732791,5.4023976,-1.5212424
3.38,-7.420685,8.327344,2.1045313,0.03857106,5.4527235,-1.5427656
3.382,-7.2525005,8.407269,2.04508,0.0911327,5.4996424,-1.564316
3.384,-7.091788,8.48447,1.9888058,0.1438461,5.543002,-1.5859122
3.386,-6.938607,8.558956,1.9356351,0.19474995,5.5820103,-1.606806
3.388,-6.793027,8.630514,1.8854973,0.24463713,5.6170716,-1.6273878
3.39,-6.6548553,8.699126,1.8383067,0.29308158,5.6481595,-1.6475462
3.392,-6.524126,8.76473,1.7939994,0.33965665,5.675347,-1.6671307
3.394,-6.4005914,8.827271,1.7524858,0.38394994,5.698784,-1.6859752
3.396,-6.2841725,8.88693,1.7135875,0.4256066,5.7187214,-1.7039106
3.398,-6.174577,8.943661,1.6772587,0.46435058,5.735466,-1.7207966
3.4,-6.071602,8.997553,1.6433077,0.5000092,5.7493725,-1.7365243
3.402,-5.9748983,9.048658,1.611614,0.5325175,5.760811,-1.7510152
3.404,-5.8842034,9.097106,1.5820785,0.5619218,5.77015,-1.7642298
3.406,-5.7991905,9.143026,1.5545409,0.5883636,5.7777424,-1.7761831
3.408,-5.7194576,9.186509,1.5289361,0.61202204,5.783907,-1.786923
