Time_s_,Acc_x_m_s_2_,Acc_y_m_s_2_,Acc_z_m_s_2_,Gyro_x_1_s_,Gyro_y_1_s_,Gyro_z_1_s_
0,-0.27110857,0.41300198,0.624068,1.3372842,0.8255504,-0.5810744
0.002,-0.22829756,0.40536568,0.60380256,1.3381387,0.809723,-0.58383477
0.004,-0.18349302,0.39729226,0.5825523,1.3392015,0.7920653,-0.5867445
0.006,-0.13651633,0.3887666,0.56044805,1.3405296,0.77244234,-0.5897852
0.008,-0.08740461,0.3795935,0.53756917,1.342188,0.75077194,-0.5929332
0.01,-0.035771757,0.36960912,0.51405066,1.3442531,0.7270441,-0.5961438
0.012,0.018211633,0.3588001,0.4899892,1.3468168,0.7013168,-0.5993672
0.014,0.07462093,0.3471222,0.46549317,1.3499771,0.6737567,-0.6025325
0.016,0.13354555,0.3344566,0.44071805,1.3538327,0.6446157,-0.6055736
0.018,0.19487786,0.32076687,0.41584024,1.3584626,0.61421394,-0.6084124
0.02,0.25864446,0.30588728,0.39106044,1.3639321,0.58291036,-0.6109856
0.022,0.32494697,0.289764,0.36643034,1.370295,0.5510913,-0.61322343
0.024,0.39383072,0.2722701,0.34218895,1.3775686,0.5191096,-0.61506027
0.026,0.46528193,0.25332195,0.31848475,1.3857521,0.4872759,-0.6164557
0.028,0.5393084,0.23279655,0.29538196,1.3949225,0.4550348,-0.6174948
0.03,0.6158034,0.21057701,0.27301925,1.4049263,0.4237306,-0.61796665
0.032,0.69472086,0.18660015,0.25156295,1.4157565,0.39338216,-0.61790365
0.034,0.7759497,0.1607509,0.2310777,1.4273945,0.36402607,-0.6173185
0.036,0.85923946,0.13306302,0.21164724,1.4398458,0.33569285,-0.6162216
0.038,0.94454765,0.10346711,0.19336441,1.4531479,0.30844465,-0.6146082
0.04,1.031486,0.07203594,0.1763288,1.467336,0.28233808,-0.6124746
0.042,1.1199042,0.038845956,0.16063772,1.4824427,0.25743026,-0.60980994
0.044,1.2094526,0.0039530993,0.14617924,1.4984813,0.23376608,-0.6065922
0.046,1.2999134,-0.03258699,0.13304776,1.5154796,0.21135676,-0.6028164
0.048,1.3910259,-0.07070172,0.121115334,1.5334325,0.19019175,-0.59847254
0.05,1.4824369,-0.110291064,0.11040124,1.5523065,0.17026883,-0.5935593
0.052,1.5739626,-0.1512599,0.1008794,1.5720656,0.15155482,-0.5880784
0.054,1.6651162,-0.193483,0.09259601,1.5926745,0.13405615,-0.5820286
0.056,1.7580185,-0.23747748,0.08498961,1.6141012,0.1178323,-0.5754239
0.058,1.8493004,-0.282435,0.07866873,1.636342,0.10299045,-0.568262
0.06,1.938726,-0.32830334,0.07362064,1.6594131,0.08971161,-0.56053716
0.062,2.0263143,-0.37497324,0.06967118,1.6833743,0.078249395,-0.5522128
0.064,2.111775,-0.42255366,0.06681903,1.7083123,0.06889725,-0.5432468
0.066,2.194964,-0.4710009,0.06500873,1.7343216,0.0619781,-0.53357935
0.068,2.2756708,-0.5203207,0.0642609,1.7614945,0.05779034,-0.52312386
0.07,2.3539796,-0.5706253,0.06448452,1.7899139,0.056585014,-0.51178044
0.072,2.4297276,-0.6219361,0.06569694,1.8196368,0.058540642,-0.49947074
0.074,2.5030572,-0.67433417,0.06791298,1.8506758,0.06374252,-0.48610708
0.076,2.574001,-0.7280647,0.070945665,1.8829792,0.07214147,-0.4716402
0.078,2.6426864,-0.7831433,0.07465476,1.9164689,0.08360404,-0.45605505
0.08,2.7094483,-0.8396158,0.07894197,1.9510107,0.09786135,-0.43935913
0.082,2.774487,-0.89760435,0.08375206,1.9864359,0.114531636,-0.42160457
0.084,2.8381927,-0.9571284,0.08913936,2.0225418,0.13312268,-0.4028597
0.086,2.90095,-1.0182556,0.09502277,2.0590966,0.15307122,-0.3832282
0.088,2.9632382,-1.0809369,0.10135941,2.0958743,0.1737526,-0.36285052
0.09,3.0258393,-1.1454391,0.10794559,2.1326365,0.1945157,-0.34185022
0.092,3.0892272,-1.2116067,0.114842854,2.1691506,0.21469879,-0.3203732
0.094,3.1540618,-1.2796143,0.12186697,2.2052023,0.23365295,-0.2985391
0.096,3.2211213,-1.3492681,0.12881105,2.2406077,0.25073647,-0.27647236
0.098,3.2911913,-1.420552,0.13544056,2.275201,0.26536578,-0.25429142
0.1,3.3650503,-1.4934157,0.14165634,2.3088295,0.27702868,-0.23208825
0.102,3.443755,-1.5678003,0.14781183,2.3413851,0.28527778,-0.20995136
0.104,3.527812,-1.643423,0.15428096,2.372787,0.28973407,-0.18795368
0.106,3.617189,-1.7199442,0.16032928,2.4029734,0.29007423,-0.16614886
0.108,3.7136521,-1.7975528,0.16427721,2.431895,0.28602028,-0.14458336
0.11,3.8182242,-1.8757567,0.16585596,2.4595242,0.27733982,-0.12327014
0.112,3.9307935,-1.954,0.16633523,2.4858654,0.2638396,-0.1022258
0.114,4.0514765,-2.032076,0.16591036,2.5109446,0.24538183,-0.08145795
0.116,4.1808705,-2.1098032,0.16372734,2.5347815,0.22187138,-0.060969315
0.118,4.3197007,-2.1869469,0.15974802,2.557406,0.1932689,-0.04073532
0.12,4.4676037,-2.2629092,0.15357222,2.5788612,0.15958357,-0.020707056
0.122,4.625,-2.3373609,0.14497891,2.599198,0.12086165,-0.000834167
0.124,4.79172,-2.4100456,0.13399935,2.6184683,0.07721758,0.01896815
0.126,4.9671946,-2.480483,0.120498404,2.636734,0.02881515,0.03880611
0.128,5.1511397,-2.5485525,0.104121596,2.6540623,-0.024163723,0.05878429
0.13,5.341641,-2.6133285,0.08357106,2.6705093,-0.08157873,0.07901097
0.132,5.5369453,-2.6740432,0.059926778,2.686088,-0.14335,0.099553436
0.134,5.736443,-2.731676,0.036056638,2.700786,-0.20940399,0.12039855
0.136,5.943334,-2.7888331,0.011120394,2.7146611,-0.2795508,0.14158867
0.138,6.1544085,-2.843439,-0.020674646,2.727745,-0.353678,0.16319144
0.14,6.3663464,-2.895213,-0.057629704,2.7400036,-0.43195117,0.18516791
0.142,6.5778036,-2.9444487,-0.09572637,2.7514157,-0.51453507,0.20736994
0.144,6.7872715,-2.988963,-0.13541144,2.7620041,-0.6014042,0.22961779
0.146,6.99335,-3.0282538,-0.17680857,2.7717476,-0.6925895,0.25177005
0.148,7.19421,-3.0633614,-0.21940756,2.7806327,-0.7881938,0.2736727
0.15,7.3889217,-3.0951657,-0.2636738,2.7886863,-0.8882263,0.2951812
0.152,7.5764413,-3.1242597,-0.3085788,2.7959776,-0.99270475,0.31613362
0.154,7.7561,-3.1514554,-0.35165778,2.8025856,-1.1016496,0.33635443
0.156,7.9260664,-3.1768029,-0.3928842,2.808595,-1.2150664,0.35567105
0.158,8.085068,-3.200224,-0.4321996,2.8140945,-1.3329091,0.37393543
0.16,8.231521,-3.2213202,-0.4681986,2.8191288,-1.4551654,0.39101982
0.162,8.364269,-3.239718,-0.49940825,2.823573,-1.5821342,0.40674388
0.164,8.48351,-3.2553487,-0.52448714,2.8274708,-1.7135336,0.42104572
0.166,8.589055,-3.2683675,-0.54212147,2.8312237,-1.847941,0.43410677
0.168,8.680966,-3.2789147,-0.55125505,2.8349824,-1.9846323,0.44580114
0.17,8.760009,-3.2872906,-0.5509007,2.83876,-2.123407,0.45597124
0.172,8.827116,-3.2933662,-0.54025215,2.8431609,-2.2626483,0.46512562
0.174,8.883696,-3.2969437,-0.5186909,2.8490748,-2.4001102,0.47371027
0.176,8.931273,-3.2980382,-0.4858408,2.8574014,-2.5336335,0.48178834
0.178,8.971558,-3.296579,-0.44142342,2.8692837,-2.6605585,0.4895962
0.18,9.006164,-3.2925987,-0.38537633,2.8860424,-2.7779078,0.49767014
0.182,9.036574,-3.2858226,-0.31738925,2.9089143,-2.882855,0.50660276
0.184,9.064,-3.2760315,-0.23628211,2.9390833,-2.9726026,0.5169793
0.186,9.089886,-3.2629144,-0.1406666,2.9774933,-3.0446439,0.5293733
0.188,9.115622,-3.2463515,-0.029727578,3.0246115,-3.0972917,0.54429066
0.19,9.142138,-3.2260861,0.096542954,3.0803962,-3.1296687,0.5621247
0.192,9.170586,-3.2018983,0.23806012,3.1444612,-3.1413453,0.5832145
0.194,9.201788,-3.173563,0.39473128,3.2160559,-3.132331,0.60785407
0.196,9.235807,-3.1405156,0.5666795,3.294079,-3.1033752,0.6362577
0.198,9.272572,-3.1024895,0.7538532,3.377179,-3.055772,0.6685351
0.2,9.311362,-3.0589247,0.9561907,3.463977,-2.990912,0.7048283
0.202,9.351097,-3.009507,1.1733365,3.5530858,-2.910289,0.74533045
0.204,9.390524,-2.953714,1.4047465,3.6431408,-2.8155508,0.7902094
0.206,9.427814,-2.8912625,1.6496038,3.7328806,-2.7084308,0.8396305
0.208,9.461158,-2.8216274,1.9067351,3.8211627,-2.5907187,0.89370316
0.21,9.488634,-2.7444997,2.1747966,3.9069293,-2.4643261,0.9524715
0.212,9.50783,-2.6594794,2.4517846,3.9891593,-2.3314044,1.0158591
0.214,9.516992,-2.5664656,2.7358475,4.06693,-2.1942115,1.0836613
0.216,9.514648,-2.4653547,3.0259929,4.1394677,-2.0549235,1.1556184
0.218,9.497557,-2.355678,3.3214674,4.2058887,-1.9163141,1.2312893
0.22,9.46388,-2.2375066,3.619568,4.2652946,-1.7816206,1.3100634
0.222,9.4129925,-2.1110466,3.9163709,4.317399,-1.65284,1.3915981
0.224,9.343838,-1.9762204,4.209718,4.362161,-1.5316694,1.4753675
0.226,9.255103,-1.8328223,4.4981723,4.399221,-1.4209745,1.5602708
0.228,9.1460495,-1.681026,4.7795634,4.42846,-1.3232518,1.645503
0.23,9.016947,-1.5212369,5.0523453,4.4501,-1.2401519,1.73055
0.232,8.867744,-1.3538096,5.3152566,4.4642944,-1.1732532,1.8145335
0.234,8.699224,-1.1789671,5.5668387,4.4711885,-1.1237752,1.8963864
0.236,8.512499,-0.99729097,5.8059425,4.471027,-1.0923239,1.9751897
0.238,8.308828,-0.80897164,6.0320015,4.4639835,-1.0792533,2.0502317
0.24,8.090842,-0.6149634,6.2451057,4.450273,-1.084574,2.1209722
0.242,7.860562,-0.41594732,6.4438586,4.430242,-1.1077423,2.1870673
0.244,7.618883,-0.21105373,6.626005,4.4042215,-1.1480267,2.248282
0.246,7.3642526,0.0011392832,6.793556,4.3725805,-1.204658,2.3045533
0.248,7.1019487,0.21737611,6.9516797,4.3357825,-1.2766726,2.3560236
0.25,6.8359385,0.43708718,7.09756,4.2943726,-1.362911,2.4029083
0.252,6.567699,0.66004574,7.227969,4.248983,-1.4621406,2.445436
0.254,6.2987876,0.88413584,7.345267,4.2002854,-1.5730412,2.483781
0.256,6.0308332,1.1091549,7.4509234,4.1489944,-1.6942304,2.518199
0.258,5.765787,1.3363369,7.545616,4.0958214,-1.8243077,2.5490232
0.26,5.505028,1.5659807,7.6307683,4.0414352,-1.9618396,2.5765872
0.262,5.249835,1.7977611,7.706498,3.9864898,-2.1054213,2.6012263
0.264,5.001471,2.031504,7.772096,3.9315915,-2.2536428,2.623249
0.266,4.761882,2.2664282,7.8292694,3.8773184,-2.4050786,2.6429574
0.268,4.53244,2.501559,7.8796196,3.8241558,-2.5584528,2.6606486
0.27,4.3147106,2.736003,7.923112,3.7725234,-2.7126448,2.6765432
0.272,4.1095643,2.9689376,7.9602346,3.72279,-2.8666637,2.6908033
0.274,3.9163773,3.2003627,7.9917693,3.6752555,-3.0195909,2.7035387
0.276,3.7352676,3.4303422,8.01866,3.6301465,-3.1706357,2.714832
0.278,3.5663993,3.6590924,8.0422125,3.5876596,-3.3191347,2.7247355
0.28,3.4092555,3.8866332,8.063823,3.5479624,-3.4645476,2.733265
0.282,3.2633483,4.1128573,8.084747,3.5111828,-3.6064262,2.7404115
0.284,3.1282115,4.337671,8.10645,3.4774442,-3.7443836,2.74617
0.286,3.0031004,4.5612,8.130483,3.4468353,-3.8780897,2.7505543
0.288,2.8873692,4.7834826,8.158253,3.419424,-4.007213,2.7536166
0.29,2.780137,5.004813,8.191207,3.39527,-4.131407,2.7554693
0.292,2.6807113,5.2251835,8.23023,3.374427,-4.250291,2.7562416
0.294,2.5883234,5.444611,8.275547,3.3569412,-4.3634505,2.7561054
0.296,2.5017471,5.6630306,8.327702,3.3428283,-4.470445,2.7552445
0.298,2.419376,5.8806763,8.387783,3.3321111,-4.570822,2.75383
0.3,2.3398738,6.0975018,8.457396,3.3247578,-4.664149,2.7520263
0.302,2.2615776,6.313421,8.537706,3.3207052,-4.7500463,2.7499754
0.304,2.183061,6.5285344,8.629475,3.3198304,-4.828232,2.747819
0.306,2.1031508,6.7424746,8.732925,3.321931,-4.8985333,2.7456636
0.308,2.0206265,6.955318,8.84836,3.3267493,-4.9609723,2.743619
0.31,1.9341836,7.1669025,8.975712,3.33396,-5.01573,2.7417245
0.312,1.8429444,7.376886,9.114924,3.3432093,-5.063171,2.740007
0.314,1.7457309,7.5851064,9.265989,3.3541303,-5.103834,2.7384439
0.316,1.6417778,7.791241,9.428871,3.3663175,-5.138405,2.7369516
0.318,1.5301111,7.9949,9.603302,3.379406,-5.1676474,2.7354226
0.32,1.4098945,8.195967,9.78857,3.3930495,-5.1923423,2.7337322
0.322,1.2809107,8.3939085,9.983578,3.4069376,-5.21321,2.7317214
0.324,1.1428723,8.58847,10.187099,3.420823,-5.2308836,2.7292671
0.326,0.9958701,8.779275,10.39756,3.4345071,-5.2458587,2.7262614
0.328,0.84004927,8.9660015,10.613541,3.447886,-5.2584643,2.7226138
0.33,0.67543316,9.148287,10.833689,3.4609,-5.268842,2.7182474
0.332,0.50210476,9.32599,11.056641,3.4735308,-5.2769866,2.713123
0.334,0.32041216,9.498962,11.280918,3.4858162,-5.282787,2.7072387
0.336,0.1308446,9.666932,11.505002,3.4978135,-5.2860556,2.700602
0.338,-0.06615734,9.829843,11.727182,3.5095875,-5.286599,2.6932006
0.34,-0.26969433,9.98743,11.945605,3.5212257,-5.2842464,2.6850119
0.342,-0.47860527,10.139563,12.158314,3.5327787,-5.2789354,2.6759794
0.344,-0.6918726,10.2860365,12.363778,3.54426,-5.2707133,2.6660774
0.346,-0.9082985,10.42694,12.560614,3.5556548,-5.259774,2.6552794
0.348,-1.1266818,10.56204,12.747437,3.5669155,-5.2464404,2.6435623
0.35,-1.3458662,10.691437,12.923197,3.5779805,-5.2311273,2.6309052
0.352,-1.5644903,10.815087,13.086544,3.5887613,-5.2143197,2.6172879
0.354,-1.7811356,10.93297,13.236649,3.5991907,-5.196503,2.6026847
0.356,-1.9944811,11.045046,13.373177,3.6092422,-5.1781096,2.587056
0.358,-2.203216,11.151363,13.4961815,3.6189358,-5.159443,2.5703602
0.36,-2.4058857,11.251679,13.605597,3.628356,-5.140663,2.5525496
0.362,-2.6011233,11.346117,13.701497,3.637601,-5.1217794,2.5336027
0.364,-2.7873292,11.434587,13.784028,3.6468203,-5.102665,2.5135434
0.366,-2.963499,11.517308,13.853927,3.656178,-5.0830846,2.4924314
0.368,-3.1283994,11.594244,13.912072,3.6658607,-5.06272,2.4703462
0.37,-3.2812498,11.6655655,13.9595,3.6760373,-5.041241,2.4473996
0.372,-3.4212217,11.731492,13.997126,3.686869,-5.018331,2.4236703
0.374,-3.5476599,11.791995,14.026062,3.698496,-4.993712,2.3992531
0.376,-3.65968,11.847029,14.047329,3.7110531,-4.9671226,2.3742442
0.378,-3.7570677,11.896884,14.06188,3.7246501,-4.938335,2.3486943
0.38,-3.8398702,11.941633,14.070677,3.739387,-4.90716,2.3226264
0.382,-3.9081686,11.981735,14.074514,3.75535,-4.873407,2.2960513
0.384,-3.9619374,12.017307,14.074244,3.7726018,-4.836915,2.2689912
0.386,-4.00161,12.048682,14.070676,3.7911792,-4.7976065,2.2414725
0.388,-4.0280104,12.076252,14.064694,3.811045,-4.7555017,2.2135823
0.39,-4.0420074,12.1004305,14.056752,3.832132,-4.7107377,2.1854482
0.392,-4.0445876,12.121616,14.047365,3.8543105,-4.6635942,2.1572459
0.394,-4.037055,12.140354,14.036759,3.8773723,-4.614523,2.1291442
0.396,-4.020454,12.157206,14.024976,3.9010892,-4.5641127,2.1013038
0.398,-3.9960747,12.172897,14.012004,3.9251873,-4.5130773,2.0738373
0.4,-3.9653842,12.18803,13.997942,3.9493685,-4.4621954,2.0467947
0.402,-3.929747,12.203403,13.982829,3.9733577,-4.41228,2.0201557
0.404,-3.8906753,12.2196045,13.966597,3.9969134,-4.3640823,1.993826
0.406,-3.849584,12.237559,13.948946,4.0198503,-4.3182187,1.9676462
0.408,-3.807386,12.2578335,13.929708,4.0420523,-4.27521,1.9414048
0.41,-3.7654967,12.281262,13.908606,4.063464,-4.2354245,1.9148778
0.412,-3.7248716,12.30863,13.885367,4.084093,-4.199094,1.8878344
0.414,-3.6864476,12.3404665,13.85988,4.10402,-4.166308,1.8600197
0.416,-3.6511273,12.377525,13.832131,4.123387,-4.1370482,1.8311709
0.418,-3.619262,12.420221,13.80205,4.14236,-4.111225,1.8010223
0.42,-3.5912223,12.468937,13.769589,4.1611385,-4.088725,1.7693293
0.422,-3.567318,12.524167,13.7349415,4.1799207,-4.069431,1.7358444
0.424,-3.5472999,12.586005,13.698223,4.198936,-4.05322,1.7003177
0.426,-3.5312636,12.654883,13.659459,4.218408,-4.0400114,1.6625001
0.428,-3.5189676,12.730925,13.618861,4.2385597,-4.0297213,1.622161
0.43,-3.5101135,12.814134,13.577108,4.259583,-4.022326,1.5790787
0.432,-3.5044184,12.904602,13.534949,4.2816396,-4.0178285,1.5330671
0.434,-3.5016327,13.00226,13.493019,4.3048496,-4.016265,1.483999
0.436,-3.5015388,13.107027,13.452314,4.329268,-4.0176682,1.4317936
0.438,-3.503793,13.218564,13.41367,4.354906,-4.0220714,1.3764033
0.44,-3.5078092,13.336642,13.3779125,4.381713,-4.0294895,1.31781
0.442,-3.5131366,13.460842,13.345834,4.4095907,-4.0399137,1.2560251
0.444,-3.5193334,13.590822,13.318277,4.438391,-4.0533338,1.1910849
0.446,-3.5262198,13.726259,13.296312,4.4679437,-4.069698,1.1230285
0.448,-3.533812,13.866999,13.281215,4.4980626,-4.088916,1.0519067
0.45,-3.542323,14.012975,13.27412,4.5285416,-4.1108932,0.97777545
0.452,-3.551999,14.164068,13.276286,4.5591874,-4.135536,0.90069485
0.454,-3.5631762,14.320325,13.288696,4.5898037,-4.162712,0.8207431
0.456,-3.5761023,14.481709,13.312546,4.6201806,-4.1922765,0.73801064
0.458,-3.5912647,14.6484995,13.348897,4.6501055,-4.2241154,0.6525775
0.46,-3.6090267,14.820755,13.398826,4.6793666,-4.2581043,0.5645411
0.462,-3.6299026,14.998785,13.463811,4.707733,-4.2940564,0.4740026
0.464,-3.6542437,15.182854,13.54511,4.7349954,-4.331784,0.3810382
0.466,-3.6826906,15.373229,13.643884,4.7609363,-4.3711057,0.28569913
0.468,-3.7157888,15.570372,13.761038,4.7853403,-4.4118166,0.18806112
0.47,-3.7539425,15.774715,13.897512,4.807992,-4.4537206,0.08819592
0.472,-3.797639,15.98667,14.054237,4.828667,-4.496658,-0.013848305
0.474,-3.847364,16.206738,14.23208,4.8471284,-4.5404987,-0.11804199
0.476,-3.9034095,16.435236,14.431688,4.8631306,-4.5851417,-0.22435999
0.478,-3.9664574,16.67254,14.653839,4.8763857,-4.6305327,-0.3327992
0.48,-4.0364184,16.918688,14.8992815,4.8865943,-4.676622,-0.4433719
0.482,-4.113443,17.173635,15.168471,4.893462,-4.7233763,-0.55611885
0.484,-4.197441,17.437347,15.461748,4.8966827,-4.7707086,-0.6710954
0.486,-4.2886147,17.709461,15.779287,4.895977,-4.818481,-0.788378
0.488,-4.3867393,17.989397,16.12107,4.8910875,-4.866443,-0.90808105
0.49,-4.4915156,18.276543,16.486523,4.881799,-4.914266,-1.0303317
0.492,-4.602848,18.570034,16.874895,4.8679223,-4.9615097,-1.1552379
0.494,-4.720151,18.868586,17.28492,4.849281,-5.0076632,-1.2828939
0.496,-4.843136,19.170963,17.715212,4.825719,-5.0521483,-1.4133705
0.498,-4.971299,19.475574,18.163977,4.797115,-5.094373,-1.546706
0.5,-5.1038527,19.780636,18.629309,4.76337,-5.1337285,-1.6829162
0.502,-5.240026,20.084154,19.10891,4.724442,-5.1696205,-1.822009
0.504,-5.3786025,20.383823,19.600336,4.680351,-5.2014656,-1.964015
0.506,-5.5186133,20.677273,20.100843,4.631186,-5.2287254,-2.1089656
0.508,-5.6592774,20.962103,20.607517,4.5771112,-5.2509413,-2.256878
0.51,-5.799388,21.235767,21.11713,4.518371,-5.267706,-2.4077396
0.512,-5.9378266,21.495594,21.626398,4.4552736,-5.278673,-2.561501
0.514,-6.073704,21.739319,22.131977,4.388209,-5.283599,-2.7180724
0.516,-6.2058897,21.964216,22.630789,4.317604,-5.282339,-2.8772817
0.518,-6.333126,22.167656,23.119677,4.243902,-5.2748747,-3.038857
0.52,-6.4545164,22.34731,23.595312,4.167562,-5.261286,-3.2024248
0.522,-6.5692163,22.500969,24.054916,4.0890136,-5.2417626,-3.3675375
0.524,-6.676449,22.626518,24.495401,4.008654,-5.2165823,-3.533667
0.526,-6.7754364,22.722254,24.914068,3.926855,-5.186071,-3.7002435
0.528,-6.8658667,22.786787,25.308449,3.8439486,-5.150586,-3.8666873
0.53,-6.9475193,22.81916,25.676493,3.7602239,-5.110463,-4.0324283
0.532,-7.02029,22.818632,26.016235,3.6759558,-5.0659804,-4.1969395
0.534,-7.084758,22.785025,26.326334,3.5913637,-5.0173817,-4.359749
0.536,-7.141079,22.718142,26.605991,3.5066082,-4.964843,-4.5204506
0.538,-7.1899633,22.61847,26.854548,3.421835,-4.9084716,-4.6787114
0.54,-7.2320547,22.486612,27.071316,3.3371334,-4.848316,-4.8342724
0.542,-7.268243,22.323471,27.255796,3.2525804,-4.7843966,-4.9869266
0.544,-7.299178,22.130224,27.407494,3.1682305,-4.716681,-5.1365366
0.546,-7.3257046,21.908358,27.525982,3.0841813,-4.645114,-5.283008
0.548,-7.348792,21.659834,27.611023,3.0005357,-4.5696654,-5.426291
0.55,-7.369329,21.386398,27.662569,2.9174688,-4.490273,-5.566373
0.552,-7.388427,21.090164,27.68068,2.8351896,-4.406864,-5.7032804
0.554,-7.4068804,20.773233,27.665281,2.7539926,-4.319337,-5.837048
0.556,-7.4251623,20.437828,27.61641,2.6742113,-4.2275834,-5.9677505
0.558,-7.4433393,20.08587,27.533907,2.5962205,-4.131455,-6.0954757
0.56,-7.461385,19.719381,27.418036,2.5204213,-4.030804,-6.2203603
0.562,-7.479194,19.340246,27.268723,2.4472241,-3.9254885,-6.342588
0.564,-7.49575,18.949984,27.086147,2.3770187,-3.8154116,-6.462391
0.566,-7.510199,18.550064,26.870426,2.3101757,-3.7005348,-6.5799937
0.568,-7.521407,18.141716,26.621763,2.2470167,-3.580886,-6.6956363
0.57,-7.527816,17.726234,26.340528,2.1878343,-3.4565966,-6.8095446
0.572,-7.527736,17.30456,26.026869,2.1329062,-3.3278656,-6.921895
0.574,-7.5193377,16.877604,25.681328,2.0824945,-3.1949906,-7.032812
0.576,-7.500443,16.44605,25.30453,2.036889,-3.0583575,-7.142364
0.578,-7.4688387,16.010231,24.897549,1.9963888,-2.9183645,-7.2505693
0.58,-7.4223995,15.570616,24.461586,1.9612913,-2.775422,-7.3573704
0.582,-7.3587604,15.127473,23.997906,1.9319081,-2.6299472,-7.4626417
0.584,-7.275684,14.680915,23.50793,1.9085302,-2.4823356,-7.5662355
0.586,-7.170684,14.231176,22.99321,1.8914117,-2.3329835,-7.667969
0.588,-7.041326,13.7782135,22.455288,1.8807336,-2.1822536,-7.76766
0.59,-6.885979,13.322092,21.89581,1.876604,-2.0305138,-7.8651285
0.592,-6.702941,12.86294,21.316626,1.8789964,-1.8781767,-7.9601707
0.594,-6.490981,12.40086,20.719677,1.8877409,-1.7257051,-8.052589
0.596,-6.2490473,11.936133,20.107037,1.9025416,-1.5736113,-8.14218
0.598,-5.9765716,11.469105,19.480389,1.9229907,-1.422442,-8.2287445
0.6,-5.6734123,11.000278,18.841824,1.9485736,-1.2727475,-8.312105
0.602,-5.33957,10.530099,18.193184,1.9787526,-1.1250339,-8.392125
0.604,-4.975698,10.059259,17.536234,2.012959,-0.9798374,-8.468691
0.606,-4.582531,9.588519,16.872467,2.0506291,-0.83765006,-8.541702
0.608,-4.161363,9.118761,16.20341,2.091236,-0.6989267,-8.611082
0.61,-3.7136676,8.650839,15.530447,2.1343384,-0.5640464,-8.676764
0.612,-3.24166,8.185939,14.854704,2.1795707,-0.4333527,-8.738714
0.614,-2.7478547,7.7252464,14.177409,2.22664,-0.3071127,-8.796894
0.616,-2.2348514,7.2698364,13.499563,2.2753334,-0.18553972,-8.851294
0.618,-1.7053328,6.82084,12.822359,2.325486,-0.06875801,-8.901904
0.62,-1.1618834,6.3792152,12.146617,2.3769736,0.043145657,-8.948777
0.622,-0.6077938,5.9461536,11.473179,2.4297037,0.15013266,-8.991966
0.624,-0.045918703,5.522465,10.802645,2.4835947,0.25220156,-9.031587
0.626,0.520839,5.1091685,10.135509,2.5385776,0.34936428,-9.067801
0.628,1.0893939,4.707198,9.472452,2.5945885,0.4416027,-9.100825
0.63,1.6573565,4.316997,8.81431,2.651562,0.528852,-9.130944
0.632,2.2222397,3.9391413,8.16179,2.7094517,0.6109569,-9.158467
0.634,2.781853,3.573997,7.5160623,2.7682407,0.68767095,-9.183757
0.636,3.3340487,3.2214766,6.8784075,2.8279061,0.7586818,-9.207218
0.638,3.876987,2.8813941,6.25012,2.888461,0.82360125,-9.229253
0.64,4.409059,2.5535896,5.632737,2.9499323,0.88202786,-9.25023
0.642,4.9288263,2.2376564,5.027802,3.012354,0.9335265,-9.270485
0.644,5.435338,1.9330075,4.436961,3.0757303,0.9776175,-9.290291
0.646,5.927386,1.6389453,3.8619363,3.1400719,1.0138221,-9.309858
0.648,6.4043193,1.3547204,3.304695,3.2053413,1.0416856,-9.32934
0.65,6.865378,1.0795708,2.767143,3.2714489,1.060739,-9.348831
0.652,7.3102,0.8128207,2.251442,3.3382564,1.0705526,-9.36841
0.654,7.738445,0.5537392,1.7601174,3.4055698,1.0707228,-9.388109
0.656,8.149768,0.30158615,1.2958243,3.4731433,1.060924,-9.407973
0.658,8.543948,0.055460215,0.861045,3.540699,1.0409255,-9.428059
0.66,8.920822,-0.18527651,0.45827186,3.607943,1.0106235,-9.448443
0.662,9.280391,-0.4213755,0.089868546,3.6745539,0.9700508,-9.469249
0.664,9.622562,-0.6532383,-0.24194264,3.7401934,0.91932154,-9.490574
0.666,9.947205,-0.8811557,-0.53518176,3.8045027,0.85866237,-9.512499
0.668,10.254207,-1.1051283,-0.7879031,3.867124,0.78838587,-9.53507
0.67,10.543549,-1.3249803,-0.99855924,3.927688,0.7088082,-9.558277
0.672,10.8153105,-1.5404015,-1.1656535,3.9858196,0.62020135,-9.582065
0.674,11.069368,-1.7506456,-1.2881103,4.041153,0.52279043,-9.606384
0.676,11.30586,-1.954998,-1.3653724,4.0933347,0.4167037,-9.631184
0.678,11.524949,-2.152483,-1.3971272,4.1420345,0.3020258,-9.656417
0.68,11.726766,-2.342051,-1.3834372,4.186942,0.17879725,-9.682055
0.682,11.911535,-2.522161,-1.3247194,4.227788,0.04702425,-9.708073
0.684,12.079537,-2.6911025,-1.2217014,4.2643046,-0.0932951,-9.734472
0.686,12.23116,-2.8469305,-1.075453,4.296247,-0.2421577,-9.761272
0.688,12.367006,-2.987617,-0.88730884,4.3233585,-0.39957023,-9.788491
0.69,12.48769,-3.1111033,-0.65848994,4.3453493,-0.56552005,-9.816085
0.692,12.593851,-3.2152877,-0.39050078,4.3618937,-0.74002314,-9.8439865
0.694,12.686415,-3.2980766,-0.08497834,4.3726482,-0.92317677,-9.872112
0.696,12.766524,-3.3572812,0.25605893,4.3772554,-1.1151395,-9.900382
0.698,12.835113,-3.3905232,0.63085914,4.375378,-1.3161488,-9.928778
0.7,12.8943405,-3.3956895,1.0371845,4.366712,-1.5264974,-9.957365
0.702,12.945541,-3.3706005,1.4738715,4.3510303,-1.7464986,-9.986311
0.704,12.9909725,-3.3135319,1.9396956,4.3281784,-1.9764166,-10.015905
0.706,13.032602,-3.2229495,2.4335423,4.2980843,-2.2164843,-10.046511
0.708,13.073037,-3.097659,2.9547746,4.2607794,-2.4668026,-10.078547
0.71,13.114877,-2.9369302,3.5028698,4.2163677,-2.7273233,-10.112471
0.712,13.160468,-2.740126,4.0773973,4.1650367,-2.9978125,-10.148727
0.714,13.212782,-2.5069332,4.6780696,4.107031,-3.2778735,-10.187707
0.716,13.274414,-2.2373915,5.3050156,4.0426445,-3.566922,-10.229732
0.718,13.348417,-1.9320002,5.958356,3.972235,-3.8641918,-10.275095
0.72,13.437624,-1.591573,6.638088,3.8961856,-4.1688366,-10.324059
0.722,13.545193,-1.217757,7.344594,3.8148787,-4.479969,-10.376845
0.724,13.673793,-0.8124268,8.077765,3.7286708,-4.7966247,-10.433654
0.726,13.826221,-0.37747645,8.837674,3.6379018,-5.1177473,-10.494647
0.728,14.005081,0.084656,9.623783,3.5429053,-5.442271,-10.559959
0.73,14.212508,0.5713439,10.436068,3.443986,-5.7691174,-10.629662
0.732,14.450865,1.0792701,11.274194,3.341412,-6.097269,-10.703818
0.734,14.722097,1.6051221,12.137602,3.235423,-6.4257402,-10.782405
0.736,15.027501,2.1451735,13.025367,3.1261992,-6.753561,-10.865329
0.738,15.3683605,2.6954737,13.935931,3.0138464,-7.079891,-10.952396
0.74,15.746268,3.25179,14.867744,2.8984098,-7.4039383,-11.043347
0.742,16.162111,3.809852,15.818766,2.7799,-7.725007,-11.137863
0.744,16.616459,4.3654346,16.786285,2.6582851,-8.042486,-11.235577
0.746,17.110218,4.9141884,17.767092,2.5334802,-8.35582,-11.336121
0.748,17.643734,5.4519567,18.757858,2.4053779,-8.66444,-11.439098
0.75,18.217651,5.974293,19.755262,2.2738338,-8.967748,-11.544132
0.752,18.831661,6.4771156,20.756107,2.1387515,-9.265112,-11.650801
0.754,19.485905,6.9563656,21.756996,2.000081,-9.555782,-11.758646
0.756,20.18046,7.408095,22.75462,1.8578701,-9.8388815,-11.867147
0.758,20.915247,7.82813,23.745678,1.7122884,-10.113492,-11.975752
0.76,21.690176,8.212657,24.727173,1.5636487,-10.378607,-12.083836
0.762,22.504719,8.558025,25.696297,1.4123831,-10.633169,-12.190685
0.764,23.357891,8.861388,26.65035,1.2590652,-10.876199,-12.2955065
0.766,24.249392,9.120267,27.586554,1.1043277,-11.106834,-12.397379
0.768,25.17815,9.332446,28.502651,0.9488511,-11.324398,-12.495329
0.77,26.143026,9.496172,29.396454,0.79329824,-11.5285,-12.58828
0.772,27.143066,9.61009,30.266563,0.63826275,-11.719011,-12.675128
0.774,28.176367,9.673025,31.112093,0.48429918,-11.895967,-12.754797
0.776,29.241331,9.684366,31.932322,0.3318944,-12.05956,-12.826262
0.778,30.335825,9.643686,32.726997,0.1814599,-12.210205,-12.888533
0.78,31.457695,9.551004,33.496067,0.033308983,-12.348501,-12.940712
0.782,32.604565,9.406885,34.239456,-0.11228943,-12.475054,-12.981962
0.784,33.773556,9.212597,34.957306,-0.25506926,-12.59049,-13.011547
0.786,34.962097,8.969559,35.650097,-0.39474773,-12.695413,-13.028765
0.788,36.167324,8.679609,36.317905,-0.53100395,-12.790464,-13.032985
0.79,37.38588,8.345087,36.961166,-0.66347885,-12.8763075,-13.023621
0.792,38.61493,7.9684577,37.580044,-0.7917485,-12.953663,-13.000128
0.794,39.8511,7.552165,38.174797,-0.9153664,-13.023377,-12.962049
0.796,41.091145,7.0992312,38.745647,-1.0339031,-13.086451,-12.909103
0.798,42.331425,6.6129546,39.292736,-1.146934,-13.144016,-12.841176
0.8,43.56844,6.0970736,39.815826,-1.2540247,-13.1973,-12.758255
0.802,44.798744,5.555492,40.31471,-1.35478,-13.247633,-12.660477
0.804,46.019604,4.992053,40.789,-1.4487889,-13.296372,-12.548078
0.806,47.22831,4.410018,41.238113,-1.5356693,-13.344839,-12.421358
0.808,48.422523,3.8127084,41.66163,-1.6151015,-13.394365,-12.28067
0.81,49.59942,3.2037096,42.059128,-1.686756,-13.446159,-12.126351
0.812,50.757565,2.586337,42.429264,-1.7503203,-13.501166,-11.958708
0.814,51.89501,1.964284,42.771446,-1.8054477,-13.560128,-11.778112
0.816,53.01088,1.3405237,43.085518,-1.851695,-13.62353,-11.584982
0.818,54.10425,0.7179308,43.371292,-1.8885555,-13.691574,-11.379762
0.82,55.174797,0.099326134,43.62868,-1.9153479,-13.764088,-11.162989
0.822,56.22292,-0.5128107,43.857628,-1.9312797,-13.840595,-10.935247
0.824,57.249035,-1.1160765,44.05789,-1.9353873,-13.920214,-10.697143
0.826,58.254917,-1.7084551,44.22887,-1.9265473,-14.001761,-10.449186
0.828,59.242615,-2.2878141,44.370144,-1.9035342,-14.083807,-10.191748
0.83,60.21424,-2.8517494,44.481693,-1.8650028,-14.164627,-9.925062
0.832,61.172512,-3.397706,44.563416,-1.8095214,-14.242244,-9.649187
0.834,62.121162,-3.9229355,44.61593,-1.7355844,-14.314519,-9.363974
0.836,63.063984,-4.424717,44.640274,-1.6416998,-14.379316,-9.069082
0.838,64.00568,-4.900038,44.63819,-1.5263796,-14.434569,-8.764013
0.84,64.9516,-5.345373,44.61145,-1.3882158,-14.478329,-8.448149
0.842,65.90683,-5.756405,44.563038,-1.2259679,-14.508915,-8.120847
0.844,66.87617,-6.128397,44.49697,-1.0385771,-14.525018,-7.781537
0.846,67.8642,-6.454462,44.417683,-0.82528913,-14.525772,-7.4297643
0.848,68.87607,-6.7291393,44.32988,-0.585665,-14.510831,-7.0651455
0.85,69.91583,-6.945936,44.238297,-0.3196602,-14.480446,-6.6873612
0.852,70.987816,-7.0976486,44.1485,-0.027647614,-14.435551,-6.2962503
0.854,72.09514,-7.1761246,44.06606,0.2895277,-14.377813,-5.891779
0.856,73.24135,-7.1733494,43.997765,0.63061845,-14.309498,-5.474024
0.858,74.42949,-7.0803947,43.95159,0.99406284,-14.233292,-5.0431404
0.86,75.65643,-6.88426,43.935642,1.3780177,-14.1522,-4.5993686
0.862,76.92108,-6.573736,43.959057,1.780435,-14.069491,-4.142914
0.864,78.22426,-6.1430016,44.032425,2.1990156,-13.988595,-3.6739419
0.866,79.572044,-5.585289,44.16522,2.6313486,-13.912903,-3.1925645
0.868,80.9603,-4.8851337,44.36396,3.0749493,-13.845607,-2.6988153
0.87,82.38485,-4.026499,44.63504,3.527252,-13.789755,-2.1927428
0.872,83.84521,-2.9964066,44.98387,3.9857175,-13.74811,-1.6744742
0.874,85.33708,-1.7753925,45.41252,4.447837,-13.723137,-1.1442475
0.876,86.8602,-0.35193634,45.925694,4.9112277,-13.716862,-0.6026325
0.878,88.413925,1.2837887,46.53219,5.373689,-13.730795,-0.050535202
0.88,89.99245,3.15098,47.237076,5.833281,-13.765757,0.51094246
0.882,91.59358,5.2684746,48.045002,6.2884135,-13.821828,1.0804768
0.884,93.21687,7.6519585,48.95975,6.737823,-13.898195,1.6566038
0.886,94.85863,10.323431,49.984245,7.180772,-13.992874,2.2378693
0.888,96.51455,13.290644,51.107265,7.616958,-14.102707,2.8229566
0.89,98.184845,16.55017,52.321278,8.046534,-14.223213,3.41081
0.892,99.855576,20.126509,53.60755,8.470179,-14.348391,4.0010867
0.894,101.51863,24.032885,54.96127,8.889093,-14.470816,4.595215
0.896,103.17439,28.27326,56.387794,9.305239,-14.58206,5.197028
0.898,104.807755,32.827595,57.937885,9.721221,-14.673182,5.8122473
0.9,106.36023,37.683464,59.66871,10.139969,-14.735001,6.4482813
0.902,107.86955,42.809193,61.620422,10.564772,-14.75804,7.1146545
0.904,109.50854,48.200253,63.721222,10.999153,-14.732598,7.8224597
0.906,111.30048,53.843426,65.98161,11.445883,-14.649809,8.583504
0.908,113.203606,59.781406,68.347595,11.906731,-14.500638,9.4104185
0.91,115.18419,65.97986,70.83783,12.382826,-14.2749405,10.315902
0.912,117.25922,72.4182,73.464066,12.875015,-13.961226,11.311699
0.914,119.44411,79.060135,76.269714,13.3834505,-13.547057,12.407758
0.916,121.74675,85.829895,79.31505,13.907211,-13.018301,13.611122
0.918,124.1812,92.65662,82.638336,14.443748,-12.358993,14.926452
0.92,126.777695,99.50957,86.20063,14.986781,-11.552068,16.35669
0.922,129.57208,106.36279,89.96893,15.528144,-10.576803,17.902473
0.924,132.5843,113.12338,93.91608,16.058517,-9.409525,19.561066
0.926,135.82361,119.651924,98.08375,16.567503,-8.026189,21.326378
0.928,139.31693,125.86005,102.49929,17.042822,-6.4010534,23.192745
0.93,143.10295,131.69461,107.109505,17.465145,-4.5169,25.143982
0.932,147.2026,137.07948,111.828674,17.820753,-2.3501444,27.166763
0.934,151.57066,141.9142,116.56425,18.104504,0.114248276,29.248207
0.936,156.24744,146.09047,121.23227,18.315996,2.888689,31.361347
0.938,161.23975,149.53503,125.75156,18.464737,5.975829,33.46663
0.94,166.54239,152.1825,130.05382,18.562218,9.361109,35.520344
0.942,172.15681,154.03761,134.02713,18.623833,13.010416,37.47326
0.944,178.0574,155.1211,137.52376,18.675507,16.877941,39.254036
0.946,184.20163,155.43729,140.3905,18.743683,20.909077,40.7743
0.948,190.53929,154.9973,142.4657,18.855043,25.028505,41.95833
0.95,197.0192,153.81944,143.59328,19.050112,29.148531,42.739285
0.952,203.5606,151.942,143.6343,19.384424,33.18686,43.047924
0.954,210.05344,149.41638,142.47552,19.913738,37.063114,42.819115
0.956,216.38087,146.2986,140.02762,20.680603,40.703285,42.00213
0.958,222.41957,142.65228,136.21933,21.710163,44.05599,40.55919
0.96,228.03271,138.53836,131.0294,23.01052,47.096825,38.467392
0.962,233.08835,134.01752,124.48555,24.557716,49.802414,35.71981
0.964,237.45972,129.16068,116.67057,26.291485,52.14428,32.332195
0.966,241.01817,124.05284,107.72115,28.116299,54.081802,28.35134
0.968,243.62337,118.776985,97.78096,29.909334,55.551476,23.854862
0.97,245.18642,113.38939,87.015236,31.5324,56.471786,18.943754
0.972,245.64182,107.93319,75.60407,32.84575,56.74724,13.730993
0.974,244.92511,102.457375,63.772736,33.722385,56.27458,8.333439
0.976,242.98727,97.0139,51.78409,34.05312,54.951645,2.8723755
0.978,239.81526,91.65279,39.91326,33.754555,52.69513,-2.524314
0.98,235.42987,86.42868,28.427238,32.77741,49.460808,-7.7258577
0.982,229.88062,81.401794,17.579468,31.109104,45.251305,-12.6062
0.984,223.25032,76.62663,7.605831,28.77459,40.128254,-17.039072
0.986,215.63968,72.16768,-1.2895889,25.822926,34.199333,-20.91674
0.988,207.17169,68.08717,-8.942693,22.328178,27.62775,-24.149616
0.99,197.99162,64.43408,-15.22959,18.390385,20.612843,-26.6653
0.992,188.25542,61.254467,-20.07621,14.1244335,13.383572,-28.425512
0.994,178.12808,58.590305,-23.455536,9.659896,6.1845374,-29.437744
0.996,167.78137,56.468723,-25.38602,5.1304026,-0.7445687,-29.749962
0.998,157.386,54.918324,-25.918852,0.66429996,-7.1840453,-29.43774
1,147.10112,53.958717,-25.152645,-3.6151018,-12.942911,-28.609375
1.002,137.08752,53.565918,-23.213865,-7.598079,-17.864487,-27.409918
1.004,127.48117,53.715027,-20.272274,-11.200758,-21.840343,-25.98182
1.006,118.391594,54.37343,-16.522995,-14.360425,-24.818096,-24.435173
1.008,109.92202,55.508877,-12.200149,-17.022915,-26.786816,-22.848984
1.01,102.181915,57.058006,-7.5229206,-19.142735,-27.77611,-21.278482
1.012,95.163345,58.95619,-2.6729403,-20.69305,-27.861092,-19.754776
1.014,88.75841,61.09889,2.2710028,-21.67307,-27.150425,-18.294218
1.016,83.026665,63.38653,7.141856,-22.099985,-25.76014,-16.90882
1.018,78.050644,65.67532,11.844759,-22.012402,-23.81724,-15.617548
1.02,73.85531,67.90649,16.22875,-21.471298,-21.457977,-14.451574
1.022,70.389984,70.00236,20.184929,-20.559284,-18.821346,-13.447691
1.024,67.59677,71.90192,23.612154,-19.376377,-16.052841,-12.63743
1.026,65.41763,73.57593,26.439182,-18.032463,-13.29594,-12.03824
1.028,63.782375,74.98185,28.654713,-16.637909,-10.681429,-11.650732
1.03,62.606533,76.04682,30.331562,-15.291953,-8.32033,-11.462604
1.032,61.807644,76.71785,31.526688,-14.0772,-6.30042,-11.451548
1.034,61.324524,77.01769,32.28695,-13.057837,-4.684967,-11.585033
1.036,61.10464,77.0004,32.605885,-12.276417,-3.50809,-11.822763
1.038,61.08005,76.661964,32.517193,-11.753509,-2.7750525,-12.123089
1.04,61.181778,75.98226,32.132046,-11.491087,-2.466879,-12.449394
1.042,61.364807,74.98564,31.562948,-11.476968,-2.5446877,-12.773812
1.044,61.637394,73.72703,30.895979,-11.687917,-2.9559798,-13.0774
1.046,61.9169,72.26573,30.1851,-12.092794,-3.6423874,-13.3493805
1.048,62.16546,70.63072,29.467302,-12.656551,-4.5447354,-13.585691
1.05,62.355465,68.85599,28.76204,-13.344271,-5.606567,-13.785042
1.052,62.45117,66.93214,28.124084,-14.123565,-6.7817597,-13.943365
1.054,62.440647,64.871124,27.620623,-14.962046,-8.031963,-14.052422
1.056,62.317287,62.725677,27.300041,-15.829489,-9.319351,-14.103171
1.058,62.07083,60.552223,27.200872,-16.699835,-10.611168,-14.089228
1.06,61.68463,58.40603,27.343662,-17.550518,-11.882416,-14.0079365
1.062,61.163467,56.32696,27.729898,-18.362427,-13.1139,-13.858179
1.064,60.52504,54.34749,28.346432,-19.119274,-14.289316,-13.637634
1.066,59.777374,52.498444,29.17585,-19.806702,-15.393222,-13.342186
1.068,58.923477,50.805508,30.205809,-20.412006,-16.410854,-12.967469
1.07,57.973175,49.293556,31.404146,-20.924183,-17.328758,-12.510435
1.072,56.927902,47.981186,32.7302,-21.333735,-18.134682,-11.970642
1.074,55.788227,46.87224,34.136898,-21.632772,-18.81787,-11.351212
1.076,54.562866,45.95733,35.575905,-21.815218,-19.3692,-10.658934
1.078,53.277428,45.23085,37.035828,-21.876791,-19.781425,-9.903674
1.08,51.923073,44.706455,38.512283,-21.81529,-20.04969,-9.097817
1.082,50.492226,44.400143,40.00366,-21.630724,-20.171848,-8.255463
1.084,48.99897,44.313282,41.478607,-21.325243,-20.148611,-7.3913574
1.086,47.460953,44.43339,42.889412,-20.903046,-19.983372,-6.5197372
1.088,45.892998,44.73932,44.194923,-20.370184,-19.681713,-5.653411
1.09,44.30034,45.207775,45.364975,-19.734608,-19.251019,-4.8032722
1.092,42.68508,45.815125,46.375313,-19.006023,-18.699938,-3.977929
1.094,41.05013,46.53843,47.204575,-18.195616,-18.037971,-3.1833591
1.096,39.402374,47.354126,47.835472,-17.315681,-17.275124,-2.4228992
1.098,37.75052,48.239815,48.256462,-16.379364,-16.42194,-1.6976643
1.1,36.103363,49.174797,48.463654,-15.400325,-15.489542,-1.0069036
1.102,34.467503,50.13932,48.460526,-14.392357,-14.489775,-0.3486328
1.104,32.848995,51.1149,48.253517,-13.369284,-13.435305,0.27981567
1.106,31.253674,52.08457,47.85125,-12.344704,-12.339684,0.8811979
1.108,29.68726,53.032753,47.26438,-11.331783,-11.217321,1.4580503
1.11,28.154911,53.945763,46.505974,-10.343111,-10.08326,2.0123072
1.112,26.660984,54.81193,45.59157,-9.390543,-8.952844,2.5452042
1.114,25.209133,55.62245,44.53853,-8.484897,-7.841083,3.0573778
1.116,23.802448,56.370438,43.365387,-7.635636,-6.7620635,3.5490406
1.118,22.442852,57.05151,42.091244,-6.850566,-5.7283607,4.0201426
1.12,21.13195,57.662655,40.735985,-6.1355333,-4.7506013,4.470579
1.122,19.869926,58.202374,39.319176,-5.494171,-3.8369732,4.900378
1.124,18.65604,58.670883,37.859745,-4.9277444,-2.9927402,5.3097696
1.126,17.488815,59.069744,36.37564,-4.435236,-2.2204015,5.6992445
1.128,16.366884,59.401558,34.8828,-4.0135174,-1.519795,6.0695925
1.13,15.288404,59.669437,33.39516,-3.6576023,-0.88820755,6.421721
1.132,14.251654,59.877296,31.92435,-3.3611665,-0.32065815,6.7563915
1.134,13.254454,60.0299,30.479704,-3.1170297,0.1895246,7.0741963
1.136,12.295464,60.132233,29.067944,-2.9176035,0.65019655,7.3755684
1.138,11.373772,60.189278,27.693043,-2.7553213,1.0699619,7.6608105
1.14,10.488775,60.206635,26.35738,-2.6229508,1.4577186,7.9300985
1.142,9.640858,60.1893,25.060804,-2.513827,1.822202,8.183438
1.144,8.830904,60.142277,23.800327,-2.4220479,2.171698,8.4207115
1.146,8.060812,60.069744,22.570734,-2.342496,2.513718,8.641604
1.148,7.3328753,59.975914,21.364342,-2.2708404,2.854911,8.845623
1.15,6.6496906,59.864197,20.1712,-2.203413,3.2010553,9.032078
1.152,6.0150194,59.73628,18.980833,-2.1371257,3.5570977,9.200161
1.154,5.4323983,59.592743,17.781704,-2.069351,3.9271317,9.348999
1.156,4.90633,59.434,16.561838,-1.9978373,4.3143816,9.477684
1.158,4.4402857,59.2592,15.309891,-1.920589,4.7212205,9.58531
1.16,4.0384226,59.065933,14.014894,-1.8358972,5.149174,9.670956
1.162,3.70439,58.850574,12.666425,-1.7423298,5.598893,9.733631
1.164,3.44077,58.609177,11.254658,-1.6387782,6.070156,9.772275
1.166,3.24985,58.33705,9.770464,-1.5244801,6.5618863,9.785736
1.168,3.1333342,58.029404,8.206053,-1.3991013,7.07201,9.772816
1.17,3.0918448,57.68101,6.5550385,-1.2628026,7.5973654,9.732262
1.172,3.1256015,57.286926,4.812493,-1.1162491,8.133747,9.662878
1.174,3.2335234,56.84239,2.9748435,-0.960587,8.675918,9.563571
1.176,3.4135923,56.34292,1.0411444,-0.79749703,9.217525,9.433264
1.178,3.6624813,55.78405,-0.987566,-0.62917113,9.75111,9.270847
1.18,3.9759212,55.16153,-3.1083298,-0.45829487,10.268084,9.075252
1.182,4.3487735,54.471424,-5.315935,-0.2878517,10.759022,8.845545
1.184,4.7746363,53.710686,-7.6031656,-0.12117934,11.214005,8.581053
1.186,5.2465005,52.87685,-9.960274,0.03809452,11.622679,8.281424
1.188,5.7561274,51.96889,-12.375416,0.18626761,11.974642,7.946829
1.19,6.2944736,50.986588,-14.8349285,0.31977284,12.259934,7.5781326
1.192,6.85194,49.931023,-17.323257,0.43531352,12.469486,7.177053
1.194,7.41893,48.80408,-19.823154,0.53003097,12.595558,6.7462134
1.196,7.985568,47.60884,-22.316036,0.6016175,12.632063,6.2892036
1.198,8.54213,46.349228,-24.782537,0.64847904,12.57485,5.8105145
1.2,9.079232,45.030018,-27.202599,0.66976327,12.421893,5.3154426
1.202,9.587539,43.65751,-29.55616,0.66533315,12.17325,4.809844
1.204,10.058108,42.23906,-31.823696,0.63572437,11.831087,4.299931
1.206,10.482716,40.782867,-33.986637,0.5821221,11.399513,3.7920604
1.208,10.854266,39.297825,-36.027203,0.50623214,10.884385,3.2924585
1.21,11.1662855,37.793182,-37.92871,0.41017634,10.293045,2.8070817
1.212,11.413617,36.27862,-39.67626,0.2963804,9.633997,2.3413985
1.214,11.592236,34.763916,-41.25685,0.16752444,8.916655,1.9002537
1.216,11.69887,33.259247,-42.659454,0.026517302,8.151044,1.4877309
1.218,11.73118,31.774544,-43.875397,-0.123535424,7.3475437,1.1071364
1.22,11.688326,30.31932,-44.89846,-0.27937868,6.51657,0.7608702
1.222,11.5706835,28.902634,-45.724735,-0.43764606,5.6684093,0.45034707
1.224,11.379749,27.532732,-46.352684,-0.5948818,4.8130255,0.17607689
1.226,11.117948,26.217377,-46.78337,-0.74763215,3.9598627,-0.062309742
1.228,10.788784,24.963188,-47.019924,-0.89252335,3.1176908,-0.26592487
1.23,10.396392,23.776037,-47.067856,-1.026305,2.2945616,-0.43644667
1.232,9.94575,22.660961,-46.934376,-1.1458989,1.4977732,-0.57600003
1.234,9.442837,21.621395,-46.62852,-1.2484953,0.73388743,-0.6870608
1.236,8.893843,20.659882,-46.161102,-1.3316312,0.00864628,-0.7723593
1.238,8.305013,19.777828,-45.544086,-1.393153,-0.6730473,-0.83477294
1.24,7.6835065,18.975405,-44.79062,-1.4311868,-1.306973,-0.87717885
1.242,7.0363503,18.25178,-43.91446,-1.4442948,-1.8896329,-0.902388
1.244,6.3714404,17.604948,-42.930355,-1.4314951,-2.418384,-0.91307724
1.246,5.6960354,17.032534,-41.85321,-1.3921587,-2.891364,-0.9116474
1.248,5.0174866,16.531387,-40.69794,-1.3259597,-3.3074522,-0.9002063
1.25,4.34293,16.097637,-39.479675,-1.2328695,-3.6662517,-0.88057333
1.252,3.6792765,15.727193,-38.213203,-1.1131302,-3.9680984,-0.8542137
1.254,3.033092,15.4151535,-36.91217,-0.96725774,-4.2140408,-0.82232845
1.256,2.410976,15.156282,-35.589195,-0.7960297,-4.4057946,-0.7859116
1.258,1.8191353,14.9450445,-34.256115,-0.6004849,-4.5457582,-0.74579054
1.26,1.262951,14.776117,-32.923985,-0.38195935,-4.6369205,-0.7026922
1.262,0.7475511,14.644346,-31.602684,-0.14208525,-4.6827974,-0.65726084
1.264,0.2771268,14.544861,-30.300184,0.11718467,-4.687366,-0.61011106
1.266,-0.1447767,14.472864,-29.023912,0.3935973,-4.6548924,-0.5618222
1.268,-0.5150132,14.424112,-27.780375,0.684642,-4.589943,-0.5127815
1.27,-0.8313434,14.394476,-26.575018,0.9875618,-4.497179,-0.4633764
1.272,-1.0921257,14.380607,-25.411972,1.2993951,-4.381374,-0.41388857
1.274,-1.2963641,14.379043,-24.29366,1.6171049,-4.2472725,-0.36446536
1.276,-1.4435833,14.38717,-23.221565,1.9376521,-4.099494,-0.31511986
1.278,-1.5341825,14.402761,-22.196266,2.258132,-3.9424667,-0.26577592
1.28,-1.5687201,14.423893,-21.217585,2.5758224,-3.7803745,-0.21626604
1.282,-1.548542,14.449258,-20.284803,2.8882544,-3.6170452,-0.1663742
1.284,-1.4752295,14.478001,-19.396566,3.1932948,-3.4558802,-0.11585593
1.286,-1.3508577,14.509743,-18.551308,3.48914,-3.2998657,-0.06446755
1.288,-1.1779234,14.544643,-17.747099,3.7743425,-3.1515505,-0.011964321
1.29,-0.95914245,14.583199,-16.981285,4.0477953,-3.0130482,0.041906714
1.292,-0.6975634,14.626079,-16.251156,4.308701,-2.886061,0.09735894
1.294,-0.3960786,14.673967,-15.553883,4.5565186,-2.7719355,0.15456283
1.296,-0.05815959,14.728024,-14.886639,4.7909117,-2.6717348,0.2136445
1.298,0.31300426,14.789154,-14.24684,5.011695,-2.5862627,0.27465641
1.3,0.7139318,14.858701,-13.631826,5.2188005,-2.516121,0.33755064
1.302,1.141201,14.938084,-13.039463,5.412204,-2.4617434,0.40224254
1.304,1.5912333,15.028913,-12.467768,5.591924,-2.4233742,0.468585
1.306,2.060946,15.132746,-11.914722,5.758004,-2.4010944,0.5363085
1.308,2.5471838,15.25107,-11.378767,5.910503,-2.3948247,0.6050483
1.31,3.046868,15.385221,-10.858317,6.049501,-2.4043121,0.67441475
1.312,3.5570917,15.536309,-10.352143,6.1751394,-2.4291377,0.74398375
1.314,4.075135,15.705542,-9.859053,6.287652,-2.4687204,0.81332517
1.316,4.5985956,15.893947,-9.377944,6.3873897,-2.5223231,0.88202834
1.318,5.124793,16.10228,-8.907821,6.474842,-2.5890584,0.94969535
1.32,5.651623,16.331173,-8.447764,6.5506644,-2.6679547,1.0159647
1.322,6.176935,16.581097,-7.9968057,6.615682,-2.7579534,1.0804329
1.324,6.6986904,16.852385,-7.5537853,6.670833,-2.8580017,1.1428564
1.326,7.2151127,17.144852,-7.117323,6.7171745,-2.9670105,1.202948
1.328,7.724719,17.458323,-6.686397,6.7558475,-3.0839124,1.2604342
1.33,8.225977,17.79229,-6.259532,6.7879987,-3.2077107,1.3149838
1.332,8.717367,18.14607,-5.835309,6.8147287,-3.337484,1.3662081
1.334,9.197785,18.518435,-5.4120197,6.83706,-3.472445,1.4135982
1.336,9.666021,18.908022,-4.9879293,6.855883,-3.611939,1.4565086
1.338,10.121073,19.31337,-4.5613494,6.8719096,-3.7554433,1.4942
1.34,10.561796,19.732697,-4.130341,6.88566,-3.9025495,1.5258728
1.342,10.987616,20.163776,-3.693028,6.897455,-4.0529547,1.550703
1.344,11.397983,20.604614,-3.2476337,6.9074025,-4.206397,1.5679035
1.346,11.792293,21.052938,-2.7925856,6.9154696,-4.3626018,1.5768663
1.348,12.170304,21.506336,-2.3262517,6.921461,-4.5212555,1.5771687
1.35,12.5318,21.962502,-1.847255,6.9250956,-4.681954,1.5686498
1.352,12.876512,22.419,-1.3545117,6.926058,-4.8441567,1.5514116
1.354,13.204586,22.87339,-0.8471031,6.9240155,-5.0072217,1.5257967
1.356,13.516195,23.32325,-0.32446766,6.9186916,-5.17033,1.4923491
1.358,13.81172,23.76642,0.21321583,6.9099045,-5.3325114,1.4517832
1.36,14.0915985,24.200413,0.7658706,6.8975606,-5.4927325,1.4048884
1.362,14.356415,24.623003,1.3332453,6.8816905,-5.6499243,1.3524787
1.364,14.606607,25.032352,1.9150038,6.86246,-5.803024,1.2952967
1.366,14.842779,25.42639,2.5098848,6.8401437,-5.950997,1.2339971
1.368,15.065678,25.803299,3.116581,6.8151135,-6.0929527,1.1691029
1.37,15.275982,26.161236,3.7337484,6.7878046,-6.2281427,1.1009876
1.372,15.474544,26.498526,4.359831,6.7586884,-6.356004,1.0298972
1.374,15.6619,26.813534,4.9931555,6.728229,-6.476169,0.9559275
1.376,15.838614,27.104652,5.6319237,6.6968737,-6.588444,0.87898874
1.378,16.005125,27.370287,6.2743206,6.665015,-6.692813,0.7988237
1.38,16.161753,27.609114,6.9185314,6.633,-6.7893734,0.71507263
1.382,16.30883,27.819504,7.562829,6.6010838,-6.8782997,0.62726486
1.384,16.446371,28.000359,8.205282,6.569463,-6.9598103,0.534914
1.386,16.574429,28.150251,8.844075,6.5382504,-7.034124,0.4375435
1.388,16.692753,28.268126,9.477385,6.507494,-7.1013975,0.33472395
1.39,16.801006,28.353043,10.103542,6.4772434,-7.161742,0.2262088
1.392,16.898907,28.404167,10.72079,6.447468,-7.2152643,0.111851096
1.394,16.985874,28.420973,11.327243,6.41811,-7.2619452,-0.008423328
1.396,17.061584,28.402794,11.921034,6.3891363,-7.301608,-0.13451087
1.398,17.125605,28.349298,12.50038,6.3605003,-7.3340206,-0.2661569
1.4,17.177597,28.260414,13.063068,6.332129,-7.358886,-0.40302688
1.402,17.217121,28.136608,13.607367,6.303964,-7.3758526,-0.5446761
1.404,17.2437,27.978554,14.1312895,6.275938,-7.3845015,-0.6905689
1.406,17.257524,27.787071,14.632838,6.2479815,-7.3843927,-0.84012234
1.408,17.25857,27.56337,15.11013,6.220052,-7.375066,-0.992671
1.41,17.247274,27.308777,15.561322,6.192116,-7.3561263,-1.147525
1.412,17.223852,27.02495,15.984457,6.1641235,-7.3272266,-1.3039516
1.414,17.189173,26.713512,16.37779,6.136075,-7.2880664,-1.461192
1.416,17.143795,26.376532,16.739311,6.1079726,-7.238436,-1.618458
1.418,17.088753,26.01607,17.067427,6.0797977,-7.178288,-1.7749653
1.42,17.024967,25.634743,17.360378,6.0515223,-7.1076975,-1.9299423
1.422,16.953787,25.23486,17.616875,6.023055,-7.026874,-2.082635
1.424,16.876421,24.818974,17.835537,5.994283,-6.9361715,-2.2323287
1.426,16.79428,24.389732,18.015352,5.965028,-6.83608,-2.3783374
1.428,16.708765,23.94995,18.15544,5.935004,-6.7272162,-2.5199778
1.43,16.621315,23.502335,18.255268,5.903838,-6.610303,-2.6565883
1.432,16.53357,23.049728,18.314568,5.871102,-6.486136,-2.7875278
1.434,16.446768,22.594854,18.333042,5.8362603,-6.355557,-2.912168
1.436,16.3623,22.14066,18.310698,5.7987385,-6.2194657,-3.0299096
1.438,16.281584,21.68972,18.248308,5.7579355,-6.078723,-3.1402104
1.44,16.205788,21.244745,18.146643,5.713273,-5.934182,-3.242549
1.442,16.135893,20.80823,18.007122,5.6642237,-5.78669,-3.3365045
1.444,16.072748,20.382708,17.831177,5.6103115,-5.6370726,-3.4218004
1.446,16.017319,19.970268,17.620806,5.5512114,-5.486107,-3.4982316
1.448,15.970282,19.572943,17.37825,5.4867373,-5.3346643,-3.5656867
1.45,15.932098,19.192484,17.10582,5.4168096,-5.1836624,-3.6242218
1.452,15.902776,18.830576,16.80613,5.341519,-5.0339956,-3.6740696
1.454,15.882442,18.488348,16.482147,5.2610984,-4.8865323,-3.7155843
1.456,15.871041,18.166748,16.137035,5.1759243,-4.742142,-3.749269
1.458,15.868364,17.866356,15.773857,5.0864596,-4.60167,-3.775754
1.46,15.873981,17.587566,15.395966,4.9932313,-4.4659305,-3.7957737
1.462,15.887548,17.330269,15.0067215,4.896816,-4.335687,-3.8101592
1.464,15.908352,17.094227,14.609426,4.7977777,-4.2116404,-3.8198204
1.466,15.9359255,16.878855,14.2071905,4.696658,-4.094411,-3.825701
1.468,15.969652,16.683193,13.803331,4.5939374,-3.9845417,-3.828739
1.47,16.008636,16.506323,13.400893,4.4900045,-3.8825116,-3.8298652
1.472,16.051748,16.347109,13.002712,4.385157,-3.7887328,-3.8299356
1.474,16.098497,16.203936,12.611131,4.279611,-3.7035651,-3.829733
1.476,16.148165,16.075165,12.228672,4.1734743,-3.627323,-3.829906
1.478,16.19976,15.95919,11.857716,4.0667605,-3.5602846,-3.8309758
1.48,16.252611,15.854298,11.500195,3.9594188,-3.5026882,-3.833304
1.482,16.30597,15.758745,11.157803,3.851347,-3.4547133,-3.837154
1.484,16.359385,15.670929,10.831827,3.7424214,-3.4165308,-3.8426576
1.486,16.41208,15.58934,10.523519,3.6325026,-3.388279,-3.8498366
1.488,16.463612,15.512487,10.233935,3.5214663,-3.3700652,-3.8586688
1.49,16.513567,15.439104,9.963783,3.4092402,-3.3619173,-3.869084
1.492,16.56156,15.368025,9.713684,3.2957938,-3.363793,-3.8809967
1.494,16.60733,15.298168,9.483885,3.1811812,-3.3755398,-3.894359
1.496,16.650488,15.228631,9.274752,3.065501,-3.3968995,-3.909103
1.498,16.690922,15.158662,9.086277,2.948922,-3.4274845,-3.9251895
1.5,16.728441,15.087721,8.918338,2.8316844,-3.4667735,-3.9425988
1.502,16.762844,15.015353,8.770679,2.714106,-3.5140448,-3.9613156
1.504,16.794197,14.941142,8.643108,2.5965464,-3.5684357,-3.9813342
1.506,16.822327,14.865087,8.5352125,2.4793735,-3.6290379,-4.0026264
1.508,16.847395,14.786949,8.446236,2.3629584,-3.6949077,-4.025097
1.51,16.869246,14.70685,8.3756485,2.247703,-3.7650394,-4.048611
1.512,16.88808,14.624755,8.322456,2.1339824,-3.8384256,-4.0730352
1.514,16.90416,14.540655,8.285801,2.0221589,-3.9140873,-4.0982165
1.516,16.917425,14.454874,8.264674,1.9125406,-3.9910612,-4.1240206
1.518,16.928425,14.367444,8.257945,1.8054105,-4.0683813,-4.1503386
1.52,16.93766,14.278426,8.264222,1.7009962,-4.1451063,-4.177122
1.522,16.945389,14.187856,8.282247,1.5994782,-4.220305,-4.2043643
1.524,16.951958,14.095856,8.310656,1.5009842,-4.293062,-4.232079
1.526,16.95822,14.00237,8.347827,1.4055867,-4.362542,-4.260321
1.528,16.964481,13.907347,8.392336,1.313335,-4.427971,-4.289134
1.53,16.971308,13.81065,8.442622,1.2242607,-4.48869,-4.318536
1.532,16.979212,13.712116,8.497001,1.1383991,-4.544159,-4.3485246
1.534,16.988968,13.611584,8.553819,1.0557762,-4.593976,-4.3790526
1.536,17.000948,13.508655,8.611493,0.9764612,-4.637869,-4.4100146
1.538,17.015686,13.403169,8.668462,0.9005358,-4.6756597,-4.441257
1.54,17.033518,13.294886,8.72324,0.8280854,-4.707254,-4.4726133
1.542,17.054794,13.183516,8.774388,0.75922704,-4.7325826,-4.503874
1.544,17.079626,13.068732,8.820409,0.6940832,-4.751625,-4.534823
1.546,17.108372,12.950319,8.860073,0.6327585,-4.7643538,-4.5652623
1.548,17.140917,12.828081,8.892117,0.5753478,-4.7707653,-4.595004
1.55,17.177181,12.701879,8.915426,0.52193666,-4.770817,-4.623849
1.552,17.217258,12.571781,8.928815,0.47259772,-4.764476,-4.6516094
1.554,17.260809,12.437675,8.931516,0.42735732,-4.7517853,-4.6781144
1.556,17.307589,12.299746,8.922619,0.38619387,-4.7329254,-4.7031927
1.558,17.357378,12.158255,8.90159,0.3490665,-4.7081437,-4.726669
1.56,17.409906,12.013334,8.867953,0.31592035,-4.6777143,-4.7483883
1.562,17.464716,11.865451,8.821522,0.2866429,-4.6420383,-4.76826
1.564,17.521347,11.714977,8.762156,0.2610401,-4.6016364,-4.7861767
1.566,17.579426,11.562535,8.689829,0.23890448,-4.5570555,-4.8020186
1.568,17.638481,11.408685,8.604886,0.22000086,-4.508827,-4.8156657
1.57,17.69807,11.253979,8.507626,0.2040751,-4.4574776,-4.827003
1.572,17.757568,11.0990925,8.39855,0.19085407,-4.403482,-4.8359056
1.574,17.816683,10.944658,8.278315,0.18008709,-4.3472433,-4.842242
1.576,17.874683,10.791403,8.147707,0.17154932,-4.2890673,-4.845894
1.578,17.931068,10.639981,8.00766,0.1650449,-4.229167,-4.846751
1.58,17.985641,10.490935,7.8589206,0.1604191,-4.167695,-4.8447437
1.582,18.038074,10.344744,7.7023687,0.15754056,-4.1047587,-4.839846
1.584,18.08796,10.201962,7.53915,0.15631562,-4.0404477,-4.8320704
1.586,18.134584,10.063236,7.3705115,0.15665942,-3.9748685,-4.8214755
1.588,18.17773,9.928898,7.197463,0.1584984,-3.9081454,-4.80818
1.59,18.217009,9.799292,7.0209584,0.16176963,-3.8404136,-4.7923512
1.592,18.252033,9.674666,6.84201,0.16640347,-3.771831,-4.7741885
1.594,18.282368,9.555225,6.661581,0.172333,-3.702605,-4.7539196
1.596,18.307854,9.441025,6.480625,0.17948604,-3.6329422,-4.7317753
1.598,18.328274,9.332226,6.299752,0.18777555,-3.5630336,-4.7079945
1.6,18.343431,9.228686,6.1196814,0.19715655,-3.4930842,-4.6827826
1.602,18.353123,9.130545,5.9409876,0.20757008,-3.4232712,-4.656317
1.604,18.357239,9.03756,5.764241,0.21898615,-3.353787,-4.6287694
1.606,18.355825,8.949663,5.5897493,0.23137346,-3.2848003,-4.6002593
1.608,18.34895,8.866673,5.417929,0.24472278,-3.2164507,-4.570842
1.61,18.336744,8.788301,5.2489405,0.25904828,-3.1488423,-4.5405383
1.612,18.3193,8.714397,5.0829706,0.27434838,-3.0820823,-4.509337
1.614,18.296759,8.644624,4.920007,0.29061422,-3.0162995,-4.4772024
1.616,18.26941,8.578663,4.7599916,0.307838,-2.951601,-4.444093
1.618,18.237373,8.516418,4.6029134,0.3259938,-2.8881168,-4.409967
1.62,18.201138,8.457428,4.4485946,0.3450122,-2.826001,-4.3748126
1.622,18.160969,8.4014015,4.296854,0.36480007,-2.765429,-4.3386273
1.624,18.11727,8.348013,4.1474924,0.38524854,-2.7065992,-4.3014646
1.626,18.07036,8.296846,4.000322,0.40621388,-2.6497202,-4.2634006
1.628,18.020573,8.247579,3.8549404,0.4275303,-2.5949962,-4.224554
1.63,17.96814,8.19997,3.711267,0.4490257,-2.5426502,-4.185088
1.632,17.913624,8.153656,3.5691087,0.47054264,-2.4928837,-4.1451964
1.634,17.857573,8.108255,3.428081,0.4919253,-2.4458833,-4.105068
1.636,17.799883,8.063557,3.2881289,0.5130372,-2.4018261,-4.0649037
1.638,17.741198,8.019138,3.148951,0.5337798,-2.3608708,-4.024919
1.64,17.681904,7.9747148,3.010519,0.554087,-2.3231533,-3.9853084
1.642,17.622253,7.929968,2.8726606,0.57392114,-2.2888112,-3.9462628
1.644,17.562521,7.884564,2.735389,0.5932655,-2.257965,-3.9079297
1.646,17.502981,7.838296,2.5986533,0.61212736,-2.2307155,-3.8704383
1.648,17.443996,7.79081,2.4624767,0.63052946,-2.2071521,-3.8338861
1.65,17.385887,7.7418356,2.3268256,0.6485042,-2.1873775,-3.7983315
1.652,17.328825,7.691132,2.19181,0.66609603,-2.1714704,-3.7637951
1.654,17.273159,7.638572,2.057479,0.6833342,-2.1594944,-3.7302377
1.656,17.219109,7.583754,1.923955,0.70024514,-2.1515102,-3.697614
1.658,17.166924,7.526591,1.7912798,0.7168422,-2.1475563,-3.6658258
1.66,17.116837,7.466864,1.6594578,0.73313075,-2.1476243,-3.6347659
1.662,17.06883,7.404371,1.5286443,0.7491,-2.15169,-3.604331
1.664,17.023266,7.3390074,1.3987316,0.7647007,-2.1596837,-3.5744324
1.666,16.979963,7.270694,1.2698103,0.7798908,-2.1715276,-3.544995
1.668,16.939072,7.199251,1.1417211,0.7945969,-2.1870856,-3.5159638
1.67,16.900656,7.1247225,1.0145708,0.80872965,-2.2062104,-3.4873126
1.672,16.864914,7.0469484,0.8881419,0.82219934,-2.2287464,-3.4590364
1.674,16.831594,6.965994,0.762462,0.83491594,-2.25453,-3.4311528
1.676,16.800766,6.8818645,0.6375425,0.84677684,-2.2833943,-3.4036932
1.678,16.772257,6.7945547,0.51316655,0.8576796,-2.3152,-3.3766894
1.68,16.745869,6.7042384,0.38938916,0.86753666,-2.3498132,-3.3501904
1.682,16.721518,6.6110992,0.26597714,0.8762725,-2.3871167,-3.3242257
1.684,16.698875,6.5152597,0.14315063,0.88380975,-2.4270213,-3.2988107
1.686,16.67772,6.4168444,0.020750225,0.89009523,-2.4694376,-3.2739444
1.688,16.657854,6.3161683,-0.1011349,0.89510554,-2.5142777,-3.2496288
1.69,16.638884,6.213447,-0.22261536,0.89884174,-2.5614572,-3.225838
1.692,16.620605,6.10902,-0.34357983,0.9013256,-2.610884,-3.2025151
1.694,16.602427,6.003259,-0.46397495,0.9026151,-2.662446,-3.179577
1.696,16.584042,5.8965945,-0.58372545,0.9028116,-2.7160017,-3.1569333
1.698,16.56509,5.789419,-0.70277566,0.9020332,-2.7714038,-3.1344948
1.7,16.545105,5.6821957,-0.8209657,0.9003955,-2.8284698,-3.1121464
1.702,16.523619,5.5754557,-0.93820053,0.8980415,-2.8869655,-3.0897923
1.704,16.500227,5.4696465,-1.0543466,0.89510685,-2.9466248,-3.067345
1.706,16.474522,5.3653035,-1.1691914,0.89170814,-3.007172,-3.0447483
1.708,16.44605,5.262905,-1.2826407,0.8879769,-3.0682995,-3.0219777
1.71,16.41433,5.163015,-1.3944433,0.8840331,-3.1296592,-2.998988
1.712,16.379072,5.066078,-1.5044686,0.87999034,-3.1908922,-2.97577
1.714,16.339983,4.9727397,-1.6126002,0.8759688,-3.2516885,-2.95231
1.716,16.296658,4.88347,-1.7186558,0.87208843,-3.3117175,-2.9285777
1.718,16.248785,4.7987204,-1.8225224,0.8685042,-3.3706725,-2.9045255
1.72,16.196281,4.719053,-1.9239442,0.8653688,-3.428261,-2.8801038
1.722,16.13903,4.644781,-2.0228932,0.8628552,-3.4842203,-2.8552563
1.724,16.07676,4.576479,-2.1190748,0.86114144,-3.5383103,-2.8299267
1.726,16.009605,4.5143375,-2.2124534,0.86041325,-3.5902967,-2.804061
1.728,15.9374895,4.4587646,-2.3028157,0.8608583,-3.6399624,-2.7776172
1.73,15.860547,4.4099774,-2.3900099,0.86267215,-3.6871073,-2.7505744
1.732,15.778883,4.3682833,-2.4738955,0.86606044,-3.7315211,-2.7229133
1.734,15.692627,4.333832,-2.5543718,0.87121135,-3.7730412,-2.6946418
1.736,15.602222,4.3067765,-2.631409,0.8783217,-3.8115017,-2.6657758
1.738,15.507768,4.287215,-2.7048674,0.8875818,-3.846771,-2.6363492
1.74,15.4096365,4.275037,-2.7747233,0.8991828,-3.8787446,-2.6063929
1.742,15.30827,4.2701907,-2.8410094,0.9132916,-3.9073439,-2.5759294
1.744,15.203962,4.2725306,-2.9037876,0.93007326,-3.93251,-2.544988
1.746,15.097298,4.281802,-2.9630296,0.94966424,-3.9541907,-2.5135932
1.748,14.988615,4.2977853,-3.0189536,0.9721719,-3.9723434,-2.4817986
1.75,14.878464,4.320098,-3.0716941,0.9976592,-3.9869199,-2.4496489
1.752,14.7671585,4.348498,-3.1213887,1.0261667,-3.9978552,-2.417192
1.754,14.655123,4.382473,-3.1682193,1.0577013,-4.0050926,-2.3845096
1.756,14.542848,4.4216456,-3.2124195,1.0922203,-4.0085797,-2.3516648
1.758,14.430813,4.465584,-3.2543309,1.1296465,-4.0082736,-2.3187227
1.76,14.319342,4.5137453,-3.294227,1.1698853,-4.0041304,-2.2857275
1.762,14.208853,4.565787,-3.332414,1.2128226,-3.9961452,-2.2527099
1.764,14.099811,4.6211505,-3.3691075,1.2583317,-3.9843447,-2.2196872
1.766,13.99258,4.679453,-3.4047604,1.3062971,-3.968802,-2.1866212
1.768,13.887478,4.7402782,-3.439582,1.356606,-3.949591,-2.1534624
1.77,13.784996,4.803183,-3.473801,1.4091586,-3.926842,-2.1201403
1.772,13.685461,4.8678193,-3.5076883,1.4638586,-3.9006982,-2.086557
1.774,13.589159,4.9337935,-3.5413988,1.5206288,-3.8713279,-2.0526118
1.776,13.496519,5.0007873,-3.575146,1.5794017,-3.8389354,-2.0182076
1.778,13.40762,5.0685463,-3.6089528,1.6401199,-3.8037229,-1.9832606
1.78,13.322722,5.1368947,-3.6430016,1.7027386,-3.7659092,-1.9477096
1.782,13.242167,5.205579,-3.6772554,1.7672096,-3.7257419,-1.9115202
1.784,13.166115,5.2743726,-3.7118049,1.8334795,-3.6834655,-1.8746861
1.786,13.094724,5.3431096,-3.746553,1.9015014,-3.6393466,-1.8372234
1.788,13.028174,5.4117675,-3.7813258,1.971229,-3.593659,-1.7991877
1.79,12.966709,5.4801455,-3.816051,2.0426078,-3.5466666,-1.7606583
1.792,12.910414,5.548153,-3.8504157,2.1155772,-3.4986463,-1.7217131
1.794,12.859323,5.615822,-3.8844688,2.1900768,-3.4498782,-1.6824527
1.796,12.813613,5.683037,-3.9176834,2.266024,-3.4006145,-1.6429601
1.798,12.773046,5.749808,-3.9499648,2.3433404,-3.3510938,-1.6033142
1.8,12.737807,5.816144,-3.9809008,2.4219337,-3.3015451,-1.5635586
1.802,12.707804,5.881957,-4.010229,2.5017068,-3.2521594,-1.5236948
1.804,12.683162,5.9472456,-4.037575,2.5825453,-3.2031255,-1.4837251
1.806,12.663628,6.012035,-4.0626783,2.66435,-3.1545866,-1.4436376
1.808,12.64908,6.0764284,-4.0852327,2.7470188,-3.1066349,-1.4033955
1.81,12.63944,6.1403713,-4.1049595,2.8304718,-3.0593338,-1.362961
1.812,12.634527,6.2038946,-4.121604,2.9146276,-3.0127084,-1.3223025
1.814,12.634203,6.267034,-4.134899,2.9994154,-2.9667785,-1.281387
1.816,12.638264,6.3298383,-4.144861,3.084793,-2.921505,-1.240195
1.818,12.646432,6.3923764,-4.151182,3.1707273,-2.8768358,-1.1986923
1.82,12.658539,6.454671,-4.153772,3.2571971,-2.8326902,-1.1568499
1.822,12.674428,6.5167904,-4.1526194,3.3441873,-2.7889838,-1.1146334
1.824,12.693717,6.578825,-4.147606,3.4316874,-2.745613,-1.0720079
1.826,12.716226,6.6408286,-4.1387963,3.5196896,-2.702476,-1.0289495
1.828,12.741804,6.7028084,-4.126249,3.6081893,-2.6594656,-0.9854279
1.83,12.769906,6.7649145,-4.110101,3.6971629,-2.6164708,-0.94141585
1.832,12.800496,6.827238,-4.09037,3.7865791,-2.5733917,-0.896894
1.834,12.833513,6.8898015,-4.067305,3.8763857,-2.530138,-0.8518456
1.836,12.86861,6.9527416,-4.0408964,3.9665298,-2.4866338,-0.80625594
1.838,12.905567,7.01607,-4.011372,4.05694,-2.4428241,-0.7600951
1.84,12.944078,7.080127,-3.9788744,4.1475368,-2.3986819,-0.7133466
1.842,12.984193,7.145095,-3.9435644,4.2382364,-2.3542151,-0.66598034
1.844,13.025695,7.211132,-3.9055386,4.328952,-2.309481,-0.6179564
1.846,13.068416,7.278469,-3.8649173,4.4196177,-2.2645454,-0.5692427
1.848,13.112311,7.3473406,-3.8218029,4.5101433,-2.2195156,-0.5197896
1.85,13.15729,7.417996,-3.7764037,4.600473,-2.1745305,-0.46955144
1.852,13.203322,7.4907284,-3.7287953,4.690535,-2.1297455,-0.41847908
1.854,13.250403,7.565754,-3.6789956,4.780261,-2.0853198,-0.36653972
1.856,13.298409,7.643378,-3.6270828,4.8695917,-2.0414183,-0.3136891
1.858,13.34743,7.724011,-3.572957,4.95846,-1.9982085,-0.25988185
1.86,13.397285,7.8079157,-3.5166097,5.0467987,-1.9558305,-0.20507789
1.862,13.44825,7.8954225,-3.4580295,5.134524,-1.9144349,-0.1492455
1.864,13.500183,7.9868083,-3.3971477,5.221549,-1.8741738,-0.09235251
1.866,13.553139,8.082377,-3.3337896,5.307788,-1.8351799,-0.03435886
1.868,13.607076,8.18223,-3.26779,5.3931375,-1.797583,0.024771571
1.87,13.662043,8.286726,-3.198999,5.477501,-1.7615057,0.08506739
1.872,13.718164,8.395863,-3.127201,5.560783,-1.727078,0.14652443
1.874,13.775246,8.5098095,-3.0522394,5.6428905,-1.6944025,0.20913541
1.876,13.833251,8.628709,-2.9738793,5.7237415,-1.6635782,0.27287364
1.878,13.892226,8.752449,-2.8919582,5.8032517,-1.6346958,0.3377005
1.88,13.951853,8.880966,-2.8062398,5.881364,-1.6078129,0.40357375
1.882,14.01208,9.014097,-2.716583,5.9580245,-1.5829262,0.47044444
1.884,14.072642,9.1516695,-2.6228335,6.03321,-1.5599782,0.53826404
1.886,14.1333475,9.293409,-2.5246847,6.1069336,-1.5388756,0.60697305
1.888,14.193896,9.439014,-2.4221423,6.179221,-1.5194414,0.67650867
1.89,14.254086,9.588053,-2.3149602,6.250125,-1.5014334,0.74681044
1.892,14.313253,9.740164,-2.2029305,6.319722,-1.4845848,0.8178017
1.894,14.371294,9.894913,-2.0859725,6.388091,-1.4686084,0.8894205
1.896,14.427606,10.051683,-1.9639674,6.4553194,-1.4531922,0.9616153
1.898,14.4818125,10.210067,-1.8367298,6.5214844,-1.43806,1.0343711
1.9,14.533231,10.369643,-1.7040766,6.586637,-1.4229844,1.1076994
1.902,14.581437,10.529816,-1.5657924,6.650819,-1.4077678,1.1816468
1.904,14.625949,10.690038,-1.4216646,6.7140207,-1.3922722,1.2562804
1.906,14.666152,10.849894,-1.2716167,6.7762213,-1.3763795,1.3316867
1.908,14.701698,11.008909,-1.1153218,6.837386,-1.3600018,1.4079686
1.91,14.731946,11.166656,-0.95254487,6.897473,-1.3430452,1.4852035
1.912,14.7563715,11.322721,-0.78305745,6.9564285,-1.3254113,1.5634513
1.914,14.774499,11.476675,-0.6066042,7.014203,-1.3069758,1.6427331
1.916,14.785926,11.628204,-0.42286953,7.0707617,-1.2875602,1.7230659
1.918,14.790312,11.776961,-0.23161,7.1260905,-1.2669318,1.8044158
1.92,14.787232,11.922622,-0.032601893,7.1801853,-1.2448204,1.8867282
1.922,14.776465,12.064957,0.17458084,7.23304,-1.2209389,1.969943
1.924,14.75771,12.203696,0.3901098,7.2846603,-1.1949646,2.0540185
1.926,14.730721,12.3385105,0.6142373,7.335067,-1.166565,2.1389217
1.928,14.6953945,12.469256,0.8471408,7.384289,-1.1353915,2.2246406
1.93,14.651633,12.59559,1.088905,7.4323654,-1.1010873,2.3111815
1.932,14.599184,12.717402,1.3394887,7.4793453,-1.063276,2.3985677
1.934,14.538204,12.834404,1.5988476,7.525282,-1.0216103,2.4868078
1.936,14.468712,12.946296,1.8669252,7.570237,-0.9757478,2.5759382
1.938,14.39099,13.052931,2.143474,7.614255,-0.9253595,2.6659856
1.94,14.305029,13.153942,2.4283652,7.657385,-0.87009525,2.7569728
1.942,14.210954,13.249168,2.7212563,7.6996536,-0.80962276,2.848925
1.944,14.109057,13.338285,3.02175,7.7410645,-0.7436137,2.9418445
1.946,13.999678,13.421126,3.329258,7.781623,-0.6717386,3.0357065
1.948,13.883258,13.497454,3.643056,7.821296,-0.59367156,3.1304874
1.95,13.760261,13.566735,3.9624023,7.860026,-0.5091288,3.2261343
1.952,13.63097,13.628707,4.2866106,7.8977427,-0.4178486,3.3225832
1.954,13.4959955,13.683073,4.61483,7.934366,-0.31959462,3.4197502
1.956,13.355929,13.729456,4.946165,7.9698086,-0.2141974,3.5175886
1.958,13.211382,13.767736,5.2797356,8.003963,-0.10153365,3.6160588
1.96,13.062941,13.797739,5.6147957,8.036726,0.01846385,3.7151403
1.962,12.9113655,13.819187,5.9504023,8.067973,0.1458199,3.8148372
1.964,12.75732,13.832106,6.285546,8.097593,0.28053594,3.9151843
1.966,12.601633,13.836395,6.6193852,8.125495,0.42257953,4.0162544
1.968,12.444865,13.8319,6.9509735,8.15156,0.5718539,4.1181426
1.97,12.287861,13.818752,7.2793984,8.175679,0.7282412,4.220959
1.972,12.131143,13.797012,7.6037884,8.197749,0.89164233,4.3248982
1.974,11.975374,13.766996,7.92323,8.217689,1.061969,4.4301505
1.976,11.821156,13.728965,8.236828,8.235406,1.2391481,4.5369062
1.978,11.668789,13.683413,8.54369,8.25081,1.4230886,4.6453705
1.98,11.518808,13.630725,8.842925,8.263799,1.6137102,4.755732
1.982,11.371359,13.571576,9.133665,8.274261,1.8109114,4.868147
1.984,11.226831,13.506687,9.414947,8.282056,2.0145671,4.9827185
1.986,11.08527,13.436747,9.685972,8.286989,2.2245028,5.09949
1.988,10.946573,13.362642,9.945816,8.28882,2.440501,5.218458
1.99,10.81062,13.285404,10.193605,8.287244,2.662272,5.3395147
1.992,10.676966,13.206126,10.428421,8.281904,2.8894832,5.462494
1.994,10.545149,13.125914,10.649566,8.272371,3.1217284,5.5871506
1.996,10.414355,13.045877,10.855999,8.258199,3.358516,5.7131743
1.998,10.283852,12.967155,11.04699,8.238918,3.5993006,5.840219
2,10.152548,12.891132,11.221552,8.214075,3.8435025,5.967915
2.002,10.019596,12.818939,11.378789,8.18325,4.0904603,6.0958586
2.004,9.883622,12.751817,11.5179,8.146084,4.3395157,6.2236347
2.006,9.743755,12.690964,11.638073,8.102276,4.5899982,6.35083
2.008,9.598442,12.637596,11.738613,8.051634,4.841275,6.4770145
2.01,9.446745,12.592699,11.818781,7.9940405,5.092716,6.601711
2.012,9.287726,12.557153,11.8777275,7.9294705,5.343794,6.7244573
2.014,9.120405,12.531922,11.914748,7.8579617,5.5939903,6.844739
2.016,8.943412,12.518177,11.929189,7.7796283,5.8428826,6.9620285
2.018,8.755973,12.51643,11.92026,7.694628,6.0900745,7.075778
2.02,8.557612,12.527357,11.887109,7.603121,6.335199,7.1854334
2.022,8.34773,12.551489,11.828992,7.5053167,6.5778832,7.2904797
2.024,8.125994,12.589397,11.745186,7.4013605,6.817638,7.390388
2.026,7.892055,12.641544,11.634781,7.291346,7.0538254,7.4846916
2.028,7.6457815,12.708066,11.497192,7.1752768,7.2855988,7.5729833
2.03,7.3874273,12.789116,11.331752,7.053065,7.51186,7.6548643
2.032,7.117235,12.884639,11.137535,6.9245195,7.731349,7.7299604
2.034,6.8356876,12.994372,10.914078,6.7893853,7.9425864,7.7978735
2.036,6.5433383,13.118039,10.660929,6.6473155,8.143966,7.858178
2.038,6.2404914,13.255303,10.377479,6.497929,8.333796,7.9103703
2.04,5.927875,13.405752,10.063301,6.3408737,8.510433,7.9538894
2.042,5.6061945,13.568567,9.718095,6.175783,8.672281,7.988118
2.044,5.27599,13.743015,9.3416,6.0023475,8.817833,8.012383
2.046,4.937927,13.928074,8.9336815,5.8203754,8.945771,8.025971
2.048,4.592568,14.122709,8.494463,5.629778,9.055,8.028173
2.05,4.240625,14.325677,8.024271,5.4305778,9.144617,8.018298
2.052,3.8825212,14.535712,7.523622,5.2229247,9.213864,7.995752
2.054,3.5186396,14.751564,6.9930296,5.0070825,9.262141,7.960044
2.056,3.1492639,14.971743,6.4334283,4.7834578,9.28894,7.910823
2.058,2.77468,15.1945715,5.846083,4.5525403,9.293751,7.847875
2.06,2.395028,15.418712,5.232149,4.3148665,9.276047,7.771118
2.062,2.0105371,15.642427,4.593158,4.071023,9.235255,7.6806355
2.064,1.6213747,15.864161,3.9306622,3.8216574,9.170769,7.5766697
2.066,1.2277176,16.082207,3.246642,3.5674288,9.081982,7.4595804
2.068,0.8297597,16.294762,2.5430906,3.309033,8.9684305,7.3298173
2.07,0.42784178,16.500149,1.8221477,3.0471632,8.82979,7.1879115
2.072,0.022238702,16.696854,1.0862391,2.7825084,8.666,7.034456
2.074,-0.3866242,16.883253,0.3381076,2.515771,8.477338,6.870133
2.076,-0.7982235,17.057875,-0.4197306,2.2476315,8.264438,6.6956997
2.078,-1.2118056,17.219412,-1.1842883,1.9787428,8.028266,6.5119786
2.08,-1.6267574,17.366533,-1.9526558,1.7097428,7.7701335,6.319863
2.082,-2.0422156,17.498077,-2.7216668,1.4412179,7.491639,6.120351
2.084,-2.4572618,17.613012,-3.4880948,1.1737149,7.1945734,5.9145093
2.086,-2.8708959,17.710293,-4.2487087,0.90773976,6.8807807,5.7034683
2.088,-3.2820618,17.789106,-5.0000486,0.6437459,6.552122,5.4884343
2.09,-3.689766,17.848867,-5.738782,0.3822317,6.21043,5.270696
2.092,-4.092973,17.888983,-6.46157,0.123717785,5.8574343,5.051572
2.094,-4.490812,17.909077,-7.164974,-0.13119161,5.4947963,4.832395
2.096,-4.8823795,17.90904,-7.8458977,-0.3817768,5.124127,4.6144724
2.098,-5.2667284,17.888758,-8.501209,-0.62721026,4.7469945,4.3990865
2.1,-5.6430597,17.848242,-9.128061,-0.8665981,4.3648987,4.187415
2.102,-6.010663,17.787569,-9.723562,-1.0989704,3.9793313,3.9805105
2.104,-6.369011,17.70716,-10.28543,-1.3233283,3.5918465,3.779217
2.106,-6.7176213,17.607468,-10.811292,-1.5387174,3.2040324,3.5841482
2.108,-7.056204,17.489056,-11.299145,-1.7442911,2.8175058,3.3956902
2.11,-7.3846245,17.352495,-11.747324,-1.9393332,2.4339483,3.214031
2.112,-7.702873,17.198648,-12.154575,-2.1232991,2.0550532,3.0391705
2.114,-8.010975,17.02833,-12.520121,-2.2958088,1.6825386,2.8709545
2.116,-8.30926,16.842567,-12.843359,-2.4566717,1.3180925,2.709114
2.118,-8.597725,16.642187,-13.124252,-2.605873,0.9633516,2.5532985
2.12,-8.876796,16.428452,-13.363136,-2.743526,0.61980885,2.4031296
2.122,-9.147173,16.202782,-13.560505,-2.8698666,0.28877985,2.258243
2.124,-9.409507,15.966282,-13.717331,-2.9852057,-0.028615043,2.1183054
2.126,-9.6636715,15.71981,-13.834869,-3.0899124,-0.33145553,1.9830136
2.128,-9.909815,15.464844,-13.914806,-3.1844344,-0.6190583,1.8521099
2.13,-10.148714,15.202836,-13.958765,-3.269261,-0.8909662,1.7254192
2.132,-10.380674,14.935308,-13.96876,-3.3449433,-1.1469545,1.602856
2.134,-10.606131,14.663421,-13.946879,-3.4120553,-1.3870718,1.4844298
2.136,-10.825118,14.388536,-13.895222,-3.4712186,-1.6115704,1.3701984
2.138,-11.038021,14.112233,-13.816141,-3.5231004,-1.8209059,1.2603186
2.14,-11.245197,13.835924,-13.711853,-3.5683527,-2.0156772,1.1549835
2.142,-11.446878,13.561067,-13.584349,-3.607626,-2.1966224,1.054382
2.144,-11.643221,13.289019,-13.435822,-3.6415663,-2.364581,0.95866513
2.146,-11.834426,13.02114,-13.268155,-3.6707764,-2.5204582,0.8679433
2.148,-12.020347,12.758354,-13.082898,-3.695827,-2.6651993,0.78223574
2.15,-12.20134,12.501895,-12.881437,-3.7172265,-2.799751,0.7014364
2.152,-12.377388,12.252795,-12.6650505,-3.7354388,-2.925006,0.6253108
2.154,-12.548615,12.011958,-12.434839,-3.7508698,-3.041775,0.5535052
2.156,-12.715173,11.780136,-12.191734,-3.763855,-3.1507406,0.48556507
2.158,-12.877237,11.55797,-11.936455,-3.7746775,-3.2524936,0.421026
2.16,-13.034676,11.34587,-11.669722,-3.7835705,-3.347527,0.35938334
2.162,-13.187479,11.144112,-11.391911,-3.7907243,-3.4361947,0.3000641
2.164,-13.335652,10.952727,-11.1032295,-3.7962797,-3.5186708,0.2424879
2.166,-13.479061,10.771649,-10.804031,-3.8003201,-3.5949802,0.18613029
2.168,-13.617617,10.600847,-10.494593,-3.802855,-3.6650338,0.13050985
2.17,-13.751079,10.439861,-10.175056,-3.8038476,-3.728625,0.07520473
2.172,-13.879312,10.288341,-9.845795,-3.803194,-3.7854693,0.0198704
2.174,-14.002088,10.145776,-9.507059,-3.8007467,-3.8352118,-0.035746932
2.176,-14.119069,10.011657,-9.159355,-3.796305,-3.8774555,-0.09184098
2.178,-14.229979,9.8852415,-8.803036,-3.7896616,-3.911816,-0.14855134
2.18,-14.334451,9.765875,-8.438769,-3.7805946,-3.9379504,-0.2059691
2.182,-14.43205,9.652556,-8.067202,-3.7688966,-3.955565,-0.26414287
2.184,-14.522274,9.544502,-7.68912,-3.7543986,-3.9644542,-0.3231126
2.186,-14.604492,9.440893,-7.305396,-3.7369442,-3.9644618,-0.38289618
2.188,-14.678361,9.340993,-6.9169497,-3.7164412,-3.9555204,-0.44352418
2.19,-14.743209,9.243877,-6.524762,-3.692798,-3.9376287,-0.5049861
2.192,-14.798474,9.148884,-6.129981,-3.665952,-3.9108515,-0.5672846
2.194,-14.843572,9.055194,-5.7337885,-3.6358728,-3.8753045,-0.6304278
2.196,-14.878019,8.96213,-5.337308,-3.6025226,-3.8311284,-0.69439876
2.198,-14.901244,8.869092,-4.9419637,-3.565879,-3.7785056,-0.7591763
2.2,-14.912711,8.775316,-4.5489235,-3.5259311,-3.717609,-0.82471234
2.202,-14.911751,8.6800785,-4.159441,-3.482663,-3.6486232,-0.89094996
2.204,-14.897931,8.582776,-3.7748775,-3.4360814,-3.5717065,-0.9578055
2.206,-14.87109,8.483028,-3.396348,-3.3861766,-3.4870043,-1.0251609
2.208,-14.830894,8.380597,-3.0251293,-3.3329544,-3.3946402,-1.0928962
2.21,-14.776891,8.275035,-2.6624055,-3.2764304,-3.2947063,-1.1608784
2.212,-14.709063,8.1660385,-2.309363,-3.216602,-3.1872225,-1.2289829
2.214,-14.627057,8.053183,-1.9671509,-3.1534572,-3.0721376,-1.297043
2.216,-14.530906,7.936328,-1.6368976,-3.086983,-2.9494205,-1.3648134
2.218,-14.42066,7.8154197,-1.3197641,-3.0171676,-2.8190598,-1.4320326
2.22,-14.296321,7.6902933,-1.0166578,-2.9440017,-2.6810548,-1.4984646
2.222,-14.158135,7.5609727,-0.7286495,-2.8674948,-2.535414,-1.5638425
2.224,-14.006355,7.4275417,-0.4564932,-2.7876637,-2.382222,-1.6279006
2.226,-13.841387,7.2900734,-0.20122941,-2.7045715,-2.221633,-1.6903822
2.228,-13.663671,7.148787,0.03639552,-2.6182961,-2.0538876,-1.7510357
2.23,-13.473628,7.0037456,0.2558173,-2.5289552,-1.8793389,-1.8096155
2.232,-13.271809,6.855163,0.45638782,-2.4367251,-1.6984779,-1.8659136
2.234,-13.058793,6.7033415,0.6376573,-2.341827,-1.511901,-1.9197431
2.236,-12.835319,6.548735,0.7992254,-2.2445145,-1.3203157,-1.9709647
2.238,-12.602639,6.391697,0.941067,-2.145069,-1.1245215,-2.0195093
2.24,-12.361313,6.2324157,1.0630677,-2.0438097,-0.92539597,-2.0653315
2.242,-12.112148,6.0711803,1.1652249,-1.9410609,-0.7238927,-2.108416
2.244,-11.855948,5.908449,1.2477546,-1.8371723,-0.52100086,-2.1487567
2.246,-11.593879,5.7447305,1.3110766,-1.7324775,-0.3176989,-2.1863515
2.248,-11.326827,5.5805864,1.3555877,-1.6272898,-0.114950895,-2.221207
2.25,-11.055878,5.4164424,1.3817878,-1.521906,0.086337805,-2.2533488
2.252,-10.781828,5.252585,1.3903885,-1.4165578,0.2853877,-2.2827973
2.254,-10.505859,5.0895767,1.3822758,-1.3114291,0.4815061,-2.309581
2.256,-10.228862,4.927941,1.358237,-1.2066514,0.6741444,-2.333718
2.258,-9.951761,4.7683573,1.3192093,-1.102315,0.8628753,-2.3552341
2.26,-9.675312,4.611321,1.2661109,-0.9984671,1.0473969,-2.3741374
2.262,-9.4006605,4.457398,1.2000581,-0.8951402,1.2275023,-2.390413
2.264,-9.128365,4.307273,1.1221151,-0.7923462,1.4030721,-2.4040565
2.266,-8.859182,4.161557,1.0332552,-0.6900934,1.5740353,-2.4150388
2.268,-8.593742,4.0208364,0.93448377,-0.58841455,1.74035,-2.423332
2.27,-8.332684,3.885859,0.82683164,-0.48734134,1.9019861,-2.4288886
2.272,-8.0765295,3.7572372,0.7111174,-0.38694245,2.0589292,-2.4316669
2.274,-7.825614,3.6357,0.5883448,-0.28730518,2.21116,-2.4316168
2.276,-7.580399,3.521939,0.45933962,-0.18851033,2.3586617,-2.4287405
2.278,-7.3412023,3.4164562,0.32492235,-0.0906499,2.5014522,-2.4231317
2.28,-7.108309,3.319924,0.18577798,0.0061844885,2.639541,-2.4149628
2.282,-6.881898,3.232762,0.042712785,0.10189569,2.7729235,-2.4044638
2.284,-6.662191,3.1554604,-0.103639975,0.19639033,2.9016235,-2.3918974
2.286,-6.449363,3.0882592,-0.25261754,0.28959042,3.0256503,-2.3776064
2.288,-6.243298,3.0316317,-0.40383324,0.3814118,3.1449952,-2.36201
2.29,-6.043992,2.9857013,-0.5566383,0.4717675,3.2596297,-2.3455665
2.292,-5.8513813,2.9506364,-0.71062815,0.56054735,3.3694606,-2.3287563
2.294,-5.6653094,2.9265022,-0.86543864,0.64764434,3.4743574,-2.312099
2.296,-5.4857445,2.9132953,-1.0205815,0.73291945,3.5741577,-2.2961235
2.298,-5.312479,2.9108317,-1.1758183,0.81623375,3.6686401,-2.2813208
2.3,-5.1451645,2.9190342,-1.3307033,0.89741087,3.757512,-2.2681136
2.302,-4.983605,2.9377575,-1.484967,0.9762381,3.8404453,-2.2568245
2.304,-4.8275447,2.9666703,-1.6382354,1.0524826,3.9170628,-2.2476912
2.306,-4.6764455,3.0055277,-1.7902887,1.1258786,3.9869614,-2.2408357
2.308,-4.5300555,3.053889,-1.9406104,1.1961458,4.0497637,-2.2363024
2.31,-4.387886,3.1114306,-2.0889688,1.2630051,4.1051183,-2.234045
2.312,-4.24963,3.1777728,-2.2350616,1.3261877,4.152738,-2.233947
2.314,-4.1145997,3.2524688,-2.3783388,1.3854415,4.1924057,-2.2358637
2.316,-3.9821913,3.3348808,-2.51859,1.4405727,4.2240143,-2.2396393
2.318,-3.8520253,3.4244812,-2.6553707,1.4914212,4.247549,-2.2451105
2.32,-3.7236292,3.5208004,-2.7882771,1.5378659,4.26309,-2.2521589
2.322,-3.5964034,3.6235104,-2.916984,1.5798454,4.270834,-2.2606597
2.324,-3.4699214,3.732185,-3.041039,1.6173153,4.271048,-2.2705379
2.326,-3.3435879,3.8462634,-3.1600518,1.6502492,4.2640367,-2.2817254
2.328,-3.2168818,3.965293,-3.2736888,1.6785989,4.250175,-2.294169
2.33,-3.0893893,4.0888486,-3.3816082,1.7022777,4.2298136,-2.3078043
2.332,-2.960603,4.216315,-3.4833977,1.7211732,4.2032957,-2.3225393
2.334,-2.8300512,4.3472166,-3.5787435,1.735153,4.170932,-2.3382685
2.336,-2.6974933,4.4810095,-3.6672692,1.7440404,4.1329756,-2.3549297
2.338,-2.5625563,4.6172743,-3.7486486,1.7476783,4.0895867,-2.3724694
2.34,-2.42525,4.7555037,-3.822745,1.7459282,4.040889,-2.3908174
2.342,-2.2851763,4.8950477,-3.8891098,1.7386891,3.9869218,-2.409905
2.344,-2.1422253,5.0354986,-3.9476438,1.7259369,3.927701,-2.4297013
2.346,-1.9963859,5.1762342,-3.9980204,1.7077246,3.863247,-2.450212
2.348,-1.8476089,5.3167324,-4.040167,1.6841718,3.7935972,-2.4714975
2.35,-1.6959664,5.4566126,-4.0739875,1.6554691,3.718821,-2.4936697
2.352,-1.5415446,5.5953197,-4.099323,1.6218408,3.6390598,-2.5169125
2.354,-1.3845297,5.7324247,-4.116139,1.5835435,3.5545154,-2.5414085
2.356,-1.224965,5.8673697,-4.1244736,1.5408361,3.4654665,-2.567357
2.358,-1.0630631,5.9995933,-4.1241503,1.4939816,3.3722615,-2.5949247
2.36,-0.89899814,6.1288013,-4.115299,1.4432173,3.2753057,-2.6242576
2.362,-0.73308444,6.254772,-4.0979786,1.3887765,3.1750472,-2.6554437
2.364,-0.5654113,6.377026,-4.0723534,1.3308892,3.0719864,-2.68851
2.366,-0.3961389,6.4952297,-4.03861,1.2697787,2.9666545,-2.7234373
2.368,-0.2255019,6.609089,-3.9969525,1.2056735,2.8596137,-2.7601383
2.37,-0.053738594,6.718355,-3.9477482,1.1387985,2.7514307,-2.7984567
2.372,0.11914945,6.822801,-3.8913176,1.0693867,2.642653,-2.8382092
2.374,0.2928331,6.9224086,-3.828063,0.9976798,2.5338278,-2.8791814
2.376,0.46215403,7.0158567,-3.7608256,0.9239161,2.4254692,-2.9211638
2.378,0.6307703,7.104205,-3.688394,0.84834844,2.3180716,-2.9639251
2.38,0.79839504,7.187442,-3.611454,0.7712172,2.2120967,-3.0072505
2.382,0.9646462,7.2656097,-3.530645,0.692771,2.1079314,-3.0509353
2.384,1.1291195,7.3388553,-3.4467914,0.61322653,2.005925,-3.094756
2.386,1.2915211,7.4073067,-3.3606477,0.5327654,1.9063485,-3.1385157
2.388,1.4515436,7.471233,-3.2730427,0.45154637,1.809387,-3.1820314
2.39,1.6087852,7.5307875,-3.1846733,0.3696921,1.7151461,-3.2251222
2.392,1.7629359,7.5862617,-3.096407,0.2872665,1.6236644,-3.267634
2.394,1.9136677,7.6378994,-3.0089064,0.20429254,1.5348477,-3.3094137
2.396,2.060691,7.6860237,-2.9228363,0.12075281,1.4485508,-3.3503351
2.398,2.2036169,7.7308125,-2.8387032,0.0366019,1.3645732,-3.3903024
2.4,2.3421714,7.7725506,-2.7570713,-0.04823327,1.2826678,-3.4292707
2.402,2.4761162,7.811526,-2.678298,-0.13382876,1.2025914,-3.4672165
2.404,2.6052291,7.847934,-2.6027026,-0.21698618,1.1266634,-3.5029645
2.406,2.729413,7.8819466,-2.5305562,-0.29924774,1.0534009,-3.5371256
2.408,2.8486824,7.913768,-2.4620345,-0.38001645,0.98306763,-3.5695732
2.41,2.9628286,7.9435763,-2.397264,-0.45859313,0.9160016,-3.6001718
2.412,3.0718918,7.9713907,-2.336216,-0.53423643,0.85258317,-3.6288056
2.414,3.1760201,7.997484,-2.278956,-0.60623646,0.7931723,-3.6553807
2.416,3.275033,8.02195,-2.2253487,-0.6739787,0.73806286,-3.679837
2.418,3.369246,8.044898,-2.1753821,-0.7370099,0.6874378,-3.7021713
2.42,3.458647,8.06647,-2.128829,-0.7950467,0.641346,-3.7224164
2.422,3.543448,8.08681,-2.0855582,-0.8480084,0.59970915,-3.7406511
2.424,3.6237624,8.105945,-2.0455194,-0.89598024,0.5623292,-3.7569978
2.426,3.6998653,8.123956,-2.0084069,-0.93918216,0.52894676,-3.771606
