Time_s_,Acc_x_m_s_2_,Acc_y_m_s_2_,Acc_z_m_s_2_,Gyro_x_1_s_,Gyro_y_1_s_,Gyro_z_1_s_
0,-0.76205266,0.14485133,0.9360268,0.15186849,-0.47989482,0.4163712
0.002,-0.77557373,0.15551625,0.92872447,0.14673223,-0.472741,0.42429185
0.004,-0.7885046,0.1665614,0.92083853,0.140865,-0.46493107,0.43306547
0.006,-0.80087626,0.17797425,0.9122843,0.13415119,-0.45650274,0.4427121
0.008,-0.81240284,0.18966843,0.9031209,0.1264629,-0.44757017,0.4532067
0.01,-0.82282823,0.20170817,0.8933529,0.11765951,-0.4383011,0.46449497
0.012,-0.83223844,0.21414089,0.8829313,0.10761502,-0.42892128,0.4764446
0.014,-0.8403146,0.22694553,0.87179345,0.09621883,-0.41972762,0.48886248
0.016,-0.8470328,0.24011101,0.8599037,0.08341439,-0.41108552,0.50150955
0.018,-0.85203505,0.2536139,0.8471079,0.0692048,-0.40337902,0.51411426
0.02,-0.8551598,0.26744986,0.83341587,0.053656593,-0.39696413,0.52639383
0.022,-0.85609865,0.28155476,0.8188891,0.036919042,-0.3921359,0.5380803
0.024,-0.85478115,0.2960136,0.8034983,0.01920823,-0.3890498,0.5489505
0.026,-0.85117334,0.3107868,0.787441,0.00079806894,-0.38774824,0.5588533
0.028,-0.8450181,0.32587418,0.7706748,-0.018357597,-0.38788286,0.5680656
0.03,-0.836436,0.34121546,0.7532228,-0.037490353,-0.3896038,0.57611525
0.032,-0.8254459,0.35690096,0.7350924,-0.056327105,-0.39255854,0.58309865
0.034,-0.8120236,0.37296104,0.71622795,-0.07466409,-0.39637992,0.58911735
0.036,-0.7962348,0.38944277,0.6966333,-0.092302464,-0.40068915,0.5943035
0.038,-0.778175,0.4064479,0.67632914,-0.10910313,-0.40512145,0.5987895
0.04,-0.7580982,0.423972,0.6552946,-0.124977104,-0.4093817,0.6026597
0.042,-0.73623717,0.44209054,0.6335697,-0.1398547,-0.4132012,0.60600203
0.044,-0.71297336,0.4608301,0.6113695,-0.15370776,-0.4163211,0.6088966
0.046,-0.6885498,0.4802142,0.5885778,-0.16650699,-0.41848168,0.61143196
0.048,-0.6632567,0.50036067,0.5650836,-0.17824511,-0.41940355,0.6137337
0.05,-0.63750845,0.5213298,0.5407608,-0.18890849,-0.4187774,0.61596876
0.052,-0.61154974,0.54324055,0.5154217,-0.19848925,-0.4162432,0.61832637
0.054,-0.5856338,0.5660116,0.48888305,-0.20698036,-0.41142336,0.6209982
0.056,-0.56024194,0.5902173,0.4607938,-0.21438392,-0.4039303,0.62417716
0.058,-0.53513646,0.6153763,0.43148223,-0.2207143,-0.39341506,0.62804437
0.06,-0.51066947,0.641463,0.4009025,-0.22602853,-0.37962395,0.6327372
0.062,-0.48692828,0.6683869,0.36901817,-0.23040934,-0.36242297,0.638346
0.064,-0.46386227,0.69621724,0.3356973,-0.2339714,-0.34184864,0.6448694
0.066,-0.4416318,0.72509307,0.30071878,-0.23688911,-0.3181181,0.6522487
0.068,-0.41998315,0.75480556,0.26382396,-0.23936175,-0.29162136,0.66033584
0.07,-0.39879453,0.7855689,0.22485007,-0.24163495,-0.2628909,0.6689273
0.072,-0.37791315,0.8172212,0.18361047,-0.24395472,-0.23259722,0.67778295
0.074,-0.35718155,0.8497365,0.14014271,-0.2465612,-0.2015141,0.6866369
0.076,-0.33653545,0.8830628,0.09454959,-0.24968655,-0.17045926,0.69523007
0.078,-0.31584635,0.9172557,0.04692655,-0.25351852,-0.14026996,0.7033106
0.08,-0.29506823,0.9521045,-0.0024612583,-0.2582044,-0.11176528,0.7106495
0.082,-0.27382094,0.9876433,-0.053497132,-0.26384464,-0.08571836,0.7170442
0.084,-0.25211197,1.0236759,-0.106021516,-0.2705024,-0.062825456,0.7223402
0.086,-0.22973552,1.0603757,-0.15970856,-0.27822936,-0.043702334,0.7264206
0.088,-0.20661092,1.0976967,-0.21423066,-0.28702602,-0.028847849,0.7292256
0.09,-0.18281698,1.1358033,-0.26885042,-0.2968832,-0.018646775,0.73070633
0.092,-0.15839982,1.1746992,-0.3230581,-0.30775198,-0.013364406,0.73083794
0.094,-0.13353929,1.2144371,-0.37623677,-0.31956244,-0.013103209,0.72965556
0.096,-0.10816477,1.2551284,-0.4279211,-0.33222297,-0.017827433,0.72719973
0.098,-0.08250332,1.2968853,-0.47787327,-0.34560314,-0.027379937,0.723538
0.1,-0.05655709,1.3395323,-0.5253919,-0.35954052,-0.041481353,0.71878064
0.102,-0.030496076,1.3832803,-0.56996655,-0.3738452,-0.059756573,0.71304274
0.104,-0.0044872314,1.4282426,-0.61112726,-0.3883055,-0.08176655,0.70646405
0.106,0.021475054,1.4744896,-0.6482947,-0.40269783,-0.10704815,0.6991742
0.108,0.047362365,1.5221115,-0.68081343,-0.41681904,-0.13516423,0.6913141
0.11,0.07295239,1.5711457,-0.7081363,-0.4305194,-0.16573669,0.68298167
0.112,0.09829128,1.6216,-0.7296615,-0.44370213,-0.19849627,0.6742175
0.114,0.12334901,1.6734464,-0.744775,-0.4563332,-0.23330954,0.6650064
0.116,0.1482363,1.726601,-0.7527678,-0.46847457,-0.27020067,0.6552564
0.118,0.17282124,1.780901,-0.75289106,-0.4802599,-0.30937928,0.6448161
0.12,0.19722287,1.8361076,-0.7445229,-0.49187326,-0.3511924,0.6334707
0.122,0.22177407,1.8918802,-0.7267924,-0.5035382,-0.3960865,0.62097067
0.124,0.24652682,1.9479873,-0.69898504,-0.51548576,-0.44453642,0.6070265
0.126,0.27168196,2.0040503,-0.6604234,-0.52792656,-0.49694082,0.59136534
0.128,0.2973218,2.059767,-0.61030394,-0.54102415,-0.5535558,0.5737505
0.13,0.3233083,2.1147754,-0.54809964,-0.5548897,-0.6144375,0.55403394
0.132,0.34963802,2.1688018,-0.47336227,-0.56954813,-0.6793858,0.53215706
0.134,0.37631592,2.2213373,-0.3856354,-0.5849701,-0.747855,0.5081507
0.136,0.40348676,2.2720733,-0.28502807,-0.601038,-0.81902254,0.48211884
0.138,0.43100613,2.3206143,-0.17137504,-0.617585,-0.8918084,0.45424074
0.14,0.45871687,2.3668532,-0.04482791,-0.6343936,-0.9649444,0.4247485
0.142,0.48634326,2.410683,0.09435648,-0.65124077,-1.0370668,0.39388606
0.144,0.5134075,2.4520283,0.24575216,-0.6679077,-1.1067674,0.3619102
0.146,0.53972006,2.4909039,0.4087816,-0.6841738,-1.1726605,0.32905802
0.148,0.56470644,2.527355,0.5825482,-0.69984776,-1.2334458,0.29553676
0.15,0.58792347,2.5616095,0.7661165,-0.71473014,-1.2878823,0.26154825
0.152,0.60875916,2.594017,0.9582849,-0.7286042,-1.3347586,0.22731519
0.154,0.62664944,2.6249678,1.1576064,-0.74122393,-1.372899,0.19306761
0.156,0.6408074,2.6550384,1.3627012,-0.75228715,-1.4011532,0.15904412
0.158,0.6507432,2.6848688,1.5720315,-0.7614443,-1.4183626,0.12551066
0.16,0.6558242,2.7151194,1.7838426,-0.7682927,-1.4233592,0.09275168
0.162,0.6554704,2.7464895,1.9964633,-0.7723937,-1.4149841,0.061059505
0.164,0.64912784,2.7798371,2.2078567,-0.7732699,-1.392148,0.030727506
0.166,0.6366761,2.8157268,2.4158778,-0.7704741,-1.3538904,0.0020309985
0.168,0.6179284,2.8549175,2.618908,-0.7635998,-1.2994515,-0.024794847
0.17,0.5927818,2.897962,2.8152232,-0.7523246,-1.2283694,-0.049557835
0.172,0.561406,2.945385,3.0033433,-0.7364513,-1.1405329,-0.07215452
0.174,0.5240357,2.9974535,3.1818862,-0.7159264,-1.0362647,-0.092571914
0.176,0.48120105,3.0542362,3.3499985,-0.69085693,-0.91633713,-0.110907555
0.178,0.4334644,3.1158128,3.5068004,-0.6614928,-0.78200287,-0.12736456
0.18,0.38166296,3.1818466,3.651597,-0.62824225,-0.63500226,-0.14223765
0.182,0.3268268,3.2520297,3.7842405,-0.59162813,-0.47745466,-0.15589255
0.184,0.2698784,3.325827,3.904617,-0.55226946,-0.31180957,-0.16877225
0.186,0.21213698,3.4025912,4.012904,-0.5108813,-0.14075002,-0.1813558
0.188,0.1549015,3.4814024,4.109358,-0.46817967,0.03292492,-0.19414069
0.19,0.09974289,3.5613575,4.1944256,-0.4248987,0.20641953,-0.2076003
0.192,0.04799986,3.6412354,4.26882,-0.3817295,0.377113,-0.22219229
0.194,0.0008845329,3.719935,4.3334923,-0.33928615,0.5426694,-0.23831257
0.196,-0.040268898,3.796062,4.389417,-0.2980956,0.7011451,-0.25626013
0.198,-0.07429409,3.868425,4.437629,-0.2585803,0.8509878,-0.27626687
0.2,-0.09983349,3.9356575,4.478994,-0.2210564,0.99113154,-0.29842418
0.202,-0.11603308,3.9967263,4.514688,-0.18571873,1.1209264,-0.32273197
0.204,-0.12196398,4.050575,4.5457344,-0.15271102,1.2400359,-0.34911516
0.206,-0.11706948,4.0963497,4.5733337,-0.122112095,1.3483979,-0.37743834
0.208,-0.10107422,4.133566,4.59859,-0.093966156,1.446134,-0.40749434
0.21,-0.073721886,4.161851,4.6219945,-0.068299145,1.5334604,-0.43903506
0.212,-0.03505063,4.180821,4.6440263,-0.04508967,1.6106157,-0.47181943
0.214,0.014811516,4.1904535,4.664825,-0.024306983,1.6778022,-0.50561816
0.216,0.07538009,4.190933,4.684567,-0.0058951825,1.7351928,-0.54025495
0.218,0.14604926,4.182542,4.703227,0.010229051,1.7829639,-0.5755669
0.22,0.22627306,4.165867,4.7208924,0.024180546,1.8212968,-0.6114232
0.222,0.31512356,4.1416254,4.737384,0.03609784,1.8504546,-0.64768386
0.224,0.41136718,4.110784,4.7523646,0.046160355,1.8708161,-0.68419266
0.226,0.5138886,4.074469,4.7653804,0.054601252,1.8829069,-0.7207383
0.228,0.6216552,4.033861,4.775766,0.061700955,1.88743,-0.7570493
0.23,0.7332635,3.9901037,4.7829895,0.06777257,1.8852607,-0.79278797
0.232,0.84742117,3.9445894,4.786394,0.07315796,1.8774503,-0.8275903
0.234,0.96267295,3.898478,4.785532,0.078221425,1.8651736,-0.86109453
0.236,1.0776625,3.8529963,4.77995,0.08332972,1.849657,-0.8929558
0.238,1.1910655,3.809383,4.768999,0.0888455,1.8321222,-0.92288387
0.24,1.3019171,3.7689104,4.7521133,0.095111966,1.8137476,-0.9506652
0.242,1.4091825,3.7325966,4.728782,0.10241518,1.7955735,-0.9761764
0.244,1.5119443,3.7015383,4.6986065,0.11097023,1.778458,-0.9994006
0.246,1.6091099,3.6765733,4.661479,0.120916836,1.7630384,-1.0204033
0.248,1.6999004,3.6584158,4.617347,0.13229716,1.7497067,-1.0393465
0.25,1.7838206,3.6475224,4.5663443,0.14509116,1.7386525,-1.0564504
0.252,1.8603301,3.644134,4.508869,0.15921362,1.7299157,-1.0719566
0.254,1.9290986,3.6485336,4.4454,0.17451465,1.7233558,-1.0861384
0.256,1.9896283,3.6609008,4.3764935,0.19081454,1.7187576,-1.0992519
0.258,2.0419552,3.6814895,4.302888,0.2079638,1.7158967,-1.1115003
0.26,2.0860584,3.7102346,4.225314,0.22582099,1.7145637,-1.1230514
0.262,2.1221092,3.7469397,4.1447787,0.24428046,1.7146019,-1.1340424
0.264,2.1503892,3.7911735,4.062132,0.26329488,1.7159647,-1.1445446
0.266,2.1713347,3.8425174,3.978531,0.28285578,1.7187142,-1.154579
0.268,2.1850886,3.900342,3.8951206,0.30300623,1.723026,-1.1640916
0.27,2.1922338,3.9640355,3.8132682,0.3238175,1.7291918,-1.1729945
0.272,2.193264,4.0329113,3.7339988,0.34537065,1.7375673,-1.1812009
0.274,2.1889162,4.106296,3.6586273,0.36777118,1.7485796,-1.1886016
0.276,2.1794019,4.1835666,3.5881405,0.3911019,1.7626225,-1.1950948
0.278,2.1656134,4.263776,3.523222,0.4154069,1.7800481,-1.2006102
0.28,2.14806,4.346232,3.4646583,0.44067365,1.8010937,-1.2050868
0.282,2.1273632,4.430125,3.4130547,0.46683234,1.8258319,-1.2085215
0.284,2.104279,4.514742,3.3688958,0.4937663,1.8541332,-1.2109354
0.286,2.0793254,4.599384,3.3322067,0.5213173,1.8856559,-1.2123953
0.288,2.0532413,4.6833014,3.303249,0.5492709,1.9198381,-1.2130209
0.29,2.0266492,4.7658424,3.2820551,0.577402,1.9559319,-1.2129817
0.292,2.0000703,4.8461466,3.2684288,0.60546976,1.993075,-1.2124822
0.294,1.974405,4.923421,3.262384,0.6332588,2.0303216,-1.2117561
0.296,1.9501371,4.996958,3.263753,0.6605726,2.0667596,-1.2110362
0.298,1.9279233,5.0661874,3.2724032,0.6872885,2.1016166,-1.2105362
0.3,1.9081261,5.1304617,3.2880652,0.7133227,2.1342614,-1.2104261
0.302,1.8912413,5.1892905,3.3105025,0.73865724,2.164269,-1.2107983
0.304,1.8780978,5.242202,3.3390102,0.7633259,2.1914487,-1.2117062
0.306,1.8690312,5.288833,3.3732495,0.78739744,2.2157946,-1.2131153
0.308,1.8646023,5.328753,3.412482,0.8109683,2.2374408,-1.2149465
0.31,1.8648306,5.3618445,3.456325,0.834141,2.2566173,-1.2170799
0.312,1.8702338,5.387857,3.5040593,0.8569946,2.2735622,-1.2193813
0.314,1.8809857,5.40671,3.555131,0.87957406,2.2884736,-1.2217458
0.316,1.8971145,5.418335,3.6087537,0.90189767,2.30149,-1.2240784
0.318,1.9186823,5.4229026,3.6640856,0.9239148,2.3126564,-1.2263174
0.32,1.9453464,5.420789,3.720541,0.9455459,2.321928,-1.2284559
0.322,1.9768858,5.412529,3.7773173,0.9666846,2.3292086,-1.2305464
0.324,2.0127485,5.3985624,3.833771,0.98721385,2.3343654,-1.2326391
0.326,2.0524993,5.379549,3.8887258,1.0070131,2.337287,-1.2348211
0.328,2.0954762,5.3560386,3.9413228,1.0259546,2.337868,-1.237184
0.33,2.140848,5.328926,3.9904842,1.0439508,2.3360605,-1.2398407
0.332,2.1877983,5.2990546,4.0353518,1.0609386,2.331839,-1.2428973
0.334,2.2355433,5.267274,4.0751376,1.0768834,2.3252358,-1.2464578
0.336,2.283116,5.234516,4.1091475,1.0918133,2.3163261,-1.250594
0.338,2.329528,5.2018538,4.1367455,1.1057901,2.3052442,-1.2553711
0.34,2.3740807,5.170161,4.157403,1.1189066,2.29218,-1.260798
0.342,2.415855,5.1402383,4.1705794,1.1313257,2.2774155,-1.2668529
0.344,2.4543562,5.112897,4.175828,1.1432366,2.2613325,-1.2734799
0.346,2.4890885,5.088862,4.172845,1.154863,2.2443948,-1.280592
0.348,2.5196922,5.068479,4.161558,1.1664327,2.2271144,-1.2880862
0.35,2.5460634,5.052005,4.142027,1.1781952,2.2100422,-1.2958539
0.352,2.5680463,5.0396657,4.114341,1.1903698,2.1937191,-1.3037908
0.354,2.5859501,5.031514,4.0787754,1.2031844,2.17865,-1.3118291
0.356,2.60035,5.027543,4.035715,1.216805,2.1652668,-1.3199005
0.358,2.611854,5.0274696,3.9856153,1.2313927,2.1538892,-1.327949
0.36,2.621356,5.0308695,3.9291852,1.2470636,2.1447566,-1.335961
0.362,2.6297007,5.037326,3.8668954,1.2639141,2.1379962,-1.3439472
0.364,2.6378055,5.0461016,3.799494,1.2820005,2.1336317,-1.351931
0.366,2.6467505,5.0563126,3.727891,1.3013431,2.1316123,-1.35995
0.368,2.6576555,5.0670185,3.652981,1.321924,2.1317804,-1.3680291
0.37,2.6715627,5.0774584,3.5757105,1.3436704,2.1338902,-1.3762062
0.372,2.689461,5.086857,3.4968874,1.366463,2.1376257,-1.3845391
0.374,2.712072,5.094562,3.4175644,1.3901227,2.1426125,-1.3930675
0.376,2.7400224,5.099803,3.3385105,1.4144421,2.1484294,-1.4018342
0.378,2.7741015,5.1018333,3.2603524,1.4391875,2.1546423,-1.4108772
0.38,2.8144593,5.100184,3.1833804,1.4641256,2.1608448,-1.4202205
0.382,2.8612044,5.094421,3.1078153,1.4890518,2.1667204,-1.4298447
0.384,2.9143205,5.0840774,3.033904,1.5138246,2.1720736,-1.4396801
0.386,2.9735878,5.0689793,2.961644,1.5383844,2.1768537,-1.4496042
0.388,3.0384839,5.0489664,2.8909929,1.5627562,2.1811435,-1.4594561
0.39,3.1082675,5.024027,2.82194,1.5870395,2.1851661,-1.469027
0.392,3.1821215,4.994292,2.7542505,1.6114086,2.1892133,-1.4780898
0.394,3.2589526,4.9599166,2.6874857,1.6360663,2.1936007,-1.4863992
0.396,3.337749,4.9211593,2.6212513,1.6612105,2.1985972,-1.4937313
0.398,3.4173582,4.8783836,2.5551414,1.6869977,2.2043467,-1.499906
0.4,3.4964108,4.8318663,2.4886029,1.7135258,2.210844,-1.5047846
0.402,3.5737727,4.782036,2.4212906,1.7408329,2.2179296,-1.5082977
0.404,3.648036,4.729337,2.3527434,1.7688699,2.2252753,-1.5104597
0.406,3.7179916,4.6741395,2.2826998,1.7975166,2.2324023,-1.5113246
0.408,3.7825127,4.6167793,2.2109509,1.826586,2.2387533,-1.5109932
0.41,3.8406787,4.557605,2.1374865,1.8558837,2.24374,-1.5096076
0.412,3.8916981,4.4968224,2.0622864,1.885187,2.2467709,-1.5073326
0.414,3.9346042,4.4346232,1.9857199,1.914301,2.2473245,-1.5043433
0.416,3.9689574,4.371195,1.90799,1.9430743,2.2449899,-1.5008038
0.418,3.9945111,4.306638,1.8294878,1.9714091,2.2394748,-1.4968641
0.42,4.011012,4.2410073,1.7505801,1.999268,2.230589,-1.4926796
0.422,4.018402,4.1743736,1.671856,2.0266664,2.2182736,-1.4883828
0.424,4.016737,4.1067395,1.5938032,2.0536633,2.2025714,-1.484088
0.426,4.006399,4.0380926,1.5171802,2.0803523,2.183584,-1.4798999
0.428,3.9877865,3.9680696,1.4428645,2.106798,2.1614473,-1.4759347
0.43,3.9614577,3.8965173,1.3714914,2.133041,2.1362813,-1.4722984
0.432,3.9280927,3.8234034,1.3039486,2.1590772,2.1081789,-1.4690835
0.434,3.8884306,3.7487297,1.2409104,2.1848612,2.0771942,-1.4663689
0.436,3.8432865,3.6722717,1.1830833,2.210291,2.0433125,-1.4642427
0.438,3.793664,3.594211,1.1310358,2.2352033,2.0064626,-1.4627906
0.44,3.7403107,3.514412,1.0852348,2.2594206,1.9665364,-1.4620745
0.442,3.684063,3.433002,1.0461801,2.2827737,1.9234202,-1.4621527
0.444,3.6260028,3.3499928,1.0141883,2.3051043,1.8770126,-1.4630709
0.446,3.566844,3.265439,0.9897139,2.326313,1.8273016,-1.4648508
0.448,3.5073612,3.1793861,0.9732816,2.3464036,1.7743628,-1.4674993
0.45,3.4482179,3.0920372,0.9651847,2.365455,1.7184337,-1.4709876
0.452,3.3903446,3.0034688,0.9655926,2.3836322,1.6599059,-1.4752527
0.454,3.334188,2.9139135,0.9746146,2.4011788,1.5993242,-1.4801979
0.456,3.280445,2.8235464,0.9921646,2.4183838,1.5373716,-1.485677
0.458,3.229491,2.7327518,1.0181792,2.4355607,1.4748051,-1.4915025
0.46,3.181569,2.6417036,1.0524117,2.4530284,1.4124538,-1.4974747
0.462,3.1370401,2.5505226,1.094544,2.471068,1.3511531,-1.5033607
0.464,3.0960383,2.4594235,1.1440382,2.4899013,1.2916801,-1.5089498
0.466,3.0585613,2.368524,1.2002535,2.5096998,1.2347703,-1.5140338
0.468,3.0246015,2.2781732,1.26237,2.530577,1.1810547,-1.5184057
0.47,2.993938,2.188521,1.3294325,2.5525792,1.1310592,-1.5219007
0.472,2.9666696,2.0995605,1.4006985,2.575734,1.0852242,-1.5243753
0.474,2.942819,2.0113242,1.4751028,2.6000214,1.0438515,-1.525708
0.476,2.9219687,1.9239686,1.5514528,2.6254025,1.0071204,-1.5257949
0.478,2.9037893,1.8374755,1.6287093,2.651803,0.97505784,-1.5245633
0.48,2.887844,1.7519217,1.705615,2.6791046,0.9475664,-1.5219345
0.482,2.873986,1.667052,1.7810583,2.7071743,0.92437685,-1.5178566
0.484,2.8620148,1.5829113,1.8536937,2.735825,0.9050831,-1.5123553
0.486,2.851224,1.4996942,1.9220757,2.7648473,0.8891132,-1.5055008
0.488,2.8412476,1.4173414,1.9850101,2.7940035,0.8757782,-1.4974264
0.49,2.832257,1.3357213,2.041516,2.823057,0.86433387,-1.4883165
0.492,2.8240685,1.2547942,2.0905774,2.8518069,0.8540449,-1.4783806
0.494,2.8162718,1.1747189,2.1311333,2.88009,0.8442522,-1.4678481
0.496,2.808999,1.095181,2.1623502,2.907807,0.8344505,-1.4569374
0.498,2.8023245,1.0161414,2.18358,2.9349453,0.8242987,-1.4458451
0.5,2.7965424,0.937482,2.1941285,2.9615483,0.8136424,-1.4347355
0.502,2.791737,0.8591335,2.1935349,2.9876916,0.8025274,-1.4237459
0.504,2.7882724,0.78104126,2.1815243,3.0135026,0.791121,-1.4129674
0.506,2.786498,0.7030786,2.1579013,3.0391343,0.77968645,-1.4024668
0.508,2.786862,0.62519217,2.1222825,3.064714,0.7684839,-1.3923223
0.51,2.7900672,0.5472282,2.074595,3.090345,0.75770986,-1.3826265
0.512,2.7966888,0.46899974,2.0148053,3.1160836,0.747473,-1.3734956
0.514,2.8072987,0.39037645,1.9432689,3.1419327,0.73772335,-1.3650837
0.516,2.822441,0.31129754,1.8604027,3.1678429,0.72827566,-1.3575665
0.518,2.8427677,0.23163581,1.7669289,3.1937156,0.7188277,-1.3511183
0.52,2.868743,0.1512847,1.6634192,3.219434,0.7090057,-1.3458607
0.522,2.9006283,0.07027912,1.55078,3.2449005,0.6984304,-1.3419116
0.524,2.9388266,-0.011500001,1.4300025,3.2700288,0.68674916,-1.3393382
0.526,2.983235,-0.09413612,1.3022355,3.2947683,0.6736861,-1.3381313
0.528,3.0336356,-0.17764747,1.1686952,3.3191607,0.65912354,-1.3381915
0.53,3.090032,-0.26213527,1.0306008,3.3433008,0.64310503,-1.3393512
0.532,3.1521285,-0.34763932,0.88916606,3.3673487,0.6258381,-1.3414109
0.534,3.2194111,-0.43410224,0.7458906,3.3915408,0.6076803,-1.3441328
0.536,3.2911692,-0.5214275,0.6022671,3.4161644,0.5891762,-1.347234
0.538,3.3665605,-0.60942024,0.45981804,3.441559,0.5710336,-1.350396
0.54,3.4447098,-0.698047,0.32012525,3.4680867,0.55405056,-1.3533056
0.542,3.5246086,-0.7873177,0.18462712,3.4960933,0.53908324,-1.355617
0.544,3.6051133,-0.87721086,0.05462101,3.5259197,0.527017,-1.3570079
0.546,3.6851287,-0.9674814,-0.06861304,3.5578678,0.5187392,-1.3571615
0.548,3.7632954,-1.05802,-0.18413968,3.5921633,0.5150627,-1.3557792
0.55,3.8388057,-1.1488923,-0.2910666,3.6289253,0.5166338,-1.3526247
0.552,3.9107444,-1.2399855,-0.38879323,3.6681643,0.52389526,-1.3475195
0.554,3.9782145,-1.3311176,-0.47695264,3.709752,0.5369997,-1.3403733
0.556,4.040527,-1.4221113,-0.5554614,3.753434,0.5557854,-1.3311701
0.558,4.097082,-1.5129371,-0.62423944,3.798818,0.5797331,-1.3200165
0.56,4.147475,-1.6035062,-0.6831761,3.8453908,0.60796213,-1.307082
0.562,4.1912913,-1.6938456,-0.73202324,3.892572,0.6392556,-1.2925768
0.564,4.228647,-1.7841269,-0.77054334,3.9397154,0.67211235,-1.2767453
0.566,4.2595997,-1.8745052,-0.79850686,3.9861515,0.7048099,-1.2598218
0.568,4.2843437,-1.9651239,-0.81593394,4.0312033,0.7354775,-1.2420372
0.57,4.3034253,-2.0561118,-0.8227518,4.0737896,0.7607597,-1.2210153
0.572,4.3175077,-2.1475015,-0.8190391,4.1139,0.7807959,-1.2003949
0.574,4.3275576,-2.2397265,-0.8049252,4.15071,0.79291487,-1.178621
0.576,4.3344574,-2.3329241,-0.7805582,4.1837454,0.7955283,-1.1555495
0.578,4.3393717,-2.4276557,-0.7458559,4.2126775,0.7873745,-1.131029
0.58,4.3433123,-2.5242004,-0.7007628,4.237354,0.7675901,-1.104974
0.582,4.347339,-2.6226726,-0.6453661,4.257769,0.7357783,-1.0774086
0.584,4.3523927,-2.7231593,-0.579473,4.274119,0.6920184,-1.0484893
0.586,4.359909,-2.8260243,-0.50309324,4.2867336,0.63686883,-1.0185168
0.588,4.370817,-2.9314084,-0.4163214,4.296044,0.5712917,-0.98796856
0.59,4.3861866,-3.0395272,-0.31934804,4.302529,0.4965117,-0.9574282
0.592,4.406939,-3.15028,-0.21255511,4.3066206,0.41384947,-0.92749715
0.594,4.434221,-3.2637568,-0.09662551,4.30867,0.3246349,-0.8986842
0.596,4.46937,-3.380169,0.027741134,4.3089232,0.23003435,-0.8712715
0.598,4.512823,-3.4990878,0.15982884,4.307458,0.13091457,-0.8452503
0.6,4.565132,-3.6204169,0.29880333,4.304216,0.027757287,-0.82031643
0.602,4.62723,-3.744048,0.44356328,4.299056,-0.07925844,-0.79590225
0.604,4.6999826,-3.869884,0.5927954,4.291794,-0.19017446,-0.77126634
0.606,4.7839627,-3.9975166,0.7454038,4.2822385,-0.30515963,-0.7456704
0.608,4.879431,-4.1264687,0.9001587,4.270232,-0.42441773,-0.7184615
0.61,4.986685,-4.2563934,1.0560529,4.2556634,-0.5480497,-0.68918896
0.612,5.106139,-4.3870926,1.2119074,4.23852,-0.67592615,-0.65765065
0.614,5.237944,-4.518202,1.3662512,4.2188616,-0.8076581,-0.6239458
0.616,5.3828115,-4.6494436,1.5176947,4.1968164,-0.94262904,-0.588377
0.618,5.5407076,-4.7804766,1.6657302,4.172551,-1.0800309,-0.5513915
0.62,5.7109494,-4.910696,1.8094747,4.146286,-1.2189326,-0.5135064
0.622,5.8925495,-5.0389867,1.9459443,4.118287,-1.3582608,-0.4752078
0.624,6.086477,-5.165172,2.0738485,4.0891356,-1.4960241,-0.43840858
0.626,6.291669,-5.289054,2.1947458,4.058563,-1.633151,-0.39978778
0.628,6.506522,-5.409979,2.3064008,4.027357,-1.7671763,-0.36201823
0.63,6.733011,-5.5275803,2.4056501,3.9959164,-1.8970441,-0.32513893
0.632,6.9705806,-5.641121,2.491187,3.9647052,-2.0216246,-0.2891081
0.634,7.214715,-5.748616,2.5630102,3.9341595,-2.1398625,-0.2538767
0.636,7.4631567,-5.8487916,2.6209054,3.9046915,-2.2508302,-0.2194127
0.638,7.716693,-5.941704,2.663565,3.8766592,-2.353745,-0.18568443
0.64,7.9742737,-6.026273,2.6891353,3.8503897,-2.4479818,-0.15267451
0.642,8.232401,-6.1009607,2.6978285,3.8261273,-2.5331485,-0.12038618
0.644,8.487131,-6.1640205,2.6906796,3.8040743,-2.6090727,-0.08884953
0.646,8.732879,-6.213215,2.6678994,3.7843478,-2.6759171,-0.05811651
0.648,8.968209,-6.249035,2.6311178,3.7669625,-2.7342443,-0.028284594
0.65,9.19128,-6.2715254,2.5812442,3.7519479,-2.784787,0.00055995584
0.652,9.399869,-6.2805996,2.5192754,3.7394223,-2.8282351,0.028438866
0.654,9.592918,-6.2759194,2.4457672,3.7293077,-2.8657498,0.055302173
0.656,9.766109,-6.2554865,2.360124,3.7214005,-2.8987937,0.08106661
0.658,9.916411,-6.2181845,2.2634902,3.7158768,-2.927999,0.10586906
0.66,10.041206,-6.1633296,2.1575174,3.7128289,-2.9540808,0.12989452
0.662,10.138865,-6.0908976,2.0440416,3.7120705,-2.9783914,0.15316358
0.664,10.207557,-6.0012584,1.9257947,3.7134035,-3.002195,0.17568558
0.666,10.245114,-5.8951726,1.8060709,3.7167182,-3.0263982,0.19755554
0.668,10.250678,-5.773569,1.6876835,3.7220058,-3.0516353,0.21895313
0.67,10.224004,-5.638054,1.5734495,3.729139,-3.078723,0.23990065
0.672,10.165729,-5.4905615,1.4664819,3.7379138,-3.1086798,0.26024443
0.674,10.077678,-5.33368,1.3701961,3.7481904,-3.1423078,0.2798483
0.676,9.962061,-5.1701636,1.2870294,3.7597597,-3.1804683,0.29850808
0.678,9.82128,-5.0024567,1.2186632,3.7723932,-3.223771,0.31603295
0.68,9.658102,-4.832937,1.1666766,3.7858543,-3.2725084,0.3323907
0.682,9.4765625,-4.6641827,1.1327841,3.7998548,-3.3267083,0.34755814
0.684,9.280829,-4.498291,1.1182587,3.8142214,-3.385888,0.36165425
0.686,9.075788,-4.337634,1.1241176,3.8287103,-3.4494576,0.37488297
0.688,8.866088,-4.183939,1.1505425,3.843,-3.5166752,0.38766965
0.69,8.656754,-4.0389214,1.1971611,3.8569784,-3.5860937,0.401007
0.692,8.452793,-3.904189,1.2630312,3.8707435,-3.6555772,0.41630667
0.694,8.25955,-3.7809606,1.3464135,3.8846393,-3.7224584,0.43527395
0.696,8.08156,-3.6699333,1.4451625,3.8993256,-3.783391,0.45987153
0.698,7.9232626,-3.5714123,1.5567441,3.915828,-3.8343487,0.49216995
0.7,7.7886524,-3.4852262,1.6783525,3.9355721,-3.870953,0.5342369
0.702,7.680449,-3.410907,1.807124,3.960104,-3.8888893,0.58780205
0.704,7.6007614,-3.3474703,1.9400413,3.9908545,-3.8844738,0.6539377
0.706,7.5504622,-3.2935634,2.0743358,4.0289226,-3.8551137,0.73293895
0.708,7.5298457,-3.2476048,2.206918,4.074993,-3.7993293,0.82431996
0.71,7.5382566,-3.2075653,2.3348725,4.1289654,-3.7173495,0.9267709
0.712,7.57413,-3.1715255,2.4558966,4.1896544,-3.6116936,1.038166
0.714,7.6353164,-3.1374683,2.5678918,4.2553697,-3.4857078,1.156
0.716,7.7188497,-3.1032484,2.6690588,4.324116,-3.3430672,1.277747
0.718,7.8210893,-3.0669627,2.7579193,4.393455,-3.1882803,1.4008864
0.72,7.938092,-3.0267222,2.8335505,4.4608035,-3.0261343,1.5231676
0.722,8.065203,-2.9806223,2.895694,4.5238457,-2.8609536,1.6428187
0.724,8.197793,-2.9269555,2.9448464,4.580905,-2.6960382,1.7587703
0.726,8.330491,-2.8642607,2.981768,4.630919,-2.5338497,1.8705449
0.728,8.458448,-2.7912939,3.006898,4.673364,-2.3764515,1.9779693
0.73,8.577602,-2.7074056,3.0215933,4.70831,-2.2253351,2.0811782
0.732,8.683942,-2.6123981,3.0290644,4.7362866,-2.0817544,2.1804426
0.734,8.772155,-2.5053036,3.0301528,4.7580876,-1.9467616,2.2760406
0.736,8.839561,-2.3856688,3.0236833,4.774665,-1.8211446,2.3683524
0.738,8.88399,-2.2536218,3.012491,4.786913,-1.7056316,2.4576886
0.74,8.900712,-2.109224,2.999529,4.795738,-1.600405,2.5443678
0.742,8.888469,-1.9531732,2.9854248,4.8020372,-1.5052152,2.628598
0.744,8.848981,-1.7871742,2.9700155,4.8063507,-1.4198775,2.7103179
0.746,8.781413,-1.6118996,2.9538536,4.8090057,-1.3440814,2.7894695
0.748,8.682873,-1.4272598,2.9387224,4.8101587,-1.2772646,2.8660831
0.75,8.55362,-1.2346222,2.9260933,4.8098063,-1.2188643,2.9402008
0.752,8.396502,-1.0357599,2.9150724,4.8078046,-1.1684215,3.0118594
0.754,8.214489,-0.83240217,2.9040496,4.8039236,-1.1254514,3.081033
0.756,8.011349,-0.6263674,2.8927262,4.7980075,-1.0895033,3.14776
0.758,7.7867045,-0.41707158,2.8795564,4.789959,-1.0602739,3.2121375
0.76,7.541897,-0.2050693,2.8644068,4.779771,-1.0375512,3.2742932
0.762,7.279111,0.008489013,2.8470292,4.7675595,-1.0211607,3.3344147
0.764,7.000631,0.22200227,2.8276825,4.7535114,-1.0110211,3.39272
0.766,6.711858,0.43247038,2.8070922,4.7377787,-1.0072678,3.4493833
0.768,6.416897,0.63837814,2.7839932,4.7205215,-1.0101794,3.5045586
0.77,6.119162,0.8391166,2.756722,4.701846,-1.0201423,3.558366
0.772,5.821655,1.0344541,2.7239134,4.6818023,-1.0376556,3.610874
0.774,5.528139,1.2243339,2.6840112,4.66038,-1.0633049,3.66208
0.776,5.243166,1.4087654,2.6355329,4.637507,-1.097738,3.711942
0.778,4.969763,1.5877464,2.577845,4.613055,-1.1415858,3.7603486
0.78,4.710576,1.761721,2.5107648,4.586879,-1.1954651,3.807119
0.782,4.467778,1.9313234,2.4342067,4.5588093,-1.2598696,3.8519773
0.784,4.242574,2.097401,2.3484921,4.528745,-1.335105,3.8945694
0.786,4.036294,2.260756,2.25515,4.4966526,-1.4212322,3.9344873
0.788,3.8506346,2.4215002,2.1564622,4.4626775,-1.5179869,3.9713104
0.79,3.6866384,2.5799108,2.0543756,4.4271173,-1.6247058,4.004657
0.792,3.5439074,2.7365148,1.9504167,4.3904233,-1.7402874,4.034228
0.794,3.422285,2.8917217,1.8462766,4.353204,-1.8631865,4.0599055
0.796,3.3210106,3.0463042,1.7432393,4.3161798,-1.99144,4.0817947
0.798,3.2392368,3.2011354,1.6426326,4.280117,-2.1227539,4.100244
0.8,3.1758938,3.3570068,1.5459224,4.245743,-2.254622,4.1158257
0.802,3.1289678,3.5149817,1.4546374,4.213702,-2.384488,4.129282
0.804,3.096033,3.676046,1.3701192,4.1844835,-2.5099192,4.141409
0.806,3.074888,3.8407822,1.2937421,4.158387,-2.628776,4.1530104
0.808,3.0629408,4.009939,1.2265793,4.1355143,-2.739359,4.1648035
0.81,3.0571003,4.1840606,1.1698,4.1157885,-2.8404927,4.177371
0.812,3.0548663,4.3637047,1.1240985,4.0989704,-2.9315906,4.1910996
0.814,3.053626,4.549042,1.0902832,4.0847063,-3.012659,4.2061615
0.816,3.0513582,4.7402325,1.0683515,4.0725756,-3.0842698,4.2225084
0.818,3.045999,4.937171,1.058341,4.0621166,-3.147431,4.2399282
0.82,3.035291,5.1397915,1.0600412,4.05285,-3.2035165,4.25809
0.822,3.0171518,5.3482094,1.0732465,4.04427,-3.254158,4.2765584
0.824,2.9899106,5.562177,1.0975285,4.0358987,-3.3011327,4.2948165
0.826,2.9520187,5.78152,1.1323802,4.0272875,-3.346148,4.312319
0.828,2.9026828,6.0059586,1.1771953,4.018052,-3.39078,4.3285074
0.83,2.8405366,6.2353163,1.2314279,4.0078983,-3.436397,4.3428497
0.832,2.7645848,6.4693666,1.2948298,3.9966264,-3.4840744,4.354928
0.834,2.6739292,6.70772,1.3672371,3.9841564,-3.5345166,4.364479
0.836,2.568274,6.9499993,1.4483223,3.9704943,-3.5880733,4.371446
0.838,2.4472892,7.1959524,1.5375879,3.955716,-3.6447282,4.3759804
0.84,2.3106818,7.445381,1.6344955,3.9399536,-3.704141,4.378409
0.842,2.1584237,7.6980615,1.7382467,3.9233627,-3.7657046,4.3791847
0.844,1.9906182,7.9536695,1.8484275,3.906104,-3.8286126,4.3788285
0.846,1.807502,8.211885,1.9646106,3.8883486,-3.8919597,4.3778334
0.848,1.6093777,8.472409,2.0863504,3.870291,-3.954798,4.3766227
0.85,1.396624,8.734897,2.213073,3.8521287,-4.016201,4.375469
0.852,1.1700361,8.999012,2.3435981,3.8341036,-4.0752583,4.3744926
0.854,0.93075573,9.264319,2.476438,3.816539,-4.131035,4.37369
0.856,0.6798025,9.530388,2.6102884,3.799822,-4.1826215,4.3729744
0.858,0.41803002,9.796856,2.743762,3.7844055,-4.2290993,4.3722496
0.86,0.14659351,10.063343,2.8757463,3.770773,-4.2695904,4.371472
0.862,-0.13315511,10.329274,3.0053775,3.759367,-4.303301,4.370668
0.864,-0.41976818,10.593953,3.1317186,3.750553,-4.3295527,4.369955
0.866,-0.71143484,10.856853,3.253512,3.7445896,-4.3478374,4.369528
0.868,-1.0061495,11.117302,3.3693879,3.7415676,-4.357868,4.3696423
0.87,-1.3019829,11.374822,3.4776235,3.741428,-4.3596077,4.3705416
0.872,-1.5965028,11.628788,3.576644,3.7439992,-4.353325,4.372386
0.874,-1.8875991,11.878627,3.664929,3.7490149,-4.339528,4.375234
0.876,-2.1727793,12.123784,3.7410734,3.7562053,-4.3188815,4.378993
0.878,-2.4497352,12.363611,3.8040273,3.7653189,-4.29213,4.3834443
0.88,-2.71615,12.597524,3.8528745,3.7761567,-4.2600503,4.38824
0.882,-2.9699996,12.825107,3.8870215,3.7885704,-4.2233615,4.3929815
0.884,-3.2097344,13.046177,3.9060698,3.8024478,-4.1826873,4.3972874
0.886,-3.4340172,13.26067,3.9099636,3.8176928,-4.138586,4.400813
0.888,-3.641755,13.468827,3.8990796,3.8341856,-4.091569,4.4032474
0.89,-3.8319423,13.670884,3.8736658,3.851794,-4.0420904,4.4043393
0.892,-4.0040145,13.867149,3.8342223,3.8703449,-3.9905415,4.403863
0.894,-4.1577463,14.058137,3.781218,3.8896585,-3.9372106,4.401638
0.896,-4.293647,14.244455,3.7153625,3.9095206,-3.8823085,4.3975306
0.898,-4.4128666,14.426871,3.6376371,3.9297783,-3.8259299,4.3914347
0.9,-4.517372,14.606402,3.5491796,3.9503236,-3.768003,4.3832912
0.902,-4.609272,14.784114,3.4513426,3.971098,-3.7082515,4.373051
0.904,-4.6912303,14.961006,3.3455238,3.9921565,-3.646176,4.360752
0.906,-4.7661,15.137957,3.2332256,4.013621,-3.5810733,4.346509
0.908,-4.8370113,15.31573,3.1159997,4.035643,-3.5120797,4.33051
0.91,-4.907839,15.495438,2.99508,4.0583954,-3.4382336,4.3129954
0.912,-4.9821324,15.67781,2.8714416,4.0820274,-3.3585665,4.294219
0.914,-5.0634346,15.863723,2.7458806,4.106645,-3.2721972,4.2744036
0.916,-5.1552873,16.053919,2.618612,4.132267,-3.1784556,4.2537184
0.918,-5.260801,16.248749,2.4895341,4.15882,-3.0769851,4.232214
0.92,-5.3826184,16.448595,2.3582313,4.1861005,-2.967827,4.2098255
0.922,-5.5232534,16.653511,2.224066,4.2138405,-2.8514469,4.186322
0.924,-5.6844616,16.863659,2.0865474,4.241704,-2.7286954,4.161384
0.926,-5.8677845,17.078764,1.9450365,4.269315,-2.6007786,4.134631
0.928,-6.0739946,17.298456,1.79885,4.2963266,-2.4692178,4.1056356
0.93,-6.303258,17.522268,1.647208,4.3224387,-2.335733,4.0740066
0.932,-6.5551014,17.749512,1.489283,4.347405,-2.202166,4.039337
0.934,-6.8286166,17.97965,1.3243095,4.3711195,-2.0703444,4.0012646
0.936,-7.122114,18.211784,1.1515801,4.393594,-1.9419901,3.9594536
0.938,-7.4337735,18.44513,0.9706409,4.414976,-1.8186744,3.9135537
0.94,-7.7604375,18.678818,0.78100586,4.4355335,-1.7018031,3.8632092
0.942,-8.098871,18.912018,0.58219385,4.455566,-1.592589,3.8080714
0.944,-8.445668,19.144102,0.37419176,4.4754357,-1.4921044,3.7477734
0.946,-8.797417,19.374714,0.15765142,4.4954867,-1.401271,3.681962
0.948,-9.150643,19.603394,-0.06613159,4.516024,-1.3208733,3.6103354
0.95,-9.501861,19.829945,-0.2956469,4.5373087,-1.2515355,3.532648
0.952,-9.848127,20.05435,-0.5288856,4.559508,-1.1937681,3.4487636
0.954,-10.1867695,20.27676,-0.7635751,4.582709,-1.1479613,3.3586602
0.956,-10.515366,20.497448,-0.99744034,4.606941,-1.1143775,3.2624366
0.958,-10.831932,20.716894,-1.2279809,4.632127,-1.0932193,3.160252
0.96,-11.134699,20.935658,-1.4526572,4.6581182,-1.0846612,3.0523322
0.962,-11.422526,21.154608,-1.6684127,4.6846867,-1.0889122,2.9389362
0.964,-11.694994,21.374865,-1.872304,4.711529,-1.1062392,2.8203137
0.966,-11.95198,21.597498,-2.061382,4.738256,-1.1370021,2.696657
0.968,-12.193863,21.823593,-2.232632,4.7644167,-1.1816502,2.5680873
0.97,-12.421857,22.054312,-2.3831913,4.789514,-1.240699,2.4346385
0.972,-12.637375,22.290905,-2.5102746,4.8130026,-1.3147049,2.2962499
0.974,-12.842229,22.53436,-2.6111927,4.8343325,-1.4041704,2.1527507
0.976,-13.038473,22.785564,-2.683339,4.852934,-1.5095438,2.0038815
0.978,-13.228435,23.045397,-2.724296,4.868265,-1.6311375,1.8492553
0.98,-13.414362,23.314299,-2.7319875,4.8798156,-1.7690758,1.6884165
0.982,-13.598541,23.592752,-2.7047129,4.8871393,-1.9232687,1.5208724
0.984,-13.782887,23.880991,-2.6411161,4.8898387,-2.0934424,1.3461211
0.986,-13.969517,24.179043,-2.5401,4.887614,-2.27909,1.163726
0.988,-14.159963,24.486486,-2.4011412,4.880215,-2.4795103,0.9733017
0.99,-14.354984,24.802578,-2.2237492,4.867441,-2.6938202,0.77456814
0.992,-14.555301,25.12627,-2.0077806,4.8491697,-2.9209104,0.56736827
0.994,-14.760735,25.456099,-1.7533112,4.825324,-3.1594782,0.35162592
0.996,-14.971024,25.790295,-1.4607496,4.795909,-3.408076,0.127316
0.998,-15.184687,26.126657,-1.1310825,4.7609534,-3.6651,-0.105523944
1,-15.400134,26.463032,-0.7653923,4.7205396,-3.9288177,-0.34684718
1.002,-15.614911,26.796787,-0.3649721,4.6748037,-4.197421,-0.59659743
1.004,-15.82647,27.125523,0.068945885,4.6239085,-4.469064,-0.85466194
1.006,-16.031498,27.446451,0.5347557,4.568044,-4.7418647,-1.1208688
1.008,-16.226553,27.756868,1.0306063,4.5074124,-5.01395,-1.3949777
1.01,-16.407833,28.053986,1.5544147,4.442226,-5.2834663,-1.676623
1.012,-16.572107,28.3349,2.1040602,4.3727264,-5.54856,-1.9652979
1.014,-16.71644,28.597206,2.677414,4.299171,-5.8073874,-2.2603436
1.016,-16.837784,28.838406,3.2722197,4.2218237,-6.05809,-2.5609846
1.018,-16.933434,29.056137,3.8858013,4.1409736,-6.2987885,-2.8663363
1.02,-17.000603,29.248077,4.5153217,4.0569224,-6.5276413,-3.1754346
1.022,-17.037056,29.41223,5.157933,3.9699824,-6.7428675,-3.4872684
1.024,-17.041489,29.546913,5.810958,3.8805058,-6.9427423,-3.8008287
1.026,-17.013063,29.65078,6.4717913,3.7888863,-7.1256237,-4.115094
1.028,-16.951876,29.722795,7.1377926,3.6955438,-7.2900295,-4.4290304
1.03,-16.858475,29.762135,7.8060055,3.6009514,-7.4346676,-4.741639
1.032,-16.733978,29.768152,8.473482,3.5056112,-7.5584893,-5.0519733
1.034,-16.579884,29.740414,9.136816,3.4100838,-7.6606636,-5.3591766
1.036,-16.398024,29.678719,9.79273,3.3149574,-7.7405863,-5.6625004
1.038,-16.190601,29.583185,10.437661,3.2208147,-7.79792,-5.9613237
1.04,-15.959913,29.453846,11.068372,3.1282065,-7.8326244,-6.2551575
1.042,-15.708643,29.29122,11.68169,3.037613,-7.8449507,-6.543668
1.044,-15.439203,29.095633,12.274406,2.949442,-7.8354535,-6.8266683
1.046,-15.154105,28.86765,12.842969,2.863993,-7.8050337,-7.1040864
1.048,-14.855705,28.607962,13.383915,2.7814794,-7.75486,-7.37595
1.05,-14.546422,28.317205,13.894,2.7020202,-7.6863575,-7.642357
1.052,-14.22828,27.996267,14.370214,2.6256804,-7.6011715,-7.90345
1.054,-13.9031725,27.645967,14.809863,2.552462,-7.5011063,-8.159375
1.056,-13.572679,27.267181,15.210252,2.4823604,-7.3879943,-8.410284
1.058,-13.237831,26.860863,15.568949,2.4153605,-7.2636466,-8.656314
1.06,-12.899441,26.428154,15.884053,2.3514655,-7.1297936,-8.897564
1.062,-12.5577135,25.970242,16.153955,2.290697,-6.9880595,-9.134049
1.064,-12.212841,25.488617,16.377256,2.2331023,-6.839918,-9.365732
1.066,-11.86474,24.984997,16.553225,2.1787283,-6.6866965,-9.592529
1.068,-11.512972,24.461174,16.681324,2.1276586,-6.5295835,-9.814269
1.07,-11.157004,23.919235,16.76161,2.0800114,-6.3696494,-10.03075
1.072,-10.795758,23.361105,16.794447,2.0359159,-6.2078643,-10.241743
1.074,-10.428202,22.789026,16.780895,1.9955316,-6.0450573,-10.447029
1.076,-10.053132,22.205273,16.722351,1.9590471,-5.8819427,-10.646388
1.078,-9.669491,21.612759,16.620787,1.9266094,-5.719231,-10.839627
1.08,-9.275726,21.014069,16.478905,1.8983685,-5.5576286,-11.026605
1.082,-8.870262,20.411894,16.299852,1.8744266,-5.3978424,-11.20725
1.084,-8.451594,19.809254,16.087107,1.8548074,-5.2406273,-11.381565
1.086,-8.017982,19.209108,15.844155,1.839459,-5.086851,-11.549606
1.088,-7.568083,18.614506,15.57514,1.8282223,-4.937503,-11.71148
1.09,-7.1005864,18.028408,15.284399,1.8208436,-4.793739,-11.867409
1.092,-6.614105,17.45355,14.976471,1.8169637,-4.656873,-12.0176525
1.094,-6.107646,16.892519,14.656039,1.8161311,-4.5283337,-12.162569
1.096,-5.5802765,16.347761,14.328012,1.8178072,-4.4096413,-12.302579
1.098,-5.0312624,15.821938,13.997146,1.8213575,-4.3023324,-12.438161
1.1,-4.460505,15.317184,13.667546,1.8260803,-4.2078657,-12.569801
1.102,-3.86717,14.835598,13.342962,1.8312098,-4.12759,-12.697968
1.104,-3.2511952,14.37888,13.026793,1.8359411,-4.0626917,-12.82313
1.106,-2.6123674,13.948293,12.72259,1.8394483,-4.0141034,-12.9457245
1.108,-1.9514941,13.54501,12.433669,1.8409313,-3.9825206,-13.066194
1.11,-1.2693303,13.169692,12.162907,1.839611,-3.9683971,-13.184961
1.112,-0.5669373,12.822938,11.912543,1.8347695,-3.97196,-13.302413
1.114,0.15470165,12.504872,11.684257,1.8257937,-3.9932318,-13.418936
1.116,0.89407265,12.215577,11.479515,1.8121645,-4.032086,-13.534952
1.118,1.6495394,11.955015,11.299578,1.7934593,-4.0883665,-13.650917
1.12,2.4196215,11.722647,11.145758,1.7693758,-4.161819,-13.767295
1.122,3.2026782,11.517981,11.019181,1.7396823,-4.252202,-13.884563
1.124,3.997151,11.340167,10.920651,1.7042264,-4.359307,-14.003166
1.126,4.801142,11.188512,10.850975,1.6629128,-4.4829187,-14.123451
1.128,5.612983,11.06193,10.8112545,1.6156766,-4.622803,-14.245634
1.13,6.430939,10.959513,10.802606,1.5624797,-4.77862,-14.369778
1.132,7.253152,10.880222,10.825994,1.5033108,-4.949921,-14.495817
1.134,8.07819,10.823191,10.882015,1.4381765,-5.1361046,-14.623518
1.136,8.905058,10.78747,10.971274,1.367104,-5.336401,-14.752453
1.138,9.733023,10.772073,11.094617,1.29015,-5.5498533,-14.882039
1.14,10.561205,10.776034,11.252993,1.2073928,-5.7753267,-15.011551
1.142,11.388717,10.798608,11.44719,1.1188886,-6.011574,-15.140157
1.144,12.214647,10.838965,11.6779785,1.0247011,-6.257229,-15.266955
1.146,13.038427,10.896218,11.945482,0.9249022,-6.5108757,-15.391026
1.148,13.859175,10.969709,12.249487,0.8195522,-6.771125,-15.511445
1.15,14.676317,11.058665,12.58922,0.7086556,-7.0366745,-15.627333
1.152,15.489698,11.16218,12.963431,0.59219885,-7.306308,-15.737891
1.154,16.298729,11.279475,13.370671,0.47016,-7.5789566,-15.842442
1.156,17.103065,11.409833,13.8091345,0.34250474,-7.853653,-15.940425
1.158,17.90244,11.55243,14.276468,0.2092259,-8.129577,-16.031384
1.16,18.696312,11.706457,14.769918,0.0703578,-8.405973,-16.114975
1.162,19.484642,11.870808,15.28634,-0.07397556,-8.682125,-16.19089
1.164,20.267242,12.044362,15.822096,-0.22352123,-8.957242,-16.258919
1.166,21.04425,12.225922,16.373558,-0.37786722,-9.230428,-16.318865
1.168,21.815435,12.414211,16.93699,-0.5364709,-9.500694,-16.37054
1.17,22.580952,12.607823,17.508621,-0.6986098,-9.766895,-16.413647
1.172,23.340874,12.805237,18.084864,-0.86343384,-10.027766,-16.44783
1.174,24.09559,13.004762,18.662474,-1.0299802,-10.282059,-16.472733
1.176,24.845768,13.204514,19.238066,-1.1971989,-10.528576,-16.487967
1.178,25.592382,13.402599,19.808428,-1.3640246,-10.766264,-16.49317
1.18,26.337275,13.59709,20.371937,-1.5294151,-10.994269,-16.488039
1.182,27.081757,13.785352,20.926815,-1.6923995,-11.2120285,-16.47234
1.184,27.827509,13.96504,21.471506,-1.8521342,-11.419283,-16.445972
1.186,28.576885,14.133598,22.005495,-2.0079112,-11.615987,-16.408829
1.188,29.331911,14.288174,22.528618,-2.1591687,-11.80224,-16.360874
1.19,30.094646,14.426441,23.040794,-2.3054423,-11.978308,-16.30212
1.192,30.867538,14.545843,23.542389,-2.4464006,-12.144512,-16.23261
1.194,31.653505,14.643242,24.03469,-2.581743,-12.301176,-16.152393
1.196,32.45622,14.715075,24.519745,-2.7111814,-12.448561,-16.06153
1.198,33.279213,14.759102,24.997414,-2.8344054,-12.586849,-15.960091
1.2,34.123676,14.774226,25.469326,-2.951047,-12.716164,-15.84817
1.202,34.99208,14.757369,25.9385,-3.0606596,-12.836557,-15.7259
1.204,35.888012,14.704699,26.406933,-3.162742,-12.948078,-15.593472
1.206,36.813465,14.6136,26.87693,-3.2567415,-13.0508,-15.451094
1.208,37.768955,14.482355,27.35071,-3.342039,-13.144819,-15.29903
1.21,38.756176,14.309317,27.830132,-3.4180326,-13.230391,-15.137585
1.212,39.776234,14.092687,28.316856,-3.4841475,-13.307794,-14.967082
1.214,40.829693,13.831665,28.812626,-3.539773,-13.377275,-14.787776
1.216,41.916702,13.525993,29.318699,-3.584412,-13.439324,-14.599893
1.218,43.037376,13.175159,29.835966,-3.6175926,-13.494516,-14.403525
1.22,44.19124,12.779351,30.365074,-3.6388612,-13.543472,-14.198688
1.222,45.37706,12.339539,30.906199,-3.6477795,-13.586838,-13.985306
1.224,46.593338,11.857011,31.45884,-3.643853,-13.625216,-13.763232
1.226,47.838017,11.333833,32.022,-3.6265168,-13.659011,-13.532139
1.228,49.1085,10.772634,32.593895,-3.5952916,-13.688622,-13.291256
1.23,50.40207,10.176605,33.171947,-3.5498767,-13.714582,-13.039873
1.232,51.715973,9.549632,33.752846,-3.4898164,-13.737148,-12.777683
1.234,53.047005,8.896417,34.3334,-3.4147174,-13.756407,-12.504191
1.236,54.39166,8.222521,34.910408,-3.3244457,-13.772755,-12.218686
1.238,55.74625,7.5342183,35.480682,-3.218975,-13.786636,-11.92056
1.24,57.107555,6.8380485,36.04077,-3.0983772,-13.798605,-11.609445
1.242,58.472984,6.141285,36.587505,-2.9628868,-13.809634,-11.285055
1.244,59.839973,5.451639,37.11838,-2.8128839,-13.820937,-10.947142
1.246,61.206345,4.777362,37.631878,-2.648769,-13.833967,-10.595657
1.248,62.570763,4.127204,38.12687,-2.4709563,-13.850285,-10.230697
1.25,63.932323,3.5107336,38.60211,-2.27983,-13.8714905,-9.852383
1.252,65.29086,2.9377422,39.05725,-2.0756845,-13.899079,-9.460874
1.254,66.64658,2.4189615,39.493282,-1.8586476,-13.934343,-9.056336
1.256,67.99974,1.9661179,39.91238,-1.6286626,-13.978284,-8.638878
1.258,69.352425,1.5896492,40.31742,-1.3854749,-14.031543,-8.208461
1.26,70.70729,1.3006725,40.71174,-1.1287043,-14.094488,-7.7648864
1.262,72.06642,1.1111517,41.099953,-0.85794926,-14.167348,-7.307731
1.264,73.433105,1.033638,41.48803,-0.5727463,-14.250243,-6.8363233
1.266,74.81084,1.0815248,41.882854,-0.27270174,-14.343447,-6.34982
1.268,76.20269,1.26964,42.29274,0.042420864,-14.447357,-5.847329
1.27,77.6109,1.613512,42.7269,0.37271738,-14.562364,-5.3278265
1.272,79.03877,2.1287308,43.19799,0.71800756,-14.689075,-4.7902803
1.274,80.48045,2.839243,43.712017,1.0778565,-14.828349,-4.233728
1.276,81.940186,3.7564564,44.276535,1.4515727,-14.981109,-3.6573586
1.278,83.41844,4.8898277,44.908054,1.8381293,-15.148256,-3.0606217
1.28,84.91703,6.259426,45.61976,2.2362566,-15.3306265,-2.4433517
1.282,86.43755,7.893772,46.41198,2.6446652,-15.528644,-1.8058976
1.284,87.97744,9.826974,47.28505,3.0621247,-15.742138,-1.148571
1.286,89.53479,12.08371,48.241817,3.4873528,-15.970397,-0.47161704
1.288,91.10259,14.672022,49.283043,3.9193828,-16.211796,0.22429174
1.29,92.6607,17.604956,50.407063,4.3577,-16.463388,0.9385694
1.292,94.20988,20.887981,51.63411,4.802078,-16.721275,1.6713353
1.294,95.748985,24.522888,52.988106,5.2525597,-16.980352,2.4233716
1.296,97.2478,28.525581,54.4809,5.7095857,-17.234215,3.1959972
1.298,98.697,32.89656,56.13608,6.173915,-17.475462,3.9911113
1.3,100.07775,37.636528,57.977276,6.6464205,-17.696081,4.8111
1.302,101.42126,42.730724,60.024055,7.1280413,-17.88768,5.6587553
1.304,102.687195,48.194294,62.276062,7.620386,-18.040483,6.537018
1.306,103.95418,53.970276,64.78551,8.1249275,-18.144299,7.4491625
1.308,105.32418,60.028614,67.54158,8.641875,-18.189919,8.3991165
1.31,106.72064,66.36463,70.567406,9.1723385,-18.165634,9.391962
1.312,108.11545,72.949265,73.89427,9.718639,-18.05682,10.433546
1.314,109.531685,79.76923,77.49333,10.282019,-17.848679,11.528718
1.316,110.987335,86.76301,81.402954,10.862722,-17.526333,12.682608
1.318,112.49466,93.82253,85.71173,11.46004,-17.072561,13.901279
1.32,114.06388,100.81222,90.4651,12.072179,-16.46736,15.19072
1.322,115.72768,107.6474,95.69917,12.695375,-15.688512,16.558987
1.324,117.52549,114.241104,101.31988,13.322848,-14.710433,18.01626
1.326,119.49039,120.46468,107.135864,13.946287,-13.502108,19.57106
1.328,121.71651,126.37981,113.28951,14.557947,-12.026552,21.231148
1.33,124.05699,132.13368,119.83617,15.1422825,-10.264329,22.991865
1.332,126.86181,137.09682,126.835365,15.67585,-8.200966,24.84985
1.334,130.00252,141.27576,134.07158,16.136887,-5.8193717,26.800266
1.336,133.46729,144.7798,141.4488,16.509724,-3.108801,28.82932
1.338,137.27957,147.44328,148.9368,16.78233,-0.07001591,30.91966
1.34,141.49278,149.1681,156.40987,16.947216,3.287733,33.040688
1.342,146.12695,149.90787,163.78027,17.003607,6.9444036,35.14742
1.344,151.19952,149.67162,170.89224,16.961796,10.860925,37.189384
1.346,156.69629,148.49664,177.5811,16.843142,14.985871,39.10004
1.348,162.57306,146.4335,183.68988,16.683876,19.250647,40.806614
1.35,168.77916,143.53986,189.0492,16.540972,23.570955,42.233772
1.352,175.24997,139.89127,193.48407,16.476547,27.867456,43.29049
1.354,181.90114,135.57877,196.8244,16.556194,32.054768,43.90491
1.356,188.62732,130.71324,198.90851,16.851845,36.036213,44.047424
1.358,195.32832,125.40153,199.58928,17.449326,39.74297,43.637604
1.36,201.88528,119.76931,198.74278,18.43763,43.179752,42.589855
1.362,208.17975,113.93869,196.29816,19.821571,46.30069,40.898823
1.364,214.0769,108.02767,192.24463,21.55047,49.05261,38.595818
1.366,219.45157,102.14133,186.60107,23.582327,51.42237,35.74449
1.368,224.18849,96.378105,179.43604,25.838572,53.371372,32.437904
1.37,228.1767,90.84582,170.86528,28.197742,54.828007,28.788626
1.372,231.31937,85.62727,161.03064,30.529484,55.721024,24.91861
1.374,233.55385,80.76646,150.11464,32.699764,55.969475,20.936539
1.376,234.83083,76.299034,138.32675,34.574677,55.480225,16.919231
1.378,235.11792,72.24636,125.9053,36.026814,54.166386,12.910282
1.38,234.41222,68.61357,113.10616,36.941017,51.96311,8.930159
1.382,232.7243,65.40104,100.19868,37.217316,48.83794,4.982603
1.384,230.08994,62.59411,87.46497,36.780647,44.811913,1.0741863
1.386,226.552,60.18383,75.17845,35.583668,39.942707,-2.7867012
1.388,222.17245,58.15342,63.58931,33.60607,34.321922,-6.5720215
1.39,217.02063,56.471977,52.92518,30.861103,28.081074,-10.229759
1.392,211.17314,55.106464,43.38923,27.401451,21.382303,-13.6986685
1.394,204.71982,54.025055,35.138123,23.322258,14.407263,-16.91009
1.396,197.7528,53.2102,28.28064,18.757444,7.3530545,-19.804039
1.398,190.36862,52.66128,22.880806,13.86637,0.4212551,-22.34859
1.4,182.67245,52.371216,18.956917,8.825292,-6.203412,-24.536335
1.402,174.74701,52.339214,16.463898,3.814128,-12.350698,-26.39281
1.404,166.6795,52.561684,15.319469,-1.0045493,-17.873983,-27.964525
1.406,158.57556,53.02095,15.419807,-5.4852037,-22.671368,-29.293097
1.408,150.50938,53.714134,16.623959,-9.512686,-26.665499,-30.42783
1.41,142.55804,54.6316,18.77443,-13.013805,-29.801872,-31.409805
1.412,134.75026,55.770218,21.70282,-15.960533,-32.07704,-32.189526
1.414,127.18228,57.09247,25.24617,-18.349953,-33.540344,-32.707367
1.416,119.836845,58.618244,29.191402,-20.146484,-34.181355,-32.953278
1.418,112.71092,60.31763,33.393883,-21.34544,-34.016815,-32.90186
1.42,105.96913,62.13211,37.674824,-22.006865,-33.118717,-32.525864
1.422,99.68299,64.02875,41.86518,-22.180151,-31.54277,-31.813808
1.424,93.86184,65.956436,45.865463,-21.904922,-29.3494,-30.779762
1.426,88.521355,67.903336,49.52304,-21.239399,-26.638615,-29.466059
1.428,83.67895,69.877075,52.68144,-20.249277,-23.52449,-27.931238
1.43,79.34401,71.8785,55.269768,-19.002462,-20.126469,-26.244312
1.432,75.49976,73.840866,57.251404,-17.570723,-16.577662,-24.484169
1.434,72.125,75.70228,58.709625,-16.031275,-13.020646,-22.734617
1.436,69.20285,77.43907,59.766045,-14.462325,-9.5954075,-21.073471
1.438,66.66476,78.87489,60.226913,-12.93797,-6.4290824,-19.565672
1.44,64.64454,79.8467,60.06332,-11.525555,-3.6289926,-18.260405
1.442,62.809803,80.87877,59.284115,-10.281641,-1.2771759,-17.189833
1.444,61.331627,81.761795,58.142445,-9.246983,0.57376003,-16.365969
1.446,60.19439,82.29222,56.713966,-8.44324,1.902071,-15.782201
1.448,59.33252,82.581924,55.011284,-7.87845,2.7095146,-15.418906
1.45,58.65426,82.65574,53.140297,-7.5501204,3.0156388,-15.247175
1.452,58.103813,82.502525,51.15571,-7.446024,2.858396,-15.2309265
1.454,57.62419,82.09122,49.16546,-7.5493946,2.2889643,-15.328761
1.456,57.182667,81.40711,47.259686,-7.8427134,1.361434,-15.49818
1.458,56.759453,80.461845,45.501884,-8.304079,0.13196063,-15.700193
1.46,56.32418,79.29025,43.956463,-8.909555,-1.3396201,-15.902149
1.462,55.847107,77.931404,42.68249,-9.635945,-2.9956765,-16.07888
1.464,55.306732,76.42687,41.72619,-10.459243,-4.7813916,-16.2128
1.466,54.689323,74.81296,41.121723,-11.354114,-6.644216,-16.292564
1.468,53.969475,73.138275,40.8918,-12.29413,-8.534607,-16.310513
1.47,53.1384,71.43516,41.044487,-13.251391,-10.404713,-16.260275
1.472,52.186584,69.74002,41.554924,-14.197031,-12.208332,-16.135283
1.474,51.12197,68.086525,42.374634,-15.102563,-13.901958,-15.928396
1.476,49.946804,66.50813,43.468105,-15.940651,-15.44543,-15.632278
1.478,48.66274,65.030014,44.79235,-16.685669,-16.802574,-15.240433
1.48,47.280308,63.65442,46.301888,-17.314795,-17.942596,-14.748249
1.482,45.811325,62.395496,47.9643,-17.809376,-18.841545,-14.153739
1.484,44.254128,61.28297,49.7402,-18.156023,-19.483194,-13.457832
1.486,42.61892,60.328773,51.592278,-18.346945,-19.859018,-12.664427
1.488,40.922516,59.537495,53.477386,-18.379671,-19.967463,-11.780684
1.49,39.17582,58.91181,55.351727,-18.256922,-19.81341,-10.81712
1.492,37.39776,58.445305,57.16736,-17.986065,-19.40746,-9.78678
1.494,35.60885,58.129196,58.875824,-17.578337,-18.76487,-8.7041025
1.496,33.827835,57.954494,60.432495,-17.048126,-17.904547,-7.5840816
1.498,32.07406,57.91303,61.79837,-16.412313,-16.847803,-6.441395
1.5,30.368998,57.994843,62.944435,-15.689554,-15.617629,-5.289872
1.502,28.733942,58.18664,63.850098,-14.899773,-14.238496,-4.1421466
1.504,27.184118,58.47535,64.50301,-14.063629,-12.736173,-3.0094123
1.506,25.732319,58.848385,64.89603,-13.201794,-11.137447,-1.9013433
1.508,24.389074,59.290844,65.026794,-12.334412,-9.469963,-0.8263297
1.51,23.160513,59.787693,64.89812,-11.480713,-7.7620997,0.20818186
1.512,22.04778,60.324543,64.51882,-10.658428,-6.042465,1.1954222
1.514,21.049046,60.88903,63.90339,-9.883334,-4.339227,2.1291633
1.516,20.160868,61.46936,63.06987,-9.168689,-2.6791804,3.0037682
1.518,19.378893,62.054577,62.03601,-8.52482,-1.0869032,3.814243
1.52,18.695673,62.636314,60.82021,-7.9588795,0.41613036,4.5564284
1.522,18.103058,63.208282,59.442406,-7.474802,1.81234,5.2271814
1.524,17.591099,63.766003,57.923164,-7.073402,3.0884016,5.8244324
1.526,17.148468,64.30657,56.282215,-6.7527485,4.235336,6.3472776
1.528,16.763609,64.82791,54.53872,-6.5086136,5.2482963,6.7960157
1.53,16.424044,65.32827,52.7116,-6.335104,6.126127,7.172172
1.532,16.11709,65.80546,50.818863,-6.225245,6.8708053,7.4782
1.534,15.830765,66.257805,48.877365,-6.1714816,7.4869404,7.7171063
1.536,15.55478,66.683174,46.903084,-6.1661634,7.9811378,7.8923807
1.538,15.279503,67.08036,44.91015,-6.2019267,8.361358,8.007928
1.54,14.997262,67.44805,42.911125,-6.2718716,8.636517,8.067907
1.542,14.7021055,67.78468,40.91573,-6.369668,8.816189,8.076545
1.544,14.389417,68.08876,38.931896,-6.489607,8.910349,8.038078
1.546,14.0567875,68.358185,36.966404,-6.6266203,8.929117,7.956751
1.548,13.703242,68.5909,35.024162,-6.7761884,8.882529,7.836616
1.55,13.32979,68.784164,33.107746,-6.934211,8.780465,7.681572
1.552,12.938043,68.93514,31.218086,-7.096873,8.632658,7.4953957
1.554,12.531459,69.040245,29.354576,-7.26056,8.448535,7.281734
1.556,12.115059,69.094635,27.5153,-7.4217725,8.23712,7.044122
1.558,11.692628,69.094986,25.69818,-7.577034,8.006881,6.7860255
1.56,11.269098,69.038925,23.901304,-7.722916,7.765606,6.510763
1.562,10.850626,68.92242,22.122898,-7.856058,7.520271,6.2215095
1.564,10.442929,68.74133,20.360905,-7.9732447,7.2769184,5.921274
1.566,10.050777,68.49187,18.613482,-8.071519,7.040477,5.6128335
1.568,9.678225,68.170135,16.878977,-8.148291,6.814652,5.2986484
1.57,9.32867,67.77239,15.155327,-8.201485,6.601857,4.9808335
1.572,9.005579,67.29551,13.439638,-8.229633,6.403217,4.6611195
1.574,8.712037,66.73714,11.72944,-8.231971,6.2185645,4.340846
1.576,8.450811,66.096436,10.023274,-8.20849,6.0465536,4.0209875
1.578,8.223802,65.37309,8.320269,-8.159943,5.8848042,3.7022402
1.58,8.032028,64.56782,6.6206574,-8.087774,5.730145,3.3850713
1.582,7.875965,63.68201,4.9255624,-7.994111,5.5788193,3.0697904
1.584,7.754793,62.71735,3.237163,-7.881625,5.42671,2.7566216
1.586,7.666643,61.676594,1.5586357,-7.7534347,5.2695966,2.4457579
1.588,7.6089344,60.56276,-0.10603809,-7.6129465,5.103368,2.1374412
1.59,7.5783043,59.379623,-1.7520881,-7.4637136,4.924232,1.832011
1.592,7.5708094,58.131184,-3.373692,-7.3092775,4.7288465,1.5298975
1.594,7.582143,56.82242,-4.96498,-7.153077,4.5144587,1.2316513
1.596,7.607807,55.458652,-6.5191803,-6.998293,4.2789903,0.93796575
1.598,7.6431293,54.04582,-8.029533,-6.8476887,4.0211267,0.6497216
1.6,7.6834655,52.590084,-9.489052,-6.7035646,3.74027,0.3679602
1.602,7.724238,51.097744,-10.890889,-6.567682,3.4365273,0.09391785
1.604,7.7611446,49.575855,-12.228569,-6.441219,3.110736,-0.17097497
1.606,7.7900934,48.03134,-13.495943,-6.3247313,2.7643983,-0.42512488
1.608,7.807659,46.471363,-14.687109,-6.2181664,2.399613,-0.6667867
1.61,7.810831,44.902996,-15.79704,-6.12092,2.0189981,-0.89412737
1.612,7.797118,43.33319,-16.82131,-6.031835,1.6256449,-1.1052772
1.614,7.764759,41.76885,-17.75647,-5.949303,1.2230432,-1.2983152
1.616,7.71227,40.216732,-18.599842,-5.8713183,0.81495404,-1.4713904
1.618,7.638871,38.68329,-19.349663,-5.7956142,0.4053108,-1.6227804
1.62,7.5444765,37.174328,-20.005014,-5.719728,-0.0018419623,-1.7509879
1.622,7.4293776,35.69542,-20.56572,-5.6411657,-0.4024666,-1.854793
1.624,7.2937965,34.251724,-21.033348,-5.5574822,-0.7926449,-1.9333845
1.626,7.1386423,32.848045,-21.410053,-5.4664173,-1.1686121,-1.9863886
1.628,6.9649754,31.488426,-21.69854,-5.365968,-1.5268371,-2.0139573
1.63,6.7744503,30.17632,-21.90258,-5.254474,-1.864118,-2.016758
1.632,6.5686197,28.91465,-22.026403,-5.1306887,-2.1776333,-1.9959438
1.634,6.3493576,27.705828,-22.074776,-4.9937673,-2.4649603,-1.95307
1.636,6.118887,26.551573,-22.05281,-4.8432403,-2.724087,-1.8899833
1.638,5.8795996,25.452896,-21.966007,-4.679004,-2.9534411,-1.8087138
1.64,5.6340227,24.410053,-21.82018,-4.501266,-3.1519144,-1.7113461
1.642,5.38428,23.4232,-21.621344,-4.3104906,-3.3188481,-1.5999461
1.644,5.132699,22.491608,-21.375216,-4.107331,-3.4540534,-1.4764509
1.646,4.881055,21.614458,-21.087769,-3.892621,-3.5578089,-1.3426259
1.648,4.631406,20.790321,-20.764795,-3.667303,-3.6308503,-1.2000484
1.65,4.385499,20.017643,-20.411488,-3.4324281,-3.6743455,-1.0500985
1.652,4.144992,19.294577,-20.032314,-3.1891227,-3.6898236,-0.8940135
1.654,3.911582,18.619045,-19.631844,-2.9385731,-3.6791596,-0.7329066
1.656,3.686717,17.988873,-19.214306,-2.6819763,-3.644506,-0.56779397
1.658,3.4716816,17.401777,-18.78338,-2.4205463,-3.5882425,-0.39964354
1.66,3.2673016,16.855469,-18.342299,-2.1554942,-3.5129375,-0.22938013
1.662,3.0750303,16.347414,-17.893734,-1.8880086,-3.421246,-0.057910442
1.664,2.8957024,15.87525,-17.44008,-1.619191,-3.3158221,0.11389923
1.666,2.7301626,15.436871,-16.983387,-1.3500774,-3.1992812,0.28521365
1.668,2.5788078,15.030267,-16.52526,-1.0816038,-3.0741463,0.455235
1.67,2.442277,14.653567,-16.067112,-0.8146151,-2.9427996,0.62321377
1.672,2.320735,14.305061,-15.610031,-0.5498285,-2.8074658,0.78848445
1.674,2.2144127,13.98303,-15.154693,-0.28787464,-2.6701314,0.95047075
1.676,2.1234608,13.6859455,-14.701693,-0.029270768,-2.532584,1.1087029
1.678,2.0476232,13.412628,-14.251266,0.22557491,-2.396377,1.2628018
1.68,1.9867134,13.161871,-13.8036785,0.47633904,-2.2628665,1.4124619
1.682,1.9403615,12.932617,-13.358961,0.72276515,-2.133205,1.5574682
1.684,1.9081578,12.723956,-12.917128,0.96467245,-2.008312,1.6976647
1.686,1.8896432,12.535064,-12.478174,1.2019097,-1.8889152,1.8329394
1.688,1.8841796,12.365326,-12.042065,1.4343367,-1.7755954,1.9632095
1.69,1.8912282,12.214223,-11.608671,1.6618159,-1.6688243,2.088432
1.692,1.9101248,12.081305,-11.177924,1.8841938,-1.5689512,2.2085629
1.694,1.9401255,11.96651,-10.749724,2.1012776,-1.4762449,2.3235595
1.696,1.9809012,11.869532,-10.323962,2.3128312,-1.3909421,2.433382
1.698,2.0317059,11.7903385,-9.9003105,2.5185773,-1.3132395,2.5379853
1.7,2.0920882,11.728752,-9.478693,2.7182295,-1.2433078,2.6373127
1.702,2.1615353,11.6848345,-9.059072,2.9114847,-1.1813021,2.7313118
1.704,2.239503,11.658461,-8.641302,3.0980744,-1.1273518,2.8199525
1.706,2.325498,11.649553,-8.225372,3.2777705,-1.0815501,2.903246
1.708,2.4191256,11.658034,-7.8111553,3.4504204,-1.0439526,2.981255
1.71,2.5200114,11.68367,-7.39864,3.6159568,-1.0145632,3.054094
1.712,2.6279082,11.72649,-6.987852,3.774397,-0.9933456,3.1219492
1.714,2.7424233,11.786251,-6.578813,3.9258611,-0.9802271,3.185041
1.716,2.8635445,11.862908,-6.1714697,4.070516,-0.97513455,3.243616
1.718,2.9910555,11.9562025,-5.765869,4.2085443,-0.9780279,3.2979271
1.72,3.124734,12.065941,-5.361872,4.3401437,-0.98889846,3.3481982
1.722,3.2645745,12.191884,-4.9592066,4.465486,-1.0077707,3.3946123
1.724,3.4104993,12.333644,-4.5577517,4.584732,-1.0347269,3.437292
1.726,3.562497,12.490856,-4.1571455,4.6979914,-1.0698918,3.4762917
1.728,3.7206795,12.663275,-3.7572844,4.805348,-1.1134638,3.511598
1.73,3.884938,12.850496,-3.3578675,4.9068537,-1.1656421,3.5431395
1.732,4.055582,13.051951,-2.9586225,5.0025454,-1.2266059,3.5707889
1.734,4.232605,13.267098,-2.5591824,5.0924816,-1.2965091,3.594388
1.736,4.415872,13.495147,-2.1590772,5.176733,-1.3754643,3.613771
1.738,4.605443,13.735504,-1.757957,5.2554035,-1.4635358,3.6287885
1.74,4.801228,13.987627,-1.3551588,5.328638,-1.5606978,3.6393077
1.742,5.0030355,14.250787,-0.95019007,5.396625,-1.6668118,3.6452298
1.744,5.210827,14.52425,-0.5423038,5.459572,-1.7816383,3.6464791
1.746,5.4243565,14.807372,-0.13084078,5.5177298,-1.9048686,3.6430306
1.748,5.6434746,15.099372,0.2847469,5.5713654,-2.036094,3.6348853
1.75,5.8680468,15.399666,0.70507646,5.620783,-2.1748204,3.6220815
1.752,6.0976987,15.7075,1.1307578,5.666291,-2.3204784,3.6046972
1.754,6.3322053,16.022226,1.5622358,5.7081976,-2.4724298,3.5828588
1.756,6.5713844,16.342962,2.0000942,5.7468357,-2.629989,3.5567207
1.758,6.8149686,16.669044,2.4448876,5.782537,-2.7924569,3.5264225
1.76,7.0627203,16.999622,2.896919,5.8155966,-2.9591444,3.4921389
1.762,7.3141613,17.333971,3.3563082,5.8462777,-3.129405,3.4540176
1.764,7.569047,17.671288,3.8232841,5.8748007,-3.302612,3.4121919
1.766,7.827096,18.010715,4.2979875,5.901331,-3.4781942,3.3667665
1.768,8.08783,18.351366,4.7803473,5.925962,-3.6556568,3.3178284
1.77,8.351069,18.692284,5.2703333,5.9487424,-3.8345435,3.2654324
1.772,8.6163225,19.032694,5.76779,5.9696693,-4.014446,3.2095838
1.774,8.8831625,19.371613,6.2725806,5.9887004,-4.1949687,3.150269
1.776,9.151181,19.707968,6.784261,6.005764,-4.3757334,3.0874486
1.778,9.419992,20.040993,7.3023796,6.0208044,-4.5563507,3.0211046
1.78,9.688961,20.36973,7.826397,6.033791,-4.7364283,2.9512312
1.782,9.957846,20.693325,8.355636,6.0447435,-4.915562,2.877902
1.784,10.226229,21.010895,8.889391,6.0537453,-5.09334,2.801254
1.786,10.493676,21.321571,9.426955,6.060937,-5.2693505,2.7215216
1.788,10.759811,21.624626,9.967377,6.066559,-5.4431434,2.6390245
1.79,11.0242605,21.919327,10.509928,6.0708885,-5.6142573,2.5541432
1.792,11.28689,22.204906,11.0536,6.074258,-5.782195,2.4673269
1.794,11.547348,22.48069,11.597428,6.0770264,-5.946419,2.3790524
1.796,11.805159,22.746109,12.140448,6.0795426,-6.106371,2.2898164
1.798,12.060211,23.000458,12.681599,6.0821104,-6.261451,2.200074
1.8,12.312179,23.243248,13.219908,6.0849714,-6.411065,2.1102319
1.802,12.560825,23.47389,13.754353,6.0882587,-6.554631,2.0206187
1.804,12.805951,23.69182,14.2841625,6.0919957,-6.691639,1.9314611
1.806,13.047039,23.896687,14.808307,6.0960627,-6.821664,1.8429022
1.808,13.283958,24.088017,15.326002,6.1001983,-6.944395,1.7549827
1.81,13.5162,24.265482,15.836557,6.10402,-7.059632,1.6676819
1.812,13.743452,24.42868,16.339249,6.1070585,-7.1672764,1.5809042
1.814,13.965432,24.57729,16.833559,6.1087856,-7.2673316,1.4945095
1.816,14.181669,24.711096,17.31904,6.108646,-7.359861,1.4083853
1.818,14.391678,24.830017,17.795303,6.106103,-7.4449925,1.3223877
1.82,14.595026,24.933907,18.261915,6.1007195,-7.522846,1.2363906
1.822,14.791041,25.022701,18.718662,6.0921497,-7.5935054,1.1503038
1.824,14.979396,25.096264,19.165173,6.0801897,-7.6570067,1.0640984
1.826,15.1594305,25.15461,19.60117,6.064785,-7.7133036,0.9778209
1.828,15.330646,25.197943,20.026337,6.046079,-7.762271,0.8915715
1.83,15.492497,25.226418,20.440346,6.024337,-7.8036838,0.80549145
1.832,15.64436,25.240059,20.842718,5.9999638,-7.8372326,0.7197852
1.834,15.785608,25.239246,21.233032,5.973474,-7.86253,0.634655
1.836,15.91582,25.224083,21.61076,5.945429,-7.879157,0.55032396
1.838,16.034355,25.19471,21.975508,5.916423,-7.886673,0.46699667
1.84,16.140903,25.151373,22.326717,5.8870344,-7.884637,0.38484764
1.842,16.2347,25.094345,22.663696,5.857788,-7.8726645,0.30400848
1.844,16.315516,25.023983,22.98573,5.8291564,-7.850436,0.22456789
1.846,16.382977,24.940742,23.292114,5.8015084,-7.8177576,0.1465435
1.848,16.43694,24.84484,23.582054,5.7751102,-7.774543,0.0699482
1.85,16.47713,24.73645,23.854496,5.7501345,-7.7208405,-0.0052495003
1.852,16.503685,24.61593,24.108616,5.7266407,-7.656828,-0.079055786
1.854,16.516468,24.483463,24.343466,5.704591,-7.5828285,-0.15149021
1.856,16.515846,24.33931,24.558178,5.68388,-7.4992785,-0.22252893
1.858,16.50195,24.183926,24.75201,5.66429,-7.4066916,-0.29213238
1.86,16.475183,24.017605,24.92405,5.645584,-7.305653,-0.36020565
1.862,16.436344,23.840858,25.073492,5.627472,-7.196818,-0.42663336
1.864,16.386036,23.654123,25.199802,5.60963,-7.0808544,-0.491261
1.866,16.325132,23.458103,25.302248,5.591723,-6.958442,-0.55393505
1.868,16.254723,23.25345,25.380304,5.5734577,-6.8302345,-0.61447954
1.87,16.17605,23.04097,25.433567,5.5545683,-6.696864,-0.6727326
1.872,16.090431,22.821434,25.461538,5.53483,-6.558916,-0.72853136
1.874,15.999282,22.595882,25.464016,5.5140657,-6.416979,-0.781724
1.876,15.904169,22.365225,25.440918,5.4921913,-6.2715855,-0.8321941
1.878,15.806807,22.13055,25.392202,5.469182,-6.1232705,-0.87984324
1.88,15.708834,21.892906,25.31823,5.445073,-5.9725666,-0.9246106
1.882,15.611874,21.653343,25.218992,5.4199133,-5.8200216,-0.9664469
1.884,15.517691,21.412983,25.094868,5.393781,-5.66622,-1.0053475
1.886,15.427847,21.172993,24.946404,5.366734,-5.5117826,-1.0413358
1.888,15.343944,20.934322,24.774048,5.338773,-5.3574014,-1.074497
1.89,15.267563,20.697975,24.578465,5.309823,-5.203817,-1.1049623
1.892,15.1999235,20.46497,24.360464,5.2797008,-5.051834,-1.1329288
1.894,15.1423,20.236248,24.120857,5.2481318,-4.902307,-1.1586599
1.896,15.095526,20.012749,23.860683,5.214732,-4.7561083,-1.1824994
1.898,15.060644,19.794935,23.581003,5.1790314,-4.614118,-1.2048483
1.9,15.038027,19.583755,23.282993,5.1405272,-4.4771605,-1.2261589
1.902,15.027966,19.379814,22.96809,5.098723,-4.3460226,-1.246916
1.904,15.030788,19.183615,22.637753,5.0531588,-4.2213955,-1.2676032
1.906,15.046415,18.995525,22.293446,5.003475,-4.1038523,-1.2886653
1.908,15.074457,18.815947,21.936932,4.9494424,-3.9938283,-1.3104863
1.91,15.11462,18.645111,21.569908,4.890971,-3.8916266,-1.3334044
1.912,15.16616,18.483232,21.194204,4.8281426,-3.7974262,-1.3576744
1.914,15.228287,18.330393,20.811497,4.761176,-3.7112682,-1.3834832
1.916,15.300079,18.186611,20.423805,4.6903944,-3.6330993,-1.410974
1.918,15.380416,18.05195,20.032883,4.6162095,-3.562817,-1.440233
1.92,15.46816,17.926281,19.64055,4.539054,-3.5002604,-1.4713013
1.922,15.562162,17.809517,19.24861,4.4593277,-3.445282,-1.5042347
1.924,15.660968,17.701607,18.858742,4.377389,-3.397749,-1.5390444
1.926,15.763493,17.602356,18.472574,4.2935095,-3.3575602,-1.5757161
1.928,15.868504,17.511417,18.09168,4.2078686,-3.3246217,-1.6142068
1.93,15.974794,17.428545,17.717491,4.1205244,-3.2989032,-1.6544502
1.932,16.08128,17.353458,17.351315,4.031454,-3.280377,-1.6963408
1.934,16.18681,17.285904,16.994404,3.940578,-3.2690282,-1.7397466
1.936,16.290627,17.225462,16.64769,3.8477924,-3.264845,-1.7845203
1.938,16.391947,17.171463,16.312212,3.7529688,-3.267802,-1.8304988
1.94,16.490044,17.123577,15.988684,3.6560187,-3.2778502,-1.8775263
1.942,16.584347,17.081326,15.677699,3.5569015,-3.294912,-1.9254658
1.944,16.674599,17.04393,15.379829,3.4556434,-3.318888,-1.9742165
1.946,16.760212,17.01098,15.095251,3.3523698,-3.349636,-2.0236926
1.948,16.841066,16.981647,14.824099,3.2472813,-3.386969,-2.0738568
1.95,16.916925,16.95532,14.5664425,3.1406627,-3.4306476,-2.1246858
1.952,16.98773,16.931133,14.322302,3.0328608,-3.4803731,-2.1761746
1.954,17.053463,16.908316,14.091527,2.9242613,-3.5358064,-2.2283309
1.956,17.114244,16.885971,13.8737955,2.815292,-3.596509,-2.2811685
1.958,17.17002,16.86337,13.668813,2.7064085,-3.6619852,-2.3346698
1.96,17.220877,16.839773,13.476191,2.5980556,-3.7316778,-2.3888106
1.962,17.26667,16.814491,13.295498,2.4906647,-3.804976,-2.443522
1.964,17.307625,16.786936,13.126297,2.384667,-3.8812356,-2.4987004
1.966,17.343796,16.75645,12.967942,2.2804608,-3.9597578,-2.5542097
1.968,17.375294,16.722378,12.819734,2.1784225,-4.039831,-2.60988
1.97,17.402252,16.684214,12.680971,2.0789182,-4.1207256,-2.665507
1.972,17.424665,16.641586,12.550935,1.982266,-4.201706,-2.7208679
1.974,17.442461,16.594244,12.42882,1.8887808,-4.2820673,-2.7757266
1.976,17.455894,16.541855,12.313738,1.7987378,-4.361136,-2.8298469
1.978,17.464993,16.484222,12.204952,1.7123623,-4.4382715,-2.8829758
1.98,17.469624,16.42129,12.10157,1.6298399,-4.5129204,-2.9348779
1.982,17.470129,16.353,12.002884,1.5513098,-4.584604,-2.985333
1.984,17.466343,16.279371,11.907963,1.4768777,-4.6529293,-3.034122
1.986,17.458542,16.200504,11.815903,1.4065865,-4.7175984,-3.0810657
1.988,17.446714,16.116478,11.726053,1.3404381,-4.778406,-3.1260066
1.99,17.431112,16.027592,11.637445,1.2783899,-4.8352385,-3.1688173
1.992,17.411907,15.93395,11.549623,1.2203732,-4.8880563,-3.2094011
1.994,17.38917,15.835893,11.46184,1.166293,-4.9368944,-3.2476974
1.996,17.3631,15.733668,11.373365,1.1160358,-4.981792,-3.2836351
1.998,17.334148,15.627523,11.283846,1.0694873,-5.0228286,-3.317181
2,17.30228,15.517773,11.192715,1.0265298,-5.060087,-3.3483033
2.002,17.267818,15.404752,11.099572,0.9870475,-5.093652,-3.3769767
2.004,17.230888,15.288574,11.004057,0.9509639,-5.1235795,-3.4031734
2.006,17.191982,15.169582,10.905882,0.9182102,-5.149895,-3.426866
2.008,17.151117,15.048169,10.804789,0.8887272,-5.1726127,-3.4480052
2.01,17.108599,14.924395,10.70062,0.8624579,-5.1917357,-3.4665449
2.012,17.064539,14.798703,10.593191,0.8393328,-5.207273,-3.4824457
2.014,17.018883,14.67132,10.482534,0.81925863,-5.2192655,-3.4957108
2.016,16.971916,14.542547,10.368623,0.80213135,-5.2278023,-3.5063686
2.018,16.923605,14.412651,10.251564,0.7877789,-5.2330294,-3.5144935
2.02,16.873936,14.2819605,10.131475,0.77601814,-5.2351575,-3.520204
2.022,16.822912,14.150789,10.008562,0.76661813,-5.2344623,-3.523663
2.024,16.770409,14.019388,9.883112,0.75933045,-5.2312536,-3.5250387
2.026,16.71635,13.888008,9.755335,0.75389934,-5.2258735,-3.5245306
2.028,16.660606,13.756872,9.625617,0.7500824,-5.2186637,-3.5222988
2.03,16.603004,13.626417,9.494387,0.7476686,-5.2099314,-3.5184946
2.032,16.543232,13.496898,9.361948,0.7464825,-5.1999187,-3.5132127
2.034,16.481136,13.368589,9.228812,0.7464134,-5.1887956,-3.506494
2.036,16.41633,13.241689,9.095301,0.7473872,-5.176634,-3.4983196
2.038,16.348427,13.116593,8.961722,0.7494005,-5.1634197,-3.4886408
2.04,16.277155,12.993431,8.828587,0.7525089,-5.1490445,-3.4773772
2.042,16.202238,12.872426,8.696175,0.75683045,-5.133314,-3.4644117
2.044,16.123232,12.753603,8.564756,0.7625344,-5.115975,-3.4496355
2.046,16.039782,12.637163,8.434645,0.7698097,-5.0967364,-3.4329786
2.048,15.951611,12.523196,8.306018,0.77887833,-5.0752754,-3.414378
2.05,15.858479,12.411561,8.179029,0.7899755,-5.0512834,-3.3938024
2.052,15.760233,12.302275,8.053789,0.8033296,-5.0244427,-3.3712618
2.054,15.656635,12.1952305,7.93032,0.81913483,-4.9944577,-3.3467994
2.056,15.547685,12.090213,7.808696,0.83757615,-4.961068,-3.320477
2.058,15.433258,11.987103,7.688851,0.8587763,-4.9240403,-3.292386
2.06,15.313533,11.885609,7.570699,0.8828194,-4.883221,-3.2626352
2.062,15.188811,11.785459,7.4541845,0.9097376,-4.8384776,-3.231336
2.064,15.059159,11.686384,7.3390784,0.9395061,-4.789734,-3.1986136
2.066,14.925102,11.588232,7.22538,0.9720584,-4.736985,-3.1645746
2.068,14.787104,11.490623,7.1129274,1.0072863,-4.6802545,-3.1293108
2.07,14.645817,11.393309,7.0015683,1.0450284,-4.619627,-3.0928924
2.072,14.5019455,11.296109,6.8912287,1.0850979,-4.555238,-3.0553534
2.074,14.356331,11.198838,6.7816076,1.1272969,-4.4872894,-3.0167103
2.076,14.209701,11.101534,6.672625,1.1714158,-4.4159994,-2.9769554
2.078,14.063029,11.004195,6.564286,1.2172532,-4.341644,-2.93605
2.08,13.917174,10.907011,6.4565353,1.2646382,-4.2645006,-2.8939435
2.082,13.773252,10.809992,6.3492136,1.3134296,-4.1848626,-2.8505728
2.084,13.632347,10.713402,6.242303,1.36355,-4.103019,-2.8058712
2.086,13.495304,10.617499,6.135854,1.4149793,-4.0192523,-2.7597673
2.088,13.363178,10.5226345,6.0297775,1.4677451,-3.9338305,-2.712193
2.09,13.237077,10.429235,5.923936,1.5219405,-3.846986,-2.6631079
2.092,13.117856,10.337632,5.8182616,1.5776851,-3.7589407,-2.61247
2.094,13.006485,10.248211,5.7126184,1.6351197,-3.6699135,-2.5602806
2.096,12.903716,10.161341,5.6068974,1.6943628,-3.580098,-2.5065799
2.098,12.81035,10.077429,5.500819,1.7555258,-3.4896991,-2.4514577
2.1,12.726958,9.996721,5.394283,1.8186741,-3.3989272,-2.3950348
2.102,12.65407,9.919659,5.286972,1.8838174,-3.3080182,-2.337471
2.104,12.592211,9.846375,5.1786947,1.9508895,-3.217209,-2.2789738
2.106,12.541646,9.777161,5.069232,2.0197628,-3.1268044,-2.219766
2.108,12.502375,9.71221,4.958235,2.0902467,-3.0371337,-2.1601028
2.11,12.474448,9.651649,4.84558,2.1620703,-2.948575,-2.1002543
2.112,12.457792,9.595505,4.7309895,2.2349184,-2.8615642,-2.0404878
2.114,12.4521675,9.543868,4.614277,2.3084228,-2.7765708,-1.9810737
2.116,12.456973,9.496672,4.4952826,2.3821716,-2.694111,-1.9222543
2.118,12.47181,9.453758,4.37407,2.4557004,-2.6147604,-1.8642752
2.12,12.496143,9.415122,4.2506247,2.5285275,-2.5391045,-1.8073666
2.122,12.529146,9.380547,4.125085,2.6001353,-2.4677653,-1.7517474
2.124,12.5700865,9.349941,3.997632,2.6699915,-2.4013638,-1.6976342
2.126,12.617945,9.323149,3.8685615,2.7375855,-2.3405123,-1.6452522
2.128,12.671836,9.299962,3.7382166,2.8024015,-2.2858043,-1.5948092
2.13,12.730707,9.28017,3.6070907,2.8639717,-2.2377765,-1.5465331
2.132,12.793512,9.263668,3.4755788,2.9218817,-2.1968985,-1.500635
2.134,12.85928,9.250279,3.3442507,2.975772,-2.1635478,-1.4572794
2.136,12.926977,9.239845,3.213788,3.0253603,-2.137996,-1.4166136
2.138,12.995617,9.232232,3.0847046,3.0704324,-2.1203887,-1.3787149
2.14,13.064247,9.227184,2.957427,3.1108522,-2.110751,-1.3436096
2.142,13.132002,9.224712,2.832617,3.1465528,-2.1089935,-1.311249
2.144,13.19799,9.224614,2.7106082,3.1775353,-2.1149297,-1.2815082
2.146,13.261724,9.226792,2.5918708,3.203854,-2.128283,-1.2542398
2.148,13.3222885,9.231129,2.4769247,3.2256224,-2.148703,-1.229234
2.15,13.379237,9.23755,2.365896,3.242973,-2.175829,-1.2062877
2.152,13.43197,9.245844,2.2590728,3.2560775,-2.2092535,-1.1852016
2.154,13.480075,9.256082,2.15661,3.265124,-2.2485862,-1.1658046
2.156,13.523288,9.267887,2.0585458,3.270306,-2.2934437,-1.1479895
2.158,13.56128,9.281227,1.9649192,3.2718415,-2.343454,-1.1316507
2.16,13.593975,9.295945,1.8756571,3.2699442,-2.3982277,-1.1167445
2.162,13.6212435,9.311899,1.7906404,3.2648394,-2.4573958,-1.1032323
2.164,13.643081,9.328909,1.7097626,3.2567587,-2.5205886,-1.0910814
2.166,13.659627,9.346846,1.632736,3.2459404,-2.5874183,-1.0802531
2.168,13.670926,9.365543,1.5594628,3.232621,-2.6574643,-1.0706811
2.17,13.6772375,9.384755,1.4896811,3.2170613,-2.7302814,-1.0622885
2.172,13.678762,9.404366,1.4232037,3.1995325,-2.805381,-1.054947
2.174,13.675808,9.424126,1.3598025,3.1802926,-2.8822603,-1.0485194
2.176,13.668521,9.443753,1.2992028,3.1596134,-2.9604056,-1.0428357
2.178,13.657318,9.463119,1.2412479,3.1377532,-3.0392914,-1.0377135
2.18,13.64259,9.4820385,1.1858274,3.114946,-3.1184087,-1.0329638
2.182,13.624932,9.500067,1.1327279,3.0914187,-3.1972694,-1.0284181
2.184,13.604608,9.517093,1.0820519,3.0673556,-3.2754407,-1.0239077
2.186,13.582156,9.532729,1.0338279,3.0429003,-3.3525703,-1.0193
2.188,13.558003,9.546814,0.98801744,3.0181556,-3.4283903,-1.0145233
2.19,13.532658,9.559082,0.9447273,2.9931679,-3.5027192,-1.0095313
2.192,13.506442,9.569422,0.9040561,2.967945,-3.5754662,-1.0043217
2.194,13.47987,9.577566,0.8661032,2.9424403,-3.646592,-0.99892294
2.196,13.453327,9.583536,0.8309808,2.916579,-3.716103,-0.99339
2.198,13.427249,9.587148,0.79878354,2.890263,-3.784018,-0.98776835
2.2,13.401962,9.588272,0.7697072,2.8633773,-3.8503456,-0.9820843
2.202,13.377824,9.586922,0.74384975,2.8358164,-3.91505,-0.97630906
2.204,13.355157,9.583194,0.72141397,2.8075106,-3.9780416,-0.9703708
2.206,13.334171,9.576969,0.70248663,2.7784095,-4.0391674,-0.9641565
2.208,13.31503,9.568378,0.6871556,2.7485464,-4.098181,-0.95751625
2.21,13.2979555,9.5575485,0.6753305,2.718007,-4.1547766,-0.9502606
2.212,13.283072,9.544709,0.6668345,2.686944,-4.2086196,-0.9422156
2.214,13.270199,9.530088,0.66169214,2.655558,-4.2593327,-0.93320054
2.216,13.259537,9.513801,0.659631,2.62411,-4.3065143,-0.92306936
2.218,13.250996,9.496247,0.6603079,2.592907,-4.3498006,-0.9117356
2.22,13.244659,9.477647,0.66327286,2.5622773,-4.3888626,-0.8991733
2.222,13.240385,9.458219,0.66812587,2.5325549,-4.4234395,-0.8853969
2.224,13.238103,9.438438,0.67443514,2.5040593,-4.4533386,-0.87047046
2.226,13.237727,9.418685,0.6816758,2.4771016,-4.478449,-0.8544747
2.228,13.238885,9.399362,0.6892749,2.4519396,-4.4987264,-0.8374804
2.23,13.241617,9.380787,0.69676375,2.428793,-4.5142226,-0.81956506
2.232,13.245711,9.363256,0.7035829,2.407832,-4.525067,-0.8007767
2.234,13.250985,9.347084,0.70924544,2.3891785,-4.5314507,-0.7811563
2.236,13.25722,9.332415,0.7133397,2.3728786,-4.5336013,-0.7607035
2.238,13.26413,9.319549,0.71537197,2.3589435,-4.531783,-0.7394084
2.24,13.271531,9.308697,0.71485174,2.3473468,-4.526231,-0.71725416
2.242,13.279261,9.299965,0.7116283,2.3380275,-4.5171657,-0.69420457
2.244,13.286941,9.293657,0.70542884,2.3308985,-4.50482,-0.67024684
2.246,13.294396,9.289763,0.69602513,2.3251083,-4.491887,-0.6468779
2.248,13.301304,9.288357,0.6833322,2.3215313,-4.475204,-0.6220509
2.25,13.307512,9.28941,0.6675621,2.3195524,-4.4565763,-0.5967815
2.252,13.312681,9.292911,0.64854443,2.3189573,-4.4363756,-0.5712094
2.254,13.316652,9.298903,0.62654245,2.3195531,-4.414947,-0.5454737
2.256,13.318991,9.307289,0.601658,2.3211308,-4.392576,-0.519678
2.258,13.319721,9.317936,0.57391465,2.3235154,-4.3694134,-0.49384654
2.26,13.318451,9.330761,0.54358464,2.3265572,-4.3454666,-0.46787414
2.262,13.315094,9.345626,0.51082253,2.3301363,-4.3205485,-0.4415441
2.264,13.30943,9.362291,0.47590905,2.3342028,-4.2943,-0.41450006
2.266,13.301282,9.380688,0.43892896,2.3387387,-4.266223,-0.38629633
2.268,13.2904625,9.40046,0.40017986,2.3437629,-4.2357955,-0.3564512
2.27,13.276923,9.421486,0.35973448,2.3493028,-4.202568,-0.32453153
2.272,13.260311,9.443491,0.31785393,2.355371,-4.166273,-0.29021388
2.274,13.240702,9.466327,0.27463818,2.361928,-4.1269226,-0.2533731
2.276,13.217896,9.489718,0.23014927,2.3688865,-4.0848327,-0.21409926
2.278,13.191985,9.513559,0.18444705,2.3761125,-4.0405617,-0.17267153
2.28,13.162704,9.537722,0.13766456,2.383439,-3.994856,-0.12952724
2.282,13.13016,9.56197,0.08979499,2.390708,-3.9485261,-0.08516985
2.284,13.0943775,9.586234,0.040926754,2.3977575,-3.9023418,-0.0400784
2.286,13.0553875,9.610403,-0.008894086,2.4044738,-3.8569064,0.005359769
2.288,13.01318,9.63446,-0.059590757,2.4107916,-3.8126495,0.050908625
2.29,12.9677725,9.658331,-0.11120814,2.4167194,-3.769789,0.09646982
2.292,12.919154,9.682096,-0.16351259,2.4223197,-3.728377,0.1420868
2.294,12.867448,9.705574,-0.21654242,2.4276698,-3.6883574,0.1878767
2.296,12.812776,9.728878,-0.270189,2.4328883,-3.649609,0.23400488
2.298,12.755243,9.751961,-0.324261,2.4381113,-3.6119442,0.2806499
2.3,12.694904,9.774907,-0.37851512,2.443895,-3.5737653,0.3288107
2.302,12.631994,9.797783,-0.4326312,2.449321,-3.5384803,0.37642848
2.304,12.56662,9.820635,-0.48630023,2.455174,-3.50367,0.42496112
2.306,12.498905,9.843515,-0.5392638,2.4615307,-3.4693644,0.47432882
2.308,12.428963,9.86653,-0.59090334,2.4684486,-3.435559,0.52445143
2.31,12.357138,9.889752,-0.64087933,2.4759874,-3.402252,0.5752429
2.312,12.283414,9.913292,-0.6887191,2.4842095,-3.3694248,0.6266469
2.314,12.208055,9.937154,-0.73411417,2.4931684,-3.3370264,0.6786176
2.316,12.131285,9.961578,-0.7766139,2.5029104,-3.304999,0.7311326
2.318,12.053341,9.986593,-0.8157565,2.5134766,-3.2732542,0.7841859
2.32,11.974299,10.012386,-0.8512287,2.5249188,-3.241683,0.8378093
2.322,11.894481,10.038851,-0.8825276,2.537267,-3.210159,0.8920597
2.324,11.814269,10.066254,-0.90957814,2.550546,-3.178538,0.94702065
2.326,11.73368,10.094772,-0.9319848,2.5647743,-3.1466627,1.0027757
2.328,11.652946,10.124459,-0.94962275,2.5799909,-3.114355,1.0594347
2.33,11.572229,10.155483,-0.9623196,2.5962148,-3.0814395,1.1171018
2.332,11.491619,10.188119,-0.9700496,2.6134715,-3.047781,1.1758631
2.334,11.4114275,10.22233,-0.97285974,2.6317763,-3.0132234,1.2357911
2.336,11.3318615,10.258259,-0.9709078,2.6511543,-2.977636,1.2969395
2.338,11.253191,10.295923,-0.96432954,2.6716213,-2.9409215,1.3593299
2.34,11.175257,10.335378,-0.9534792,2.6931858,-2.903035,1.4229618
2.342,11.09845,10.376808,-0.93830836,2.7158496,-2.8639603,1.487795
2.344,11.022698,10.420096,-0.91922414,2.7396045,-2.8237348,1.5537698
2.346,10.94831,10.465334,-0.8964405,2.764414,-2.782433,1.6208056
2.348,10.875294,10.512392,-0.87022007,2.7902467,-2.7401648,1.688819
2.35,10.803718,10.561161,-0.8408131,2.8170428,-2.6970763,1.7576886
2.352,10.73353,10.611445,-0.8085108,2.8447394,-2.6533232,1.827287
2.354,10.66487,10.663114,-0.7736027,2.8732538,-2.609089,1.8974733
2.356,10.597563,10.716015,-0.73626256,2.9024909,-2.56453,1.96809
2.358,10.531659,10.769918,-0.6966863,2.93236,-2.5198073,2.0389733
2.36,10.466936,10.824661,-0.65510726,2.962756,-2.475069,2.1099691
2.362,10.40342,10.880006,-0.6114858,2.993593,-2.4304442,2.1809447
2.364,10.340904,10.935631,-0.5658909,3.0247843,-2.3860316,2.2517865
2.366,10.279233,10.991354,-0.5183258,3.0562444,-2.3419142,2.3223968
2.368,10.218191,11.046972,-0.4685825,3.0879095,-2.2981732,2.3927066
2.37,10.157514,11.102186,-0.41663262,3.119718,-2.2548554,2.462676
2.372,10.096835,11.156731,-0.36224997,3.1516051,-2.2120085,2.532282
2.374,10.036047,11.210524,-0.3051601,3.1835136,-2.169651,2.6015387
2.376,9.974725,11.263347,-0.24500239,3.2153835,-2.1277974,2.6704621
2.378,9.91263,11.31508,-0.18159652,3.2471635,-2.08645,2.7390738
2.38,9.849317,11.36557,-0.11465263,3.2787821,-2.045577,2.8074083
2.382,9.784522,11.414747,-0.04388511,3.3101785,-2.0051386,2.8754797
2.384,9.717894,11.462522,0.031016469,3.3413079,-1.965051,2.9433076
2.386,9.649136,11.508942,0.110479355,3.3721187,-1.9252034,3.0108926
2.388,9.577853,11.554065,0.19471717,3.4025733,-1.8854529,3.0782506
2.39,9.503844,11.597939,0.28394163,3.432632,-1.8456261,3.1454115
2.392,9.426832,11.640651,0.37839806,3.4622695,-1.8055105,3.2124324
2.394,9.346547,11.68233,0.47827196,3.4914522,-1.7648797,3.2793803
2.396,9.262739,11.723161,0.5836456,3.5201452,-1.7234861,3.3463538
2.398,9.175311,11.763249,0.69460034,3.5483012,-1.681078,3.4134898
2.4,9.083982,11.802725,0.811169,3.575888,-1.6373993,3.4809222
2.402,8.988684,11.841721,0.9331919,3.6028445,-1.592225,3.54879
2.404,8.88936,11.880454,1.0605747,3.6291244,-1.5453553,3.6172204
2.406,8.786031,11.918999,1.1932024,3.6546743,-1.4966298,3.6863134
2.408,8.678621,11.957392,1.3306868,3.6794598,-1.445885,3.7561195
2.41,8.567146,11.995605,1.4727364,3.7034435,-1.393012,3.8266544
2.412,8.45168,12.033653,1.618927,3.7266073,-1.3378925,3.8978996
2.414,8.332311,12.071597,1.7688122,3.7489312,-1.2804325,3.9698043
2.416,8.209161,12.109266,1.9220352,3.77041,-1.2205424,4.0422897
2.418,8.082253,12.146651,2.0778644,3.7910602,-1.1581048,4.115274
2.42,7.9518104,12.183566,2.2358615,3.8109264,-1.0929976,4.1887054
2.422,7.818084,12.219855,2.3954334,3.830028,-1.0250616,4.262534
2.424,7.681215,12.255239,2.5560434,3.84842,-0.95415115,4.3367443
2.426,7.541334,12.289599,2.7170637,3.866168,-0.8800906,4.4113445
2.428,7.3985825,12.322706,2.8778172,3.883306,-0.8027217,4.486352
2.43,7.2531676,12.35429,3.0378103,3.899881,-0.72188556,4.561828
2.432,7.105035,12.384273,3.1964517,3.9159055,-0.6374353,4.6378374
2.434,6.954501,12.412313,3.3531075,3.931367,-0.54925936,4.7144456
2.436,6.8017693,12.438284,3.507299,3.9462337,-0.45725632,4.791715
2.438,6.647032,12.462036,3.6585894,3.9604218,-0.3613565,4.869684
2.44,6.4903164,12.483466,3.8063815,3.9738276,-0.26150578,4.9483852
2.442,6.3318954,12.502437,3.950166,3.9863153,-0.15767509,5.0278115
2.444,6.1717477,12.5190325,4.0895386,3.9977334,-0.04982519,5.1079316
2.446,6.010084,12.533289,4.224128,4.007917,0.06206405,5.1886997
2.448,5.8469906,12.545396,4.35354,4.016684,0.17800838,5.270077
2.45,5.682516,12.555449,4.4773417,4.0238447,0.29801273,5.3520203
2.452,5.516482,12.563573,4.5950956,4.02921,0.4220711,5.434481
2.454,5.348974,12.570062,4.7065787,4.0325894,0.55016327,5.5174417
2.456,5.179959,12.575193,4.8115087,4.0337944,0.6822757,5.6008954
2.458,5.0096474,12.579201,4.909704,4.032639,0.81837374,5.6848464
2.46,4.8379827,12.582481,5.0009065,4.0289392,0.9584155,5.769323
2.462,4.6650753,12.585331,5.0848207,4.022524,1.1023545,5.8543677
2.464,4.490956,12.588115,5.161252,4.0132284,1.2501453,5.9400277
2.466,4.3157187,12.591507,5.229883,4.0008965,1.401767,6.026347
2.468,4.139118,12.59607,5.29045,3.9854147,1.557205,6.113382
2.47,3.9614897,12.602226,5.342782,3.9666762,1.716476,6.201164
2.472,3.7830393,12.61034,5.3864946,3.9446068,1.8795986,6.2897215
2.474,3.6039095,12.621028,5.421132,3.9191606,2.046611,6.3790793
2.476,3.4242187,12.63493,5.446433,3.8903408,2.217529,6.469224
2.478,3.2440405,12.652594,5.4619026,3.8581576,2.3923614,6.5600786
2.48,3.0636163,12.674834,5.4669633,3.8226643,2.5710983,6.6515284
2.482,2.883013,12.702261,5.461028,3.783942,2.7536633,6.743396
2.484,2.7022307,12.735384,5.443401,3.7420871,2.9399426,6.8354588
2.486,2.521697,12.774986,5.4133005,3.6971838,3.1297438,6.9274545
2.488,2.341369,12.821588,5.3703403,3.6493013,3.3227959,7.0190587
2.49,2.1609933,12.875946,5.314127,3.5984826,3.5187721,7.1099176
2.492,1.9810004,12.93844,5.2438993,3.5447237,3.7172694,7.1996417
2.494,1.8012309,13.009848,5.158787,3.4879942,3.91785,7.2878666
2.496,1.6216066,13.090934,5.058422,3.4281793,4.1200027,7.3742447
2.498,1.4424105,13.182246,4.941598,3.3651388,4.323237,7.458496
2.5,1.2634194,13.2843895,4.8078423,3.2987118,4.5270567,7.5404363
2.502,1.0845497,13.398319,4.656184,3.228698,4.7309074,7.6199865
2.504,0.9059222,13.524879,4.4860106,3.154883,4.934121,7.697171
2.506,0.7273452,13.664873,4.2963247,3.0770345,5.1359944,7.772115
2.508,0.54872656,13.81905,4.0863476,2.9949796,5.335767,7.8449955
2.51,0.37002182,13.988105,3.8551838,2.908605,5.5325766,7.9159427
2.512,0.19093466,14.172754,3.6020308,2.8177886,5.7254276,7.984952
2.514,0.0120687485,14.373005,3.3260527,2.722414,5.9131517,8.051823
2.516,-0.16670942,14.5889,3.026252,2.6224008,6.094407,8.116112
2.518,-0.34547997,14.820388,2.7020223,2.5176597,6.2676587,8.177045
2.52,-0.52413464,15.067151,2.35263,2.4080105,6.4312873,8.233427
2.522,-0.70237017,15.328598,1.977534,2.2932131,6.5835505,8.283671
2.524,-0.8800435,15.603987,1.576246,2.1730008,6.722523,8.325967
2.526,-1.057128,15.892435,1.1483223,2.0470643,6.8461537,8.358235
2.528,-1.2332468,16.19274,0.6934612,1.9150755,6.952342,8.378183
2.53,-1.4083219,16.50372,0.21155977,1.7767915,7.039083,8.383512
2.532,-1.5817022,16.823713,-0.2971716,1.6321493,7.1046157,8.372043
2.534,-1.7528768,17.150894,-0.83241916,1.4812613,7.1474123,8.341882
2.536,-1.9212751,17.483059,-1.3939128,1.3244101,7.166341,8.291471
2.538,-2.0859804,17.817974,-1.980839,1.1620568,7.1606417,8.219675
2.54,-2.246367,18.153337,-2.5923285,0.9948559,7.130025,8.125854
2.542,-2.4016767,18.486702,-3.2273443,0.8236506,7.074715,8.009904
2.544,-2.5510626,18.815619,-3.8844213,0.6493604,6.995266,7.872229
2.546,-2.6937957,19.137686,-4.5620756,0.47292578,6.892492,7.7136626
2.548,-2.8288965,19.45038,-5.2584763,0.29529235,6.767437,7.5353904
2.55,-2.9554224,19.751574,-5.9711933,0.11738521,6.6212683,7.338844
2.552,-3.072493,20.039011,-6.697691,-0.0600186,6.4550962,7.125586
2.554,-3.1792173,20.310717,-7.435051,-0.2363103,6.269884,6.8972154
2.556,-3.275064,20.56498,-8.1799755,-0.4110384,6.066461,6.655327
2.558,-3.3594036,20.800327,-8.928842,-0.58393407,5.84543,6.4015484
2.56,-3.4318938,21.015558,-9.677734,-0.754921,5.607087,6.1375537
2.562,-3.4920278,21.209768,-10.422515,-0.92411137,5.351452,5.865088
2.564,-3.539723,21.382126,-11.158768,-1.0916935,5.0784397,5.586143
2.566,-3.5754333,21.532236,-11.881877,-1.2578337,4.787957,5.3029275
2.568,-3.5996685,21.660107,-12.587147,-1.4226238,4.480073,5.017845
2.57,-3.6128778,21.765581,-13.269798,-1.5860412,4.1551723,4.7334013
2.572,-3.6159997,21.849102,-13.925192,-1.7478559,3.814118,4.4521174
2.574,-3.6101036,21.911007,-14.548906,-1.9075825,3.4582965,4.176387
2.576,-3.5964026,21.951824,-15.136677,-2.0645719,3.0897825,3.908183
2.578,-3.576015,21.972176,-15.684558,-2.218033,2.7113962,3.648895
2.58,-3.5503893,21.972683,-16.18955,-2.3670764,2.3265572,3.3993154
2.582,-3.5215902,21.954414,-16.648722,-2.5107737,1.9391522,3.1596282
2.584,-3.4909406,21.918344,-17.059841,-2.6482418,1.5533054,2.929377
2.586,-3.4598627,21.865398,-17.42136,-2.7787218,1.1732035,2.7075653
2.588,-3.4302945,21.796494,-17.732224,-2.901543,0.802967,2.4928372
2.59,-3.4032764,21.71244,-17.992056,-3.0161119,0.44646227,2.2837496
2.592,-3.3803406,21.6142,-18.201395,-3.1219888,0.10709518,2.0789027
2.594,-3.362833,21.502886,-18.361221,-3.218924,-0.21234822,1.877099
2.596,-3.3519268,21.379353,-18.473131,-3.306902,-0.5098084,1.6774396
2.598,-3.348483,21.244719,-18.539574,-3.3860672,-0.7838638,1.4793274
2.6,-3.3531065,21.099882,-18.563007,-3.4567454,-1.0337826,1.2824845
2.602,-3.3667722,20.946106,-18.546135,-3.5194914,-1.2595733,1.0869145
2.604,-3.3898897,20.784266,-18.491783,-3.5750184,-1.4618593,0.8928595
2.606,-3.4227967,20.615261,-18.403399,-3.6241202,-1.6417159,0.7007149
2.608,-3.4657826,20.44036,-18.283731,-3.6676369,-1.8005497,0.5109806
2.61,-3.5186443,20.260767,-18.136005,-3.7063768,-1.9400399,0.32423374
2.612,-3.5812616,20.077356,-17.963058,-3.741124,-2.061967,0.14106053
2.614,-3.653286,19.891134,-17.767864,-3.7725592,-2.1681125,-0.037997246
2.616,-3.734142,19.703259,-17.552841,-3.8012764,-2.2601547,-0.21246433
2.618,-3.8233745,19.514975,-17.320467,-3.8278003,-2.339638,-0.38198072
2.62,-3.92021,19.327562,-17.072838,-3.8525226,-2.4078329,-0.5463082
2.622,-4.0236588,19.14202,-16.8118,-3.875769,-2.4657679,-0.705234
2.624,-4.1336946,18.959875,-16.539024,-3.897801,-2.5142226,-0.85863286
2.626,-4.2491198,18.782211,-16.255888,-3.9188316,-2.5537462,-1.0064497
2.628,-4.3687897,18.609995,-15.963838,-3.9390123,-2.5846648,-1.1486527
2.63,-4.4917426,18.444084,-15.663971,-3.9584205,-2.6071355,-1.2852435
2.632,-4.6171074,18.285097,-15.357491,-3.977047,-2.6211836,-1.4162488
2.634,-4.7436934,18.13345,-15.045412,-3.99481,-2.6267495,-1.5417463
2.636,-4.8703756,17.98945,-14.728671,-4.01153,-2.6237526,-1.6618454
2.638,-4.996094,17.853224,-14.408063,-4.026948,-2.612112,-1.7766907
2.64,-5.119772,17.724714,-14.084454,-4.0407033,-2.5917656,-1.8864746
2.642,-5.240611,17.603804,-13.7588215,-4.05234,-2.5626988,-1.9914875
2.644,-5.3576536,17.49031,-13.431921,-4.061361,-2.5249505,-2.0920725
2.646,-5.469823,17.3839,-13.1043005,-4.0672045,-2.4785852,-2.1886199
2.648,-5.576459,17.28408,-12.776902,-4.0693,-2.4237218,-2.2815752
2.65,-5.6765356,17.190134,-12.450403,-4.0670834,-2.360516,-2.371389
2.652,-5.769082,17.101248,-12.125463,-4.0600686,-2.2892158,-2.4584758
2.654,-5.853507,17.016508,-11.802846,-4.0478473,-2.2101018,-2.5431862
2.656,-5.9289327,16.93499,-11.483134,-4.030101,-2.1234655,-2.625795
2.658,-5.994817,16.855762,-11.16697,-4.0066404,-2.0296476,-2.7065048
2.66,-6.0504665,16.777725,-10.855222,-3.9773993,-1.9290006,-2.7854054
2.662,-6.0953064,16.699793,-10.548475,-3.9424162,-1.8218751,-2.8625104
2.664,-6.128939,16.620981,-10.2474,-3.9018216,-1.7085953,-2.9377737
2.666,-6.150794,16.540329,-9.952693,-3.855795,-1.5894738,-3.0110617
2.668,-6.1604805,16.45713,-9.665038,-3.804563,-1.4647756,-3.08217
2.67,-6.157696,16.370665,-9.385035,-3.7483459,-1.3347445,-3.1508474
2.672,-6.1422324,16.280363,-9.113543,-3.687345,-1.1995709,-3.2168005
2.674,-6.1140766,16.185871,-8.8512535,-3.6217976,-1.0594691,-3.279737
2.676,-6.0728145,16.08669,-8.598969,-3.5518804,-0.91457474,-3.3394032
2.678,-6.018396,15.98262,-8.357497,-3.4777327,-0.76501,-3.3955426
2.68,-5.9569273,15.877256,-8.12819,-3.399461,-0.6108664,-3.4479353
2.682,-5.884391,15.768016,-7.91057,-3.3171358,-0.45224953,-3.4964128
2.684,-5.801225,15.655373,-7.7051463,-3.2308202,-0.2892931,-3.5408802
2.686,-5.7081275,15.539796,-7.5124736,-3.1405628,-0.12215543,-3.5813
2.688,-5.605818,15.42198,-7.3329387,-3.0463758,0.048997223,-3.6177197
2.69,-5.495348,15.302889,-7.166627,-2.948286,0.22393775,-3.6502562
2.692,-5.3771925,15.183099,-7.01375,-2.8463254,0.40240473,-3.6790595
2.694,-5.252587,15.063243,-6.8743773,-2.7405365,0.58407885,-3.7042909
2.696,-5.122637,14.944047,-6.748487,-2.6309774,0.7686098,-3.726083
2.698,-4.9878798,14.826256,-6.635965,-2.5177467,0.9556008,-3.7445917
2.7,-4.8499365,14.710666,-6.5365095,-2.4009545,1.1446178,-3.759942
2.702,-4.7095957,14.597939,-6.449518,-2.2807717,1.3352165,-3.7722385
2.704,-4.5678067,14.488511,-6.374533,-2.157412,1.5269284,-3.7815456
2.706,-4.4256697,14.382922,-6.3108215,-2.031102,1.7192843,-3.7878768
2.708,-4.2839847,14.281529,-6.25768,-1.9070379,1.9052706,-3.791714
2.71,-4.1435003,14.184604,-6.214545,-1.7832687,2.0876079,-3.7929296
2.712,-4.005023,14.092363,-6.180533,-1.6610442,2.2647324,-3.7916756
2.714,-3.869112,14.004948,-6.1548147,-1.5417027,2.435034,-3.7881832
2.716,-3.7361994,13.922417,-6.136607,-1.4265947,2.5969548,-3.7827296
2.718,-3.606811,13.844657,-6.1249914,-1.3169665,2.7491424,-3.7756667
2.72,-3.481298,13.771649,-6.119384,-1.2138485,2.8905623,-3.7673872
2.722,-3.359911,13.703272,-6.119015,-1.1180031,3.0205352,-3.7582793
2.724,-3.2428918,13.63946,-6.1231246,-1.0298804,3.1388216,-3.748712
2.726,-3.1303773,13.579955,-6.1311026,-0.9496108,3.245565,-3.7390156
2.728,-3.022366,13.52453,-6.1423383,-0.87704504,3.341246,-3.7294621
2.73,-2.9187827,13.472942,-6.1562896,-0.8118174,3.4265742,-3.7202635
