Time_s_,Acc_x_m_s_2_,Acc_y_m_s_2_,Acc_z_m_s_2_,Gyro_x_1_s_,Gyro_y_1_s_,Gyro_z_1_s_
0,-0.9024019,0.79619527,0.93592435,-0.09922254,-1.7741653,-0.6051943
0.002,-0.8909666,0.80495715,0.9232008,-0.09771368,-1.7768991,-0.6072675
0.004,-0.8799145,0.81477594,0.9086399,-0.09606621,-1.7796919,-0.60962355
0.006,-0.8693678,0.825578,0.8921348,-0.094257176,-1.7825347,-0.61226964
0.008,-0.8597038,0.8373912,0.8738234,-0.09224033,-1.785355,-0.6152216
0.01,-0.8508358,0.84992176,0.85388887,-0.08992028,-1.7880477,-0.6184946
0.012,-0.8429247,0.8630402,0.8324755,-0.087276995,-1.7907059,-0.6221626
0.014,-0.8365729,0.87652504,0.81010777,-0.08429742,-1.7934837,-0.6263077
0.016,-0.83175266,0.8908351,0.78688663,-0.08093977,-1.7964323,-0.6309585
0.018,-0.8290249,0.9060204,0.76270163,-0.07714814,-1.7995963,-0.6361101
0.02,-0.82863957,0.92174554,0.738044,-0.07287654,-1.8030851,-0.64175355
0.022,-0.83080417,0.9375982,0.71304804,-0.0680874,-1.8070416,-0.64787966
0.024,-0.835804,0.9534044,0.68805635,-0.06279832,-1.8116561,-0.6544937
0.026,-0.8437814,0.96886724,0.6632302,-0.0570817,-1.8171017,-0.6615946
0.028,-0.8550242,0.98383754,0.63892406,-0.05094856,-1.8236976,-0.66928977
0.03,-0.86978936,0.99804485,0.6155224,-0.044721723,-1.8313859,-0.67737615
0.032,-0.88821733,1.0111667,0.59343076,-0.03865683,-1.8403352,-0.6857733
0.034,-0.9102006,1.0228491,0.5732204,-0.0330382,-1.8506515,-0.6943674
0.036,-0.9357717,1.0328673,0.5549524,-0.028172314,-1.8623093,-0.70303416
0.038,-0.9653809,1.0413603,0.53876704,-0.024330854,-1.8751419,-0.7116622
0.04,-0.99855566,1.0481223,0.5251129,-0.021694034,-1.8888532,-0.7201263
0.042,-1.0349555,1.0531858,0.5137224,-0.0203529,-1.9030536,-0.72827935
0.044,-1.0741149,1.0566425,0.5043311,-0.020242393,-1.9173337,-0.7359736
0.046,-1.1158383,1.0584801,0.49664944,-0.021222234,-1.9312847,-0.743149
0.048,-1.1596076,1.05858,0.490655,-0.023091435,-1.9445851,-0.749912
0.05,-1.2047513,1.0568922,0.48628038,-0.025587976,-1.9571013,-0.7563709
0.052,-1.2508404,1.0534757,0.4832901,-0.028473496,-1.9689772,-0.76269287
0.054,-1.2974136,1.0484924,0.48174813,-0.031531572,-1.980548,-0.76902425
0.056,-1.3440822,1.0425693,0.4814593,-0.03462088,-1.9923314,-0.77552474
0.058,-1.3906057,1.0356328,0.48244473,-0.037659764,-2.0049593,-0.7823676
0.06,-1.4362378,1.0280814,0.48447868,-0.040625155,-2.0190616,-0.7897293
0.062,-1.4801757,1.0201066,0.4873461,-0.043528855,-2.0351977,-0.7977525
0.064,-1.5215234,1.0117126,0.49074832,-0.046408713,-2.053721,-0.80650914
0.066,-1.5595831,1.0028294,0.4944225,-0.049225688,-2.0746567,-0.816007
0.068,-1.5940676,0.993246,0.49833855,-0.051967144,-2.0978994,-0.8262535
0.07,-1.6245979,0.98289967,0.50249696,-0.05463904,-2.1232696,-0.8372631
0.072,-1.6509466,0.9715102,0.506987,-0.057243764,-2.1504128,-0.8490159
0.074,-1.6728847,0.95883095,0.51167905,-0.059782922,-2.1788573,-0.8614619
0.076,-1.6903125,0.94481206,0.5162302,-0.062330544,-2.208194,-0.87454
0.078,-1.7025087,0.9288374,0.5206535,-0.06497389,-2.238056,-0.888145
0.08,-1.7087253,0.91023344,0.52516484,-0.067845285,-2.2681699,-0.90216684
0.082,-1.7091446,0.88867885,0.5297355,-0.07112104,-2.2983947,-0.9165658
0.084,-1.7035952,0.8636327,0.5344857,-0.07499218,-2.3286963,-0.93138045
0.086,-1.6917162,0.8344222,0.5391691,-0.07964039,-2.3591874,-0.9467578
0.088,-1.6733272,0.80041796,0.5437304,-0.08526653,-2.3901129,-0.96294963
0.09,-1.6484303,0.7612436,0.5481528,-0.09203297,-2.421809,-0.98026824
0.092,-1.6163399,0.71628493,0.5518475,-0.10009879,-2.454685,-0.9990721
0.094,-1.5760803,0.66526395,0.5539963,-0.10963619,-2.4892185,-1.0197337
0.096,-1.5276037,0.6080578,0.5543809,-0.12081194,-2.5258567,-1.0425662
0.098,-1.4707172,0.54424655,0.5532632,-0.13377899,-2.5649803,-1.0677423
0.1,-1.4059943,0.47380406,0.5509846,-0.1486091,-2.606846,-1.0952005
0.102,-1.3334908,0.39655185,0.5479512,-0.16529578,-2.6515014,-1.1246485
0.104,-1.2535793,0.3123945,0.544433,-0.18377692,-2.6987178,-1.1557517
0.106,-1.1668648,0.22156896,0.54086995,-0.20388168,-2.7479575,-1.1880803
0.108,-1.0742505,0.124604836,0.5380171,-0.22536504,-2.7984755,-1.2211831
0.11,-0.9760586,0.021727085,0.53683615,-0.2479397,-2.8493967,-1.2545975
0.112,-0.87383014,-0.08645207,0.5378251,-0.2712825,-2.8996766,-1.2878623
0.114,-0.7687254,-0.19946176,0.5417305,-0.29505795,-2.9481857,-1.3205614
0.116,-0.6621369,-0.31659028,0.54911816,-0.31896466,-2.9938505,-1.3522909
0.118,-0.5554842,-0.4371414,0.5605298,-0.34276992,-3.0357323,-1.3826773
0.12,-0.4506201,-0.5601553,0.5763026,-0.3663203,-3.0729866,-1.4113277
0.122,-0.34920177,-0.6849116,0.5971062,-0.3895278,-3.1048975,-1.4378396
0.124,-0.2529198,-0.8105205,0.62318814,-0.41240817,-3.1309488,-1.4618264
0.126,-0.16390717,-0.936671,0.6551109,-0.43506795,-3.1508148,-1.4829206
0.128,-0.08376166,-1.0625005,0.6933403,-0.4576497,-3.1643102,-1.5007312
0.13,-0.014219031,-1.187069,0.73770654,-0.48027253,-3.1713204,-1.5149417
0.132,0.043096006,-1.3094493,0.7880809,-0.50303197,-3.1718726,-1.5253298
0.134,0.08670138,-1.4290324,0.84407246,-0.52596325,-3.1661313,-1.5317528
0.136,0.11540427,-1.5451216,0.905093,-0.54902625,-3.1542904,-1.5341353
0.138,0.1285391,-1.657235,0.9699937,-0.5720837,-3.1366448,-1.5324755
0.14,0.12662296,-1.7652986,1.0371846,-0.5949372,-3.1135902,-1.5268002
0.142,0.110500365,-1.8691813,1.1051539,-0.61734223,-3.0856125,-1.5171543
0.144,0.08041713,-1.9690555,1.1729448,-0.6390545,-3.05331,-1.503616
0.146,0.036641523,-2.065209,1.2403247,-0.6598591,-3.0173304,-1.4862602
0.148,-0.01971519,-2.1582017,1.3063926,-0.67958385,-2.9783237,-1.4651953
0.15,-0.08737522,-2.2483737,1.3691742,-0.6981613,-2.93694,-1.4405887
0.152,-0.164505,-2.3361292,1.427349,-0.7156424,-2.8937902,-1.4126813
0.154,-0.249165,-2.422089,1.4798021,-0.73216444,-2.8494143,-1.3817885
0.156,-0.3391801,-2.5064251,1.5257117,-0.74792725,-2.8042471,-1.3483282
0.158,-0.43259355,-2.589235,1.5639622,-0.76314306,-2.7585986,-1.3128245
0.16,-0.52735597,-2.6706429,1.593568,-0.77800214,-2.7126698,-1.2758945
0.162,-0.62071526,-2.7511306,1.6137403,-0.79261136,-2.6665428,-1.2381938
0.164,-0.70998085,-2.8312385,1.6236149,-0.80698,-2.6202369,-1.2003733
0.166,-0.79272693,-2.9115222,1.6230053,-0.8210696,-2.5738556,-1.163063
0.168,-0.8664974,-2.9924614,1.6120064,-0.83477414,-2.5274985,-1.1267607
0.17,-0.9290725,-3.074702,1.5910349,-0.84784853,-2.4811153,-1.0918133
0.172,-0.9786698,-3.1584105,1.5607105,-0.86001253,-2.4346683,-1.0584246
0.174,-1.0131834,-3.2438412,1.5217085,-0.87100875,-2.3882492,-1.0266645
0.176,-1.0307057,-3.3311234,1.4745549,-0.88063586,-2.3418972,-0.99645746
0.178,-1.0300212,-3.4197617,1.4193981,-0.88869,-2.2954102,-0.9675839
0.18,-1.0108858,-3.5090382,1.356394,-0.89496565,-2.2482934,-0.9397609
0.182,-0.97368634,-3.597841,1.285671,-0.89931613,-2.199911,-0.9127954
0.184,-0.9188166,-3.6848102,1.2073932,-0.90163267,-2.1495037,-0.8865391
0.186,-0.84716725,-3.768703,1.1216788,-0.9018321,-2.0960968,-0.8609009
0.188,-0.76040286,-3.8477888,1.0279545,-0.8998504,-2.0384684,-0.8357861
0.19,-0.66014385,-3.9206104,0.9257593,-0.8955688,-1.9752197,-0.8109906
0.192,-0.5476726,-3.9861658,0.8151103,-0.8888184,-1.904794,-0.786125
0.194,-0.4251812,-4.0431824,0.69616413,-0.87934357,-1.8256177,-0.7605927
0.196,-0.29588795,-4.090098,0.5692269,-0.86679626,-1.7361925,-0.7335662
0.198,-0.16321182,-4.125309,0.43453896,-0.85074216,-1.6351969,-0.70399153
0.2,-0.030765653,-4.1472063,0.29197088,-0.83069766,-1.521624,-0.6707323
0.202,0.097480774,-4.153734,0.14143558,-0.80617094,-1.3948876,-0.63268304
0.204,0.21743351,-4.142963,-0.017108582,-0.77672565,-1.2549161,-0.5889225
0.206,0.325243,-4.11286,-0.18372609,-0.74205315,-1.1022228,-0.53886414
0.208,0.41672093,-4.0614467,-0.35822153,-0.7020522,-0.93794376,-0.48235255
0.21,0.48889953,-3.9875069,-0.54019856,-0.65686965,-0.76384056,-0.41971186
0.212,0.53840315,-3.8900037,-0.7289742,-0.60688776,-0.5821166,-0.35168046
0.214,0.562521,-3.7684512,-0.9236451,-0.552707,-0.3952939,-0.27935863
0.216,0.5590771,-3.6228874,-1.1230024,-0.49510837,-0.20608857,-0.20409818
0.218,0.52620554,-3.454253,-1.3259326,-0.43500283,-0.01728537,-0.12733202
0.22,0.46208763,-3.2637563,-1.5312003,-0.37336743,0.16835581,-0.050451733
0.222,0.36598563,-3.0532036,-1.7370065,-0.31120497,0.34807447,0.025259182
0.224,0.23706889,-2.8248088,-1.9417491,-0.24953556,0.5191941,0.09865509
0.226,0.075470924,-2.5811958,-2.1432776,-0.18923865,0.6793627,0.16876587
0.228,-0.11797756,-2.3253026,-2.3396528,-0.13101456,0.82658607,0.2347384
0.23,-0.3416854,-2.060594,-2.528863,-0.0754247,0.95909536,0.2957396
0.232,-0.59379125,-1.7905644,-2.7093241,-0.022941172,1.0753534,0.35089394
0.234,-0.8716646,-1.5188296,-2.879524,0.026068002,1.1742797,0.3993492
0.236,-1.1722131,-1.2490393,-3.0381432,0.071339935,1.2554513,0.44039696
0.238,-1.4918686,-0.98487055,-3.1842668,0.11267823,1.319054,0.47353956
0.24,-1.8264163,-0.7297047,-3.3170898,0.14990622,1.3657857,0.49857748
0.242,-2.1715431,-0.48676622,-3.435795,0.18288103,1.3968024,0.51572686
0.244,-2.5229235,-0.25887203,-3.5397594,0.21146208,1.4136932,0.52565634
0.246,-2.8762918,-0.048360586,-3.6290998,0.23560679,1.4184221,0.52944916
0.248,-3.2272582,0.14310539,-3.7042923,0.25539875,1.4131885,0.5285674
0.25,-3.5723462,0.31463397,-3.7655802,0.27107477,1.4001781,0.5247161
0.252,-3.9078755,0.46559775,-3.8132558,0.28302997,1.3813637,0.51965165
0.254,-4.2296743,0.59572065,-3.848338,0.29181147,1.3583736,0.5149486
0.256,-4.5336914,0.70511985,-3.8720174,0.2980768,1.3324339,0.51177347
0.258,-4.816747,0.7940458,-3.8847094,0.30255678,1.3043134,0.51071286
0.26,-5.0768256,0.8632089,-3.8860624,0.30594707,1.2743641,0.51169354
0.262,-5.311727,0.91301346,-3.8756862,0.3088781,1.2425942,0.514039
0.264,-5.5200896,0.94437146,-3.8539925,0.31186122,1.2088264,0.51662725
0.266,-5.700454,0.95788777,-3.8211539,0.315269,1.1727612,0.5180801
0.268,-5.851806,0.95424914,-3.7767777,0.31933326,1.1341249,0.51705855
0.27,-5.9739156,0.9342543,-3.7207632,0.3241849,1.0928397,0.5124922
0.272,-6.067875,0.89916575,-3.6543393,0.3298895,1.0491182,0.5037358
0.274,-6.134206,0.8499712,-3.5784316,0.33648974,1.0035789,0.49067515
0.276,-6.1725883,0.7872951,-3.49032,0.34401274,0.9572539,0.47375047
0.278,-6.184793,0.71196127,-3.3882089,0.3524868,0.9114615,0.45390618
0.28,-6.172781,0.62518847,-3.2732904,0.36187246,0.8676672,0.43240362
0.282,-6.137266,0.5275117,-3.1470842,0.37205088,0.8273743,0.4106593
0.284,-6.0798626,0.42004812,-3.009462,0.3828363,0.7920666,0.39009705
0.286,-6.0026073,0.30419016,-2.860105,0.3939428,0.76308364,0.37201813
0.288,-5.906688,0.18109274,-2.6988845,0.4049688,0.74142236,0.35750964
0.29,-5.793254,0.051671863,-2.5262003,0.41542655,0.7276732,0.34737584
0.292,-5.663688,-0.08292675,-2.342758,0.4247687,0.7219763,0.34212205
0.294,-5.5197015,-0.2214694,-2.1490536,0.43246394,0.72406596,0.34197456
0.296,-5.3631444,-0.3621626,-1.9454868,0.43802005,0.73322964,0.34687144
0.298,-5.1961846,-0.5026903,-1.7325814,0.44099364,0.7483539,0.35655206
0.3,-5.0209737,-0.64071184,-1.5112944,0.441086,0.7681774,0.37059906
0.302,-4.8395367,-0.77388656,-1.282546,0.43823552,0.79150456,0.38844025
0.304,-4.6534185,-0.9001371,-1.0474024,0.43253672,0.8171187,0.40936756
0.306,-4.463979,-1.0178044,-0.8068362,0.42408216,0.84363353,0.43252918
0.308,-4.272446,-1.1256627,-0.56153953,0.41318592,0.87026364,0.4570592
0.31,-4.0803056,-1.2227473,-0.31188446,0.4003729,0.89686644,0.4821736
0.312,-3.8890386,-1.3086638,-0.05802852,0.38613984,0.92340827,0.5072349
0.314,-3.7002637,-1.3831291,0.19983876,0.37094015,0.9499608,0.53174627
0.316,-3.5154407,-1.4462626,0.46152025,0.35522985,0.97705704,0.55536044
0.318,-3.335888,-1.4984419,0.72639906,0.33944735,1.0056478,0.5778286
0.32,-3.163166,-1.5399907,0.99363834,0.32395136,1.0368601,0.5990194
0.322,-2.9987848,-1.571593,1.2623291,0.30901134,1.0719075,0.61898094
0.324,-2.8442183,-1.5938998,1.5313553,0.294793,1.1120511,0.6379653
0.326,-2.7008529,-1.6077442,1.7993908,0.28139707,1.1585602,0.65643364
0.328,-2.5698733,-1.6136161,2.064969,0.26884514,1.2125801,0.67496336
0.33,-2.4519217,-1.6120939,2.3262575,0.25706545,1.2750282,0.69412893
0.332,-2.347853,-1.6038992,2.581103,0.24592993,1.346518,0.71445554
0.334,-2.2583947,-1.5897192,2.8272715,0.2352997,1.4273634,0.73640645
0.336,-2.1842327,-1.5702772,3.0619738,0.2250064,1.5174501,0.76028687
0.338,-2.1257665,-1.5463629,3.2831917,0.21487468,1.6161546,0.78617096
0.34,-2.0833972,-1.5184674,3.4884589,0.20474333,1.7223438,0.81392443
0.342,-2.0571105,-1.4870112,3.675779,0.19447047,1.834492,0.84323025
0.344,-2.0464408,-1.4525352,3.843687,0.18391496,1.9507343,0.8736691
0.346,-2.0510855,-1.4153985,3.9904494,0.17292076,2.0689476,0.90477514
0.348,-2.0701632,-1.3758109,4.115138,0.16131914,2.1868744,0.93610466
0.35,-2.103075,-1.3340199,4.2167177,0.14893293,2.302293,0.9672724
0.352,-2.148165,-1.2902411,4.294384,0.13560832,2.413127,0.99791527
0.354,-2.2036808,-1.2447588,4.347654,0.12112594,2.5174334,1.0276932
0.356,-2.2677963,-1.1977702,4.3766646,0.10524255,2.6135466,1.0562551
0.358,-2.337768,-1.15056,4.382829,0.08782095,2.7003531,1.0832263
0.36,-2.4106162,-1.1042072,4.3666925,0.068863034,2.7773461,1.1081903
0.362,-2.4837425,-1.0591947,4.3280363,0.048252583,2.843952,1.1306047
0.364,-2.5538547,-1.0164483,4.267889,0.025835514,2.8998253,1.1498283
0.366,-2.6174052,-0.97722745,4.187779,0.0016105771,2.945295,1.1652262
0.368,-2.6706655,-0.9427414,4.0889916,-0.024389565,2.980901,1.1762625
0.37,-2.709989,-0.91424036,3.9728322,-0.05219221,3.0069633,1.1825778
0.372,-2.7321796,-0.89301753,3.840994,-0.08184481,3.02361,1.1840278
0.374,-2.7340353,-0.8800563,3.6956322,-0.11334127,3.030906,1.1806736
0.376,-2.7128549,-0.8763677,3.538479,-0.1466394,3.0287905,1.172712
0.378,-2.666098,-0.88284266,3.3711727,-0.1816814,3.0169132,1.1604365
0.38,-2.5916286,-0.90020335,3.195988,-0.21840888,2.9946744,1.1442252
0.382,-2.4872758,-0.92921114,3.0162544,-0.25674355,2.9613485,1.1245234
0.384,-2.35253,-0.9699166,2.834486,-0.29656547,2.916246,1.1018097
0.386,-2.18783,-1.0220014,2.6496627,-0.33775437,2.8587806,1.0764627
0.388,-1.992436,-1.0850523,2.4626806,-0.3800805,2.7888012,1.0488122
0.39,-1.766732,-1.158632,2.2770498,-0.4231417,2.7069075,1.0193253
0.392,-1.5124149,-1.2418041,2.0952725,-0.4664683,2.6140783,0.9884175
0.394,-1.2309399,-1.3337145,1.9174978,-0.50941974,2.5119383,0.95650506
0.396,-0.9234821,-1.4338539,1.7434845,-0.551159,2.4028213,0.92409015
0.398,-0.592577,-1.5410895,1.5732422,-0.5907307,2.2895944,0.89172745
0.4,-0.24067815,-1.6539907,1.4069569,-0.6271138,2.1755042,0.8600132
0.402,0.1293618,-1.7710882,1.2440443,-0.6593152,2.06396,0.82960105
0.404,0.5139977,-1.8907894,1.0841106,-0.686465,1.9583088,0.8011658
0.406,0.90983546,-2.0115936,0.92649025,-0.7078837,1.8616432,0.7753248
0.408,1.3137364,-2.132372,0.7700645,-0.7231601,1.7765249,0.75255877
0.41,1.722419,-2.2517586,0.61362976,-0.73218745,1.7048281,0.73321664
0.412,2.132079,-2.3681488,0.45605975,-0.7351456,1.6476018,0.7174759
0.414,2.5387628,-2.4799876,0.29646617,-0.73247117,1.6049609,0.70533884
0.416,2.9386296,-2.5857306,0.13414389,-0.7248181,1.5761218,0.6966104
0.418,3.327785,-2.6840556,-0.03164977,-0.7130004,1.5594754,0.6908925
0.42,3.7029998,-2.7737849,-0.20138133,-0.6979224,1.5527067,0.6875581
0.422,4.060961,-2.853761,-0.3754568,-0.6804656,1.5530905,0.68584
0.424,4.3981194,-2.9227347,-0.55395734,-0.661447,1.5576612,0.68486774
0.426,4.71088,-2.979497,-0.73586154,-0.6415707,1.563458,0.6837212
0.428,4.996426,-3.0233054,-0.92050517,-0.6213762,1.567814,0.6814741
0.43,5.251772,-3.0535023,-1.1075242,-0.6011787,1.5685722,0.6772253
0.432,5.4745183,-3.0695162,-1.2957196,-0.58105826,1.5642599,0.6702142
0.434,5.66183,-3.0705934,-1.4829526,-0.5608858,1.5540882,0.65980947
0.436,5.811063,-3.0561614,-1.6669155,-0.540331,1.5380937,0.64550585
0.438,5.9200163,-3.026101,-1.8454833,-0.5188561,1.51704,0.6269791
0.44,5.987465,-2.9808598,-2.0163727,-0.49577492,1.4922457,0.6040548
0.442,6.011917,-2.9207687,-2.1772666,-0.4703956,1.4652302,0.576596
0.444,5.991798,-2.8461971,-2.3278422,-0.44209445,1.4375937,0.5443701
0.446,5.9253125,-2.7571125,-2.4687738,-0.410279,1.4111989,0.50725377
0.448,5.811938,-2.6535244,-2.5992804,-0.37457147,1.38766,0.46512917
0.45,5.653268,-2.535994,-2.7152512,-0.3348159,1.3681849,0.41789103
0.452,5.4514356,-2.4057975,-2.8135772,-0.29100424,1.3536465,0.36548832
0.454,5.208306,-2.2645762,-2.8948715,-0.24328151,1.3445679,0.30794424
0.456,4.9261026,-2.1137714,-2.9606464,-0.19193467,1.3411344,0.24535738
0.458,4.6072507,-1.9543788,-3.011604,-0.13730946,1.3434004,0.17798907
0.46,4.2551775,-1.7870448,-3.0471332,-0.07978642,1.351251,0.10630375
0.462,3.8731961,-1.612693,-3.0664315,-0.019757614,1.3644499,0.030959748
0.464,3.4649072,-1.4323044,-3.0707207,0.04235761,1.3827204,-0.04728417
0.466,3.0342293,-1.2470374,-3.0619118,0.10608858,1.4058089,-0.12757045
0.468,2.5849428,-1.0571984,-3.042564,0.17091852,1.4335338,-0.20900886
0.47,2.1217034,-0.86324763,-3.014021,0.23629394,1.4656308,-0.29066232
0.472,1.6497788,-0.666228,-2.9767756,0.30162063,1.501703,-0.37158406
0.474,1.1739736,-0.4664676,-2.9322488,0.3663721,1.5413277,-0.45078042
0.476,0.6996632,-0.26470503,-2.8816235,0.4299946,1.5837443,-0.5273161
0.478,0.2321735,-0.06208834,-2.8255033,0.49171108,1.6274738,-0.6004096
0.48,-0.22259653,0.13992281,-2.7640772,0.55060077,1.6706622,-0.6695013
0.482,-0.6590825,0.33996505,-2.6977663,0.6056955,1.7114524,-0.73433673
0.484,-1.071434,0.5361197,-2.626802,0.6559334,1.7477766,-0.79490316
0.486,-1.4537076,0.72623134,-2.5507774,0.7000783,1.7770643,-0.85136425
0.488,-1.8006778,0.9081354,-2.4691472,0.73684156,1.7965137,-0.904021
0.49,-2.1067233,1.0791209,-2.3816857,0.7649491,1.8033018,-0.9534042
0.492,-2.3666966,1.2363359,-2.2881331,0.7830677,1.7948774,-1.0003201
0.494,-2.5754151,1.3766558,-2.1887124,0.78992176,1.7693019,-1.045658
0.496,-2.7292013,1.4974154,-2.0835624,0.7844151,1.7253385,-1.0902792
0.498,-2.8255897,1.5961525,-1.9724846,0.765908,1.6626924,-1.1348922
0.5,-2.862813,1.6705095,-1.8551328,0.73440456,1.5822668,-1.1800297
0.502,-2.8397503,1.7185564,-1.7320309,0.69066966,1.4862378,-1.2261306
0.504,-2.7554536,1.7384295,-1.6041743,0.6362458,1.3780612,-1.2735701
0.506,-2.6104057,1.7290134,-1.4726579,0.57340914,1.2622607,-1.3225667
0.508,-2.4059942,1.6896393,-1.3390424,0.50504,1.1441071,-1.3730932
0.51,-2.1461427,1.6210097,-1.2058642,0.4343945,1.0291295,-1.4248307
0.512,-1.8351747,1.5245237,-1.0754449,0.364792,0.9225526,-1.4772043
0.514,-1.4788507,1.4026852,-0.95011103,0.29930922,0.82894796,-1.5293927
0.516,-1.0840071,1.2587197,-0.83195484,0.24051163,0.7518619,-1.5803314
0.518,-0.6583364,1.0968072,-0.7226137,0.19027722,0.6935706,-1.6287322
0.52,-0.20968896,0.9214097,-0.62379014,0.14971474,0.6549917,-1.6731887
0.522,0.25446528,0.7369681,-0.53703165,0.119128644,0.6357154,-1.7122455
0.524,0.726333,0.54811805,-0.4631445,0.098115146,0.6343522,-1.744546
0.526,1.1979373,0.35968313,-0.40255922,0.08574021,0.64873296,-1.7690191
0.528,1.6605144,0.1768508,-0.35521293,0.08063847,0.6760502,-1.7849944
0.53,2.1049347,0.0050521195,-0.320606,0.08133185,0.7134379,-1.7921691
0.532,2.5226495,-0.15051222,-0.29751003,0.08650565,0.75839406,-1.7905031
0.534,2.9058294,-0.28494722,-0.284227,0.09492779,0.8084091,-1.7802342
0.536,3.2470803,-0.39401728,-0.27870464,0.10538238,0.8608222,-1.7619765
0.538,3.5395489,-0.47374773,-0.27771652,0.11680031,0.91331524,-1.7367887
0.54,3.777679,-0.5213595,-0.27741623,0.12835199,0.9642278,-1.7060847
0.542,3.9571075,-0.53517795,-0.27457964,0.13932982,1.0120906,-1.6713793
0.544,4.0751677,-0.5145643,-0.26694953,0.14917159,1.0554744,-1.6340845
0.546,4.13012,-0.45965785,-0.25256968,0.15758777,1.0931919,-1.595427
0.548,4.1213717,-0.37140864,-0.22934115,0.16453364,1.1243268,-1.5564984
0.55,4.0487833,-0.25116915,-0.19569826,0.17009103,1.1482697,-1.5182295
0.552,3.9143233,-0.1014418,-0.15037382,0.17437735,1.164697,-1.4813243
0.554,3.7214327,0.07450682,-0.09134328,0.17757356,1.173577,-1.4461615
0.556,3.474895,0.27248067,-0.016999483,0.17989668,1.1751667,-1.4126897
0.558,3.1788821,0.48785537,0.07113266,0.18158937,1.16996,-1.3805043
0.56,2.8382385,0.7154754,0.16890085,0.18371744,1.1615715,-1.3541796
0.562,2.4583054,0.9508282,0.27405715,0.18521155,1.1469173,-1.326268
0.564,2.0460215,1.1894178,0.38702828,0.18663466,1.128921,-1.2998852
0.566,1.6098106,1.4259278,0.5082674,0.18794669,1.108869,-1.2754799
0.568,1.1583391,1.6544287,0.6360178,0.18899097,1.0879084,-1.2538127
0.57,0.7003386,1.8691761,0.7675333,0.18951401,1.0668571,-1.2358961
0.572,0.24450505,2.0650766,0.9005235,0.189191,1.045986,-1.2228298
0.574,-0.20020807,2.237276,1.0345705,0.18766451,1.0249696,-1.2155803
0.576,-0.62547874,2.3818364,1.1697086,0.18463328,1.0028969,-1.214783
0.578,-1.0239587,2.495401,1.3054736,0.17983867,0.97818524,-1.2205919
0.58,-1.3890735,2.5753171,1.4409615,0.17305228,0.9487815,-1.2325761
0.582,-1.7148588,2.6196115,1.5752465,0.16407882,0.9124912,-1.2498231
0.584,-1.9962106,2.627269,1.7078346,0.15274912,0.8672244,-1.2711811
0.586,-2.2297246,2.5987213,1.8384011,0.13890898,0.81135845,-1.2955933
0.588,-2.4131124,2.535575,1.9667,0.12249166,0.74420255,-1.3222178
0.59,-2.5450637,2.440228,2.0923944,0.10352689,0.6661103,-1.3504248
0.592,-2.6252422,2.3158545,2.214968,0.08215326,0.57844305,-1.379874
0.594,-2.6538818,2.1659994,2.3340857,0.058685184,0.48343462,-1.4104948
0.596,-2.6327882,1.9950982,2.4487467,0.03359139,0.38401392,-1.4423234
0.598,-2.5641496,1.8077719,2.5579455,0.0074908733,0.2834443,-1.4752532
0.6,-2.4514546,1.6091815,2.660789,-0.018915117,0.18490456,-1.5089132
0.602,-2.2987306,1.4047754,2.7559116,-0.04487449,0.09133211,-1.5425959
0.604,-2.1108236,1.1999395,2.841964,-0.06961191,0.0052685738,-1.5752144
0.606,-1.8920949,0.9994828,2.9172363,-0.092479944,-0.07131851,-1.6054311
0.608,-1.6469431,0.80795896,2.9795086,-0.11303401,-0.13703299,-1.6318326
0.61,-1.3803997,0.6297906,3.0265486,-0.13097829,-0.19096684,-1.6531181
0.612,-1.0978787,0.46897715,3.0567229,-0.14618182,-0.2326313,-1.6681918
0.614,-0.8052295,0.32898363,3.0687704,-0.15912658,-0.26350963,-1.6732035
0.616,-0.5072484,0.21249577,3.061316,-0.16858858,-0.27940416,-1.6748631
0.618,-0.2079606,0.12106183,3.033249,-0.17534661,-0.2830339,-1.6679726
0.62,0.08968568,0.055285573,2.9844227,-0.17926848,-0.2742743,-1.652638
0.622,0.38328588,0.014977396,2.914514,-0.18009198,-0.25299922,-1.6290994
0.624,0.670053,-0.00056266785,2.8235621,-0.1774326,-0.21898827,-1.5977068
0.626,0.94781166,0.007309437,2.712199,-0.17082304,-0.17205507,-1.5588952
0.628,1.2149242,0.036829233,2.5819983,-0.15980798,-0.1121586,-1.513186
0.63,1.469316,0.086182594,2.434833,-0.14403623,-0.03952214,-1.4611392
0.632,1.7092692,0.1536212,2.2731209,-0.12328631,0.045345157,-1.4033608
0.634,1.9336011,0.23707694,2.0995376,-0.09747732,0.14153597,-1.3405006
0.636,2.1418638,0.33428597,1.9172894,-0.06672892,0.2476164,-1.2732767
0.638,2.3343554,0.44253308,1.7299114,-0.03136581,0.36158526,-1.2024455
0.64,2.5117137,0.55888134,1.5408709,0.008096069,0.48096904,-1.1287663
0.642,2.6743526,0.68018275,1.35342,0.050946563,0.6028336,-1.0530416
0.644,2.822454,0.803414,1.1706064,0.0963466,0.724038,-0.97614133
0.646,2.955988,0.9261132,0.9948896,0.14338058,0.84136665,-0.89892364
0.648,3.0746474,1.0462556,0.8291975,0.19102569,0.9515974,-0.8222108
0.65,3.1776657,1.1622357,0.6761801,0.23823985,1.0516484,-0.74676675
0.652,3.2643769,1.2727035,0.5383613,0.28404522,1.1387931,-0.6732738
0.654,3.3340611,1.376435,0.4184736,0.32753095,1.2106392,-0.6023464
0.656,3.3861313,1.4723525,0.318905,0.36791655,1.2653008,-0.5344763
0.658,3.4198313,1.5597634,0.24150252,0.40458024,1.3015085,-0.4701124
0.66,3.4344635,1.6380202,0.18773448,0.4371144,1.3186574,-0.40969148
0.662,3.429753,1.7066429,0.15841508,0.4653386,1.3167549,-0.35360903
0.664,3.4050064,1.7652256,0.15431333,0.48932007,1.2964284,-0.3021869
0.666,3.3597815,1.8136159,0.17571199,0.5093786,1.2589517,-0.2556415
0.668,3.2942438,1.8518395,0.22262228,0.52603257,1.206194,-0.21408752
0.67,3.208067,1.8804013,0.29464495,0.5399382,1.1404724,-0.17755198
0.672,3.1025174,1.8991723,0.3907733,0.5518176,1.0643862,-0.14591858
0.674,2.9785488,1.9081584,0.5100678,0.5624582,0.98076165,-0.11889768
0.676,2.8370585,1.9078676,0.6510438,0.5726546,0.8924873,-0.09603357
0.678,2.679211,1.8988591,0.8121698,0.5831727,0.8023244,-0.07673994
0.68,2.5066278,1.8815567,0.99147284,0.5946641,0.71283555,-0.06038353
0.682,2.3213043,1.8564813,1.1867248,0.60763955,0.62632865,-0.0463486
0.684,2.1254334,1.8244987,1.3958237,0.62242204,0.544799,-0.03414169
0.686,1.9214537,1.7860819,1.6166717,0.6391278,0.4698639,-0.023404181
0.688,1.7117667,1.7418131,1.8468797,0.65766406,0.40271482,-0.013968706
0.69,1.498698,1.692339,2.0840302,0.6778077,0.34411258,-0.0058231056
0.692,1.2846949,1.6383954,2.3255522,0.69921315,0.29440796,0.00085127354
0.694,1.0720643,1.5808573,2.5690813,0.7214922,0.25352764,0.005753964
0.696,0.8631618,1.5205339,2.812261,0.7442616,0.2210909,0.008531272
0.698,0.65976846,1.4583129,3.0525877,0.7671788,0.19646583,0.008863777
0.7,0.46296012,1.3954446,3.287509,0.78995633,0.17883651,0.006483406
0.702,0.27427137,1.3328001,3.5150886,0.81238234,0.1673423,0.0012403429
0.704,0.09440255,1.271549,3.7336297,0.8343694,0.16124125,-0.0068859756
0.706,-0.07582891,1.2127438,3.9419086,0.8558706,0.15995768,-0.017800748
0.708,-0.23597479,1.1573405,4.1384797,0.87696624,0.16327822,-0.03126806
0.71,-0.3856132,1.106209,4.321479,0.89778,0.17127277,-0.04698226
0.712,-0.5244218,1.0601187,4.4889526,0.9185161,0.18430142,-0.06455144
0.714,-0.65214455,1.0197728,4.638971,0.939442,0.20299688,-0.08349401
0.716,-0.76898515,0.9858771,4.7699895,0.96088946,0.22818436,-0.10330552
0.718,-0.87511015,0.95901734,4.880896,0.98322517,0.26077038,-0.12347633
0.72,-0.9706601,0.93931866,4.970777,1.0068555,0.30159813,-0.14349464
0.722,-1.0558311,0.92670894,5.0393167,1.032207,0.35130918,-0.16283894
0.724,-1.130835,0.9210127,5.086173,1.059679,0.41030204,-0.18100286
0.726,-1.1958264,0.9219086,5.11118,1.0896008,0.47868794,-0.19759491
0.728,-1.251139,0.929225,5.114461,1.122195,0.5562248,-0.21235412
0.73,-1.2966431,0.94241506,5.0964327,1.157521,0.6422925,-0.22518212
0.732,-1.3330745,0.9609819,5.0582466,1.1954551,0.73583305,-0.23608518
0.734,-1.3596445,0.983898,5.0008736,1.2357352,0.8353962,-0.24515432
0.736,-1.3764979,1.0102059,4.925949,1.2779874,0.93922037,-0.25257087
0.738,-1.3836954,1.0387256,4.834991,1.3217365,1.0453495,-0.25857198
0.74,-1.3809545,1.0679046,4.730001,1.3663917,1.1516664,-0.26344734
0.742,-1.3684148,1.0964923,4.6129045,1.4113045,1.2559917,-0.26749784
0.744,-1.3461374,1.123301,4.4855547,1.4557812,1.3561366,-0.2710535
0.746,-1.3145455,1.1472597,4.350103,1.4991196,1.450015,-0.2744226
0.748,-1.2737979,1.16752,4.208606,1.5406144,1.5356994,-0.2779153
0.75,-1.2244362,1.1833398,4.063192,1.5795856,1.611552,-0.2818305
0.752,-1.1668636,1.1942089,3.9157481,1.6153978,1.6763048,-0.28642946
0.754,-1.1012535,1.19948,3.768173,1.6474955,1.72909,-0.29189032
0.756,-1.0279486,1.1987326,3.6220973,1.6754341,1.7694463,-0.29833066
0.758,-0.9475423,1.1914835,3.4783614,1.6989183,1.7972844,-0.30580723
0.76,-0.8604708,1.1776309,3.3376548,1.7178055,1.8127759,-0.3143798
0.762,-0.76777124,1.1574187,3.2001114,1.7321038,1.8162977,-0.32416415
0.764,-0.67036486,1.1312723,3.0659199,1.7419865,1.8083621,-0.33533728
0.766,-0.5692084,1.0997605,2.935133,1.747746,1.7895693,-0.34816206
0.768,-0.46525133,1.0635613,2.8076656,1.7498052,1.7605541,-0.36294067
0.77,-0.35954475,1.0235347,2.6832993,1.748663,1.7219453,-0.37997591
0.772,-0.25321674,0.9806391,2.5617297,1.7448542,1.6743593,-0.39952564
0.774,-0.1469425,0.9358995,2.4424658,1.738914,1.6184189,-0.4218197
0.776,-0.04203415,0.89048815,2.3250887,1.7313486,1.5548539,-0.4469995
0.778,0.060674787,0.8454659,2.2091646,1.7226365,1.4845133,-0.47509181
0.78,0.16007066,0.80198234,2.0945797,1.7131894,1.4083686,-0.5059946
0.782,0.25483537,0.7612026,1.9810874,1.7033489,1.327558,-0.5394873
0.784,0.34399807,0.72409457,1.8688357,1.6934632,1.243433,-0.5752191
0.786,0.42681968,0.6913439,1.7581904,1.6838956,1.157536,-0.6127407
0.788,0.5024008,0.6636034,1.6494448,1.6749918,1.0714797,-0.6515323
0.79,0.56976026,0.6415508,1.5431899,1.6670803,0.9868467,-0.6910403
0.792,0.6282622,0.6256145,1.440048,1.6604693,0.9051453,-0.73072433
0.794,0.67749584,0.61599904,1.3407595,1.6554612,0.8278275,-0.77005905
0.796,0.71704113,0.6126036,1.2463326,1.6523014,0.75622284,-0.8085774
0.798,0.74694914,0.61508256,1.1579545,1.6511903,0.6915362,-0.84584373
0.8,0.7672629,0.62271655,1.0765872,1.6522758,0.63476413,-0.88146305
0.802,0.77810985,0.6349705,1.0033174,1.655647,0.586708,-0.91507435
0.804,0.7796742,0.6508198,0.93887645,1.6613309,0.54793143,-0.9463414
0.806,0.7724668,0.66925395,0.8839909,1.6693197,0.51881826,-0.97498953
0.808,0.7574445,0.68914276,0.8396341,1.6795454,0.49959922,-1.0007687
0.81,0.7356152,0.7092032,0.80651355,1.6918993,0.4903413,-1.0234718
0.812,0.70738804,0.72841704,0.7847766,1.7062018,0.4909173,-1.0429412
0.814,0.6734661,0.74584365,0.7741446,1.722274,0.5010735,-1.0590656
0.816,0.6347914,0.76052773,0.77422464,1.7399194,0.5203951,-1.0718104
0.818,0.59204614,0.77165025,0.7847417,1.7589037,0.54826266,-1.0812694
0.82,0.5462144,0.77833784,0.8055953,1.7789605,0.58385813,-1.0876775
0.822,0.49831802,0.7796111,0.83669007,1.7997596,0.62619257,-1.0914147
0.824,0.4495375,0.774603,0.8774613,1.820966,0.6741661,-1.0929527
0.826,0.401081,0.7627605,0.92686,1.8422458,0.7265972,-1.0928199
0.828,0.35425794,0.7435039,0.9834031,1.8632985,0.78227746,-1.091459
0.83,0.310062,0.7166242,1.0454848,1.8838646,0.8399377,-1.0892646
0.832,0.2694344,0.68222857,1.1114514,1.9037054,0.8982953,-1.0865567
0.834,0.23323295,0.6404089,1.1798754,1.9226544,0.95608085,-1.0836015
0.836,0.2019493,0.5915332,1.2492869,1.9405835,1.0120633,-1.0806344
0.838,0.17637509,0.53590566,1.3181806,1.957375,1.065055,-1.0778658
0.84,0.15680748,0.47405225,1.3848861,1.9729587,1.1139766,-1.0755062
0.842,0.14376402,0.40680766,1.447924,1.987297,1.1579237,-1.0737219
0.844,0.13755918,0.3348301,1.5057812,2.0003955,1.1961715,-1.07264
0.846,0.13833189,0.25927734,1.55719,2.0123186,1.2282094,-1.0723333
0.848,0.14570576,0.18149552,1.6011323,2.0231721,1.2537576,-1.0728469
0.85,0.15918332,0.10294452,1.6368027,2.0331264,1.2728138,-1.074147
0.852,0.17839378,0.024729371,1.6631976,2.0424027,1.2856464,-1.0761206
0.854,0.20281708,-0.051902533,1.6795397,2.0513055,1.2927938,-1.0785785
0.856,0.23181027,-0.12598461,1.6849151,2.0601788,1.2949939,-1.0812697
0.858,0.26447716,-0.19636464,1.6786168,2.0694137,1.2931633,-1.0839086
0.86,0.29992616,-0.26214284,1.6601678,2.0793977,1.2882926,-1.0861855
0.862,0.33701715,-0.32217062,1.6293474,2.0904958,1.2814066,-1.0878074
0.864,0.37463754,-0.37553543,1.5860285,2.103046,1.2735174,-1.0884966
0.866,0.41149288,-0.42166853,1.530392,2.1172953,1.2655729,-1.0880433
0.868,0.4466506,-0.46001747,1.4629345,2.1334019,1.2583504,-1.0863137
0.87,0.47889483,-0.49035087,1.384068,2.151424,1.2524338,-1.0832489
0.872,0.5075005,-0.5127647,1.2947719,2.171352,1.2482405,-1.0788478
0.874,0.5316088,-0.52755,1.1959267,2.1930737,1.246005,-1.0731552
0.876,0.5503708,-0.53499335,1.0887506,2.2164063,1.245773,-1.0662862
0.878,0.56314415,-0.53560543,0.97489184,2.2410333,1.2473762,-1.0584317
0.88,0.56962895,-0.530207,0.85590804,2.2665782,1.2504864,-1.0498848
0.882,0.5697024,-0.5196813,0.7335055,2.2926173,1.2546451,-1.0410123
0.884,0.56325245,-0.50498164,0.60962677,2.318729,1.2593406,-1.0321746
0.886,0.55059534,-0.4872288,0.48629922,2.344532,1.2640653,-1.0237371
0.888,0.5319861,-0.46746838,0.36561912,2.3697045,1.2683907,-1.0159659
0.89,0.50801706,-0.44693124,0.24955623,2.3940225,1.2720284,-1.0090195
0.892,0.47950232,-0.42681688,0.14013845,2.417408,1.2748715,-1.0029237
0.894,0.4471876,-0.40821022,0.039056372,2.4398928,1.2770339,-0.99756306
0.896,0.4117688,-0.3921656,-0.051987745,2.461632,1.2788028,-0.9926873
0.898,0.37425762,-0.37969762,-0.13169645,2.4828582,1.2806242,-0.9879612
0.9,0.33596855,-0.37185648,-0.19901773,2.5038557,1.2830508,-0.9830318
0.902,0.29781336,-0.36925763,-0.25315684,2.5249104,1.2866361,-0.9775503
0.904,0.26045328,-0.37239492,-0.29356176,2.546266,1.2918,-0.9712523
0.906,0.2249335,-0.3815078,-0.3199213,2.5680723,1.298743,-0.9640329
0.908,0.19188447,-0.39661112,-0.3324519,2.5903575,1.3074148,-0.9559533
0.91,0.16225295,-0.4176532,-0.33118752,2.6130538,1.3175278,-0.9471973
0.912,0.13663578,-0.44465488,-0.31684256,2.6359954,1.3285271,-0.93807125
0.914,0.11605066,-0.47746906,-0.290272,2.6589434,1.3396587,-0.9289267
0.916,0.10085726,-0.5157724,-0.25241578,2.6816278,1.3500371,-0.92013747
0.918,0.091327295,-0.5592026,-0.20467506,2.7037797,1.358745,-0.9120296
0.92,0.08769916,-0.60735416,-0.14838047,2.7251797,1.3649216,-0.9048331
0.922,0.09017138,-0.6595148,-0.08500922,2.7456722,1.3678577,-0.89866346
0.924,0.09888579,-0.7154298,-0.016135797,2.7651722,1.3670409,-0.8935371
0.926,0.11373398,-0.77461207,0.056616172,2.7836814,1.3621513,-0.889379
0.928,0.13480994,-0.8365208,0.13169053,2.8012881,1.3530854,-0.8860392
0.93,0.16185273,-0.9005066,0.20764044,2.8181646,1.339961,-0.8832588
0.932,0.19422202,-0.965871,0.28303215,2.8345563,1.3230749,-0.88073677
0.934,0.23162286,-1.0321478,0.35662088,2.8507237,1.3028375,-0.8781517
0.936,0.27396017,-1.0990448,0.4271736,2.8668993,1.279725,-0.8752427
0.938,0.32067448,-1.1660292,0.4936658,2.8832746,1.2542589,-0.87181646
0.94,0.37147194,-1.2326171,0.55546665,2.8999867,1.2269778,-0.86774117
0.942,0.42572686,-1.2984748,0.61189055,2.917155,1.198437,-0.8629645
0.944,0.4831164,-1.3633335,0.6623477,2.9348705,1.1691818,-0.8574473
0.946,0.543317,-1.4269964,0.7066277,2.953199,1.1397457,-0.8511647
0.948,0.6056979,-1.4890374,0.74470943,2.9722292,1.1106539,-0.84409285
0.95,0.66982615,-1.5490501,0.77650696,2.9920602,1.0824296,-0.8362173
0.952,0.7350055,-1.606797,0.8020251,3.012815,1.0555484,-0.8275023
0.954,0.80056167,-1.6617523,0.8214358,3.0346327,1.0304368,-0.8178986
0.956,0.8660541,-1.7136736,0.8347327,3.0576563,1.0074692,-0.8073734
0.958,0.93094486,-1.7622842,0.84237516,3.0820065,0.98693985,-0.7959412
0.96,0.9945665,-1.8071527,0.84471583,3.1077433,0.96903074,-0.78366166
0.962,1.0562488,-1.8476751,0.84248483,3.1348674,0.95378524,-0.77066743
0.964,1.1150814,-1.8833402,0.8363934,3.1632898,0.94111156,-0.75716174
0.966,1.170259,-1.9136064,0.8271822,3.1927953,0.9307766,-0.7433978
0.968,1.2210605,-1.9381386,0.815614,3.2230635,0.9224001,-0.7296847
0.97,1.2666967,-1.9566357,0.8023149,3.2537117,0.9155507,-0.71634847
0.972,1.3064584,-1.9687176,0.7879024,3.2843409,0.9097587,-0.7037118
0.974,1.3393204,-1.9738396,0.77285075,3.3145382,0.9045415,-0.69205546
0.976,1.364572,-1.9717274,0.75785667,3.343895,0.8994373,-0.68161774
0.978,1.3807936,-1.9643795,0.742162,3.372035,0.8940108,-0.6725796
0.98,1.3884325,-1.9481322,0.7286991,3.3986475,0.8879136,-0.6650882
0.982,1.3863952,-1.9245536,0.717035,3.4235125,0.8809056,-0.6592404
0.984,1.3740884,-1.8938252,0.7079662,3.44648,0.87285924,-0.6551116
0.986,1.3509917,-1.8562744,0.70208097,3.4674847,0.8637591,-0.65271163
0.988,1.3168199,-1.812327,0.7001362,3.4865227,0.8536458,-0.65200096
0.99,1.2714931,-1.7626766,0.7029847,3.5036833,0.8426454,-0.65287185
0.992,1.2146876,-1.7080144,0.71168643,3.5191255,0.83093137,-0.6551877
0.994,1.146593,-1.6492147,0.7273608,3.5330532,0.8187021,-0.6587802
0.996,1.0675628,-1.5871263,0.75082386,3.5456762,0.80618215,-0.6634525
0.998,0.97792643,-1.5226568,0.78298783,3.557238,0.79360414,-0.66896677
1,0.8785245,-1.4567887,0.82486176,3.5680027,0.7811854,-0.6749889
1.002,0.7700907,-1.3905705,0.8773755,3.5781856,0.7690542,-0.6811123
1.004,0.6536166,-1.3250045,0.94166046,3.5879579,0.75720114,-0.6868927
1.006,0.53006923,-1.261269,1.0184774,3.597397,0.7455213,-0.6918864
1.008,0.40097988,-1.2005086,1.1088135,3.6065152,0.73382676,-0.6956553
1.01,0.26764157,-1.143878,1.2133387,3.6152718,0.721874,-0.69782364
1.012,0.13177836,-1.0927455,1.332802,3.6235511,0.7093834,-0.6980748
1.014,-0.0045150965,-1.0483799,1.4677036,3.631224,0.69607705,-0.696216
1.016,-0.13955922,-1.0120268,1.6181805,3.6381412,0.6817289,-0.69221944
1.018,-0.27133167,-0.98480034,1.7843872,3.6442072,0.6661613,-0.6862095
1.02,-0.3978566,-0.96782285,1.9658991,3.6493695,0.64925253,-0.67847025
1.022,-0.516911,-0.9621829,2.1623557,3.653661,0.6309327,-0.6694116
1.024,-0.62656003,-0.9687388,2.3732288,3.6571465,0.6111498,-0.6595464
1.026,-0.72489494,-0.9883512,2.5974517,3.6599216,0.5898423,-0.6494896
1.028,-0.80978775,-1.0217777,2.8338315,3.66212,0.56693625,-0.6399389
1.03,-0.8794638,-1.0694828,3.0808015,3.6638908,0.54234254,-0.63160753
1.032,-0.93216825,-1.132036,3.3365114,3.6653314,0.51595414,-0.6252153
1.034,-0.9664929,-1.209565,3.5989668,3.6664581,0.48765326,-0.6214509
1.036,-0.9810848,-1.3021137,3.8658242,3.6672184,0.45738828,-0.6209242
1.038,-0.97499907,-1.409543,4.1344085,3.667497,0.4251938,-0.6241115
1.04,-0.9474437,-1.5315831,4.401995,3.667155,0.39121163,-0.63132596
1.042,-0.89764667,-1.6677046,4.6656055,3.6660614,0.35568404,-0.64266956
1.044,-0.8257121,-1.8169501,4.9220314,3.664115,0.318933,-0.65804636
1.046,-0.73209345,-1.9780962,5.1682982,3.6612456,0.28137314,-0.67716205
1.048,-0.6172328,-2.1497731,5.401368,3.6574726,0.24347413,-0.6995472
1.05,-0.48205018,-2.3302572,5.6181626,3.6529179,0.20572257,-0.72462034
1.052,-0.32764328,-2.517734,5.8158526,3.6477845,0.168594,-0.75174904
1.054,-0.15553698,-2.7100372,5.991969,3.642332,0.1325494,-0.78026545
1.056,0.03258449,-2.9050088,6.144359,3.6368825,0.09801328,-0.8094861
1.058,0.23463988,-3.1005626,6.271177,3.6317842,0.0653882,-0.83872366
1.06,0.44841218,-3.294496,6.371224,3.6273777,0.034981966,-0.86729956
1.062,0.67149746,-3.4846172,6.443477,3.623917,0.0069801807,-0.8945755
1.064,0.90149593,-3.668984,6.487495,3.6216097,-0.01851058,-0.9199272
1.066,1.1360055,-3.8458753,6.503403,3.6206257,-0.04143393,-0.9427765
1.068,1.3728545,-4.0137997,6.491774,3.621068,-0.061814666,-0.9625933
1.07,1.6094517,-4.171447,6.4535613,3.6229868,-0.07975304,-0.9789353
1.072,1.8434,-4.3180003,6.3901896,3.6263945,-0.0954051,-0.9914792
1.074,2.0723345,-4.4527607,6.3035097,3.6313167,-0.108947754,-1.0000314
1.076,2.294019,-4.575144,6.196005,3.6377497,-0.12059307,-1.0045478
1.078,2.5064878,-4.684944,6.07035,3.6456866,-0.13061178,-1.0051433
1.08,2.7078037,-4.782086,5.9296184,3.655113,-0.1392343,-1.0020494
1.082,2.8963883,-4.8672314,5.7768955,3.6660051,-0.14666355,-0.99560857
1.084,3.0710058,-4.9409914,5.615471,3.6782918,-0.15307081,-0.9862545
1.086,3.2304626,-5.004155,5.448218,3.6919029,-0.1585685,-0.9744347
1.088,3.3742533,-5.0560074,5.2790923,3.7067313,-0.16324878,-0.9606073
1.09,3.5008502,-5.1012745,5.1088147,3.722628,-0.16721737,-0.9452157
1.092,3.610496,-5.139155,4.941447,3.7394493,-0.1705786,-0.9286703
1.094,3.7032201,-5.171026,4.779695,3.7570412,-0.17344117,-0.91131413
1.096,3.7792134,-5.1982203,4.626147,3.7752755,-0.1759454,-0.8934434
1.098,3.838366,-5.2219734,4.483097,3.7940326,-0.17834008,-0.8752941
1.1,3.8812423,-5.2434688,4.352387,3.8132439,-0.18098533,-0.85703224
1.102,3.9086275,-5.2640896,4.2355237,3.8328364,-0.18435252,-0.83883226
1.104,3.9214468,-5.285054,4.133534,3.852749,-0.18901062,-0.8208637
1.106,3.9206824,-5.307576,4.047422,3.8729112,-0.19559169,-0.80331063
1.108,3.9074993,-5.3327475,3.977708,3.8932214,-0.20477045,-0.78639257
1.11,3.8828802,-5.3613367,3.9247172,3.913556,-0.21720123,-0.7703492
1.112,3.8481658,-5.394177,3.8884904,3.9337516,-0.23351991,-0.75539225
1.114,3.8048508,-5.4319954,3.8686767,3.953621,-0.25425434,-0.74171335
1.116,3.7543838,-5.475069,3.864839,3.9729671,-0.2797928,-0.72944695
1.118,3.6978862,-5.523614,3.8761191,3.9915764,-0.31037796,-0.71867746
1.12,3.636693,-5.577617,3.901709,4.0092387,-0.34603655,-0.7094052
1.122,3.5722523,-5.6370325,3.9402852,4.0258203,-0.3865952,-0.70155746
1.124,3.505908,-5.701893,3.9906504,4.0412216,-0.43168205,-0.6949585
1.126,3.439043,-5.7719107,4.0512958,4.0553946,-0.48075485,-0.68938017
1.128,3.373038,-5.8468046,4.1208267,4.0683374,-0.5331277,-0.68456197
1.13,3.3089936,-5.926026,4.197785,4.080096,-0.5880333,-0.68022496
1.132,3.2480745,-6.0089664,4.2805295,4.0907483,-0.64469516,-0.6760962
1.134,3.1913903,-6.095194,4.3673253,4.100405,-0.7023579,-0.67192906
1.136,3.1404016,-6.18435,4.45649,4.1092105,-0.7603264,-0.66751426
1.138,3.0960586,-6.2757955,4.546531,4.1173196,-0.8180022,-0.6626686
1.14,3.0591378,-6.369047,4.6358337,4.12491,-0.87486684,-0.6572491
1.142,3.0305593,-6.4634776,4.7230144,4.1321626,-0.9304542,-0.6511351
1.144,3.011012,-6.5585985,4.8068485,4.1392713,-0.9843123,-0.64422476
1.146,3.0011492,-6.6539636,4.8860636,4.1464043,-1.0359966,-0.6364184
1.148,3.0018997,-6.749316,4.9596567,4.1537066,-1.0851033,-0.62762773
1.15,3.0137172,-6.844318,5.0265045,4.161286,-1.1312433,-0.61777043
1.152,3.0368109,-6.938593,5.085719,4.169208,-1.1740572,-0.6067704
1.154,3.0716932,-7.0319843,5.136429,4.177489,-1.2132686,-0.5945927
1.156,3.1186905,-7.124445,5.1777525,4.18609,-1.2487302,-0.58117706
1.158,3.1779447,-7.215965,5.208911,4.1949224,-1.2804495,-0.5664913
1.16,3.2494533,-7.3065314,5.2293835,4.203852,-1.3085963,-0.5505118
1.162,3.3332183,-7.396165,5.238728,4.212755,-1.3334785,-0.53323656
1.164,3.4289248,-7.4849205,5.2368245,4.221497,-1.355515,-0.5146786
1.166,3.5360446,-7.57279,5.2236433,4.229968,-1.3751632,-0.4948422
1.168,3.653758,-7.659583,5.1992474,4.2380958,-1.3928847,-0.4737159
1.17,3.778998,-7.74432,5.1626163,4.2458525,-1.4091313,-0.45130557
1.172,3.9110901,-7.826948,5.113863,4.253249,-1.4243028,-0.4276263
1.174,4.0482173,-7.9072075,5.053706,4.2603354,-1.4387411,-0.402668
1.176,4.1915827,-7.9865403,4.984703,4.26715,-1.4527211,-0.37644255
1.178,4.3453493,-8.067171,4.904726,4.2737727,-1.4664822,-0.34899068
1.18,4.5094166,-8.1478615,4.8087416,4.2802687,-1.4802591,-0.32036954
1.182,4.6794586,-8.227462,4.700757,4.286699,-1.4943087,-0.2906439
1.184,4.851555,-8.304817,4.5869303,4.293106,-1.5088984,-0.259892
1.186,5.0242567,-8.378432,4.46679,4.299496,-1.5243217,-0.2281994
1.188,5.1977487,-8.447797,4.338317,4.305847,-1.5409089,-0.19565529
1.19,5.3722534,-8.512535,4.19995,4.3121033,-1.5589954,-0.16238135
1.192,5.5461216,-8.571588,4.0525646,4.318182,-1.5789214,-0.12850268
1.194,5.7168837,-8.624237,3.8997483,4.323933,-1.6010884,-0.094168454
1.196,5.884192,-8.670729,3.7447536,4.329179,-1.6259403,-0.05953812
1.198,6.0488462,-8.71192,3.5886517,4.3336754,-1.6539936,-0.024813674
1.2,6.2108774,-8.748507,3.432191,4.337159,-1.685852,0.0098042935
1.202,6.369203,-8.780533,3.2768807,4.339371,-1.7221532,0.044143334
1.204,6.5229545,-8.807539,3.1244502,4.339966,-1.7637535,0.078052685
1.206,6.6723986,-8.829118,2.9764097,4.3388634,-1.8109266,0.111486286
1.208,6.818297,-8.845183,2.833949,4.336589,-1.862577,0.14477539
1.21,6.9610686,-8.855455,2.6987767,4.3334875,-1.9182628,0.17807448
1.212,7.101266,-8.859614,2.5715299,4.3297186,-1.9780405,0.21156017
1.214,7.240606,-8.85782,2.4503353,4.3262196,-2.0401266,0.24602716
1.216,7.3813725,-8.849812,2.3328147,4.3245716,-2.1013308,0.28264907
1.218,7.523694,-8.835204,2.22021,4.326722,-2.1577463,0.32278395
1.22,7.668065,-8.81424,2.1153448,4.334865,-2.2049334,0.3680259
1.222,7.8165865,-8.78797,2.0187707,4.351294,-2.2382843,0.42009652
1.224,7.9714193,-8.758262,1.9293995,4.3783584,-2.2529306,0.48076615
1.226,8.133719,-8.726784,1.8456289,4.418375,-2.243784,0.551705
1.228,8.303517,-8.694366,1.7657123,4.473169,-2.206459,0.63419175
1.23,8.4804945,-8.661576,1.6880116,4.543702,-2.1381826,0.72896516
1.232,8.664196,-8.629144,1.6110333,4.629977,-2.0379415,0.8361557
1.234,8.853454,-8.597578,1.5328429,4.731115,-1.9064062,0.9552264
1.236,9.046449,-8.567252,1.4517764,4.8453126,-1.7460032,1.084928
1.238,9.240538,-8.53802,1.3661499,4.969926,-1.5608388,1.2233468
1.24,9.433013,-8.50923,1.2743149,5.10165,-1.3562752,1.3681222
1.242,9.621046,-8.4799385,1.1747754,5.236848,-1.1383078,1.5167553
1.244,9.801471,-8.448446,1.0663631,5.3718796,-0.912856,1.6669416
1.246,9.970793,-8.413035,0.94808817,5.503083,-0.6861347,1.8166559
1.248,10.12521,-8.371407,0.8193053,5.626984,-0.46422303,1.9642853
1.25,10.261432,-8.321206,0.67988825,5.7408237,-0.25195676,2.108787
1.252,10.376104,-8.25983,0.53012395,5.8425674,-0.053020194,2.249714
1.254,10.466304,-8.18454,0.37055445,5.930755,0.12952586,2.387093
1.256,10.529343,-8.092765,0.20252788,6.004632,0.2931892,2.5212965
1.258,10.563042,-7.9819536,0.027715087,6.0642047,0.43607944,2.6527982
1.26,10.565958,-7.8500757,-0.15182531,6.109913,0.5562327,2.7817972
1.262,10.537382,-7.695237,-0.3338194,6.142397,0.65153277,2.9079392
1.264,10.477122,-7.5161767,-0.5155816,6.163059,0.7214861,3.0307283
1.266,10.38608,-7.312402,-0.69445515,6.17341,0.7660663,3.1492567
1.268,10.265377,-7.0839734,-0.86755913,6.1741047,0.7838962,3.2619529
1.27,10.116663,-6.831638,-1.032105,6.1654015,0.7738176,3.3672636
1.272,9.941521,-6.556727,-1.1850202,6.14743,0.73567045,3.463987
1.274,9.742442,-6.261226,-1.3237907,6.120161,0.67002904,3.5512116
1.276,9.522518,-5.9476194,-1.4461122,6.0833755,0.57806015,3.6284978
1.278,9.285191,-5.6189713,-1.54984,6.0367107,0.46098143,3.6958697
1.28,9.035567,-5.2792134,-1.6323906,5.9798265,0.31991628,3.7537696
1.282,8.776035,-4.9312353,-1.6931508,5.9127555,0.15643016,3.802996
1.284,8.510271,-4.578477,-1.7320775,5.836058,-0.02736342,3.844501
1.286,8.2388525,-4.2227974,-1.7506349,5.7506776,-0.2292667,3.8792143
1.288,7.9612207,-3.86604,-1.7460132,5.657812,-0.4472897,3.907974
1.29,7.6824303,-3.5133362,-1.7145796,5.558942,-0.67948794,3.9315405
1.292,7.409784,-3.1685624,-1.6620356,5.4557514,-0.92385846,3.9505649
1.294,7.1483674,-2.8346655,-1.5938437,5.350009,-1.178383,3.9655256
1.296,6.8998137,-2.514012,-1.5081096,5.2433553,-1.4411287,3.9767704
1.298,6.6643114,-2.2072423,-1.4025894,5.13721,-1.7103235,3.9845443
1.3,6.4424977,-1.9145014,-1.2767582,5.032908,-1.983701,3.9891653
1.302,6.2368116,-1.636118,-1.132726,4.9315352,-2.258993,3.991063
1.304,6.049177,-1.3718069,-0.97423,4.833672,-2.5346859,3.9906616
1.306,5.879237,-1.1202933,-0.802948,4.739681,-2.8094006,3.9883382
1.308,5.725591,-0.8799464,-0.6180608,4.649906,-3.0814815,3.98438
1.31,5.5878224,-0.64980865,-0.41878927,4.5645857,-3.3492398,3.9789622
1.312,5.4664154,-0.42957783,-0.20512164,4.483854,-3.6110802,3.9722395
1.314,5.3613176,-0.21935242,0.022666931,4.40782,-3.86549,3.964416
1.316,5.2710485,-0.019010782,0.26477957,4.3366227,-4.111022,3.9556947
1.318,5.193758,0.17205298,0.5213598,4.270459,-4.34615,3.9462867
1.32,5.127341,0.3544302,0.7920817,4.209591,-4.5692434,3.9363885
1.322,5.0698876,0.5286355,1.0771589,4.154243,-4.778655,3.9262197
1.324,5.017862,0.6957462,1.3781544,4.104508,-4.9728622,3.9160964
1.326,4.967876,0.8562367,1.6953683,4.0603437,-5.1504974,3.9064333
1.328,4.9183135,1.0107442,2.0249937,4.021558,-5.3104258,3.89775
1.33,4.866818,1.160366,2.3622553,3.9878392,-5.4518056,3.8905737
1.332,4.8097773,1.3066589,2.7050374,3.9587212,-5.5742044,3.8853521
1.334,4.7441673,1.4513097,3.0525255,3.9336119,-5.6776376,3.8824105
1.336,4.668194,1.5952427,3.4034777,3.911862,-5.7626185,3.8819377
1.338,4.5807776,1.7385083,3.7561903,3.8928056,-5.8301344,3.8839633
1.34,4.4806805,1.8809539,4.108079,3.875765,-5.8815556,3.8883088
1.342,4.3666825,2.0228071,4.4566245,3.860137,-5.9185557,3.8946073
1.344,4.238052,2.1641788,4.799564,3.8454087,-5.9429836,3.902329
1.346,4.0946746,2.305111,5.1345243,3.831201,-5.956725,3.910837
1.348,3.936777,2.4453878,5.4594755,3.8172584,-5.9616246,3.919479
1.35,3.7647002,2.5845537,5.772852,3.8034582,-5.959356,3.9275923
1.352,3.578766,2.7222424,6.073223,3.7897973,-5.951318,3.9345977
1.354,3.3800125,2.857946,6.3593864,3.7763958,-5.938598,3.9400585
1.356,3.169662,2.9915826,6.6305876,3.7634404,-5.921958,3.9436798
1.358,2.9498267,3.1223817,6.886001,3.751139,-5.9018235,3.9453857
1.36,2.7220984,3.2502632,7.125056,3.739699,-5.878331,3.945339
1.362,2.4883747,3.3748114,7.347554,3.7293272,-5.851333,3.9439375
1.364,2.2503824,3.4955168,7.553793,3.7201815,-5.8204756,3.9417193
1.366,2.0099516,3.6120837,7.7440267,3.712407,-5.785217,3.9392614
1.368,1.768772,3.7241783,7.918732,3.706143,-5.7448525,3.9370835
1.37,1.5285895,3.831678,8.078515,3.701526,-5.6986027,3.9356468
1.372,1.2909862,3.9341002,8.224071,3.6986632,-5.6457076,3.9353037
1.374,1.0570043,4.0314846,8.356008,3.6976438,-5.585487,3.9362772
1.376,0.8273963,4.123971,8.4749775,3.6985464,-5.5174,3.938714
1.378,0.6031984,4.211654,8.581598,3.7014136,-5.4410205,3.9426708
1.38,0.3853376,4.294654,8.676168,3.7062383,-5.3560634,3.9481955
1.382,0.17484808,4.3732185,8.758583,3.7129664,-5.262439,3.955362
1.384,-0.02767545,4.447669,8.828776,3.7214653,-5.1602206,3.9642935
1.386,-0.22234207,4.5184717,8.886511,3.7315364,-5.0496435,3.975153
1.388,-0.40928054,4.5861874,8.93144,3.7428968,-4.9311247,3.9880917
1.39,-0.5890037,4.651471,8.963292,3.755222,-4.8051996,4.003211
1.392,-0.7621731,4.714943,8.982197,3.768145,-4.672523,4.0205584
1.394,-0.9296943,4.7773685,8.987884,3.7812924,-4.533886,4.0401006
1.396,-1.0917978,4.83932,8.980065,3.7942524,-4.3902164,4.0617566
1.398,-1.2489946,4.901296,8.958267,3.8065944,-4.242592,4.0853925
1.4,-1.401423,4.963648,8.921928,3.8178816,-4.0922704,4.11081
1.402,-1.5491428,5.0268693,8.870068,3.8276742,-3.9406292,4.13773
1.404,-1.692342,5.091454,8.802058,3.8355513,-3.7892098,4.165819
1.406,-1.8310944,5.1577086,8.717412,3.8410807,-3.6396844,4.1946764
1.408,-1.965856,5.226174,8.6157875,3.8438566,-3.4937856,4.223851
1.41,-2.0967865,5.2972617,8.497003,3.8435225,-3.3532333,4.2528563
1.412,-2.2240899,5.37133,8.361301,3.8398104,-3.2196622,4.2811475
1.414,-2.347392,5.448709,8.208908,3.832592,-3.094507,4.3081884
1.416,-2.4664865,5.529778,8.040093,3.821849,-2.9789212,4.3334594
1.418,-2.5810885,5.6147423,7.8554025,3.8077326,-2.8737288,4.356513
1.42,-2.691082,5.7040753,7.6554747,3.7905269,-2.779376,4.3770356
1.422,-2.7965431,5.798207,7.4415035,3.7706208,-2.6959276,4.394847
1.424,-2.897927,5.8975625,7.2150364,3.7484636,-2.623095,4.409886
1.426,-2.9956443,6.0025473,6.977888,3.7245495,-2.5602665,4.4222207
1.428,-3.0903366,6.113601,6.7322564,3.699358,-2.506576,4.4320035
1.43,-3.1825576,6.2310176,6.480367,3.6733158,-2.4609628,4.4394484
1.432,-3.2731,6.355117,6.224326,3.6468108,-2.422229,4.4447894
1.434,-3.362399,6.486013,5.965909,3.6201746,-2.389085,4.448218
1.436,-3.4513361,6.6239944,5.7068734,3.5936496,-2.360224,4.449874
1.438,-3.5408444,6.769221,5.448686,3.5674324,-2.3343577,4.449826
1.44,-3.6321652,6.921875,5.192741,3.5416677,-2.3102396,4.4481273
1.442,-3.7270412,7.0822387,4.940543,3.5164754,-2.286669,4.4447827
1.444,-3.8273618,7.2503834,4.6933527,3.491933,-2.2625577,4.4398365
1.446,-3.9345195,7.426202,4.4523087,3.46809,-2.2369416,4.4333572
1.448,-4.0497437,7.609462,4.2182016,3.444978,-2.2090223,4.4254546
1.45,-4.1735334,7.7996235,3.991682,3.4226308,-2.1782157,4.4162593
1.452,-4.306571,7.9962444,3.772978,3.4010835,-2.1441548,4.405927
1.454,-4.449137,8.198754,3.5618505,3.3803725,-2.1067111,4.3946257
1.456,-4.6012697,8.406484,3.3579042,3.3605616,-2.0659924,4.3825006
1.458,-4.76304,8.618772,3.1602273,3.341752,-2.022294,4.3696237
1.46,-4.9341574,8.835197,2.967869,3.3240898,-1.9760742,4.355977
1.462,-5.1139827,9.055207,2.7799547,3.3077614,-1.9279255,4.3414774
1.464,-5.301814,9.278144,2.5953891,3.2929537,-1.878531,4.3260064
1.466,-5.4963274,9.50336,2.4130464,3.2798889,-1.8286226,4.3094068
1.468,-5.6961555,9.730293,2.231948,3.2687395,-1.77894,4.2915325
1.47,-5.8994036,9.95823,2.0510087,3.2596884,-1.7302032,4.27223
1.472,-6.103832,10.186553,1.8690045,3.252861,-1.6830857,4.251329
1.474,-6.3068824,10.415033,1.6843965,3.2483046,-1.638235,4.228629
1.476,-6.506409,10.643282,1.4957733,3.2460167,-1.5963111,4.2038994
1.478,-6.7000213,10.871019,1.3018454,3.2458923,-1.5580096,4.17685
1.48,-6.8855376,11.0981045,1.101539,3.2477522,-1.5240858,4.1471243
1.482,-7.0610723,11.324535,0.89384866,3.2513566,-1.4953628,4.1143055
1.484,-7.2246413,11.550401,0.67818666,3.256419,-1.4727412,4.077916
1.486,-7.374688,11.776027,0.45409465,3.262591,-1.4572291,4.037445
1.488,-7.510013,12.001707,0.22153068,3.2694802,-1.4499341,3.9923806
1.49,-7.630023,12.227906,-0.019013554,3.2767148,-1.4519558,3.9422333
1.492,-7.7347455,12.455265,-0.26652232,3.2839367,-1.4643109,3.8865714
1.494,-7.8246117,12.684473,-0.51960593,3.2908397,-1.4878404,3.8250089
1.496,-7.900207,12.91608,-0.77674246,3.2971787,-1.5231192,3.7572558
1.498,-7.9623594,13.15065,-1.0362695,3.302761,-1.5704122,3.683066
1.5,-8.012376,13.388804,-1.2966104,3.3074646,-1.629604,3.6022859
1.502,-8.05169,13.630913,-1.5562623,3.3112364,-1.7001483,3.5148294
1.504,-8.081818,13.877502,-1.8135953,3.3141065,-1.7811043,3.420664
1.506,-8.104782,14.128869,-2.0667505,3.3161612,-1.8711932,3.3198104
1.508,-8.122434,14.3852215,-2.313519,3.3175282,-1.9689149,3.2123308
1.51,-8.1372795,14.6468935,-2.5512195,3.31837,-2.0726557,3.0983405
1.512,-8.151663,14.913873,-2.7766805,3.3188887,-2.1807861,2.9779975
1.514,-8.16757,15.18589,-2.9871535,3.3192601,-2.2917862,2.8514962
1.516,-8.186569,15.462487,-3.180048,3.3196433,-2.4043553,2.7190669
1.518,-8.210003,15.742983,-3.352484,3.3201375,-2.517509,2.5809739
1.52,-8.238758,16.026724,-3.5015945,3.32075,-2.6306274,2.437519
1.522,-8.273683,16.313004,-3.6250782,3.321392,-2.7434797,2.289009
1.524,-8.31538,16.601141,-3.7204714,3.3218718,-2.8562064,2.1357636
1.526,-8.363984,16.890314,-3.7854996,3.321899,-2.969304,1.9780641
1.528,-8.419271,17.179668,-3.817699,3.3211145,-3.0835042,1.816125
1.53,-8.480289,17.46828,-3.81462,3.3191075,-3.1996882,1.6500969
1.532,-8.546052,17.75497,-3.7740774,3.3154736,-3.3187523,1.4800935
1.534,-8.61529,18.038757,-3.693798,3.3098125,-3.441525,1.306227
1.536,-8.686631,18.318542,-3.5712388,3.301758,-3.5686698,1.1286259
1.538,-8.758534,18.593237,-3.4037886,3.2909951,-3.700609,0.9474826
1.54,-8.829502,18.861807,-3.188559,3.2772858,-3.8374593,0.76308036
1.542,-8.897946,19.123358,-2.9226952,3.2604373,-3.9789364,0.57577395
1.544,-8.962499,19.376959,-2.6033006,3.2402833,-4.124441,0.38600656
1.546,-9.02168,19.62171,-2.2282126,3.216649,-4.2732306,0.1943204
1.548,-9.074059,19.85661,-1.795758,3.1893497,-4.4244685,0.0013168678
1.55,-9.118592,20.080744,-1.3046225,3.1582124,-4.577297,-0.19243398
1.552,-9.15423,20.293371,-0.7544633,3.1230628,-4.730885,-0.3864388
1.554,-9.180367,20.493675,-0.14587116,3.0837064,-4.8845325,-0.5803322
1.556,-9.196933,20.680962,0.51974344,3.0399756,-5.0376635,-0.77386606
1.558,-9.20403,20.854553,1.2401564,2.991724,-5.1897683,-0.96691597
1.56,-9.202703,21.01406,2.0123968,2.9388711,-5.340315,-1.1594831
1.562,-9.193863,21.159018,2.832759,2.8813796,-5.48863,-1.3516742
1.564,-9.178951,21.289116,3.6968951,2.8192437,-5.6338515,-1.5436611
1.566,-9.159781,21.40409,4.599362,2.7524729,-5.7748475,-1.7356261
1.568,-9.137928,21.503489,5.5339932,2.681151,-5.9101977,-1.9277047
1.57,-9.1156025,21.587069,6.493843,2.6053762,-6.038204,-2.119992
1.572,-9.094965,21.654816,7.4714537,2.5253253,-6.1570067,-2.3125215
1.574,-9.078415,21.706907,8.459183,2.4412334,-6.2646685,-2.5052748
1.576,-9.068495,21.743614,9.449173,2.3534193,-6.3593516,-2.698217
1.578,-9.06785,21.765648,10.433451,2.2622604,-6.439384,-2.891291
1.58,-9.078825,21.773535,11.404402,2.168218,-6.503339,-3.0844069
1.582,-9.103891,21.768353,12.3549385,2.0718033,-6.550086,-3.2774673
1.584,-9.145417,21.75098,13.27849,1.973572,-6.5787344,-3.4703631
1.586,-9.204893,21.72253,14.169245,1.8740637,-6.588613,-3.6629643
1.588,-9.284092,21.684345,15.022001,1.773782,-6.579212,-3.855081
1.59,-9.384127,21.637672,15.832384,1.6731851,-6.5501404,-4.046419
1.592,-9.505668,21.584087,16.596756,1.572613,-6.5011024,-4.2366
1.594,-9.649138,21.525085,17.312439,1.472281,-6.4319344,-4.4251957
1.596,-9.814574,21.462154,17.97742,1.3722866,-6.3426766,-4.6116977
1.598,-10.00144,21.396923,18.590153,1.2726288,-6.2335663,-4.7955694
1.6,-10.208653,21.330868,19.149569,1.1732297,-6.1051235,-4.9762826
1.602,-10.434349,21.26509,19.655024,1.0739944,-5.958168,-5.1533365
1.604,-10.673196,21.19777,20.106113,0.9748349,-5.79385,-5.326277
1.606,-10.931331,21.135366,20.501907,0.875751,-5.613654,-5.4947457
1.608,-11.200605,21.076109,20.84711,0.7768557,-5.419259,-5.658489
1.61,-11.476069,21.020353,21.140808,0.6783602,-5.212558,-5.817416
1.612,-11.756813,20.968443,21.38496,0.58058786,-4.995548,-5.971567
1.614,-12.037463,20.919374,21.581852,0.48394513,-4.7702837,-6.1211233
1.616,-12.31523,20.87324,21.7333,0.3889227,-4.538824,-6.266425
1.618,-12.585342,20.828747,21.841213,0.29601717,-4.303171,-6.407936
1.62,-12.843073,20.784336,21.90736,0.2056973,-4.0652823,-6.546269
1.622,-13.083536,20.738274,21.933289,0.11833191,-3.8270772,-6.6821218
1.624,-13.301984,20.688538,21.92108,0.034222126,-3.5904179,-6.8162665
1.626,-13.493718,20.633045,21.872765,-0.046478033,-3.357094,-6.949497
1.628,-13.654125,20.569374,21.790176,-0.12368512,-3.1288152,-7.082569
1.63,-13.779013,20.494888,21.675179,-0.197407,-2.9071457,-7.216176
1.632,-13.864549,20.406914,21.530252,-0.2676673,-2.6934783,-7.350873
1.634,-13.907462,20.302788,21.35757,-0.33457828,-2.4890127,-7.4868026
1.636,-13.905005,20.180012,21.15944,-0.3984537,-2.295306,-7.624213
1.638,-13.855072,20.03622,20.937664,-0.45941496,-2.112914,-7.763289
1.64,-13.756311,19.869247,20.693924,-0.51753354,-1.9421105,-7.904065
1.642,-13.607772,19.677319,20.429384,-0.573148,-1.7834861,-8.046286
1.644,-13.408998,19.458857,20.145016,-0.62649655,-1.6372309,-8.189594
1.646,-13.160237,19.212822,19.841263,-0.6778319,-1.5033484,-8.3336315
1.648,-12.862192,18.938263,19.518353,-0.72746706,-1.3817959,-8.478062
1.65,-12.516369,18.634924,19.176567,-0.77569723,-1.2724824,-8.622635
1.652,-12.124737,18.302532,18.816214,-0.8227966,-1.1753423,-8.767218
1.654,-11.690018,17.941315,18.437656,-0.8689929,-1.0902967,-8.911852
1.656,-11.2151785,17.55177,18.041574,-0.9144472,-1.0172977,-9.056713
1.658,-10.703766,17.135109,17.628916,-0.9592556,-0.9563284,-9.202106
1.66,-10.1593,16.692616,17.200647,-1.0034494,-0.9073243,-9.348407
1.662,-9.58572,16.225935,16.758144,-1.0470421,-0.8702073,-9.496
1.664,-8.986441,15.737095,16.303,-1.0900178,-0.8447931,-9.645191
1.666,-8.364962,15.228227,15.836799,-1.1323943,-0.8308387,-9.79614
1.668,-7.724839,14.701863,15.361322,-1.1742449,-0.8280306,-9.948818
1.67,-7.0694156,14.160715,14.878646,-1.2157078,-0.8359332,-10.102999
1.672,-6.4019256,13.6076145,14.39129,-1.2569606,-0.8540182,-10.258286
1.674,-5.725073,13.045727,13.902342,-1.2982228,-0.8816714,-10.414146
1.676,-5.04104,12.477993,13.41524,-1.3397305,-0.91816854,-10.569964
1.678,-4.3520536,11.907644,12.933704,-1.3817089,-0.96270895,-10.725092
1.68,-3.65979,11.337882,12.461257,-1.4243202,-1.0143905,-10.878843
1.682,-2.9660919,10.771957,12.001377,-1.4676623,-1.0722003,-11.030561
1.684,-2.2720664,10.213187,11.55747,-1.5117464,-1.1350298,-11.179587
1.686,-1.5787101,9.664816,11.133039,-1.5565102,-1.2017245,-11.325307
1.688,-0.8867216,9.129848,10.731313,-1.6017572,-1.2710886,-11.467266
1.69,-0.19688368,8.611179,10.355188,-1.6471207,-1.341598,-11.604698
1.692,0.49027634,8.111435,10.007099,-1.6924125,-1.412632,-11.736916
1.694,1.1746024,7.633027,9.689185,-1.7373078,-1.4833865,-11.863382
1.696,1.8556755,7.1778874,9.403026,-1.7812124,-1.5526943,-11.983835
1.698,2.533493,6.747601,9.149743,-1.8236818,-1.6199579,-12.098059
1.7,3.2077131,6.3435645,8.929801,-1.8642188,-1.6847773,-12.2059
1.702,3.8780398,5.9666805,8.743231,-1.9022771,-1.7468905,-12.307294
1.704,4.5443683,5.6175904,8.589434,-1.937391,-1.8062134,-12.402342
1.706,5.206528,5.296465,8.467763,-1.9691436,-1.862781,-12.491254
1.708,5.8644176,5.0031886,8.377249,-1.9971989,-1.9167738,-12.574258
1.71,6.5177155,4.737273,8.316843,-2.0213335,-1.9685426,-12.651594
1.712,7.16571,4.498081,8.285607,-2.041397,-2.0186343,-12.723497
1.714,7.8053856,4.2868495,8.282537,-2.0573454,-2.06783,-12.790178
1.716,8.444058,4.097143,8.307342,-2.0692418,-2.117118,-12.851861
1.718,9.074255,3.931116,8.355228,-2.077258,-2.1677275,-12.90873
1.72,9.694146,3.7876632,8.427567,-2.0816708,-2.221064,-12.960981
1.722,10.305799,3.6654682,8.52276,-2.082851,-2.278656,-13.008816
1.724,10.906917,3.5636294,8.639193,-2.0812602,-2.3420758,-13.052422
1.726,11.497902,3.480301,8.77597,-2.0774245,-2.4128337,-13.091978
1.728,12.076932,3.4149828,8.932594,-2.07193,-2.4922652,-13.127633
1.73,12.642819,3.3669062,9.108717,-2.0653725,-2.5814648,-13.159517
1.732,13.194332,3.3354707,9.304439,-2.0583878,-2.6812973,-13.187744
1.734,13.729679,3.3204517,9.519771,-2.0515764,-2.792328,-13.212408
1.736,14.2472315,3.321599,9.754913,-2.0455284,-2.9148774,-13.233587
1.738,14.74586,3.3389957,10.0099745,-2.0408013,-3.0490332,-13.251362
1.74,15.22442,3.372882,10.285173,-2.0379567,-3.1947398,-13.265825
1.742,15.68165,3.4237905,10.580683,-2.0375345,-3.3518095,-13.277071
1.744,16.11658,3.492382,10.897095,-2.0400426,-3.5200162,-13.285193
1.746,16.528292,3.5794015,11.234655,-2.0459943,-3.699151,-13.290245
1.748,16.916267,3.6856737,11.593372,-2.0559092,-3.889102,-13.292343
1.75,17.28065,3.8117104,11.973158,-2.0703096,-4.089853,-13.291611
1.752,17.622206,3.9579785,12.37413,-2.0896285,-4.301422,-13.288187
1.754,17.942017,4.1247997,12.796219,-2.114283,-4.5238924,-13.28223
1.756,18.241667,4.3122845,13.239548,-2.1445894,-4.7574816,-13.273945
1.758,18.523258,4.5202765,13.704191,-2.1807323,-5.002332,-13.263563
1.76,18.789587,4.7483363,14.189619,-2.2227318,-5.2584743,-13.25133
1.762,19.044136,4.9960594,14.695244,-2.2704577,-5.5257463,-13.237525
1.764,19.291317,5.261974,15.2205515,-2.3235908,-5.8037376,-13.222397
1.766,19.535208,5.545101,15.764551,-2.3816476,-6.0917606,-13.206128
1.768,19.780966,5.8436117,16.326185,-2.444045,-6.388889,-13.188839
1.77,20.033688,6.1556897,16.904152,-2.5100598,-6.693987,-13.170559
1.772,20.298866,6.478674,17.497295,-2.578906,-7.005778,-13.151219
1.774,20.581503,6.8099422,18.104408,-2.649828,-7.3229556,-13.130654
1.776,20.886581,7.146688,18.724564,-2.722146,-7.6442547,-13.108606
1.778,21.218884,7.485985,19.356655,-2.7952852,-7.968505,-13.084724
1.78,21.583096,7.8246503,19.999279,-2.8688388,-8.294661,-13.058558
1.782,21.98314,8.159664,20.650627,-2.9425635,-8.62183,-13.02962
1.784,22.421885,8.488064,21.309032,-3.0163684,-8.949275,-12.997379
1.786,22.901121,8.807226,21.972893,-3.0902877,-9.276302,-12.961293
1.788,23.421864,9.114499,22.6409,-3.1644454,-9.602229,-12.92084
1.79,23.984333,9.407459,23.311974,-3.2389889,-9.926343,-12.875561
1.792,24.587742,9.684007,23.98508,-3.3140326,-10.24791,-12.825046
1.794,25.230196,9.942215,24.658903,-3.389585,-10.566067,-12.768965
1.796,25.908993,10.180592,25.332096,-3.4655313,-10.879954,-12.707111
1.798,26.620659,10.397993,26.003775,-3.541685,-11.188726,-12.639428
1.8,27.361122,10.593878,26.6731,-3.6176553,-11.491509,-12.56604
1.802,28.12592,10.767698,27.339664,-3.6929138,-11.787413,-12.487125
1.804,28.910065,10.919424,28.002922,-3.7668025,-12.075597,-12.402953
1.806,29.708637,11.049523,28.662209,-3.8385742,-12.355288,-12.313846
1.808,30.517439,11.158296,29.317116,-3.907364,-12.625691,-12.220189
1.81,31.332558,11.2466755,29.9673,-3.9722457,-12.88596,-12.122339
1.812,32.15013,11.315811,30.612446,-4.032283,-13.135391,-12.020641
1.814,32.968014,11.365181,31.252064,-4.086531,-13.373334,-11.915383
1.816,33.783154,11.395773,31.885574,-4.1340218,-13.599262,-11.806747
1.818,34.593136,11.409103,32.512623,-4.17382,-13.812806,-11.694771
1.82,35.397396,11.40588,33.132633,-4.2050443,-14.013725,-11.579393
1.822,36.196354,11.386541,33.744324,-4.22683,-14.201916,-11.460405
1.824,36.99112,11.351675,34.346447,-4.2383924,-14.377397,-11.337477
1.826,37.783577,11.301687,34.937664,-4.2389746,-14.5402355,-11.2101555
1.828,38.576355,11.237002,35.51664,-4.2278295,-14.690507,-11.077894
1.83,39.37283,11.15779,36.08235,-4.2042594,-14.8281975,-10.940109
1.832,40.17674,11.063971,36.63358,-4.1675596,-14.953122,-10.796208
1.834,40.991806,10.955917,37.169533,-4.1170645,-15.06488,-10.645584
1.836,41.82219,10.833359,37.689377,-4.052145,-15.162889,-10.487663
1.838,42.672092,10.696423,38.1918,-3.9722176,-15.246283,-10.32185
1.84,43.54557,10.545034,38.676094,-3.8767138,-15.3141,-10.147606
1.842,44.446327,10.379815,39.14146,-3.7651467,-15.3653345,-9.964487
1.844,45.37796,10.201712,39.58711,-3.6370764,-15.398959,-9.771935
1.846,46.34355,10.0117,40.012726,-3.4921873,-15.414069,-9.569292
1.848,47.34562,9.811033,40.41852,-3.3302393,-15.409894,-9.355927
1.85,48.386242,9.601724,40.8048,-3.1510262,-15.385728,-9.131145
1.852,49.467472,9.386225,41.17186,-2.9544196,-15.341115,-8.894058
1.854,50.59028,9.167578,41.52069,-2.7404337,-15.27597,-8.643673
1.856,51.754997,8.949609,41.853172,-2.5091262,-15.190534,-8.378958
1.858,52.961494,8.736723,42.172264,-2.2606525,-15.085386,-8.098926
1.86,54.208725,8.534412,42.480923,-1.9952767,-14.961478,-7.802648
1.862,55.49576,8.348944,42.782288,-1.7133658,-14.820201,-7.4893317
1.864,56.821182,8.18697,43.079582,-1.4153957,-14.663394,-7.1583176
1.866,58.184204,8.055549,43.376667,-1.1019425,-14.493316,-6.809164
1.868,59.582573,7.963227,43.677414,-0.77367115,-14.312647,-6.441631
1.87,61.014347,7.9194846,43.986324,-0.43130898,-14.124355,-6.055665
1.872,62.477745,7.9336042,44.307552,-0.075573206,-13.931523,-5.651396
1.874,63.970074,8.017035,44.644333,0.29286623,-13.737348,-5.229063
1.876,65.48953,8.180796,44.998585,0.67339253,-13.544968,-4.7889576
1.878,67.035706,8.436474,45.375244,1.0655866,-13.357195,-4.331321
1.88,68.59911,8.804575,45.772675,1.4692204,-13.176326,-3.8562956
1.882,70.17956,9.293297,46.199303,1.8841951,-13.004147,-3.363853
1.884,71.78189,9.906982,46.66738,2.310474,-12.842005,-2.8538241
1.886,73.4016,10.667341,47.17931,2.7479386,-12.690879,-2.325922
1.888,75.03516,11.6013365,47.72976,3.1962934,-12.55138,-1.7796469
1.89,76.68215,12.728615,48.316994,3.654945,-12.423865,-1.2142787
1.892,78.341255,14.072694,48.9403,4.122887,-12.308631,-0.6289824
1.894,80.01458,15.656232,49.598267,4.598681,-12.205989,-0.022796988
1.896,81.69708,17.506498,50.29652,5.080389,-12.116355,0.6053797
1.898,83.37571,19.65268,51.03667,5.56561,-12.040251,1.2566242
1.9,85.048706,22.099705,51.822433,6.0516915,-11.977997,1.9320016
1.902,86.7194,24.8564,52.657356,6.535618,-11.929876,2.6327517
1.904,88.365204,27.958515,53.52531,7.0142193,-11.89584,3.360248
1.906,89.98546,31.431492,54.418125,7.4845157,-11.875092,4.1161847
1.908,91.55471,35.310936,55.322487,7.9437227,-11.866346,4.902339
1.91,93.0593,39.60405,56.26354,8.389924,-11.866817,5.720298
1.912,94.49492,44.294884,57.296646,8.820998,-11.873224,6.5716605
1.914,95.77746,49.400146,58.459137,9.234541,-11.881922,7.4593887
1.916,96.83518,54.89748,59.84046,9.630437,-11.885362,8.38792
1.918,97.84752,60.777622,61.380787,10.010313,-11.873943,9.360605
1.92,98.88727,67.021706,63.078613,10.375745,-11.838369,10.379767
1.922,99.95935,73.6051,64.96549,10.727822,-11.768261,11.448034
1.924,101.02359,80.491425,67.06938,11.067192,-11.651629,12.568085
1.926,102.00497,87.647606,69.4265,11.393585,-11.475694,13.741959
1.928,102.9098,95.028046,72.016464,11.706511,-11.226631,14.969698
1.93,103.74664,102.5702,74.86368,12.0051365,-10.888903,16.251442
1.932,104.52909,110.19863,78.08238,12.28712,-10.4461,17.58946
1.934,105.272995,117.81175,81.68916,12.548615,-9.881877,18.984228
1.936,105.99725,125.28359,85.54193,12.783249,-9.180997,20.431997
1.938,106.76263,132.5933,89.62398,12.981199,-8.33216,21.92363
1.94,107.366394,139.91006,94.10916,13.125995,-7.328767,23.443493
1.942,108.1942,146.76917,99.052246,13.193482,-6.169381,24.97759
1.944,109.21615,152.91139,104.551895,13.156491,-4.8539743,26.521275
1.946,110.37661,158.43932,110.39058,12.999992,-3.3710225,28.091782
1.948,111.7008,163.28105,116.47693,12.727711,-1.7064738,29.688381
1.95,113.2964,167.30319,122.75158,12.33799,0.13138485,31.2793
1.952,115.18877,170.4363,129.1384,11.826744,2.1360655,32.858265
1.954,117.41147,172.61264,135.56105,11.196043,4.3074484,34.428673
1.956,120.04569,173.81247,141.89961,10.467407,6.64466,35.994522
1.958,123.09845,174.09439,148.03198,9.677657,9.143005,37.564564
1.96,126.58121,173.4907,153.80666,8.878034,11.791729,39.150562
1.962,130.49536,172.03473,159.05849,8.133816,14.584648,40.7429
1.964,134.79782,169.79681,163.61287,7.5110183,17.52613,42.295864
1.966,139.4318,166.87033,167.30957,7.0539446,20.60401,43.775055
1.968,144.32744,163.36093,170.01003,6.771128,23.709156,45.126514
1.97,149.3872,159.39117,171.59355,6.720363,26.806725,46.231136
1.972,154.49617,155.09273,171.96533,6.9337854,29.850864,46.965176
1.974,159.5256,150.59673,171.06154,7.3473434,32.76041,47.234806
1.976,164.33185,146.03052,168.84996,7.87963,35.446033,46.92975
1.978,168.76343,141.51306,165.32515,8.445447,37.815475,45.94884
1.98,172.6793,137.14362,160.5112,8.937864,39.77076,44.217213
1.982,175.9543,133.00595,154.4697,9.245301,41.21373,41.69925
1.984,178.4651,129.16997,147.30965,9.274311,42.065292,38.406895
1.986,180.10294,125.684685,139.17856,8.965484,42.272785,34.39276
1.988,180.78337,122.575165,130.24747,8.2989025,41.81535,29.73927
1.99,180.45526,119.83817,120.71575,7.2895365,40.704185,24.561428
1.992,179.0835,117.46546,110.78986,5.9798384,38.98179,19.01017
1.994,176.65979,115.43388,100.68486,4.431061,36.717834,13.2662735
1.996,173.21451,113.69115,90.62628,2.7072325,33.99935,7.523442
1.998,168.80344,112.176926,80.83545,0.8592863,30.917778,1.9759059
2,163.5087,110.838005,71.50879,-1.0866833,27.555681,-3.1963382
2.002,157.44022,109.624176,62.816307,-3.1225653,23.995064,-7.8094044
2.004,150.72348,108.49283,54.89945,-5.2304745,20.327677,-11.70384
2.006,143.50359,107.4026,47.862434,-7.3884706,16.624622,-14.809393
2.008,135.93976,106.31951,41.78093,-9.572405,12.944394,-17.115099
2.01,128.17984,105.237885,36.695072,-11.757534,9.348579,-18.657244
2.012,120.36741,104.14824,32.611904,-13.908291,5.902762,-19.51676
2.014,112.66214,103.02299,29.523537,-15.97751,2.6765122,-19.804289
2.016,105.18698,101.856804,27.379059,-17.910618,-0.26375103,-19.629192
2.018,98.071075,100.64305,26.104954,-19.646437,-2.8582935,-19.090506
2.02,91.40814,99.40499,25.575487,-21.119545,-5.0370684,-18.307755
2.022,85.26303,98.17745,25.641672,-22.275682,-6.693551,-17.370466
2.024,79.743866,96.95491,26.183453,-23.140102,-7.84968,-16.312492
2.026,74.89839,95.76189,27.0471,-23.720612,-8.525293,-15.178898
2.028,70.54628,94.59674,28.222315,-23.980902,-8.735293,-14.030914
2.03,66.664444,93.45763,29.618484,-23.937252,-8.528512,-12.893078
2.032,63.29063,92.338005,31.122044,-23.63826,-7.9810867,-11.789455
2.034,60.471424,91.23298,32.642693,-23.127335,-7.1817865,-10.7544
2.036,58.242443,90.12311,34.10183,-22.451565,-6.2281504,-9.831609
2.038,56.532787,88.99366,35.48446,-21.666853,-5.2282667,-9.069434
2.04,55.270462,87.83757,36.7372,-20.833853,-4.2860947,-8.5043745
2.042,54.382812,86.649,37.756126,-20.01093,-3.4911947,-8.149259
2.044,53.801758,85.43377,38.564156,-19.246475,-2.911109,-8.00332
2.046,53.463642,84.20342,39.303474,-18.57795,-2.589233,-8.057538
2.048,53.28112,82.875305,39.953903,-18.03226,-2.5469809,-8.29113
2.05,53.39113,81.26056,40.353085,-17.623722,-2.7840605,-8.668917
2.052,53.39244,79.76395,40.512383,-17.354788,-3.2815604,-9.144089
2.054,53.37895,78.454216,40.421127,-17.218939,-4.0076137,-9.663142
2.056,53.423023,77.080284,40.33515,-17.20273,-4.9219613,-10.171126
2.058,53.49303,75.64581,40.301273,-17.287642,-5.9804697,-10.617088
2.06,53.495644,74.22098,40.310318,-17.452372,-7.138882,-10.958751
2.062,53.435406,72.815056,40.358948,-17.67492,-8.356122,-11.165861
2.064,53.30063,71.4527,40.434772,-17.932121,-9.5953045,-11.222365
2.066,53.040157,70.13245,40.55458,-18.199402,-10.821874,-11.12536
2.068,52.675392,68.81614,40.720684,-18.453878,-12.00532,-10.882452
2.07,52.20731,67.53039,40.949593,-18.676268,-13.121634,-10.509274
2.072,51.63391,66.31639,41.25489,-18.849987,-14.150838,-10.026067
2.074,50.978485,65.19064,41.645523,-18.960949,-15.07585,-9.455114
2.076,50.25217,64.16271,42.11232,-18.997967,-15.882958,-8.818905
2.078,49.45748,63.24204,42.633553,-18.953022,-16.5624,-8.139004
2.08,48.604492,62.42958,43.188927,-18.82127,-17.10836,-7.43544
2.082,47.701,61.721992,43.75853,-18.601116,-17.519054,-6.7260523
2.084,46.753662,61.11653,44.32397,-18.293875,-17.796501,-6.025728
2.086,45.77122,60.608585,44.871006,-17.90322,-17.945847,-5.345395
2.088,44.763012,60.190742,45.39601,-17.434908,-17.975113,-4.692297
2.09,43.72664,59.85968,45.900017,-16.896465,-17.895126,-4.07139
2.092,42.653336,59.609062,46.381073,-16.296734,-17.719072,-3.485798
2.094,41.54813,59.425835,46.825447,-15.645294,-17.461853,-2.937047
2.096,40.416954,59.299557,47.219086,-14.952074,-17.139256,-2.4251204
2.098,39.261307,59.22348,47.553852,-14.226936,-16.767323,-1.948533
2.1,38.083252,59.19253,47.82411,-13.479439,-16.361675,-1.5045462
2.102,36.88622,59.201263,48.02611,-12.71858,-15.93688,-1.0893674
2.104,35.67315,59.24395,48.158333,-11.952565,-15.505844,-0.69855356
2.106,34.44695,59.315033,48.2222,-11.188821,-15.0794735,-0.32731962
2.108,33.209854,59.4091,48.22247,-10.433957,-14.666232,0.029168129
2.11,31.960081,59.520126,48.16735,-9.69371,-14.272023,0.3754444
2.112,30.693615,59.637184,48.06699,-8.972933,-13.900093,0.7154865
2.114,29.408909,59.749695,47.931385,-8.275572,-13.5511675,1.0526214
2.116,28.105888,59.851017,47.770027,-7.6047044,-13.223704,1.3894455
2.118,26.783407,59.93631,47.591393,-6.9625735,-12.914302,1.7279041
2.12,25.442087,60.00218,47.403267,-6.3505406,-12.618007,2.0694098
2.122,24.082754,60.04559,47.212025,-5.7691298,-12.328757,2.4149652
2.124,22.707104,60.06447,47.02222,-5.21809,-12.039804,2.765329
2.126,21.317453,60.057083,46.83747,-4.6965375,-11.744165,3.1210938
2.128,19.917334,60.022297,46.660065,-4.2031455,-11.43499,3.4828167
2.13,18.511024,59.959675,46.490593,-3.7363334,-11.105825,3.850979
2.132,17.103825,59.869347,46.328316,-3.2944548,-10.750879,4.2259607
2.134,15.701651,59.75187,46.17074,-2.8759384,-10.365201,4.608022
2.136,14.309234,59.6088,46.014137,-2.4794607,-9.944852,4.997155
2.138,12.93158,59.441406,45.853516,-2.1039867,-9.486977,5.3929787
2.14,11.572903,59.251316,45.682667,-1.74881,-8.9898205,5.794727
2.142,10.237705,59.039993,45.494682,-1.4135414,-8.452799,6.2011795
2.144,8.930085,58.80904,45.281956,-1.0981123,-7.8763475,6.610676
2.146,7.6544685,58.5605,45.036667,-0.8027079,-7.261855,7.0211678
2.148,6.414389,58.297436,44.751354,-0.52776337,-6.6115685,7.4302597
2.15,5.2137885,58.023293,44.418575,-0.27390623,-5.9284987,7.8352222
2.152,4.056506,57.741512,44.031147,-0.04190755,-5.2162657,8.23311
2.154,2.945581,57.45568,43.58258,0.16739416,-4.4789987,8.620866
2.156,1.8838203,57.169083,43.06716,0.3531611,-3.7213464,8.995408
2.158,0.8730005,56.88461,42.48012,0.5145838,-2.9484239,9.353717
2.16,-0.08614826,56.60468,41.81751,0.65088797,-2.1657596,9.692927
2.162,-0.99357533,56.331947,41.07592,0.7614138,-1.3792715,10.010434
2.164,-1.8499146,56.06865,40.25308,0.845623,-0.5951342,10.303943
2.166,-2.6555533,55.816666,39.347836,0.9031706,0.18036634,10.571521
2.168,-3.4113016,55.577286,38.359516,0.9339707,0.94088626,10.811742
2.17,-4.1178074,55.35092,37.288628,0.9383116,1.6802384,11.023734
2.172,-4.7757587,55.13751,36.136364,0.91689944,2.392613,11.20722
2.174,-5.3855762,54.936245,34.90485,0.87093043,3.0727687,11.362489
2.176,-5.948498,54.746338,33.59703,0.80216277,3.7162943,11.49029
2.178,-6.465417,54.566357,32.216217,0.7128916,4.319825,11.591736
2.18,-6.937319,54.394375,30.765701,0.6059345,4.8812037,11.668134
2.182,-7.3646975,54.22779,29.248842,0.48454452,5.3995442,11.720784
2.184,-7.747513,54.06406,27.66876,0.35233915,5.8752165,11.750921
2.186,-8.085363,53.9001,26.028225,0.21313834,6.309774,11.759585
2.188,-8.37746,53.73233,24.3299,0.07089487,6.7058334,11.747606
2.19,-8.623199,53.55677,22.576221,-0.070456445,7.0668664,11.7156
2.192,-8.821816,53.369682,20.769228,-0.20714423,7.396901,11.664018
2.194,-8.973493,53.16784,18.9107,-0.3356575,7.7002296,11.5931425
2.196,-9.077983,52.94786,17.002445,-0.45284337,7.981077,11.503172
2.198,-9.135329,52.70687,15.045917,-0.55599713,8.243281,11.394281
2.2,-9.145498,52.441994,13.042585,-0.6429157,8.490047,11.266643
2.202,-9.108405,52.150642,10.994176,-0.7120067,8.723659,11.120507
2.204,-9.0248165,51.830654,8.902605,-0.7622856,8.94529,10.9562
2.206,-8.895906,51.4805,6.7702494,-0.79340625,9.1548,10.774133
2.208,-8.723259,51.099102,4.600127,-0.80569947,9.3506565,10.57477
2.21,-8.509409,50.68579,2.3961172,-0.8001846,9.529923,10.358595
2.212,-8.257261,50.24044,0.16311073,-0.7785311,9.688329,10.126077
2.214,-7.970007,49.76309,-2.0924635,-0.7429364,9.820468,9.877631
2.216,-7.651533,49.254227,-4.3627167,-0.69605505,9.920071,9.613556
2.218,-7.3061647,48.71465,-6.6382885,-0.64082444,9.980248,9.33404
2.22,-6.9387093,48.145626,-8.908543,-0.5803236,9.994026,9.039186
2.222,-6.5541754,47.548378,-11.161468,-0.51763797,9.954868,8.728974
2.224,-6.1581,46.924553,-13.383945,-0.45569885,9.857082,8.403347
2.226,-5.755603,46.275795,-15.5618515,-0.397179,9.696181,8.062241
2.228,-5.3519545,45.603745,-17.680664,-0.34436166,9.46928,7.70567
2.23,-4.952277,44.91005,-19.725563,-0.29906118,9.175265,7.3338814
2.232,-4.561617,44.19667,-21.68156,-0.26253664,8.814888,6.947432
2.234,-4.1849794,43.46563,-23.534199,-0.23546684,8.390732,6.547253
2.236,-3.826767,42.7191,-25.269634,-0.21789765,7.907149,6.134687
2.238,-3.490818,41.958996,-26.875252,-0.20931423,7.370026,5.711499
2.24,-3.1804981,41.187424,-28.339811,-0.20857775,6.786573,5.279922
2.242,-2.8984003,40.406467,-29.653662,-0.2140128,6.1650267,4.8425856
2.244,-2.6469555,39.618084,-30.808872,-0.22342944,5.5143347,4.4024706
2.246,-2.4274921,38.824608,-31.79942,-0.2342205,4.8439226,3.9628165
2.248,-2.2405424,38.028526,-32.621536,-0.24345112,4.1633663,3.5270557
2.25,-2.0861492,37.232132,-33.273594,-0.248036,3.4820995,3.0986679
2.252,-1.9636574,36.437855,-33.756317,-0.24490413,2.8091006,2.6810126
2.254,-1.8713293,35.647926,-34.072258,-0.23115316,2.152644,2.2772217
2.256,-1.80727,34.864643,-34.226257,-0.20421593,1.5201122,1.8900625
2.258,-1.7687216,34.090214,-34.22482,-0.16199248,0.91777813,1.5218319
2.26,-1.7531786,33.32692,-34.076115,-0.102947146,0.3507323,1.1743134
2.262,-1.7574415,32.577175,-33.78936,-0.026118293,-0.17719266,0.8487984
2.264,-1.7780371,31.843227,-33.374958,0.06889781,-0.66336375,0.5460746
2.266,-1.8116112,31.12722,-32.844078,0.18196234,-1.1063192,0.26649007
2.268,-1.8543711,30.431044,-32.2083,0.31248558,-1.5056573,0.010002732
2.27,-1.9021778,29.75636,-31.479507,0.45946902,-1.8618541,-0.22373569
2.272,-1.9511347,29.104248,-30.669361,0.62163335,-2.1760817,-0.43528962
2.274,-1.9972706,28.475664,-29.789352,0.79749084,-2.4501028,-0.625452
2.276,-2.0369787,27.871159,-28.850985,0.9854499,-2.6861417,-0.7951789
2.278,-2.0670195,27.291122,-27.865263,1.1838858,-2.8866663,-0.94552755
2.28,-2.0844855,26.736092,-26.842556,1.3912182,-3.0543017,-1.077601
2.282,-2.0867124,26.206545,-25.79277,1.6059216,-3.1917942,-1.1925489
2.284,-2.0707898,25.702415,-24.725357,1.8265398,-3.3019025,-1.2915258
2.286,-2.0341063,25.223337,-23.648888,2.0517395,-3.3873358,-1.3757095
2.288,-1.9741583,24.769009,-22.571098,2.2802846,-3.4507174,-1.4462752
2.29,-1.8890333,24.338758,-21.498655,2.5110373,-3.4945946,-1.5043914
2.292,-1.7772465,23.93219,-20.437454,2.742955,-3.521394,-1.5512283
2.294,-1.6380339,23.548855,-19.392132,2.9750655,-3.5334451,-1.5879441
2.296,-1.4709492,23.188154,-18.36694,3.2064815,-3.5329409,-1.6156651
2.298,-1.2756805,22.849758,-17.365088,3.4363992,-3.5219288,-1.6354764
2.3,-1.0519361,22.53321,-16.389736,3.6641128,-3.5023355,-1.6483883
2.302,-0.80009174,22.238125,-15.44315,3.8889754,-3.4759653,-1.6553286
2.304,-0.52057123,21.964005,-14.526991,4.1104307,-3.4444659,-1.6571325
2.306,-0.21418524,21.710384,-13.6426,4.328024,-3.4093351,-1.6545234
2.308,0.11784649,21.47686,-12.790529,4.5413823,-3.3719506,-1.6481494
2.31,0.47416353,21.263075,-11.971037,4.7502046,-3.3335829,-1.6385932
2.312,0.8529849,21.068699,-11.183723,4.954239,-3.2953546,-1.6264216
2.314,1.2527552,20.89341,-10.42753,5.1532636,-3.258287,-1.6121888
2.316,1.6714721,20.736925,-9.70141,5.3470716,-3.223299,-1.5964816
2.318,2.1069965,20.598885,-9.003919,5.535435,-3.1912065,-1.5799
2.32,2.5572271,20.478992,-8.3334255,5.718101,-3.162728,-1.5630558
2.322,3.0200825,20.376833,-7.688137,5.8947697,-3.1385188,-1.5465784
2.324,3.4932623,20.292057,-7.0663724,6.0651126,-3.1191635,-1.5310946
2.326,3.974708,20.224339,-6.4662952,6.228764,-3.1051335,-1.517206
2.328,4.4621,20.173073,-5.886163,6.3853836,-3.096846,-1.5054219
2.33,4.953253,20.137785,-5.324157,6.5346594,-3.094583,-1.49617
2.332,5.4461026,20.118073,-4.7784314,6.676355,-3.098528,-1.4897566
2.334,5.9388504,20.11324,-4.2475343,6.810343,-3.108745,-1.486376
2.336,6.4294944,20.122713,-3.7298298,6.936616,-3.1251516,-1.4861169
2.338,6.916535,20.145817,-3.2237535,7.0553246,-3.1475272,-1.4889524
2.34,7.3979273,20.182014,-2.727902,7.1667485,-3.1755147,-1.49474
2.342,7.872189,20.230543,-2.2410011,7.271331,-3.2085834,-1.5032513
2.344,8.337868,20.29079,-1.7617083,7.369622,-3.2460442,-1.5141728
2.346,8.7934265,20.361877,-1.28898,7.462262,-3.2870855,-1.5271425
2.348,9.237561,20.44316,-0.8218441,7.549964,-3.3307786,-1.5417869
2.35,9.6691885,20.533655,-0.35915947,7.6334095,-3.3761582,-1.5577538
2.352,10.086996,20.632528,0.09997082,7.7132745,-3.4222617,-1.5747459
2.354,10.48993,20.738935,0.556443,7.790159,-3.4681895,-1.5925438
2.356,10.877333,20.851759,1.0108671,7.864567,-3.5131712,-1.6110315
2.358,11.248093,20.970243,1.4637978,7.936866,-3.5566168,-1.6302166
2.36,11.601501,21.093475,1.9162104,8.00729,-3.5981355,-1.6502135
2.362,11.937291,21.220367,2.3684907,8.075917,-3.637541,-1.6712046
2.364,12.254616,21.349997,2.8210993,8.142711,-3.6747897,-1.693399
2.366,12.5532,21.481253,3.2746563,8.207508,-3.710013,-1.7169693
2.368,12.832634,21.613163,3.7295382,8.270081,-3.7434292,-1.7420204
2.37,13.092816,21.744669,4.1860957,8.330146,-3.7752924,-1.7685432
2.372,13.333627,21.874706,4.644358,8.387398,-3.8058362,-1.7963862
2.374,13.555315,22.002329,5.1043844,8.441564,-3.8352408,-1.825258
2.376,13.758077,22.126574,5.5658646,8.492417,-3.8636098,-1.8547058
2.378,13.942137,22.246635,6.028281,8.539788,-3.8909554,-1.8841455
2.38,14.108169,22.361635,6.4909525,8.583586,-3.9172087,-1.9129317
2.382,14.256683,22.471004,6.9530783,8.623771,-3.9421797,-1.9403741
2.384,14.3885355,22.57417,7.4135957,8.660397,-3.965588,-1.9658072
2.386,14.504402,22.670584,7.8714533,8.6935625,-3.9870987,-1.9885752
2.388,14.605131,22.759974,8.325615,8.723419,-4.0063477,-2.008131
2.39,14.691881,22.841698,8.774584,8.750162,-4.022893,-2.0240583
2.392,14.7655115,22.915367,9.21721,8.773989,-4.036273,-2.036085
2.394,14.827026,22.980625,9.65229,8.795111,-4.0460377,-2.0440724
2.396,14.877642,23.03704,10.078758,8.813733,-4.0517673,-2.0479925
2.398,14.918102,23.08403,10.49556,8.830031,-4.053087,-2.0479462
2.4,14.949371,23.120985,10.9018955,8.844147,-4.049664,-2.0441093
2.402,14.972183,23.14715,11.296957,8.856139,-4.0412645,-2.0367317
2.404,14.987353,23.161768,11.680143,8.866019,-4.0277596,-2.026117
2.406,14.995473,23.164005,12.051408,8.873692,-4.009163,-2.0125852
2.408,14.997126,23.15298,12.410423,8.878992,-3.9856346,-1.9964869
2.41,14.992407,23.127829,12.757758,8.881669,-3.957493,-1.9781935
2.412,14.981531,23.08745,13.093663,8.881382,-3.925201,-1.9580843
2.414,14.964531,23.030764,13.418825,8.877694,-3.8893332,-1.9365699
2.416,14.941452,22.956839,13.733906,8.870087,-3.8505218,-1.9140832
2.418,14.912048,22.864712,14.0396805,8.858002,-3.8093708,-1.8910484
2.42,14.876149,22.753468,14.336931,8.84086,-3.7663891,-1.8679016
2.422,14.833784,22.622276,14.626354,8.818079,-3.721922,-1.8450556
2.424,14.784624,22.470325,14.908159,8.789145,-3.6760879,-1.8228717
2.426,14.728678,22.297216,15.182764,8.753632,-3.6287582,-1.8016431
2.428,14.665913,22.102589,15.449944,8.711245,-3.5795093,-1.7816038
2.43,14.596401,21.886503,15.709585,8.661879,-3.5276809,-1.7629004
2.432,14.52018,21.649252,15.960956,8.605641,-3.4724016,-1.7456043
2.434,14.437586,21.391205,16.203205,8.54286,-3.412693,-1.729697
2.436,14.348975,21.113266,16.435097,8.47407,-3.3475351,-1.7151277
2.438,14.255052,20.816578,16.655033,8.399995,-3.2759476,-1.701812
2.44,14.156607,20.502413,16.861235,8.321503,-3.1970549,-1.6896658
2.442,14.054449,20.17236,17.051603,8.239584,-3.1101313,-1.6785705
2.444,13.949606,19.828346,17.224102,8.155262,-3.0147069,-1.6683831
2.446,13.843292,19.472366,17.376312,8.069566,-2.9105368,-1.658982
2.448,13.736532,19.106789,17.506073,7.983445,-2.79763,-1.650259
2.45,13.631081,18.733892,17.611252,7.8977175,-2.6762486,-1.642107
2.452,13.528143,18.35615,17.689823,7.81306,-2.5468843,-1.6343997
2.454,13.428963,17.976162,17.739986,7.7299767,-2.4102678,-1.6270242
2.456,13.335135,17.596514,17.760073,7.64878,-2.267319,-1.619878
2.458,13.247929,17.219738,17.748981,7.5695763,-2.119139,-1.6128819
2.46,13.168365,16.848309,17.705675,7.4922705,-1.9669507,-1.6059935
2.462,13.097674,16.484703,17.629658,7.4165998,-1.8121012,-1.5992327
2.464,13.037016,16.131023,17.520689,7.34213,-1.6559793,-1.5926526
2.466,12.987036,15.789446,17.379404,7.268305,-1.5000057,-1.5863407
2.468,12.948678,15.461519,17.20646,7.194484,-1.3455904,-1.580405
2.47,12.922546,15.148788,17.002562,7.1199822,-1.1940882,-1.5749488
2.472,12.908659,14.852728,16.7694,7.044065,-1.046798,-1.5700788
2.474,12.907423,14.574219,16.508694,6.9659977,-0.9049225,-1.5658603
2.476,12.918835,14.313866,16.22238,6.885088,-0.7695658,-1.5623538
2.478,12.942675,14.072119,15.912703,6.8006983,-0.6417198,-1.5595968
2.48,12.978609,13.849142,15.582176,6.7122564,-0.52227855,-1.5576344
2.482,13.026066,13.644763,15.233523,6.6193,-0.41205728,-1.5565219
2.484,13.0842495,13.458479,14.869722,6.5214467,-0.3117237,-1.5563722
2.486,13.152193,13.289843,14.493722,6.4184747,-0.22183418,-1.5573618
2.488,13.2290325,13.137909,14.1085205,6.3102713,-0.14282835,-1.5597496
2.49,13.313635,13.001791,13.717162,6.1968718,-0.075023174,-1.5638548
2.492,13.404977,12.880066,13.322657,6.0784388,-0.018622518,-1.5700427
2.494,13.501667,12.771482,12.927986,5.95527,0.02628839,-1.5787311
2.496,13.602589,12.674783,12.535899,5.8277464,0.05970764,-1.5903913
2.498,13.706907,12.588518,12.148804,5.6963396,0.08170378,-1.605498
2.5,13.813248,12.511259,11.769054,5.5615582,0.092395544,-1.6244894
2.502,13.920852,12.441656,11.3988,5.423952,0.09193623,-1.64776
2.504,14.028686,12.378514,11.039915,5.284072,0.08052373,-1.675621
2.506,14.13589,12.320655,10.693916,5.142433,0.058370233,-1.7082736
2.508,14.242135,12.266968,10.362283,4.999507,0.025701523,-1.7457726
2.51,14.346975,12.216577,10.045959,4.855715,-0.017213583,-1.7880383
2.512,14.449993,12.168791,9.745904,4.711423,-0.07007623,-1.8348596
2.514,14.550963,12.122971,9.4626875,4.5669413,-0.1325525,-1.8858755
2.516,14.649997,12.078531,9.196734,4.4225273,-0.20428896,-1.9405977
2.518,14.747031,12.035016,8.948366,4.278392,-0.28490734,-1.9984891
2.52,14.84237,11.992129,8.717459,4.134716,-0.37399757,-2.0589457
2.522,14.936173,11.949797,8.503951,3.9916604,-0.4711076,-2.121367
2.524,15.028698,11.907847,8.307474,3.8493843,-0.5757189,-2.1851926
2.526,15.120262,11.86616,8.127537,3.708046,-0.6872432,-2.2499068
2.528,15.2112465,11.82455,7.9635873,3.5678067,-0.8050912,-2.315094
2.53,15.301914,11.783025,7.814916,3.4288366,-0.9286405,-2.3804345
2.532,15.392215,11.7415085,7.680741,3.2912998,-1.0572718,-2.445757
2.534,15.482387,11.699871,7.5602937,3.1553383,-1.1903732,-2.5110228
2.536,15.5724745,11.657766,7.4525213,3.0211048,-1.3273469,-2.5763109
2.538,15.662263,11.614967,7.356525,2.8887007,-1.467624,-2.6418102
2.54,15.751867,11.570924,7.271005,2.7581863,-1.6106243,-2.70779
2.542,15.841,11.525298,7.1948304,2.6296198,-1.755751,-2.7745724
2.544,15.929273,11.477628,7.1268325,2.503039,-1.9023582,-2.842481
2.546,16.016464,11.4272175,7.065669,2.3784778,-2.0497584,-2.9118102
2.548,16.102125,11.373631,7.0100274,2.2559888,-2.1972122,-2.982798
2.55,16.1857,11.316227,6.958508,2.135667,-2.3439314,-3.055542
2.552,16.266941,11.254474,6.909829,2.0176504,-2.4891036,-3.1300218
2.554,16.345356,11.1878605,6.8625364,1.9021406,-2.631887,-3.206079
2.556,16.420515,11.115971,6.8152957,1.7893598,-2.771517,-3.283437
2.558,16.492188,11.038391,6.766642,1.6795487,-2.907325,-3.3617265
2.56,16.559933,10.954959,6.715225,1.572951,-3.038787,-3.4405289
2.562,16.623571,10.865588,6.6598186,1.4697577,-3.1655247,-3.5193973
2.564,16.683079,10.770266,6.5991597,1.3701437,-3.2873476,-3.5978715
2.566,16.738317,10.669197,6.532463,1.2741882,-3.4042397,-3.675517
2.568,16.789494,10.56262,6.4586964,1.1818843,-3.516359,-3.7519546
2.57,16.836994,10.450977,6.377338,1.0931473,-3.6240063,-3.8268576
2.572,16.880945,10.334726,6.2879233,1.0078077,-3.72759,-3.8999186
2.574,16.921879,10.214664,6.190178,0.9256244,-3.8276138,-3.970887
2.576,16.96032,10.091392,6.083885,0.8463061,-3.9246507,-4.0395255
2.578,16.99677,9.965822,5.969222,0.7695248,-4.0193043,-4.1056314
2.58,17.031841,9.838782,5.846443,0.6949456,-4.1121693,-4.1690207
2.582,17.066423,9.711311,5.7158713,0.62225914,-4.203792,-4.229526
2.584,17.100819,9.584551,5.5780663,0.5511899,-4.29466,-4.2869954
2.586,17.136002,9.459503,5.4337997,0.48151278,-4.3851976,-4.341317
2.588,17.172613,9.337151,5.2837715,0.41309476,-4.4757094,-4.3923984
2.59,17.211319,9.218439,5.1288486,0.34587717,-4.56639,-4.4401803
2.592,17.252766,9.104288,4.9698844,0.27990913,-4.657318,-4.4846067
2.594,17.297401,8.995559,4.807706,0.2153318,-4.748418,-4.525621
2.596,17.34575,8.89302,4.643257,0.15238214,-4.8394647,-4.5631676
2.598,17.39815,8.797228,4.4773946,0.09136438,-4.9300804,-4.597186
2.6,17.454737,8.708672,4.3110404,0.032628536,-5.0197544,-4.6276135
2.602,17.51577,8.627804,4.144914,-0.023460865,-5.1078854,-4.6544113
2.604,17.581291,8.55481,3.9797711,-0.07655215,-5.193832,-4.67759
2.606,17.651285,8.489676,3.816344,-0.12634492,-5.2769685,-4.6972466
2.608,17.725378,8.432511,3.6554556,-0.17260027,-5.356761,-4.713544
2.61,17.803373,8.383106,3.497713,-0.2151649,-5.4328027,-4.7267666
2.612,17.885044,8.341135,3.3435328,-0.25399494,-5.504878,-4.73729
2.614,17.969772,8.306229,3.1934435,-0.28912568,-5.5729656,-4.7455587
2.616,18.057331,8.278011,3.0477936,-0.3206885,-5.6372533,-4.752075
2.618,18.14695,8.255923,2.9068015,-0.34891844,-5.6981144,-4.757366
2.62,18.23826,8.239446,2.7709846,-0.37409425,-5.7560554,-4.7619023
2.622,18.330704,8.227794,2.640695,-0.39653587,-5.8116236,-4.7660947
2.624,18.42374,8.220207,2.516205,-0.4165821,-5.865369,-4.770215
2.626,18.516773,8.215916,2.3977957,-0.4345529,-5.91776,-4.7744045
2.628,18.609215,8.214132,2.2857718,-0.45072365,-5.9691257,-4.7786665
2.63,18.700464,8.214106,2.1802185,-0.46531916,-6.0196114,-4.7828646
2.632,18.790033,8.215023,2.081222,-0.47847867,-6.069155,-4.786756
2.634,18.877338,8.216393,1.9888381,-0.49024463,-6.117491,-4.790048
2.636,18.961681,8.217596,1.9031076,-0.5005789,-6.1641364,-4.7924395
2.638,19.04264,8.21814,1.8239143,-0.5093231,-6.2084846,-4.793662
2.64,19.119652,8.217529,1.7510895,-0.5162597,-6.2497964,-4.7934976
2.642,19.192307,8.215325,1.6843804,-0.5211103,-6.287293,-4.791766
2.644,19.260168,8.211257,1.6235127,-0.5235481,-6.320162,-4.7883825
2.646,19.322594,8.205145,1.5681285,-0.5232241,-6.3476152,-4.783357
2.648,19.37928,8.196626,1.5176947,-0.51978946,-6.368948,-4.7767634
2.65,19.429632,8.185688,1.4717687,-0.51293206,-6.383588,-4.768734
2.652,19.473455,8.172035,1.4298055,-0.50236225,-6.3910995,-4.759442
2.654,19.510569,8.155729,1.3911471,-0.4878385,-6.391169,-4.7490387
2.656,19.540524,8.136732,1.3552265,-0.46916604,-6.3836317,-4.73769
2.658,19.563118,8.115044,1.3214525,-0.44623828,-6.368458,-4.7255316
2.66,19.578304,8.09072,1.289351,-0.4189949,-6.345772,-4.7126946
2.662,19.585861,8.063842,1.2583752,-0.38744855,-6.315854,-4.699364
2.664,19.58596,8.034437,1.2281379,-0.35169077,-6.2791243,-4.6857505
2.666,19.57872,8.002745,1.1982557,-0.31184912,-6.2361383,-4.6721277
2.668,19.564188,7.9689336,1.1685203,-0.26809788,-6.1875863,-4.658795
2.67,19.54254,7.933172,1.1388258,-0.22062778,-6.134231,-4.646059
2.672,19.514238,7.895716,1.1091046,-0.16965699,-6.0769277,-4.6342006
2.674,19.479649,7.8568254,1.0793824,-0.11543393,-6.0165234,-4.6234136
2.676,19.43908,7.8168254,1.0496012,-0.058205247,-5.953835,-4.6137447
2.678,19.392986,7.7760053,1.0199885,0.0017552376,-5.8895974,-4.6050925
2.68,19.341824,7.734716,0.9905923,0.0641551,-5.824458,-4.597176
2.682,19.286184,7.6932807,0.96153754,0.12865853,-5.758958,-4.5895796
2.684,19.2264,7.651996,0.9330897,0.1949141,-5.693549,-4.5818143
2.686,19.163027,7.6112623,0.9053499,0.26254535,-5.6285543,-4.5733485
2.688,19.096691,7.5712914,0.8784421,0.33116758,-5.564206,-4.563697
2.69,19.027893,7.5324106,0.85244393,0.40041173,-5.500648,-4.5524726
2.692,18.956804,7.4947987,0.8274347,0.46992612,-5.4379363,-4.5394306
2.694,18.88412,7.45854,0.8033363,0.5394219,-5.376052,-4.52447
2.696,18.809952,7.423788,0.7800574,0.60866153,-5.314906,-4.5076675
2.698,18.734627,7.390644,0.7575208,0.67747307,-5.254331,-4.4891763
2.7,18.658401,7.359089,0.7354444,0.7457602,-5.1941185,-4.469205
2.702,18.581251,7.329142,0.7135705,0.81346834,-5.134024,-4.4479895
2.704,18.5034,7.3007092,0.69166684,0.88059855,-5.0737844,-4.4257293
2.706,18.424944,7.2734747,0.66944313,0.94717705,-5.0131683,-4.4026194
2.708,18.34586,7.2474594,0.64646006,1.0132432,-4.9519887,-4.37881
2.71,18.266022,7.2225637,0.6223813,1.0788403,-4.8901377,-4.354393
2.712,18.185432,7.198492,0.59684825,1.1440126,-4.827594,-4.3294306
2.714,18.103922,7.175088,0.56950533,1.2087939,-4.764374,-4.30392
2.716,18.021383,7.152111,0.54012024,1.2732036,-4.7005863,-4.277836
2.718,17.93768,7.1293926,0.5082847,1.3372536,-4.6363797,-4.251101
2.72,17.852709,7.1069064,0.4739139,1.400936,-4.5719433,-4.2236514
2.722,17.766098,7.084403,0.43679047,1.4642224,-4.507489,-4.195425
2.724,17.678032,7.061805,0.39690828,1.5270867,-4.4432397,-4.1663685
2.726,17.58818,7.038992,0.35450828,1.5895042,-4.379368,-4.136427
2.728,17.496614,7.015999,0.30961192,1.6514659,-4.316057,-4.105573
2.73,17.4031,6.9927845,0.2623738,1.7129453,-4.2534485,-4.0737753
2.732,17.30764,6.9695196,0.21292925,1.7739575,-4.1916456,-4.0410385
2.734,17.210285,6.946384,0.16166365,1.8345127,-4.130684,-4.0073752
2.736,17.111128,6.9235687,0.10887325,1.8946698,-4.0705614,-3.9727857
2.738,17.010172,6.901275,0.05511105,1.95449,-4.011231,-3.9372654
2.74,16.907564,6.87957,0.0009492636,2.0140538,-3.9526362,-3.9008486
2.742,16.80333,6.8585973,-0.053098083,2.0734613,-3.8946896,-3.8635492
2.744,16.697668,6.838494,-0.1064111,2.132807,-3.837286,-3.8253827
2.746,16.590784,6.81935,-0.15834379,2.192171,-3.780315,-3.786363
2.748,16.482805,6.8013587,-0.20839489,2.2516167,-3.72368,-3.7465076
2.75,16.374071,6.784477,-0.25606906,2.3112013,-3.6672761,-3.7058063
2.752,16.264656,6.76889,-0.3009206,2.3709395,-3.611009,-3.6642385
2.754,16.154865,6.7547007,-0.34258842,2.4308317,-3.55479,-3.6217742
2.756,16.045,6.741932,-0.3806815,2.4908516,-3.498524,-3.5783741
2.758,15.935329,6.730817,-0.4149387,2.5509782,-3.4421291,-3.5339806
2.76,15.826046,6.7213836,-0.44524622,2.6111655,-3.3855238,-3.488534
2.762,15.717409,6.713616,-0.4714322,2.671383,-3.3286371,-3.4419703
2.764,15.609788,6.7074842,-0.4934733,2.7315938,-3.2713914,-3.394219
2.766,15.503343,6.7030306,-0.5114418,2.791791,-3.2137115,-3.3452122
2.768,15.398381,6.700159,-0.5254735,2.8519592,-3.1555295,-3.2948833
2.77,15.295186,6.698883,-0.535825,2.912096,-3.0967946,-3.2431717
2.772,15.194027,6.698902,-0.54272413,2.9722114,-3.037461,-3.1900573
2.774,15.095021,6.700145,-0.5465373,3.0323064,-2.9775069,-3.135542
2.776,14.998359,6.70232,-0.5476209,3.09238,-2.9169312,-3.0796435
2.778,14.904317,6.7052946,-0.5465126,3.1524231,-2.8557687,-3.0224462
2.78,14.813145,6.708877,-0.5435772,3.212417,-2.7940817,-2.9640567
2.782,14.724795,6.712797,-0.5394231,3.2723148,-2.7319536,-2.9046264
2.784,14.6394415,6.7167974,-0.534472,3.3320737,-2.6695018,-2.8443232
2.786,14.557259,6.7207475,-0.5292492,3.3916328,-2.6068416,-2.7833185
2.788,14.478295,6.724472,-0.5242044,3.4509387,-2.544106,-2.7217822
2.79,14.402755,6.7278438,-0.51969063,3.5099323,-2.481411,-2.6598659
2.792,14.330716,6.7307796,-0.51612055,3.5685725,-2.418868,-2.5976872
2.794,14.262372,6.7330656,-0.5137423,3.6268315,-2.356564,-2.5352988
2.796,14.197831,6.7347584,-0.5127771,3.6846867,-2.2945914,-2.4727135
2.798,14.137101,6.7358985,-0.51335585,3.7421381,-2.2330294,-2.409905
2.8,14.080378,6.73643,-0.51552,3.7992096,-2.1719449,-2.3468094
2.802,14.027695,6.736439,-0.5192443,3.8559253,-2.1114266,-2.2833357
2.804,13.979343,6.736017,-0.52434635,3.9123197,-2.051574,-2.219403
2.806,13.935329,6.735362,-0.5307492,3.9684114,-1.9925249,-2.1549542
2.808,13.895831,6.7344923,-0.5380049,4.024209,-1.934439,-2.0899336
2.81,13.860805,6.733594,-0.5457467,4.079688,-1.8775159,-2.0243635
2.812,13.830479,6.732769,-0.55355215,4.1348042,-1.8219765,-1.9583025
2.814,13.804927,6.732202,-0.56101894,4.189477,-1.7680514,-1.8918421
2.816,13.784138,6.7321587,-0.56749725,4.2436104,-1.7159646,-1.8251038
2.818,13.767896,6.7326164,-0.5724405,4.2970896,-1.6659136,-1.7582306
2.82,13.756355,6.7337275,-0.57527816,4.3497715,-1.6180418,-1.6913548
2.822,13.749385,6.735708,-0.575472,4.4015255,-1.5724406,-1.6246011
2.824,13.7469635,6.7386055,-0.5723562,4.4522367,-1.5291128,-1.5580581
2.826,13.748946,6.742674,-0.5655991,4.501787,-1.4880157,-1.4917817
2.828,13.755064,6.7478285,-0.5546448,4.5501013,-1.4490256,-1.4257884
2.83,13.765161,6.7541924,-0.53920054,4.597118,-1.4119536,-1.3600669
2.832,13.779055,6.7619143,-0.5189202,4.6428127,-1.3765835,-1.2945793
2.834,13.796399,6.771015,-0.4935646,4.687203,-1.3426734,-1.2292622
2.836,13.816867,6.7816525,-0.46306074,4.7303343,-1.3099842,-1.1640558
2.838,13.840187,6.7937794,-0.42722678,4.772271,-1.2782935,-1.0989144
2.84,13.866012,6.807453,-0.38613343,4.8130865,-1.2474272,-1.033787
2.842,13.894003,6.822868,-0.33984506,4.8528814,-1.2172453,-0.9686515
2.844,13.923821,6.8399506,-0.28858805,4.8917413,-1.1876701,-0.9035177
2.846,13.954945,6.858805,-0.23249495,4.9297423,-1.158673,-0.83841556
2.848,13.987316,6.8794613,-0.17204821,4.966955,-1.1302798,-0.77340627
2.85,14.020508,6.9019213,-0.107417226,5.0034328,-1.1025543,-0.70858
2.852,14.054316,6.9262376,-0.039025187,5.0392084,-1.07561,-0.6440308
2.854,14.088556,6.9522295,0.032747507,5.074288,-1.0495869,-0.5798757
2.856,14.122762,6.9800606,0.10739446,5.1086817,-1.0246443,-0.51622987
2.858,14.15686,7.0095186,0.18456483,5.1423845,-1.0009515,-0.4531756
2.86,14.190681,7.0406456,0.263929,5.1754026,-0.97867465,-0.39076865
2.862,14.224097,7.073185,0.34519804,5.2077518,-0.9579699,-0.3290534
2.864,14.256833,7.1070313,0.4280442,5.239455,-0.93896365,-0.26801944
2.866,14.28885,7.1420574,0.5120918,5.2705545,-0.9217757,-0.20763516
2.868,14.320032,7.178017,0.5971764,5.30109,-0.9064847,-0.14785504
2.87,14.350352,7.2146697,0.6832314,5.3311124,-0.893137,-0.08861816
2.872,14.379845,7.2518506,0.7699172,5.3606796,-0.8817432,-0.029872179
2.874,14.408197,7.28934,0.85720503,5.389849,-0.8723011,0.028414845
2.876,14.435702,7.3268003,0.9451377,5.4186506,-0.8647835,0.086271524
2.878,14.462122,7.3638816,1.0336759,5.4470882,-0.8591604,0.1436795
2.88,14.487463,7.40025,1.1228065,5.475155,-0.8553804,0.20060277
2.882,14.51156,7.435699,1.2126126,5.5027947,-0.85340333,0.25698686
2.884,14.534531,7.4698553,1.3031511,5.5299287,-0.8531784,0.31275165
2.886,14.556203,7.502314,1.3944733,5.5564384,-0.8546461,0.36781597
2.888,14.576488,7.532785,1.4866823,5.5821776,-0.8577355,0.4220829
2.89,14.5953665,7.5608206,1.5798373,5.606998,-0.8623359,0.4754963
2.892,14.612595,7.5862393,1.6739811,5.630745,-0.8683133,0.5280117
2.894,14.628154,7.6086426,1.7693142,5.6532745,-0.8754852,0.57961226
2.896,14.641819,7.627797,1.8658454,5.6744547,-0.8836342,0.6303263
2.898,14.65338,7.643548,1.9636649,5.694195,-0.8925102,0.6802193
2.9,14.662543,7.655738,2.0628543,5.7124395,-0.9018438,0.72939575
2.902,14.669171,7.6643133,2.16344,5.7291746,-0.91135883,0.77799857
2.904,14.672983,7.6694446,2.2654548,5.7444215,-0.9207758,0.82619894
2.906,14.673896,7.6709914,2.3689573,5.758243,-0.92984354,0.87416244
2.908,14.671695,7.6692753,2.473912,5.7707343,-0.9383447,0.9220753
2.91,14.666146,7.6643877,2.5803952,5.782013,-0.94609106,0.9701004
2.912,14.657202,7.656648,2.688415,5.7922096,-0.9529449,1.0183694
2.914,14.644447,7.646386,2.7979798,5.8014627,-0.9588145,1.0670068
2.916,14.62784,7.6338706,2.9091907,5.8099174,-0.96364784,1.1161165
2.918,14.607217,7.6194916,3.0219283,5.81771,-0.9674417,1.1657465
2.92,14.582535,7.603627,3.1363153,5.8249683,-0.9702159,1.2159202
2.922,14.553659,7.586599,3.252498,5.831803,-0.97201955,1.2666394
2.924,14.520365,7.5688233,3.3705246,5.838298,-0.97292936,1.3178697
2.926,14.482756,7.550604,3.4903765,5.844506,-0.97302437,1.3695765
2.928,14.44077,7.53244,3.612302,5.8504667,-0.97236586,1.4217131
2.93,14.394412,7.514553,3.7363393,5.856199,-0.97101057,1.4742109
2.932,14.343574,7.497324,3.8627357,5.86171,-0.96896446,1.5270376
2.934,14.288257,7.481014,3.9915361,5.866998,-0.96620107,1.5801647
2.936,14.228476,7.465843,4.1229854,5.872058,-0.96265984,1.63359
2.938,14.164394,7.452072,4.2572374,5.8768997,-0.95825446,1.6873441
2.94,14.095865,7.439784,4.394453,5.88154,-0.952845,1.7415034
2.942,14.022957,7.429056,4.5348063,5.8859997,-0.9462749,1.796171
2.944,13.945729,7.4198613,4.678365,5.8903017,-0.9383954,1.8514645
2.946,13.864334,7.412047,4.825225,5.894479,-0.9290426,1.9074966
2.948,13.7786455,7.4056935,4.975611,5.898536,-0.91809297,1.964386
2.95,13.688668,7.4006863,5.129473,5.902463,-0.9054575,2.0222173
2.952,13.594417,7.396734,5.286998,5.906212,-0.8910872,2.081037
2.954,13.495979,7.3937287,5.4481955,5.9096985,-0.8749951,2.1408367
2.956,13.393555,7.3913574,5.613162,5.9127865,-0.85725105,2.2015405
2.958,13.286895,7.3894153,5.7819324,5.9153066,-0.83797765,2.2630377
2.96,13.176189,7.387542,5.9545507,5.917055,-0.81731725,2.3251824
2.962,13.0613,7.3855143,6.1310825,5.917798,-0.7954316,2.3878279
2.964,12.942241,7.382958,6.3114758,5.9172945,-0.77250767,2.450807
2.966,12.819284,7.379456,6.4956737,5.915319,-0.74869454,2.5140035
2.968,12.692296,7.374752,6.683735,5.911647,-0.72412443,2.577312
2.97,12.561243,7.368493,6.8754997,5.9060946,-0.69887316,2.640675
2.972,12.42641,7.360404,7.0708365,5.89853,-0.6729742,2.7040963
2.974,12.287974,7.3500996,7.269695,5.8888597,-0.64640987,2.767585
2.976,12.145849,7.337241,7.4719095,5.8770537,-0.61914396,2.831161
2.978,12.0001955,7.32156,7.677317,5.8630953,-0.5911236,2.8948143
2.98,11.851137,7.3027163,7.885597,5.847007,-0.56229043,2.9584837
2.982,11.698599,7.280652,8.096559,5.828838,-0.5325681,3.0220585
2.984,11.542843,7.2550774,8.309837,5.8086452,-0.50188303,3.0853825
2.986,11.383786,7.2260056,8.525074,5.7864895,-0.47018266,3.148269
2.988,11.221761,7.1934037,8.74188,5.7624145,-0.4373995,3.2105112
2.99,11.056678,7.1571865,8.959865,5.7364674,-0.4034778,3.271915
2.992,10.888928,7.117312,9.178464,5.7086806,-0.36836314,3.3323436
2.994,10.718399,7.073968,9.3971615,5.679087,-0.33201396,3.39171
2.996,10.545263,7.027191,9.61549,5.64771,-0.29439545,3.4499788
2.998,10.369635,6.9772263,9.832764,5.6145797,-0.25546956,3.5071898
3,10.191175,6.924487,10.04843,5.579728,-0.21521789,3.563428
3.002,10.01016,6.869146,10.262026,5.5431867,-0.1736219,3.6188068
3.004,9.826357,6.8117676,10.472752,5.5049953,-0.13068229,3.6734388
3.006,9.639851,6.752486,10.680048,5.4651837,-0.08640087,3.7274232
3.008,9.450573,6.6917973,10.883233,5.423804,-0.04076171,3.7808404
3.01,9.258426,6.6302614,11.081655,5.3808823,0.0062182546,3.8337357
3.012,9.063243,6.5682507,11.274812,5.3364134,0.054509163,3.8861032
3.014,8.864983,6.5063753,11.462073,5.2903776,0.10405415,3.9378886
3.016,8.663424,6.4451227,11.642867,5.242714,0.15478432,3.9889612
3.018,8.458578,6.384947,11.816691,5.193326,0.20661008,4.039164
3.02,8.250323,6.3264093,11.9828825,5.1420827,0.259436,4.0883055
3.022,8.038538,6.2698503,12.140961,5.0888343,0.31314117,4.1361775
3.024,7.8232126,6.215676,12.290462,5.0333943,0.36758846,4.182562
3.026,7.604206,6.164248,12.430895,4.9755745,0.42264575,4.227243
3.028,7.3815255,6.115874,12.561815,4.9151797,0.4781649,4.2700124
3.03,7.1550546,6.070756,12.682744,4.852029,0.5340276,4.310707
3.032,6.9248724,6.029057,12.793282,4.785983,0.59013945,4.349215
3.034,6.6909914,5.9909286,12.893195,4.716933,0.6464205,4.3854475
3.036,6.4530926,5.956543,12.982131,4.644795,0.70282114,4.419385
3.038,6.2112846,5.9259114,13.059946,4.569543,0.75932395,4.4510746
3.04,5.965616,5.8990936,13.12639,4.4912066,0.8159546,4.4806113
3.042,5.7162857,5.8760552,13.18121,4.4098506,0.87275255,4.50816
3.044,5.4630275,5.856844,13.224588,4.3255997,0.9298235,4.533954
3.046,5.205455,5.8416443,13.256752,4.2386065,0.9873141,4.558269
3.048,4.9432797,5.8307815,13.277746,4.149062,1.0453804,4.581421
3.05,4.6767387,5.824191,13.287524,4.057181,1.1041987,4.6037607
3.052,4.4058228,5.8218427,13.2862015,3.9631863,1.1639463,4.6256275
3.054,4.130388,5.8238964,13.274119,3.8673124,1.2248008,4.647336
3.056,3.8501413,5.830392,13.251507,3.7697864,1.2869103,4.66915
3.058,3.565235,5.84145,13.218449,3.6708415,1.3504057,4.691263
3.06,3.275695,5.8570285,13.175308,3.5706859,1.4153603,4.7137947
3.062,2.9813616,5.877207,13.122425,3.469495,1.4818017,4.736748
3.064,2.6820595,5.902001,13.060228,3.3674293,1.5497243,4.7600307
3.066,2.377912,5.9314322,12.988949,3.2646263,1.619081,4.783478
3.068,2.0689263,5.965573,12.909382,3.1611621,1.6897784,4.8068633
3.07,1.7552102,6.0041766,12.821509,3.0570865,1.7616467,4.829949
3.072,1.4368658,6.0470834,12.726013,2.9524107,1.8344078,4.852514
3.074,1.1140832,6.094178,12.62316,2.8470654,1.9076617,4.874318
3.076,0.78714883,6.1451263,12.51352,2.7409847,1.9809756,4.895188
3.078,0.45641518,6.1996756,12.397423,2.6341205,2.0538802,4.914967
3.08,0.122121096,6.25764,12.275425,2.5263958,2.1258042,4.9335566
3.082,-0.21565616,6.318759,12.148023,2.4177623,2.1960566,4.950921
3.084,-0.5563966,6.38275,12.015762,2.3081832,2.26387,4.9670305
3.086,-0.8994312,6.4492126,11.879015,2.197651,2.328451,4.9818506
3.088,-1.2446439,6.5179024,11.7382145,2.0862017,2.389028,4.9953084
3.09,-1.591598,6.588478,11.5939045,1.9739087,2.4448812,5.007257
3.092,-1.9396977,6.6603675,11.446488,1.8608913,2.4954107,5.017439
3.094,-2.2887597,6.7332306,11.296347,1.7473314,2.5401955,5.0255504
3.096,-2.6381907,6.8066688,11.1439085,1.633484,2.5789943,5.031229
3.098,-2.9878633,6.880315,10.989628,1.5195637,2.6117249,5.0339646
3.1,-3.3374465,6.953917,10.8338,1.4058223,2.638487,5.0332456
3.102,-3.6866279,7.0270476,10.676667,1.2925795,2.65954,5.028672
3.104,-4.0349827,7.0993447,10.518495,1.180165,2.6752343,5.0199037
3.106,-4.382165,7.1706114,10.359295,1.0688615,2.6859608,5.006696
3.108,-4.727778,7.240396,10.199171,0.95892453,2.692135,4.9889283
3.11,-5.0711694,7.3084464,10.037896,0.8506255,2.694252,4.9666157
3.112,-5.4120975,7.3746076,9.875269,0.7441603,2.692838,4.9398947
3.114,-5.750115,7.4387116,9.711103,0.63969535,2.6884878,4.9089932
3.116,-6.084738,7.5006924,9.544949,0.5373474,2.6818142,4.8742304
3.118,-6.4153733,7.5604625,9.37619,0.43718737,2.6734617,4.8359776
3.12,-6.7415423,7.617916,9.204291,0.33926606,2.6640673,4.794662
3.122,-7.062647,7.6730094,9.02849,0.24361804,2.6542459,4.7507415
3.124,-7.3780317,7.7257147,8.848093,0.15027219,2.6445122,4.704684
3.126,-7.6873417,7.776191,8.662434,0.059255168,2.6352696,4.656951
3.128,-7.9897833,7.824413,8.470658,-0.029369935,2.6267443,4.608007
3.13,-8.284859,7.87056,8.272091,-0.11556278,2.6188989,4.5582275
3.132,-8.571938,7.9147115,8.06593,-0.19930947,2.6114707,4.507906
3.134,-8.850488,7.9570556,7.85155,-0.2805978,2.6040406,4.4571843
3.136,-9.120127,7.9976907,7.628404,-0.3594451,2.5960875,4.406055
3.138,-9.380471,8.036849,7.39601,-0.43592894,2.5869467,4.35436
3.14,-9.631169,8.074656,7.154067,-0.51017934,2.5758739,4.301817
3.142,-9.871958,8.111216,6.9024186,-0.5823828,2.5621128,4.248054
3.144,-10.10268,8.146532,6.640902,-0.65273976,2.5449781,4.1926694
3.146,-10.323099,8.18059,6.3698254,-0.72146606,2.5238707,4.135255
3.148,-10.533195,8.213522,6.089539,-0.7887957,2.4982998,4.0754657
3.15,-10.733279,8.245437,5.800701,-0.85492057,2.467946,4.013042
3.152,-10.923586,8.2762375,5.5041456,-0.9199529,2.4326236,3.9479086
3.154,-11.103775,8.305839,5.200523,-0.9839798,2.3922777,3.8800535
3.156,-11.274027,8.334052,4.890708,-1.0470858,2.3469763,3.8095038
3.158,-11.434498,8.3606205,4.5759516,-1.1093029,2.2968988,3.7363925
3.16,-11.585766,8.385629,4.257634,-1.1706136,2.2422981,3.660928
3.162,-11.728395,8.409229,3.9370556,-1.2310046,2.1834671,3.583327
3.164,-11.862604,8.431243,3.6154962,-1.2904886,2.1207004,3.5038006
3.166,-11.988754,8.451781,3.2945566,-1.3490613,2.0543416,3.4225595
3.168,-12.107419,8.470694,2.975701,-1.4067199,1.9847565,3.3398023
3.17,-12.2189,8.488026,2.660335,-1.4634488,1.9124122,3.2557213
3.172,-12.323469,8.5038595,2.3497677,-1.5192266,1.837817,3.170519
3.174,-12.421553,8.518232,2.0453215,-1.5740335,1.7615513,3.0844278
3.176,-12.513755,8.531358,1.7482992,-1.6278138,1.6842802,2.9977036
3.178,-12.600185,8.543217,1.4595239,-1.6804923,1.6067328,2.9106429
3.18,-12.681527,8.554353,1.1803615,-1.7319641,1.5296881,2.823589
3.182,-12.757928,8.565039,0.9113613,-1.7821196,1.4539444,2.7369106
3.184,-12.829857,8.575457,0.65330243,-1.8308268,1.3802996,2.6510012
3.186,-12.897797,8.586088,0.40675104,-1.8779266,1.3095481,2.566249
3.188,-12.962043,8.597177,0.17208529,-1.923246,1.2424182,2.4830096
3.19,-13.022801,8.608976,-0.050546765,-1.9666381,1.1795658,2.4015768
3.192,-13.08023,8.6217165,-0.2611267,-2.007966,1.1215498,2.3221693
3.194,-13.134694,8.635713,-0.45965242,-2.0471213,1.0688184,2.2449145
3.196,-13.186569,8.651299,-0.64621884,-2.084031,1.0217291,2.1698418
3.198,-13.235752,8.668609,-0.82113236,-2.1186523,0.98051494,2.0968878
3.2,-13.282558,8.687989,-0.9847645,-2.150986,0.94530356,2.025916
3.202,-13.327082,8.7097225,-1.1375393,-2.1810608,0.91611534,1.9567307
3.204,-13.369322,8.7340355,-1.2800643,-2.2089326,0.8928556,1.8891097
3.206,-13.4093275,8.761021,-1.4130726,-2.2346725,0.8753576,1.8228396
3.208,-13.446956,8.790784,-1.5373572,-2.2583747,0.8633479,1.7577124
3.21,-13.482116,8.8235,-1.6535864,-2.280123,0.85648966,1.6935418
3.212,-13.51483,8.859264,-1.7625779,-2.3000047,0.85439974,1.6301795
3.214,-13.544911,8.89821,-1.8650665,-2.318109,0.8566712,1.56749
3.216,-13.572127,8.940392,-1.9617634,-2.3345351,0.86289346,1.5053594
3.218,-13.596331,8.985993,-2.0534225,-2.3493803,0.87269914,1.4436857
3.22,-13.617332,9.035085,-2.1407008,-2.3627415,0.8857642,1.3823624
3.222,-13.634637,9.087753,-2.224305,-2.3747208,0.9018284,1.321322
3.224,-13.6478405,9.144073,-2.3048713,-2.3854165,0.92068076,1.2605067
3.226,-13.656674,9.204222,-2.382852,-2.3949156,0.9421586,1.1998729
3.228,-13.660787,9.268261,-2.458684,-2.403284,0.9661113,1.1394119
3.23,-13.659685,9.336225,-2.5329545,-2.4105814,0.9923821,1.0791287
3.232,-13.65284,9.40826,-2.6060696,-2.4168255,1.0208278,1.0190289
3.234,-13.639959,9.484347,-2.6784182,-2.4220324,1.051284,0.95911175
3.236,-13.620357,9.564485,-2.7504034,-2.4262035,1.0835552,0.8993708
3.238,-13.593694,9.6485615,-2.8221555,-2.4293375,1.1174039,0.83975375
3.24,-13.559542,9.736502,-2.8938947,-2.4314399,1.1525426,0.7802105
3.242,-13.517411,9.828009,-2.9657598,-2.4325309,1.1886647,0.7206625
3.244,-13.467123,9.922903,-3.0378392,-2.4326372,1.2254446,0.6610095
3.246,-13.408251,10.020831,-3.1102142,-2.431789,1.2625753,0.60114825
3.248,-13.340559,10.1212015,-3.1829474,-2.4300263,1.2997783,0.54097295
3.25,-13.263864,10.22366,-3.2559712,-2.4273994,1.3368033,0.48037773
3.252,-13.178094,10.3276,-3.3293521,-2.423947,1.3734744,0.4192479
3.254,-13.0832205,10.432494,-3.4029882,-2.4196813,1.4096906,0.35747668
3.256,-12.979169,10.53767,-3.4769607,-2.4145947,1.4454535,0.2949715
3.258,-12.8660965,10.642344,-3.5513833,-2.4086583,1.4808297,0.23164001
3.26,-12.74416,10.745762,-3.626146,-2.4018214,1.5159534,0.16742203
3.262,-12.613527,10.847339,-3.7011778,-2.394,1.5510162,0.102278605
3.264,-12.474623,10.946342,-3.7764983,-2.385125,1.5862339,0.03622015
3.266,-12.327792,11.041978,-3.8519502,-2.375101,1.6218225,-0.030715905
3.268,-12.173436,11.133687,-3.9275248,-2.3638415,1.6580099,-0.09845795
3.27,-12.011876,11.220745,-4.003127,-2.3512702,1.6949892,-0.16689962
3.272,-11.843518,11.3025,-4.0788736,-2.337332,1.7329088,-0.23592721
3.274,-11.668916,11.378383,-4.154654,-2.3220108,1.7718925,-0.30540237
3.276,-11.488376,11.447852,-4.2307243,-2.305301,1.8120352,-0.37521288
3.278,-11.302363,11.51059,-4.3070664,-2.28723,1.8533914,-0.44522572
3.28,-11.111606,11.56631,-4.3837233,-2.2678514,1.8959807,-0.5153126
3.282,-10.9165945,11.614707,-4.460761,-2.2472398,1.9397997,-0.5853692
3.284,-10.717753,11.6557865,-4.53812,-2.2254808,1.9848082,-0.6552577
3.286,-10.515522,11.689365,-4.615895,-2.2026815,2.0309057,-0.72484547
3.288,-10.310311,11.715555,-4.694078,-2.1789477,2.0779538,-0.7940082
3.29,-10.102407,11.734513,-4.772415,-2.1543815,2.1257687,-0.86262983
3.292,-9.892407,11.746529,-4.850668,-2.1290843,2.1741347,-0.93058485
3.294,-9.680716,11.752045,-4.928909,-2.1031733,2.222809,-0.9977795
3.296,-9.467599,11.75123,-5.0072403,-2.0767446,2.2715173,-1.0641236
3.298,-9.253412,11.744464,-5.0856905,-2.0498712,2.319965,-1.1295289
3.3,-9.038383,11.732162,-5.164133,-2.0226347,2.367859,-1.1939144
3.302,-8.82283,11.714611,-5.242351,-1.9950764,2.4149125,-1.2572119
3.304,-8.607063,11.692278,-5.3203917,-1.9672141,2.4608736,-1.3193592
3.306,-8.391085,11.665558,-5.3979745,-1.9390465,2.5055304,-1.3802737
3.308,-8.175165,11.634879,-5.4749703,-1.9105675,2.5487018,-1.439891
3.31,-7.95938,11.600606,-5.5513997,-1.8817399,2.590226,-1.4981672
3.312,-7.7439556,11.563122,-5.627022,-1.8525286,2.6299949,-1.5550554
3.314,-7.5288663,11.522681,-5.701569,-1.8228977,2.667911,-1.6105405
3.316,-7.314266,11.479582,-5.7748947,-1.7928252,2.7039092,-1.6646376
3.318,-7.1002645,11.433944,-5.846744,-1.7622882,2.73793,-1.71738
3.32,-6.8868566,11.385838,-5.9170036,-1.7313206,2.7699323,-1.7688024
3.322,-6.6741266,11.335398,-5.9855266,-1.699981,2.7999125,-1.8189843
3.324,-6.4621005,11.282491,-6.0522385,-1.6683195,2.8279119,-1.868046
3.326,-6.251004,11.227153,-6.117052,-1.6364081,2.8539963,-1.9161172
3.328,-6.04086,11.16913,-6.179923,-1.604323,2.8782349,-1.9633099
3.33,-5.831726,11.10837,-6.2408094,-1.5721354,2.9007359,-2.0097473
3.332,-5.623862,11.044676,-6.299636,-1.5398982,2.9216015,-2.0555406
3.334,-5.417428,10.977942,-6.3565025,-1.5076447,2.9409766,-2.1007783
3.336,-5.2125897,10.90806,-6.4113965,-1.4754074,2.9589767,-2.145514
3.338,-5.009369,10.834841,-6.464258,-1.4431927,2.9756923,-2.1897843
3.34,-4.808138,10.758332,-6.5149918,-1.4109609,2.9911604,-2.2336287
3.342,-4.609082,10.678426,-6.563577,-1.3786457,3.0053282,-2.277083
3.344,-4.4123583,10.595173,-6.609897,-1.3461616,3.0180707,-2.3201451
3.346,-4.2181225,10.508628,-6.6538877,-1.3134515,3.0291636,-2.3627877
3.348,-4.0267105,10.4190445,-6.695449,-1.2804644,3.038293,-2.4048939
3.35,-3.838298,10.32659,-6.7344227,-1.2472246,3.0450947,-2.4462566
3.352,-3.653089,10.231558,-6.770593,-1.2138432,3.0491605,-2.486621
3.354,-3.4713142,10.134302,-6.803813,-1.1805222,3.0500963,-2.525661
3.356,-3.2931535,10.035258,-6.8337793,-1.1475614,3.047567,-2.5630507
3.358,-3.1188161,9.934889,-6.8602448,-1.1153299,3.0413241,-2.5984979
3.36,-2.9484103,9.833654,-6.8829594,-1.0842438,3.0312347,-2.631795
3.362,-2.7820094,9.732033,-6.9016714,-1.0546914,3.0173168,-2.662839
3.364,-2.6196256,9.630301,-6.9161606,-1.0270277,2.9997253,-2.6916683
3.366,-2.4614685,9.528941,-6.9261074,-1.001508,2.9787138,-2.7184799
3.368,-2.3074908,9.428275,-6.931406,-0.97826993,2.9546328,-2.7435777
3.37,-2.1576946,9.328569,-6.931917,-0.9573101,2.9278846,-2.7673354
3.372,-2.012238,9.230009,-6.9274397,-0.93851423,2.8988996,-2.7901556
3.374,-1.8710651,9.132799,-6.917812,-0.92162395,2.8681006,-2.8124137
3.376,-1.7341866,9.037071,-6.90308,-0.90633285,2.8358495,-2.8344102
3.378,-1.6017001,8.942865,-6.8831415,-0.89231455,2.802442,-2.8563292
3.38,-1.4760962,8.852996,-6.860411,-0.8792478,2.7681408,-2.8782513
3.382,-1.3553452,8.765413,-6.83337,-0.8668233,2.7331433,-2.9002054
3.384,-1.2394736,8.680267,-6.8024654,-0.8548124,2.6975584,-2.9221296
3.386,-1.1285465,8.5975685,-6.7678823,-0.84304607,2.6614282,-2.9439268
3.388,-1.022572,8.517366,-6.7299685,-0.8314285,2.624733,-2.9654808
3.39,-0.92146325,8.439699,-6.68914,-0.81992507,2.5874333,-2.9866686
3.392,-0.8251834,8.364616,-6.6458015,-0.8085805,2.5494428,-3.0073638
3.394,-0.73374915,8.292107,-6.6004257,-0.7975271,2.510656,-3.027441
3.396,-0.64706945,8.222221,-6.553316,-0.7869197,2.470969,-3.0467772
3.398,-0.56514716,8.154966,-6.50488,-0.7769358,2.4302802,-3.0653064
3.4,-0.4878466,8.0903,-6.455661,-0.7677648,2.388476,-3.0830147
3.402,-0.41497874,8.028127,-6.4060545,-0.75958943,2.3454552,-3.0999546
3.404,-0.34632897,7.9684753,-6.356168,-0.7525735,2.3011496,-3.1162388
3.406,-0.28179932,7.9114656,-6.306229,-0.7468325,2.2555647,-3.1319864
3.408,-0.22116923,7.857144,-6.2564054,-0.74242127,2.2104807,-3.146824
3.41,-0.16429782,7.805445,-6.2070346,-0.73932195,2.1652079,-3.161177
3.412,-0.110925674,7.756481,-6.1584144,-0.7374612,2.1202543,-3.1750977
3.414,-0.060848236,7.7100964,-6.110671,-0.73669183,2.076196,-3.1886003
3.416,-0.013956308,7.6662,-6.064066,-0.73683345,2.033628,-3.2016587
3.418,0.030025959,7.624623,-6.0187025,-0.7376667,1.9931076,-3.214199
3.42,0.0713563,7.5851974,-5.974532,-0.7389765,1.9551103,-3.2261207
3.422,0.110226154,7.5477347,-5.9317374,-0.74056613,1.9199829,-3.2373343
3.424,0.14674664,7.512129,-5.890402,-0.74226725,1.887915,-3.2477589
3.426,0.18103194,7.478265,-5.850481,-0.7439426,1.8589575,-3.257343
3.428,0.21331763,7.446122,-5.812056,-0.7455126,1.8330288,-3.2660728
3.43,0.24373627,7.4155664,-5.7750807,-0.7469256,1.8099487,-3.2739453
