Time_s_,Acc_x_m_s_2_,Acc_y_m_s_2_,Acc_z_m_s_2_,Gyro_x_1_s_,Gyro_y_1_s_,Gyro_z_1_s_
0,0.7134546,0.7014147,-2.3748677,-0.40813407,-1.9913297,1.0307479
0.002,0.69676095,0.7551887,-2.4090223,-0.38854355,-1.9452529,1.0338968
0.004,0.6754532,0.817841,-2.448815,-0.36534572,-1.8923837,1.0388349
0.006,0.6495997,0.8895637,-2.4958246,-0.33807376,-1.831737,1.0457953
0.008,0.618322,0.97069806,-2.5503979,-0.30632228,-1.7623487,1.0549532
0.01,0.5804797,1.0616592,-2.612362,-0.2698081,-1.6833533,1.0663697
0.012,0.5352982,1.162736,-2.68172,-0.22835779,-1.5939785,1.0799679
0.014,0.48303723,1.2735064,-2.7588553,-0.18194976,-1.4937978,1.09553
0.016,0.42306954,1.3938899,-2.8452628,-0.13083458,-1.3830395,1.1126331
0.018,0.35449535,1.5235392,-2.9432194,-0.07560301,-1.2625668,1.1305927
0.02,0.2769519,1.6621084,-3.0543704,-0.017157197,-1.1337876,1.1484106
0.022,0.19106817,1.8086972,-3.1782763,0.043348968,-0.9988051,1.1648005
0.024,0.09798503,1.9621658,-3.3128777,0.104539394,-0.86042994,1.178315
0.026,-0.0015460253,2.1215491,-3.4563675,0.1648643,-0.72204286,1.1874332
0.028,-0.106582165,2.285245,-3.6079667,0.22381094,-0.5845716,1.1907619
0.03,-0.21511114,2.4510527,-3.7668633,0.2781348,-0.45584655,1.1869198
0.032,-0.32559144,2.6165824,-3.9314013,0.32630345,-0.33938774,1.1745362
0.034,-0.43707168,2.7796645,-4.0993786,0.36687297,-0.23836173,1.152539
0.036,-0.54855156,2.9382572,-4.2691603,0.39858815,-0.15544952,1.1202409
0.038,-0.65935874,3.0908391,-4.440043,0.42050523,-0.09266254,1.0774312
0.04,-0.76935196,3.2363675,-4.610621,0.43207002,-0.051119313,1.0243816
0.042,-0.87841046,3.3743386,-4.7781224,0.4331844,-0.030920386,0.96180654
0.044,-0.98630273,3.504537,-4.939159,0.42424053,-0.03112717,0.8908315
0.046,-1.0921922,3.6269703,-5.090063,0.4061286,-0.049883977,0.81297004
0.048,-1.1947942,3.7415736,-5.2273936,0.38022813,-0.084646285,0.73007673
0.05,-1.2928069,3.8486865,-5.3478103,0.3482618,-0.13251011,0.64427865
0.052,-1.3856056,3.9492486,-5.448631,0.3121165,-0.19049151,0.5578557
0.054,-1.4723692,4.044381,-5.52775,0.27372319,-0.25568748,0.47312808
0.056,-1.5517492,4.135454,-5.5872736,0.23499815,-0.3252864,0.3923438
0.058,-1.6230526,4.224193,-5.621271,0.19774978,-0.39665723,0.31765383
0.06,-1.6848311,4.3110175,-5.628661,0.16361955,-0.46753052,0.25104177
0.062,-1.7360737,4.3962207,-5.609175,0.13395098,-0.536082,0.19424087
0.064,-1.7754409,4.480032,-5.56351,0.109714,-0.6008402,0.148624
0.066,-1.8015399,4.562456,-5.4929457,0.09143591,-0.6606637,0.11511517
0.068,-1.8125877,4.643385,-5.398331,0.079220474,-0.71461004,0.09412675
0.07,-1.8076079,4.7226677,-5.2814946,0.07279596,-0.7619686,0.08549779
0.072,-1.7856255,4.799697,-5.145526,0.071534336,-0.8023867,0.08845101
0.074,-1.745682,4.8734493,-4.993404,0.074501485,-0.8358086,0.10163463
0.076,-1.6868253,4.942458,-4.8279963,0.08055103,-0.8621893,0.12312913
0.078,-1.6087799,5.005089,-4.6522465,0.0885275,-0.88147885,0.15055506
0.08,-1.512819,5.0598183,-4.4685855,0.09743154,-0.89371574,0.18134943
0.082,-1.3996665,5.1050634,-4.27957,0.10654187,-0.8990779,0.21298584
0.084,-1.270113,5.1387997,-4.0882764,0.115427196,-0.89796114,0.243269
0.086,-1.1250379,5.159405,-3.8973083,0.123906195,-0.8910957,0.27047077
0.088,-0.96601224,5.1652656,-3.7092628,0.13190126,-0.8796395,0.29338157
0.09,-0.79455924,5.1554027,-3.526238,0.13930577,-0.8651969,0.3113457
0.092,-0.61206937,5.1289706,-3.3491042,0.14580813,-0.84977686,0.32420495
0.094,-0.42090607,5.0859094,-3.1781585,0.15080124,-0.8357602,0.33218664
0.096,-0.2223165,5.025767,-3.014234,0.15331593,-0.82577175,0.33575416
0.098,-0.016820192,4.947847,-2.8583286,0.15210032,-0.82243717,0.3353931
0.1,0.19457734,4.8522468,-2.7105322,0.14583117,-0.82799524,0.33149117
0.102,0.41001725,4.7398887,-2.5692434,0.13327736,-0.8441283,0.32424912
0.104,0.62811065,4.6120324,-2.4323518,0.113539845,-0.8719285,0.31368208
0.106,0.84723306,4.4706364,-2.2980936,0.08624813,-0.91177636,0.29976422
0.108,1.0657225,4.317435,-2.1635034,0.051578134,-0.9634691,0.28246006
0.11,1.2820749,4.1543374,-2.0253687,0.010111183,-1.0264603,0.26176646
0.112,1.494987,3.9834735,-1.880668,-0.037255764,-1.0998269,0.23779994
0.114,1.7030056,3.8071027,-1.726569,-0.08938724,-1.18215,0.21082723
0.116,1.9041985,3.6276314,-1.5611026,-0.14500618,-1.2717028,0.18128173
0.118,2.0969589,3.4473915,-1.3832966,-0.20282888,-1.3666466,0.14976484
0.12,2.2793212,3.2688255,-1.1928962,-0.2617032,-1.4651084,0.11699497
0.122,2.4486938,3.0944,-0.9891522,-0.32063305,-1.5651157,0.08373103
0.124,2.60105,2.9272406,-0.7710989,-0.37875754,-1.6645285,0.050778054
0.126,2.73243,2.7700243,-0.53733313,-0.43530968,-1.7611624,0.019017387
0.128,2.838923,2.6256218,-0.2865818,-0.48958635,-1.8528304,-0.010584831
0.13,2.9160137,2.4969153,-0.01902014,-0.5409131,-1.9373579,-0.036964033
0.132,2.9582431,2.387011,0.2630475,-0.58863664,-2.0126162,-0.058987655
0.134,2.9599838,2.2990646,0.55597615,-0.6321408,-2.0764563,-0.07546916
0.136,2.9164293,2.2355285,0.8561241,-0.6708293,-2.1267564,-0.08518718
0.138,2.8239846,2.1987357,1.1606964,-0.70418453,-2.161574,-0.08705288
0.14,2.6788073,2.190857,1.4664632,-0.731837,-2.1792212,-0.080178015
0.142,2.4786692,2.2134106,1.7692254,-0.7535629,-2.178238,-0.06394281
0.144,2.2226703,2.2671342,2.0643656,-0.7693287,-2.1574926,-0.038110454
0.146,1.9114438,2.3519304,2.3477633,-0.7792667,-2.1162357,-0.0028470296
0.148,1.5462965,2.4667373,2.615802,-0.7836872,-2.0541701,0.04129004
0.15,1.1301955,2.6101255,2.864122,-0.7830635,-1.9713974,0.09341009
0.152,0.6669679,2.780199,3.0870335,-0.77804977,-1.8684437,0.15236494
0.154,0.16059354,2.9752505,3.2788868,-0.7694738,-1.74634,0.21676703
0.156,-0.3844118,3.1935081,3.434509,-0.75824547,-1.6065271,0.2850745
0.158,-0.9627232,3.4333153,3.549427,-0.74531287,-1.4508468,0.35565338
0.16,-1.5678763,3.6924925,3.6202936,-0.73166174,-1.2817172,0.42677006
0.162,-2.1920455,3.9685147,3.6450605,-0.7182028,-1.1020634,0.49671414
0.164,-2.8268957,4.258826,3.6229212,-0.70566833,-0.91520786,0.5638176
0.166,-3.4644358,4.5612326,3.5538216,-0.69458866,-0.7249295,0.6264774
0.168,-4.0965843,4.8734736,3.4381557,-0.68530077,-0.53539467,0.6832849
0.17,-4.7147818,5.1931753,3.27696,-0.6779034,-0.35079068,0.733151
0.172,-5.3104777,5.517755,3.0717976,-0.67226356,-0.17508851,0.7753049
0.174,-5.8751707,5.844201,2.8252528,-0.6680378,-0.0117658675,0.8092834
0.176,-6.4014354,6.1696806,2.5404367,-0.6647902,0.1364074,0.8349721
0.178,-6.8827534,6.491206,2.2204866,-0.6620208,0.2675168,0.8525892
0.18,-7.3124824,6.8052945,1.8698893,-0.659206,0.38071322,0.86255145
0.182,-7.6851106,7.108861,1.4939054,-0.65590084,0.47608274,0.8653657
0.184,-7.9961367,7.3989997,1.0973064,-0.6517911,0.5545121,0.86152864
0.186,-8.241639,7.672694,0.6848161,-0.6467173,0.61752087,0.85149825
0.188,-8.417628,7.9265137,0.2611966,-0.6406651,0.6668757,0.8356685
0.19,-8.520751,8.156959,-0.16937077,-0.63381433,0.70429385,0.8144118
0.192,-8.549096,8.360482,-0.6024525,-0.62649524,0.73127186,0.7881473
0.194,-8.501936,8.533785,-1.0333323,-0.61919045,0.74890393,0.75727206
0.196,-8.379306,8.673451,-1.4576612,-0.61254925,0.7576953,0.72213143
0.198,-8.181864,8.776158,-1.871283,-0.60732114,0.75765634,0.6830537
0.2,-7.9113917,8.838951,-2.270332,-0.6043404,0.7483824,0.64036775
0.202,-7.57111,8.859377,-2.6504827,-0.60444796,0.7292169,0.5944123
0.204,-7.1653357,8.835581,-3.007728,-0.608399,0.69935054,0.5455617
0.206,-6.6990395,8.766634,-3.3384748,-0.61680704,0.6579882,0.4942389
0.208,-6.179265,8.652407,-3.638216,-0.6301575,0.6044527,0.44095016
0.21,-5.6135178,8.49361,-3.9025617,-0.648777,0.5382884,0.3862897
0.212,-5.009431,8.291607,-4.12813,-0.672806,0.45944092,0.33095616
0.214,-4.3756475,8.048665,-4.312108,-0.7021669,0.36833632,0.2758146
0.216,-3.72129,7.7674084,-4.4518833,-0.73657286,0.26586387,0.22193569
0.218,-3.055837,7.4517365,-4.5455728,-0.7755147,0.1534377,0.17060679
0.22,-2.389638,7.1067967,-4.5913887,-0.8182186,0.03305629,0.123277225
0.222,-1.7336073,6.7388897,-4.587664,-0.863608,-0.092758656,0.08147463
0.224,-1.0981739,6.35507,-4.5325665,-0.9103145,-0.22113067,0.04673128
0.226,-0.49310637,5.9627333,-4.4241405,-0.95672154,-0.34889793,0.020569675
0.228,0.072529554,5.569404,-4.2615824,-1.0010406,-0.4727812,0.0043753684
0.23,0.59015787,5.1825223,-4.044594,-1.0414253,-0.58952665,-0.0007621646
0.232,1.0518894,4.8097076,-3.774507,-1.0761281,-0.69600695,0.0058222413
0.234,1.4514626,4.457975,-3.4539685,-1.1036308,-0.78944516,0.024330013
0.236,1.784088,4.1341305,-3.0869203,-1.1227229,-0.8674462,0.054484725
0.238,2.0459466,3.844327,-2.6782002,-1.1325765,-0.928071,0.09552545
0.24,2.2347143,3.5940144,-2.2332225,-1.132868,-0.96981895,0.14617106
0.242,2.3501868,3.3879237,-1.7579498,-1.1237541,-0.99154925,0.20473403
0.244,2.3928611,3.230141,-1.2591901,-1.1058066,-0.9925262,0.26926297
0.246,2.3646293,3.1239445,-0.74376625,-1.079892,-0.9723479,0.33772713
0.248,2.2685356,3.071614,-0.21903072,-1.0469623,-0.9308703,0.40827337
0.25,2.1093574,3.074209,0.3070362,-1.0079597,-0.8681102,0.47932813
0.252,1.8930454,3.131594,0.8263308,-0.9638118,-0.7842547,0.54965025
0.254,1.6270671,3.241927,1.3308475,-0.9154318,-0.6796145,0.61833584
0.256,1.3195602,3.4021115,1.8126929,-0.8636863,-0.55457973,0.68479276
0.258,0.9801818,3.6080556,2.2640142,-0.8094029,-0.40975606,0.7486554
0.26,0.61859554,3.854657,2.677166,-0.75335866,-0.24615203,0.80969113
0.262,0.24500549,4.135941,3.0456119,-0.69627935,-0.06539056,0.8676868
0.264,-0.12960863,4.445016,3.3636508,-0.6388954,0.1301119,0.9222969
0.266,-0.49479115,4.7745314,3.627143,-0.5820021,0.33687037,0.97295177
0.268,-0.8406348,5.1169276,3.8333824,-0.526541,0.5502505,1.0188067
0.27,-1.1576493,5.464819,3.9806998,-0.4735728,0.76461816,1.0587978
0.272,-1.4374845,5.8111305,4.0680885,-0.4242701,0.9736248,1.0917028
0.274,-1.67276,6.1487527,4.095902,-0.37987822,1.1706365,1.1162466
0.276,-1.8563893,6.4708724,4.06596,-0.34169284,1.3491873,1.1312695
0.278,-1.9832407,6.771657,3.98153,-0.31097302,1.5034822,1.1359413
0.28,-2.0499516,7.045986,3.8468664,-0.28878647,1.628856,1.1298604
0.282,-2.0541759,7.2896976,3.667424,-0.2759207,1.7220838,1.1131108
0.284,-1.9956839,7.4999375,3.4495118,-0.27278644,1.7814404,1.0862708
0.286,-1.8754475,7.6752095,3.2003183,-0.27938938,1.8066527,1.0503812
0.288,-1.6963413,7.814955,2.9276285,-0.2952838,1.7986982,1.0068547
0.29,-1.4624205,7.920008,2.6392016,-0.31961375,1.7595353,0.9572327
0.292,-1.1787336,7.9917107,2.34304,-0.35119116,1.6918131,0.90300727
0.294,-0.8515992,8.032405,2.0469718,-0.38856646,1.5985569,0.84550935
0.296,-0.48780823,8.044886,1.7584877,-0.4302253,1.4830204,0.7857551
0.298,-0.0946126,8.032531,1.4843504,-0.47469243,1.3487334,0.7244551
0.3,0.3205886,7.99937,1.2302063,-0.520657,1.1994262,0.6620917
0.302,0.75105643,7.94918,1.0011168,-0.56705236,1.0390007,0.598886
0.304,1.1893381,7.886385,0.8013076,-0.6129452,0.87158215,0.535015
0.306,1.6284786,7.8154325,0.63404846,-0.6574183,0.70150495,0.47075692
0.308,2.062389,7.740393,0.50205797,-0.69953936,0.5331613,0.4065042
0.31,2.4852684,7.665062,0.40672264,-0.7383977,0.37080777,0.3427871
0.312,2.8929744,7.592663,0.3480429,-0.77313656,0.21850654,0.28027534
0.314,3.281845,7.5260763,0.32512093,-0.80297846,0.08003351,0.21975608
0.316,3.6489358,7.46755,0.33636376,-0.8272316,-0.04128307,0.16202979
0.318,3.9930792,7.4185877,0.3784989,-0.84532666,-0.14272088,0.10789583
0.32,4.313518,7.3796487,0.4480909,-0.856828,-0.2221708,0.058148414
0.322,4.609408,7.351114,0.5415567,-0.8614601,-0.2782157,0.013573848
0.324,4.8804317,7.3326592,0.6554116,-0.85912514,-0.3101644,-0.025090493
0.326,5.126746,7.324023,0.7861104,-0.84992707,-0.3181048,-0.05710256
0.328,5.3486633,7.3243165,0.9300161,-0.8341611,-0.30293337,-0.08169246
0.33,5.546717,7.332158,1.0832103,-0.8122344,-0.26619232,-0.09811105
0.332,5.7213826,7.3459525,1.2420282,-0.7847142,-0.21012971,-0.10570638
0.334,5.8726597,7.3640046,1.4025235,-0.7523641,-0.13774633,-0.10394127
0.336,6.0000377,7.384969,1.561284,-0.71612257,-0.05258146,-0.09244903
0.338,6.102352,7.407961,1.7154162,-0.67707205,0.041459024,-0.07111125
0.34,6.17851,7.432678,1.8624164,-0.6364185,0.1402556,-0.040143132
0.342,6.2273345,7.4586864,2.0006957,-0.59546673,0.23965146,-0.00013282895
0.344,6.2473416,7.485821,2.1296837,-0.555534,0.33562374,0.048047252
0.346,6.2366047,7.513909,2.2495008,-0.51785415,0.42447743,0.10326678
0.348,6.1929626,7.5433464,2.3608627,-0.48351073,0.5029391,0.16413328
0.35,6.114243,7.5745964,2.4647527,-0.45332152,0.5682716,0.22906597
0.352,5.998232,7.6083717,2.5622945,-0.42776895,0.61832815,0.29633045
0.354,5.8442674,7.645158,2.6547692,-0.40693527,0.65162647,0.3641045
0.356,5.6520653,7.6856337,2.743414,-0.39054477,0.66734844,0.43057376
0.358,5.421521,7.730804,2.8296046,-0.378046,0.6653203,0.49391478
0.36,5.153222,7.781752,2.9148316,-0.36869317,0.64604795,0.5523387
0.362,4.84889,7.8391805,3.0003364,-0.3615646,0.61067855,0.60421264
0.364,4.510902,7.903898,3.087092,-0.35567278,0.56094223,0.6481283
0.366,4.142228,7.97654,3.175787,-0.35003805,0.49903518,0.6829288
0.368,3.7470205,8.05719,3.2673156,-0.3437811,0.42740506,0.70771956
0.37,3.3305285,8.1454115,3.3622355,-0.33619636,0.34865558,0.7218967
0.372,2.8984814,8.240623,3.4604876,-0.32670748,0.26546216,0.72517395
0.374,2.4574213,8.341524,3.5619814,-0.31485057,0.1805047,0.7175667
0.376,2.014571,8.446701,3.6658063,-0.30030954,0.09627665,0.6993881
0.378,1.5771956,8.554622,3.7708645,-0.28297848,0.014965072,0.6712048
0.38,1.1521862,8.663317,3.876042,-0.26287642,-0.061483607,0.6338138
0.382,0.7466676,8.770661,3.9806828,-0.24016842,-0.13134204,0.5881895
0.384,0.36689234,8.874645,4.0836606,-0.21518104,-0.1931967,0.5354567
0.386,0.018315554,8.973255,4.183711,-0.18833719,-0.24585307,0.47686803
0.388,-0.29374123,9.0646515,4.2792516,-0.16012214,-0.28834474,0.4137648
0.39,-0.5648124,9.14703,4.369023,-0.13106313,-0.32001415,0.34757572
0.392,-0.79158425,9.218705,4.451755,-0.10169169,-0.34046948,0.27976337
0.394,-0.97173214,9.278153,4.526136,-0.072489284,-0.3495707,0.21182543
0.396,-1.1039526,9.324013,4.5908713,-0.043880925,-0.34743172,0.14521272
0.398,-1.1877582,9.355574,4.644679,-0.016211048,-0.33441165,0.08130124
0.4,-1.2240024,9.372527,4.6865044,0.01024805,-0.3111143,0.02134908
0.402,-1.214304,9.37546,4.7154484,0.035310417,-0.2783585,-0.03357377
0.404,-1.1612363,9.365179,4.730987,0.05890234,-0.23710987,-0.082620725
0.406,-1.0685122,9.343344,4.7328663,0.08103817,-0.18841186,-0.12519014
0.408,-0.9401448,9.312,4.7210855,0.10178876,-0.13343959,-0.16097124
0.41,-0.78089666,9.273335,4.6959376,0.12131207,-0.07350068,-0.18994248
0.412,-0.5961828,9.230188,4.6577873,0.13987896,-0.009986412,-0.21233171
0.414,-0.39014888,9.184907,4.606716,0.1578475,0.05559953,-0.22860341
0.416,-0.16735744,9.139846,4.5429754,0.17559057,0.12165585,-0.23943849
0.418,0.06737018,9.097843,4.4666142,0.19349961,0.18644635,-0.24568681
0.42,0.3095672,9.061443,4.3786077,0.21193735,0.248179,-0.2483227
0.422,0.55466104,9.032926,4.2801085,0.23126447,0.30510932,-0.24833715
0.424,0.79842424,9.014421,4.1726885,0.25179556,0.35562342,-0.24666595
0.426,1.0363696,9.007777,4.0582094,0.2737567,0.3982289,-0.2441953
0.428,1.2646129,9.014517,3.938983,0.2972769,0.43167773,-0.24170849
0.43,1.4797542,9.035787,3.8173862,0.3224568,0.45516133,-0.2398572
0.432,1.6790688,9.072217,3.6959841,0.3493797,0.46835694,-0.2391075
0.434,1.8604988,9.12378,3.577326,0.37809265,0.4713795,-0.2397601
0.436,2.0225368,9.189687,3.4641888,0.40861005,0.4647678,-0.24194424
0.438,2.1640503,9.268711,3.3589761,0.4409151,0.44945157,-0.2456424
0.44,2.2844472,9.359183,3.2644262,0.47496897,0.4266864,-0.25075647
0.442,2.3834872,9.459095,3.183144,0.51070464,0.39793026,-0.25710806
0.444,2.461175,9.566338,3.1181111,0.54801583,0.36472118,-0.2644881
0.446,2.5177932,9.678484,3.071841,0.58672345,0.3284974,-0.27266285
0.448,2.5537972,9.792912,3.0469785,0.626561,0.29053557,-0.28143507
0.45,2.5697596,9.906668,3.0457606,0.66721225,0.25195587,-0.29063386
0.452,2.5664847,10.01703,3.0700805,0.7083329,0.21374471,-0.30013224
0.454,2.5444705,10.121402,3.1216085,0.7495467,0.17667562,-0.3098424
0.456,2.5046809,10.217561,3.2016191,0.79044366,0.14130092,-0.31973574
0.458,2.4480386,10.303092,3.3107734,0.8305688,0.10795534,-0.32984585
0.46,2.3754234,10.376233,3.4491649,0.86949384,0.076837,-0.34025633
0.462,2.287509,10.435593,3.6161995,0.90689814,0.048121363,-0.35108984
0.464,2.184482,10.480302,3.8109636,0.9425561,0.021975547,-0.3624795
0.466,2.066523,10.510057,4.031939,0.9763435,-0.0014252365,-0.3745911
0.468,1.9336023,10.524971,4.2769437,1.0082605,-0.021816254,-0.38759568
0.47,1.7857273,10.525653,4.54332,1.0384616,-0.03876683,-0.40162274
0.472,1.6227129,10.513358,4.8279724,1.0672357,-0.05159977,-0.4167562
0.474,1.444422,10.489569,5.1275287,1.0949836,-0.059499264,-0.43299353
0.476,1.2509487,10.456038,5.4384756,1.1221522,-0.061573327,-0.45029363
0.478,1.0422888,10.414624,5.7568946,1.1492462,-0.05689335,-0.46858895
0.48,0.8185246,10.367302,6.0789127,1.1767739,-0.044535667,-0.48780668
0.482,0.58016944,10.315939,6.400645,1.2052168,-0.023723036,-0.5079291
0.484,0.32783484,10.26298,6.717594,1.2349935,0.0061064065,-0.52897215
0.486,0.06271696,10.210215,7.0254693,1.2664324,0.045234293,-0.5510136
0.488,-0.21322513,10.159399,7.320071,1.2997427,0.09364486,-0.5741728
0.49,-0.4975896,10.112141,7.5974407,1.3350279,0.15104541,-0.59859115
0.492,-0.78780484,10.069651,7.8539786,1.3722652,0.21687338,-0.6244172
0.494,-1.0807536,10.033161,8.086482,1.4112837,0.29031318,-0.65178156
0.496,-1.3728263,10.003125,8.292135,1.4517696,0.3703598,-0.6807549
0.498,-1.6603689,9.979799,8.468761,1.4932816,0.45584932,-0.711343
0.5,-1.9393642,9.963255,8.614246,1.5352538,0.5455555,-0.7434802
0.502,-2.2060616,9.953567,8.727249,1.5770507,0.63822055,-0.7770014
0.504,-2.4563785,9.9506,8.806847,1.6179891,0.7325999,-0.81164974
0.506,-2.6865845,9.953914,8.852776,1.6573598,0.8274057,-0.84713554
0.508,-2.8928192,9.962738,8.865272,1.6945025,0.92137754,-0.8831291
0.51,-3.0716925,9.976263,8.844901,1.7288425,1.0133315,-0.9192644
0.512,-3.2201312,9.993393,8.792654,1.7599461,1.1021532,-0.95519924
0.514,-3.3355706,10.013415,8.709844,1.7875398,1.1867993,-0.9906293
0.516,-3.41622,10.0356655,8.598156,1.8115134,1.266341,-1.0252652
0.518,-3.4606566,10.05961,8.459671,1.831937,1.3399734,-1.0588722
0.52,-3.4680948,10.084681,8.297065,1.8490287,1.4070073,-1.0912788
0.522,-3.4384193,10.110613,8.113122,1.8631281,1.4668865,-1.122387
0.524,-3.3726585,10.137277,7.9110184,1.8746564,1.5192392,-1.1521916
0.526,-3.2720711,10.164614,7.693736,1.884098,1.5639403,-1.1807498
0.528,-3.1380405,10.192138,7.4645267,1.8919849,1.6011252,-1.2081524
0.53,-2.9724293,10.219414,7.2262797,1.8988565,1.6311369,-1.2344837
0.532,-2.7777872,10.246319,6.9826183,1.9052238,1.6544365,-1.2598424
0.534,-2.557062,10.272515,6.737172,1.9115651,1.6716013,-1.2843218
0.536,-2.313383,10.297753,6.4935565,1.9183166,1.6832961,-1.3080441
0.538,-2.050222,10.321672,6.255362,1.9258487,1.6901588,-1.3311666
0.54,-1.77114,10.3438225,6.0262523,1.9344417,1.6927857,-1.3538587
0.542,-1.4798715,10.363471,5.8095717,1.9443113,1.6917114,-1.3763058
0.544,-1.1802676,10.379949,5.608428,1.9556072,1.6874247,-1.3986964
0.546,-0.8761953,10.392695,5.4255533,1.9684415,1.6804373,-1.421197
0.548,-0.5715499,10.401093,5.263801,1.9829059,1.671308,-1.4439237
0.55,-0.26994038,10.404482,5.1253767,1.9990826,1.6606827,-1.4669747
0.552,0.024835587,10.402459,5.0119505,2.0170372,1.649332,-1.4903955
0.554,0.3096311,10.39427,4.9248314,2.036815,1.6381501,-1.5141895
0.556,0.5812217,10.379314,4.864993,2.058427,1.6281446,-1.5383111
0.558,0.8367722,10.357121,4.832963,2.0818508,1.6203552,-1.5626519
0.56,1.0737073,10.327186,4.8290443,2.1070318,1.6158446,-1.5870354
0.562,1.2892504,10.289486,4.8529315,2.1338434,1.6155846,-1.611244
0.564,1.4812831,10.244163,4.9037237,2.1621025,1.6203778,-1.6350263
0.566,1.647736,10.191375,4.980259,2.1915388,1.6307853,-1.6580976
0.568,1.7873952,10.131479,5.081054,2.2218037,1.6470934,-1.6801553
0.57,1.8991368,10.064675,5.2042584,2.2524853,1.6692965,-1.7009025
0.572,1.9824272,9.991433,5.3480716,2.2831674,1.6971438,-1.7200615
0.574,2.037129,9.91235,5.5102735,2.3134356,1.7301679,-1.737397
0.576,2.063254,9.8284235,5.688326,2.342906,1.7677243,-1.752743
0.578,2.0614946,9.740527,5.8795066,2.3712385,1.8090419,-1.7659949
0.58,2.032995,9.649432,6.0809317,2.398138,1.8532717,-1.7771499
0.582,1.9791278,9.556137,6.289834,2.423356,1.899595,-1.7862904
0.584,1.9017526,9.461831,6.5030127,2.4467218,1.9473194,-1.7935691
0.586,1.8026761,9.367786,6.7173305,2.46814,1.9959071,-1.7991586
0.588,1.684087,9.275299,6.9298735,2.4875832,2.044942,-1.8032517
0.59,1.5486373,9.185692,7.1374364,2.5051193,2.0941315,-1.8060477
0.592,1.3993512,9.100173,7.3368807,2.5208778,2.143322,-1.8077664
0.594,1.2395706,9.019552,7.525628,2.5350776,2.192425,-1.8086673
0.596,1.0726095,8.944924,7.7011704,2.5479784,2.2414165,-1.8090432
0.598,0.9019599,8.877003,7.86136,2.5598822,2.2902727,-1.8092098
0.6,0.7311944,8.816329,8.00391,2.5711064,2.3388965,-1.8095145
0.602,0.56422055,8.763263,8.126763,2.5819662,2.3871737,-1.810335
0.604,0.4049027,8.717707,8.228326,2.5927596,2.434926,-1.8120438
0.606,0.25686777,8.679765,8.307249,2.6037602,2.4818828,-1.8150195
0.608,0.12375569,8.649027,8.362452,2.6152046,2.5277178,-1.819624
0.61,0.008952737,8.624876,8.393279,2.6272602,2.5720415,-1.8261576
0.612,-0.08434212,8.606342,8.39907,2.6400242,2.6144853,-1.8348485
0.614,-0.15319276,8.59241,8.379449,2.6535468,2.654715,-1.8458385
0.616,-0.1950953,8.581923,8.334112,2.6678126,2.6923692,-1.8591805
0.618,-0.20799959,8.573881,8.26295,2.6827426,2.7271042,-1.874811
0.62,-0.19041145,8.567204,8.166218,2.6982067,2.7585676,-1.8925865
0.622,-0.14148498,8.560803,8.044514,2.7140362,2.7864237,-1.9122875
0.624,-0.060773015,8.553605,7.8986163,2.7300382,2.8103533,-1.9336212
0.626,0.051504016,8.54457,7.729704,2.745955,2.8300347,-1.9562521
0.628,0.19452453,8.532591,7.539034,2.7614956,2.845154,-1.9798104
0.63,0.3669529,8.516866,7.3280783,2.7763638,2.8554177,-2.0039093
0.632,0.5666809,8.496791,7.0984325,2.7902553,2.8605413,-2.028182
0.634,0.7911711,8.471951,6.851861,2.8028736,2.8602467,-2.0522485
0.636,1.0370681,8.442367,6.590577,2.8139787,2.854286,-2.0757627
0.638,1.3004507,8.408392,6.3166876,2.823379,2.8424435,-2.0984235
0.64,1.5769135,8.370596,6.032671,2.830957,2.824566,-2.120004
0.642,1.8619394,8.329618,5.74071,2.8367093,2.8006246,-2.140359
0.644,2.1510375,8.286227,5.443293,2.840759,2.77077,-2.1594262
0.646,2.4395838,8.24142,5.1429367,2.8433893,2.7353997,-2.1772194
0.648,2.7227793,8.1963215,4.842218,2.845031,2.695189,-2.1938198
0.65,2.9960067,8.152078,4.543864,2.846268,2.6510992,-2.209334
0.652,3.2551284,8.109761,4.2506285,2.8478045,2.604392,-2.2238874
0.654,3.4963777,8.070141,3.9654188,2.8504424,2.556554,-2.2375658
0.656,3.7164674,8.033904,3.6911783,2.8550239,2.5092168,-2.2504296
0.658,3.9127514,8.0016985,3.4303322,2.862366,2.4640582,-2.2625077
0.66,4.0828347,7.9740324,3.1852317,2.8732073,2.4226768,-2.2737644
0.662,4.225577,7.950836,2.9582365,2.8881583,2.386449,-2.284124
0.664,4.340235,7.932115,2.751238,2.9076483,2.356411,-2.2935143
0.666,4.4266276,7.9176064,2.56603,2.9319038,2.3331368,-2.3019166
0.668,4.4853926,7.906768,2.4040108,2.9609184,2.3167489,-2.3093514
0.67,4.5174475,7.8990517,2.2663546,2.9944916,2.3069665,-2.3159177
0.672,4.524578,7.8934627,2.153868,3.0322142,2.3030674,-2.321773
0.674,4.5090394,7.8888535,2.0670776,3.0735297,2.3040328,-2.3271205
0.676,4.47322,7.8837705,2.0061975,3.1177306,2.3086278,-2.3321962
0.678,4.4199543,7.876876,1.9708588,3.164019,2.3154838,-2.337251
0.68,4.352121,7.866712,1.9604659,3.2115707,2.3232477,-2.3425083
0.682,4.272887,7.8517947,1.9737827,3.2595372,2.33062,-2.3481133
0.684,4.185312,7.8306847,2.0094318,3.3070726,2.3363938,-2.354135
0.686,4.0928545,7.8018107,2.0655622,3.3533611,2.3395438,-2.3605416
0.688,3.9985807,7.763908,2.140132,3.3976502,2.3392103,-2.3672338
0.69,3.9053226,7.715955,2.2307994,3.4392428,2.3347206,-2.3740675
0.692,3.8153608,7.6572976,2.3347878,3.4775696,2.325598,-2.3808625
0.694,3.7308216,7.587277,2.4496443,3.5121822,2.311551,-2.3874125
0.696,3.6538782,7.5054398,2.572585,3.5427504,2.2924478,-2.3935454
0.698,3.5862455,7.411734,2.700528,3.5690677,2.2683454,-2.3991482
0.7,3.529319,7.306323,2.8305402,3.5911088,2.2394743,-2.4042132
0.702,3.4842615,7.189722,2.9599643,3.6089778,2.2062464,-2.4088175
0.704,3.451807,7.062615,3.085942,3.622921,2.1692247,-2.4131489
0.706,3.4328816,6.9259853,3.206033,3.6332998,2.1291304,-2.4174702
0.708,3.4281113,6.780631,3.3179421,3.6405914,2.0868022,-2.4221022
0.71,3.4382563,6.6276803,3.4198081,3.6453614,2.0431108,-2.4273748
0.712,3.4637427,6.4683,3.5101051,3.6482627,1.998952,-2.4336448
0.714,3.5048852,6.303767,3.5874596,3.6499796,1.9551915,-2.4412546
0.716,3.561922,6.1352177,3.6509268,3.6512136,1.912595,-2.4504983
0.718,3.6351583,5.963719,3.6996145,3.6526504,1.8718255,-2.4616115
0.72,3.7244568,5.7903557,3.733062,3.6548917,1.8334149,-2.4746907
0.722,3.8297908,5.6161127,3.7512078,3.658441,1.7977285,-2.4897695
0.724,3.9506567,5.441741,3.7543588,3.6636543,1.7649549,-2.506781
0.726,4.08624,5.268185,3.7430143,3.6707206,1.7351413,-2.5255976
0.728,4.2355294,5.096007,3.7178097,3.6796708,1.7081898,-2.5460148
0.73,4.397477,4.925681,3.6795616,3.6903896,1.6839185,-2.5678005
0.732,4.5707493,4.757515,3.6290221,3.7026412,1.6620944,-2.5906672
0.734,4.7537622,4.591548,3.567095,3.7161136,1.6424596,-2.614313
0.736,4.944876,4.427744,3.4945917,3.7304792,1.6247667,-2.6384673
0.738,5.1421337,4.2661533,3.4122815,3.7454472,1.6088322,-2.6628575
0.74,5.343793,4.106458,3.320991,3.760808,1.5945358,-2.687227
0.742,5.547756,3.9484375,3.2217722,3.7764711,1.5818479,-2.7113175
0.744,5.7518024,3.7918315,3.1158414,3.7924614,1.5708089,-2.7348695
0.746,5.9536743,3.6361346,3.0043075,3.8089004,1.5614774,-2.7576163
0.748,6.151483,3.4808936,2.8884516,3.8259735,1.5539551,-2.7792974
0.75,6.3436346,3.3255522,2.769393,3.8439193,1.5483449,-2.7996552
0.752,6.5284667,3.1695876,2.6482813,3.8629627,1.5446955,-2.8184514
0.754,6.704484,3.0124123,2.526164,3.8832695,1.5430307,-2.8354776
0.756,6.8704357,2.8534825,2.404432,3.9049714,1.5433657,-2.8505604
0.758,7.0253057,2.6922116,2.284423,3.9281125,1.5457125,-2.8635511
0.76,7.168303,2.528187,2.1673079,3.9526882,1.550127,-2.8743377
0.762,7.2986703,2.3612647,2.0544298,3.9786506,1.5567368,-2.8828428
0.764,7.4162135,2.1913326,1.9469459,4.005921,1.5657141,-2.8890092
0.766,7.520527,2.018228,1.8457937,4.0344357,1.5772841,-2.892793
0.768,7.611952,1.8418115,1.7519786,4.0641747,1.591746,-2.8941858
0.77,7.6909256,1.6619673,1.6662169,4.095156,1.6094036,-2.8932133
0.772,7.757752,1.4789219,1.5889387,4.1274214,1.6305013,-2.8899279
0.774,7.8127546,1.2930473,1.5204036,4.1610384,1.6551573,-2.884448
0.776,7.856602,1.1046747,1.4607136,4.196069,1.683342,-2.876892
0.778,7.889718,0.91433096,1.4097829,4.232514,1.714849,-2.867432
0.78,7.912986,0.7225568,1.3671389,4.2703414,1.7492352,-2.856279
0.782,7.9274364,0.5300369,1.3320763,4.309416,1.7858632,-2.8436704
0.784,7.933955,0.33754492,1.3035431,4.349555,1.823863,-2.8298345
0.786,7.9340897,0.14595795,1.2803972,4.3905,1.8621575,-2.815011
0.788,7.928895,-0.044077158,1.2617979,4.431925,1.8994904,-2.7994254
0.79,7.920064,-0.23194385,1.2465928,4.4735003,1.9344916,-2.7832854
0.792,7.909213,-0.41726255,1.2337606,4.5148716,1.9656768,-2.7668376
0.794,7.898476,-0.59955835,1.2221795,4.555683,1.9915118,-2.7503524
0.796,7.889908,-0.77856827,1.2108517,4.5956087,2.0105138,-2.734134
0.798,7.885807,-0.9541106,1.1988298,4.634378,2.021336,-2.718477
0.8,7.8886976,-1.1262126,1.1854275,4.671826,2.022841,-2.7036886
0.802,7.9014196,-1.295263,1.1701454,4.7078547,2.0141625,-2.690054
0.804,7.9263997,-1.4616151,1.1524549,4.7424545,1.994767,-2.6778193
0.806,7.9655128,-1.6255648,1.1321867,4.7756953,1.9645054,-2.6671758
0.808,8.020746,-1.7874677,1.1090896,4.8077025,1.9235871,-2.6582284
0.81,8.093731,-1.9477572,1.0832167,4.8386173,1.8726084,-2.65101
0.812,8.185756,-2.1068425,1.0544341,4.868622,1.8125007,-2.6454659
0.814,8.29767,-2.2650254,1.0229042,4.897869,1.7444769,-2.6414585
0.816,8.4296465,-2.422634,0.9887059,4.926503,1.6699848,-2.6387775
0.818,8.581308,-2.5795796,0.95210004,4.9546375,1.5906394,-2.637137
0.82,8.751655,-2.7359552,0.9133439,4.9823675,1.5081025,-2.6361933
0.822,8.93906,-2.8915558,0.87285066,5.0097675,1.4240069,-2.6355598
0.824,9.141476,-3.046027,0.83081913,5.0369096,1.3398619,-2.6348195
0.826,9.35637,-3.198982,0.7874526,5.063873,1.2570047,-2.6335695
0.828,9.580652,-3.3499491,0.74337566,5.09076,1.1765422,-2.6314473
0.83,9.811097,-3.4984825,0.69904625,5.1176834,1.0993359,-2.6281462
0.832,10.044013,-3.6439116,0.65502036,5.1447773,1.0259573,-2.6234179
0.834,10.275508,-3.7855358,0.61186504,5.17215,0.9566861,-2.6170774
0.836,10.501899,-3.9228594,0.57041085,5.199913,0.8915156,-2.6090193
0.838,10.71962,-4.0553293,0.5314765,5.228165,0.83024734,-2.599226
0.84,10.92533,-4.182639,0.49592674,5.257007,0.77252984,-2.5877488
0.842,11.11578,-4.304537,0.4648937,5.286565,0.7179456,-2.5746665
0.844,11.288329,-4.4210057,0.439826,5.316967,0.6660695,-2.5600677
0.846,11.440105,-4.532,0.42202568,5.3483706,0.6164932,-2.544016
0.848,11.569467,-4.6378193,0.41289568,5.380939,0.5688636,-2.5265567
0.85,11.674986,-4.7389126,0.41405952,5.414818,0.52292085,-2.5077376
0.852,11.756011,-4.836138,0.4269259,5.4501295,0.47851592,-2.4876196
0.854,11.812668,-4.930499,0.4524507,5.4869423,0.43554276,-2.4662704
0.856,11.845809,-5.0232053,0.4914254,5.525276,0.39390898,-2.4437904
0.858,11.856344,-5.115573,0.54471314,5.5650725,0.3534708,-2.4203062
0.86,11.845639,-5.209014,0.6131097,5.6061783,0.31398237,-2.3959737
0.862,11.815548,-5.3047647,0.6971227,5.648316,0.2750641,-2.3710418
0.864,11.768312,-5.404193,0.7967799,5.6910753,0.2361455,-2.3458233
0.866,11.706664,-5.5086904,0.9118299,5.7339215,0.19650841,-2.320672
0.868,11.63306,-5.619328,1.0418371,5.7762146,0.15523553,-2.2959833
0.87,11.550466,-5.737192,1.1864653,5.8172245,0.11129284,-2.2721534
0.872,11.461728,-5.8632126,1.3449142,5.856184,0.06357825,-2.2495835
0.874,11.369225,-5.9980683,1.5161061,5.892301,0.010949731,-2.2286205
0.876,11.275757,-6.1424975,1.6984766,5.924848,-0.047667384,-2.2095547
0.878,11.183305,-6.296915,1.8905643,5.9532127,-0.113164544,-2.1926277
0.88,11.093585,-6.4612713,2.0910418,5.9769278,-0.18621516,-2.1779807
0.882,11.007968,-6.635479,2.2985704,5.9957204,-0.26714694,-2.1656623
0.884,10.927845,-6.8192835,2.5114493,6.0095396,-0.355865,-2.1556213
0.886,10.854623,-7.0123873,2.7278266,6.018558,-0.45181906,-2.1477122
0.888,10.789318,-7.21428,2.945739,6.023191,-0.5539278,-2.1416867
0.89,10.732356,-7.424486,3.1634288,6.024032,-0.6606238,-2.137188
0.892,10.683888,-7.642559,3.3792973,6.021842,-0.7698859,-2.133753
0.894,10.644051,-7.867753,3.5918071,6.017497,-0.8793121,-2.130825
0.896,10.612563,-8.099419,3.799262,6.0119467,-0.9861953,-2.1277544
0.898,10.5895605,-8.3368225,3.9997134,6.0061855,-1.0877173,-2.123826
0.9,10.57475,-8.579326,4.19143,6.0011725,-1.1810836,-2.1183114
0.902,10.567892,-8.826126,4.3726044,5.99781,-1.263714,-2.1104906
0.904,10.5684595,-9.076769,4.5413647,5.9968762,-1.3333585,-2.0997052
0.906,10.57593,-9.330682,4.6959724,5.9989777,-1.3882123,-2.085389
0.908,10.589922,-9.587252,4.834733,6.0045347,-1.427028,-2.067084
0.91,10.609837,-9.845903,4.956022,6.013763,-1.4491718,-2.0444493
0.912,10.635365,-10.105982,5.0580945,6.0266953,-1.4546154,-2.0173123
0.914,10.666069,-10.366577,5.139138,6.0431695,-1.4439049,-1.9856366
0.916,10.701726,-10.626952,5.197538,6.0628476,-1.4181627,-1.949531
0.918,10.741898,-10.886229,5.2319593,6.0852113,-1.3790025,-1.9092189
0.92,10.785927,-11.143364,5.2411623,6.109607,-1.3284512,-1.8650229
0.922,10.832716,-11.396893,5.2241893,6.1352615,-1.2688377,-1.8173245
0.924,10.881596,-11.645218,5.180077,6.16133,-1.2027068,-1.7665443
0.926,10.932048,-11.88681,5.108049,6.1869555,-1.132699,-1.7131143
0.928,10.983812,-12.120062,5.007543,6.211331,-1.0614369,-1.6574558
0.93,11.036171,-12.342987,4.8785496,6.2337346,-0.9914435,-1.5999643
0.932,11.08827,-12.553917,4.7206793,6.2535963,-0.9250636,-1.5409793
0.934,11.139747,-12.751198,4.5342245,6.270525,-0.8643794,-1.4808092
0.936,11.189676,-12.933169,4.3205905,6.28428,-0.811203,-1.4197541
0.938,11.237062,-13.098119,4.0812154,6.2947993,-0.7670592,-1.358147
0.94,11.281177,-13.244434,3.8169045,6.3021693,-0.7331357,-1.2963414
0.942,11.32176,-13.371159,3.529081,6.3065634,-0.710415,-1.2347314
0.944,11.358279,-13.47747,3.221247,6.3082237,-0.6996745,-1.1737757
0.946,11.38906,-13.562437,2.8969464,6.3074045,-0.70154166,-1.1140025
0.948,11.414586,-13.626081,2.5577176,6.304358,-0.7165345,-1.0559965
0.95,11.43437,-13.667955,2.2051744,6.299294,-0.7451316,-1.0004252
0.952,11.448115,-13.688555,1.8442581,6.2923737,-0.7876729,-0.94796866
0.954,11.454558,-13.6881275,1.4799975,6.283779,-0.8443463,-0.899266
0.956,11.45415,-13.667913,1.1182841,6.2736545,-0.91523683,-0.85490084
0.958,11.446762,-13.629872,0.76468945,6.2621055,-1.0002995,-0.81539124
0.96,11.432542,-13.5756645,0.4211197,6.249227,-1.0992362,-0.7811807
0.962,11.410934,-13.505899,0.09002113,6.2351117,-1.2114185,-0.7525876
0.964,11.383009,-13.422667,-0.22079349,6.2198,-1.3360415,-0.72980857
0.966,11.34834,-13.327631,-0.50403523,6.2032566,-1.4721938,-0.7129016
0.968,11.306439,-13.221956,-0.75585186,6.185456,-1.6186929,-0.70177746
0.97,11.2557745,-13.10639,-0.97425973,6.166394,-1.7741622,-0.6961833
0.972,11.200655,-12.984471,-1.1563392,6.1460004,-1.9372767,-0.69580495
0.974,11.142954,-12.857929,-1.3012083,6.124118,-2.1068609,-0.70029676
0.976,11.080504,-12.726626,-1.4068339,6.1006866,-2.2815945,-0.7092537
0.978,11.014013,-12.59222,-1.4679089,6.0758123,-2.4600465,-0.7221406
0.98,10.944538,-12.45708,-1.4790335,6.049567,-2.6412978,-0.73846346
0.982,10.8723345,-12.322131,-1.4396439,6.0220037,-2.8246946,-0.7577722
0.984,10.798525,-12.18811,-1.3517258,5.9933662,-3.0094342,-0.7795286
0.986,10.724281,-12.055633,-1.2166946,5.964003,-3.1947744,-0.8032006
0.988,10.651587,-11.925411,-1.0356028,5.9345226,-3.379697,-0.82810533
0.99,10.581924,-11.797695,-0.8096571,5.905882,-3.5627043,-0.853325
0.992,10.516359,-11.672422,-0.54018307,5.8790407,-3.7423115,-0.87794304
0.994,10.455481,-11.549562,-0.22861242,5.855054,-3.9167495,-0.90099293
0.996,10.400414,-11.428851,0.12230253,5.835275,-4.0832276,-0.9212427
0.998,10.352932,-11.30998,0.5086138,5.8211293,-4.2381926,-0.9373346
1,10.314526,-11.192152,0.9246032,5.8140016,-4.3776317,-0.94780207
1.002,10.286399,-11.074718,1.3638506,5.815355,-4.4967775,-0.95085293
1.004,10.269821,-10.957111,1.8194213,5.8266435,-4.5903215,-0.944516
1.006,10.26567,-10.838372,2.284057,5.8490562,-4.6531944,-0.9270287
1.008,10.274041,-10.717274,2.750694,5.883405,-4.680883,-0.8967123
1.01,10.29477,-10.591934,3.2121954,5.930307,-4.669276,-0.85171986
1.012,10.327432,-10.460325,3.6617572,5.9901085,-4.614938,-0.79031026
1.014,10.3712435,-10.320129,4.0928545,6.0626564,-4.515956,-0.71124434
1.016,10.4251175,-10.168983,4.4993863,6.147284,-4.3723474,-0.61379826
1.018,10.487514,-10.005075,4.8760138,6.2428603,-4.1859503,-0.49779123
1.02,10.556513,-9.826564,5.21827,6.347718,-3.9605472,-0.3638122
1.022,10.6295185,-9.632045,5.522615,6.4595947,-3.7018077,-0.21330589
1.024,10.703769,-9.420319,5.7868094,6.57578,-3.4168024,-0.048400044
1.026,10.775968,-9.190282,6.0096188,6.693364,-3.1134686,0.1283055
1.028,10.842462,-8.941128,6.1910567,6.8093715,-2.8002424,0.31386906
1.03,10.899642,-8.67247,6.3323135,6.920721,-2.4858751,0.5050703
1.032,10.944147,-8.384707,6.435517,7.0244846,-2.1787705,0.69859415
1.034,10.972156,-8.078555,6.503863,7.118237,-1.8860421,0.8914654
1.036,10.980337,-7.755311,6.541128,7.2000513,-1.6137278,1.0811303
1.038,10.965413,-7.4165583,6.5514774,7.2684197,-1.3667771,1.2654513
1.04,10.925127,-7.064394,6.539589,7.3224273,-1.1485479,1.4428866
1.042,10.857563,-6.701016,6.510817,7.3616056,-0.96099424,1.6123531
1.044,10.760809,-6.3289185,6.4704227,7.385885,-0.8047865,1.7731655
1.046,10.634326,-5.950941,6.422614,7.3957014,-0.6790782,1.9251306
1.048,10.478388,-5.57036,6.3717003,7.391692,-0.582357,2.0682855
1.05,10.293747,-5.190505,6.3225207,7.3744087,-0.513263,2.2026117
1.052,10.081433,-4.814402,6.278792,7.3445005,-0.47045398,2.328165
1.054,9.84399,-4.4449587,6.242057,7.3027215,-0.4527276,2.4449716
1.056,9.584952,-4.0853076,6.214355,7.2497516,-0.45958418,2.5528257
1.058,9.306351,-3.737527,6.1993923,7.1863427,-0.49107605,2.651504
1.06,9.011788,-3.4038782,6.1999865,7.113495,-0.54741776,2.740929
1.062,8.705149,-3.0857399,6.215456,7.032333,-0.6290316,2.820905
1.064,8.391107,-2.7845001,6.245858,6.9439793,-0.7366565,2.891028
1.066,8.073251,-2.5008264,6.2910376,6.8495917,-0.8709318,2.951072
1.068,7.755408,-2.2347965,6.351693,6.7504587,-1.03163,3.0012047
1.07,7.4410467,-1.9869282,6.431032,6.6478777,-1.2176249,3.0417638
1.072,7.1346993,-1.7583232,6.530791,6.543056,-1.4270874,3.0732453
1.074,6.8385086,-1.5481594,6.64775,6.437125,-1.6575176,3.0963998
1.076,6.5559072,-1.3559299,6.780868,6.3311105,-1.9059263,3.1121888
1.078,6.289908,-1.1813499,6.9320984,6.225858,-2.1690164,3.1215916
1.08,6.0433965,-1.0239153,7.1043954,6.122038,-2.443272,3.1255622
1.082,5.8134365,-0.8804507,7.2987566,6.020183,-2.7250204,3.1250837
1.084,5.6000443,-0.74966335,7.517206,5.9207993,-3.0104842,3.1211753
1.086,5.4061956,-0.63166547,7.759454,5.8243747,-3.2958617,3.1148133
1.088,5.231206,-0.5242107,8.022076,5.731411,-3.5774248,3.1068625
1.09,5.073348,-0.42469954,8.302434,5.642415,-3.8515215,3.098094
1.092,4.9312744,-0.33185983,8.602589,5.557864,-4.114698,3.0892038
1.094,4.8022738,-0.24409413,8.925402,5.478202,-4.363729,3.080814
1.096,4.6831264,-0.15976715,9.271095,5.4038095,-4.595671,3.0735197
1.098,4.570132,-0.07721424,9.63786,5.335026,-4.8078265,3.0679064
1.1,4.4601517,0.004681587,10.022953,5.27217,-4.9978495,3.0645814
1.102,4.3504496,0.08729458,10.422943,5.2154746,-5.163714,3.064133
1.104,4.2381525,0.17239475,10.83456,5.165141,-5.3037333,3.0671062
1.106,4.119666,0.2619195,11.255646,5.12131,-5.4165277,3.0739996
1.108,3.9911351,0.35762072,11.684801,5.084072,-5.5010614,3.0852647
1.11,3.8492618,0.46130538,12.1211,5.0534406,-5.55663,3.1012945
1.112,3.691556,0.5746846,12.562714,5.029349,-5.582888,3.122421
1.114,3.5155659,0.69919205,13.007248,5.0116296,-5.579873,3.1488996
1.116,3.319797,0.835834,13.452072,5.0000234,-5.548093,3.1808822
1.118,3.1033688,0.98508406,13.893869,4.99412,-5.488493,3.218379
1.12,2.8659592,1.1470575,14.329117,4.9934044,-5.402498,3.261259
1.122,2.6072855,1.32161,14.754225,4.9972086,-5.2919817,3.3092055
1.124,2.3278155,1.5086641,15.166006,5.004774,-5.1592197,3.3617463
1.126,2.0280204,1.708178,15.561298,5.015295,-5.006809,3.418238
1.128,1.7086763,1.920217,15.937094,5.0279827,-4.8375115,3.4778993
1.13,1.3714472,2.1442618,16.290497,5.042127,-4.654064,3.539875
1.132,1.0185455,2.3795304,16.61874,5.05716,-4.459044,3.6033301
1.134,0.6519941,2.6249232,16.919258,5.072651,-4.2548056,3.6674984
1.136,0.27425104,2.879191,17.189594,5.088299,-4.0433893,3.7317264
1.138,-0.112414956,3.140973,17.427376,5.1039195,-3.826508,3.7955117
1.14,-0.5055345,3.4088678,17.630184,5.1194987,-3.6049702,3.8589206
1.142,-0.9025313,3.6811965,17.795818,5.1345515,-3.3808434,3.9213054
1.144,-1.3004203,3.956247,17.922451,5.1488733,-3.1549149,3.982911
1.146,-1.696742,4.2324333,18.008492,5.1620545,-2.9283888,4.0438266
1.148,-2.0892456,4.5083494,18.053179,5.173593,-2.7026496,4.1041455
1.15,-2.476374,4.7828817,18.056149,5.1829247,-2.4793296,4.163865
1.152,-2.8563716,5.054917,18.017506,5.1894703,-2.2602806,4.2228413
1.154,-3.2274952,5.3231907,17.937933,5.192684,-2.0474968,4.2807436
1.156,-3.5883574,5.5866137,17.818121,5.1920705,-1.8431786,4.3370495
1.158,-3.9376833,5.844283,17.659407,5.187191,-1.6495912,4.391067
1.16,-4.2743974,6.095578,17.463305,5.1776776,-1.4689374,4.442
1.162,-4.597818,6.3403144,17.232033,5.1632223,-1.3033116,4.4890246
1.164,-4.907709,6.578467,16.968512,5.1435704,-1.1546423,4.531375
1.166,-5.203791,6.810348,16.67603,5.1185203,-1.0246022,4.56839
1.168,-5.486125,7.0365515,16.35857,5.087942,-0.9145285,4.5995417
1.17,-5.7547016,7.257482,16.020205,5.051744,-0.8254088,4.6244187
1.172,-6.0096908,7.4739313,15.665596,5.0099263,-0.75794494,4.642762
1.174,-6.251622,7.686858,15.299429,4.9625654,-0.712471,4.654426
1.176,-6.481299,7.8974733,14.927016,4.909872,-0.6889893,4.659421
1.178,-6.700262,8.107166,14.553548,4.85214,-0.68722135,4.6578374
1.18,-6.90957,8.317282,14.184519,4.789746,-0.70660186,4.6498384
1.182,-7.111049,8.528823,13.8250475,4.723167,-0.74623805,4.6356177
1.184,-7.3062897,8.742581,13.480083,4.6529374,-0.8048994,4.615343
1.186,-7.4970303,8.959283,13.153871,4.579617,-0.8810598,4.5892057
1.188,-7.6851463,9.179355,12.8503685,4.503787,-0.97286904,4.55745
1.19,-7.8724566,9.403211,12.572842,4.4260445,-1.0782579,4.520374
1.192,-8.060566,9.630716,12.324305,4.3469973,-1.1949377,4.478316
1.194,-8.251259,9.861869,12.107486,4.2672076,-1.320827,4.4314213
1.196,-8.446486,10.096424,11.924504,4.187606,-1.4524801,4.380619
1.198,-8.648241,10.333711,11.777183,4.1087165,-1.5877767,4.326003
1.2,-8.858152,10.57306,11.666462,4.031217,-1.7239547,4.268117
1.202,-9.077363,10.813194,11.592535,3.9557018,-1.8582709,4.207557
1.204,-9.30678,11.052769,11.5545845,3.8826709,-1.9880548,4.144983
1.206,-9.547087,11.290639,11.551415,3.812493,-2.1108165,4.081089
1.208,-9.798812,11.525648,11.581191,3.7454207,-2.2242887,4.0165367
1.21,-10.062091,11.756558,11.641694,3.6816647,-2.3264365,3.9519393
1.212,-10.336948,11.982041,11.73023,3.6213799,-2.4155335,3.887836
1.214,-10.623299,12.200976,11.843436,3.5647223,-2.4901853,3.8246484
1.216,-10.920485,12.411761,11.977211,3.511877,-2.549254,3.7626736
1.218,-11.227629,12.613616,12.1268425,3.4630783,-2.5918262,3.702137
1.22,-11.543783,12.8058405,12.287774,3.418582,-2.6171813,3.6432
1.222,-11.867627,12.988186,12.455898,3.37867,-2.6247783,3.5859938
1.224,-12.197905,13.160886,12.62701,3.3436155,-2.6142278,3.5306504
1.226,-12.533371,13.324303,12.796755,3.3136344,-2.5852666,3.4772882
1.228,-12.872511,13.479193,12.960905,3.2888415,-2.5378435,3.4260323
1.23,-13.213773,13.626345,13.1154995,3.269199,-2.4721391,3.3769886
1.232,-13.555691,13.766859,13.256688,3.2545197,-2.3886333,3.3302572
1.234,-13.896905,13.901851,13.380902,3.244463,-2.2881663,3.285906
1.236,-14.235961,14.032567,13.485134,3.238539,-2.17198,3.2439764
1.238,-14.571723,14.160575,13.566983,3.2362177,-2.0416136,3.2044556
1.24,-14.903514,14.287758,13.624517,3.2369406,-1.8987854,3.1672168
1.242,-15.231138,14.416154,13.656453,3.2401967,-1.7452922,3.1320133
1.244,-15.553955,14.547459,13.661752,3.24553,-1.5829023,3.0985227
1.246,-15.871817,14.683089,13.639794,3.2525036,-1.4133275,3.066399
1.248,-16.183895,14.824175,13.590712,3.2606826,-1.2381852,3.035255
1.25,-16.49108,14.971994,13.514714,3.2696605,-1.0589477,3.004662
1.252,-16.793955,15.127748,13.412622,3.2789998,-0.87700385,2.97414
1.254,-17.093369,15.29234,13.285439,3.2882285,-0.69373715,2.943183
1.256,-17.39055,15.466588,13.134512,3.2968535,-0.5105683,2.911284
1.258,-17.68611,15.6505165,12.9609165,3.3043656,-0.3289925,2.877914
1.26,-17.980639,15.84392,12.765906,3.3102458,-0.15056384,2.8425412
1.262,-18.275185,16.046623,12.5512295,3.3140144,0.023128629,2.804667
1.264,-18.570795,16.258392,12.318632,3.3152523,0.19050884,2.7638278
1.266,-18.868557,16.478931,12.070574,3.3136327,0.3500319,2.7195656
1.268,-19.169483,16.707752,11.809423,3.3089404,0.5002435,2.6714272
1.27,-19.464632,16.941135,11.538045,3.301046,0.6398226,2.619011
1.272,-19.770872,17.182981,11.259311,3.2899113,0.7675674,2.5619516
1.274,-20.080862,17.429783,10.976309,3.2755651,0.8823855,2.4999387
1.276,-20.394085,17.68006,10.691907,3.2580419,0.98329127,2.4327059
1.278,-20.709898,17.932184,10.408915,3.237367,1.0694076,2.3600042
1.28,-21.027357,18.184772,10.130559,3.2135577,1.1399238,2.281635
1.282,-21.345667,18.436653,9.86013,3.186632,1.1941336,2.197441
1.284,-21.663403,18.68657,9.60113,3.1566262,1.2314775,2.1073093
1.286,-21.979233,18.933495,9.3573675,3.12361,1.2516087,2.0111537
1.288,-22.291418,19.176447,9.132847,3.0876842,1.2544268,1.9089396
1.29,-22.598202,19.414486,8.931358,3.0490043,1.240101,1.8006744
1.292,-22.8978,19.647013,8.756827,3.0077975,1.209092,1.6864358
1.294,-23.188366,19.873411,8.613247,2.964338,1.1621456,1.5663648
1.296,-23.468405,20.09317,8.50444,2.918942,1.1002408,1.4406726
1.298,-23.736584,20.306273,8.43403,2.8719552,1.0245651,1.3096381
1.3,-23.9917,20.512447,8.405331,2.8237338,0.9364239,1.1735587
1.302,-24.232773,20.711788,8.420941,2.7746122,0.83722425,1.0327581
1.304,-24.458672,20.904255,8.482972,2.7248578,0.72837174,0.88756603
1.306,-24.668682,21.09009,8.593023,2.6747034,0.6112864,0.738318
1.308,-24.862106,21.269478,8.752296,2.6243382,0.48740277,0.5853288
1.31,-25.038832,21.44285,8.961669,2.5739157,0.35816824,0.4289021
1.312,-25.19918,21.610807,9.221904,2.5235727,0.22508109,0.2693593
1.314,-25.34334,21.773924,9.53322,2.4734485,0.08970064,0.10701108
1.316,-25.471777,21.932617,9.895045,2.423683,-0.046363518,-0.0578427
1.318,-25.585196,22.087162,10.306254,2.374413,-0.18140922,-0.22487162
1.32,-25.684246,22.23807,10.764998,2.3257647,-0.31367025,-0.39369303
1.322,-25.769766,22.385511,11.268968,2.277846,-0.4413668,-0.5639219
1.324,-25.84245,22.529633,11.81517,2.2307568,-0.5627108,-0.7351755
1.326,-25.903238,22.67093,12.400219,2.184548,-0.6759393,-0.90710366
1.328,-25.95287,22.80934,13.020356,2.1392076,-0.77940714,-1.0793843
1.33,-25.991917,22.94485,13.67168,2.0946956,-0.8716399,-1.2517359
1.332,-26.021255,23.077267,14.349524,2.0509593,-0.9513215,-1.4239205
1.334,-26.041262,23.206253,15.049188,2.007915,-1.0173364,-1.5957634
1.336,-26.052368,23.331633,15.765701,1.9654884,-1.0688016,-1.7671448
1.338,-26.05484,23.452951,16.493862,1.9235867,-1.1050379,-1.9379678
1.34,-26.048878,23.569717,17.228159,1.882134,-1.1255797,-2.1081185
1.342,-26.034472,23.681488,17.962843,1.8410786,-1.1301799,-2.277517
1.344,-26.011637,23.787704,18.692165,1.8003296,-1.1187786,-2.446096
1.346,-25.980259,23.887766,19.410545,1.7597872,-1.091534,-2.613844
1.348,-25.940311,23.981129,20.112862,1.7193398,-1.0488448,-2.7807796
1.35,-25.891346,24.066883,20.793964,1.6788204,-0.99132687,-2.9469862
1.352,-25.832708,24.14414,21.448887,1.6380512,-0.91984785,-3.1126242
1.354,-25.764069,24.212296,22.072956,1.596845,-0.83547217,-3.2778966
1.356,-25.684885,24.270706,22.662022,1.5549922,-0.7394943,-3.4430404
1.358,-25.595476,24.319038,23.212225,1.5122998,-0.63338196,-3.6082938
1.36,-25.494837,24.356625,23.720617,1.4686131,-0.51865196,-3.773926
1.362,-25.382692,24.383102,24.184427,1.4238368,-0.3968271,-3.9402022
1.364,-25.258686,24.39796,24.601614,1.3779346,-0.26940966,-4.107378
1.366,-25.122074,24.400524,24.970905,1.3309288,-0.13783538,-4.275669
1.368,-24.972546,24.390495,25.29168,1.2828965,-0.0034114122,-4.4452624
1.37,-24.80972,24.367382,25.563831,1.2339752,0.13269103,-4.616333
1.372,-24.632988,24.330662,25.787817,1.1843483,0.26933396,-4.7890854
1.374,-24.442486,24.280134,25.965025,1.1342465,0.40543997,-4.9637156
1.376,-24.2378,24.2154,26.097282,1.0839299,0.5399381,-5.1404343
1.378,-24.01877,24.136078,26.18707,1.0336596,0.6717272,-5.319461
1.38,-23.792675,24.043959,26.237392,0.98370785,0.799685,-5.500992
1.382,-23.542612,23.933521,26.251474,0.9343184,0.92264104,-5.685202
1.384,-23.278118,23.807335,26.232964,0.8856993,1.0393472,-5.8722267
1.386,-22.999182,23.665121,26.186014,0.83803725,1.1485038,-6.0621815
1.388,-22.705715,23.506557,26.114931,0.7915138,1.2488134,-6.2551403
1.39,-22.397476,23.331226,26.02381,0.7463118,1.3390265,-6.4511347
1.392,-22.074274,23.138847,25.916683,0.70264363,1.4180129,-6.650152
1.394,-21.736435,22.929348,25.797688,0.66073966,1.4848068,-6.8521767
1.396,-21.384007,22.702726,25.67024,0.62085617,1.5386753,-7.057138
1.398,-21.016754,22.458889,25.5375,0.58329165,1.5791597,-7.264949
1.4,-20.634634,22.1981,25.40232,0.5483388,1.6061125,-7.47548
1.402,-20.23779,21.920511,25.267033,0.51626444,1.6196802,-7.688577
1.404,-19.826267,21.626534,25.133335,0.48733568,1.6202338,-7.9040527
1.406,-19.400108,21.316666,25.002277,0.46174222,1.6083379,-8.121711
1.408,-18.959158,20.991266,24.874554,0.43961322,1.5846426,-8.341371
1.41,-18.503256,20.65126,24.75048,0.42103025,1.5498486,-8.562862
1.412,-18.032318,20.297815,24.63005,0.40597713,1.5046175,-8.786066
1.414,-17.54618,19.932281,24.51313,0.3943526,1.4494927,-9.010918
1.416,-17.044449,19.556084,24.39944,0.38597432,1.384939,-9.237398
1.418,-16.52665,19.17098,24.288366,0.38060772,1.311394,-9.465531
1.42,-15.992043,18.778643,24.179157,0.37799823,1.2292442,-9.69537
1.422,-15.439592,18.380905,24.070807,0.3778245,1.138751,-9.926954
1.424,-14.868302,17.979427,23.962952,0.37973714,1.0401754,-10.160304
1.426,-14.2767935,17.575989,23.85544,0.3833754,0.93382263,-10.395401
1.428,-13.6635685,17.172606,23.74847,0.38835788,0.81997156,-10.6322
1.43,-13.027007,16.771395,23.642542,0.39426923,0.6988654,-10.870608
1.432,-12.364897,16.374556,23.538795,0.4006436,0.57069635,-11.110525
1.434,-11.675106,15.9843645,23.438904,0.40698326,0.4355669,-11.351859
1.436,-10.9553175,15.603359,23.34479,0.41274738,0.29350424,-11.594536
1.438,-10.203495,15.233899,23.259016,0.41731894,0.14442682,-11.838482
1.44,-9.417453,14.878372,23.183956,0.42001224,-0.011926174,-12.083593
1.442,-8.595574,14.539307,23.122648,0.4200951,-0.17596388,-12.329794
1.444,-7.7358327,14.219144,23.078125,0.4167899,-0.34827566,-12.577006
1.446,-6.8370595,13.920378,23.05398,0.40927553,-0.5296478,-12.825156
1.448,-5.898108,13.645386,23.053543,0.39672542,-0.72098255,-13.074117
1.45,-4.9178114,13.396552,23.080236,0.37828016,-0.9233322,-13.323717
1.452,-3.8956783,13.175682,23.137205,0.35305882,-1.1379132,-13.573762
1.454,-2.8316011,12.984936,23.2273,0.32017827,-1.366044,-13.824026
1.456,-1.7258816,12.82583,23.352987,0.2787516,-1.6090677,-14.074236
1.458,-0.5792799,12.699968,23.516336,0.22787642,-1.8683605,-14.324092
1.46,0.60776234,12.608869,23.719238,0.16667295,-2.1452775,-14.573264
1.462,1.835093,12.552679,23.96361,0.09426832,-2.441083,-14.821436
1.464,3.1015806,12.531339,24.250957,0.009850025,-2.756902,-15.068333
1.466,4.405862,12.5445595,24.58261,-0.087322235,-3.0936985,-15.313732
1.468,5.7466364,12.591637,24.95954,-0.19792318,-3.4522028,-15.5574665
1.47,7.122369,12.671658,25.382204,-0.32250023,-3.8328705,-15.79946
1.472,8.531887,12.783154,25.850311,-0.4614601,-4.2358966,-16.03967
1.474,9.974272,12.924393,26.362818,-0.61506414,-4.6612062,-16.278015
1.476,11.448814,13.092987,26.918365,-0.7834029,-5.1083765,-16.514374
1.478,12.954878,13.2863865,27.51545,-0.9663782,-5.5766964,-16.74854
1.48,14.49218,13.502031,28.152056,-1.1637287,-6.065132,-16.980139
1.482,16.060843,13.736832,28.825489,-1.3750134,-6.5722933,-17.208584
1.484,17.661285,13.987384,29.532822,-1.5996375,-7.09644,-17.433044
1.486,19.293741,14.249811,30.270851,-1.8369327,-7.6355515,-17.652462
1.488,20.958336,14.520071,31.035908,-2.0861897,-8.187333,-17.865509
1.49,22.655392,14.793894,31.82383,-2.3467064,-8.74914,-18.070677
1.492,24.38531,15.066839,32.630726,-2.6178217,-9.318037,-18.266304
1.494,26.149107,15.333894,33.452145,-2.8989458,-9.890903,-18.450556
1.496,27.946625,15.590393,34.283485,-3.189519,-10.464541,-18.621443
1.498,29.777868,15.83136,35.12034,-3.4890342,-11.035697,-18.776918
1.5,31.642033,16.052073,35.958305,-3.7969108,-11.601026,-18.914988
1.502,33.538322,16.247639,36.792927,-4.1124306,-12.157155,-19.033726
1.504,35.465446,16.413147,37.61989,-4.4346247,-12.700774,-19.131336
1.506,37.42108,16.543892,38.435577,-4.7622223,-13.2286215,-19.206135
1.508,39.402462,16.635386,39.236443,-5.0936356,-13.737494,-19.256582
1.51,41.40598,16.683407,40.0198,-5.4269137,-14.224282,-19.28139
1.512,43.42798,16.68341,40.783726,-5.7597528,-14.68592,-19.279408
1.514,45.46425,16.631514,41.527397,-6.089529,-15.119544,-19.24972
1.516,47.509964,16.524607,42.250107,-6.41336,-15.522548,-19.191544
1.518,49.560833,16.359213,42.952106,-6.7281847,-15.892661,-19.104277
1.52,51.61136,16.132336,43.634613,-7.030816,-16.228003,-18.987514
1.522,53.65527,15.842772,44.29943,-7.3180094,-16.527182,-18.841011
1.524,55.6873,15.489512,44.948704,-7.5865846,-16.789349,-18.66471
1.526,57.70222,15.072311,45.58424,-7.8334365,-17.014193,-18.458723
1.528,59.694466,14.59207,46.20807,-8.055612,-17.20183,-18.223358
1.53,61.65833,14.050688,46.823338,-8.25034,-17.352888,-17.959164
1.532,63.588623,13.450674,47.43275,-8.415085,-17.468424,-17.66682
1.534,65.48034,12.796112,48.03881,-8.547579,-17.549952,-17.347195
1.536,67.328125,12.092154,48.6439,-8.645817,-17.599255,-17.001284
1.538,69.12745,11.344942,49.250397,-8.70805,-17.618382,-16.630156
1.54,70.873375,10.561662,49.860054,-8.732845,-17.609657,-16.234915
1.542,72.5616,9.751075,50.473904,-8.71912,-17.57576,-15.816652
1.544,74.18952,8.922418,51.092117,-8.666137,-17.519638,-15.376325
1.546,75.754776,8.086858,51.714783,-8.573559,-17.444622,-14.914951
1.548,77.255646,7.2565536,52.342026,-8.441482,-17.354387,-14.433765
1.55,78.69141,6.4443846,52.97391,-8.270517,-17.25312,-13.934086
1.552,80.06215,5.6647377,53.609715,-8.061651,-17.145336,-13.417352
1.554,81.368546,4.9332047,54.248466,-7.8160996,-17.035526,-12.885228
1.556,82.613525,4.2655916,54.88916,-7.5353622,-16.928291,-12.33959
1.558,83.80043,3.6786594,55.531326,-7.221187,-16.828266,-11.782457
1.56,84.93344,3.1899004,56.17466,-6.8752413,-16.739418,-11.215834
1.562,86.01851,2.8168697,56.819305,-6.499078,-16.665112,-10.641543
1.564,87.06459,2.5758038,57.464912,-6.094091,-16.607903,-10.060958
1.566,88.08239,2.4837627,58.111244,-5.661349,-16.569288,-9.475
1.568,89.08212,2.5614386,58.760754,-5.2015505,-16.549648,-8.884045
1.57,90.07213,2.834221,59.410553,-4.7150836,-16.548332,-8.288025
1.572,91.06513,3.3234081,60.05845,-4.201945,-16.563704,-7.6864324
1.574,92.08007,4.04228,60.709854,-3.6617908,-16.593327,-7.078371
1.576,93.12663,5.017952,61.380688,-3.0940735,-16.634169,-6.462718
1.578,94.21841,6.2724323,62.08234,-2.4981306,-16.6829,-5.8382716
1.58,95.37618,7.832573,62.81615,-1.8734193,-16.736187,-5.203808
1.582,96.61533,9.737303,63.567577,-1.2195851,-16.790796,-4.5580473
1.584,97.948105,12.000544,64.31573,-0.5364924,-16.843681,-3.8996277
1.586,99.38099,14.6388,65.06236,0.17563203,-16.892073,-3.2270167
1.588,100.90093,17.674023,65.81593,0.916095,-16.933508,-2.5384114
1.59,102.4981,21.123734,66.58748,1.6837173,-16.965805,-1.831669
1.592,104.1823,24.991512,67.397026,2.4768596,-16.98699,-1.104434
1.594,105.898445,29.316368,68.23351,3.2934265,-16.995346,-0.35376906
1.596,107.59033,34.158432,69.046036,4.1308703,-16.98909,0.42409182
1.598,109.30656,39.47803,69.88843,4.986001,-16.966354,1.2334427
1.6,110.97911,45.256485,70.82828,5.855072,-16.925053,2.078885
1.602,112.41761,51.47207,71.98784,6.733727,-16.86338,2.9652033
1.604,113.70198,58.144455,73.28164,7.6159134,-16.780373,3.8978722
1.606,114.94584,65.24141,74.68114,8.494329,-16.674246,4.882854
1.608,116.39143,72.654655,76.20753,9.36146,-16.541058,5.9267406
1.61,117.73404,80.4278,77.88716,10.210944,-16.373652,7.0371566
1.612,118.90973,88.52168,79.752594,11.03801,-16.161928,8.221632
1.614,119.8935,96.87071,81.8216,11.836912,-15.895408,9.486641
1.616,120.68288,105.451164,84.036674,12.599403,-15.563483,10.837924
1.618,121.26749,114.17467,86.52553,13.316898,-15.15086,12.279414
1.62,121.62778,122.87492,89.4174,13.983365,-14.636094,13.815681
1.622,121.77804,131.45152,92.753784,14.59377,-13.994375,15.453524
1.624,121.76303,139.85205,96.476974,15.14269,-13.197014,17.193624
1.626,121.584465,147.82515,100.51599,15.623676,-12.21493,19.02407
1.628,121.34429,155.4069,104.911064,16.016243,-11.031742,20.930384
1.63,121.05692,162.63304,109.59252,16.289299,-9.635924,22.916582
1.632,120.5622,169.36931,114.75575,16.434189,-7.995392,25.031174
1.634,120.46564,175.1177,120.35388,16.464027,-6.109359,27.25309
1.636,120.576324,179.86874,126.25482,16.39914,-3.965948,29.509493
1.638,120.92008,183.72076,132.40282,16.223661,-1.5613708,31.77611
1.64,121.536194,186.56825,138.83267,15.919722,1.0909476,34.046677
1.642,122.60652,188.3195,145.39758,15.507351,3.9658494,36.282104
1.644,124.18324,188.93579,152.00226,15.005812,6.9611483,38.390705
1.646,126.32358,188.45114,158.51826,14.500904,10.164782,40.416927
1.648,129.06964,186.93268,164.76274,14.044283,13.475658,42.275627
1.65,132.44347,184.45078,170.54025,13.7130375,16.86461,43.872757
1.652,136.42819,181.09077,175.66785,13.57166,20.32986,45.067142
1.654,140.97604,176.9497,179.98662,13.645768,23.856445,45.754635
1.656,146.02293,172.15062,183.35274,13.892311,27.30444,45.892357
1.658,151.44733,166.83081,185.63318,14.270178,30.576572,45.40827
1.66,157.12643,161.10945,186.65565,14.817008,33.729126,44.216938
1.662,162.93295,155.10234,186.29694,15.5399685,36.790867,42.259735
1.664,168.70523,148.94861,184.49188,16.239553,39.59603,39.590473
1.666,174.27528,142.77808,181.21211,16.753426,42.001556,36.275635
1.668,179.48701,136.70358,176.46887,17.029724,43.93583,32.41432
1.67,184.18585,130.82806,170.33076,17.030846,45.31668,28.102257
1.672,188.22299,125.23573,162.92426,16.725506,46.02869,23.427946
1.674,191.47104,119.98985,154.42,16.1119,45.968597,18.471788
1.676,193.82812,115.13428,145.02461,15.215881,45.082123,13.294703
1.678,195.22626,110.69394,134.96852,14.075951,43.352703,7.948449
1.68,195.63287,106.67909,124.5052,12.726946,40.799503,2.4942815
1.682,195.04292,103.093864,113.898285,11.193185,37.48461,-2.9919293
1.684,193.4845,99.93654,103.40954,9.470251,33.496696,-8.41687
1.686,191.02896,97.18855,93.281136,7.511182,28.930866,-13.665754
1.688,187.77469,94.83029,83.74193,5.2663965,23.932232,-18.520687
1.69,183.8385,92.83601,75.00298,2.7150345,18.64855,-22.74636
1.692,179.35472,91.17464,67.247734,-0.10802007,13.242397,-26.192787
1.694,174.46799,89.83592,60.610474,-3.14803,7.8890753,-28.748243
1.696,169.33052,88.79791,55.149773,-6.3445168,2.7702262,-30.32076
1.698,164.1022,88.02876,50.873962,-9.587785,-1.8984609,-30.868517
1.7,158.92076,87.49991,47.751846,-12.781572,-6.0776663,-30.539263
1.702,153.88904,87.19298,45.71366,-15.765486,-9.5433235,-29.399416
1.704,149.14598,87.05612,44.689697,-18.41414,-12.214073,-27.600422
1.706,144.78589,87.03048,44.607212,-20.615824,-14.058722,-25.316887
1.708,140.78467,87.147,45.270813,-22.282337,-15.0666685,-22.786839
1.71,137.21678,87.38787,46.48842,-23.357906,-15.206681,-20.25954
1.712,134.20502,87.72296,48.04902,-23.884117,-14.605889,-17.889595
1.714,131.57837,88.080086,49.94925,-24.00197,-13.54038,-15.77889
1.716,129.18964,88.43904,52.1013,-23.805838,-12.2060795,-14.017047
1.718,126.84489,88.82938,54.380745,-23.262407,-10.663023,-12.721845
1.72,124.85802,89.130104,56.689255,-22.477705,-9.085831,-11.924992
1.722,123.19942,89.3239,58.954517,-21.647827,-7.7088366,-11.621853
1.724,121.791595,89.4141,61.14475,-20.907974,-6.6952496,-11.758749
1.726,120.5459,89.36684,63.304398,-20.344719,-6.13163,-12.253424
1.728,119.396255,89.21464,65.32112,-20.027176,-6.072589,-13.006118
1.73,118.29628,89.039764,67.14709,-20.00056,-6.5479727,-13.89416
1.732,117.18177,88.84005,68.84891,-20.278624,-7.5371614,-14.783369
1.734,115.9875,88.58203,70.56342,-20.843664,-8.972504,-15.5478945
1.736,114.710434,88.410065,72.3866,-21.650063,-10.755375,-16.081547
1.738,113.274124,88.19171,74.28131,-22.63074,-12.768882,-16.30494
1.74,111.71349,87.87367,76.29932,-23.7095,-14.887824,-16.169624
1.742,110.19002,87.59062,78.245995,-24.811594,-16.98934,-15.657763
1.744,108.20161,87.72645,80.18581,-25.862143,-18.962769,-14.783415
1.746,106.10895,88.11893,82.20233,-26.784843,-20.705153,-13.5877495
1.748,103.96195,88.59633,84.2493,-27.51411,-22.130278,-12.1313305
1.75,101.77663,89.239334,86.19249,-27.999014,-23.179968,-10.486208
1.752,99.446236,90.09998,88.06424,-28.203344,-23.819506,-8.727227
1.754,97.00923,91.17733,89.80959,-28.107477,-24.035248,-6.925828
1.756,94.47856,92.42175,91.39116,-27.708494,-23.83689,-5.1442432
1.758,91.86552,93.78722,92.80282,-27.019686,-23.256178,-3.4318032
1.76,89.18025,95.25304,94.02735,-26.069016,-22.341785,-1.8238215
1.762,86.44527,96.80309,95.02792,-24.896221,-21.154375,-0.3416605
1.764,83.68115,98.421646,95.75587,-23.549026,-19.761148,1.0057917
1.766,80.89637,100.078384,96.175865,-22.079622,-18.231237,2.21885
1.768,78.12442,101.740685,96.27523,-20.5412,-16.632153,3.303359
1.77,75.36931,103.39778,96.10439,-18.984726,-15.025482,4.2688518
1.772,72.623924,105.033516,95.68639,-17.455688,-13.463738,5.1270785
1.774,69.90326,106.60594,95.02735,-15.991156,-11.987952,5.8902626
1.776,67.216354,108.083374,94.14569,-14.618332,-10.626313,6.5696726
1.778,64.56098,109.445015,93.06851,-13.354197,-9.394447,7.174836
1.78,61.942,110.670715,91.815544,-12.206434,-8.296589,7.713364
1.782,59.368607,111.74892,90.40134,-11.175053,-7.3275547,8.191175
1.784,56.84498,112.67606,88.846756,-10.254147,-6.4753385,8.6129465
1.786,54.37299,113.451775,87.17665,-9.433836,-5.7241044,8.982932
1.788,51.95212,114.07724,85.4198,-8.702471,-5.057022,9.305872
1.79,49.57909,114.55357,83.60486,-8.048521,-4.458354,9.587165
1.792,47.252354,114.885345,81.755974,-7.4618883,-3.9147654,9.832422
1.794,44.96688,115.079636,79.8898,-6.934472,-3.4157944,10.046621
1.796,42.71619,115.14073,78.02313,-6.4602537,-2.9539337,10.233393
1.798,40.491272,115.07824,76.16911,-6.0352354,-2.524597,10.394727
1.8,38.286217,114.90078,74.33499,-5.6572595,-2.1257412,10.531429
1.802,36.104366,114.61481,72.52439,-5.32537,-1.7569897,10.643633
1.804,33.950836,114.232,70.739944,-5.0389843,-1.418551,10.731215
1.806,31.828613,113.76655,68.9854,-4.7972703,-1.1102903,10.793989
1.808,29.741936,113.23141,67.26247,-4.598617,-0.8308518,10.8319435
1.81,27.696737,112.63626,65.56752,-4.440301,-0.5770037,10.845495
1.812,25.698744,111.987274,63.890987,-4.3184085,-0.34328413,10.835741
1.814,23.75412,111.28948,62.219753,-4.227977,-0.121947765,10.804714
1.816,21.871239,110.54798,60.540745,-4.163162,0.096978664,10.755572
1.818,20.05957,109.76885,58.84298,-4.1175375,0.3251469,10.692477
1.82,18.328442,108.95942,57.117844,-4.084463,0.5751865,10.620339
1.822,16.68724,108.12688,55.355095,-4.057331,0.8600006,10.544562
1.824,15.145773,107.27703,53.54016,-4.0298376,1.1920578,10.470777
1.826,13.713435,106.41379,51.65435,-3.9962785,1.5826168,10.40453
1.828,12.398298,105.53865,49.677444,-3.9518766,2.0409417,10.350783
1.83,11.207992,104.6524,47.588177,-3.8929327,2.5737622,10.313533
1.832,10.150192,103.75568,45.368378,-3.817019,3.184574,10.295548
1.834,9.232027,102.848564,43.002495,-3.7232242,3.8728006,10.29777
1.836,8.460085,101.929855,40.478832,-3.6120946,4.633766,10.319023
1.838,7.839206,100.99781,37.789486,-3.4855874,5.4586754,10.356066
1.84,7.3721614,100.049446,34.930202,-3.3469033,6.3349137,10.403646
1.842,7.058736,99.08108,31.90057,-3.200251,7.2464657,10.454563
1.844,6.895934,98.08801,28.703796,-3.0505826,8.174486,10.500062
1.846,6.8786564,97.066124,25.346985,-2.9032836,9.098089,10.530312
1.848,6.999646,96.01036,21.840576,-2.7638686,9.995206,10.534883
1.85,7.24951,94.91482,18.198795,-2.637695,10.843548,10.503377
1.852,7.6159086,93.77368,14.4389,-2.5295808,11.62165,10.426175
1.854,8.084871,92.581406,10.580433,-2.443347,12.309892,10.29506
1.856,8.641621,91.33251,6.6445045,-2.3815148,12.891405,10.103863
1.858,9.27104,90.02202,2.6541634,-2.3450234,13.352802,9.848963
1.86,9.957653,88.64571,-1.365818,-2.3331327,13.684719,9.529661
1.862,10.684916,87.20146,-5.3896866,-2.3433642,13.882072,9.148272
1.864,11.43704,85.68715,-9.391466,-2.3717287,13.944035,8.709876
1.866,12.19899,84.101875,-13.3448925,-2.413033,13.873695,8.221867
1.868,12.956047,82.44662,-17.224249,-2.4614434,13.677385,7.6933985
1.87,13.694731,80.72333,-21.00434,-2.511049,13.363744,7.1346865
1.872,14.403006,78.93524,-24.661236,-2.5563674,12.943068,6.5563307
1.874,15.069913,77.08747,-28.172354,-2.5928833,12.426457,5.9685583
1.876,15.685821,75.18624,-31.517084,-2.6174111,11.825018,5.380521
1.878,16.242561,73.23905,-34.676437,-2.6282508,11.149284,4.800013
1.88,16.733822,71.25446,-37.633545,-2.6250105,10.409121,4.233331
1.882,17.15445,69.24242,-40.373894,-2.6083612,9.613708,3.6853979
1.884,17.50093,67.21269,-42.88523,-2.5797238,8.771676,3.1598778
1.886,17.77095,65.17579,-45.1577,-2.5407143,7.891636,2.6594415
1.888,17.963306,63.142365,-47.183674,-2.4927096,6.982616,2.1861787
1.89,18.077942,61.12333,-48.958046,-2.436481,6.054101,1.7418146
1.892,18.11639,59.129097,-50.477947,-2.3719673,5.1160164,1.3277711
1.894,18.080616,57.170223,-51.742714,-2.2981694,4.178677,0.9453603
1.896,17.97361,55.25636,-52.753105,-2.2131448,3.252728,0.59595186
1.898,17.798578,53.396355,-53.512096,-2.1142013,2.3487856,0.28091335
1.9,17.560566,51.59801,-54.024944,-1.9981276,1.4770682,0.0015319586
1.902,17.265202,49.868004,-54.299767,-1.8614461,0.6470075,-0.24101576
1.904,16.918613,48.21195,-54.346497,-1.7007719,-0.13319093,-0.44585407
1.906,16.527538,46.634914,-54.176067,-1.5131853,-0.8569398,-0.61256105
1.908,16.099232,45.140617,-53.799393,-1.2965045,-1.5194455,-0.74136466
1.91,15.640758,43.73256,-53.2287,-1.0494518,-2.117673,-0.833284
1.912,15.15843,42.413754,-52.476868,-0.77171385,-2.650343,-0.89008456
1.914,14.659952,41.18562,-51.558044,-0.46393597,-3.1177678,-0.9141885
1.916,14.154478,40.048893,-50.488693,-0.12754226,-3.521532,-0.90846664
1.918,13.650825,39.00392,-49.285492,0.23539925,-3.8642204,-0.8760731
1.92,13.156534,38.05089,-47.964367,0.62236893,-4.1491747,-0.8202294
1.922,12.6792755,37.188976,-46.540276,1.0306003,-4.3801317,-0.7441013
1.924,12.22622,36.416584,-45.027576,1.4571782,-4.5610685,-0.6506572
1.926,11.803289,35.731106,-43.440666,1.8991129,-4.6961393,-0.54261434
1.928,11.41512,35.129963,-41.793037,2.3534226,-4.789587,-0.4224466
1.93,11.066122,34.610023,-40.097656,2.8171418,-4.8457136,-0.29242826
1.932,10.760048,34.168488,-38.366226,3.2872431,-4.8688726,-0.15479076
1.934,10.500678,33.802204,-36.60937,3.7606301,-4.863454,-0.011690855
1.936,10.290895,33.50786,-34.83716,4.2341866,-4.833934,0.13472593
1.938,10.133395,33.2821,-33.0593,4.7047195,-4.7849464,0.28224814
1.94,10.030037,33.121517,-31.284658,5.1690073,-4.7212768,0.4285639
1.942,9.981878,33.02341,-29.522108,5.623891,-4.6476994,0.57125
1.944,9.989311,32.9848,-27.779362,6.0663314,-4.5688844,0.7077876
1.946,10.052149,33.003613,-26.063145,6.4935203,-4.4892735,0.8356872
1.948,10.169485,33.07783,-24.379547,6.9030085,-4.4128723,0.95260805
1.95,10.339758,33.205734,-22.733727,7.292831,-4.3431253,1.0565125
1.952,10.561115,33.385582,-21.130175,7.6616077,-4.282796,1.1457783
1.954,10.831303,33.6158,-19.572083,8.008534,-4.23402,1.2192664
1.956,11.147503,33.894836,-18.061684,8.33336,-4.1983595,1.2763457
1.958,11.506644,34.221554,-16.60028,8.636323,-4.176875,1.3168751
1.96,11.905207,34.594467,-15.188509,8.917993,-4.170333,1.3411095
1.962,12.339739,35.011833,-13.826306,9.179132,-4.1793914,1.3495548
1.964,12.806573,35.4721,-12.513123,9.420538,-4.2047615,1.3428568
1.966,13.302042,35.97367,-11.247589,9.642838,-4.2473116,1.3216895
1.968,13.821966,36.515007,-10.02803,9.846439,-4.3081484,1.2866426
1.97,14.36298,37.094543,-8.852328,10.031414,-4.388598,1.2381682
1.972,14.921511,37.710365,-7.7178173,10.19758,-4.49019,1.1766455
1.974,15.494115,38.36056,-6.6211414,10.344555,-4.6144876,1.1023791
1.976,16.077763,39.04284,-5.5587177,10.47187,-4.763077,1.0156771
1.978,16.66929,39.7546,-4.526764,10.579124,-4.937309,0.916883
1.98,17.266401,40.492897,-3.521469,10.66609,-5.138231,0.80643845
1.982,17.866531,41.254456,-2.5387936,10.732799,-5.3664865,0.68485045
1.984,18.467669,42.035652,-1.5749798,10.779592,-5.6222577,0.5527524
1.986,19.067911,42.832718,-0.62617683,10.807096,-5.9051924,0.41085064
1.988,19.665874,43.6413,0.31106567,10.816194,-6.214458,0.25976557
1.99,20.260403,44.456795,1.2400455,10.807945,-6.548702,0.1000877
1.992,20.850584,45.274506,2.16391,10.783553,-6.9059687,-0.067634225
1.994,21.435299,46.089546,3.0852184,10.744327,-7.2837768,-0.24285924
1.996,22.013962,46.89686,4.006235,10.691547,-7.6792073,-0.425084
1.998,22.586153,47.69102,4.9289074,10.626449,-8.088983,-0.61389166
2,23.151667,48.466873,5.8542595,10.550177,-8.509496,-0.8088952
2.002,23.70994,49.219128,6.7830896,10.463764,-8.936915,-1.0097826
2.004,24.260653,49.942516,7.715763,10.368135,-9.367275,-1.2162607
2.006,24.803265,50.63178,8.6517515,10.264119,-9.796554,-1.4280398
2.008,25.337547,51.28183,9.590482,10.15246,-10.220799,-1.6448157
2.01,25.862741,51.887764,10.530422,10.033784,-10.636226,-1.8663073
2.012,26.378452,52.44512,11.469382,9.908652,-11.0393305,-2.0922055
2.014,26.884361,52.94954,12.405131,9.777595,-11.426946,-2.3221922
2.016,27.379984,53.3969,13.334923,9.641056,-11.796299,-2.5559015
2.018,27.864532,53.783154,14.255732,9.499468,-12.14504,-2.7929652
2.02,28.33684,54.104885,15.163775,9.353212,-12.471246,-3.0330057
2.022,28.795614,54.3589,16.054867,9.202614,-12.773401,-3.2756486
2.024,29.23968,54.542377,16.92455,9.047961,-13.050407,-3.5205383
2.026,29.667477,54.65333,17.767946,8.889498,-13.301472,-3.7673528
2.028,30.07731,54.690258,18.579922,8.727378,-13.526082,-4.01578
2.03,30.467545,54.65221,19.354992,8.56174,-13.723931,-4.2655263
2.032,30.83624,54.539127,20.087877,8.392633,-13.894973,-4.5163364
2.034,31.181509,54.351322,20.773268,8.220067,-14.039374,-4.767982
2.036,31.501268,54.09006,21.405914,8.043989,-14.157492,-5.020252
2.038,31.79329,53.757034,21.980526,7.8642883,-14.24985,-5.2729607
2.04,32.055504,53.35462,22.492104,7.6808143,-14.31715,-5.525955
2.042,32.286186,52.885628,22.936062,7.493366,-14.36026,-5.7790804
2.044,32.483227,52.35354,23.308197,7.3016872,-14.380142,-6.032172
2.046,32.64507,51.762257,23.60479,7.1055617,-14.377872,-6.285061
2.048,32.770363,51.116154,23.822927,6.9047394,-14.354593,-6.5375614
2.05,32.85781,50.420074,23.960262,6.6990366,-14.311439,-6.7894115
2.052,32.906227,49.67914,24.015022,6.488328,-14.249455,-7.040251
2.054,32.9151,48.899105,23.986465,6.2725515,-14.1696825,-7.2896137
2.056,32.883877,48.085644,23.874355,6.0516963,-14.073047,-7.536891
2.058,32.812668,47.244785,23.679443,5.8257875,-13.960433,-7.7813034
2.06,32.70189,46.382736,23.403603,5.594879,-13.832674,-8.021908
2.062,32.552452,45.50559,23.049545,5.359025,-13.690578,-8.257568
2.064,32.36554,44.61959,22.620747,5.1182423,-13.534967,-8.486986
2.066,32.142563,43.73054,22.121775,4.87249,-13.36668,-8.708769
2.068,31.885656,42.844017,21.557743,4.6216507,-13.186598,-8.921432
2.07,31.59694,41.965595,20.934402,4.36552,-12.995687,-9.123453
2.072,31.278843,41.10022,20.258308,4.1038513,-12.794916,-9.31329
2.074,30.934135,40.252472,19.536377,3.8364015,-12.585311,-9.4894285
2.076,30.56601,39.42633,18.776033,3.5629535,-12.367826,-9.650431
2.078,30.17752,38.625427,17.984863,3.283381,-12.143313,-9.794994
2.08,29.771496,37.852737,17.170712,2.9977036,-11.912497,-9.921976
2.082,29.351562,37.11105,16.341003,2.7061205,-11.675972,-10.030443
2.084,28.921398,36.402813,15.503275,2.4090595,-11.434124,-10.119707
2.086,28.482355,35.729824,14.666534,2.1071587,-11.187069,-10.189293
2.088,28.037601,35.092667,13.837696,1.8013082,-10.934665,-10.238986
2.09,27.591982,34.492294,13.022601,1.4926381,-10.676524,-10.268845
2.092,27.14822,33.929623,12.227993,1.1825233,-10.411979,-10.279142
2.094,26.7084,33.404922,11.460238,0.87254333,-10.140165,-10.270334
2.096,26.275429,32.91806,10.724609,0.56448317,-9.860021,-10.242985
2.098,25.852036,32.469093,10.025693,0.26031208,-9.570422,-10.19776
2.1,25.440407,32.057877,9.367452,-0.03788662,-9.270273,-10.135376
2.102,25.04293,31.684017,8.753416,-0.32792664,-8.95854,-10.056572
2.104,24.661707,31.347126,8.18592,-0.6076031,-8.634413,-9.962124
2.106,24.298859,31.0465,7.6668043,-0.8747883,-8.297351,-9.852841
2.108,23.956013,30.78169,7.197274,-1.1274619,-7.9471064,-9.729631
2.11,23.634857,30.55185,6.7778826,-1.3637667,-7.5837092,-9.593494
2.112,23.336884,30.356373,6.408535,-1.5820875,-7.207586,-9.445616
2.114,23.063652,30.194239,6.0884647,-1.7812052,-6.819593,-9.28755
2.116,22.816074,30.064661,5.8164415,-1.9601951,-6.4207683,-9.121048
2.118,22.595007,29.966625,5.590534,-2.1182315,-6.0120997,-8.947722
2.12,22.40136,29.89881,5.4086037,-2.2548797,-5.595014,-8.769394
2.122,22.235561,29.860111,5.268029,-2.3700914,-5.1712947,-8.588173
2.124,22.098082,29.849073,5.1658316,-2.4639344,-4.742714,-8.406158
2.126,21.989223,29.863968,5.098749,-2.5366104,-4.3110795,-8.225304
2.128,21.908953,29.903072,5.0631495,-2.58846,-3.878286,-8.047426
2.13,21.85733,29.964447,5.055341,-2.61986,-3.4462008,-7.8740854
2.132,21.833979,30.046047,5.0711765,-2.6311285,-3.016484,-7.7064576
2.134,21.838196,30.145947,5.1063585,-2.6224627,-2.5904946,-7.545341
2.136,21.869232,30.261684,5.156412,-2.593917,-2.169252,-7.3910866
2.138,21.92608,30.390903,5.216775,-2.5453968,-1.7533655,-7.2436275
2.14,22.00733,30.531054,5.2829304,-2.4766731,-1.3430545,-7.102518
2.142,22.111374,30.679453,5.3502645,-2.3874555,-0.938164,-6.966999
2.144,22.236517,30.83353,5.4143744,-2.2774715,-0.53828835,-6.8361406
2.146,22.380968,30.990704,5.470908,-2.1465735,-0.1428442,-6.7089806
2.148,22.542406,31.148418,5.51583,-1.9948099,0.24882603,-6.5846386
2.15,22.71848,31.304348,5.5455494,-1.8224798,0.63736963,-6.4624267
2.152,22.906475,31.456282,5.5568504,-1.6301904,1.0233426,-6.341877
2.154,23.10381,31.60202,5.5468626,-1.4188546,1.4071506,-6.222799
2.156,23.307549,31.73979,5.5134783,-1.189653,1.7889874,-6.105236
2.158,23.514565,31.867912,5.4548626,-0.94399726,2.1688309,-5.989371
2.16,23.722078,31.984715,5.369788,-0.6834306,2.546464,-5.8754864
2.162,23.92709,32.088554,5.2577257,-0.40959513,2.9214282,-5.763872
2.164,24.126484,32.17789,5.1184053,-0.12418072,3.2930121,-5.6547785
2.166,24.31744,32.251427,4.9521074,0.17113392,3.6603553,-5.5483055
2.168,24.497059,32.307774,4.759735,0.47474033,4.0224237,-5.4442787
2.17,24.662659,32.345478,4.5424805,0.78496045,4.3778186,-5.3424263
2.172,24.811708,32.363323,4.302046,1.1000013,4.7247868,-5.242486
2.174,24.942003,32.36014,4.040447,1.4182494,5.061759,-5.143829
2.176,25.051819,32.334866,3.7600756,1.7381704,5.3871202,-5.045538
2.178,25.139517,32.28623,3.4636135,2.058073,5.698868,-4.9467983
2.18,25.203999,32.21328,3.154006,2.3762326,5.994851,-4.846917
2.182,25.244377,32.11539,2.8340816,2.6909883,6.2729354,-4.7452507
2.184,25.260326,31.992043,2.506813,3.0006742,6.53089,-4.6412926
2.186,25.251637,31.842762,2.1751204,3.3036358,6.7664347,-4.5347004
2.188,25.2187,31.667305,1.841958,3.5982723,6.9773493,-4.4252415
2.19,25.162102,31.465761,1.5101261,3.883053,7.1615276,-4.312786
2.192,25.08244,31.238209,1.182744,4.156558,7.317051,-4.197276
2.194,24.98058,30.984959,0.8623867,4.417486,7.442226,-4.078681
2.196,24.859638,30.706884,0.5502033,4.6646757,7.535651,-3.956969
2.198,24.720703,30.405891,0.24928188,4.89715,7.5962944,-3.8320792
2.2,24.563787,30.083454,-0.037260056,5.1140995,7.6235065,-3.7039392
2.202,24.39163,29.740965,-0.30811882,5.314919,7.6170483,-3.5725052
2.204,24.207138,29.380646,-0.5619974,5.499213,7.577099,-3.4377892
2.206,24.012304,29.004965,-0.7974644,5.6668153,7.5042896,-3.2999272
2.208,23.809147,28.61626,-1.0133429,5.8178205,7.399737,-3.159104
2.21,23.600069,28.21697,-1.2088528,5.952576,7.265026,-3.015636
2.212,23.387438,27.809586,-1.3835564,6.071704,7.10217,-2.869964
2.214,23.173391,27.396534,-1.5373125,6.1760335,6.9135447,-2.722623
2.216,22.959913,26.9803,-1.6702461,6.266593,6.7018514,-2.574201
2.218,22.748972,26.563133,-1.7828646,6.3445516,6.470048,-2.4253008
2.22,22.54218,26.147078,-1.8758516,6.4111314,6.221201,-2.2765362
2.222,22.341022,25.733843,-1.950201,6.467585,5.958426,-2.1285377
2.224,22.146687,25.32522,-2.0070324,6.515045,5.684724,-1.9819301
2.226,21.96025,24.92229,-2.0473747,6.554453,5.402876,-1.8373301
2.228,21.782225,24.526068,-2.0725083,6.5864882,5.1153364,-1.6953688
2.23,21.612942,24.137568,-2.0835433,6.611563,4.824173,-1.5567065
2.232,21.452412,23.75726,-2.0816545,6.6297965,4.5310583,-1.4220454
2.234,21.300112,23.38575,-2.0680552,6.641041,4.2372856,-1.2921057
2.236,21.155432,23.023502,-2.0437803,6.64492,3.9437416,-1.1676284
2.238,21.01747,22.67078,-2.009838,6.640923,3.6510172,-1.0492983
2.24,20.885199,22.327564,-1.967114,6.6284704,3.3594644,-0.9377346
2.242,20.757559,21.993864,-1.9163346,6.6070023,3.069324,-0.8334279
2.244,20.633102,21.66956,-1.8581991,6.576071,2.7808151,-0.7367183
2.246,20.510565,21.354767,-1.7933092,6.535387,2.494229,-0.6477532
2.248,20.388647,21.049395,-1.722106,6.48487,2.2099445,-0.5665256
2.25,20.265965,20.753569,-1.6450558,6.4246597,1.9284949,-0.49289304
2.252,20.141401,20.46702,-1.5625417,6.35512,1.650507,-0.42662346
2.254,20.013943,20.189661,-1.4751437,6.2768335,1.3766963,-0.36745614
2.256,19.882782,19.921103,-1.3831215,6.190545,1.1077896,-0.31514725
2.258,19.747265,19.661062,-1.2868788,6.0971293,0.84443486,-0.26945412
2.26,19.606947,19.40901,-1.186836,5.997543,0.5871823,-0.2301724
2.262,19.461803,19.164242,-1.0836353,5.892767,0.3363815,-0.19717698
2.264,19.311752,18.926128,-0.97773695,5.7837663,0.09217262,-0.17033838
2.266,19.157152,18.693703,-0.86964285,5.6714435,-0.14549237,-0.14949973
2.268,18.998726,18.466072,-0.7597517,5.5566144,-0.3768547,-0.13445762
2.27,18.836966,18.242168,-0.64853454,5.4399796,-0.60232687,-0.124953896
2.272,18.672941,18.020876,-0.5365652,5.3221035,-0.8224505,-0.12067625
2.274,18.50787,17.801086,-0.42415738,5.2033997,-1.0378301,-0.1212789
2.276,18.34261,17.5815,-0.31180435,5.084151,-1.2490746,-0.12637436
2.278,18.178524,17.360884,-0.19976056,4.964539,-1.456721,-0.13561599
2.28,18.01688,17.138016,-0.088392645,4.8446712,-1.6611873,-0.14871947
2.282,17.858654,16.911789,0.021877304,4.724622,-1.8627467,-0.16546163
2.284,17.704714,16.681034,0.13076568,4.604451,-2.0614986,-0.18569757
2.286,17.55589,16.444677,0.23800033,4.4842525,-2.2573495,-0.2093707
2.288,17.412592,16.201874,0.34337404,4.3641605,-2.4500523,-0.23651698
2.29,17.275162,15.951805,0.4466264,4.2443647,-2.6392179,-0.26719436
2.292,17.143763,15.693814,0.5475852,4.125088,-2.8243575,-0.3014931
2.294,17.018246,15.427302,0.6460535,4.006595,-3.0049193,-0.33948427
2.296,16.898376,15.15215,0.74172646,3.889171,-3.1802957,-0.381194
2.298,16.78385,14.868333,0.8343074,3.7731242,-3.3498566,-0.42658392
2.3,16.673876,14.576122,0.9234816,3.6587682,-3.512942,-0.47556746
2.302,16.567724,14.276096,1.0088234,3.5464284,-3.66889,-0.5279989
2.304,16.46449,13.968882,1.0899391,3.4364042,-3.8170462,-0.58368504
2.306,16.363138,13.655355,1.1662369,3.3290365,-3.9567254,-0.64237535
2.308,16.262547,13.336628,1.2372212,3.2246737,-4.08722,-0.7037311
2.31,16.161444,13.013926,1.3022647,3.1236854,-4.2077994,-0.7673488
2.312,16.058508,12.688801,1.360728,3.026466,-4.3177395,-0.8327337
2.314,15.952641,12.362927,1.4119114,2.9334178,-4.416349,-0.8992641
2.316,15.842752,12.038083,1.4553202,2.8449297,-4.502971,-0.9661929
2.318,15.72778,11.716285,1.4903115,2.7613695,-4.5770054,-1.0326793
2.32,15.60667,11.39959,1.5162575,2.6830704,-4.637987,-1.0977703
2.322,15.478486,11.089937,1.5326035,2.6102834,-4.685615,-1.1604979
2.324,15.342726,10.789484,1.5390284,2.543152,-4.71981,-1.2199285
2.326,15.198781,10.500092,1.5349834,2.481715,-4.7407436,-1.2751862
2.328,15.046124,10.223598,1.5202279,2.4259021,-4.7488394,-1.3255091
2.33,14.884756,9.961544,1.4945103,2.3755364,-4.7447906,-1.3703114
2.332,14.71465,9.715504,1.4578398,2.3303635,-4.7295346,-1.4091926
2.334,14.535803,9.486537,1.4101374,2.2900364,-4.704215,-1.4419312
2.336,14.348468,9.275623,1.3512417,2.254174,-4.6701393,-1.4685042
2.338,14.153239,9.0832815,1.2812841,2.222395,-4.6286845,-1.489053
2.34,13.950766,8.909644,1.2006022,2.1943197,-4.5812626,-1.5038531
2.342,13.741648,8.754679,1.1094269,2.1695993,-4.5292377,-1.5132558
2.344,13.526917,8.617899,1.0084302,2.147918,-4.4739075,-1.5176857
2.346,13.307471,8.498545,0.8983488,2.1290166,-4.4164257,-1.5175612
2.348,13.084327,8.395691,0.78003013,2.1126854,-4.3577785,-1.5132654
2.35,12.858481,8.308284,0.6543977,2.098743,-4.298808,-1.5051311
2.352,12.631198,8.23493,0.52249837,2.0870156,-4.240194,-1.4934406
2.354,12.403597,8.17417,0.38557005,2.0773454,-4.1824675,-1.4783745
2.356,12.176891,8.124376,0.244645,2.069557,-4.1260324,-1.4600458
2.358,11.952308,8.083762,0.10102332,2.0634744,-4.07119,-1.4385366
2.36,11.731023,8.050624,-0.044106007,2.0588846,-4.0181847,-1.4138741
2.362,11.514157,8.023321,-0.18959796,2.055554,-3.9672184,-1.3861058
2.364,11.302837,8.000025,-0.3342179,2.0532248,-3.9184651,-1.3552835
2.366,11.097851,7.979338,-0.47694743,2.051633,-3.8720827,-1.3214927
2.368,10.900341,7.9598365,-0.6166736,2.0504935,-3.8282166,-1.2848425
2.37,10.711161,7.940072,-0.75253344,2.0495543,-3.7869952,-1.2454774
2.372,10.531005,7.9188795,-0.88361466,2.0485835,-3.7485206,-1.20355
2.374,10.360658,7.8951035,-1.0092801,2.047377,-3.7128386,-1.1592631
2.376,10.200631,7.86792,-1.1289164,2.045799,-3.6799235,-1.1128075
2.378,10.051169,7.836416,-1.2421131,2.0437815,-3.64969,-1.0643897
2.38,9.912792,7.7999973,-1.3485789,2.0413198,-3.6219666,-1.0142407
2.382,9.785591,7.758195,-1.4479972,2.0384889,-3.5965378,-0.9625856
2.384,9.669537,7.710606,-1.5404979,2.0354154,-3.5731297,-0.90964943
2.386,9.564708,7.6569624,-1.6260729,2.032292,-3.5514383,-0.85564613
2.388,9.470798,7.5973563,-1.7051167,2.0293648,-3.5311465,-0.8007875
2.39,9.387427,7.53176,-1.7779583,2.0268793,-3.511938,-0.74528176
2.392,9.314256,7.4603333,-1.8449924,2.0251024,-3.4935422,-0.6893322
2.394,9.250792,7.383437,-1.9066458,2.0243003,-3.4757185,-0.63312995
2.396,9.196423,7.301442,-1.9635917,2.0247216,-3.4582767,-0.5768642
2.398,9.150666,7.214836,-2.0163147,2.0265703,-3.4410715,-0.5207144
2.4,9.112757,7.124142,-2.0653746,2.030014,-3.4240305,-0.46487582
2.402,9.08197,7.029874,-2.1111882,2.035161,-3.4071305,-0.4095385
2.404,9.057613,6.9327292,-2.1541915,2.042066,-3.3903875,-0.35489345
2.406,9.038761,6.8334327,-2.1947901,2.0507588,-3.3738582,-0.30113137
2.408,9.024619,6.7326393,-2.2331805,2.061199,-3.3576174,-0.2484597
2.41,9.014458,6.630953,-2.2695856,2.0733292,-3.3417435,-0.1970799
2.412,9.0074625,6.529146,-2.3040905,2.0870626,-3.3263083,-0.14719355
2.414,9.002995,6.427899,-2.3366587,2.102293,-3.3113654,-0.09900308
2.416,9.000097,6.3278346,-2.3671749,2.1189017,-3.2969406,-0.052679062
2.418,8.998269,6.229452,-2.395382,2.136792,-3.2830079,-0.008347154
2.42,8.996927,6.1333685,-2.4209666,2.1558635,-3.2694993,0.033904314
2.422,8.995618,6.0400043,-2.443603,2.1760445,-3.2563052,0.07404053
2.424,8.993915,5.949961,-2.463049,2.1972616,-3.2432532,0.11210954
2.426,8.991213,5.863703,-2.478943,2.2194843,-3.2301178,0.1482302
2.428,8.98745,5.781677,-2.4910586,2.2427022,-3.216618,0.18261725
2.43,8.9823675,5.7042155,-2.4990907,2.2669132,-3.2024243,0.21554017
2.432,8.97591,5.631785,-2.5029554,2.2921405,-3.1871665,0.24732733
2.434,8.967941,5.5646214,-2.5025718,2.3184066,-3.17046,0.2783085
2.436,8.958571,5.503041,-2.4979606,2.345746,-3.1519234,0.30882627
2.438,8.947931,5.4472713,-2.4891617,2.3741963,-3.131202,0.33918315
2.44,8.935994,5.3976235,-2.476318,2.403793,-3.1079967,0.36962962
2.442,8.922861,5.354069,-2.459692,2.4345794,-3.0820649,0.4003423
2.444,8.908756,5.3167377,-2.439613,2.4666133,-3.0532525,0.43143618
2.446,8.893941,5.285738,-2.4164038,2.4999368,-3.0215042,0.46295696
2.448,8.878372,5.261092,-2.3905082,2.5345943,-2.986861,0.49488467
2.45,8.86243,5.2427406,-2.3623948,2.5706282,-2.9494605,0.5271483
2.452,8.8462715,5.2305365,-2.332508,2.60806,-2.9095232,0.559696
2.454,8.829998,5.224401,-2.3012285,2.6468854,-2.867339,0.59245354
2.456,8.81373,5.2242846,-2.269024,2.6870804,-2.8232715,0.6253272
2.458,8.797703,5.229915,-2.2362876,2.7286048,-2.77771,0.6582451
2.46,8.781794,5.241147,-2.2033832,2.7713728,-2.7310555,0.6911759
2.462,8.765989,5.257675,-2.170635,2.8152854,-2.6837122,0.72411585
2.464,8.750374,5.279301,-2.1384106,2.8602118,-2.6360745,0.75711286
2.466,8.734876,5.305739,-2.1068883,2.9060109,-2.5885253,0.79024345
2.468,8.719463,5.336702,-2.0763445,2.9525352,-2.5413847,0.82361966
2.47,8.7039795,5.371751,-2.046895,2.999649,-2.494952,0.8573734
2.472,8.68839,5.4106646,-2.018471,3.047213,-2.4494736,0.89163446
2.474,8.672381,5.453068,-1.991105,3.0951006,-2.4051456,0.926534
2.476,8.655996,5.4985623,-1.9646761,3.1432064,-2.3621356,0.96218383
2.478,8.638941,5.546545,-1.9390875,3.191423,-2.3205833,0.9986586
2.48,8.621077,5.596864,-1.9141088,3.2396615,-2.2806067,1.0359954
2.482,8.602348,5.6490207,-1.8895359,3.2878377,-2.2423344,1.0741619
2.484,8.58249,5.7026443,-1.8648309,3.335866,-2.2059042,1.1130791
2.486,8.561456,5.7571654,-1.8397801,3.383671,-2.1714864,1.152612
2.488,8.539192,5.812186,-1.8139291,3.4311752,-2.1392682,1.1925954
2.49,8.515632,5.8672466,-1.7867154,3.4782953,-2.1094468,1.2328279
2.492,8.490603,5.9219055,-1.7577496,3.524941,-2.082262,1.273104
2.494,8.464145,5.97575,-1.7264564,3.5710037,-2.05794,1.313256
2.496,8.4362135,6.0285544,-1.6922926,3.6163578,-2.0366998,1.3531679
2.498,8.406899,6.0799704,-1.6548324,3.6608472,-2.018731,1.3927922
2.5,8.37628,6.129994,-1.6135306,3.70431,-2.0041585,1.4321554
2.502,8.344592,6.178504,-1.5679265,3.7465706,-1.9930339,1.4713755
2.504,8.312124,6.2255855,-1.517596,3.787467,-1.9853297,1.5106183
2.506,8.279023,6.271435,-1.4622105,3.8268645,-1.9809222,1.5500637
2.508,8.245705,6.316337,-1.4014013,3.8646672,-1.9796027,1.5899513
2.51,8.212444,6.3604946,-1.3350062,3.9008503,-1.9810807,1.6305196
2.512,8.179631,6.4043837,-1.2628393,3.9354486,-1.9850442,1.6719637
2.514,8.147491,6.448539,-1.1848583,3.968575,-1.9911559,1.714438
2.516,8.116581,6.493456,-1.1009438,4.000406,-1.9990811,1.7580278
2.518,8.087127,6.5396237,-1.0111961,4.0311656,-2.0085225,1.8027763
2.52,8.059633,6.5877047,-0.9157009,4.0611105,-2.0192268,1.848668
2.522,8.034277,6.638125,-0.8144698,4.0904913,-2.0310433,1.8956385
2.524,8.011248,6.691507,-0.7076819,4.1195517,-2.0438838,1.9435892
2.526,7.991041,6.748389,-0.59541535,4.1484947,-2.0577443,1.9923768
2.528,7.9736085,6.809341,-0.47785068,4.1774874,-2.0726871,2.0418243
2.53,7.9590597,6.8748064,-0.35506892,4.2066526,-2.088831,2.0917382
2.532,7.9474525,6.9452567,-0.22712898,4.236056,-2.1063137,2.1419222
2.534,7.9386683,7.021021,-0.09406161,4.265715,-2.125292,2.192172
2.536,7.932619,7.102477,0.044002056,4.295617,-2.1458974,2.2423124
2.538,7.9289436,7.189595,0.18714523,4.3257213,-2.1682267,2.2921844
2.54,7.9274054,7.282613,0.33545923,4.355946,-2.1923342,2.3416765
2.542,7.927578,7.381531,0.4892249,4.3862114,-2.2182248,2.3907037
2.544,7.928937,7.486364,0.64856386,4.4164357,-2.2458484,2.439239
2.546,7.93099,7.5971613,0.813823,4.446539,-2.275104,2.4872909
2.548,7.9330497,7.7139688,0.98520374,4.476471,-2.3058271,2.5348787
2.55,7.9343266,7.8368154,1.1630266,4.5061984,-2.3377986,2.5820522
2.552,7.934172,7.9658117,1.3475401,4.5357056,-2.3707595,2.6288753
2.554,7.9317336,8.100895,1.5391588,4.5649877,-2.4044185,2.6754143
2.556,7.926397,8.241754,1.7382507,4.594078,-2.4384475,2.721733
2.558,7.9175277,8.3883,1.9450614,4.6229973,-2.4725187,2.767904
2.56,7.9040976,8.540134,2.1597497,4.651776,-2.506271,2.813983
2.562,7.885506,8.697195,2.3826802,4.680434,-2.5393367,2.8600237
2.564,7.8609395,8.859374,2.613808,4.708997,-2.571375,2.9060643
2.566,7.829776,9.02643,2.8532534,4.737479,-2.602054,2.9521363
2.568,7.7913046,9.1983385,3.1011314,4.765883,-2.631062,2.9982624
2.57,7.7450466,9.374972,3.3574398,4.7942157,-2.6581225,3.0445032
2.572,7.690438,9.556211,3.6221604,4.8224707,-2.6829944,3.090897
2.574,7.627169,9.74176,3.8952794,4.8506417,-2.7054598,3.1375027
2.576,7.5549793,9.931351,4.176747,4.878729,-2.7253468,3.1843534
2.578,7.473555,10.124657,4.466313,4.906744,-2.742518,3.231446
2.58,7.383107,10.321413,4.763797,4.9347205,-2.7568705,3.2787318
2.582,7.283409,10.521259,5.068718,4.9626837,-2.7683356,3.3261127
2.584,7.1744566,10.724063,5.3808618,4.9906793,-2.7768474,3.373452
2.586,7.0564055,10.929462,5.699818,5.018761,-2.7823584,3.4206328
2.588,6.9295444,11.1373415,6.0251617,5.0469766,-2.7847996,3.4675713
2.59,6.7944613,11.347015,6.3563833,5.075362,-2.7841,3.5142362
2.592,6.65148,11.55797,6.6929584,5.1039386,-2.780179,3.5606587
2.594,6.5011044,11.769746,7.0340724,5.132697,-2.7729354,3.6069381
2.596,6.3436747,11.981884,7.3791766,5.1615925,-2.7622411,3.6532066
2.598,6.1796627,12.193938,7.727538,5.1905174,-2.7479615,3.6996164
2.6,6.0094247,12.405458,8.07836,5.219324,-2.7299504,3.7463367
2.602,5.8335853,12.615793,8.430818,5.247793,-2.708082,3.793552
2.604,5.6523457,12.824628,8.784104,5.2756767,-2.6822186,3.841456
2.606,5.465838,13.031484,9.1373205,5.302674,-2.6522393,3.890257
2.608,5.2743144,13.235756,9.489591,5.328479,-2.6180444,3.9401917
2.61,5.077902,13.436776,9.839996,5.352784,-2.579558,3.9915202
2.612,4.876683,13.634132,10.187564,5.3752975,-2.5367267,4.0444884
2.614,4.670425,13.827342,10.531407,5.3957496,-2.4895716,4.099307
2.616,4.458918,14.015926,10.870679,5.413909,-2.438121,4.1560893
2.618,4.241731,14.19937,11.20442,5.4295845,-2.3824146,4.2148676
2.62,4.018592,14.377665,11.531957,5.442613,-2.322516,4.275535
2.622,3.7887182,14.550518,11.852396,5.452864,-2.258524,4.3378506
2.624,3.5513363,14.717728,12.164934,5.4602194,-2.190549,4.401423
2.626,3.305681,14.87918,12.468788,5.464573,-2.11871,4.4657936
2.628,3.051044,15.034805,12.763336,5.465779,-2.043155,4.530417
2.63,2.7864883,15.1847315,13.0479145,5.463683,-1.9640388,4.5947485
2.632,2.5114167,15.329109,13.321659,5.458082,-1.8815495,4.6582975
2.634,2.2250316,15.468107,13.58395,5.4487457,-1.7958976,4.720639
2.636,1.9267058,15.601879,13.834124,5.4353995,-1.7073098,4.7814717
2.638,1.6160197,15.730726,14.071569,5.4177575,-1.6160519,4.840576
2.64,1.292409,15.855059,14.295509,5.395525,-1.5223962,4.897868
2.642,0.9556131,15.975221,14.505235,5.3684163,-1.4266151,4.9534
2.644,0.6054376,16.091534,14.699906,5.3361597,-1.3289582,5.0073204
2.646,0.24206263,16.204374,14.878799,5.2985373,-1.2296667,5.059855
2.648,-0.13432014,16.314266,15.040955,5.2553616,-1.128975,5.1112742
2.65,-0.523277,16.421616,15.185564,5.2065353,-1.0270723,5.1618776
2.652,-0.9242947,16.526718,15.311667,5.1520267,-0.92413855,5.2118855
2.654,-1.3364921,16.629885,15.418459,5.091844,-0.82039213,5.261423
2.656,-1.7591689,16.73125,15.505152,5.026055,-0.7160696,5.31052
2.658,-2.1915307,16.83097,15.571194,4.9547186,-0.61151063,5.3590965
2.66,-2.6328163,16.929272,15.616108,4.8778963,-0.5071548,5.406958
2.662,-3.0822213,17.026321,15.639592,4.795622,-0.403543,5.4538064
2.664,-3.538931,17.122341,15.641567,4.707853,-0.3013625,5.499281
2.666,-4.0022907,17.217535,15.622226,4.614501,-0.20142424,5.542991
2.668,-4.47175,17.312162,15.582182,4.5154066,-0.104652286,5.584503
2.67,-4.946251,17.406425,15.522135,4.4103503,-0.012087703,5.623353
2.672,-5.425377,17.50022,15.44354,4.299076,0.07515895,5.6590385
2.674,-5.908944,17.593657,15.348608,4.1813293,0.15596533,5.6910553
2.676,-6.397462,17.686966,15.239271,4.056904,0.2292695,5.7188845
2.678,-6.8908596,17.779865,15.117992,3.925667,0.29404628,5.7420297
2.68,-7.388841,17.87178,14.987291,3.7875962,0.3494147,5.760037
2.682,-7.8914223,17.962421,14.849913,3.6428173,0.39468253,5.7725153
2.684,-8.399496,18.05181,14.709261,3.491602,0.42939174,5.779147
2.686,-8.914166,18.139824,14.568851,3.3343587,0.45335853,5.779702
2.688,-9.435955,18.226377,14.432117,3.1716456,0.46669805,5.774058
2.69,-9.966066,18.31173,14.3027115,3.004136,0.46988297,5.7622023
2.692,-10.505312,18.395847,14.183918,2.8325868,0.46370757,5.7442904
2.694,-11.054187,18.478289,14.0787115,2.6578166,0.44931555,5.7206206
2.696,-11.613962,18.559101,13.990024,2.4806907,0.428118,5.6916814
2.698,-12.1857605,18.638508,13.920839,2.3021312,0.40175867,5.6582026
2.7,-12.770451,18.716784,13.873405,2.1230657,0.37203097,5.6211076
2.702,-13.368271,18.794226,13.849343,1.9444071,0.34075594,5.581442
2.704,-13.979713,18.87085,13.850346,1.7670943,0.30977166,5.5403814
2.706,-14.605142,18.946938,13.877213,1.5922041,0.2810532,5.499228
2.708,-15.244132,19.022215,13.930112,1.4209068,0.2566427,5.459291
2.71,-15.89592,19.096912,14.008178,1.2544117,0.2384994,5.421825
2.712,-16.55927,19.171253,14.110137,1.0940474,0.22848499,5.38804
2.714,-17.23339,19.244787,14.23423,0.94125026,0.22846222,5.358985
2.716,-17.917057,19.317537,14.378456,0.7976011,0.24041718,5.3355074
2.718,-18.607128,19.389692,14.538076,0.6649037,0.2665962,5.3183155
2.72,-19.301281,19.461254,14.709279,0.5451156,0.30955386,5.3079405
2.722,-19.997437,19.532425,14.887824,0.4402265,0.37216353,5.3046675
2.724,-20.692371,19.603163,15.068518,0.35226396,0.4575624,5.308777
2.726,-21.3823,19.673449,15.245497,0.28321066,0.56913596,5.320613
2.728,-22.063345,19.743616,15.4122715,0.23486498,0.7104761,5.3405337
2.73,-22.732094,19.813759,15.561828,0.20873834,0.88520634,5.3689704
2.732,-23.383604,19.884119,15.686632,0.205952,1.0968475,5.406477
2.734,-24.013794,19.955471,15.779062,0.22710682,1.3485363,5.4536057
2.736,-24.61817,20.028265,15.831003,0.2722109,1.6428218,5.5108166
2.738,-25.19251,20.103415,15.834184,0.34066463,1.9814727,5.5784445
2.74,-25.732637,20.18152,15.780782,0.43120518,2.3652835,5.6565413
2.742,-26.23476,20.263748,15.663151,0.5418639,2.7938359,5.7446795
2.744,-26.69556,20.351603,15.474188,0.66998374,3.2653527,5.841882
2.746,-27.111814,20.446121,15.207432,0.81249946,3.777019,5.9468336
2.748,-27.480436,20.548252,14.857481,0.96575886,4.324373,6.0575433
2.75,-27.799213,20.658833,14.419869,1.1254544,4.9012628,6.171386
2.752,-28.066633,20.778769,13.891361,1.2869668,5.5002418,6.285315
2.754,-28.281372,20.90858,13.270197,1.4454861,6.1127334,6.395894
2.756,-28.442743,21.048523,12.556,1.596124,6.729165,6.4994993
2.758,-28.550829,21.1985,11.750053,1.7340598,7.339214,6.59249
2.76,-28.605898,21.35786,10.854932,1.8548112,7.932144,6.671146
2.762,-28.608881,21.525623,9.874809,1.954523,8.497345,6.731904
2.764,-28.56145,21.700506,8.815244,2.0301604,9.024804,6.771489
2.766,-28.4653,21.88067,7.6829414,2.0796576,9.505492,6.786914
2.768,-28.32249,22.063923,6.485544,2.1019688,9.931567,6.7756405
2.77,-28.135397,22.247707,5.2318006,2.097044,10.296609,6.7355967
2.772,-27.907036,22.429298,3.931261,2.0657854,10.595804,6.665166
2.774,-27.640314,22.60578,2.5939221,2.010003,10.826193,6.563279
2.776,-27.338589,22.774208,1.2302704,1.9323142,10.986681,6.4295583
2.778,-27.004665,22.931263,-0.14900875,1.8358228,11.077973,6.2641973
2.78,-26.64239,23.073921,-1.5333071,1.7239326,11.102335,6.068074
2.782,-26.254637,23.199316,-2.9123425,1.6001694,11.063262,5.842902
2.784,-25.844402,23.304594,-4.2762146,1.4679587,10.965251,5.5911713
2.786,-25.414433,23.38742,-5.6148767,1.3304693,10.813438,5.3160253
2.788,-24.967878,23.446014,-6.9191937,1.1905174,10.61334,5.02124
2.79,-24.508095,23.47926,-8.180392,1.0504463,10.370506,4.7110195
2.792,-24.037874,23.486046,-9.390541,0.91207314,10.090334,4.3897715
2.794,-23.55934,23.465345,-10.542898,0.77672863,9.7779045,4.061963
2.796,-23.074217,23.416481,-11.631335,0.6452881,9.437967,3.7319741
2.798,-22.585075,23.339603,-12.650355,0.5182425,9.074871,3.4038606
2.8,-22.09381,23.234686,-13.595535,0.39560854,8.692402,3.0810838
2.802,-21.602276,23.102558,-14.462965,0.27733457,8.294397,2.7667904
2.804,-21.112541,22.944695,-15.24979,0.1634016,7.8847194,2.4636283
2.806,-20.625965,22.762375,-15.9540615,0.05368656,7.4669404,2.173594
2.808,-20.143673,22.557016,-16.57504,-0.05187142,7.0445433,1.8981806
2.81,-19.667257,22.330452,-17.112387,-0.1531443,6.621094,1.6383224
2.812,-19.19818,22.084606,-17.56646,-0.2497915,6.2002068,1.3944182
2.814,-18.737192,21.821526,-17.938961,-0.3413075,5.7854495,1.1665139
2.816,-18.284992,21.543386,-18.231869,-0.42702872,5.380318,0.9542455
2.818,-17.842848,21.252623,-18.447863,-0.5061538,4.9881144,0.7568471
2.82,-17.411549,20.95108,-18.589825,-0.57786655,4.6118474,0.5732729
2.822,-16.992056,20.64084,-18.661621,-0.64139354,4.2541246,0.40223357
2.824,-16.584017,20.32416,-18.667797,-0.6960748,3.9170702,0.24229102
2.826,-16.187576,20.002853,-18.613516,-0.74149585,3.6022446,0.09194222
2.828,-15.804139,19.67857,-18.502426,-0.7775271,3.3105805,-0.05027625
2.83,-15.433605,19.353157,-18.3402,-0.804332,3.0424395,-0.18573755
2.832,-15.075167,19.027977,-18.132593,-0.8223574,2.7976475,-0.3157062
2.834,-14.729001,18.704668,-17.884907,-0.83228546,2.575586,-0.4412599
2.836,-14.395242,18.38474,-17.602228,-0.834972,2.3753,-0.5632749
2.838,-14.073784,18.069448,-17.28937,-0.8313759,2.195562,-0.68239826
2.84,-13.763954,17.759922,-16.950884,-0.8224953,2.0350044,-0.79903406
2.842,-13.465959,17.457474,-16.590933,-0.80930007,1.8921883,-0.9133576
2.844,-13.179139,17.162853,-16.213522,-0.79265654,1.7657076,-1.0253375
2.846,-12.903198,16.877153,-15.821921,-0.77332973,1.6542115,-1.1347849
2.848,-12.637667,16.601242,-15.419338,-0.75196385,1.5564513,-1.2413466
2.85,-12.381868,16.335949,-15.008668,-0.7290503,1.4713115,-1.3445795
2.852,-12.1351385,16.081646,-14.592324,-0.70495164,1.3978065,-1.443969
2.854,-11.896469,15.838675,-14.172518,-0.67991465,1.3350655,-1.539001
2.856,-11.66542,15.607721,-13.751083,-0.65407777,1.282332,-1.6292107
2.858,-11.44156,15.389278,-13.329904,-0.6274897,1.2389303,-1.7142174
2.86,-11.223924,15.18373,-12.910126,-0.6001518,1.2042667,-1.7937546
2.862,-11.011553,14.991223,-12.4927635,-0.5719967,1.1777925,-1.867703
2.864,-10.803956,14.812008,-12.0788,-0.5429249,1.1589975,-1.936087
2.866,-10.600654,14.646241,-11.669018,-0.51282597,1.1473733,-1.999054
2.868,-10.400783,14.494136,-11.264033,-0.48158878,1.1424469,-2.0568519
2.87,-10.203922,14.355806,-10.864238,-0.44909298,1.1437414,-2.1098084
2.872,-10.009418,14.2311735,-10.469847,-0.41522932,1.1508017,-2.158283
2.874,-9.816823,14.12011,-10.08102,-0.37989086,1.1632047,-2.202632
2.876,-9.625609,14.022545,-9.697796,-0.34298927,1.1805588,-2.2431722
2.878,-9.435449,13.938311,-9.320026,-0.30442274,1.2025539,-2.280156
2.88,-9.245983,13.867343,-8.947541,-0.2640884,1.228909,-2.313766
2.882,-9.056903,13.809684,-8.580279,-0.22187722,1.2594018,-2.3441105
2.884,-8.868195,13.765313,-8.218072,-0.1776905,1.29385,-2.3711905
2.886,-8.679531,13.734181,-7.860804,-0.1314162,1.3321235,-2.3949108
2.888,-8.491212,13.716592,-7.50843,-0.08294082,1.3741306,-2.4151168
2.89,-8.303005,13.712711,-7.160794,-0.032174587,1.4197664,-2.4316244
2.892,-8.115161,13.72275,-6.818089,0.020950675,1.4689275,-2.4442422
2.894,-7.9277563,13.747006,-6.4805446,0.076486826,1.5214875,-2.4528008
2.896,-7.7407475,13.785629,-6.1481886,0.1344657,1.5773063,-2.4571748
2.898,-7.5544734,13.838976,-5.821248,0.19489074,1.6362326,-2.4573154
2.9,-7.3690243,13.907284,-5.4998927,0.25774193,1.6980575,-2.4532695
2.902,-7.1848397,13.990929,-5.184472,0.3230064,1.7625412,-2.4451776
2.904,-7.0020995,14.090158,-4.875331,0.39064205,1.8294406,-2.4332676
2.906,-6.8213286,14.2054825,-4.572858,0.46060276,1.8985337,-2.417855
2.908,-6.6424875,14.336731,-4.2776866,0.53284705,1.9696237,-2.3993323
2.91,-6.465932,14.483943,-3.9903212,0.60732603,2.0425494,-2.3781662
2.912,-6.2919855,14.64702,-3.71142,0.68399715,2.1171994,-2.3549483
2.914,-6.120827,14.825695,-3.441605,0.7628125,2.1935346,-2.3303492
2.916,-5.9526787,15.0194645,-3.1815464,0.84369725,2.2715738,-2.3051085
2.918,-5.787645,15.227709,-2.9317925,0.9265356,2.35138,-2.280033
2.92,-5.625733,15.449688,-2.6931381,1.0111487,2.4330359,-2.25595
2.922,-5.46684,15.684355,-2.466216,1.0973071,2.5166097,-2.23372
2.924,-5.3108954,15.930566,-2.2514555,1.1847326,2.602137,-2.2141864
2.926,-5.1575766,16.186724,-2.0495417,1.2730922,2.6895952,-2.1981525
2.928,-5.006547,16.451267,-1.8608992,1.3619937,2.778871,-2.1863601
2.93,-4.857485,16.722553,-1.6860216,1.4510059,2.8697147,-2.1794648
2.932,-4.709794,16.998587,-1.5252597,1.5396678,2.9617503,-2.178034
2.934,-4.5632153,17.27738,-1.3788403,1.6275202,3.054474,-2.1825502
2.936,-4.4166737,17.556658,-1.2470088,1.7140944,3.1472483,-2.1934154
2.938,-4.2697234,17.834116,-1.1298532,1.7989275,3.2392962,-2.2109547
2.94,-4.1217012,18.107405,-1.0274701,1.8815677,3.3297126,-2.2354014
2.942,-3.9721138,18.374153,-0.93960345,1.9615496,3.4174905,-2.2668746
2.944,-3.8200102,18.631845,-0.86636305,2.038423,3.5015717,-2.3054001
2.946,-3.6649425,18.87803,-0.8074069,2.1117373,3.5808752,-2.350874
2.948,-3.5063477,19.110363,-0.7623579,2.1810277,3.6542916,-2.403072
2.95,-3.343688,19.326546,-0.7308867,2.2458117,3.7207325,-2.4616635
2.952,-3.1767254,19.524328,-0.71254015,2.305625,3.7791674,-2.5262003
2.954,-3.0050914,19.70165,-0.7068746,2.3600457,3.8286982,-2.5961385
2.956,-2.8288314,19.856699,-0.71351457,2.4086525,3.868522,-2.6709003
2.958,-2.6476238,19.987797,-0.73183006,2.4510977,3.8979592,-2.749879
2.96,-2.4617782,20.09356,-0.76131356,2.4870815,3.9164886,-2.8324711
2.962,-2.2716208,20.172958,-0.8014192,2.5164,3.923773,-2.9180684
2.964,-2.0774927,20.22502,-0.8517715,2.5389352,3.919711,-3.0060334
2.966,-1.8798091,20.24923,-0.91181576,2.554641,3.904348,-3.0956745
2.968,-1.6789427,20.245352,-0.98095703,2.5635343,3.8778987,-3.1863065
2.97,-1.475663,20.213512,-1.0589505,2.5656996,3.840805,-3.2771978
2.972,-1.2708426,20.154127,-1.1454338,2.561255,3.7936842,-3.3676102
2.974,-1.0651429,20.067873,-1.2398331,2.5503275,3.7372904,-3.4568095
2.976,-0.8593333,19.955809,-1.3419565,2.5330105,3.672464,-3.5440433
2.978,-0.65444183,19.819027,-1.4513373,2.5093591,3.600118,-3.6286056
2.98,-0.45128608,19.65907,-1.5676675,2.4794035,3.5211823,-3.7098455
2.982,-0.2507856,19.477753,-1.6906168,2.4431343,3.4365678,-3.7872355
2.984,-0.05356264,19.276873,-1.8197737,2.4005194,3.3471265,-3.8603764
2.986,0.13941431,19.058546,-1.9546082,2.351513,3.2536187,-3.928999
2.988,0.32753468,18.824913,-2.0947719,2.2960687,3.1567013,-3.9929724
2.99,0.5101819,18.577974,-2.2397838,2.234149,3.056915,-4.052319
2.992,0.68671465,18.319838,-2.3889728,2.165751,2.9546938,-4.107177
2.994,0.8567476,18.052656,-2.5417185,2.0909076,2.8503954,-4.1577888
2.996,1.0198488,17.778578,-2.6974595,2.0096998,2.7443013,-4.2044754
2.998,1.1757383,17.499449,-2.8553004,1.9222584,2.63664,-4.247579
3,1.3241343,17.217186,-3.0144343,1.8287556,2.5276027,-4.2874546
3.002,1.4649105,16.933514,-3.173915,1.7294246,2.4174218,-4.324436
3.004,1.5978804,16.650011,-3.3328183,1.6245458,2.3063574,-4.3587933
3.006,1.72297,16.36816,-3.4902997,1.5144478,2.194737,-4.3907747
3.008,1.8403249,16.089193,-3.645386,1.3994913,2.0829499,-4.420555
3.01,1.9499412,15.814273,-3.7972949,1.2800916,1.9714576,-4.448274
3.012,2.0522742,15.54422,-3.9452147,1.1566904,1.8607774,-4.4740124
3.014,2.1474543,15.279825,-4.08853,1.029742,1.7514542,-4.4978223
3.016,2.2359338,15.021615,-4.226724,0.8996906,1.6440378,-4.5197353
3.018,2.3177857,14.770168,-4.359185,0.7669786,1.539031,-4.5397873
3.02,2.3936539,14.525751,-4.4856653,0.6320394,1.4369344,-4.5580006
3.022,2.463779,14.288589,-4.6059294,0.49527812,1.338206,-4.5744033
3.024,2.5284429,14.058737,-4.71983,0.35706687,1.2431569,-4.5890427
3.026,2.5881972,13.836179,-4.8272624,0.21773136,1.1520164,-4.6019726
3.028,2.6430635,13.620961,-4.9284263,0.07756555,1.0649258,-4.6132684
3.03,2.6935377,13.412683,-5.0231752,-0.06319046,0.9819139,-4.623039
3.032,2.7398262,13.211308,-5.111828,-0.20434225,0.9028902,-4.6314154
3.034,2.7822351,13.016443,-5.194646,-0.3457545,0.8276514,-4.6385393
3.036,2.8207936,12.827842,-5.2715425,-0.48731363,0.75591284,-4.644532
3.038,2.8558636,12.645077,-5.342661,-0.6289458,0.6873082,-4.6495295
3.04,2.8875504,12.467669,-5.4080925,-0.7705978,0.62140834,-4.6536436
3.042,2.9160562,12.295308,-5.4676695,-0.9122273,0.5577587,-4.656968
3.044,2.941619,12.127601,-5.5213475,-1.0537684,0.49591088,-4.659559
3.046,2.9640956,11.964193,-5.568861,-1.1951759,0.43541977,-4.6614385
3.048,2.9837818,11.804865,-5.6100364,-1.3363752,0.37588793,-4.6625967
3.05,3.0008698,11.649232,-5.6445527,-1.4772682,0.31698674,-4.662959
3.052,3.0155253,11.496881,-5.6721535,-1.6177278,0.2584621,-4.6624126
3.054,3.0276403,11.347805,-5.6922975,-1.7576114,0.20016114,-4.660794
3.056,3.0375504,11.201766,-5.7047625,-1.8967602,0.14196308,-4.657932
3.058,3.0453343,11.058563,-5.7092924,-2.0349882,0.08385286,-4.6536036
3.06,3.0510693,10.918072,-5.7055717,-2.1720908,0.02589744,-4.6475854
3.062,3.0548515,10.780359,-5.693412,-2.3078299,-0.03176766,-4.6396766
3.064,3.0569592,10.6453905,-5.6728125,-2.4419594,-0.08890773,-4.6297207
3.066,3.0574427,10.513169,-5.643792,-2.5742269,-0.14524478,-4.6176133
3.068,3.0564423,10.383861,-5.606548,-2.7043624,-0.20042607,-4.603331
3.07,3.0541053,10.257631,-5.5614395,-2.8321207,-0.2540504,-4.5868754
3.072,3.0507517,10.134762,-5.508972,-2.957263,-0.3056607,-4.5683055
3.074,3.0464563,10.015523,-5.4495773,-3.0795746,-0.35475162,-4.547712
3.076,3.0412135,9.900408,-5.3840904,-3.1988306,-0.40077215,-4.525201
3.078,3.0352035,9.789743,-5.313122,-3.314824,-0.4431224,-4.5008945
3.08,3.028563,9.683996,-5.2374578,-3.427343,-0.4811747,-4.4748907
3.082,3.0214524,9.58354,-5.157879,-3.5361516,-0.5142543,-4.447255
3.084,3.0137587,9.488936,-5.0752854,-3.6409955,-0.5416712,-4.4180074
3.086,3.0054355,9.400459,-4.990321,-3.7415934,-0.5627695,-4.3871164
3.088,2.9966893,9.318593,-4.9038663,-3.8376403,-0.5769487,-4.35449
3.09,2.9873607,9.243753,-4.816499,-3.9288144,-0.58370876,-4.3199987
3.092,2.977451,9.176256,-4.7286997,-4.0147853,-0.5826757,-4.2834654
3.094,2.9669256,9.116432,-4.640975,-4.0952067,-0.57364666,-4.2447186
3.096,2.955681,9.064559,-4.553938,-4.169761,-0.5565859,-4.2036047
3.098,2.9437163,9.02066,-4.4677835,-4.238161,-0.53161514,-4.160004
3.1,2.9309042,8.984916,-4.382915,-4.300127,-0.49896288,-4.113862
3.102,2.9174068,8.957245,-4.299638,-4.35546,-0.45895195,-4.0651913
3.104,2.903221,8.937564,-4.21837,-4.4040017,-0.4119246,-4.014061
3.106,2.8882723,8.9257765,-4.1392927,-4.4456644,-0.35817444,-3.9605598
3.108,2.8728237,8.921492,-4.062766,-4.480417,-0.29792285,-3.9047868
3.11,2.8569336,8.924463,-3.989204,-4.5082912,-0.2312522,-3.8468134
3.112,2.840872,8.934092,-3.9190288,-4.5294013,-0.15814757,-3.786693
3.114,2.8247943,8.949985,-3.8526545,-4.543938,-0.07848346,-3.7244427
3.116,2.808978,8.971508,-3.7907016,-4.552132,0.007942677,-3.6600575
3.118,2.7934668,8.998079,-3.73376,-4.554282,0.10132766,-3.5935297
3.12,2.7788055,9.029048,-3.6824937,-4.550728,0.20186615,-3.5249038
3.122,2.7652967,9.063741,-3.6375618,-4.5418506,0.30964458,-3.4542825
3.124,2.753269,9.101504,-3.599599,-4.5280533,0.42462635,-3.3818893
3.126,2.74294,9.141564,-3.5692403,-4.5097547,0.5466019,-3.3080516
3.128,2.7347078,9.183302,-3.547082,-4.4873743,0.67517674,-3.2331908
3.13,2.7286572,9.226048,-3.5336072,-4.461329,0.8097471,-3.1577966
3.132,2.7251174,9.269175,-3.5292711,-4.432002,0.94955134,-3.08239
3.134,2.7243016,9.312231,-3.5344625,-4.3997517,1.0936718,-3.00751
3.136,2.7261362,9.354814,-3.549518,-4.36489,1.2410852,-2.9336627
3.138,2.731094,9.396353,-3.574448,-4.327654,1.3907248,-2.861279
3.14,2.7388408,9.43668,-3.6093678,-4.2882295,1.5415318,-2.7907214
3.142,2.7495115,9.475355,-3.6540196,-4.24676,1.6924908,-2.7222555
3.144,2.7631874,9.512194,-3.7081726,-4.2033353,1.8426893,-2.6560345
3.146,2.7798355,9.547078,-3.7715564,-4.1580095,1.9913547,-2.5920966
3.148,2.799415,9.579948,-3.8435621,-4.110808,2.1378849,-2.5303986
3.15,2.8217728,9.610863,-3.923683,-4.0617394,2.2818658,-2.4708283
3.152,2.846844,9.639815,-4.0113373,-4.01084,2.4230525,-2.413232
3.154,2.8745883,9.666926,-4.105794,-3.9581802,2.561333,-2.3574169
3.156,2.9049282,9.692489,-4.206414,-3.9038725,2.6967266,-2.3031871
3.158,2.937769,9.71658,-4.3124657,-3.8480844,2.8293192,-2.250359
3.16,2.9731238,9.739654,-4.4232855,-3.7910564,2.9592412,-2.1987903
3.162,3.0109897,9.761955,-4.5384474,-3.733065,3.0866437,-2.148362
3.164,3.0514307,9.783711,-4.657203,-3.6744483,3.2116468,-2.0990076
3.166,3.0944214,9.805363,-4.779089,-3.6155527,3.3343153,-2.0507085
3.168,3.1398783,9.827223,-4.9035997,-3.5567443,3.4546487,-2.0034654
3.17,3.1878784,9.84962,-5.0303187,-3.4983706,3.5725622,-1.9573017
3.172,3.238426,9.872685,-5.158799,-3.4407246,3.687894,-1.9122617
3.174,3.2913918,9.896601,-5.2885127,-3.3840773,3.8003948,-1.8683861
3.176,3.3469465,9.921544,-5.4191656,-3.328635,3.909741,-1.8257263
3.178,3.404972,9.947389,-5.5504155,-3.2745595,4.0155587,-1.7843137
3.18,3.4630089,9.973896,-5.6780505,-3.2219863,4.1174493,-1.744187
3.182,3.5227754,10.001228,-5.8048606,-3.1710086,4.2149916,-1.7053912
3.184,3.5840569,10.02935,-5.93051,-3.1217127,4.3077908,-1.6679795
3.186,3.6467738,10.057943,-6.0545735,-3.074171,4.395485,-1.6320262
3.188,3.7105393,10.086909,-6.1768074,-3.0284686,4.477759,-1.5976062
3.19,3.7751472,10.1159115,-6.2968335,-2.9846888,4.5543575,-1.5647926
3.192,3.840353,10.144821,-6.414394,-2.9429393,4.625076,-1.5336487
3.194,3.905978,10.173282,-6.529241,-2.9033418,4.6897874,-1.5042038
3.196,3.9717612,10.201162,-6.641158,-2.8660152,4.7484393,-1.4764495
3.198,4.0372696,10.228242,-6.7498813,-2.8311167,4.801008,-1.4503549
3.2,4.1022787,10.2542925,-6.8553123,-2.798792,4.847501,-1.425865
3.202,4.166586,10.279153,-6.957416,-2.7692118,4.8879633,-1.4028769
3.204,4.229914,10.302658,-7.056064,-2.742526,4.9224415,-1.381268
3.206,4.2921147,10.324631,-7.1510625,-2.7188754,4.950989,-1.3609326
3.208,4.3529024,10.345104,-7.242482,-2.6984386,4.974218,-1.342154
3.21,4.4121084,10.364021,-7.3302784,-2.6810997,4.9922643,-1.3246199
3.212,4.469571,10.3813505,-7.414489,-2.666803,5.005469,-1.3083447
3.214,4.5251374,10.397133,-7.4950147,-2.6553934,5.01423,-1.293354
3.216,4.578766,10.411306,-7.571988,-2.6466527,5.019008,-1.279697
3.218,4.6303177,10.424089,-7.645559,-2.6402864,5.02032,-1.2674
3.22,4.6798406,10.435432,-7.7157183,-2.6359572,5.0187244,-1.256476
3.222,4.727216,10.445582,-7.782567,-2.633305,5.0147815,-1.2469016
3.224,4.7726135,10.454539,-7.846295,-2.6319942,5.0090303,-1.2386303
3.226,4.8158455,10.462449,-7.906914,-2.6317153,5.0019712,-1.2315614
3.228,4.8572736,10.469366,-7.9644966,-2.632182,4.994034,-1.2255903
3.23,4.896557,10.475342,-8.019055,-2.6331692,4.9855924,-1.2205875
