Time_s_,Acc_x_m_s_2_,Acc_y_m_s_2_,Acc_z_m_s_2_,Gyro_x_1_s_,Gyro_y_1_s_,Gyro_z_1_s_
0,-0.86150825,-2.1846783,-0.95073485,-5.776794,-11.742591,-1.009965
0.002,-0.88580036,-2.2224305,-0.85236436,-5.812416,-11.7904415,-0.9481413
0.004,-0.91101253,-2.2579293,-0.7457669,-5.850639,-11.842924,-0.87762237
0.006,-0.93678695,-2.291078,-0.63010526,-5.8912826,-11.900138,-0.7974148
0.008,-0.9631655,-2.3213089,-0.5051246,-5.9339757,-11.962023,-0.7065633
0.01,-0.9896898,-2.3480356,-0.37068734,-5.978087,-12.028111,-0.60426974
0.012,-1.0159701,-2.3704052,-0.22734511,-6.0228004,-12.097577,-0.48998073
0.014,-1.0420607,-2.38736,-0.07580665,-6.0671945,-12.169381,-0.36350653
0.016,-1.0673628,-2.3973787,0.08334723,-6.1102047,-12.242239,-0.22508809
0.018,-1.0913582,-2.3984072,0.24910788,-6.1506004,-12.314548,-0.07538961
0.02,-1.1145492,-2.3887224,0.42021677,-6.186996,-12.384483,0.0845125
0.022,-1.1370753,-2.3663385,0.595541,-6.2179523,-12.450151,0.25323737
0.024,-1.1588187,-2.3296854,0.7735882,-6.2420607,-12.509754,0.4292693
0.026,-1.1799686,-2.2764492,0.9528686,-6.2580357,-12.561736,0.6111345
0.028,-1.2005159,-2.204578,1.131795,-6.2661576,-12.606925,0.80119383
0.03,-1.2209545,-2.1118731,1.3083935,-6.263364,-12.641297,0.99342656
0.032,-1.2416909,-1.9963872,1.481073,-6.249385,-12.664826,1.1875888
0.034,-1.2634615,-1.856256,1.6481148,-6.2241974,-12.677862,1.3836195
0.036,-1.287133,-1.6899707,1.8075714,-6.188106,-12.681126,1.5816138
0.038,-1.3138511,-1.4962008,1.957369,-6.141721,-12.67575,1.7817143
0.04,-1.3451533,-1.2739067,2.0959122,-6.085928,-12.663179,1.9840235
0.042,-1.3829406,-1.0219862,2.2214398,-6.021848,-12.645145,2.1885386
0.044,-1.4292179,-0.7397111,2.3323457,-5.9507694,-12.623504,2.395032
0.046,-1.4861586,-0.42648154,2.4269843,-5.874005,-12.59985,2.6029553
0.048,-1.5562333,-0.082032084,2.5039682,-5.7927146,-12.575393,2.8113337
0.05,-1.641952,0.2935906,2.5623295,-5.707926,-12.551096,3.0189247
0.052,-1.746016,0.69997406,2.601183,-5.620414,-12.527408,3.2243803
0.054,-1.8712943,1.136522,2.6200957,-5.5306273,-12.50415,3.4264271
0.056,-2.0219383,1.6046073,2.6219282,-5.4387383,-12.480592,3.6239343
0.058,-2.199728,2.1011136,2.6026711,-5.3446107,-12.45555,3.8160524
0.06,-2.407369,2.624712,2.5628612,-5.247912,-12.427612,4.0022235
0.062,-2.6471426,3.1740692,2.5028245,-5.148182,-12.395322,4.1821666
0.064,-2.9217143,3.747847,2.4225893,-5.044924,-12.357407,4.355892
0.066,-3.2331843,4.3447075,2.3214862,-4.9376516,-12.312841,4.523639
0.068,-3.581259,4.962395,2.2004843,-4.825924,-12.260828,4.685782
0.07,-3.9667356,5.5993676,2.0610988,-4.7095366,-12.200913,4.842761
0.072,-4.3920646,6.2546477,1.9039696,-4.588612,-12.133056,4.994973
0.074,-4.857808,6.926658,1.7289872,-4.4635444,-12.057436,5.1426525
0.076,-5.362634,7.61313,1.5357746,-4.3349433,-11.974313,5.285851
0.078,-5.9037895,8.311548,1.3245676,-4.203517,-11.883897,5.4243956
0.08,-6.4792175,9.019147,1.0961454,-4.0700383,-11.78629,5.5579014
0.082,-7.086486,9.733428,0.8516954,-3.935274,-11.681496,5.68585
0.084,-7.7227473,10.451931,0.5931053,-3.7999973,-11.569411,5.807672
0.086,-8.384136,11.17207,0.32205144,-3.6649249,-11.449831,5.922776
0.088,-9.066272,11.890895,0.039656878,-3.530735,-11.322573,6.030593
0.09,-9.763836,12.604755,-0.25334013,-3.3980536,-11.187543,6.1306176
0.092,-10.471386,13.310527,-0.5561327,-3.2674937,-11.044761,6.2224765
0.094,-11.182674,14.00532,-0.8673928,-3.1396494,-10.894465,6.3059235
0.096,-11.890453,14.685022,-1.185092,-3.0150895,-10.73708,6.380809
0.098,-12.589042,15.346084,-1.5071499,-2.894351,-10.573177,6.447051
0.1,-13.272834,15.984995,-1.8316703,-2.7779386,-10.403491,6.5046525
0.102,-13.936607,16.598738,-2.1566415,-2.6663163,-10.228809,6.553652
0.104,-14.575422,17.184673,-2.479567,-2.559744,-10.04973,6.5940585
0.106,-15.185215,17.74063,-2.798377,-2.4583316,-9.866764,6.625801
0.108,-15.761753,18.264355,-3.1108913,-2.362046,-9.680298,6.6487474
0.11,-16.301577,18.754404,-3.4151583,-2.270702,-9.490532,6.6628094
0.112,-16.802309,19.209953,-3.7097263,-2.1840158,-9.2975025,6.667913
0.114,-17.26105,19.630314,-3.993349,-2.1015925,-9.101069,6.6640506
0.116,-17.676647,20.01534,-4.2650757,-2.0230145,-8.901009,6.6512413
0.118,-18.048977,20.365332,-4.523143,-1.9479325,-8.697139,6.629569
0.12,-18.37868,20.680988,-4.765998,-1.8760688,-8.489287,6.5991488
0.122,-18.666836,20.963146,-4.992691,-1.8072617,-8.27729,6.560168
0.124,-18.914886,21.213203,-5.202264,-1.741466,-8.061055,6.5127187
0.126,-19.12562,21.43257,-5.394657,-1.6787996,-7.8406377,6.4568877
0.128,-19.301819,21.62281,-5.570017,-1.6195602,-7.616147,6.3928556
0.13,-19.446049,21.785965,-5.7289333,-1.5640957,-7.387632,6.3208275
0.132,-19.561604,21.924053,-5.8726883,-1.5128744,-7.1551676,6.2410183
0.134,-19.652216,22.039875,-6.002634,-1.4663637,-6.918818,6.153608
0.136,-19.721428,22.135437,-6.120675,-1.4250293,-6.678591,6.0586915
0.138,-19.773085,22.213234,-6.2290993,-1.3893113,-6.4345136,5.9562907
0.14,-19.810757,22.275593,-6.3300343,-1.3596036,-6.1867046,5.84636
0.142,-19.837994,22.324879,-6.4261646,-1.33618,-5.9353027,5.7288027
0.144,-19.857971,22.363333,-6.5201263,-1.3192201,-5.6804924,5.603465
0.146,-19.873894,22.393276,-6.6141148,-1.3088148,-5.422645,5.4701953
0.148,-19.888449,22.416756,-6.710519,-1.3049593,-5.162191,5.328907
0.15,-19.903997,22.435577,-6.8121576,-1.3075387,-4.8995953,5.179681
0.152,-19.922329,22.45128,-6.9213314,-1.3163865,-4.6353707,5.022777
0.154,-19.944965,22.4652,-7.040204,-1.3312976,-4.370101,4.8585925
0.156,-19.972618,22.478401,-7.170685,-1.3520472,-4.1043596,4.6876035
0.158,-20.005795,22.491947,-7.314475,-1.3784227,-3.8387313,4.5103245
0.16,-20.044825,22.50701,-7.4732456,-1.410218,-3.5737839,4.3272295
0.162,-20.089142,22.524462,-7.648568,-1.447239,-3.3100677,4.1387444
0.164,-20.137815,22.54519,-7.8419027,-1.4892691,-3.048091,3.9451785
0.166,-20.189634,22.570173,-8.05468,-1.5360552,-2.7883084,3.746698
0.168,-20.242483,22.600025,-8.287585,-1.5873014,-2.531136,3.5433247
0.17,-20.293913,22.6352,-8.540625,-1.6425849,-2.276884,3.3350067
0.172,-20.3414,22.676117,-8.813775,-1.7013823,-2.0257187,3.1216178
0.174,-20.381956,22.723137,-9.107052,-1.7630757,-1.7777072,2.9030461
0.176,-20.41203,22.776398,-9.419989,-1.8269587,-1.5327822,2.6791873
0.178,-20.4278,22.835758,-9.752207,-1.8922625,-1.2907046,2.4500995
0.18,-20.425507,22.901352,-10.103199,-1.9581254,-1.0510125,2.2158782
0.182,-20.40067,22.973274,-10.471885,-2.0236714,-0.8132173,1.9766107
0.184,-20.34895,23.051342,-10.856901,-2.088076,-0.5768566,1.7324272
0.186,-20.266493,23.135805,-11.257892,-2.150528,-0.3414628,1.4834955
0.188,-20.148046,23.225975,-11.67354,-2.2102952,-0.10669199,1.2300471
0.19,-19.989367,23.32136,-12.1023655,-2.2667031,0.12763056,0.9723199
0.192,-19.787552,23.421703,-12.543823,-2.3191354,0.36153755,0.7105468
0.194,-19.538254,23.526102,-12.996656,-2.3670561,0.5949036,0.44494474
0.196,-19.237476,23.63443,-13.459154,-2.4100318,0.8273916,0.1756773
0.198,-18.881697,23.74619,-13.9301605,-2.447691,1.0584726,-0.09713924
0.2,-18.467619,23.861008,-14.408798,-2.479711,1.2875587,-0.37342536
0.202,-17.9921,23.977797,-14.893419,-2.5058494,1.5138853,-0.65319407
0.204,-17.45277,24.095182,-15.382526,-2.5259213,1.7365397,-0.936553
0.206,-16.848724,24.212791,-15.874874,-2.5397685,1.9545406,-1.2236714
0.208,-16.178473,24.330124,-16.370012,-2.5472524,2.1668465,-1.5147544
0.21,-15.440105,24.445919,-16.867058,-2.548231,2.3723247,-1.8100193
0.212,-14.632406,24.558992,-17.364796,-2.5425622,2.56982,-2.1097279
0.214,-13.757252,24.668858,-17.862686,-2.5300941,2.758233,-2.4141374
0.216,-12.815419,24.774738,-18.359962,-2.5106335,2.9366093,-2.7235394
0.218,-11.807825,24.875431,-18.856262,-2.4840066,3.1040688,-3.0381937
0.22,-10.736233,24.969805,-19.351086,-2.4500105,3.2597618,-3.3582006
0.222,-9.603764,25.057293,-19.842958,-2.4083767,3.402997,-3.6834142
0.224,-8.414616,25.137575,-20.330519,-2.3589296,3.5331671,-4.0134516
0.226,-7.1725025,25.210405,-20.811872,-2.3015294,3.6497622,-4.347718
0.228,-5.8813763,25.27553,-21.285915,-2.2360158,3.752326,-4.6855164
0.23,-4.546014,25.332691,-21.751345,-2.162304,3.8402944,-5.025943
0.232,-3.1717873,25.38192,-22.20607,-2.0804043,3.9129703,-5.367979
0.234,-1.7642794,25.42313,-22.6485,-1.9904288,3.9695814,-5.7105703
0.236,-0.32913303,25.456684,-23.076458,-1.8925471,4.009349,-6.0526047
0.238,1.1276131,25.483055,-23.48774,-1.7870002,4.0315504,-6.3929605
0.24,2.600171,25.502977,-23.87973,-1.674125,4.0355663,-6.730529
0.242,4.0830584,25.516953,-24.249828,-1.5542829,4.0208917,-7.064346
0.244,5.568467,25.525839,-24.59703,-1.4277782,3.9872417,-7.3936286
0.246,7.049679,25.531624,-24.918732,-1.2949107,3.9347627,-7.7177706
0.248,8.522412,25.5346,-25.211227,-1.1559508,3.8639941,-8.036339
0.25,9.983853,25.535418,-25.471199,-1.0110552,3.7757351,-8.349063
0.252,11.428682,25.53607,-25.695213,-0.8602848,3.6710963,-8.655871
0.254,12.852722,25.53825,-25.881187,-0.70364666,3.5514178,-8.956804
0.256,14.252933,25.543575,-26.027304,-0.54114485,3.418119,-9.251922
0.258,15.6257,25.554161,-26.130798,-0.3728056,3.2725768,-9.541287
0.26,16.968216,25.571882,-26.189522,-0.19870806,3.116064,-9.824915
0.262,18.278824,25.5977,-26.202396,-0.019053936,2.9496818,-10.102718
0.264,19.556461,25.632956,-26.16863,0.16579199,2.7742922,-10.374416
0.266,20.799759,25.678995,-26.08684,0.35524702,2.5904553,-10.639614
0.268,22.008509,25.73733,-25.955986,0.5484972,2.3984728,-10.897828
0.27,23.184422,25.808046,-25.775524,0.7445078,2.1984143,-11.148485
0.272,24.328812,25.892147,-25.544725,0.94204426,1.9902402,-11.391058
0.274,25.443756,25.990337,-25.263405,1.1397552,1.774206,-11.625196
0.276,26.532072,26.103308,-24.931442,1.3362675,1.5506884,-11.850569
0.278,27.596317,26.231632,-24.54941,1.5300593,1.3197742,-12.066646
0.28,28.640295,26.375408,-24.11815,1.7196093,1.0815811,-12.27285
0.282,29.667904,26.534597,-23.638086,1.9034548,0.8365222,-12.4686165
0.284,30.683651,26.708513,-23.109406,2.080361,0.58547986,-12.653418
0.286,31.69168,26.896376,-22.53278,2.2492595,0.32935035,-12.826666
0.288,32.696148,27.097013,-21.908587,2.4092498,0.06899291,-12.987798
0.29,33.701485,27.308985,-21.237606,2.5596528,-0.19455957,-13.136348
0.292,34.711853,27.530127,-20.521324,2.7000852,-0.46012545,-13.271959
0.294,35.730934,27.758303,-19.761393,2.830472,-0.7264911,-13.394445
0.296,36.762886,27.990389,-18.958187,2.9509897,-0.99240124,-13.503765
0.298,37.80982,28.22373,-18.113207,3.0620098,-1.2567284,-13.600201
0.3,38.874695,28.454813,-17.228016,3.1641207,-1.5185672,-13.684585
0.302,39.960827,28.679417,-16.30283,3.258007,-1.7771949,-13.758277
0.304,41.069344,28.893478,-15.339034,3.3443441,-2.0320926,-13.823198
0.306,42.201004,29.091957,-14.337922,3.423687,-2.2830715,-13.88173
0.308,43.356224,29.270195,-13.300277,3.4964104,-2.5302043,-13.9366665
0.31,44.53472,29.423555,-12.227091,3.5626502,-2.7736974,-13.990955
0.312,45.73523,29.547852,-11.120119,3.6222544,-3.0137262,-14.04723
0.314,46.956203,29.638777,-9.980957,3.6747642,-3.2503633,-14.107618
0.316,48.195824,29.69207,-8.811216,3.7195306,-3.4834461,-14.173565
0.318,49.451828,29.70334,-7.611952,3.7558532,-3.712433,-14.245738
0.32,50.720207,29.669167,-6.384804,3.7830458,-3.9362364,-14.323942
0.322,51.996902,29.586323,-5.132139,3.8005805,-4.153286,-14.407329
0.324,53.28002,29.451138,-3.856081,3.808175,-4.3615866,-14.494683
0.326,54.56548,29.26081,-2.559,3.805883,-4.558727,-14.584663
0.328,55.848007,29.013786,-1.2427807,3.7940135,-4.7422714,-14.676073
0.33,57.123188,28.708855,0.090120316,3.7730765,-4.909658,-14.768156
0.332,58.38717,28.344902,1.4366264,3.7439904,-5.0580416,-14.860728
0.334,59.63565,27.921566,2.793314,3.7077012,-5.1849127,-14.953913
0.336,60.86461,27.438875,4.156393,3.6651053,-5.288389,-15.048042
0.338,62.070457,26.89738,5.521576,3.6169662,-5.367179,-15.143567
0.34,63.249973,26.2984,6.8843307,3.5639696,-5.42028,-15.240845
0.342,64.40042,25.643736,8.239443,3.506628,-5.447182,-15.339849
0.344,65.51953,24.935608,9.581715,3.4451761,-5.448057,-15.440069
0.346,66.60612,24.17607,10.905527,3.379673,-5.4234943,-15.540308
0.348,67.65908,23.36795,12.205341,3.310001,-5.3742476,-15.638772
0.35,68.67784,22.514494,13.47493,3.2359872,-5.301167,-15.7330475
0.352,69.66175,21.619667,14.708113,3.1574535,-5.20507,-15.82024
0.354,70.61302,20.686972,15.900015,3.0742774,-5.08669,-15.897204
0.356,71.53287,19.71936,17.04406,2.9864273,-4.946563,-15.960823
0.358,72.42102,18.721708,18.133175,2.8939247,-4.7851524,-16.008204
0.36,73.27737,17.69857,19.161343,2.7968822,-4.602912,-16.036888
0.362,74.10487,16.653738,20.123215,2.6953907,-4.40048,-16.045006
0.364,74.9058,15.591398,21.015064,2.5894728,-4.178829,-16.0314
0.366,75.682205,14.515865,21.833513,2.4789963,-3.9394011,-15.995661
0.368,76.43682,13.431101,22.57467,2.3636556,-3.6840286,-15.937983
0.37,77.17198,12.341259,23.235641,2.2429109,-3.4149132,-15.859026
0.372,77.889244,11.251118,23.814749,2.1160572,-3.1345134,-15.759808
0.374,78.58968,10.164734,24.311024,1.9822805,-2.8454647,-15.641589
0.376,79.27495,9.085688,24.723415,1.8407197,-2.5503173,-15.505651
0.378,79.94567,8.017296,25.05175,1.6905775,-2.251257,-15.353214
0.38,80.60154,6.963173,25.297255,1.5311494,-1.9502006,-15.185417
0.382,81.24242,5.9257507,25.462013,1.3618646,-1.6487117,-15.003284
0.384,81.868484,4.906807,25.54899,1.1823483,-1.3479724,-14.807753
0.386,82.480385,3.9072132,25.561537,0.992368,-1.0488605,-14.599666
0.388,83.07842,2.9282951,25.503248,0.79182136,-0.75198746,-14.379758
0.39,83.661575,1.9715824,25.377953,0.5807376,-0.4577446,-14.148771
0.392,84.22895,1.038269,25.18971,0.35923517,-0.16635942,-13.907509
0.394,84.7786,0.12956238,24.942493,0.12752348,0.12210512,-13.656899
0.396,85.30887,-0.7538061,24.641249,-0.1141091,0.40781593,-13.397978
0.398,85.81857,-1.6111794,24.290623,-0.3652842,0.6912184,-13.131859
0.4,86.30686,-2.4428835,23.89535,-0.62553614,0.9730835,-12.859779
0.402,86.77196,-3.2485075,23.460167,-0.89436215,1.2544212,-12.583061
0.404,87.21223,-4.027584,22.98975,-1.1712631,1.5364733,-12.303044
0.406,87.62657,-4.780181,22.488455,-1.4557934,1.8206897,-12.021061
0.408,88.0139,-5.505959,21.960344,-1.7476306,2.1085815,-11.738445
0.41,88.37311,-6.2043066,21.408476,-2.0465946,2.4015744,-11.456522
0.412,88.70338,-6.8747134,20.835356,-2.3527157,2.7008872,-11.176645
0.414,89.00482,-7.5165367,20.243052,-2.6663234,3.0073953,-10.900259
0.416,89.278,-8.129024,19.633509,-2.9880266,3.3215673,-10.628813
0.418,89.52418,-8.711294,19.008028,-3.318745,3.6434655,-10.363693
0.42,89.74534,-9.262155,18.367636,-3.6596022,3.9728508,-10.106197
0.422,89.94523,-9.780983,17.712969,-4.011793,4.309373,-9.857469
0.424,90.12761,-10.266231,17.043922,-4.3764625,4.652792,-9.61836
0.426,90.29728,-10.716361,16.3597,-4.7546463,5.0030794,-9.389301
0.428,90.45992,-11.129588,15.660078,-5.1470537,5.360562,-9.170233
0.43,90.62262,-11.504013,14.944527,-5.55406,5.725956,-8.960714
0.432,90.79344,-11.838271,14.213062,-5.975658,6.1002584,-8.760055
0.434,90.980995,-12.130561,13.465672,-6.4114385,6.4846535,-8.567433
0.436,91.19507,-12.379104,12.702959,-6.8607197,6.8802843,-8.382056
0.438,91.44621,-12.582046,11.925718,-7.322678,7.287946,-8.203247
0.44,91.745575,-12.737272,11.136747,-7.796495,7.707822,-8.030627
0.442,92.10404,-12.841684,10.338898,-8.281522,8.139211,-7.864108
0.444,92.53293,-12.89146,9.533678,-8.777292,8.58054,-7.7037296
0.446,93.04532,-12.88225,8.7242775,-9.283586,9.029339,-7.5495205
0.448,93.65094,-12.806707,7.9148483,-9.800421,9.482283,-7.4013605
0.45,94.3602,-12.653809,7.106674,-10.328002,9.935443,-7.2587543
0.452,95.1827,-12.409901,6.299217,-10.866725,10.384561,-7.120655
0.454,96.122604,-12.057888,5.4939537,-11.417127,10.825258,-6.9852867
0.456,97.181244,-11.588558,4.7014885,-11.979782,11.253202,-6.8500237
0.458,98.3698,-10.9956,3.9315758,-12.555316,11.664341,-6.7113385
0.46,99.69663,-10.267599,3.187313,-13.144389,12.055025,-6.564737
0.462,101.165405,-9.388863,2.4698067,-13.747715,12.421978,-6.4049067
0.464,102.776764,-8.335594,1.7825089,-14.36611,12.76232,-6.225809
0.466,104.531975,-7.0799694,1.1239243,-15.000443,13.073668,-6.020769
0.468,106.43865,-5.596386,0.50077057,-15.651558,13.354189,-5.7825866
0.47,108.49281,-3.8557606,-0.07847977,-16.320253,13.602598,-5.5037446
0.472,110.69201,-1.8322868,-0.61024094,-17.007057,13.818303,-5.1765785
0.474,113.04048,0.4953575,-1.0998802,-17.712248,14.001499,-4.793439
0.476,115.55223,3.1459084,-1.5227089,-18.43589,14.153243,-4.3466167
0.478,118.19243,6.1916237,-1.8483047,-19.177567,14.275583,-3.8287735
0.48,120.92714,9.654959,-2.1422043,-19.935955,14.371755,-3.233508
0.482,123.805984,13.537123,-2.3877182,-20.708572,14.445707,-2.5556536
0.484,126.81499,17.915924,-2.6655807,-21.492308,14.501267,-1.7920933
0.486,129.91006,22.758446,-2.9752922,-22.28327,14.5423765,-0.94296265
0.488,133.06406,28.04804,-3.304718,-23.0764,14.573214,-0.010654449
0.49,136.36926,33.715157,-3.6950417,-23.865597,14.596687,1.0013809
0.492,139.83774,39.763996,-4.1586113,-24.644691,14.613835,2.0871334
0.494,143.40602,46.218025,-4.6400146,-25.408247,14.622788,3.2372074
0.496,147.07971,53.06459,-5.0259666,-26.150486,14.618871,4.438943
0.498,150.86752,60.27944,-5.3097,-26.86724,14.592791,5.6782675
0.5,154.7679,67.782814,-5.612591,-27.55623,14.530403,6.9409018
0.502,158.78473,75.49437,-5.9391556,-28.21577,14.414614,8.213397
0.504,162.92839,83.33722,-6.1464195,-28.845005,14.225647,9.484976
0.506,167.2346,91.305176,-6.189869,-29.448898,13.938131,10.750429
0.508,171.48405,99.42082,-6.275959,-30.039097,13.523853,12.007452
0.51,176.082,107.37921,-6.2759666,-30.624575,12.957466,13.253627
0.512,180.81621,115.15264,-6.1807632,-31.215178,12.206501,14.492588
0.514,185.64217,122.63378,-6.0070915,-31.816236,11.230616,15.737087
0.516,190.58556,129.61644,-5.7054863,-32.4251,9.989754,17.002666
0.518,195.61923,136.00038,-5.2061615,-33.047043,8.451805,18.304873
0.52,200.72742,141.6735,-4.437557,-33.70268,6.6066875,19.650488
0.522,205.84425,146.54774,-3.3367348,-34.403324,4.446956,21.04792
0.524,210.93234,150.53104,-1.8405228,-35.152245,1.9579535,22.500856
0.526,215.95038,153.5408,0.12312698,-35.949757,-0.8685303,24.008347
0.528,220.85107,155.51611,2.6311417,-36.791096,-4.0197296,25.571411
0.53,225.56761,156.42496,5.741871,-37.6548,-7.4513464,27.181856
0.532,230.01723,156.24345,9.502575,-38.514652,-11.088903,28.811047
0.534,234.1151,154.9606,13.956615,-39.37773,-14.856083,30.451635
0.536,237.77504,152.58972,19.135098,-40.272587,-18.673523,32.061287
0.538,240.89655,149.17653,25.045002,-41.20423,-22.44831,33.53458
0.54,243.3743,144.79002,31.674984,-42.135777,-26.068016,34.791294
0.542,245.11479,139.5146,38.995743,-43.034393,-29.45372,35.719776
0.544,246.02795,133.4552,46.95374,-43.8509,-32.54918,36.18123
0.546,246.03888,126.73175,55.467674,-44.506504,-35.306038,36.05578
0.548,245.08778,119.475395,64.43352,-44.90359,-37.69169,35.239185
0.55,243.12607,111.827866,73.718475,-44.93583,-39.6837,33.658447
0.552,240.12181,103.93394,83.17075,-44.499496,-41.262726,31.28139
0.554,236.06653,95.93404,92.62811,-43.51062,-42.411133,28.128159
0.556,230.9721,87.96548,101.916595,-41.920643,-43.115482,24.276657
0.558,224.87407,80.15648,110.858246,-39.72407,-43.366795,19.853455
0.56,217.83316,72.62282,119.281395,-36.95762,-43.161377,15.020623
0.562,209.92734,65.468475,127.01496,-33.70016,-42.509037,9.972229
0.564,201.26659,58.780903,133.89673,-30.071745,-41.437294,4.926149
0.566,191.97382,52.646347,139.78111,-26.212276,-39.98152,0.1015687
0.568,182.16692,47.13862,144.55687,-22.26875,-38.18576,-4.298932
0.57,171.98502,42.298866,148.1458,-18.381353,-36.10633,-8.099315
0.572,161.58072,38.144745,150.49498,-14.660934,-33.80773,-11.163436
0.574,151.10587,34.67896,151.57938,-11.185913,-31.358631,-13.402573
0.576,140.71378,31.894804,151.4063,-8.0231905,-28.80545,-14.793249
0.578,130.54207,29.783047,150.0016,-5.218117,-26.173561,-15.369274
0.58,120.73259,28.321138,147.41988,-2.7911875,-23.489243,-15.217915
0.582,111.41026,27.48207,143.74263,-0.74617577,-20.790304,-14.472549
0.584,102.67778,27.234716,139.0781,0.918062,-18.125746,-13.285346
0.586,94.61508,27.540257,133.52116,2.2182815,-15.5461235,-11.807722
0.588,87.32933,28.306927,127.18174,3.2038913,-13.084349,-10.207511
0.59,80.88981,29.496437,120.25542,3.92432,-10.771067,-8.599237
0.592,75.27082,31.073856,112.8452,4.3995485,-8.644439,-7.0407963
0.594,70.5026,32.92729,105.13344,4.636999,-6.747059,-5.609163
0.596,66.612564,35.047665,97.203545,4.683754,-5.0826273,-4.326675
0.598,63.579185,37.383163,89.13445,4.5934315,-3.6449275,-3.184406
0.6,61.268333,39.907356,81.048004,4.414121,-2.4306393,-2.182269
0.602,59.63992,42.50682,73.02223,4.1962194,-1.4266045,-1.311388
0.604,58.69974,45.06463,65.07669,3.989497,-0.6155877,-0.56497407
0.606,58.360386,47.512,57.208286,3.8389196,0.020323217,0.057612777
0.608,58.53218,49.793655,49.53219,3.781735,0.49896136,0.545316
0.61,59.1355,51.89952,42.241898,3.8449323,0.83729094,0.8779798
0.612,60.084183,53.805653,35.370365,4.042804,1.0488304,1.0379704
0.614,61.289272,55.479755,28.832897,4.376407,1.1431203,1.0159862
0.616,62.649136,56.839897,22.67597,4.8360176,1.1269248,0.8093362
0.618,64.27272,57.8205,17.136894,5.403031,1.0044135,0.42390883
0.62,65.70302,58.652004,12.090578,6.0509663,0.7782159,-0.119499445
0.622,67.14842,59.258816,7.55464,6.74781,0.45066085,-0.7814944
0.624,68.59506,59.657314,3.5775948,7.460622,0.025784403,-1.5056016
0.626,69.93852,59.960823,0.13010788,8.158602,-0.48982507,-2.2242007
0.628,71.15303,60.162895,-2.8300781,8.813735,-1.0870595,-2.8653333
0.63,72.209114,60.285145,-5.3311443,9.40205,-1.7539079,-3.3605473
0.632,73.112854,60.34598,-7.3821087,9.905482,-2.4754374,-3.6522288
0.634,73.838036,60.380695,-8.989979,10.313137,-3.2343678,-3.6993554
0.636,74.3668,60.426746,-10.174913,10.621698,-4.011888,-3.482558
0.638,74.68963,60.51452,-10.964718,10.834716,-4.789667,-3.0070398
0.64,74.81514,60.663284,-11.376455,10.961023,-5.551383,-2.3014064
0.642,74.76158,60.900166,-11.430735,11.01287,-6.2833753,-1.4139805
0.644,74.541916,61.249733,-11.16,11.004207,-6.976204,-0.4079473
0.646,74.16675,61.722935,-10.6002445,10.948969,-7.6256933,0.6451924
0.648,73.65695,62.312134,-9.784107,10.860428,-8.231072,1.6721307
0.65,73.032295,63.00283,-8.747444,10.750863,-8.794257,2.6052246
0.652,72.30082,63.7794,-7.529667,10.631899,-9.319047,3.3901858
0.654,71.47182,64.61784,-6.166683,10.513793,-9.811776,3.9888682
0.656,70.54795,65.4904,-4.689028,10.404261,-10.277958,4.3792033
0.658,69.53131,66.36732,-3.125023,10.306429,-10.720985,4.555212
0.66,68.42885,67.21559,-1.4959888,10.220418,-11.142452,4.526785
0.662,67.24883,68.00496,0.17856503,10.145124,-11.542514,4.317348
0.664,65.99545,68.71141,1.8777905,10.07887,-11.919484,3.960256
0.666,64.67382,69.313675,3.5836391,10.019333,-12.270295,3.4944239
0.668,63.29129,69.79403,5.2794857,9.963991,-12.590959,2.9606552
0.67,61.852074,70.14081,6.9492335,9.910509,-12.876737,2.3978133
0.672,60.365555,70.34689,8.585264,9.8571005,-13.122651,1.8398507
0.674,58.834133,70.411865,10.180036,9.803081,-13.323624,1.3142048
0.676,57.266544,70.33544,11.721138,9.749042,-13.474568,0.84070307
0.678,55.67972,70.11992,13.192573,9.696445,-13.570899,0.430943
0.68,54.08258,69.78065,14.5834465,9.647611,-13.608827,0.08891627
0.682,52.48279,69.33559,15.889185,9.605558,-13.586001,-0.18751681
0.684,50.891674,68.79643,17.104296,9.573473,-13.502056,-0.4049768
0.686,49.315296,68.17147,18.22584,9.554215,-13.358676,-0.5729543
0.688,47.76423,67.46549,19.252285,9.549723,-13.159804,-0.70219195
0.69,46.24559,66.68555,20.18206,9.560752,-12.911588,-0.8032396
0.692,44.76581,65.83809,21.015923,9.586771,-12.622025,-0.8852967
0.694,43.33087,64.929,21.754984,9.6260605,-12.3004465,-0.9554733
0.696,41.944885,63.964096,22.402676,9.675753,-11.956966,-1.0184193
0.698,40.608624,62.95131,22.964123,9.732071,-11.601736,-1.0764568
0.7,39.323578,61.89699,23.447626,9.790568,-11.244339,-1.1300073
0.702,38.09057,60.80899,23.859749,9.846502,-10.893295,-1.1782191
0.704,36.909363,59.695522,24.209286,9.895246,-10.555836,-1.2195756
0.706,35.779026,58.564625,24.503998,9.932669,-10.237829,-1.2525318
0.708,34.69919,57.422512,24.750385,9.955557,-9.942392,-1.2760437
0.71,33.6689,56.27487,24.956139,9.961258,-9.671841,-1.2901635
0.712,32.686478,55.126617,25.128746,9.948886,-9.427456,-1.2962883
0.714,31.74979,53.982735,25.275316,9.918469,-9.208846,-1.2969003
0.716,30.8564,52.847267,25.40259,9.870717,-9.014211,-1.2943499
0.718,30.003384,51.722847,25.516617,9.806904,-8.841486,-1.2918284
0.72,29.187103,50.61157,25.622456,9.729078,-8.688172,-1.2933421
0.722,28.404232,49.51428,25.72514,9.639895,-8.551311,-1.3028247
0.724,27.651741,48.430614,25.829163,9.542127,-8.427732,-1.3234959
0.726,26.926138,47.359623,25.937496,9.43848,-8.314152,-1.3577497
0.728,26.223946,46.29969,26.051794,9.331449,-8.207229,-1.4071622
0.73,25.542673,45.248447,26.172453,9.223278,-8.103716,-1.4724603
0.732,24.88053,44.20104,26.30361,9.115881,-8.000527,-1.5534439
0.734,24.224024,43.16694,26.430443,9.010823,-7.8947053,-1.6490536
0.736,23.586554,42.139122,26.550327,8.909285,-7.7835503,-1.7575266
0.738,22.96463,41.117138,26.666773,8.812107,-7.6646504,-1.8765812
0.74,22.35176,40.10275,26.779703,8.719881,-7.535925,-2.0035613
0.742,21.75095,39.095226,26.882504,8.632969,-7.3957133,-2.1356778
0.744,21.162195,38.098545,26.96703,8.551481,-7.2428184,-2.2701678
0.746,20.584955,37.116795,27.027575,8.475282,-7.076661,-2.404426
0.748,20.020687,36.152447,27.060255,8.404018,-6.897292,-2.5360522
0.75,19.47044,35.20817,27.061602,8.337172,-6.7053995,-2.662838
0.752,18.93497,34.28749,27.028378,8.274054,-6.50233,-2.782793
0.754,18.415535,33.394253,26.957096,8.213865,-6.289997,-2.8941603
0.756,17.914055,32.531357,26.845274,8.155779,-6.070817,-2.9954162
0.758,17.432121,31.701357,26.690893,8.098933,-5.8474784,-3.085336
0.76,16.97075,30.906523,26.493479,8.042499,-5.6228046,-3.1630278
0.762,16.530727,30.148466,26.25282,7.985734,-5.3996196,-3.2279267
0.764,16.113047,29.428131,25.969547,7.928029,-5.180581,-3.2798424
0.766,15.718606,28.745987,25.64482,7.868907,-4.9680142,-3.3189795
0.768,15.3476925,28.102198,25.281086,7.808048,-4.7638097,-3.3459659
0.77,15.000498,27.496193,24.881378,7.7452383,-4.5693727,-3.361833
0.772,14.676647,26.92713,24.44935,7.680354,-4.38556,-3.367904
0.774,14.375804,26.393295,23.988737,7.6133027,-4.212665,-3.3657787
0.776,14.097325,25.892761,23.503523,7.5440307,-4.0505,-3.357146
0.778,13.840228,25.423134,22.997753,7.472506,-3.8985608,-3.3435724
0.78,13.603273,24.981558,22.475697,7.398731,-3.756124,-3.3264017
0.782,13.385045,24.564835,21.941486,7.322754,-3.622353,-3.3066878
0.784,13.184189,24.16939,21.398973,7.2446694,-3.4964252,-3.2852116
0.786,12.998868,23.791481,20.851753,7.1645923,-3.377678,-3.2625206
0.788,12.827412,23.427126,20.303352,7.082676,-3.2657247,-3.2390087
0.79,12.667883,23.07203,19.757292,6.999035,-3.1605115,-3.2150464
0.792,12.518542,22.721876,19.216568,6.9136662,-3.0622587,-3.1911592
0.794,12.377548,22.372326,18.684223,6.8264413,-2.9715328,-3.1679926
0.796,12.243263,22.019089,18.16296,6.7370625,-2.8892546,-3.1462386
0.798,12.113834,21.658247,17.655458,6.645094,-2.8166015,-3.1266139
0.8,11.987492,21.286324,17.163647,6.5499916,-2.754887,-3.109777
0.802,11.862892,20.899904,16.6894,6.4510975,-2.7054553,-3.0963438
0.804,11.738447,20.496061,16.23481,6.3476696,-2.6695528,-3.0868115
0.806,11.612808,20.072462,15.801863,6.238964,-2.6482284,-3.0815039
0.808,11.484726,19.62743,15.392505,6.124298,-2.64223,-3.0805628
0.81,11.352865,19.159803,15.008317,6.0031238,-2.6518729,-3.0838952
0.812,11.216389,18.668913,14.651021,5.875109,-2.6770372,-3.09121
0.814,11.074633,18.15447,14.322221,5.7401853,-2.7171307,-3.1020417
0.816,10.927559,17.616884,14.023375,5.59856,-2.7710307,-3.1158438
0.818,10.774656,17.056957,13.755632,5.4507036,-2.837144,-3.132
0.82,10.615085,16.476017,13.52001,5.297344,-2.9135156,-3.1497774
0.822,10.44858,15.8754015,13.317325,5.1393833,-2.9979136,-3.1683865
0.824,10.275291,15.256786,13.148088,4.977836,-3.0879297,-3.1869931
0.826,10.094988,14.622249,13.01238,4.813782,-3.1811085,-3.204779
0.828,9.907877,13.974012,12.910278,4.648327,-3.275056,-3.2210023
0.83,9.7145195,13.3142,12.84165,4.482483,-3.3675196,-3.23508
0.832,9.515438,12.645043,12.806015,4.317172,-3.456431,-3.2466865
0.834,9.311146,11.968623,12.802596,4.153179,-3.5399787,-3.2557135
0.836,9.102288,11.286894,12.830236,3.9911609,-3.6167123,-3.2622948
0.838,8.889662,10.601943,12.887432,3.831684,-3.6854334,-3.266766
0.84,8.673883,9.915538,12.972519,3.675255,-3.745164,-3.2696557
0.842,8.455277,9.229353,13.083558,3.5223584,-3.7951436,-3.2716331
0.844,8.234547,8.544661,13.218512,3.3734717,-3.834787,-3.273393
0.846,8.012219,7.862522,13.374937,3.229061,-3.8637233,-3.2754936
0.848,7.788498,7.183879,13.550373,3.089567,-3.8816123,-3.2784548
0.85,7.5635085,6.509734,13.742121,2.9553504,-3.8880777,-3.2826748
0.852,7.3374805,5.8409996,13.94705,2.8266504,-3.8827653,-3.2882726
0.854,7.1107864,5.178686,14.161806,2.7035503,-3.8653026,-3.2950454
0.856,6.8835917,4.523823,14.383566,2.586032,-3.8352652,-3.302484
0.858,6.6555557,3.8776248,14.609158,2.4738972,-3.7922144,-3.3098485
0.86,6.4270797,3.24122,14.8352375,2.3667965,-3.735715,-3.3161604
0.862,6.1983232,2.6155179,15.058228,2.2642775,-3.6652536,-3.3202193
0.864,5.9695024,2.0018027,15.274844,2.1657896,-3.5803218,-3.3206756
0.866,5.7406445,1.4013109,15.481813,2.0707526,-3.4804182,-3.3161294
0.868,5.5119166,0.8153477,15.676022,1.9786015,-3.3650408,-3.305206
0.87,5.2841716,0.245116,15.853881,1.8888295,-3.2337828,-3.286667
0.872,5.0577974,-0.30779052,16.01257,1.8010262,-3.0863822,-3.2594957
0.874,4.8333073,-0.84159255,16.149715,1.7148885,-2.9227724,-3.2229319
0.876,4.611145,-1.3546383,16.263287,1.6302091,-2.7430906,-3.1764855
0.878,4.3922725,-1.8452477,16.351078,1.5468673,-2.5477824,-3.1199698
0.88,4.1777987,-2.3119617,16.411362,1.4647784,-2.3376076,-3.0535192
0.882,3.9688106,-2.7534904,16.44276,1.3838559,-2.1136284,-2.9775066
0.884,3.766293,-3.1682682,16.444609,1.3039749,-1.877225,-2.8925622
0.886,3.5713568,-3.5553272,16.41657,1.2249248,-1.6300005,-2.7995076
0.888,3.3851123,-3.913676,16.358696,1.1463907,-1.3737485,-2.6993186
0.89,3.2088037,-4.2425175,16.271578,1.0679333,-1.1103852,-2.593073
0.892,3.0437164,-4.541361,16.15582,0.9889776,-0.8419403,-2.4819055
0.894,2.8909135,-4.8098645,16.012726,0.908853,-0.5704604,-2.367002
0.896,2.7517734,-5.0480146,15.843607,0.8267884,-0.29792508,-2.2495885
0.898,2.6271539,-5.256112,15.649992,0.7419671,-0.026198685,-2.130927
0.9,2.5179768,-5.4345326,15.433662,0.6535373,0.24298137,-2.01232
0.902,2.425034,-5.5840416,15.196693,0.5606443,0.50799906,-1.895039
0.904,2.34874,-5.7054787,14.941202,0.46253556,0.76741254,-1.7803175
0.906,2.289538,-5.7999315,14.669607,0.35855854,1.0199529,-1.6693778
0.908,2.2478232,-5.8687944,14.384017,0.2482051,1.2644747,-1.5633638
0.91,2.2238255,-5.9136777,14.087027,0.13112342,1.500004,-1.4632307
0.912,2.217269,-5.9360437,13.78084,0.0071573257,1.72575,-1.3697355
0.914,2.2277236,-5.937422,13.467635,-0.12363297,1.9410832,-1.2834486
0.916,2.25477,-5.919615,13.14953,-0.26103058,2.145462,-1.2047634
0.918,2.2976363,-5.884348,12.8285,-0.404609,2.3384838,-1.1338899
0.92,2.3554714,-5.8333426,12.506475,-0.5537859,2.519865,-1.0708295
0.922,2.4274018,-5.7682066,12.185201,-0.7078614,2.6894462,-1.0154023
0.924,2.5123181,-5.690512,11.866204,-0.8660321,2.8472471,-0.9672669
0.926,2.60879,-5.601782,11.550937,-1.0274479,2.9934502,-0.9259851
0.928,2.715714,-5.503388,11.240409,-1.1912262,3.1284103,-0.8910745
0.93,2.832085,-5.3966193,10.935487,-1.3564596,3.252632,-0.8620471
0.932,2.9565628,-5.2824945,10.63694,-1.5222591,3.3668027,-0.83838457
0.934,3.0878327,-5.1620507,10.345112,-1.6877813,3.471741,-0.8195752
0.936,3.224829,-5.036332,10.060538,-1.852228,3.568331,-0.80511045
0.938,3.3663282,-4.905937,9.783176,-2.014899,3.6575239,-0.7945081
0.94,3.5111938,-4.771273,9.512898,-2.1751685,3.7402666,-0.78731847
0.942,3.6581936,-4.6326118,9.249208,-2.3325167,3.817461,-0.7831297
0.944,3.8064957,-4.489859,8.991442,-2.4865355,3.8899283,-0.78156865
0.946,3.955377,-4.3433256,8.738809,-2.63693,3.958385,-0.78229094
0.948,4.1040864,-4.192848,8.490275,-2.7835197,4.0234385,-0.7849809
0.95,4.2520576,-4.0383625,8.24493,-2.926236,4.0855465,-0.7893778
0.952,4.3988166,-3.879551,8.001673,-3.065112,4.1450124,-0.79525816
0.954,4.5439024,-3.7160873,7.7591367,-3.2002783,4.202016,-0.8024057
0.956,4.686801,-3.547553,7.5158906,-3.3319497,4.2566195,-0.81064916
0.958,4.827609,-3.3734944,7.2705154,-3.4604228,4.3087687,-0.81982267
0.96,4.966108,-3.193724,7.021476,-3.5860345,4.358329,-0.8297918
0.962,5.1023226,-3.007875,6.767637,-3.709178,4.4050746,-0.84044456
0.964,5.2360263,-2.8156116,6.50773,-3.8302863,4.448695,-0.8516898
0.966,5.367309,-2.6166399,6.2405486,-3.9497902,4.488861,-0.86345935
0.968,5.4964004,-2.410716,5.9652324,-4.06813,4.525217,-0.8757119
0.97,5.623341,-2.1976895,5.6810923,-4.1857376,4.5573363,-0.8884361
0.972,5.7482276,-1.9774055,5.387592,-4.3030763,4.58473,-0.9016373
0.974,5.871456,-1.7501601,5.0842924,-4.4206343,4.6068816,-0.9153359
0.976,5.993118,-1.5160389,4.7708144,-4.5389366,4.623201,-0.92956185
0.978,6.1132526,-1.2752132,4.4472995,-4.658552,4.633055,-0.9443443
0.98,6.2320347,-1.0281109,4.1140532,-4.780056,4.635829,-0.959708
0.982,6.3498936,-0.77517915,3.771657,-4.90405,4.6308846,-0.9756744
0.984,6.467024,-0.516943,3.4209359,-5.03112,4.6176424,-0.99224305
0.986,6.583535,-0.25400493,3.0628834,-5.1617923,4.5955954,-1.0094426
0.988,6.6997433,0.012872577,2.6988149,-5.2964854,4.5643625,-1.027312
0.99,6.8158135,0.28292117,2.3300366,-5.4355016,4.523722,-1.0459104
0.992,6.931864,0.55532014,1.9578192,-5.578968,4.473632,-1.0653143
0.994,7.0479884,0.8290068,1.5836701,-5.7268543,4.4142265,-1.0856218
0.996,7.1641464,1.103185,1.209367,-5.8789444,4.3458395,-1.1069441
0.998,7.280375,1.3769333,0.83659077,-6.0348682,4.2689724,-1.1293538
1,7.3967505,1.6493818,0.46717715,-6.1941185,4.184284,-1.1528981
1.002,7.5130196,1.919941,0.102967024,-6.3561068,4.0925784,-1.1775575
1.004,7.6293297,2.1878476,-0.25432873,-6.5201616,3.9948313,-1.2031622
1.006,7.7454767,2.4525614,-0.60316277,-6.685584,3.8921566,-1.2294295
1.008,7.8614783,2.7138295,-0.9420357,-6.8516703,3.785745,-1.255961
1.01,7.977276,2.9713657,-1.269733,-7.0177107,3.6768682,-1.2821982
1.012,8.09277,3.2249358,-1.5851657,-7.1830225,3.5668876,-1.3074782
1.014,8.208153,3.4744887,-1.8873651,-7.34698,3.4572043,-1.3310709
1.016,8.323266,3.7202125,-2.1757405,-7.5089827,3.3492072,-1.3522084
1.018,8.438033,3.962305,-2.4497945,-7.6684794,3.244272,-1.3701649
1.02,8.552502,4.201221,-2.7093637,-7.8249893,3.143708,-1.384232
1.022,8.666766,4.4373193,-2.9542537,-7.9780893,3.0487044,-1.3937786
1.024,8.78103,4.671146,-3.1844935,-8.1274395,2.9602764,-1.3982782
1.026,8.895253,4.9033146,-3.4004092,-8.272758,2.879196,-1.3973293
1.028,9.009669,5.1344414,-3.6022215,-8.413865,2.805954,-1.390707
1.03,9.124338,5.365175,-3.7903504,-8.550662,2.7407835,-1.3783734
1.032,9.23935,5.5960894,-3.965216,-8.683128,2.683615,-1.3604996
1.034,9.354808,5.8278747,-4.12728,-8.811308,2.634142,-1.3374727
1.036,9.470926,6.0610337,-4.2770777,-8.935263,2.591894,-1.3098588
1.038,9.58778,6.295942,-4.4150763,-9.054999,2.5562887,-1.2783742
1.04,9.705528,6.532987,-4.5417304,-9.170486,2.5267158,-1.243825
1.042,9.824043,6.772497,-4.657683,-9.281584,2.5026016,-1.2070277
1.044,9.943479,7.014694,-4.7633553,-9.3880205,2.4834442,-1.1687505
1.046,10.063953,7.25974,-4.8593206,-9.489422,2.4688816,-1.129658
1.048,10.185418,7.5076914,-4.9460473,-9.585323,2.4586697,-1.0902457
1.05,10.3078,7.7585626,-5.0242705,-9.675241,2.4526823,-1.0508304
1.052,10.431245,8.012291,-5.094713,-9.758692,2.4509163,-1.0115585
1.054,10.555536,8.268917,-5.158048,-9.835246,2.4534144,-0.97242045
1.056,10.680564,8.528587,-5.2149825,-9.904549,2.4602964,-0.933316
1.058,10.8063755,8.791102,-5.2661843,-9.966338,2.4716504,-0.89409304
1.06,10.932714,9.056597,-5.312354,-10.020469,2.4875786,-0.8545718
1.062,11.059424,9.325083,-5.353915,-10.0668745,2.508165,-0.8145189
1.064,11.186504,9.596605,-5.3913784,-10.105575,2.5334377,-0.773716
1.066,11.313808,9.871148,-5.4251485,-10.136584,2.5633273,-0.7319379
1.068,11.441037,10.14846,-5.4555407,-10.159945,2.5976725,-0.6889503
1.07,11.568317,10.428522,-5.48287,-10.175668,2.6362462,-0.64451313
1.072,11.695429,10.711078,-5.5075426,-10.183756,2.6787148,-0.59841585
1.074,11.822392,10.995577,-5.529668,-10.184135,2.7247033,-0.55050254
1.076,11.948963,11.281609,-5.5494184,-10.176708,2.7738447,-0.5007262
1.078,12.075064,11.568559,-5.5670414,-10.161297,2.8258312,-0.44916248
1.08,12.200657,11.855728,-5.582796,-10.137669,2.880448,-0.39603305
1.082,12.325731,12.142357,-5.5969076,-10.105539,2.9375985,-0.34168887
1.084,12.450026,12.42753,-5.609547,-10.064569,2.9973118,-0.28658414
1.086,12.573682,12.710189,-5.6209583,-10.014418,3.0597749,-0.23124182
1.088,12.696709,12.989189,-5.6316175,-9.95472,3.1253216,-0.17621052
1.09,12.818863,13.263454,-5.641958,-9.88521,3.194383,-0.12203431
1.092,12.940073,13.531804,-5.6525846,-9.805677,3.267492,-0.06917882
1.094,13.060127,13.792976,-5.664067,-9.716024,3.3452373,-0.018024087
1.096,13.1790085,14.045895,-5.6772013,-9.616285,3.4281769,0.031157374
1.098,13.296299,14.2895775,-5.6926165,-9.506623,3.5168188,0.07823479
1.1,13.411673,14.523237,-5.7109585,-9.387334,3.6115386,0.12321687
1.102,13.524973,14.746073,-5.732917,-9.258816,3.7125685,0.16622603
1.104,13.635883,14.957228,-5.759211,-9.121571,3.8199477,0.20747626
1.106,13.744076,15.15616,-5.7906647,-8.976149,3.9335275,0.24723953
1.108,13.849009,15.342344,-5.8280096,-8.82317,4.0529757,0.28578836
1.11,13.950034,15.515278,-5.871893,-8.663263,4.1777697,0.3233562
1.112,14.046603,15.674421,-5.9227643,-8.497053,4.307251,0.36009723
1.114,14.137978,15.819679,-5.9809303,-8.325148,4.440663,0.39606375
1.116,14.223649,15.950756,-6.0464964,-8.148096,4.577179,0.43121082
1.118,14.302919,16.067476,-6.11942,-7.9664545,4.715955,0.46535283
1.12,14.375185,16.169891,-6.199496,-7.7807193,4.85613,0.49826813
1.122,14.4397,16.258034,-6.2862735,-7.591374,4.996864,0.52968717
1.124,14.495866,16.332088,-6.379193,-7.3988776,5.1373096,0.5593378
1.126,14.543192,16.392157,-6.4775453,-7.2036953,5.2766595,0.5869936
1.128,14.581205,16.438559,-6.5804114,-7.0063233,5.4141154,0.6125046
1.13,14.609623,16.471409,-6.68691,-6.8072653,5.5489097,0.63582647
1.132,14.628158,16.491007,-6.7959824,-6.6070447,5.6803446,0.65702647
1.134,14.636662,16.49768,-6.9066305,-6.4062157,5.807747,0.6762781
1.136,14.635099,16.491802,-7.0177884,-6.2053585,5.930544,0.693819
1.138,14.62376,16.473679,-7.128479,-6.005034,6.0482535,0.7099341
1.14,14.602824,16.443733,-7.2378225,-5.805813,6.16047,0.7249451
1.142,14.572581,16.402493,-7.344928,-5.6082263,6.2668896,0.7391845
1.144,14.53376,16.350443,-7.448924,-5.4127483,6.367323,0.7529595
1.146,14.487008,16.287981,-7.5491266,-5.2198057,6.461663,0.7665213
1.148,14.432915,16.21578,-7.644883,-5.029728,6.5499,0.78007543
1.15,14.372511,16.134287,-7.735649,-4.8427744,6.632118,0.7937578
1.152,14.306721,16.044046,-7.8210998,-4.659132,6.708469,0.80762136
1.154,14.236521,15.94557,-7.900731,-4.4788866,6.779171,0.8216437
1.156,14.162966,15.839067,-7.9742813,-4.302062,6.8444967,0.8357456
1.158,14.087256,15.725103,-8.041542,-4.1286316,6.904764,0.8497828
1.16,14.010522,15.6039295,-8.102415,-3.9585047,6.960333,0.8635888
1.162,13.933876,15.475871,-8.156709,-3.791556,7.0115967,0.877002
1.164,13.858454,15.341071,-8.204428,-3.627634,7.0589566,0.8898696
1.166,13.785267,15.199776,-8.245626,-3.4666023,7.1028323,0.9020244
1.168,13.715278,15.052118,-8.280351,-3.3083057,7.1436176,0.913313
1.17,13.649578,14.898192,-8.30871,-3.1526034,7.18168,0.92359173
1.172,13.589081,14.737996,-8.330986,-2.9993672,7.2173524,0.9327382
1.174,13.53447,14.571753,-8.347412,-2.8484874,7.2509413,0.94060135
1.176,13.486476,14.399557,-8.358133,-2.6998696,7.282707,0.9470315
1.178,13.445985,14.221661,-8.363408,-2.5534472,7.312886,0.95188046
1.18,13.41325,14.038275,-8.363337,-2.4091594,7.3416405,0.9549969
1.182,13.388748,13.849672,-8.358002,-2.2669759,7.369105,0.9562581
1.184,13.372876,13.656213,-8.347706,-2.1269007,7.395331,0.9555659
1.186,13.365921,13.458243,-8.332615,-1.9889683,7.4203153,0.9528534
1.188,13.367977,13.256093,-8.312719,-1.8532386,7.4440074,0.9481296
1.19,13.379154,13.050123,-8.288202,-1.7198043,7.4662414,0.9414476
1.192,13.399418,12.840828,-8.25918,-1.5888153,7.4867797,0.9329327
1.194,13.428609,12.628688,-8.225796,-1.4604445,7.5053244,0.92272294
1.196,13.466484,12.414135,-8.188194,-1.3349197,7.521504,0.9109839
1.198,13.512747,12.197727,-8.146521,-1.2124892,7.53492,0.89790124
1.2,13.566956,11.979896,-8.101097,-1.0934405,7.545162,0.88362575
1.202,13.6286335,11.761145,-8.051954,-0.9780537,7.5518374,0.86826146
1.204,13.697251,11.541982,-7.999354,-0.8665837,7.55461,0.8518605
1.206,13.772169,11.322937,-7.94341,-0.7592596,7.553201,0.8344084
1.208,13.852797,11.104369,-7.884289,-0.65623987,7.5474463,0.8158339
1.21,13.938509,10.886628,-7.8223095,-0.5576261,7.537272,0.7960331
1.212,14.028587,10.670056,-7.757504,-0.46342385,7.522707,0.7748815
1.214,14.1223755,10.455136,-7.6901193,-0.37355804,7.503867,0.7522421
1.216,14.219115,10.241984,-7.620399,-0.2878728,7.4809394,0.7279794
1.218,14.318262,10.030977,-7.5483685,-0.20613587,7.4541984,0.7020017
1.22,14.419008,9.822348,-7.474398,-0.12806296,7.4239464,0.67427206
1.222,14.520826,9.616322,-7.398597,-0.053339362,7.3905168,0.64477384
1.224,14.623106,9.412927,-7.321225,0.018366456,7.354243,0.613544
1.226,14.725063,9.212323,-7.24236,0.08738792,7.315465,0.5806626
1.228,14.82626,9.01461,-7.162267,0.15404153,7.2745047,0.54623497
1.23,14.926128,8.819686,-7.081057,0.2186048,7.231642,0.51037717
1.232,15.024249,8.62772,-6.998904,0.28131306,7.187139,0.4732077
1.234,15.120127,8.438528,-6.9160643,0.342363,7.1412177,0.43485093
1.236,15.213528,8.252069,-6.832616,0.40190756,7.0940647,0.39540982
1.238,15.304021,8.068395,-6.7487383,0.46005774,7.0458417,0.354975
1.24,15.391095,7.8873935,-6.6645575,0.51688564,6.996665,0.31365764
1.242,15.474598,7.7091174,-6.580226,0.5724244,6.946609,0.27151883
1.244,15.554419,7.5333,-6.4957447,0.6266881,6.8957534,0.22862923
1.246,15.630373,7.3599815,-6.4112244,0.67965984,6.8441267,0.18504155
1.248,15.702054,7.1891737,-6.3267226,0.7313168,6.79173,0.14080882
1.25,15.769558,7.0207705,-6.2422185,0.7816075,6.7385435,0.09596038
1.252,15.832846,6.8546667,-6.15776,0.830479,6.684543,0.05051005
1.254,15.891718,6.690947,-6.0734344,0.87786007,6.629709,0.0044959784
1.256,15.946314,6.5295644,-5.989148,0.9236739,6.5740438,-0.04204321
1.258,15.996626,6.370522,-5.904991,0.967839,6.517587,-0.08906329
1.26,16.042398,6.213976,-5.8209286,1.0102932,6.460417,-0.13648212
1.262,16.08394,6.059912,-5.7367587,1.0509807,6.4026594,-0.18420422
1.264,16.12115,5.90836,-5.652711,1.0898654,6.3444886,-0.23212135
1.266,16.154095,5.759679,-5.568655,1.1269207,6.2860985,-0.2800864
1.268,16.182777,5.6137085,-5.4846816,1.1621242,6.2277174,-0.3279425
1.27,16.20731,5.4707985,-5.4007807,1.1954906,6.1695933,-0.3755139
1.272,16.227642,5.331131,-5.317069,1.227032,6.111954,-0.42263997
1.274,16.243923,5.194916,-5.2337575,1.2567753,6.0550113,-0.46913862
1.276,16.256262,5.0624213,-5.150964,1.284735,5.9988976,-0.51483047
1.278,16.264606,4.9338756,-5.068822,1.3109066,5.943712,-0.55953443
1.28,16.26895,4.809635,-4.987639,1.3352666,5.8894663,-0.60308063
1.282,16.269484,4.6899133,-4.9076934,1.3577551,5.8360944,-0.64529
1.284,16.266226,4.574893,-4.829023,1.3782656,5.7834444,-0.68599975
1.286,16.25931,4.4647827,-4.75193,1.3966656,5.73127,-0.72505605
1.288,16.248493,4.3599296,-4.676572,1.4127786,5.6792545,-0.7623087
1.29,16.233978,4.2604756,-4.6031547,1.4263915,5.6269894,-0.7976299
1.292,16.215916,4.166501,-4.5318513,1.4372427,5.574016,-0.83092165
1.294,16.194323,4.078117,-4.4627066,1.4450703,5.5198455,-0.8621391
1.296,16.169117,3.9953933,-4.395749,1.4495928,5.46399,-0.89124936
1.298,16.14043,3.91838,-4.3309426,1.4505439,5.4060087,-0.9182788
1.3,16.108183,3.847013,-4.2680798,1.4477202,5.3455467,-0.9433022
1.302,16.072395,3.7810876,-4.2071238,1.440959,5.2823358,-0.9664513
1.304,16.03314,3.7204235,-4.147832,1.4301907,5.2162237,-0.9879143
1.306,15.990423,3.6646695,-4.089966,1.4154432,5.147185,-1.0079228
1.308,15.944286,3.6135082,-4.033017,1.3968707,5.0753427,-1.0267439
1.31,15.894804,3.5666225,-3.9767504,1.3747215,5.000918,-1.0446997
1.312,15.842008,3.523493,-3.920813,1.3493346,4.9242134,-1.0620819
1.314,15.78592,3.4835973,-3.864803,1.3211441,4.8455925,-1.079186
1.316,15.726447,3.4464712,-3.808202,1.2906255,4.7654796,-1.0962629
1.318,15.663803,3.4116242,-3.7506053,1.2582765,4.6843133,-1.1135192
1.32,15.59789,3.3784897,-3.691534,1.2245938,4.602549,-1.1311185
1.322,15.528788,3.3464782,-3.6305857,1.1900402,4.520631,-1.149159
1.324,15.456668,3.3149261,-3.5673459,1.1550156,4.4389896,-1.1676767
1.326,15.381751,3.2834551,-3.5015373,1.1198626,4.3580747,-1.1866503
1.328,15.304063,3.2514064,-3.4327564,1.0848755,4.2783055,-1.2060124
1.33,15.2238245,3.218405,-3.3607156,1.050276,4.2001157,-1.2256627
1.332,15.141206,3.1840963,-3.285293,1.0162535,4.123905,-1.2454761
1.334,15.056369,3.148203,-3.2063272,0.98293406,4.0500555,-1.2652782
1.336,14.969709,3.1104414,-3.1236641,0.9504106,3.9789042,-1.284841
1.338,14.881343,3.0706766,-3.0372736,0.91873354,3.9107866,-1.303926
1.34,14.79167,3.0289135,-2.9470892,0.8879286,3.846018,-1.3222493
1.342,14.700976,2.9850702,-2.8532586,0.85798377,3.7848845,-1.3395199
1.344,14.609476,2.939232,-2.7558122,0.82885206,3.727642,-1.3554134
1.346,14.517437,2.8915932,-2.6548676,0.8004824,3.6745212,-1.3696048
1.348,14.4253235,2.8422563,-2.5507095,0.77278745,3.6257083,-1.3817606
1.35,14.33334,2.791506,-2.4435067,0.74566185,3.5813646,-1.3915787
1.352,14.241826,2.739506,-2.333578,0.7190027,3.5415962,-1.3987644
1.354,14.151077,2.6865926,-2.2213044,0.69268495,3.5064547,-1.4030445
1.356,14.061363,2.6330507,-2.1069155,0.66660875,3.4759386,-1.404207
1.358,13.9728985,2.5790863,-1.9907767,0.6406835,3.4499803,-1.4021174
1.36,13.885935,2.5250027,-1.8732505,0.6148481,3.4284725,-1.3967274
1.362,13.8006735,2.470924,-1.7547637,0.5890896,3.411255,-1.388115
1.364,13.717241,2.4169831,-1.6355544,0.5634495,3.3981528,-1.3764179
1.366,13.635822,2.3634143,-1.5160545,0.5380242,3.388989,-1.3619188
1.368,13.556731,2.3102639,-1.3964349,0.51291925,3.3835742,-1.3449765
1.37,13.480004,2.2576725,-1.2771571,0.4883075,3.3817034,-1.3259978
1.372,13.4056,2.2056813,-1.1585257,0.46436268,3.383174,-1.3053988
1.374,13.333733,2.1543636,-1.0405989,0.44124573,3.3877797,-1.2835796
1.376,13.264437,2.1037471,-0.9237932,0.41910583,3.3952963,-1.2608693
1.378,13.197787,2.0539389,-0.8082486,0.39804912,3.4054902,-1.2375292
1.38,13.133636,2.004923,-0.6941517,0.37812927,3.4181147,-1.2137192
1.382,13.072227,1.9568114,-0.58165747,0.35934204,3.432913,-1.1894917
1.384,13.013339,1.9095832,-0.47072986,0.34163877,3.4495997,-1.1648073
1.386,12.956938,1.8633069,-0.361424,0.3249087,3.4678493,-1.1395597
1.388,12.903059,1.8180776,-0.25388032,0.30901062,3.4873304,-1.1136246
1.39,12.8516655,1.7739633,-0.1479989,0.29378667,3.5077105,-1.0868919
1.392,12.802529,1.7310648,-0.04363376,0.2790422,3.5286157,-1.0592406
1.394,12.755698,1.689577,0.059131324,0.26456183,3.5496874,-1.0306039
1.396,12.710967,1.6496016,0.16035348,0.250169,3.5705984,-1.0009562
1.398,12.668387,1.6111882,0.2600965,0.23570833,3.5910673,-0.9703498
1.4,12.627893,1.5744127,0.35845816,0.22103637,3.6108418,-0.93888104
1.402,12.589177,1.5394799,0.45558745,0.2060504,3.629746,-0.9067148
1.404,12.552159,1.5065339,0.5515892,0.19070816,3.6476507,-0.87402666
1.406,12.5168295,1.4754527,0.6466491,0.17499545,3.6644773,-0.84103113
1.408,12.483336,1.4462869,0.74056745,0.1589493,3.6802135,-0.80796796
1.41,12.451261,1.4191368,0.8336494,0.14264183,3.6949034,-0.7750447
1.412,12.420154,1.3941882,0.9262084,0.12617585,3.7086148,-0.7424469
1.414,12.390443,1.3711604,1.0181328,0.10963974,3.721423,-0.7103292
1.416,12.361914,1.3501105,1.1095407,0.093128875,3.7334347,-0.6788236
1.418,12.334537,1.3308394,1.2004611,0.07673423,3.744779,-0.6480351
1.42,12.308093,1.3132486,1.2910998,0.060528718,3.7555969,-0.6180288
1.422,12.282594,1.2971796,1.3813444,0.04456936,3.766046,-0.58883584
1.424,12.258002,1.2826865,1.4713343,0.028884187,3.7762985,-0.56046593
1.426,12.234275,1.2695864,1.5609367,0.013491586,3.7865393,-0.53290665
1.428,12.211282,1.2578363,1.6502017,-0.0015953779,3.7969532,-0.50611365
1.43,12.189098,1.2473484,1.7390288,-0.016382933,3.8077157,-0.48002237
1.432,12.1676855,1.2380886,1.8273971,-0.030875027,3.8189926,-0.4545461
1.434,12.1468115,1.2301962,1.9152002,-0.045072556,3.8309224,-0.42957348
1.436,12.1265955,1.2234771,2.002427,-0.05900888,3.8436136,-0.40496552
1.438,12.1070795,1.217958,2.0889177,-0.07269721,3.857132,-0.38054442
1.44,12.0882845,1.2136753,2.1745396,-0.0861284,3.8715496,-0.35616046
1.442,12.070183,1.2105727,2.2592587,-0.09929657,3.886975,-0.33167696
1.444,12.052859,1.2088001,2.3429494,-0.11221206,3.9034448,-0.30695271
1.446,12.036247,1.2083937,2.425459,-0.1248593,3.9209542,-0.2818594
1.448,12.020551,1.2093545,2.5067518,-0.13721079,3.9395015,-0.2563358
1.45,12.005566,1.2117846,2.586636,-0.14922309,3.9590938,-0.23035717
1.452,11.991463,1.2158184,2.665091,-0.16084957,3.9797523,-0.20394456
1.454,11.978434,1.221503,2.7421088,-0.17204583,4.0015173,-0.1771859
1.456,11.966308,1.2288415,2.8175209,-0.18277663,4.0244145,-0.15019095
1.458,11.955096,1.23801,2.8912914,-0.19303784,4.0484986,-0.123125196
1.46,11.944957,1.249201,2.9634647,-0.2028518,4.0738077,-0.09616542
1.462,11.935685,1.2623727,3.034004,-0.21227247,4.1003695,-0.06947303
1.464,11.927166,1.2776856,3.1029446,-0.22138202,4.128156,-0.043198586
1.466,11.919485,1.2951484,3.170227,-0.23027387,4.1571083,-0.01744175
1.468,11.9127,1.3148422,3.235907,-0.23901969,4.187117,0.0077329874
1.47,11.906644,1.336958,3.2999904,-0.24769437,4.2180223,0.032332182
1.472,11.901104,1.3616207,3.3626692,-0.25636464,4.2496185,0.056385517
1.474,11.896053,1.388804,3.4237766,-0.2650469,4.2816877,0.0799582
1.476,11.891423,1.418567,3.4835815,-0.27373773,4.314014,0.10313618
1.478,11.886965,1.4508989,3.54202,-0.28243536,4.346384,0.12599969
1.48,11.882801,1.4857168,3.5992672,-0.29113036,4.378613,0.14861715
1.482,11.87864,1.5231392,3.6554265,-0.29982793,4.4105525,0.17104197
1.484,11.874349,1.5630802,3.7104492,-0.30855256,4.442083,0.19329393
1.486,11.869819,1.6054897,3.7645714,-0.31734037,4.473114,0.21536839
1.488,11.864893,1.6503265,3.8178263,-0.32623953,4.5035925,0.23723686
1.49,11.859536,1.6974409,3.8702593,-0.3353032,4.53349,0.25885117
1.492,11.853533,1.7466295,3.9219704,-0.3445847,4.5628,0.28014576
1.494,11.846912,1.7978718,3.9728575,-0.35414135,4.591505,0.3010937
1.496,11.839518,1.8510021,4.02298,-0.36397994,4.6195717,0.32165504
1.498,11.831254,1.9059244,4.0723743,-0.37408674,4.647047,0.3417791
1.5,11.822008,1.9623652,4.1209564,-0.38442928,4.674013,0.36139715
1.502,11.811738,2.020131,4.1686683,-0.3949746,4.700504,0.3804859
1.504,11.800346,2.078944,4.2153244,-0.40568906,4.7265396,0.39901674
1.506,11.787818,2.1386724,4.2608724,-0.41652822,4.752116,0.41697693
1.508,11.774108,2.1990356,4.30523,-0.42745066,4.7772202,0.43436885
1.51,11.759059,2.2598333,4.3481493,-0.43843985,4.8018346,0.4511794
1.512,11.742782,2.3208916,4.3894677,-0.4495014,4.825863,0.4674263
1.514,11.725134,2.38193,4.428906,-0.4606738,4.8492055,0.4831164
1.516,11.70606,2.4428859,4.466314,-0.47200465,4.8717422,0.4982475
1.518,11.685335,2.503438,4.501609,-0.4835708,4.893335,0.5128206
1.52,11.663251,2.5633898,4.5343995,-0.4954691,4.913824,0.5268239
1.522,11.639867,2.6225703,4.56438,-0.5077995,4.933052,0.54024553
1.524,11.614705,2.6810172,4.5916166,-0.52066576,4.9508476,0.55306387
1.526,11.587805,2.7386537,4.615815,-0.5341724,4.967031,0.56527555
1.528,11.55909,2.795361,4.6368065,-0.54842854,4.981406,0.5768738
1.53,11.528662,2.8510327,4.654454,-0.5635307,4.993788,0.5878743
1.532,11.496408,2.9057145,4.668802,-0.57958305,5.0039773,0.5983082
1.534,11.4622755,2.959295,4.679563,-0.5966892,5.011769,0.60820556
1.536,11.426343,3.011829,4.686823,-0.61495304,5.016945,0.61762035
1.538,11.388552,3.0632355,4.6904616,-0.6344693,5.0193167,0.62661636
1.54,11.348777,3.1137474,4.690523,-0.65533996,5.0186687,0.63524175
1.542,11.307004,3.1633825,4.6870766,-0.6776545,5.0148163,0.64353776
1.544,11.263377,3.2121787,4.6802006,-0.7014775,5.0076056,0.651533
1.546,11.217582,3.2602708,4.669999,-0.7268646,4.9969025,0.659248
1.548,11.169704,3.3077679,4.656532,-0.75385714,4.98258,0.66667426
1.55,11.119822,3.3547182,4.6399784,-0.7824817,4.964556,0.6738174
1.552,11.067819,3.4013228,4.6204586,-0.81273174,4.9427757,0.6806618
1.554,11.013702,3.447604,4.5982237,-0.84459376,4.9172034,0.6871989
1.556,10.957473,3.4936626,4.5733514,-0.87803304,4.8878407,0.6934118
1.558,10.899097,3.5395908,4.546154,-0.9130081,4.8547153,0.6992899
1.56,10.83882,3.5854397,4.51682,-0.9494673,4.8178997,0.7048198
1.562,10.776441,3.63132,4.485494,-0.98734915,4.7774725,0.7100167
1.564,10.712188,3.6772757,4.452358,-1.0265855,4.7335443,0.71490604
1.566,10.646177,3.7233596,4.4176574,-1.0671009,4.6862698,0.71949166
1.568,10.5784855,3.7694445,4.381705,-1.1088109,4.6358123,0.72380435
1.57,10.509292,3.8154392,4.344536,-1.1516337,4.5823383,0.7278785
1.572,10.438731,3.8615117,4.306347,-1.1954852,4.526048,0.7317409
1.574,10.3668995,3.9075086,4.267288,-1.2402747,4.4671345,0.73540926
1.576,10.293943,3.953458,4.2276287,-1.2859157,4.4058056,0.7389025
1.578,10.22006,3.9992251,4.187532,-1.3323153,4.3422575,0.74222636
1.58,10.145324,4.044589,4.1472025,-1.3793707,4.2766795,0.74538994
1.582,10.069913,4.0896373,4.1066885,-1.426998,4.2092524,0.7484009
1.584,9.994013,4.134247,4.0663095,-1.4750998,4.1401067,0.75125426
1.586,9.917679,4.1782618,4.0261397,-1.52359,4.069386,0.7539704
1.588,9.841125,4.221587,3.986444,-1.5723823,3.9972024,0.7565818
1.59,9.764528,4.2642217,3.9473808,-1.6213937,3.923675,0.7591257
1.592,9.688018,4.305958,3.9091535,-1.6705464,3.8488886,0.76164544
1.594,9.611827,4.346651,3.8719523,-1.7197542,3.772964,0.76421833
1.596,9.535994,4.386228,3.8358734,-1.768942,3.696051,0.7669249
1.598,9.460684,4.4245586,3.8011255,-1.818011,3.618315,0.7698477
1.6,9.385986,4.4615645,3.7679224,-1.8668655,3.5399837,0.7730543
1.602,9.312215,4.4971304,3.736244,-1.9153876,3.4613295,0.7765979
1.604,9.239391,4.53114,3.7062914,-1.9634442,3.3826623,0.7805216
1.606,9.167721,4.5634856,3.678094,-2.0108936,3.3043213,0.7848441
1.608,9.097412,4.5940013,3.6516328,-2.057573,3.2266705,0.78957427
1.61,9.028481,4.6227345,3.6270156,-2.1033323,3.1500785,0.7946969
1.612,8.961035,4.649639,3.604084,-2.148008,3.0748863,0.8001928
1.614,8.895335,4.6745176,3.5828629,-2.191439,3.001385,0.80606246
1.616,8.831255,4.6974616,3.563231,-2.2334826,2.9298382,0.81228673
1.618,8.769002,4.7184114,3.5450099,-2.2740116,2.8604188,0.8188745
1.62,8.708649,4.737261,3.5280924,-2.3129253,2.7932491,0.82586414
1.622,8.650071,4.7540417,3.5122614,-2.3501456,2.72839,0.8332966
1.624,8.593361,4.768816,3.4973235,-2.3856134,2.66586,0.84122854
1.626,8.538671,4.781562,3.48299,-2.419294,2.6056302,0.8497135
1.628,8.485712,4.792422,3.469128,-2.451178,2.5476415,0.85880834
1.63,8.4345,4.801402,3.4554114,-2.4812655,2.4918344,0.8685764
1.632,8.384957,4.808586,3.4416509,-2.5095816,2.4381409,0.8790448
1.634,8.336786,4.814177,3.427525,-2.5361583,2.386499,0.8902345
1.636,8.289898,4.818204,3.4129105,-2.561019,2.336859,0.90215206
1.638,8.244245,4.8208647,3.397438,-2.5841856,2.2891893,0.91480935
1.64,8.199481,4.8222733,3.3809137,-2.6056843,2.2434483,0.92818445
1.642,8.155518,4.822608,3.3630252,-2.6255274,2.1996229,0.9422589
1.644,8.112149,4.8220077,3.3437378,-2.6437223,2.1576793,0.9570114
1.646,8.069086,4.820679,3.322719,-2.660263,2.1176105,0.97242516
1.648,8.026133,4.8187156,3.2998118,-2.6751497,2.0793772,0.9884689
1.65,7.9832387,4.8161798,3.2749424,-2.6883845,2.0429235,1.0051122
1.652,7.940145,4.8134003,3.2477899,-2.699972,2.0081885,1.0223237
1.654,7.8966265,4.8103194,3.2182734,-2.7099175,1.9750917,1.0400785
1.656,7.8526444,4.807121,3.186214,-2.7182539,1.9435221,1.0583379
1.658,7.8079433,4.8038282,3.151422,-2.7250252,1.9133658,1.077068
1.66,7.7624016,4.800577,3.1138515,-2.7302907,1.8844945,1.0962245
1.662,7.71591,4.797331,3.0733569,-2.7341175,1.8567572,1.1157663
1.664,7.6683235,4.7941284,3.0297232,-2.7365885,1.8299882,1.1356624
1.666,7.619705,4.7911205,2.983006,-2.7377975,1.8040301,1.1558695
1.668,7.569811,4.7881956,2.9330277,-2.7378433,1.7787173,1.1763461
1.67,7.518605,4.785399,2.879726,-2.736817,1.7538725,1.1970637
1.672,7.4660926,4.7825975,2.823103,-2.7348228,1.7293297,1.2179998
1.674,7.4119945,4.779927,2.763148,-2.7319436,1.7049179,1.2391356
1.676,7.356386,4.7772818,2.6999063,-2.728268,1.6804645,1.2604598
1.678,7.299322,4.7746015,2.6334815,-2.723879,1.6557939,1.2819604
1.68,7.2407036,4.7718368,2.5639713,-2.7188394,1.6307281,1.3036239
1.682,7.1805835,4.7687593,2.4915934,-2.7132242,1.6050947,1.325431
1.684,7.119012,4.765315,2.4164748,-2.7070918,1.5787182,1.3473413
1.686,7.055937,4.761322,2.338704,-2.700484,1.5514385,1.3693097
1.688,6.991294,4.7567024,2.2584484,-2.6934547,1.5231066,1.3912597
1.69,6.925146,4.7512784,2.1758952,-2.6860473,1.4935628,1.413097
1.692,6.8575153,4.7448554,2.0912843,-2.6782987,1.4626973,1.4347091
1.694,6.7883444,4.7374067,2.0047064,-2.6702313,1.4304141,1.4559892
1.696,6.717712,4.7287354,1.9163905,-2.661855,1.3966401,1.4768269
1.698,6.6455336,4.7187424,1.8265224,-2.6531773,1.3613394,1.497122
1.7,6.571828,4.7072153,1.7352555,-2.6441896,1.3245025,1.5168114
1.702,6.496819,4.6941376,1.6427727,-2.6348577,1.2861502,1.5358747
1.704,6.4203606,4.679433,1.5492789,-2.6251447,1.2463118,1.5543426
1.706,6.3425636,4.662915,1.4548641,-2.6150188,1.2050409,1.5722998
1.708,6.263423,4.6447253,1.3596182,-2.604433,1.1623945,1.5898564
1.71,6.183197,4.624739,1.2635553,-2.5933561,1.1184198,1.6071631
1.712,6.101614,4.602962,1.1668478,-2.5817752,1.0731242,1.6243494
1.714,6.0187616,4.5795493,1.0694361,-2.5696983,1.0265274,1.6415815
1.716,5.934792,4.5544453,0.97134125,-2.5571556,0.97862315,1.6589669
1.718,5.8496323,4.5278697,0.87250865,-2.5441751,0.9293955,1.676583
1.72,5.76336,4.4998884,0.77290523,-2.5308137,0.8787886,1.6944809
1.722,5.6759615,4.4706454,0.67247355,-2.5171475,0.826725,1.7126486
1.724,5.587288,4.4403625,0.5710802,-2.5032678,0.77309203,1.7310363
1.726,5.497463,4.409169,0.46857893,-2.489287,0.7177195,1.7495492
1.728,5.4063396,4.377281,0.36468017,-2.4753199,0.66039824,1.7680804
1.73,5.313777,4.3450427,0.25914133,-2.4614966,0.6008737,1.7865057
1.732,5.2196083,4.312582,0.15176082,-2.4479535,0.5388709,1.8047177
1.734,5.1234293,4.280224,0.042416453,-2.43483,0.4740846,1.8226187
1.736,5.0248947,4.2482576,-0.0690949,-2.4222555,0.40621537,1.8401467
1.738,4.9238815,4.2168684,-0.18294966,-2.4103575,0.33498394,1.8572489
1.74,4.8198156,4.186389,-0.2992909,-2.3992333,0.26014274,1.8739097
1.742,4.7123613,4.157048,-0.4182768,-2.3889568,0.18149745,1.8901203
1.744,4.6007595,4.1292944,-0.5399605,-2.3795793,0.09891564,1.9058739
1.746,4.484539,4.103297,-0.66449904,-2.371122,0.01229322,1.9211644
1.748,4.3629546,4.0794387,-0.79191446,-2.363584,-0.0784294,1.9359728
1.75,4.235254,4.0580034,-0.92209136,-2.3569489,-0.17326581,1.9502687
1.752,4.1005054,4.03937,-1.0551263,-2.351193,-0.27221638,1.9640154
1.754,3.9579763,4.0238423,-1.1909289,-2.346264,-0.3752843,1.9771829
1.756,3.8066044,4.0117817,-1.3293283,-2.3421233,-0.48244375,1.989753
1.758,3.6451917,4.003732,-1.4702392,-2.3387318,-0.5936787,2.0017407
1.76,3.472642,4.0001183,-1.6133376,-2.3360584,-0.7090009,2.0131824
1.762,3.2878084,4.001129,-1.7583311,-2.3340752,-0.828436,2.0241642
1.764,3.0898309,4.007398,-1.9050037,-2.3327699,-0.95204115,2.0347986
1.766,2.8777509,4.0191665,-2.0526242,-2.332177,-1.0798771,2.045246
1.768,2.6507382,4.0369563,-2.200918,-2.3323793,-1.2120726,2.0556936
1.77,2.4081547,4.061015,-2.3496413,-2.333522,-1.3488009,2.0663538
1.772,2.1492343,4.0918107,-2.4982173,-2.335785,-1.490283,2.077439
1.774,1.8744166,4.1294913,-2.6468341,-2.3393793,-1.6367604,2.089159
1.776,1.5812864,4.174891,-2.794725,-2.344531,-1.7884787,2.1017337
1.778,1.2695202,4.2288027,-2.9409761,-2.3514576,-1.9456732,2.1153896
1.78,0.9399703,4.291088,-3.0842514,-2.360341,-2.1085162,2.1303315
1.782,0.59334034,4.361345,-3.2231612,-2.3713396,-2.2770746,2.1467383
1.784,0.23272781,4.4393916,-3.357506,-2.3845341,-2.451307,2.164759
1.786,-0.14199652,4.5264454,-3.4855669,-2.3999405,-2.631047,2.1844852
1.788,-0.5304938,4.6231933,-3.6083984,-2.4174917,-2.8159828,2.2059836
1.79,-0.9301432,4.7310185,-3.7261052,-2.437042,-3.00565,2.2292767
1.792,-1.3394468,4.851509,-3.8360198,-2.458357,-3.1994426,2.2544003
1.794,-1.7558153,4.9853454,-3.9361885,-2.4811447,-3.396657,2.2813601
1.796,-2.1755636,5.1322227,-4.0258417,-2.5050519,-3.596495,2.3101864
1.798,-2.595366,5.2915854,-4.104224,-2.5296485,-3.7980132,2.3409557
1.8,-3.0118203,5.4628596,-4.1704383,-2.5544066,-4.0001593,2.3738208
1.802,-3.421547,5.6457343,-4.2235794,-2.5787382,-4.201706,2.4090273
1.804,-3.8206205,5.840137,-4.262414,-2.6019723,-4.401373,2.4469366
1.806,-4.2047224,6.046191,-4.2858996,-2.623394,-4.5977044,2.4879503
1.808,-4.5697083,6.264132,-4.29276,-2.6423774,-4.789158,2.5324435
1.81,-4.911982,6.494295,-4.2820015,-2.658423,-4.9744053,2.5807848
1.812,-5.2278404,6.7366304,-4.252748,-2.6712708,-5.1520867,2.633256
1.814,-5.513878,6.9907274,-4.204006,-2.6807623,-5.320942,2.6903186
1.816,-5.767374,7.256319,-4.134662,-2.6866875,-5.47984,2.7524529
1.818,-5.986345,7.5326924,-4.0431886,-2.6891804,-5.6276984,2.8194604
1.82,-6.169064,7.818835,-3.928369,-2.6885548,-5.7643948,2.8908143
1.822,-6.3139453,8.11321,-3.7893202,-2.685318,-5.8903103,2.9653778
1.824,-6.420368,8.41359,-3.62507,-2.680277,-6.005984,3.0411224
1.826,-6.4884505,8.717406,-3.4347556,-2.674438,-6.112284,3.1151993
1.828,-6.5188293,9.021399,-3.217786,-2.6688151,-6.2101994,3.1840453
1.83,-6.5125523,9.321664,-2.9738476,-2.6641603,-6.3003826,3.2434516
1.832,-6.471184,9.613738,-2.702847,-2.660787,-6.3828206,3.2885985
1.834,-6.396668,9.892621,-2.4050128,-2.658463,-6.4566827,3.3141208
1.836,-6.291398,10.152843,-2.0809932,-2.6563172,-6.5202155,3.3141918
1.838,-6.158067,10.388634,-1.731678,-2.6528137,-6.570722,3.2827516
1.84,-5.9995923,10.594132,-1.3585877,-2.6458354,-6.6048455,3.2138422
1.842,-5.818878,10.763556,-0.9637928,-2.6328838,-6.618929,3.1021504
1.844,-5.6187243,10.891314,-0.54985905,-2.6112652,-6.6095014,2.9437013
1.846,-5.4021034,10.972347,-0.119707584,-2.578309,-6.573696,2.7365627
1.848,-5.171661,11.002303,0.32314444,-2.531616,-6.5095787,2.4814172
1.85,-4.929776,10.977473,0.7750969,-2.4692893,-6.416442,2.1817973
1.852,-4.678836,10.895334,1.2319036,-2.3901694,-6.2950077,1.8440928
1.854,-4.420799,10.754387,1.6893091,-2.2939537,-6.1473346,1.4772372
1.856,-4.1575913,10.554776,2.1431022,-2.181206,-5.9765854,1.0920107
1.858,-3.890932,10.297737,2.5890265,-2.0533676,-5.786708,0.700111
1.86,-3.6218646,9.985932,3.0227878,-1.9126577,-5.582161,0.31320247
1.862,-3.3515656,9.623388,3.4405127,-1.7618659,-5.367537,-0.05803162
1.864,-3.0809512,9.215273,3.8384845,-1.6041586,-5.1470942,-0.4046505
1.866,-2.810565,8.767812,4.2133827,-1.442842,-4.9248586,-0.71986157
1.868,-2.5408175,8.2881975,4.5623074,-1.2812076,-4.7042866,-0.9993252
1.87,-2.2723281,7.784237,4.8826084,-1.1222813,-4.4881535,-1.2407539
1.872,-2.0053596,7.264129,5.172357,-0.96825147,-4.278579,-1.4431366
1.874,-1.7404209,6.736043,5.430093,-0.8205373,-4.076399,-1.6069815
1.876,-1.4777458,6.2083435,5.65448,-0.6797641,-3.8819723,-1.7337141
1.878,-1.2175251,5.68856,5.845295,-0.5457592,-3.6953864,-1.8252547
1.88,-0.9601884,5.1840377,6.002431,-0.4177835,-3.5162168,-1.8840785
1.882,-0.7054918,4.7009954,6.126241,-0.29483175,-3.3437467,-1.9131998
1.884,-0.45428967,4.2450504,6.21796,-0.17590451,-3.1772368,-1.9160712
1.886,-0.20468283,3.820118,6.2781363,-0.06014192,-3.016005,-1.8964702
1.888,0.04296732,3.4292707,6.3077636,0.05311048,-2.859415,-1.8584054
1.89,0.28741312,3.075368,6.30805,0.164217,-2.7069323,-1.8060381
1.892,0.5284133,2.7601848,6.280562,0.27318794,-2.5582118,-1.743597
1.894,0.7643261,2.4837751,6.2281914,0.37978658,-2.4130626,-1.6752622
1.896,0.99684215,2.2442741,6.1524887,0.4836142,-2.2714438,-1.605073
1.898,1.2268417,2.0399942,6.0576115,0.5841856,-2.1334639,-1.5367869
1.9,1.4534657,1.8679521,5.9462686,0.6810333,-1.9993937,-1.4737117
1.902,1.6771386,1.7251934,5.8186936,0.77384615,-1.8696582,-1.4184667
1.904,1.8972946,1.6093307,5.6767983,0.86250734,-1.744799,-1.3727684
1.906,2.1129575,1.5184609,5.5237265,0.94717103,-1.625377,-1.3374588
1.908,2.3238494,1.4503129,5.3624945,1.0282066,-1.5119746,-1.3125241
1.91,2.5298786,1.4021397,5.1956906,1.1061399,-1.4051659,-1.297205
1.912,2.730834,1.3708323,5.0258007,1.1815779,-1.3054357,-1.2901417
1.914,2.9263477,1.353062,4.855039,1.2551421,-1.2131374,-1.2895925
1.916,3.1152987,1.3458145,4.6856785,1.3273525,-1.1284359,-1.2936612
1.918,3.297391,1.3461999,4.5196548,1.3986044,-1.0512784,-1.3005102
1.92,3.4723907,1.3518285,4.3591166,1.4691116,-0.981383,-1.3085511
1.922,3.6397915,1.3609817,4.205998,1.5388651,-0.91828585,-1.3165104
1.924,3.7992883,1.3725073,4.0619464,1.6077,-0.86133647,-1.3235123
1.926,3.9508572,1.3852162,3.9281516,1.6753492,-0.80972767,-1.3290453
1.928,4.094591,1.3983133,3.8053226,1.7414614,-0.7625492,-1.3329043
1.93,4.2302127,1.411448,3.694305,1.8057113,-0.71883655,-1.3351327
1.932,4.3573256,1.4245416,3.5958781,1.8678256,-0.67762655,-1.3359414
1.934,4.4759827,1.4376462,3.5103803,1.9276328,-0.6379763,-1.3356082
1.936,4.586142,1.4509934,3.4378886,1.9850936,-0.59898925,-1.33442
1.938,4.6881375,1.4648447,3.3783226,2.0402865,-0.5598521,-1.3326242
1.94,4.782085,1.4795527,3.3314087,2.0934045,-0.51983774,-1.330416
1.942,4.868061,1.4956375,3.2966766,2.1447139,-0.47833204,-1.3279455
1.944,4.9463162,1.5134785,3.2733116,2.194524,-0.43482387,-1.3253105
1.946,5.017234,1.5334135,3.2605817,2.2431407,-0.38891724,-1.3225901
1.948,5.081302,1.5558486,3.2575421,2.2908235,-0.34032032,-1.3198676
1.95,5.1391387,1.5810657,3.263214,2.3377519,-0.28887853,-1.3172272
1.952,5.1912794,1.6091216,3.2765737,2.384013,-0.23458925,-1.3147875
1.954,5.23819,1.6402442,3.2965903,2.429597,-0.17756835,-1.3126627
1.956,5.2803984,1.6744701,3.3222222,2.4744008,-0.118073106,-1.3110013
1.958,5.318222,1.7119248,3.3525412,2.5182462,-0.05649191,-1.3099437
1.96,5.3523045,1.7525604,3.3864698,2.5608993,0.0066713095,-1.3096014
1.962,5.383086,1.7963661,3.4231262,2.6020935,0.07081461,-1.3100816
1.964,5.411233,1.8431562,3.4616952,2.6415606,0.13524657,-1.3114649
1.966,5.437243,1.8927147,3.5012708,2.6790614,0.1992293,-1.3138006
1.968,5.461645,1.9447145,3.5410628,2.7143838,0.2619955,-1.317121
1.97,5.4847183,1.9988104,3.580427,2.7473965,0.32279062,-1.3214388
1.972,5.506822,2.05454,3.618872,2.778013,0.38087308,-1.3267653
1.974,5.528253,2.111475,3.6560245,2.806236,0.43556422,-1.3331046
1.976,5.5490894,2.1691809,3.6914992,2.8321369,0.48627585,-1.3404661
1.978,5.5696845,2.2269855,3.7253056,2.8558507,0.5325018,-1.3488377
1.98,5.590118,2.2844617,3.7574213,2.8775544,0.573858,-1.3582004
1.982,5.6104426,2.3411698,3.7878969,2.8974621,0.6100957,-1.3685136
1.984,5.6307464,2.3967083,3.8169394,2.9158034,0.64110965,-1.3796902
1.986,5.6510344,2.4506304,3.8447747,2.9328246,0.6669233,-1.3916173
1.988,5.67118,2.5027072,3.871619,2.9487295,0.6877039,-1.4041497
1.99,5.6913056,2.5525327,3.8978748,2.9637184,0.7037479,-1.4171122
1.992,5.711137,2.5999653,3.9237056,2.9779487,0.7154586,-1.4302925
1.994,5.730888,2.6447568,3.9494433,2.991525,0.72332555,-1.4434723
1.996,5.750106,2.6867511,3.975287,3.0045238,0.7279057,-1.4564173
1.998,5.768999,2.7259383,4.0013943,3.016979,0.729789,-1.4688907
2,5.7874827,2.762113,4.0279493,3.0288932,0.7295757,-1.4806788
2.002,5.8052816,2.795403,4.055017,3.0402412,0.7278303,-1.4915631
2.004,5.8223276,2.8257794,4.082625,3.0509825,0.72508156,-1.5013547
2.006,5.838749,2.85339,4.1107893,3.0610628,0.72179425,-1.5098745
2.008,5.8545218,2.8782206,4.1394625,3.0704243,0.7183466,-1.5169939
2.01,5.869416,2.9005742,4.168459,3.0790043,0.71503705,-1.522588
2.012,5.8834906,2.9206023,4.197818,3.086743,0.7120574,-1.5265884
2.014,5.8967667,2.9384894,4.227294,3.0935726,0.7095009,-1.5289521
2.016,5.90919,2.9544883,4.2568607,3.099424,0.7073734,-1.5296526
2.018,5.920826,2.9688172,4.286359,3.1042225,0.70560324,-1.5286971
2.02,5.931607,2.981802,4.3157015,3.1078975,0.7040288,-1.52612
2.022,5.941642,2.9935656,4.344821,3.110361,0.702435,-1.5219637
2.024,5.950667,3.0044723,4.373631,3.1115155,0.70056915,-1.5162818
2.026,5.9590015,3.014617,4.4021254,3.1112788,0.6981633,-1.5091205
2.028,5.966622,3.0243251,4.4302626,3.1095524,0.69494516,-1.5005313
2.03,5.9734907,3.0336432,4.458192,3.1062407,0.6906531,-1.4905756
2.032,5.979744,3.042743,4.4858856,3.1012547,0.6850859,-1.4793203
2.034,5.985422,3.0517452,4.513454,3.09452,0.6780883,-1.4668461
2.036,5.9906554,3.0607636,4.540993,3.0859914,0.6695572,-1.453221
2.038,5.995462,3.0699005,4.5687265,3.075625,0.6594782,-1.4385372
2.04,6.0000205,3.0791097,4.5966864,3.063414,0.6479044,-1.4228953
2.042,6.004422,3.0884037,4.6250677,3.0493786,0.63494813,-1.4063885
2.044,6.008834,3.0977373,4.6539598,3.0335472,0.6207763,-1.3891149
2.046,6.013402,3.107069,4.683474,3.0160012,0.6056068,-1.3711938
2.048,6.0182815,3.1162233,4.7136884,2.9968612,0.5896816,-1.35272
2.05,6.023432,3.125228,4.7446856,2.9762576,0.57325757,-1.3337877
2.052,6.0290437,3.1338658,4.7763925,2.9543438,0.5565777,-1.3145165
2.054,6.0352798,3.14202,4.808971,2.9312923,0.5398718,-1.2949995
2.056,6.0421343,3.149562,4.842331,2.9072866,0.52334654,-1.2753487
2.058,6.049664,3.156324,4.8764086,2.8825145,0.5071659,-1.255671
2.06,6.0578346,3.1621695,4.911237,2.857153,0.49147177,-1.2360585
2.062,6.066657,3.1670568,4.9467554,2.8313835,0.4763624,-1.2165967
2.064,6.0762043,3.1708694,4.98282,2.805359,0.461891,-1.1973503
2.066,6.086385,3.1735554,5.0194254,2.779225,0.44808394,-1.1783658
2.068,6.0971603,3.1749475,5.056517,2.753081,0.43493557,-1.1596676
2.07,6.108412,3.175187,5.0940266,2.7270145,0.4224072,-1.141254
2.072,6.120236,3.1741774,5.1319985,2.7011003,0.41043025,-1.1230967
2.074,6.132359,3.1720488,5.170291,2.6753633,0.3989197,-1.1051483
2.076,6.144691,3.1687727,5.208907,2.6498127,0.38777035,-1.0873609
2.078,6.157174,3.164394,5.247825,2.6244433,0.37686992,-1.0696864
2.08,6.1697483,3.159072,5.2870975,2.5992255,0.36610413,-1.0520787
2.082,6.1821957,3.1528845,5.326668,2.574132,0.3553564,-1.0344974
2.084,6.1945024,3.1459289,5.366452,2.5491292,0.34454077,-1.0169213
2.086,6.20665,3.1382616,5.4065785,2.5241868,0.33355403,-0.99933875
2.088,6.2185235,3.130147,5.4468575,2.4992738,0.32234722,-0.98175013
2.09,6.2300596,3.1216261,5.4873505,2.4743724,0.31089115,-0.96418524
2.092,6.2411566,3.1127934,5.5279717,2.449475,0.29916197,-0.9466734
2.094,6.251787,3.1037745,5.568553,2.42457,0.28716755,-0.9292407
2.096,6.261944,3.0946827,5.6090593,2.3996744,0.27493352,-0.91191703
2.098,6.2715597,3.085678,5.6494055,2.3748076,0.26249862,-0.89473844
2.1,6.2807093,3.0767617,5.6894884,2.3499813,0.24992114,-0.87772584
2.102,6.289391,3.0681055,5.729153,2.3252137,0.23726624,-0.8609058
2.104,6.2974997,3.0597618,5.7682886,2.3005345,0.224594,-0.8443012
2.106,6.305284,3.0518296,5.8067226,2.2759676,0.21195275,-0.8278962
2.108,6.3126106,3.044365,5.844505,2.2515292,0.19939071,-0.8116749
2.11,6.3195324,3.037509,5.8813114,2.2272334,0.18692636,-0.79560894
2.112,6.3261247,3.0312095,5.9171247,2.2030811,0.17455465,-0.779646
2.114,6.332359,3.0256124,5.951806,2.1790743,0.16223568,-0.7637396
2.116,6.33833,3.0207944,5.985335,2.155201,0.14991975,-0.7478248
2.118,6.3440475,3.0168252,6.017579,2.1314497,0.13752615,-0.7318611
2.12,6.3494573,3.0137532,6.048615,2.1078057,0.12497634,-0.715798
2.122,6.354715,3.0114784,6.078272,2.0842612,0.11217475,-0.69960225
2.124,6.3598723,3.0102043,6.106585,2.0607932,0.09903157,-0.683272
2.126,6.3649244,3.009993,6.133555,2.0373678,0.085467815,-0.66683215
2.128,6.3697505,3.0108728,6.1592135,2.0139856,0.07142335,-0.6503284
2.13,6.374466,3.0127735,6.1836605,1.9906414,0.056854427,-0.6338118
2.132,6.379099,3.0158389,6.2068663,1.9673147,0.04172188,-0.61734647
2.134,6.383666,3.0199218,6.228905,1.9439956,0.0260247,-0.6010204
2.136,6.38823,3.0251107,6.2498574,1.9206834,0.009766519,-0.58489966
2.138,6.392765,3.031312,6.2698507,1.8973655,-0.0070390105,-0.5690586
2.14,6.3972354,3.0385427,6.2888656,1.8740366,-0.024349391,-0.5535605
2.142,6.401671,3.046749,6.307028,1.850698,-0.042146564,-0.5384476
2.144,6.4061055,3.055881,6.3244376,1.8273382,-0.060398936,-0.52374965
2.146,6.4105434,3.0658326,6.34119,1.8039567,-0.07905817,-0.5094855
2.148,6.414949,3.0765405,6.357199,1.7805607,-0.09808344,-0.49566844
2.15,6.419297,3.088004,6.3726296,1.7571285,-0.11743134,-0.48230276
2.152,6.4237857,3.100054,6.387561,1.7336636,-0.13707376,-0.46937996
2.154,6.4281836,3.112737,6.4020205,1.7101543,-0.15699422,-0.45688736
2.156,6.4326434,3.1258302,6.416033,1.6865914,-0.17717099,-0.4448071
2.158,6.4370885,3.1393747,6.429734,1.6629663,-0.19757205,-0.43311507
2.16,6.4416494,3.1532078,6.443099,1.6392727,-0.21817547,-0.42179716
2.162,6.4464283,3.1672378,6.4562445,1.6155071,-0.23897338,-0.41083646
2.164,6.451265,3.1814704,6.469219,1.5916703,-0.25994122,-0.40019578
2.166,6.456253,3.1958447,6.482072,1.5677674,-0.28105316,-0.38986295
2.168,6.461395,3.210354,6.4948773,1.5437944,-0.30229098,-0.37980682
2.17,6.466719,3.2249155,6.5076394,1.5197611,-0.32363755,-0.37000093
2.172,6.47236,3.2395372,6.5205507,1.4956876,-0.34505215,-0.36040747
2.174,6.4780827,3.2541907,6.5336385,1.471582,-0.36650166,-0.35101354
2.176,6.484216,3.2687926,6.5468526,1.4474624,-0.38795027,-0.3418038
2.178,6.490699,3.2834582,6.5603037,1.4233391,-0.40935388,-0.33275408
2.18,6.497475,3.29811,6.574007,1.399233,-0.4306602,-0.32384223
2.182,6.5046797,3.3126316,6.5880427,1.3751488,-0.45181426,-0.31506804
2.184,6.512148,3.3271084,6.602355,1.3510927,-0.47275776,-0.30641705
2.186,6.52001,3.3416252,6.6170406,1.3270898,-0.49342266,-0.2978763
2.188,6.5282702,3.3561203,6.6320443,1.3031521,-0.5137414,-0.2894286
2.19,6.536859,3.37064,6.6473637,1.2792846,-0.5336452,-0.28106663
2.192,6.5458813,3.385126,6.6630535,1.255516,-0.553076,-0.2727706
2.194,6.5552387,3.3995762,6.679089,1.2318585,-0.57198715,-0.26452917
2.196,6.5649376,3.4140143,6.695454,1.2083457,-0.5903139,-0.25633657
2.198,6.574871,3.428458,6.712121,1.185014,-0.60802674,-0.24818003
2.2,6.5850544,3.442791,6.7290716,1.1619039,-0.6251053,-0.24005169
2.202,6.595457,3.4571497,6.7462807,1.1390572,-0.641535,-0.23195392
2.204,6.6059866,3.4714184,6.7638316,1.1165214,-0.65732646,-0.22389337
2.206,6.616605,3.4855874,6.781652,1.094336,-0.67248017,-0.21588069
2.208,6.6274023,3.49958,6.7997437,1.0725381,-0.6870158,-0.20792598
2.21,6.6381335,3.513423,6.818112,1.0511676,-0.700963,-0.20005476
2.212,6.648781,3.5269666,6.836746,1.0302482,-0.7143632,-0.19228008
2.214,6.6592617,3.540299,6.8556123,1.0097873,-0.7272392,-0.18462476
2.216,6.669711,3.5533533,6.8747888,0.98979306,-0.739601,-0.17711556
2.218,6.6799507,3.5660534,6.8941116,0.97025716,-0.75148404,-0.16978204
2.22,6.690015,3.5784514,6.9137864,0.95117474,-0.762895,-0.1626271
2.222,6.6999073,3.5904064,6.9337087,0.9325274,-0.7738198,-0.15566629
2.224,6.7095466,3.6019602,6.9539647,0.914306,-0.784253,-0.14890298
2.226,6.7188473,3.61302,6.9744215,0.8964734,-0.7941795,-0.14233649
2.228,6.7279196,3.6236842,6.9951534,0.8790113,-0.80356437,-0.13593394
2.23,6.7368765,3.633838,7.016101,0.8619002,-0.81236434,-0.12967366
2.232,6.7455597,3.643641,7.0372705,0.84511864,-0.8205415,-0.12351638
2.234,6.7539005,3.6529145,7.058713,0.82865226,-0.8280593,-0.11742094
2.236,6.7619805,3.6616545,7.080352,0.8124809,-0.8348696,-0.11133948
2.238,6.76997,3.6699426,7.102182,0.79659724,-0.8409368,-0.10524398
2.24,6.777672,3.6777606,7.124126,0.780989,-0.84622824,-0.09910917
2.242,6.7851367,3.6851068,7.1462317,0.7656411,-0.85072076,-0.09291038
2.244,6.792365,3.6920123,7.16851,0.7505549,-0.8543999,-0.086637646
2.246,6.799304,3.6984055,7.190763,0.73571587,-0.8572624,-0.08030647
2.248,6.805987,3.7043426,7.213078,0.72111976,-0.8593043,-0.07393661
2.25,6.8124375,3.709794,7.2353992,0.70676947,-0.86053014,-0.06756401
2.252,6.8185573,3.714683,7.2577415,0.6926662,-0.8609317,-0.061221987
2.254,6.8243604,3.7190678,7.279986,0.6788068,-0.86051214,-0.054941684
2.256,6.8297234,3.7229018,7.3022337,0.6651981,-0.85926807,-0.048743963
2.258,6.8347015,3.7261887,7.32442,0.6518447,-0.8571757,-0.04264307
2.26,6.839279,3.7288554,7.3465357,0.63874424,-0.8542181,-0.03663805
2.262,6.843343,3.7309482,7.368476,0.6258931,-0.8503769,-0.03070885
2.264,6.8469534,3.7323596,7.390338,0.6132851,-0.8456243,-0.024804652
2.266,6.8500075,3.7331998,7.4120407,0.6009091,-0.83993644,-0.018889606
2.268,6.852569,3.7333379,7.433571,0.5887677,-0.8332975,-0.012907803
2.27,6.8545322,3.7327816,7.454816,0.5768437,-0.8256912,-0.006798744
2.272,6.8557925,3.7315578,7.475892,0.5651295,-0.81709146,-0.0005123615
2.274,6.856476,3.7295988,7.496752,0.5536048,-0.8075044,0.0059832633
2.276,6.856476,3.7268517,7.517397,0.5422536,-0.796945,0.012707055
2.278,6.8558674,3.7233844,7.537854,0.5310477,-0.7854055,0.01967001
2.28,6.854567,3.7191904,7.558025,0.51997626,-0.7729049,0.026872128
2.282,6.8524647,3.714278,7.577903,0.5090101,-0.7594731,0.034287512
2.284,6.8497486,3.7085798,7.597459,0.49811408,-0.74512434,0.041891664
2.286,6.846237,3.7021737,7.616866,0.48726586,-0.729875,0.04966852
2.288,6.8420362,3.6950266,7.635865,0.47642764,-0.7137461,0.057588488
2.29,6.837143,3.6871965,7.6545887,0.4655825,-0.6967554,0.065633714
2.292,6.8315115,3.6786964,7.672884,0.4546873,-0.6789192,0.07379511
2.294,6.8252463,3.669494,7.6908035,0.4437148,-0.66026163,0.08206567
2.296,6.818237,3.6596012,7.7082872,0.43265092,-0.6407901,0.09043649
2.298,6.8104544,3.649085,7.7253494,0.4214618,-0.62051857,0.09891352
2.3,6.8019266,3.637907,7.7418427,0.41012138,-0.59945935,0.107510686
2.302,6.792588,3.6262026,7.757804,0.39860123,-0.5776259,0.116236985
2.304,6.782522,3.613947,7.773208,0.38687283,-0.5550351,0.12510404
2.306,6.771629,3.60119,7.7879577,0.37490708,-0.5316937,0.13410407
2.308,6.759929,3.5879338,7.802016,0.36267704,-0.5076164,0.14322954
2.31,6.7474656,3.5742621,7.815361,0.3501407,-0.48282164,0.15247421
2.312,6.7340956,3.5601892,7.827942,0.33727282,-0.4573338,0.16181247
2.314,6.7198086,3.545783,7.839761,0.3240366,-0.4311775,0.17122051
2.316,6.7046366,3.5310814,7.850766,0.3103971,-0.40437794,0.18066911
2.318,6.688554,3.5161545,7.8608704,0.29632586,-0.3769759,0.19013488
2.32,6.671572,3.5011353,7.8700876,0.28179562,-0.349019,0.19960472
2.322,6.6535583,3.4860382,7.878502,0.2667775,-0.3205548,0.20906977
2.324,6.634789,3.4708495,7.886162,0.25125414,-0.29163846,0.21852951
2.326,6.6150417,3.4555743,7.8929825,0.23520368,-0.26231954,0.22798972
2.328,6.5944242,3.440337,7.8991,0.21861024,-0.2326462,0.23746997
2.33,6.573024,3.4250429,7.9043903,0.2014547,-0.20266601,0.24700159
2.332,6.5508814,3.4098558,7.9089823,0.18371773,-0.17243576,0.25659618
2.334,6.528089,3.3947566,7.912903,0.16537257,-0.14197944,0.2662599
2.336,6.5046515,3.3797812,7.9162245,0.14639871,-0.11132433,0.2759982
2.338,6.480726,3.3648553,7.9190006,0.12677422,-0.08048794,0.285813
2.34,6.4563327,3.3501308,7.9213057,0.10648662,-0.049468253,0.2956751
2.342,6.431698,3.3355682,7.923172,0.08553204,-0.018252961,0.305577
2.344,6.4068565,3.3212554,7.924638,0.06389692,0.013168633,0.31549886
2.346,6.3820896,3.3071694,7.92578,0.041594833,0.044829138,0.32542813
2.348,6.3573275,3.293231,7.926596,0.018638313,0.07675976,0.33534294
2.35,6.3328366,3.2795422,7.927252,-0.004959002,0.10897533,0.34522858
2.352,6.3085523,3.2660975,7.9276395,-0.029171363,0.14149888,0.3550576
2.354,6.284786,3.2529025,7.9277544,-0.05396854,0.17434162,0.36480027
2.356,6.2615685,3.2399745,7.927661,-0.07932367,0.20752186,0.3744341
2.358,6.2390857,3.227192,7.927301,-0.10520958,0.24105008,0.38390929
2.36,6.217316,3.2147195,7.926727,-0.13159579,0.2749215,0.39319313
2.362,6.196409,3.2026434,7.925828,-0.15845947,0.3091343,0.40222526
2.364,6.1763544,3.1908448,7.9245853,-0.185787,0.3436826,0.4109539
2.366,6.157213,3.1794007,7.9228697,-0.21358249,0.37856385,0.41933194
2.368,6.1390243,3.1683671,7.9207525,-0.24183372,0.41378117,0.42732042
2.37,6.121677,3.1578314,7.9180202,-0.2705546,0.44933963,0.43490174
2.372,6.1052923,3.1477737,7.9147425,-0.29976413,0.48523623,0.44208127
2.374,6.0897584,3.1383057,7.9107785,-0.32947838,0.52147377,0.44891426
2.376,6.0750027,3.129441,7.9061503,-0.3597235,0.55803955,0.45546594
2.378,6.060942,3.1213188,7.9007196,-0.39052787,0.5949019,0.46181932
2.38,6.047697,3.1139781,7.894529,-0.42192158,0.6320139,0.46808946
2.382,6.035164,3.1074772,7.887472,-0.4539171,0.6693186,0.47438133
2.384,6.0231447,3.101911,7.8795133,-0.48654065,0.7067502,0.48080572
2.386,6.011696,3.097392,7.8705854,-0.51980746,0.7442282,0.4874528
2.388,6.00064,3.0939007,7.8607173,-0.5537206,0.7816657,0.4943826
2.39,5.9899974,3.091554,7.8499746,-0.5882821,0.81899464,0.50160843
2.392,5.9796195,3.0904388,7.838395,-0.6234963,0.8561369,0.50910664
2.394,5.9695272,3.0905106,7.8260207,-0.6593657,0.89303935,0.516828
2.396,5.9595985,3.091852,7.8128047,-0.6958864,0.92966795,0.5246919
2.398,5.949903,3.0944324,7.7989807,-0.733039,0.96600395,0.5326106
2.4,5.940363,3.0982676,7.784437,-0.7708146,1.0020363,0.5404705
2.402,5.9308577,3.1034024,7.769271,-0.809196,1.0377873,0.5481708
2.404,5.9215827,3.1097603,7.7534847,-0.8481643,1.0732715,0.55561507
2.406,5.912328,3.1173012,7.737176,-0.88769877,1.108517,0.56272376
2.408,5.903223,3.1260207,7.7203565,-0.92777336,1.1435536,0.5694265
2.41,5.8942347,3.1358094,7.703148,-0.9683531,1.1783912,0.5756552
2.412,5.8854184,3.1465821,7.685473,-1.0094186,1.2130473,0.5813668
2.414,5.876693,3.1582224,7.667306,-1.0509495,1.2475419,0.5865257
2.416,5.868047,3.1707125,7.648712,-1.0929143,1.2818786,0.5911119
2.418,5.8594313,3.183987,7.6297436,-1.135298,1.3160527,0.5951011
2.42,5.8508873,3.1979902,7.610317,-1.1780701,1.3500578,0.5984881
2.422,5.8424196,3.2125983,7.5904617,-1.2212156,1.3838813,0.6012792
2.424,5.833992,3.2277968,7.5701323,-1.2647111,1.4175103,0.6035079
2.426,5.8254995,3.243544,7.5493956,-1.308539,1.4509386,0.6052252
2.428,5.8169847,3.2597854,7.528226,-1.3526739,1.4841464,0.60648465
2.43,5.8083115,3.2765217,7.5065575,-1.3970908,1.5171163,0.60736775
2.432,5.7996335,3.2937703,7.4844303,-1.4417696,1.5498126,0.6079684
2.434,5.7906036,3.311523,7.4617624,-1.4866798,1.5821996,0.6083746
2.436,5.7813997,3.3299565,7.438674,-1.5318091,1.6142392,0.60866416
2.438,5.7719007,3.349009,7.4151173,-1.5771315,1.6458755,0.6089037
2.44,5.7620997,3.368753,7.3911743,-1.6226401,1.6770644,0.6091472
2.442,5.7519145,3.3892753,7.36684,-1.6683295,1.7077562,0.6094315
2.444,5.7413816,3.410672,7.3420467,-1.7141925,1.7379274,0.609765
2.446,5.730536,3.432935,7.3166876,-1.7602261,1.7675636,0.6101403
2.448,5.7191386,3.456267,7.290841,-1.8064158,1.7966505,0.610542
2.45,5.7072897,3.4806678,7.2644253,-1.8527622,1.8251991,0.6109283
2.452,5.6949553,3.506179,7.237419,-1.8992542,1.8532301,0.6112785
2.454,5.682304,3.533003,7.20971,-1.9458772,1.8807775,0.61156034
2.456,5.6690226,3.5611906,7.1812305,-1.9926143,1.9078664,0.61175954
2.458,5.655388,3.59089,7.151923,-2.039442,1.9345462,0.61185884
2.46,5.641793,3.6206799,7.1230516,-2.0863361,1.9608392,0.6118469
2.462,5.628031,3.6515808,7.0936227,-2.1332867,1.9867618,0.6117304
2.464,5.613987,3.68359,7.0636044,-2.1802764,2.0123258,0.6115205
2.466,5.599789,3.7166588,7.0329895,-2.2272701,2.0375226,0.6112308
2.468,5.5854397,3.7507432,7.0017443,-2.2742493,2.0623198,0.610868
2.47,5.5711727,3.7856107,6.9698305,-2.3212047,2.0866964,0.61045134
2.472,5.556965,3.8211424,6.9373536,-2.3681087,2.1105947,0.60998464
2.474,5.5428967,3.8572583,6.904355,-2.4149585,2.1339474,0.60947967
2.476,5.529045,3.8937774,6.8708816,-2.4617429,2.1566906,0.60894203
2.478,5.515467,3.9305022,6.836978,-2.5084362,2.1787443,0.6083561
2.48,5.5022626,3.9672751,6.8028255,-2.5550363,2.200038,0.60771704
2.482,5.4893546,4.003953,6.768434,-2.6015294,2.2205026,0.60702
2.484,5.476939,4.0403523,6.733946,-2.6479173,2.240065,0.6062689
2.486,5.4650364,4.076322,6.69948,-2.6941884,2.2586634,0.60545206
2.488,5.453599,4.1116734,6.665194,-2.7387276,2.2758832,0.6046026
2.49,5.442631,4.146332,6.631181,-2.7822857,2.2918947,0.6037276
2.492,5.4321394,4.1801653,6.5975614,-2.8245604,2.306635,0.6028441
2.494,5.422241,4.21305,6.5644407,-2.8652153,2.3200536,0.60198426
2.496,5.4128656,4.2449055,6.5319943,-2.9039197,2.3321226,0.6011683
2.498,5.403972,4.275666,6.500259,-2.9403715,2.3428376,0.6004268
2.5,5.3956194,4.30526,6.469306,-2.974323,2.3522363,0.59977055
2.502,5.387863,4.3336287,6.439106,-3.005629,2.3603888,0.599206
2.504,5.380484,4.360925,6.4097877,-3.0342107,2.3673828,0.5987421
2.506,5.3736076,4.3870335,6.3813434,-3.0600934,2.3733282,0.5983622
2.508,5.3670487,4.4119396,6.3537903,-3.083374,2.378344,0.5980644
2.51,5.360887,4.4356475,6.3271775,-3.10422,2.382553,0.59783864
