Time_s_,Acc_x_m_s_2_,Acc_y_m_s_2_,Acc_z_m_s_2_,Gyro_x_1_s_,Gyro_y_1_s_,Gyro_z_1_s_
0,0.029818576,0.34962255,0.089084245,0.87279755,0.5497205,-1.0207397
0.002,0.022273932,0.38328522,0.026466325,0.85853666,0.5403371,-1.0166657
0.004,0.013583975,0.41515717,-0.03352417,0.84146386,0.5287614,-1.0138931
0.006,0.003673939,0.4449818,-0.09033245,0.8210412,0.5144738,-1.0128807
0.008,-0.0077611916,0.47262663,-0.14307614,0.796688,0.49687764,-1.0140526
0.01,-0.02092759,0.49776137,-0.19043985,0.7678557,0.47535542,-1.0177889
0.012,-0.035867635,0.52017134,-0.23155582,0.73392373,0.4490017,-1.0243086
0.014,-0.053148735,0.53990936,-0.26507282,0.6943989,0.41691276,-1.0336816
0.016,-0.073120624,0.5571051,-0.29008317,0.6490165,0.3783813,-1.0457895
0.018,-0.09578237,0.5716743,-0.3059163,0.59769917,0.33279803,-1.060307
0.02,-0.12145628,0.5838496,-0.3118421,0.5406116,0.27975395,-1.0767106
0.022,-0.15060951,0.59411174,-0.307472,0.47817683,0.2191498,-1.0943325
0.024,-0.18368693,0.6030114,-0.29240415,0.41103837,0.15121514,-1.11245
0.026,-0.22135001,0.61146235,-0.26645732,0.33999455,0.076476276,-1.1303618
0.028,-0.2642169,0.6202068,-0.22944197,0.26478282,-0.005256593,-1.1474974
0.03,-0.312574,0.6300237,-0.181382,0.18774399,-0.09178531,-1.1635382
0.032,-0.36707282,0.641876,-0.12243131,0.10947636,-0.18223166,-1.1782475
0.034,-0.42840946,0.6567894,-0.053257555,0.03049513,-0.27571484,-1.1916044
0.036,-0.49698097,0.67595726,0.025162697,-0.048787303,-0.3712962,-1.203599
0.038,-0.5728168,0.70037913,0.11152586,-0.12799595,-0.46814626,-1.2144778
0.04,-0.65612674,0.73110783,0.20438701,-0.20689443,-0.56565213,-1.2247095
0.042,-0.74768156,0.76967174,0.30223697,-0.28533602,-0.66318333,-1.2347265
0.044,-0.84855735,0.81749284,0.40304762,-0.36316693,-0.76007295,-1.2450578
0.046,-0.9588471,0.87548107,0.5044572,-0.44022745,-0.8556106,-1.2563317
0.048,-1.0786989,0.94438,0.60419923,-0.51634943,-0.9490501,-1.2691052
0.05,-1.2078751,1.0246984,0.6993027,-0.59134525,-1.0396236,-1.2838995
0.052,-1.3460598,1.1170176,0.7863413,-0.6649996,-1.1265091,-1.3011563
0.054,-1.4931252,1.2219597,0.8619378,-0.73708165,-1.208888,-1.3211615
0.056,-1.6521978,1.3434982,0.92221814,-0.8073707,-1.2859298,-1.3439829
0.058,-1.82078,1.4792126,0.966012,-0.8756435,-1.3568224,-1.3695215
0.06,-1.9982661,1.628618,0.99178314,-0.9416349,-1.4207551,-1.3975409
0.062,-2.183409,1.7907887,0.9979967,-1.0050851,-1.4769632,-1.42771
0.064,-2.377741,1.9669666,0.97975576,-1.0657724,-1.5247989,-1.4596041
0.066,-2.57957,2.1565158,0.9341599,-1.123423,-1.5636122,-1.4928086
0.068,-2.787773,2.3591704,0.8595567,-1.17786,-1.5930908,-1.5269179
0.07,-3.0019543,2.574921,0.75467575,-1.2290148,-1.6133698,-1.561592
0.072,-3.2213864,2.8032877,0.61783326,-1.2768621,-1.6248412,-1.5966158
0.074,-3.444466,3.043341,0.44727087,-1.3214757,-1.6282363,-1.6319373
0.076,-3.6696076,3.2940273,0.24187803,-1.3630024,-1.6246343,-1.667702
0.078,-3.8941126,3.5538123,-2.3841858e-06,-1.4016669,-1.6153903,-1.7041719
0.08,-4.1162024,3.8215647,-0.27881622,-1.4377419,-1.6020283,-1.7416694
0.082,-4.337154,4.0973535,-0.5934708,-1.4715022,-1.586137,-1.7805494
0.084,-4.555439,4.3796163,-0.94368005,-1.5032704,-1.5693918,-1.8211505
0.086,-4.768182,4.666117,-1.3284757,-1.5334009,-1.5533766,-1.8638376
0.088,-4.9735613,4.954939,-1.7458446,-1.5622488,-1.5395554,-1.9090348
0.09,-5.1693926,5.244153,-2.1945736,-1.590174,-1.5294063,-1.9571544
0.092,-5.3543277,5.5323668,-2.6726964,-1.617492,-1.5242791,-2.0083952
0.094,-5.524473,5.817007,-3.1780787,-1.644448,-1.5253618,-2.062743
0.096,-5.6777,6.096409,-3.7085936,-1.6713066,-1.5339377,-2.1200404
0.098,-5.8119645,6.3689003,-4.2614965,-1.6983179,-1.5513265,-2.179971
0.1,-5.9252973,6.632758,-4.8341017,-1.7257196,-1.5789003,-2.242055
0.102,-6.0160675,6.8865476,-5.4229846,-1.7536979,-1.6179032,-2.305801
0.104,-6.0832634,7.129009,-6.0243864,-1.7823908,-1.6694591,-2.3707154
0.106,-6.1251535,7.3588004,-6.6348057,-1.8119218,-1.7346213,-2.4362462
0.108,-6.140339,7.574559,-7.2507944,-1.842408,-1.8142465,-2.5018163
0.11,-6.1283603,7.7752542,-7.868701,-1.874047,-1.9091823,-2.5668714
0.112,-6.089653,7.9603405,-8.484182,-1.9070418,-2.019965,-2.6310754
0.114,-6.0238247,8.128761,-9.0928545,-1.941584,-2.146819,-2.6943855
0.116,-5.9314547,8.279805,-9.690001,-1.9779856,-2.2901695,-2.7569413
0.118,-5.8132644,8.412657,-10.271106,-2.0166657,-2.4504201,-2.8189695
0.12,-5.670702,8.52686,-10.83164,-2.058084,-2.6277823,-2.8807938
0.122,-5.5054774,8.621938,-11.366447,-2.102848,-2.8225832,-2.9428868
0.124,-5.31942,8.697372,-11.870651,-2.1516972,-3.0353222,-3.005892
0.126,-5.114748,8.752604,-12.33893,-2.205329,-3.2663784,-3.0706058
0.128,-4.89412,8.787553,-12.766021,-2.2643554,-3.515945,-3.1378942
0.13,-4.66004,8.80181,-13.14651,-2.3293424,-3.7840796,-3.20856
0.132,-4.4146986,8.7948,-13.475357,-2.4007318,-4.070627,-3.283266
0.134,-4.1605735,8.766221,-13.747767,-2.4788127,-4.375093,-3.3624618
0.136,-3.8999536,8.715637,-13.958886,-2.5637743,-4.6966815,-3.4462206
0.138,-3.635216,8.643101,-14.104371,-2.6556616,-5.0343304,-3.534199
0.14,-3.3688211,8.548899,-14.180578,-2.7544065,-5.386737,-3.6256204
0.142,-3.1029243,8.433396,-14.184349,-2.8599305,-5.752508,-3.7193034
0.144,-2.839611,8.296986,-14.112698,-2.972153,-6.130053,-3.8138583
0.146,-2.5807967,8.139844,-13.963149,-3.0909731,-6.517698,-3.9079719
0.148,-2.3286767,7.9625254,-13.734188,-3.2162423,-6.913642,-4.000457
0.15,-2.084702,7.765492,-13.42495,-3.3476818,-7.3157225,-4.0902824
0.152,-1.8502359,7.549229,-13.035683,-3.484854,-7.7214284,-4.17663
0.154,-1.6262155,7.3144774,-12.567095,-3.6271791,-8.127937,-4.258952
0.156,-1.4146891,7.062641,-12.020737,-3.7739258,-8.532186,-4.336891
0.158,-1.2174659,6.7950716,-11.399333,-3.9241786,-8.9307785,-4.410277
0.16,-1.0364265,6.5133915,-10.706133,-4.0768447,-9.319978,-4.4791236
0.162,-0.8732257,6.21876,-9.94495,-4.2307377,-9.695983,-4.5435176
0.164,-0.7291045,5.912403,-9.121056,-4.384561,-10.054913,-4.6034465
0.166,-0.6043525,5.594869,-8.241127,-4.537114,-10.393242,-4.6586742
0.168,-0.50085306,5.268259,-7.3127656,-4.6873007,-10.707827,-4.708774
0.17,-0.42108274,4.935061,-6.3440123,-4.8340917,-10.995678,-4.753381
0.172,-0.36613584,4.597663,-5.3428454,-4.976616,-11.254444,-4.7921777
0.174,-0.33673382,4.257789,-4.3172445,-5.1141768,-11.482493,-4.8248405
0.176,-0.33418632,3.917344,-3.2757392,-5.2461467,-11.678615,-4.8509426
0.178,-0.3594947,3.5781047,-2.227882,-5.372006,-11.842051,-4.869961
0.18,-0.41277087,3.241732,-1.1839652,-5.4914246,-11.972702,-4.881269
0.182,-0.49355912,2.9096131,-0.15380555,-5.604196,-12.070913,-4.884215
0.184,-0.60193,2.5836105,0.8531236,-5.7101674,-12.1373005,-4.878231
0.186,-0.73725593,2.2653682,1.8274225,-5.809248,-12.172719,-4.8628016
0.188,-0.89974624,1.9564927,2.760701,-5.9014273,-12.178329,-4.8375077
0.19,-1.0880833,1.6580439,3.6440287,-5.9867554,-12.15545,-4.8020267
0.192,-1.2981164,1.3698353,4.4679384,-6.065297,-12.105459,-4.756163
0.194,-1.5291365,1.0937691,5.225402,-6.137148,-12.0299225,-4.699828
0.196,-1.7810063,0.8318353,5.910016,-6.202425,-11.93051,-4.633
0.198,-2.0514953,0.58507156,6.515561,-6.261199,-11.8090105,-4.5557156
0.2,-2.3384867,0.35403746,7.037876,-6.3134966,-11.667327,-4.467997
0.202,-2.6402798,0.139462,7.4736733,-6.359282,-11.507531,-4.3698325
0.204,-2.954554,-0.058425784,7.8203597,-6.398452,-11.331847,-4.2611566
0.206,-3.2792332,-0.2396524,8.076317,-6.430893,-11.142663,-4.1418767
0.208,-3.6117976,-0.40412235,8.241438,-6.4564695,-10.9424925,-4.011853
0.21,-3.9498396,-0.55171096,8.315789,-6.475028,-10.7339325,-3.8709416
0.212,-4.290884,-0.6820333,8.299785,-6.4864454,-10.519658,-3.719023
0.214,-4.632293,-0.79508424,8.1946945,-6.490658,-10.30234,-3.5560431
0.216,-4.972005,-0.890908,8.00389,-6.487674,-10.084583,-3.3820548
0.218,-5.3078375,-0.969223,7.7316394,-6.477601,-9.868883,-3.197293
0.22,-5.637719,-1.0298171,7.3817015,-6.4606767,-9.657597,-3.002169
0.222,-5.958525,-1.0726113,6.958349,-6.4373,-9.452966,-2.7972615
0.224,-6.267365,-1.0976052,6.4670496,-6.40802,-9.257139,-2.5832999
0.226,-6.562795,-1.1043806,5.913726,-6.3734937,-9.072141,-2.3611243
0.228,-6.84348,-1.0927458,5.3045616,-6.334486,-8.89996,-2.1316547
0.23,-7.1074266,-1.063288,4.6449394,-6.2918363,-8.742514,-1.8958746
0.232,-7.352541,-1.0165198,3.9404354,-6.2463546,-8.60168,-1.6547705
0.234,-7.577628,-0.9522743,3.1963508,-6.198798,-8.479209,-1.4092778
0.236,-7.7811947,-0.8705356,2.4185977,-6.149859,-8.376708,-1.1602411
0.238,-7.962342,-0.771435,1.613616,-6.100113,-8.295593,-0.9083475
0.24,-8.120501,-0.6550355,0.7871027,-6.0500593,-8.237014,-0.6542327
0.242,-8.25581,-0.52164745,-0.055171013,-6.0000925,-8.201801,-0.39848584
0.244,-8.368145,-0.37183762,-0.9078958,-5.9504933,-8.190486,-0.1417459
0.246,-8.457582,-0.20597744,-1.7657304,-5.9014816,-8.203243,0.11529571
0.248,-8.525185,-0.024309635,-2.6238768,-5.853178,-8.239854,0.37190688
0.25,-8.572416,0.17309427,-3.4777741,-5.8055954,-8.299703,0.62730336
0.252,-8.600649,0.38603282,-4.323023,-5.7586327,-8.38176,0.88066894
0.254,-8.611725,0.61467457,-5.15555,-5.712074,-8.484611,1.1312263
0.256,-8.60777,0.8598559,-5.9712133,-5.6656117,-8.606507,1.3782688
0.258,-8.591503,1.1222962,-6.766395,-5.618845,-8.7453785,1.6211908
0.26,-8.565811,1.4022471,-7.537601,-5.5712385,-8.898851,1.8595682
0.262,-8.53298,1.6992204,-8.281161,-5.5221763,-9.064316,2.0932312
0.264,-8.496214,2.013506,-8.994072,-5.470983,-9.239005,2.3221755
0.266,-8.458266,2.3452055,-9.673098,-5.4169803,-9.420078,2.5464475
0.268,-8.422423,2.6946316,-10.31525,-5.3595085,-9.604772,2.7660341
0.27,-8.391697,3.0619621,-10.917644,-5.297975,-9.79042,2.980793
0.272,-8.368976,3.4473903,-11.478338,-5.2319226,-9.974508,3.1904614
0.274,-8.357014,3.8509371,-11.995836,-5.161022,-10.154765,3.3946512
0.276,-8.358127,4.2724,-12.469154,-5.085078,-10.329192,3.5928378
0.278,-8.37444,4.7111635,-12.89753,-5.00409,-10.496106,3.784421
0.28,-8.408007,5.1666555,-13.280132,-4.9182787,-10.654207,3.968791
0.282,-8.461051,5.6377554,-13.616964,-4.8280444,-10.802564,4.1453443
0.284,-8.5351925,6.123419,-13.907623,-4.73391,-10.940545,4.313561
0.286,-8.6315,6.62193,-14.15185,-4.6364346,-11.067652,4.472957
0.288,-8.751184,7.1318245,-14.349485,-4.536202,-11.183675,4.6230717
0.29,-8.89506,7.6514196,-14.501009,-4.43379,-11.288565,4.7634926
0.292,-9.06375,8.178724,-14.607481,-4.329701,-11.382223,4.8939133
0.294,-9.25779,8.7117405,-14.670645,-4.224368,-11.464523,5.0140886
0.296,-9.4773245,9.248215,-14.692533,-4.118149,-11.535274,5.123763
0.298,-9.722206,9.785801,-14.675339,-4.0113554,-11.594217,5.222675
0.3,-9.99181,10.321931,-14.6213665,-3.90429,-11.641057,5.3105187
0.302,-10.28566,10.854069,-14.532314,-3.7972074,-11.675503,5.386939
0.304,-10.602646,11.379267,-14.410156,-3.690381,-11.697301,5.4515753
0.306,-10.941368,11.894728,-14.257178,-3.5840964,-11.706307,5.504065
0.308,-11.300699,12.397776,-14.075773,-3.478623,-11.702407,5.544058
0.31,-11.678932,12.885955,-13.868631,-3.3741891,-11.685485,5.571203
0.312,-12.07431,13.356863,-13.638521,-3.270998,-11.65543,5.5852494
0.314,-12.485319,13.808658,-13.388159,-3.1692922,-11.612107,5.585969
0.316,-12.909627,14.239453,-13.120416,-3.0692937,-11.555308,5.573175
0.318,-13.345152,14.647321,-12.83836,-2.9712427,-11.484734,5.5468388
0.32,-13.789328,15.030879,-12.544064,-2.8753858,-11.399996,5.5071254
0.322,-14.239643,15.38855,-12.240031,-2.7819653,-11.30064,5.4543543
0.324,-14.693277,15.719289,-11.928588,-2.6912367,-11.186221,5.388942
0.326,-15.147697,16.022734,-11.612473,-2.6034362,-11.056315,5.311344
0.328,-15.599946,16.298325,-11.294664,-2.51881,-10.910492,5.222067
0.33,-16.04704,16.54578,-10.977239,-2.4375598,-10.748281,5.1216636
0.332,-16.48688,16.765383,-10.662466,-2.359833,-10.569166,5.010765
0.334,-16.917055,16.957909,-10.353326,-2.2857049,-10.37255,4.8900633
0.336,-17.333965,17.123966,-10.052683,-2.215204,-10.157788,4.7603188
0.338,-17.734524,17.264894,-9.7631,-2.1482828,-9.924191,4.6223383
0.34,-18.116611,17.382717,-9.486265,-2.0848756,-9.671168,4.476981
0.342,-18.478174,17.479385,-9.224359,-2.0248783,-9.398111,4.325097
0.344,-18.816372,17.556362,-8.97936,-1.96817,-9.104568,4.167449
0.346,-19.129631,17.61587,-8.753981,-1.9146887,-8.790415,4.0046434
0.348,-19.415588,17.659998,-8.55132,-1.8643965,-8.455823,3.8372188
0.35,-19.671804,17.691133,-8.3738785,-1.8173051,-8.101312,3.6656709
0.352,-19.89607,17.712002,-8.22364,-1.7734658,-7.7277284,3.4904108
0.354,-20.086613,17.725306,-8.102478,-1.7329643,-7.3362246,3.3117776
0.356,-20.242002,17.733616,-8.012791,-1.6959226,-6.9281964,3.1299953
0.358,-20.360159,17.739056,-7.9567966,-1.662437,-6.5052333,2.9451983
0.36,-20.438736,17.743282,-7.9357543,-1.6326097,-6.06907,2.7574306
0.362,-20.476204,17.748495,-7.950953,-1.6065226,-5.6215515,2.5666797
0.364,-20.471441,17.756645,-8.003956,-1.5842111,-5.164588,2.3728561
0.366,-20.423079,17.76906,-8.095839,-1.5656631,-4.7001805,2.175779
0.368,-20.329159,17.787018,-8.226872,-1.5507945,-4.2303658,1.9751941
0.37,-20.187933,17.812092,-8.398179,-1.5394486,-3.757206,1.7707735
0.372,-19.998272,17.846077,-8.610421,-1.5313891,-3.2827277,1.5621523
0.374,-19.75869,17.889631,-8.863617,-1.5262583,-2.8089175,1.3489687
0.376,-19.46786,17.943153,-9.157926,-1.5236182,-2.3376782,1.1308509
0.378,-19.12456,18.006819,-9.493122,-1.5229416,-1.8708534,0.9074313
0.38,-18.727861,18.08047,-9.868347,-1.5235991,-1.4101743,0.67836213
0.382,-18.277163,18.16401,-10.281957,-1.5248718,-0.9573017,0.44332868
0.384,-17.771698,18.25702,-10.731926,-1.5259947,-0.513838,0.2020309
0.386,-17.210983,18.359108,-11.21609,-1.52616,-0.081223026,-0.045797884
0.388,-16.594854,18.46981,-11.732209,-1.5245568,0.33914196,-0.3003684
0.39,-15.923112,18.588314,-12.27828,-1.5204363,0.7458133,-0.56179196
0.392,-15.195843,18.71389,-12.851616,-1.5130739,1.1374055,-0.8301217
0.394,-14.413345,18.845446,-13.449371,-1.5017688,1.5126125,-1.1053562
0.396,-13.576799,18.982038,-14.067887,-1.4859297,1.8700721,-1.387398
0.398,-12.687595,19.122723,-14.703585,-1.4650131,2.2085145,-1.6760414
0.4,-11.747662,19.266537,-15.35248,-1.4384921,2.5267713,-1.970958
0.402,-10.758095,19.411932,-16.010443,-1.4059162,2.8236902,-2.271779
0.404,-9.719931,19.557125,-16.673298,-1.3669314,3.0981958,-2.5780659
0.406,-8.635546,19.701168,-17.33678,-1.3212378,3.3493776,-2.8892744
0.408,-7.507871,19.843437,-17.996147,-1.2686028,3.5764694,-3.204822
0.41,-6.3396235,19.982706,-18.646765,-1.2088501,3.778803,-3.5240235
0.412,-5.133998,20.117878,-19.284111,-1.1418853,3.9559226,-3.8460684
0.414,-3.8950744,20.24836,-19.90376,-1.0676498,4.1075478,-4.170071
0.416,-2.627102,20.373793,-20.501148,-0.9861375,4.233513,-4.4951825
0.418,-1.3341932,20.493626,-21.071842,-0.8973526,4.3338017,-4.8204985
0.42,-0.021376848,20.607548,-21.611502,-0.8012873,4.408559,-5.1450877
0.422,1.3058774,20.715837,-22.11615,-0.6979238,4.458035,-5.4680376
0.424,2.6428285,20.818462,-22.582214,-0.5872426,4.4825654,-5.788472
0.426,3.9840722,20.915714,-23.005955,-0.46922565,4.482552,-6.105555
0.428,5.3239994,21.008427,-23.38388,-0.34387565,4.4585476,-6.4185615
0.43,6.6567383,21.09724,-23.71418,-0.21124089,4.4112,-6.726916
0.432,7.976926,21.183714,-23.994015,-0.07147217,4.3411894,-7.0301743
0.434,9.279901,21.268715,-24.221222,0.07516706,4.249254,-7.3279686
0.436,10.561474,21.353512,-24.394398,0.22830641,4.136298,-7.6200285
0.438,11.817438,21.440145,-24.511826,0.38744736,4.0034027,-7.906199
0.44,13.045207,21.530325,-24.57265,0.551923,3.8516865,-8.186355
0.442,14.242811,21.625607,-24.576206,0.7209811,3.682456,-8.46031
0.444,15.408054,21.72777,-24.5219,0.8937853,3.4972658,-8.727796
0.446,16.540129,21.838568,-24.410263,1.0693913,3.2976987,-8.9884615
0.448,17.639555,21.959059,-24.242058,1.2467542,3.085389,-9.241797
0.45,18.707525,22.090069,-24.018496,1.424864,2.8621469,-9.4872055
0.452,19.745426,22.232914,-23.740356,1.6026707,2.629768,-9.724081
0.454,20.755901,22.387981,-23.408863,1.7790987,2.3900115,-9.951822
0.456,21.742943,22.555264,-23.02521,1.9531784,2.144728,-10.1698475
0.458,22.709585,22.73516,-22.590137,2.12406,1.8957748,-10.3777275
0.46,23.659403,22.927671,-22.10476,2.2910008,1.6449404,-10.575224
0.462,24.59671,23.132391,-21.570404,2.4533887,1.3939486,-10.762204
0.464,25.525412,23.348717,-20.988354,2.6106641,1.1443262,-10.938683
0.466,26.449532,23.57563,-20.359484,2.762375,0.8974662,-11.104813
0.468,27.372894,23.811895,-19.68464,2.9081714,0.65470004,-11.2607975
0.47,28.298052,24.056139,-18.965282,3.0477614,0.4172294,-11.406805
0.472,29.228092,24.306154,-18.203094,3.1808815,0.18595147,-11.543053
0.474,30.165892,24.559317,-17.399101,3.3072813,-0.038440228,-11.6698065
0.476,31.112925,24.813168,-16.554865,3.426751,-0.25534225,-11.787279
0.478,32.069725,25.065147,-15.6721325,3.5391083,-0.46438503,-11.895707
0.48,33.03684,25.312103,-14.752359,3.644222,-0.6654384,-11.995383
0.482,34.014317,25.550741,-13.797296,3.7420206,-0.8584726,-12.086681
0.484,35.00132,25.777931,-12.809145,3.832509,-1.0435381,-12.170092
0.486,35.99648,25.990475,-11.790734,3.9157934,-1.2207079,-12.246328
0.488,36.99846,26.184683,-10.744965,3.9920502,-1.3901153,-12.316477
0.49,38.004887,26.357101,-9.675055,4.0614996,-1.5519149,-12.38184
0.492,39.013233,26.504118,-8.584603,4.1243925,-1.7063112,-12.443907
0.494,40.020576,26.622105,-7.4771733,4.180974,-1.853414,-12.504338
0.496,41.02393,26.70751,-6.356519,4.231362,-1.9932969,-12.564896
0.498,42.020176,26.757166,-5.226511,4.2755384,-2.125997,-12.627098
0.5,43.006332,26.768139,-4.090885,4.313361,-2.2514558,-12.692101
0.502,43.9796,26.73792,-2.9535747,4.34459,-2.3694584,-12.760644
0.504,44.93686,26.664442,-1.8185267,4.3688927,-2.4796839,-12.832996
0.506,45.875763,26.546001,-0.6898494,4.3859186,-2.58161,-12.908927
0.508,46.79447,26.380995,0.42907572,4.395328,-2.674551,-12.987833
0.51,47.691174,26.16851,1.5353584,4.396846,-2.7576776,-13.068851
0.512,48.5638,25.908657,2.6264434,4.3902807,-2.8301387,-13.15091
0.514,49.41038,25.601841,3.699936,4.375593,-2.8910031,-13.232886
0.516,50.23063,25.248272,4.753243,4.352843,-2.939367,-13.313694
0.518,51.024937,24.848341,5.7835073,4.3222175,-2.9743922,-13.392211
0.52,51.793736,24.403643,6.7883224,4.2839203,-2.9954953,-13.46724
0.522,52.537865,23.915941,7.7656245,4.2381926,-3.002332,-13.5374365
0.524,53.25921,23.386934,8.713864,4.1852846,-2.9947078,-13.601312
0.526,53.959747,22.818636,9.631304,4.1254387,-2.9725916,-13.657218
0.528,54.641716,22.213476,10.516539,4.0588923,-2.9361382,-13.70345
0.53,55.307835,21.573973,11.368225,3.9858527,-2.8857374,-13.738366
0.532,55.961327,20.902327,12.185116,3.9065251,-2.8218799,-13.760599
0.534,56.60494,20.201088,12.965798,3.821066,-2.745188,-13.769034
0.536,57.2418,19.4725,13.7088,3.7295694,-2.6565387,-13.76297
0.538,57.875824,18.718756,14.412711,3.63209,-2.5569773,-13.74215
0.54,58.510254,17.942268,15.077101,3.528572,-2.4476874,-13.706739
0.542,59.148056,17.14484,15.70067,3.418886,-2.3299882,-13.6571865
0.544,59.791134,16.329126,16.282434,3.302826,-2.2053082,-13.594221
0.546,60.441692,15.496985,16.821812,3.180142,-2.0750256,-13.518699
0.548,61.102097,14.649874,17.317415,3.0505614,-1.9404938,-13.431462
0.55,61.77341,13.789954,17.76886,2.9138174,-1.8029535,-13.333276
0.552,62.456455,12.919141,18.175812,2.7696748,-1.6634667,-13.224808
0.554,63.1523,12.039491,18.537884,2.6179466,-1.5228732,-13.106637
0.556,63.860645,11.153105,18.855742,2.4585285,-1.3817649,-12.979157
0.558,64.58054,10.262539,19.129988,2.2914047,-1.2404859,-12.8427305
0.56,65.31096,9.369995,19.361506,2.1166759,-1.0991781,-12.697702
0.562,66.05009,8.477511,19.55069,1.9345585,-0.9577944,-12.544458
0.564,66.79553,7.587298,19.698408,1.7453654,-0.81613255,-12.383425
0.566,67.5444,6.7012734,19.805563,1.5494978,-0.67386985,-12.215065
0.568,68.29464,5.820924,19.873022,1.3474281,-0.5306494,-12.039829
0.57,69.04365,4.9477863,19.902294,1.1397157,-0.38599133,-11.858217
0.572,69.788155,4.0837874,19.894886,0.92699885,-0.23934817,-11.670761
0.574,70.52499,3.2306547,19.852375,0.7099154,-0.09014058,-11.477991
0.576,71.25093,2.3897264,19.776184,0.4891503,0.06221652,-11.280443
0.578,71.962135,1.5626249,19.66839,0.265404,0.21835136,-11.078683
0.58,72.65587,0.75044537,19.531284,0.039353848,0.37893534,-10.873247
0.582,73.329216,-0.045921326,19.366863,-0.18837643,0.54458356,-10.66467
0.584,73.97893,-0.8254752,19.177223,-0.41723323,0.7159145,-10.453472
0.586,74.602554,-1.5876307,18.96399,-0.6467581,0.89354086,-10.240191
0.588,75.197784,-2.3317552,18.729015,-0.8766079,1.0780015,-10.0253935
0.59,75.7622,-3.0570989,18.474243,-1.1065598,1.269809,-9.809701
0.592,76.294395,-3.763619,18.20093,-1.3365588,1.4694493,-9.593766
0.594,76.79391,-4.451756,17.91045,-1.5667009,1.6773933,-9.378233
0.596,77.26001,-5.1214104,17.604149,-1.7972889,1.8940353,-9.163732
0.598,77.69273,-5.772087,17.283104,-2.0288413,2.1196742,-8.950816
0.6,78.09282,-6.403762,16.948425,-2.2620144,2.354621,-8.740046
0.602,78.46138,-7.0162435,16.600899,-2.4975958,2.5992255,-8.531977
0.604,78.79956,-7.6090055,16.24115,-2.7365067,2.8537729,-8.327265
0.606,79.10915,-8.181639,15.869732,-2.9797697,3.1184416,-8.126575
0.608,79.39244,-8.733777,15.487038,-3.2284184,3.393458,-7.9305344
0.61,79.652435,-9.2649765,15.093376,-3.4834783,3.6789901,-7.739766
0.612,79.89281,-9.774778,14.688831,-3.7460098,3.9751256,-7.5547705
0.614,80.117325,-10.262045,14.273014,-4.0169563,4.2820673,-7.3758874
0.616,80.32997,-10.725431,13.845142,-4.2971363,4.600084,-7.2032304
0.618,80.53566,-11.1636095,13.40373,-4.5872602,4.9295406,-7.0367804
0.62,80.7397,-11.57502,12.94733,-4.887891,5.2708707,-6.8763905
0.622,80.94802,-11.958182,12.474918,-5.199424,5.624517,-6.721671
0.624,81.16735,-12.311775,11.98613,-5.5221047,5.9908166,-6.5719604
0.626,81.40418,-12.634019,11.481152,-5.856044,6.3699684,-6.426521
0.628,81.66466,-12.922794,10.96011,-6.2012086,6.7619276,-6.284666
0.63,81.95523,-13.175589,10.42334,-6.5575056,7.1663027,-6.145846
0.632,82.28323,-13.389811,9.870777,-6.9247913,7.5822554,-6.0097394
0.634,82.65657,-13.563278,9.302395,-7.3029346,8.008441,-5.8762116
0.636,83.08302,-13.6932335,8.718746,-7.6918983,8.442966,-5.7453284
0.638,83.5706,-13.776803,8.120754,-8.091847,8.883394,-5.6172333
0.64,84.127426,-13.810518,7.510414,-8.503111,9.326764,-5.491977
0.642,84.76082,-13.789895,6.889473,-8.926197,9.769635,-5.369321
0.644,85.477875,-13.708231,6.259468,-9.36185,10.208151,-5.2486734
0.646,86.284256,-13.555939,5.6197166,-9.810936,10.638251,-5.128978
0.648,87.185684,-13.323185,4.973625,-10.274443,11.055781,-5.0086017
0.65,88.18701,-12.999471,4.3222694,-10.753384,11.456706,-4.8852487
0.652,89.29593,-12.574468,3.6743736,-11.2486925,11.837364,-4.7558937
0.654,90.5119,-12.025826,3.0262108,-11.761284,12.194416,-4.616713
0.656,91.83219,-11.326494,2.3850632,-12.291969,12.524946,-4.463153
0.658,93.27548,-10.473333,1.7314453,-12.841459,12.826652,-4.2900867
0.66,94.85907,-9.468216,1.0614395,-13.410368,13.097732,-4.0921154
0.662,96.581726,-8.281246,0.3780632,-13.999325,13.336697,-3.863755
0.664,98.44292,-6.884054,-0.3126068,-14.60894,13.54238,-3.5995417
0.666,100.44613,-5.24885,-1.0005131,-15.239668,13.713864,-3.2943084
0.668,102.59352,-3.3552818,-1.6803341,-15.891853,13.850425,-2.9432368
0.67,104.89635,-1.187067,-2.3697224,-16.56546,13.951727,-2.541952
0.672,107.3515,1.2749596,-3.0503712,-17.260048,14.017838,-2.0866303
0.674,109.94466,4.0423355,-3.7087955,-17.974674,14.049347,-1.5739319
0.676,112.69772,7.133602,-4.3425236,-18.707836,14.047466,-1.001219
0.678,115.597885,10.655865,-4.9336996,-19.45745,14.013876,-0.3665712
0.68,118.65359,14.583504,-5.503029,-20.220879,13.950644,0.33134496
0.682,121.89577,18.93159,-6.074187,-20.994843,13.86027,1.0935489
0.684,125.31534,23.78909,-6.755145,-21.774494,13.745915,1.9205514
0.686,128.88336,29.119612,-7.44518,-22.554243,13.610823,2.8117392
0.688,132.6294,34.839497,-8.196672,-23.327665,13.458201,3.7662349
0.69,136.63516,40.933662,-9.014315,-24.089092,13.289228,4.7834997
0.692,140.84544,47.425095,-9.8587055,-24.833843,13.101414,5.8605223
0.694,145.25046,54.28949,-10.645311,-25.556347,12.890645,6.991543
0.696,149.8691,61.541866,-11.361141,-26.25022,12.651685,8.168957
0.698,154.7046,69.13686,-11.994577,-26.910007,12.375086,9.382468
0.7,159.76949,77.05238,-12.561153,-27.531307,12.045719,10.618917
0.702,165.06023,85.20792,-13.037815,-28.113052,11.640517,11.864698
0.704,170.57916,93.53667,-13.414974,-28.656265,11.132178,13.1083355
0.706,176.32372,101.95065,-13.695648,-29.164104,10.488995,14.342554
0.708,182.28479,110.3379,-13.810307,-29.644676,9.66947,15.556863
0.71,188.40146,118.62452,-13.697388,-30.102043,8.632769,16.743664
0.712,194.63815,126.728745,-13.35738,-30.53656,7.338827,17.907959
0.714,201.0095,134.52182,-12.773724,-30.949848,5.7377577,19.05573
0.716,207.49295,141.88625,-11.893066,-31.343864,3.7830443,20.191578
0.718,214.02383,148.72191,-10.655075,-31.725922,1.4564581,21.324648
0.72,220.51572,154.94144,-9.013882,-32.105614,-1.2465601,22.477667
0.722,226.89316,160.42711,-6.9108124,-32.478035,-4.314828,23.67736
0.724,233.1384,165.04166,-4.2991858,-32.837475,-7.723505,24.946625
0.726,239.19199,168.70364,-1.1233664,-33.18611,-11.441199,26.294985
0.728,244.93451,171.38112,2.666082,-33.5249,-15.413681,27.707464
0.73,250.28764,173.02165,7.0981517,-33.853767,-19.558163,29.138979
0.732,255.16528,173.57297,12.191302,-34.19483,-23.783379,30.538317
0.734,259.4552,173.00551,17.959957,-34.580334,-27.989323,31.825106
0.736,263.05566,171.30127,24.411774,-35.028656,-32.076973,32.894188
0.738,265.8706,168.46538,31.532745,-35.54638,-35.950165,33.621532
0.74,267.7939,164.53268,39.284645,-36.124702,-39.512962,33.872864
0.742,268.73303,159.56183,47.60422,-36.728092,-42.675655,33.514946
0.744,268.60623,153.63426,56.404312,-37.289173,-45.366913,32.43226
0.746,267.35376,146.85129,65.57539,-37.71288,-47.53328,30.539656
0.748,264.93518,139.32437,74.996155,-37.88877,-49.13374,27.791328
0.75,261.33398,131.17404,84.52402,-37.706036,-50.139793,24.191769
0.752,256.5593,122.53608,93.995995,-37.067772,-50.535084,19.810778
0.754,250.63904,113.554405,103.24399,-35.90306,-50.314636,14.786875
0.756,243.63283,104.3763,112.09848,-34.177517,-49.4872,9.305435
0.758,235.63254,95.15107,120.38455,-31.89971,-48.07438,3.5832767
0.76,226.75404,86.02698,127.933174,-29.119034,-46.10857,-2.1361103
0.762,217.13264,77.14553,134.5801,-25.917341,-43.630028,-7.591446
0.764,206.93118,68.62799,140.18958,-22.403725,-40.694237,-12.532013
0.766,196.31973,60.585205,144.63333,-18.697474,-37.364243,-16.740223
0.768,185.45789,53.134895,147.83192,-14.910613,-33.699856,-20.033358
0.77,174.51785,46.373375,149.71324,-11.142045,-29.768919,-22.27991
0.772,163.69014,40.34812,150.23395,-7.47176,-25.655224,-23.416666
0.774,153.14905,35.098305,149.38702,-3.9647741,-21.43253,-23.457409
0.776,143.05075,30.650375,147.20001,-0.6815567,-17.167994,-22.479755
0.778,133.53445,27.015762,143.734,2.3384066,-12.922443,-20.616982
0.78,124.70975,24.183693,139.0889,5.0776196,-8.74957,-18.045986
0.782,116.67607,22.118202,133.34927,7.5295725,-4.7133746,-14.969018
0.784,109.51032,20.77272,126.63039,9.700781,-0.88477725,-11.599321
0.786,103.227295,20.077137,119.07503,11.624232,2.6786861,-8.163476
0.788,97.85123,19.881657,110.821625,13.337442,5.9256907,-4.856447
0.79,93.35791,20.166924,102.047134,14.8664665,8.8150215,-1.8355308
0.792,89.68486,20.851387,92.91902,16.238829,11.311862,0.7853813
0.794,86.79331,21.794624,83.65231,17.482613,13.386211,2.9371443
0.796,84.636375,22.98513,74.25321,18.616442,15.019919,4.59132
0.798,83.09868,24.424343,64.892,19.646757,16.214785,5.7533
0.8,82.03238,26.030502,55.670902,20.569103,16.985014,6.4595523
0.802,81.42345,27.703472,46.651894,21.370945,17.348927,6.7711716
0.804,81.191345,29.40731,37.87165,22.03556,17.333055,6.763285
0.806,81.23114,31.081997,29.443808,22.54316,16.974154,6.513777
0.808,81.46321,32.73822,21.466515,22.870863,16.314793,6.1018705
0.81,81.80798,34.364723,14.0428,22.997395,15.400492,5.6180387
0.812,82.21099,36.00359,7.2195644,22.90512,14.271481,5.155462
0.814,82.61868,37.670128,1.0492592,22.582071,12.962189,4.79263
0.816,82.99092,39.389732,-4.418108,22.023682,11.501903,4.589379
0.818,83.29942,41.19439,-9.204212,21.232468,9.913416,4.5868196
0.82,83.559006,43.069046,-13.309019,20.21902,8.213449,4.8050046
0.822,83.748825,45.006523,-16.679188,19.001602,6.415044,5.240562
0.824,83.80832,47.03453,-19.298706,17.606503,4.529746,5.867385
0.826,83.7269,49.151516,-21.193996,16.068789,2.569882,6.638871
0.828,83.5272,51.332493,-22.395166,14.430239,0.55160904,7.492307
0.83,83.23272,53.542553,-22.92047,12.737061,-1.5036063,8.354391
0.832,82.839294,55.775623,-22.807255,11.03775,-3.569521,9.148223
0.834,82.29053,58.032326,-22.087313,9.379397,-5.61652,9.800329
0.836,81.582245,60.25744,-20.810854,7.8034334,-7.612795,10.245865
0.838,80.75429,62.372833,-19.03011,6.3448725,-9.526209,10.43639
0.84,79.79314,64.347595,-16.791508,5.032432,-11.326248,10.347154
0.842,78.69353,66.165855,-14.150225,3.8872714,-12.985676,9.978958
0.844,77.47218,67.8054,-11.174788,2.922656,-14.481594,9.356167
0.846,76.13173,69.25095,-7.9408913,2.1442413,-15.796122,8.522296
0.848,74.673164,70.48525,-4.5169144,1.5508661,-16.916885,7.53413
0.85,73.11166,71.48717,-0.9648857,1.1358395,-17.836882,6.4546456
0.852,71.45485,72.24156,2.6576843,0.88841915,-18.554018,5.3455048
0.854,69.71111,72.740036,6.295764,0.7952032,-19.07058,4.2609506
0.856,67.8854,72.981384,9.896149,0.840888,-19.39225,3.2437844
0.858,65.985756,72.97736,13.402283,1.0090103,-19.528278,2.3236532
0.86,64.02128,72.74747,16.767462,1.2831831,-19.491276,1.5173397
0.862,62.003296,72.308716,19.956104,1.6479759,-19.29607,0.82966423
0.864,59.950397,71.67997,22.933033,2.0894003,-18.958511,0.2550509
0.866,57.875683,70.88249,25.667665,2.5949445,-18.495213,-0.21930408
0.868,55.787163,69.938995,28.137762,3.1534142,-17.923307,-0.6094415
0.87,53.69587,68.8717,30.329796,3.754757,-17.259956,-0.93140626
0.872,51.613304,67.70379,32.23501,4.3897686,-16.521862,-1.1991262
0.874,49.54949,66.45833,33.85057,5.0497484,-15.724968,-1.423233
0.876,47.51921,65.154816,35.179897,5.7263975,-14.884159,-1.6104858
0.878,45.534737,63.811317,36.22838,6.4117146,-14.012888,-1.763752
0.88,43.605698,62.44339,37.004032,7.0979524,-13.123007,-1.8830851
0.882,41.738464,61.062416,37.513485,7.778005,-12.224918,-1.9669608
0.884,39.941338,59.675045,37.764145,8.445418,-11.327914,-2.0134943
0.886,38.21985,58.285812,37.76471,9.094302,-10.440392,-2.0213196
0.888,36.577293,56.902508,37.531845,9.719357,-9.569845,-1.9902604
0.89,35.016697,55.53598,37.08922,10.315874,-8.72291,-1.9218168
0.892,33.539963,54.19572,36.46117,10.879691,-7.9054623,-1.819251
0.894,32.148556,52.8893,35.670506,11.407205,-7.122767,-1.6872717
0.896,30.843426,51.622673,34.73819,11.895248,-6.3794436,-1.531517
0.898,29.62476,50.402378,33.685257,12.340959,-5.679365,-1.357924
0.9,28.491627,49.233658,32.53229,12.741742,-5.0258017,-1.1721482
0.902,27.444294,48.11972,31.299713,13.095239,-4.421458,-0.9791467
0.904,26.480942,47.06199,30.008528,13.399321,-3.8684647,-0.78289175
0.906,25.597904,46.05962,28.679165,13.652159,-3.3684032,-0.5862808
0.908,24.789564,45.10981,27.329416,13.852339,-2.9223945,-0.39126635
0.91,24.049397,44.207745,25.975018,13.998981,-2.5311017,-0.19909239
0.912,23.370619,43.348194,24.630539,14.091862,-2.1947181,-0.010588169
0.914,22.746437,42.526726,23.309986,14.131498,-1.9129536,0.17357159
0.916,22.170702,41.739437,22.026878,14.119236,-1.6850524,0.35262442
0.918,21.637842,40.983307,20.793488,14.057264,-1.509759,0.52552223
0.92,21.142727,40.256363,19.62059,13.948566,-1.385304,0.69087076
0.922,20.680141,39.55743,18.518236,13.796879,-1.309333,0.84695005
0.924,20.24599,38.885406,17.494059,13.606587,-1.2789494,0.9917953
0.926,19.836264,38.239304,16.554075,13.382584,-1.2906929,1.123277
0.928,19.44748,37.617615,15.7028675,13.130085,-1.3406179,1.2392511
0.93,19.076647,37.018383,14.94397,12.854469,-1.4243209,1.3377645
0.932,18.72071,36.439533,14.279398,12.561072,-1.5370604,1.4172337
0.934,18.377169,35.878284,13.709492,12.255015,-1.6738775,1.4765582
0.936,18.043861,35.331547,13.233359,11.94107,-1.8297412,1.5152116
0.938,17.718866,34.79602,12.849057,11.62355,-1.9996603,1.5333273
0.94,17.400118,34.268265,12.553739,11.306209,-2.1788154,1.5316687
0.942,17.085804,33.744625,12.343915,10.992202,-2.362713,1.5115271
0.944,16.774456,33.221813,12.214936,10.684092,-2.5472722,1.4746697
0.946,16.464577,32.696888,12.1610985,10.383864,-2.7288995,1.4232676
0.948,16.155575,32.167297,12.17569,10.092981,-2.9044948,1.3597398
0.95,15.846478,31.631481,12.251413,9.812484,-3.0714428,1.2866127
0.952,15.53714,31.08837,12.380444,9.54305,-3.2276738,1.2063594
0.954,15.227259,30.53763,12.555095,9.285062,-3.371513,1.1213138
0.956,14.917416,29.979134,12.767624,9.038709,-3.5016377,1.0336521
0.958,14.6079235,29.413342,13.010515,8.80404,-3.6170497,0.9453256
0.96,14.2993145,28.840887,13.276033,8.580966,-3.7170808,0.8580632
0.962,13.992241,28.26289,13.556982,8.369323,-3.8013072,0.7733631
0.964,13.687645,27.680313,13.846484,8.168829,-3.8695474,0.6925497
0.966,13.386232,27.094875,14.138187,7.979125,-3.9219484,0.61675763
0.968,13.088488,26.508118,14.42619,7.7997384,-3.9589157,0.54694605
0.97,12.795064,25.921793,14.704996,7.630058,-3.9811873,0.48394775
0.972,12.506594,25.337584,14.97019,7.4693317,-3.9898186,0.4284668
0.974,12.223447,24.757431,15.2181225,7.3166676,-3.9861536,0.38107395
0.976,11.945918,24.18306,15.44578,7.1710267,-3.9717863,0.3421483
0.978,11.674227,23.616179,15.651228,7.0312557,-3.9484951,0.3118577
0.98,11.408279,23.058441,15.833273,6.896144,-3.918209,0.2901361
0.982,11.14792,22.511097,15.991741,6.7644544,-3.8828902,0.2766049
0.984,10.893005,21.975225,16.126839,6.63503,-3.844463,0.27059317
0.986,10.64323,21.451588,16.239573,6.5068445,-3.8046362,0.2711637
0.988,10.398056,20.94028,16.33163,6.3790574,-3.7648628,0.27718115
0.99,10.157044,20.44126,16.405237,6.2510443,-3.7262878,0.2873423
0.992,9.919626,19.953741,16.463175,6.1224313,-3.6897283,0.30024242
0.994,9.685249,19.47676,16.508368,5.9930744,-3.6556325,0.31441116
0.996,9.45327,19.008987,16.544086,5.8630342,-3.6241548,0.3284186
0.998,9.223089,18.548916,16.573557,5.732516,-3.595187,0.34091246
1,8.994233,18.094734,16.599867,5.6018176,-3.568384,0.3506527
1.002,8.766038,17.644466,16.625923,5.471279,-3.5432491,0.35654974
1.004,8.538439,17.196053,16.654257,5.341229,-3.5191317,0.35769594
1.006,8.31095,16.747602,16.686987,5.211972,-3.4952328,0.3534068
1.008,8.083582,16.297373,16.725557,5.0837574,-3.4707093,0.34324658
1.01,7.8564787,15.843494,16.771074,4.956804,-3.4446936,0.32708752
1.012,7.629966,15.384805,16.824017,4.831321,-3.4163055,0.3051387
1.014,7.4044127,14.920106,16.884356,4.707555,-3.384678,0.27793908
1.016,7.1804056,14.448759,16.951513,4.5857577,-3.349045,0.24639928
1.018,6.958682,13.970369,17.024511,4.466236,-3.308796,0.21174014
1.02,6.740017,13.484947,17.101902,4.3492837,-3.2634223,0.17543721
1.022,6.525136,12.993069,17.181992,4.2351766,-3.2125678,0.13914073
1.024,6.3149004,12.495507,17.262878,4.1241803,-3.1559694,0.104512095
1.026,6.110012,11.993601,17.342419,4.016493,-3.0934243,0.07312918
1.028,5.9112735,11.488819,17.418447,3.912232,-3.0248065,0.046375394
1.03,5.7196054,10.98284,17.488804,3.811406,-2.9500036,0.025408983
1.032,5.5354786,10.477701,17.5511,3.7139034,-2.8688545,0.011097908
1.034,5.3594575,9.975513,17.603031,3.6194894,-2.7811315,0.004000783
1.036,5.191912,9.47848,17.642488,3.527844,-2.6865487,0.0043364763
1.038,5.033031,8.988584,17.667608,3.4385228,-2.5848167,0.012003779
1.04,4.8830037,8.508092,17.676733,3.3510017,-2.4757268,0.026597261
1.042,4.7417727,8.038969,17.668518,3.2646837,-2.3591554,0.047460556
1.044,4.6091766,7.583226,17.64195,3.1789384,-2.235116,0.0737524
1.046,4.4849205,7.1425133,17.596302,3.0930984,-2.1037765,0.104537845
1.048,4.368482,6.7183504,17.531248,3.0065002,-1.9654915,0.13884658
1.05,4.259494,6.312132,17.446602,2.9185016,-1.8208189,0.17574203
1.052,4.15742,5.925021,17.342493,2.8284905,-1.6704915,0.21436799
1.054,4.0617857,5.557738,17.21929,2.735869,-1.5154142,0.25399554
1.056,3.9719687,5.2108426,17.077765,2.6401088,-1.3566322,0.29401642
1.058,3.887321,4.884596,16.918915,2.5407212,-1.1952858,0.3339654
1.06,3.8075538,4.578662,16.743835,2.4372363,-1.0325649,0.37353185
1.062,3.7319798,4.292843,16.553692,2.3292499,-0.8696338,0.41250926
1.064,3.6603618,4.026678,16.349709,2.2163796,-0.7076174,0.45075145
1.066,3.5922174,3.7794785,16.13321,2.0982988,-0.54760027,0.48813653
1.068,3.5271883,3.5506535,15.905698,1.9747074,-0.39058876,0.5245961
1.07,3.4651203,3.339198,15.668838,1.8453625,-0.23748577,0.56005824
1.072,3.4058666,3.1440625,15.424192,1.7100836,-0.08911316,0.5944399
1.074,3.3494406,2.964199,15.17343,1.5687593,0.053788424,0.6276232
1.076,3.2957897,2.798616,14.91822,1.4213437,0.1905818,0.65945286
1.078,3.244966,2.6464548,14.659999,1.2678481,0.32071683,0.68975174
1.08,3.197051,2.5065336,14.400316,1.1083901,0.44372946,0.71831656
1.082,3.1520739,2.3780594,14.140296,0.94317657,0.55928886,0.74493873
1.084,3.110278,2.26013,13.881121,0.7725108,0.66717994,0.7693996
1.086,3.0717773,2.15212,13.623832,0.5968091,0.76731277,0.7915139
1.088,3.036572,2.0535998,13.369322,0.41661632,0.85974675,0.8111348
1.09,3.0047808,1.9641342,13.118412,0.23257726,0.94467187,0.8281924
1.092,2.976532,1.8836131,12.871717,0.045456547,1.0224142,0.8426842
1.094,2.9516587,1.8119574,12.629602,-0.14390719,1.0934464,0.85470474
1.096,2.930163,1.7493315,12.392373,-0.33461392,1.1583617,0.8644
1.098,2.9119308,1.6959085,12.159936,-0.5257486,1.2178379,0.87198293
1.1,2.896624,1.6521983,11.931992,-0.71640825,1.272649,0.87770426
1.102,2.8840382,1.6186795,11.708073,-0.90576667,1.3236281,0.88183796
1.104,2.8738532,1.596137,11.487539,-1.093091,1.3716458,0.88466096
1.106,2.8656402,1.5853567,11.26957,-1.2777551,1.4176109,0.8864537
1.108,2.8592746,1.5872357,11.053167,-1.4592464,1.4624131,0.88749284
1.11,2.8543549,1.602778,10.8371,-1.6372013,1.5069147,0.8880811
1.112,2.850915,1.6329978,10.620113,-1.8113581,1.5518897,0.8885367
1.114,2.8485324,1.6788867,10.400743,-1.9815623,1.5980124,0.8891625
1.116,2.847115,1.7413175,10.1776905,-2.1477559,1.6458321,0.8902846
1.118,2.8463807,1.8210912,9.949467,-2.3099442,1.6957785,0.8922216
1.12,2.8462389,1.919049,9.714516,-2.4682121,1.7481377,0.8952778
1.122,2.846837,2.0355752,9.47124,-2.6226754,1.8030505,0.8996745
1.124,2.848039,2.171213,9.218094,-2.7734783,1.8605049,0.9055438
1.126,2.849941,2.3260558,8.953602,-2.9208078,1.9203856,0.91292447
1.128,2.852694,2.5002782,8.676423,-3.0648682,1.9824606,0.92174345
1.13,2.8563986,2.6937785,8.385305,-3.2058735,2.0464146,0.9317987
1.132,2.8615627,2.90596,8.079161,-3.3440611,2.1118636,0.9427515
1.134,2.868588,3.1362607,7.756932,-3.4797082,2.1783633,0.954178
1.136,2.8780227,3.3836184,7.417871,-3.613117,2.2454197,0.96556246
1.138,2.8902893,3.646972,7.0613585,-3.7446291,2.312514,0.9763466
1.14,2.9059186,3.924922,6.686973,-3.8746245,2.3790822,0.9859823
1.142,2.9255824,4.2158775,6.2948194,-4.0035315,2.444499,0.9939493
1.144,2.9498966,4.5180492,5.885191,-4.1318297,2.508062,0.99980795
1.146,2.9795885,4.829377,5.4587603,-4.260045,2.5689855,1.0032468
1.148,3.015289,5.1478195,5.0165076,-4.3887277,2.6264,1.004091
1.15,3.0574772,5.4709396,4.559844,-4.518451,2.6793697,1.0023152
1.152,3.106852,5.796317,4.0905943,-4.6497817,2.7269342,0.9979814
1.154,3.1637294,6.121344,3.610899,-4.783229,2.7681208,0.9912009
1.156,3.2285554,6.443509,3.1233072,-4.9192157,2.8019776,0.9821062
1.158,3.301577,6.760386,2.6306305,-5.0580544,2.827663,0.9707538
1.16,3.3829792,7.0692434,2.1359806,-5.1999016,2.8444295,0.9571098
1.162,3.4728703,7.3677864,1.642856,-5.344737,2.851708,0.9410205
1.164,3.5711122,7.653699,1.154779,-5.492357,2.8491287,0.922189
1.166,3.67766,7.924796,0.67531943,-5.6423755,2.8365254,0.9002286
1.168,3.7919943,8.179169,0.2080996,-5.7942467,2.8139446,0.8747177
1.17,3.9137003,8.415264,-0.24326205,-5.9473276,2.781641,0.8452599
1.172,4.042204,8.63158,-0.67530406,-6.100927,2.740068,0.81155694
1.174,4.1769686,8.827057,-1.0848585,-6.2543254,2.6899092,0.7734767
1.176,4.317222,9.000937,-1.4689178,-6.40683,2.6320343,0.73107886
1.178,4.462303,9.152738,-1.8248956,-6.557773,2.567523,0.6846247
1.18,4.6116886,9.282462,-2.1506977,-6.7065244,2.4976323,0.63456464
1.182,4.7646146,9.39046,-2.4445653,-6.852484,2.423769,0.58149123
1.184,4.9202228,9.4774065,-2.7052338,-6.995072,2.3474355,0.52612615
1.186,5.0779705,9.544125,-2.9320717,-7.1337004,2.2701979,0.46922493
1.188,5.2374473,9.591693,-3.1247501,-7.267781,2.1936083,0.4115256
1.19,5.397987,9.621766,-3.2834868,-7.3967357,2.1191404,0.3537246
1.192,5.5593233,9.635811,-3.4091234,-7.5199904,2.0481553,0.2964344
1.194,5.720973,9.63584,-3.5029404,-7.636991,1.9818686,0.24015236
1.196,5.8825583,9.623753,-3.5665855,-7.747243,1.9213383,0.18524933
1.198,6.0439715,9.601566,-3.602088,-7.850308,1.8674853,0.13196683
1.2,6.2049537,9.571562,-3.6117475,-7.9458275,1.8210614,0.08041096
1.202,6.3652077,9.536012,-3.5982013,-8.033554,1.7826697,0.030572534
1.204,6.524749,9.497165,-3.564042,-8.11333,1.7527748,-0.017634034
1.206,6.683321,9.457164,-3.512076,-8.185108,1.731701,-0.06430364
1.208,6.840894,9.4181385,-3.445099,-8.248954,1.7196436,-0.10953009
1.21,6.9975905,9.381864,-3.3658724,-8.305005,1.7167131,-0.15338576
1.212,7.1531153,9.350352,-3.277023,-8.353459,1.7228757,-0.19585633
1.214,7.3072157,9.325068,-3.1810102,-8.394577,1.7379394,-0.2368846
1.216,7.4598627,9.307367,-3.0802302,-8.428655,1.7615635,-0.27632403
1.218,7.6105595,9.29843,-2.9769387,-8.456001,1.7932587,-0.31395543
1.22,7.7589283,9.299093,-2.873033,-8.47694,1.8324761,-0.34957552
1.222,7.9045243,9.310063,-2.7703762,-8.491789,1.8785855,-0.38299954
1.224,8.046927,9.3317175,-2.6702604,-8.500798,1.9309444,-0.41408646
1.226,8.185591,9.364433,-2.5740018,-8.504133,1.9889834,-0.44280887
1.228,8.320042,9.408162,-2.4824255,-8.501842,2.0522304,-0.46930206
1.23,8.44974,9.462621,-2.3961666,-8.493803,2.1203713,-0.49384177
1.232,8.573968,9.52747,-2.3157208,-8.479744,2.1932933,-0.5168376
1.234,8.692453,9.602128,-2.2412257,-8.459199,2.2710779,-0.5387876
1.236,8.804561,9.686059,-2.1729856,-8.431553,2.3540595,-0.56023157
1.238,8.909928,9.778367,-2.1110344,-8.396056,2.442761,-0.5816747
1.24,9.008254,9.878365,-2.0553622,-8.351914,2.5378299,-0.60348785
1.242,9.099191,9.98524,-2.006043,-8.298351,2.6400132,-0.62587345
1.244,9.182464,10.098146,-1.9630733,-8.234698,2.750071,-0.64881456
1.246,9.258007,10.216408,-1.9264212,-8.160468,2.8687046,-0.6720681
1.248,9.32602,10.339281,-1.8962317,-8.075422,2.9964643,-0.69517255
1.25,9.386805,10.466223,-1.8727226,-7.979602,3.1337295,-0.71747136
1.252,9.440683,10.596717,-1.8561854,-7.8733244,3.280662,-0.73819554
1.254,9.48815,10.730356,-1.846971,-7.75716,3.437195,-0.75652903
1.256,9.529815,10.867127,-1.8455844,-7.631893,3.6030087,-0.771687
1.258,9.56632,11.006989,-1.8526769,-7.4984756,3.7775288,-0.7829564
1.26,9.598545,11.149955,-1.8686914,-7.357974,3.9599688,-0.7897823
1.262,9.627291,11.296209,-1.8943915,-7.2114787,4.1493387,-0.7917822
1.264,9.653532,11.446028,-1.9302979,-7.06008,4.344449,-0.7887526
1.266,9.678244,11.59978,-1.9770193,-6.9048457,4.5439897,-0.78070676
1.268,9.70252,11.757637,-2.0352902,-6.7467613,4.7466063,-0.7678201
1.27,9.727098,11.920081,-2.1055784,-6.5867195,4.950918,-0.75045985
1.272,9.752953,12.087365,-2.1884565,-6.4255223,5.155579,-0.72912925
1.274,9.781027,12.259668,-2.284195,-6.263877,5.3592787,-0.7044498
1.276,9.811963,12.437257,-2.393004,-6.1023874,5.560829,-0.6771132
1.278,9.846647,12.620003,-2.5150347,-5.9416184,5.7591634,-0.6478687
1.28,9.88574,12.807722,-2.6502285,-5.7820897,5.9533443,-0.6174645
1.282,9.929859,13.000059,-2.7983675,-5.624286,6.1425653,-0.58659685
1.284,9.979372,13.196481,-2.9590778,-5.4686723,6.326163,-0.5559394
1.286,10.034913,13.396178,-3.1317706,-5.3156834,6.5035586,-0.5261318
1.288,10.096676,13.598264,-3.3156528,-5.165723,6.6742945,-0.49776667
1.29,10.164681,13.801493,-3.5097742,-5.0191417,6.837959,-0.47138357
1.292,10.239322,14.004406,-3.7130013,-4.8762293,6.994215,-0.4474653
1.294,10.320885,14.205456,-3.9240541,-4.7371793,7.142796,-0.42646855
1.296,10.409189,14.40299,-4.141385,-4.6020775,7.2835073,-0.4087931
1.298,10.504274,14.595325,-4.36331,-4.4708767,7.4162254,-0.39481556
1.3,10.606161,14.780697,-4.5882497,-4.3434377,7.540948,-0.384902
1.302,10.714787,14.95722,-4.8141794,-4.2194805,7.657796,-0.37939715
1.304,10.830042,15.122912,-5.039116,-4.0986776,7.767008,-0.37861645
1.306,10.951961,15.276131,-5.261073,-3.9806495,7.868936,-0.3828466
1.308,11.080353,15.414927,-5.478058,-3.86501,7.9640613,-0.39231992
1.31,11.215165,15.5376835,-5.6882997,-3.7513962,8.052965,-0.40718663
1.312,11.356231,15.642793,-5.8899307,-3.6394901,8.136362,-0.42751622
1.314,11.503384,15.729015,-6.0812893,-3.5290308,8.215021,-0.45326388
1.316,11.656525,15.795277,-6.260922,-3.419814,8.289774,-0.48427713
1.318,11.815422,15.840681,-6.4276237,-3.3116903,8.361473,-0.5202985
1.32,11.979776,15.864729,-6.5803337,-3.2045357,8.430974,-0.5609571
1.322,12.149323,15.866925,-6.718257,-3.0982559,8.499094,-0.6057699
1.324,12.323992,15.847371,-6.840848,-2.9927704,8.566605,-0.6541959
1.326,12.503379,15.806246,-6.947775,-2.8879833,8.634193,-0.70566547
1.328,12.687369,15.744143,-7.038933,-2.783785,8.702441,-0.7595854
1.33,12.875685,15.661774,-7.1144495,-2.6800818,8.771821,-0.8153933
1.332,13.067969,15.560173,-7.174716,-2.576728,8.842667,-0.8725771
1.334,13.263919,15.440556,-7.2204633,-2.473584,8.9151535,-0.93068326
1.336,13.463078,15.303984,-7.252278,-2.3704927,8.989299,-0.9893532
1.338,13.664995,15.152151,-7.271216,-2.2673023,9.06495,-1.0482861
1.34,13.869234,14.986523,-7.2781763,-2.163845,9.14181,-1.107286
1.342,14.075397,14.808605,-7.2742133,-2.0599911,9.219418,-1.1662652
1.344,14.282825,14.619962,-7.260454,-1.9556491,9.297181,-1.225236
1.346,14.491121,14.42193,-7.2379365,-1.8507879,9.374384,-1.2843182
1.348,14.699553,14.215954,-7.2076817,-1.7454493,9.450241,-1.343704
1.35,14.907525,14.003221,-7.1706667,-1.6397719,9.523872,-1.4036509
1.352,15.114387,13.785018,-7.127815,-1.5339732,9.594387,-1.4644343
1.354,15.319535,13.562366,-7.0800343,-1.4283648,9.660881,-1.5263422
1.356,15.522245,13.336311,-7.028062,-1.3233094,9.72249,-1.5896492
1.358,15.72182,13.107716,-6.972551,-1.2192087,9.778417,-1.6545914
1.36,15.917504,12.877305,-6.914073,-1.1164536,9.827952,-1.7213471
1.362,16.108849,12.645647,-6.8530836,-1.0154142,9.870521,-1.79002
1.364,16.29526,12.413353,-6.789998,-0.9163871,9.905657,-1.8606285
1.366,16.476154,12.180699,-6.7249594,-0.8195925,9.933025,-1.9330963
1.368,16.651125,11.948194,-6.65824,-0.7251644,9.952401,-2.0072334
1.37,16.819569,11.7161875,-6.590153,-0.63317156,9.963725,-2.082743
1.372,16.981249,11.484918,-6.5207167,-0.5435815,9.967038,-2.1592617
1.374,17.135788,11.254604,-6.4500093,-0.4563203,9.962515,-2.236384
1.376,17.28286,11.0254965,-6.3781033,-0.37126493,9.950401,-2.3136816
1.378,17.422462,10.797806,-6.304888,-0.2883029,9.931006,-2.3906946
1.38,17.554771,10.571722,-6.230279,-0.20732117,9.904724,-2.4669611
1.382,17.679651,10.347359,-6.154303,-0.1282363,9.871983,-2.542048
1.384,17.796967,10.124964,-6.0770164,-0.050985336,9.833201,-2.6155996
1.386,17.90693,9.904597,-5.9984813,0.024436474,9.788811,-2.687319
1.388,18.009682,9.686592,-5.918772,0.098008156,9.739244,-2.7569704
1.39,18.105211,9.471321,-5.8379617,0.16969585,9.684941,-2.8244271
1.392,18.19395,9.258872,-5.756121,0.2394619,9.626326,-2.8896246
1.394,18.275997,9.049442,-5.6732435,0.30727196,9.563807,-2.952578
1.396,18.35132,8.843169,-5.5894394,0.37310934,9.497783,-3.013337
1.398,18.4203,8.640002,-5.5047126,0.43697834,9.428644,-3.0719993
1.4,18.483181,8.440034,-5.4190974,0.49889803,9.356764,-3.1286824
1.402,18.539742,8.243353,-5.332789,0.5589137,9.282469,-3.1835084
1.404,18.59024,8.0499735,-5.2458725,0.6170764,9.206087,-3.236588
1.406,18.63483,7.8599367,-5.158463,0.6734319,9.127903,-3.2879996
1.408,18.67349,7.673063,-5.070603,0.7280252,9.048188,-3.3378217
1.41,18.706236,7.4892445,-4.982214,0.7808914,8.967172,-3.3861086
1.412,18.73309,7.3083405,-4.893453,0.8320744,8.885032,-3.4329116
1.414,18.753897,7.1302204,-4.804375,0.8815887,8.801918,-3.4782586
1.416,18.768568,6.954667,-4.7149124,0.9294584,8.717959,-3.5221577
1.418,18.77702,6.7816515,-4.625074,0.97574854,8.633293,-3.5646148
1.42,18.779057,6.6108212,-4.5349493,1.0205469,8.548017,-3.6056468
1.422,18.77465,6.4421773,-4.4445944,1.0639911,8.462256,-3.6452677
1.424,18.763546,6.27545,-4.353949,1.1062174,8.376096,-3.6834643
1.426,18.745651,6.110608,-4.2633343,1.1473541,8.289657,-3.7201762
1.428,18.720938,5.9476466,-4.172861,1.1875341,8.203062,-3.7552862
1.43,18.68939,5.7865696,-4.0826035,1.2268498,8.116411,-3.788622
1.432,18.651045,5.6274257,-3.9927313,1.2653837,8.029812,-3.8199687
1.434,18.605602,5.4702973,-3.9034877,1.303201,7.9433246,-3.8490825
1.436,18.55326,5.3152227,-3.8150632,1.3403254,7.8569565,-3.8757153
1.438,18.493942,5.1621943,-3.7275991,1.3767481,7.7706776,-3.8996353
1.44,18.427746,5.0114684,-3.6413302,1.4124029,7.684369,-3.9206583
1.442,18.354578,4.863218,-3.5563624,1.4471632,7.5977993,-3.9386163
1.444,18.274603,4.7176213,-3.4727285,1.4808413,7.510643,-3.9533553
1.446,18.187874,4.5748878,-3.3905785,1.5131707,7.4225054,-3.9647884
1.448,18.094646,4.4350386,-3.309808,1.5438406,7.3329864,-3.9728699
1.45,17.995047,4.298178,-3.230407,1.5724801,7.241645,-3.977573
1.452,17.889084,4.1644764,-3.1521327,1.5986807,7.1480904,-3.9789262
1.454,17.777014,4.0340757,-3.0749319,1.6220428,7.052001,-3.9769979
1.456,17.65891,3.9071217,-2.9983804,1.6421882,6.953188,-3.9719212
1.458,17.535124,3.7837033,-2.9223204,1.6588358,6.851536,-3.9638867
1.46,17.405905,3.663928,-2.8464975,1.6718081,6.747043,-3.953174
1.462,17.271345,3.547812,-2.770442,1.6810228,6.6397977,-3.9401107
1.464,17.131798,3.4353986,-2.6937816,1.6865151,6.5299997,-3.9250407
1.466,16.987564,3.326643,-2.6160688,1.6884177,6.4179125,-3.908322
1.468,16.838924,3.221581,-2.536819,1.6869681,6.3038425,-3.8902693
1.47,16.686113,3.1201458,-2.4553602,1.6824421,6.1881013,-3.87114
1.472,16.529268,3.0223055,-2.3711684,1.6751659,6.071021,-3.8510985
1.474,16.368809,2.927875,-2.283736,1.6654619,5.952939,-3.8302436
1.476,16.205093,2.836989,-2.1925454,1.6536757,5.834203,-3.8086133
1.478,16.038378,2.7495065,-2.0969756,1.6401651,5.7151976,-3.7861962
1.48,15.86917,2.6654453,-1.9965222,1.6252879,5.596289,-3.7629395
1.482,15.697604,2.5848851,-1.8908026,1.609396,5.477885,-3.7387934
1.484,15.524205,2.5079613,-1.779486,1.5928311,5.360416,-3.7137148
1.486,15.34935,2.4345918,-1.662246,1.5759056,5.2443385,-3.6876452
1.488,15.173349,2.3650703,-1.5389924,1.558882,5.1301346,-3.66047
1.49,14.996326,2.2995338,-1.4096959,1.5420225,5.0183315,-3.6320305
1.492,14.818895,2.2380908,-1.2742022,1.5255553,4.9094667,-3.602085
1.494,14.641584,2.1808693,-1.1324649,1.5096822,4.804137,-3.5703325
1.496,14.464659,2.1279585,-0.98461103,1.4945577,4.7029505,-3.536418
1.498,14.288466,2.0793862,-0.83088434,1.4803096,4.6065383,-3.4999256
1.5,14.113321,2.0351133,-0.67170143,1.4670279,4.5154743,-3.4603927
1.502,13.939401,1.9953098,-0.5075227,1.4547577,4.4302936,-3.4173818
1.504,13.767009,1.9599736,-0.33890164,1.4435518,4.3514767,-3.3704965
1.506,13.596494,1.9290771,-0.16643178,1.4334445,4.2793617,-3.319409
1.508,13.427985,1.9025838,0.00919342,1.4244664,4.2141924,-3.2639256
1.51,13.261611,1.8804026,0.18726945,1.4166653,4.156041,-3.2040036
1.512,13.097769,1.8622258,0.36720455,1.4100986,4.10488,-3.139759
1.514,12.936332,1.847801,0.5480857,1.404855,4.0605493,-3.0714145
1.516,12.777521,1.8367636,0.7291814,1.4010446,4.0227633,-2.999325
1.518,12.621375,1.8287716,0.9095788,1.3987789,3.9911342,-2.9239035
1.52,12.468083,1.8234143,1.0884528,1.3981531,3.965205,-2.8456097
1.522,12.317498,1.8206038,1.2651545,1.3992314,3.9444637,-2.7649035
1.524,12.169818,1.819871,1.4387934,1.4020221,3.92838,-2.6822097
1.526,12.025152,1.8207474,1.608626,1.4064593,3.9164066,-2.5978448
1.528,11.883372,1.8230968,1.7738457,1.4124134,3.908009,-2.5120373
1.53,11.744675,1.8265717,1.9339643,1.4196551,3.9026403,-2.424934
1.532,11.60903,1.8308935,2.0882425,1.4278669,3.8997402,-2.3366609
1.534,11.47663,1.8358448,2.2361245,1.4366583,3.8987646,-2.24733
1.536,11.347415,1.8412654,2.377285,1.4455851,3.899148,-2.1570241
1.538,11.221442,1.8468297,2.5114264,1.45417,3.90033,-2.06583
1.54,11.0986395,1.852433,2.6382353,1.4619328,3.901703,-1.973874
1.542,10.979194,1.8580463,2.757516,1.4684215,3.902608,-1.8813267
1.544,10.863104,1.8634205,2.8692572,1.4731948,3.9023402,-1.7884045
1.546,10.75029,1.8686676,2.9736247,1.4758571,3.9001274,-1.6953709
1.548,10.640883,1.8736446,3.070844,1.4760797,3.8951788,-1.6025298
1.55,10.534777,1.8781857,3.1611564,1.473593,3.886709,-1.5101979
1.552,10.432187,1.8821689,3.2451072,1.4681675,3.873958,-1.4187158
1.554,10.332916,1.8854984,3.3230891,1.4596498,3.8562784,-1.3284303
1.556,10.237152,1.8881619,3.395759,1.447947,3.833138,-1.2396811
1.558,10.144622,1.8899344,3.46383,1.433013,3.8041792,-1.1528101
1.56,10.055324,1.8908125,3.5280282,1.4148722,3.7692766,-1.0681356
1.562,9.969264,1.8905449,3.5890412,1.3936002,3.728482,-0.98592085
1.564,9.886506,1.8888416,3.6477764,1.369338,3.6820495,-0.9063837
1.566,9.8069515,1.8856184,3.704853,1.3422475,3.6304054,-0.8296888
1.568,9.73047,1.8808115,3.7611747,1.3125465,3.5740929,-0.75590205
1.57,9.656962,1.8741791,3.8174496,1.2804804,3.5137644,-0.68503255
1.572,9.586492,1.8657218,3.874271,1.2463144,3.4501219,-0.61703044
1.574,9.518718,1.8554136,3.9323301,1.2103237,3.3838828,-0.55177426
1.576,9.453437,1.8433964,3.9920027,1.1727855,3.3157554,-0.4890799
1.578,9.3905735,1.8296695,4.0536976,1.1339679,3.2464144,-0.42874074
1.58,9.330024,1.8143914,4.1175823,1.0941293,3.176476,-0.37056
1.582,9.271684,1.7976635,4.1838655,1.0535274,3.1064954,-0.31433034
1.584,9.215213,1.7798797,4.2526913,1.0124153,3.0369594,-0.25984728
1.586,9.160384,1.7610857,4.32397,0.97103417,2.9682922,-0.2069031
1.588,9.106902,1.7416909,4.397693,0.9296024,2.9008157,-0.1553188
1.59,9.054405,1.7220191,4.4735746,0.8883251,2.8347807,-0.10495442
1.592,9.002641,1.7023271,4.5514235,0.84738463,2.7703562,-0.055660605
1.594,8.9512205,1.6830647,4.630891,0.80693406,2.7076688,-0.0073016286
1.596,8.89979,1.664746,4.7115893,0.76710206,2.6467767,0.040241778
1.598,8.8479395,1.6476524,4.7932277,0.7279934,2.5877018,0.087096214
1.6,8.795401,1.6322807,4.875374,0.6896812,2.5304356,0.13336372
1.602,8.741786,1.6191322,4.9576316,0.6521728,2.474924,0.17916527
1.604,8.686667,1.6086968,5.0395093,0.6154371,2.4210944,0.22458854
1.606,8.629818,1.6014067,5.1207194,0.5794092,2.3688662,0.26972136
1.608,8.570892,1.5976647,5.2009478,0.54397005,2.3181353,0.31466132
1.61,8.509679,1.5978872,5.2798057,0.5089623,2.2687914,0.3594591
1.612,8.445831,1.6024727,5.357142,0.47420394,2.2206972,0.40415788
1.614,8.379166,1.6117367,5.4325986,0.43948042,2.1736944,0.4487703
1.616,8.309575,1.625936,5.5058813,0.4045762,2.1276345,0.49329856
1.618,8.236931,1.6451986,5.576872,0.3692638,2.082333,0.5377178
1.62,8.16116,1.6696533,5.6454406,0.33335766,2.037598,0.5819882
1.622,8.082271,1.6993815,5.711442,0.29670015,1.9932388,0.62599885
1.624,8.000437,1.7343558,5.774884,0.25917345,1.9490385,0.66964936
1.626,7.9156795,1.7745099,5.8356547,0.22074011,1.904808,0.7128069
1.628,7.828288,1.8196892,5.893835,0.18140444,1.8603894,0.7553229
1.63,7.7385178,1.8696104,5.9494567,0.14123577,1.8156462,0.79702157
1.632,7.646696,1.9239166,6.0025754,0.10035166,1.7704784,0.8377355
1.634,7.553341,1.9822592,6.0531993,0.05888453,1.7248439,0.8773056
1.636,7.4586368,2.044265,6.101505,0.016981944,1.6787328,0.91557515
1.638,7.36328,2.1092873,6.1477184,-0.025212795,1.6321805,0.9524094
1.64,7.267627,2.1769314,6.1919093,-0.06759058,1.5852453,0.98770964
1.642,7.1722665,2.2465382,6.234421,-0.1100698,1.5380148,1.0213919
1.644,7.0776396,2.3175318,6.2752748,-0.15261793,1.4905965,1.0533855
1.646,6.984482,2.3892097,6.314807,-0.19523048,1.443105,1.0836248
1.648,6.893262,2.4610872,6.35309,-0.23791406,1.3956573,1.1120394
1.65,6.8048286,2.5324147,6.3903494,-0.28069726,1.3483803,1.138535
1.652,6.7195835,2.6025116,6.4267817,-0.32360977,1.3014128,1.1630075
1.654,6.6383543,2.67074,6.4626637,-0.3666559,1.2549022,1.185335
1.656,6.5615,2.7364306,6.497963,-0.40980804,1.2090034,1.2053595
1.658,6.4896173,2.799154,6.5327964,-0.45303518,1.1638986,1.2229317
1.66,6.4231625,2.8582807,6.5674486,-0.49627402,1.1197803,1.2379036
1.662,6.3625207,2.9133654,6.6018176,-0.5394411,1.0768691,1.250152
1.664,6.3080683,2.9639602,6.6362305,-0.58244073,1.035389,1.2595994
1.666,6.2601013,3.00963,6.6705775,-0.6251793,0.9955774,1.2662017
1.668,6.2189007,3.0501804,6.7050204,-0.66753775,0.95763016,1.2699974
1.67,6.18465,3.085244,6.739545,-0.7094032,0.9217489,1.2710729
1.672,6.157467,3.1147175,6.774272,-0.75065583,0.8881339,1.2695686
1.674,6.137376,3.1385744,6.8091826,-0.79118276,0.8569547,1.2656817
1.676,6.1242943,3.1566308,6.8443685,-0.8308843,0.8283677,1.2596712
1.678,6.1182237,3.1689878,6.879733,-0.8696645,0.8025125,1.2518196
1.68,6.1188116,3.1758742,6.9153075,-0.90744495,0.77950144,1.242445
1.682,6.1259203,3.177428,6.951129,-0.94414604,0.75944614,1.2318695
1.684,6.1393194,3.1738687,6.9870996,-0.9796998,0.74245965,1.2204123
1.686,6.158743,3.16553,7.023316,-1.0140661,0.72865725,1.2083806
1.688,6.1837025,3.1528234,7.059643,-1.0472016,0.7181494,1.1960447
1.69,6.213716,3.1362154,7.0959244,-1.0790931,0.71104777,1.1836319
1.692,6.248334,3.1163278,7.1321597,-1.1097366,0.7074655,1.1713141
1.694,6.286931,3.0935688,7.1681786,-1.1391598,0.70749545,1.1592218
1.696,6.329147,3.0686011,7.203846,-1.1674172,0.7112105,1.1474379
1.698,6.374493,3.0419176,7.238992,-1.1945689,0.7186493,1.1360116
1.7,6.4221926,3.0141928,7.273536,-1.2207146,0.7298231,1.1249648
1.702,6.471861,2.9859934,7.3073635,-1.2459654,0.7446996,1.1143141
1.704,6.5228143,2.95775,7.340299,-1.2704356,0.76319253,1.1040857
1.706,6.5745134,2.9301376,7.3722053,-1.2942543,0.7851738,1.0943104
1.708,6.6264243,2.903684,7.402885,-1.3175479,0.81047666,1.0850142
1.71,6.6779413,2.8788652,7.4322095,-1.3404293,0.83890873,1.0762191
1.712,6.7284145,2.8561602,7.4599094,-1.3629999,0.8702346,1.0679379
1.714,6.7773314,2.8360298,7.4859257,-1.3853503,0.90421593,1.060172
1.716,6.824115,2.8189135,7.510053,-1.40756,0.9406159,1.0528685
1.718,6.868239,2.805158,7.5322227,-1.4296892,0.9792109,1.0459526
1.72,6.909278,2.795041,7.5522437,-1.4517717,1.0197706,1.0393149
1.722,6.946782,2.788717,7.5700026,-1.4738369,1.0621008,1.0328096
1.724,6.9803553,2.786446,7.58558,-1.4959024,1.1059861,1.0262852
1.726,7.0095186,2.7884545,7.598868,-1.5179743,1.1512326,1.0196003
1.728,7.0338507,2.7948577,7.609767,-1.5400537,1.1976643,1.0126328
1.73,7.05313,2.8057246,7.618311,-1.5621461,1.2451102,1.0052896
1.732,7.0668893,2.821115,7.6244717,-1.5842531,1.2934183,0.99750817
1.734,7.074844,2.8410208,7.628256,-1.6063992,1.3424424,0.98927295
1.736,7.0768247,2.8654382,7.6297274,-1.6286216,1.392036,0.9806214
1.738,7.072548,2.8943865,7.628892,-1.650955,1.4420674,0.9716166
1.74,7.0618625,2.9278002,7.6257315,-1.6734455,1.4923996,0.9623319
1.742,7.0445876,2.9656048,7.6204934,-1.6961591,1.5429033,0.9528723
1.744,7.0206566,3.0077062,7.6133633,-1.7191597,1.5934343,0.94336593
1.746,6.990158,3.0540183,7.604237,-1.7425008,1.6438506,0.9339256
1.748,6.9529424,3.1044567,7.5932736,-1.7662221,1.6940136,0.9246661
1.75,6.9092283,3.1588035,7.580665,-1.7903528,1.7437745,0.9157145
1.752,6.859179,3.216861,7.566401,-1.814936,1.7930067,0.90719885
1.754,6.8029604,3.278498,7.5506434,-1.8399882,1.8415802,0.89922065
1.756,6.740826,3.3432794,7.533526,-1.8655151,1.8893732,0.8918932
1.758,6.6730146,3.410994,7.51527,-1.8915362,1.936281,0.88529414
1.76,6.5999193,3.4814203,7.495962,-1.9180455,1.9821863,0.8794717
1.762,6.5220213,3.55412,7.475776,-1.9450575,2.027001,0.874445
1.764,6.43978,3.6288226,7.4547453,-1.972571,2.0706487,0.87017274
1.766,6.353841,3.7050672,7.433219,-2.000576,2.113074,0.86656576
1.768,6.2646127,3.7822807,7.411267,-2.0290656,2.1542199,0.86345875
1.77,6.172964,3.8601131,7.3889894,-2.0580406,2.1940517,0.8606756
1.772,6.0794125,3.9379559,7.36661,-2.087503,2.232543,0.8579872
1.774,5.9847307,4.015388,7.344106,-2.117463,2.269695,0.85517526
1.776,5.8894763,4.091818,7.3216686,-2.1479223,2.3055067,0.8520167
1.778,5.794285,4.166811,7.29937,-2.1788716,2.3399916,0.84832996
1.78,5.699773,4.2398224,7.2773175,-2.2103062,2.3731759,0.84398884
1.782,5.6064663,4.3105154,7.2555485,-2.2422066,2.4050784,0.83890265
1.784,5.5150065,4.3784657,7.2341323,-2.2745347,2.4357321,0.833046
1.786,5.425845,4.443452,7.2130685,-2.3072405,2.4651794,0.8264708
1.788,5.339452,4.5051417,7.1922855,-2.3402724,2.4934628,0.8192493
1.79,5.2563043,4.5633717,7.171838,-2.3735542,2.520644,0.81149167
1.792,5.1766996,4.6180525,7.1516385,-2.4070272,2.5467927,0.80336434
1.794,5.1008797,4.6692333,7.131605,-2.440633,2.5719943,0.7950572
1.796,5.029026,4.7168837,7.1115503,-2.4743044,2.5963452,0.7867733
1.798,4.961261,4.7612257,7.0914793,-2.5079985,2.619965,0.7787368
1.8,4.8977757,4.802506,7.0713444,-2.5416799,2.64296,0.7711978
1.802,4.838518,4.840895,7.050956,-2.5753345,2.6654441,0.7643994
1.804,4.7835417,4.8768244,7.0301533,-2.6089528,2.6875253,0.7585858
1.806,4.7326627,4.910674,7.008848,-2.6425357,2.7092743,0.7539888
1.808,4.6857595,4.9428773,6.9868727,-2.676097,2.7307723,0.7508196
1.81,4.642966,4.973854,6.9641585,-2.7096543,2.7520857,0.7492284
1.812,4.6038055,5.004136,6.9404297,-2.743218,2.7732625,0.74930626
1.814,4.568168,5.0341988,6.9156313,-2.7768037,2.7943473,0.7510803
1.816,4.535734,5.0645075,6.8896036,-2.8103952,2.8153484,0.7545086
1.818,4.50623,5.095455,6.862258,-2.8440015,2.836252,0.759491
1.82,4.4794364,5.1274943,6.833461,-2.8776157,2.8570561,0.76587343
1.822,4.4550314,5.1610293,6.8031445,-2.9112082,2.8777297,0.7734898
1.824,4.432639,5.1965094,6.771265,-2.9447505,2.8982248,0.7821559
1.826,4.4121156,5.2341585,6.737765,-2.9782128,2.9184885,0.7917117
1.828,4.3930583,5.274268,6.702489,-3.011568,2.9384634,0.80200934
1.83,4.375138,5.317128,6.6655817,-3.0447962,2.9580936,0.81295234
1.832,4.358216,5.362895,6.6269035,-3.077891,2.9773252,0.8244822
1.834,4.3419285,5.4117346,6.5864487,-3.1108267,2.9961057,0.83654976
1.836,4.326085,5.4637256,6.5442295,-3.1435912,3.0143986,0.8491444
1.838,4.3105273,5.5188622,6.5002933,-3.1761649,3.0321803,0.8622634
1.84,4.2949786,5.577163,6.454626,-3.2085094,3.0494304,0.8758912
1.842,4.279513,5.6385326,6.407222,-3.2405784,3.066141,0.89000875
1.844,4.2638407,5.7028704,6.3580723,-3.2723253,3.082317,0.90457094
1.846,4.247942,5.7700152,6.307241,-3.3036847,3.0979743,0.91951036
1.848,4.2317157,5.8397455,6.254635,-3.3345704,3.1131299,0.9347305
1.85,4.215029,5.911986,6.200349,-3.3649054,3.127809,0.95013356
1.852,4.198025,5.986351,6.1442466,-3.3946137,3.1420527,0.9656037
1.854,4.1805744,6.062707,6.086367,-3.423614,3.1558893,0.98104
1.856,4.1627684,6.140669,6.026699,-3.4518318,3.1693425,0.99635875
1.858,4.1445436,6.2199965,5.96518,-3.4792082,3.1824322,1.0114887
1.86,4.1259127,6.300378,5.901796,-3.505692,3.195168,1.026372
1.862,4.107005,6.381476,5.836575,-3.5312576,3.2075253,1.0409808
1.864,4.087799,6.462957,5.7694216,-3.555895,3.219462,1.0553031
1.866,4.068326,6.5445714,5.700292,-3.5796032,3.2309232,1.0693464
1.868,4.048756,6.625856,5.6291184,-3.6023874,3.2418218,1.0831114
1.87,4.028861,6.706505,5.555905,-3.6242895,3.2520912,1.0965815
1.872,4.008863,6.7861886,5.480654,-3.6453285,3.2616396,1.1097264
1.874,3.9886909,6.864478,5.403385,-3.6655288,3.2703686,1.1225011
1.876,3.9684265,6.9410443,5.324079,-3.6849267,3.2782116,1.1348361
1.878,3.9480088,7.0155334,5.242648,-3.703545,3.285109,1.1466141
1.88,3.9272768,7.0876446,5.1592474,-3.7214115,3.2910142,1.1577188
1.882,3.9063704,7.157033,5.0738425,-3.738549,3.2958827,1.1680169
1.884,3.885089,7.223345,4.986456,-3.754967,3.299693,1.177371
1.886,3.863402,7.2863536,4.8971763,-3.7706492,3.3024313,1.1856574
1.888,3.8413513,7.345652,4.8060308,-3.785583,3.3040905,1.1927845
1.89,3.818647,7.401241,4.7131195,-3.7997308,3.3046749,1.1986997
1.892,3.795373,7.452587,4.6184506,-3.8130393,3.30416,1.2033721
1.894,3.7713559,7.4996123,4.522107,-3.8254545,3.3025389,1.2068305
1.896,3.7466102,7.542077,4.424158,-3.8369186,3.2998142,1.2091504
1.898,3.7208006,7.5799046,4.3247194,-3.8473713,3.2959628,1.2104456
1.9,3.6940293,7.612918,4.2238083,-3.856772,3.2909698,1.2108363
1.902,3.6660662,7.6411386,4.1214743,-3.8650975,3.284834,1.2104642
1.904,3.6369874,7.6644516,4.0178175,-3.8723502,3.2775445,1.2094722
1.906,3.6067798,7.682824,3.9129386,-3.8785293,3.2691028,1.2079865
1.908,3.5753045,7.696274,3.8068345,-3.883672,3.2595196,1.206105
1.91,3.5425503,7.704811,3.6994836,-3.887814,3.2488117,1.2039095
1.912,3.5085754,7.7085876,3.5909443,-3.8909945,3.2370071,1.201451
1.914,3.4733608,7.7075677,3.4813747,-3.893246,3.224143,1.1987541
1.916,3.4368527,7.701834,3.3706818,-3.894575,3.210266,1.1958259
1.918,3.3991685,7.6915855,3.2589695,-3.8949845,3.1954355,1.1926503
1.92,3.3601682,7.6769037,3.146202,-3.8944616,3.179707,1.1891954
1.922,3.3200371,7.6578627,3.0324397,-3.8929567,3.1631455,1.1854274
1.924,3.278755,7.63466,2.9177003,-3.8904004,3.1457958,1.1813302
1.926,3.2364151,7.6073103,2.8019075,-3.8867328,3.127707,1.1768742
1.928,3.192956,7.5760517,2.685159,-3.881883,3.1088953,1.1720496
1.93,3.148421,7.540926,2.5673594,-3.875769,3.0893755,1.1668605
1.932,3.102875,7.5021553,2.4485452,-3.86831,3.0691447,1.161351
1.934,3.0562615,7.4597387,2.3286586,-3.8594463,3.04819,1.1555519
1.936,3.0084834,7.413909,2.2076414,-3.8491287,3.0264897,1.1495225
1.938,2.959532,7.3648705,2.085615,-3.837331,3.0040185,1.14334
1.94,2.9094028,7.3126984,1.9624376,-3.8240516,2.9807367,1.137068
1.942,2.8579307,7.25764,1.8381546,-3.8092957,2.9566174,1.1307715
1.944,2.8051488,7.199965,1.7127464,-3.7930918,2.9316287,1.1245137
1.946,2.750898,7.139822,1.5862715,-3.7754993,2.9057565,1.1183612
1.948,2.6951263,7.077416,1.4587591,-3.7565596,2.8789606,1.1123582
1.95,2.6378126,7.013097,1.3301401,-3.7363262,2.8512125,1.1065305
1.952,2.5788088,6.947091,1.200536,-3.7148666,2.822488,1.1009078
1.954,2.5180306,6.8796353,1.0700982,-3.6922371,2.7927527,1.0955245
1.956,2.4554505,6.8110394,0.93883085,-3.6684883,2.7619572,1.0903949
1.958,2.391086,6.741447,0.80689,-3.6436634,2.7300625,1.0855258
1.96,2.324822,6.671111,0.67450786,-3.617822,2.6970105,1.0809313
1.962,2.256816,6.6002874,0.5416806,-3.5910106,2.6627574,1.0766134
1.964,2.1869504,6.5290694,0.40862608,-3.563274,2.6272542,1.0725663
1.966,2.1152406,6.4578004,0.2756443,-3.5346656,2.5904534,1.0687737
1.968,2.0418422,6.3865657,0.14291525,-3.5052285,2.5523057,1.0652281
1.97,1.966661,6.315517,0.010755777,-3.475012,2.5127816,1.061902
1.972,1.8897045,6.2447166,-0.12058234,-3.4440448,2.4718518,1.0587729
1.974,1.8113632,6.1741934,-0.2506008,-3.4123425,2.4294882,1.0558109
1.976,1.7315165,6.1040072,-0.37910295,-3.379929,2.3856778,1.0529903
1.978,1.6503848,6.034237,-0.5055481,-3.346804,2.3404334,1.0502766
1.98,1.5681088,5.9647737,-0.62966275,-3.3129315,2.2937708,1.0476595
1.982,1.484718,5.895636,-0.75091577,-3.278286,2.2457128,1.0451388
1.984,1.4004788,5.8268037,-0.86875594,-3.242814,2.1962984,1.0426927
1.986,1.3155001,5.758086,-0.98292434,-3.206479,2.1455708,1.040306
1.988,1.2302033,5.689387,-1.0927848,-3.1692133,2.0935948,1.0379822
1.99,1.1446642,5.620556,-1.1979742,-3.1309671,2.0404425,1.0357087
1.992,1.0590206,5.5515537,-1.2979622,-3.0916805,1.986201,1.0334916
1.994,0.9735623,5.4821777,-1.3923721,-3.0512955,1.9309875,1.0313317
1.996,0.8885267,5.4123116,-1.4808555,-3.009773,1.8749213,1.0292199
1.998,0.8041071,5.3417926,-1.5629985,-2.967061,1.8181388,1.0271446
2,0.7206887,5.270386,-1.638623,-2.9231224,1.7608004,1.025083
2.002,0.6382394,5.1982193,-1.7073298,-2.877944,1.7030892,1.0230172
2.004,0.5569158,5.1250124,-1.7689399,-2.8315146,1.6451802,1.0209218
2.006,0.4770068,5.0507894,-1.8233998,-2.7838397,1.5872664,1.0187545
2.008,0.39872748,4.975382,-1.8705721,-2.7349348,1.5295537,1.0164832
2.01,0.32196522,4.898894,-1.9105073,-2.6848218,1.47222,1.0140833
2.012,0.24701719,4.821176,-1.9432702,-2.633524,1.4154351,1.0115561
2.014,0.17380449,4.742381,-1.9689887,-2.581059,1.3593622,1.0088898
2.016,0.10233926,4.6626167,-1.9878689,-2.5274596,1.3041413,1.0061069
2.018,0.032646596,4.581922,-2.0001523,-2.472752,1.2498707,1.0032464
2.02,-0.03519363,4.5004253,-2.0060754,-2.41696,1.1966527,1.0003718
2.022,-0.10128522,4.4182415,-2.006117,-2.3601239,1.1445754,0.997516
2.024,-0.16563672,4.335612,-2.0007005,-2.3022745,1.0937033,0.99472237
2.026,-0.22823504,4.2526746,-1.9902287,-2.2434683,1.0441028,0.99203587
2.028,-0.28922677,4.1695385,-1.9752702,-2.1837597,0.99586105,0.9894826
2.03,-0.34862873,4.086404,-1.9563241,-2.1232092,0.9490561,0.98707294
2.032,-0.4066546,4.003555,-1.9338777,-2.0618892,0.90376425,0.9848018
2.034,-0.46325052,3.9211278,-1.9084618,-1.9998918,0.86009717,0.98266065
2.036,-0.5186642,3.8392801,-1.8806791,-1.9372766,0.81816614,0.9806126
2.038,-0.57289505,3.7582033,-1.8511097,-1.874131,0.7780683,0.97865266
2.04,-0.62600714,3.6781583,-1.8201759,-1.810519,0.7399287,0.97675514
2.042,-0.67808825,3.5992203,-1.7884848,-1.7464923,0.7038506,0.9748905
2.044,-0.7292277,3.5215015,-1.7565784,-1.6821054,0.6699356,0.97304827
2.046,-0.77958876,3.445249,-1.7247932,-1.6174017,0.63828385,0.9712062
2.048,-0.82909274,3.3704212,-1.6937015,-1.5524216,0.60897005,0.96934766
2.05,-0.87782425,3.2971373,-1.66361,-1.4871876,0.5820779,0.96746635
2.052,-0.9257864,3.2254736,-1.6349456,-1.4217118,0.557667,0.9655348
2.054,-0.9730445,3.1553638,-1.6080253,-1.3560222,0.5357721,0.9635395
2.056,-1.0195847,3.0868323,-1.583042,-1.2901306,0.5164104,0.9614501
2.058,-1.0654544,3.0199554,-1.5603336,-1.224074,0.49958462,0.95921266
2.06,-1.1108791,2.9546382,-1.5399551,-1.1578963,0.48526043,0.95677036
2.062,-1.1556602,2.8907456,-1.5220889,-1.091668,0.473362,0.954042
2.064,-1.1998395,2.828341,-1.5069062,-1.0254866,0.46378782,0.95094055
2.066,-1.2436057,2.76723,-1.4943361,-0.9594685,0.456398,0.94734937
2.068,-1.2869029,2.7073834,-1.4842719,-0.893741,0.45101345,0.94316226
2.07,-1.3297285,2.6486235,-1.4767349,-0.82844794,0.44742256,0.9382812
2.072,-1.3724087,2.5909176,-1.4714569,-0.7637476,0.4454096,0.93260616
2.074,-1.414689,2.5341644,-1.4683588,-0.69979775,0.44472402,0.926062
2.076,-1.4566525,2.4781315,-1.467088,-0.6367487,0.44511127,0.9186243
2.078,-1.4982164,2.4227023,-1.4674386,-0.57472646,0.44634077,0.9102914
2.08,-1.5394343,2.367774,-1.4692473,-0.5138339,0.44819218,0.9010851
2.082,-1.5802104,2.3132238,-1.4720354,-0.45416433,0.45048356,0.8910545
2.084,-1.6206092,2.2589614,-1.4757054,-0.3957693,0.45308614,0.88027334
2.086,-1.6604413,2.204807,-1.4798485,-0.3386843,0.45592153,0.8688335
2.088,-1.6997225,2.1506562,-1.4842408,-0.2829233,0.45895767,0.8568095
2.09,-1.7382562,2.096352,-1.4885972,-0.22848675,0.4622313,0.84428215
2.092,-1.7759334,2.0418427,-1.4926952,-0.17533942,0.46583828,0.8313133
2.094,-1.8126477,1.9869741,-1.4964068,-0.12345194,0.46991402,0.8179475
2.096,-1.8482141,1.9317267,-1.4994481,-0.07278134,0.4746346,0.8041986
2.098,-1.882599,1.8761009,-1.5017633,-0.023271441,0.48020145,0.79006314
2.1,-1.9156625,1.8199948,-1.503363,0.025144354,0.4868065,0.77552974
2.102,-1.9471035,1.7633361,-1.5042038,0.07253237,0.49464226,0.7605806
2.104,-1.9768311,1.7061092,-1.5041604,0.11895113,0.50386786,0.74519217
2.106,-2.004782,1.6484318,-1.5033796,0.16446036,0.51461124,0.72934926
2.108,-2.0309198,1.590233,-1.5020137,0.20912701,0.5269481,0.7130484
2.11,-2.055122,1.5316012,-1.5000687,0.2530009,0.54090416,0.69630474
2.112,-2.0771568,1.4725633,-1.4978203,0.296119,0.5564372,0.67915964
2.114,-2.09714,1.413311,-1.4953895,0.33850616,0.57347053,0.6616628
2.116,-2.1150227,1.3539113,-1.4929821,0.3801546,0.5918869,0.643878
2.118,-2.1306708,1.2944624,-1.4907365,0.4210546,0.6115273,0.6258803
2.12,-2.1440954,1.2351403,-1.488897,0.46118447,0.63220274,0.6077625
2.122,-2.1554685,1.1762015,-1.487535,0.50048786,0.65370965,0.58961177
2.124,-2.1647286,1.1176875,-1.4869645,0.5389195,0.6758497,0.57150006
2.126,-2.1718352,1.0597574,-1.4873207,0.57642543,0.69841874,0.5535066
2.128,-2.1768742,1.0026135,-1.4886193,0.61294794,0.72121596,0.53569126
2.13,-2.1800158,0.94646025,-1.491165,0.64842737,0.74406314,0.5180962
2.132,-2.1812582,0.89153206,-1.494859,0.6828019,0.7667731,0.50075656
2.134,-2.1805983,0.837939,-1.4998119,0.7160248,0.78917396,0.48369297
2.136,-2.1781738,0.78587604,-1.5060301,0.7480592,0.8111,0.46691918
2.138,-2.1740286,0.73546666,-1.5134227,0.7788583,0.83239293,0.45043382
2.14,-2.1682272,0.68691564,-1.522012,0.8083985,0.8529011,0.43422368
2.142,-2.1607385,0.64028585,-1.5316874,0.83665943,0.87248474,0.41826993
2.144,-2.1516786,0.5957198,-1.5425265,0.8636343,0.89100957,0.40255305
2.146,-2.1408963,0.5533824,-1.5542457,0.8893092,0.9083445,0.38704133
2.148,-2.1285207,0.51330626,-1.5668595,0.91368866,0.92437243,0.37169793
2.15,-2.1145487,0.47555673,-1.5801735,0.9367853,0.9389927,0.35648692
2.152,-2.099029,0.4401452,-1.5940325,0.9586117,0.9521189,0.34138572
2.154,-2.0817752,0.40719485,-1.6083486,0.9791783,0.9636774,0.3263655
2.156,-2.062825,0.3767747,-1.6230109,0.9985053,0.9736084,0.3114121
2.158,-2.042116,0.34893313,-1.6377773,1.0166175,0.98186815,0.2965147
2.16,-2.0197845,0.32378,-1.6525865,1.0335311,0.988429,0.28167748
2.162,-1.9957094,0.30124423,-1.667285,1.0492661,0.9932797,0.266919
2.164,-1.9698235,0.2814231,-1.6817176,1.063846,0.99641716,0.25228658
2.166,-1.941998,0.2644184,-1.6958342,1.0773016,0.9978643,0.2378219
2.168,-1.912147,0.25025615,-1.7095045,1.0896537,0.997649,0.22359653
2.17,-1.8802208,0.23900768,-1.7226174,1.1009479,0.99580765,0.20968606
2.172,-1.8463464,0.2307936,-1.7350881,1.11121,0.9923772,0.19616026
2.174,-1.8103538,0.22562191,-1.7468295,1.1204609,0.9873933,0.18308562
2.176,-1.7721627,0.22373149,-1.7578106,1.1287266,0.9808745,0.17052096
2.178,-1.7318673,0.22521687,-1.7680521,1.136019,0.97283095,0.15851513
2.18,-1.6893502,0.23003289,-1.7774184,1.142331,0.9632475,0.14710736
2.182,-1.6446187,0.23840186,-1.7859437,1.147639,0.9521043,0.1363275
2.184,-1.5977548,0.2503489,-1.7934892,1.1519097,0.9393624,0.12618332
2.186,-1.5488328,0.26599318,-1.8002245,1.1550925,0.92496556,0.11667451
2.188,-1.4978762,0.28540224,-1.806057,1.1571331,0.9088612,0.10776617
2.19,-1.4449408,0.30865422,-1.8109754,1.1579763,0.89097774,0.09938942
2.192,-1.3901229,0.33578482,-1.8150055,1.1575866,0.8712561,0.091479555
2.194,-1.3336025,0.36683732,-1.8180649,1.1559395,0.84964055,0.08393539
2.196,-1.2755041,0.4018562,-1.8201797,1.1530253,0.8260881,0.07663102
2.198,-1.2159265,0.44072834,-1.8214201,1.1488484,0.80056506,0.06944555
2.2,-1.154964,0.48345333,-1.8217465,1.1434486,0.77305496,0.062254094
2.202,-1.092765,0.52991426,-1.8212273,1.1368891,0.7435692,0.054926332
2.204,-1.0294678,0.5800333,-1.8198291,1.1292297,0.71212584,0.04733875
2.206,-0.9652606,0.63371336,-1.8174801,1.1205537,0.67876893,0.0393871
2.208,-0.9004463,0.6907494,-1.814266,1.1109557,0.64356357,0.030988917
2.21,-0.8351431,0.75101525,-1.8100659,1.1005281,0.6065765,0.022096261
2.212,-0.76951146,0.81434405,-1.8049598,1.0893636,0.56788695,0.012688577
2.214,-0.70366275,0.8806157,-1.7990339,1.0775402,0.52757764,0.0027755275
2.216,-0.637853,0.9496358,-1.7921698,1.06513,0.48572403,-0.007613227
2.218,-0.57229376,1.0212711,-1.784368,1.0521888,0.4423933,-0.018419877
2.22,-0.50711656,1.0953571,-1.7755857,1.038744,0.3976475,-0.02957119
2.222,-0.4424667,1.1715848,-1.7658212,1.0248151,0.35153526,-0.04099168
2.224,-0.37839305,1.24978,-1.7550693,1.0103998,0.30410445,-0.05260472
2.226,-0.31519306,1.3297575,-1.743134,0.99548423,0.25539804,-0.064332575
2.228,-0.2530701,1.4112866,-1.730161,0.9800567,0.2054612,-0.076116666
2.23,-0.19210628,1.4940557,-1.7159368,0.96410996,0.15434754,-0.087918594
2.232,-0.13233489,1.577831,-1.7006056,0.9476386,0.1021001,-0.09974119
2.234,-0.07387087,1.6623642,-1.6838615,0.9306586,0.048777588,-0.111624956
2.236,-0.016972601,1.7474062,-1.6657509,0.9132149,-0.005565971,-0.123625726
2.238,0.03828168,1.8326349,-1.6462028,0.89534736,-0.06088133,-0.13581032
2.24,0.091794044,1.9178344,-1.6250201,0.8771097,-0.11709109,-0.1482662
2.242,0.14364217,2.0026083,-1.6021845,0.85856843,-0.17412104,-0.16105245
2.244,0.19346137,2.0867395,-1.5776286,0.8397883,-0.23188393,-0.17423898
2.246,0.24139765,2.1700027,-1.5513098,0.8208328,-0.2902958,-0.18788409
2.248,0.28738427,2.2521222,-1.5231471,0.8017587,-0.3492549,-0.20200208
2.25,0.3312623,2.3327887,-1.492965,0.7826196,-0.40866503,-0.21656549
2.252,0.37307188,2.4117367,-1.4608171,0.76344544,-0.46842125,-0.2315146
2.254,0.41275835,2.4887552,-1.4265659,0.74425185,-0.5284309,-0.2467413
2.256,0.45023948,2.5635564,-1.3901234,0.72502935,-0.58862036,-0.26207352
2.258,0.4855702,2.6359763,-1.3514671,0.70577216,-0.6489049,-0.277316
2.26,0.5187019,2.705776,-1.3106227,0.6864715,-0.70921224,-0.29226166
2.262,0.5495825,2.7728443,-1.2674938,0.66713387,-0.7694546,-0.3067289
2.264,0.5782937,2.836953,-1.2219921,0.64778507,-0.8295399,-0.32059073
2.266,0.6048068,2.8978224,-1.1741515,0.62847984,-0.88939744,-0.3337819
2.268,0.6291403,2.9553885,-1.1240188,0.60930824,-0.94891965,-0.3462867
2.27,0.65142834,3.0094097,-1.0715429,0.59037983,-1.0079798,-0.35816306
2.272,0.67172515,3.0597827,-1.0167096,0.5718527,-1.0664388,-0.36952186
2.274,0.6899579,3.1063843,-0.95963,0.55391675,-1.124137,-0.38051403
2.276,0.7062107,3.1490633,-0.90039897,0.53675795,-1.1809092,-0.39130104
2.278,0.7205777,3.1876838,-0.8390527,0.52056456,-1.236553,-0.40201497
2.28,0.73319346,3.2221248,-0.775666,0.5055204,-1.2908818,-0.412748
2.282,0.7441773,3.2523012,-0.7103813,0.49177048,-1.3437116,-0.42352617
2.284,0.7535517,3.2781537,-0.64334404,0.47942087,-1.3948545,-0.43431243
2.286,0.76150286,3.2996325,-0.57467365,0.46854138,-1.4441507,-0.44498152
2.288,0.7680499,3.3167696,-0.5045374,0.45915464,-1.4914532,-0.4553728
2.29,0.7732182,3.329643,-0.4331748,0.45122734,-1.5366423,-0.46530956
2.292,0.777171,3.3381662,-0.36066997,0.44472298,-1.5796332,-0.47460222
2.294,0.77993834,3.3424988,-0.28728145,0.43955737,-1.6204002,-0.48306543
2.296,0.7818124,3.342821,-0.21315974,0.43563366,-1.6589525,-0.4905491
2.298,0.78270936,3.339189,-0.13847685,0.43284515,-1.6953346,-0.49691635
2.3,0.7828015,3.3318198,-0.06337637,0.43109715,-1.729624,-0.5020772
2.302,0.782091,3.3208702,0.011916041,0.43029934,-1.7619395,-0.50597346
2.304,0.78081274,3.306455,0.08722365,0.4303919,-1.7924119,-0.5085709
2.306,0.77899575,3.2888017,0.16242015,0.43134028,-1.8211694,-0.5098783
2.308,0.7766855,3.2680652,0.23743755,0.4331191,-1.8483347,-0.5099264
2.31,0.77389866,3.244552,0.3122334,0.435738,-1.8740128,-0.50876486
2.312,0.7707133,3.2184298,0.3865373,0.43921956,-1.898265,-0.5064785
2.314,0.76730144,3.1898618,0.46037072,0.44359863,-1.9211326,-0.50316983
2.316,0.76366246,3.1588964,0.5336353,0.44891456,-1.9426358,-0.4989367
2.318,0.7600884,3.1257172,0.60625255,0.4552217,-1.9627428,-0.49389464
2.32,0.7565739,3.0904565,0.67813224,0.46258247,-1.9813962,-0.48817205
2.322,0.7530798,3.0532827,0.74935985,0.47105744,-1.9985468,-0.48191303
2.324,0.74961114,3.0141728,0.8199026,0.48069948,-2.0141213,-0.47523618
2.326,0.7463033,2.9732661,0.88966376,0.49153906,-2.0280435,-0.4682343
2.328,0.7433819,2.930738,0.95863307,0.50360733,-2.04025,-0.46096563
2.33,0.7406635,2.886667,1.0267949,0.5169126,-2.0506723,-0.45346487
2.332,0.7382345,2.8412313,1.0941356,0.53145206,-2.0592704,-0.4457339
2.334,0.73616385,2.7945328,1.1606855,0.54720825,-2.0659862,-0.43774176
2.336,0.73453784,2.746687,1.2263174,0.56415355,-2.0707915,-0.42944705
2.338,0.7333821,2.6979718,1.291182,0.58225536,-2.073675,-0.42079437
2.34,0.73272395,2.6485195,1.3550892,0.60146743,-2.0746186,-0.4117359
2.342,0.73260546,2.598453,1.4181242,0.6217538,-2.0736303,-0.40221512
2.344,0.7329458,2.5479994,1.4802016,0.6430902,-2.0707202,-0.39219654
2.346,0.7338446,2.4973474,1.5413222,0.6654383,-2.0659149,-0.381665
2.348,0.7354202,2.4467473,1.6014541,0.6887686,-2.0592406,-0.37062806
2.35,0.73760426,2.396332,1.6604656,0.71305764,-2.0507393,-0.35911882
2.352,0.7403048,2.3463907,1.718432,0.7382896,-2.040448,-0.3471858
2.354,0.7437923,2.297022,1.7753394,0.76442504,-2.0284195,-0.33489227
2.356,0.74785495,2.2484293,1.8312144,0.79143816,-2.0147076,-0.32231164
2.358,0.75254774,2.2007854,1.8859279,0.8192724,-1.9993854,-0.30953366
2.36,0.7579433,2.1543012,1.939498,0.8478844,-1.9825366,-0.29662752
2.362,0.7639671,2.109017,1.9918838,0.87721634,-1.9642645,-0.28367084
2.364,0.77066374,2.0650957,2.04308,0.9071945,-1.944683,-0.27074635
2.366,0.77804965,2.0225515,2.0930073,0.9377429,-1.9239389,-0.25792575
2.368,0.78607935,1.9814742,2.1417236,0.96878135,-1.9021511,-0.24527907
2.37,0.7947334,1.9419408,2.1891892,1.0002351,-1.8794577,-0.23287416
2.372,0.8040158,1.9039063,2.235324,1.0320103,-1.8560178,-0.22077703
2.374,0.81387085,1.8673714,2.2801492,1.0640237,-1.8319867,-0.20904666
2.376,0.8243332,1.8324058,2.3236604,1.096202,-1.8075255,-0.19775492
2.378,0.8353752,1.7989153,2.3658938,1.1284591,-1.7828131,-0.18696862
2.38,0.84689814,1.7668769,2.4068425,1.1607254,-1.7579916,-0.17674011
2.382,0.8587065,1.7363555,2.4465451,1.1929259,-1.733189,-0.1671015
2.384,0.8710186,1.7072101,2.4850464,1.2250001,-1.7085401,-0.15808296
2.386,0.8836311,1.6794422,2.522521,1.2568871,-1.6841458,-0.14969808
2.388,0.8964828,1.6530186,2.5589757,1.2885247,-1.6600891,-0.14193523
2.39,0.90952873,1.6278814,2.5944543,1.3198448,-1.6364275,-0.13474083
2.392,0.92278546,1.6040215,2.629098,1.3507785,-1.6132184,-0.12804997
2.394,0.9361416,1.5814266,2.6630447,1.3812664,-1.590514,-0.12178701
2.396,0.94935966,1.5600291,2.6963868,1.4112384,-1.568369,-0.115878165
2.398,0.9626826,1.5397322,2.729283,1.4406196,-1.5468413,-0.11024284
2.4,0.97594416,1.5206318,2.7619364,1.469355,-1.5259682,-0.10482055
2.402,0.9890605,1.5026844,2.7944233,1.4973967,-1.5058113,-0.0995816
2.404,1.0018934,1.4858913,2.8268657,1.5246879,-1.4864249,-0.09450728
2.406,1.0144018,1.4700751,2.8593307,1.5511856,-1.4678576,-0.089619935
2.408,1.0266578,1.4553158,2.891996,1.5768782,-1.4501352,-0.08496648
2.41,1.0386035,1.4414831,2.9249816,1.6017492,-1.4332719,-0.080611706
2.412,1.0502399,1.4286153,2.9583366,1.6258053,-1.417264,-0.076621115
2.414,1.0614622,1.4166341,2.9921901,1.649043,-1.4020917,-0.07305944
2.416,1.0723757,1.4054685,3.0266294,1.6714995,-1.3877196,-0.06998378
2.418,1.0829657,1.3952018,3.0616279,1.6931885,-1.3741022,-0.06742424
2.42,1.0931697,1.3856654,3.0971408,1.7141433,-1.3611962,-0.06540322
2.422,1.1031117,1.3768226,3.1333618,1.7343851,-1.3489752,-0.063910544
2.424,1.1127084,1.368634,3.1701899,1.7539295,-1.3373883,-0.06291771
2.426,1.1220863,1.3611932,3.2075713,1.7728046,-1.3263888,-0.062372267
2.428,1.1312174,1.3544009,3.2456212,1.791016,-1.3159474,-0.06222397
2.43,1.140258,1.348207,3.2841785,1.8085477,-1.3060329,-0.06239438
2.432,1.1491255,1.3426222,3.3231664,1.8254061,-1.296613,-0.062811375
2.434,1.1579705,1.3377423,3.36264,1.8415561,-1.2876842,-0.063417494
2.436,1.166898,1.3335359,3.4024994,1.8569779,-1.2792416,-0.06415224
2.438,1.1757743,1.3300594,3.442696,1.8716459,-1.2712737,-0.064949214
2.44,1.1848092,1.327308,3.483188,1.8855294,-1.2637819,-0.06575596
2.442,1.1939812,1.3254274,3.5239236,1.8986067,-1.2567928,-0.066545665
2.444,1.2034465,1.3243722,3.5648384,1.9108562,-1.2503204,-0.06729931
2.446,1.2131107,1.3242983,3.605939,1.9222523,-1.2443798,-0.068008244
2.448,1.222987,1.3251685,3.647193,1.9327872,-1.2389852,-0.0686664
2.45,1.2332392,1.3271303,3.6886444,1.9424466,-1.2341516,-0.06927031
2.452,1.2438135,1.3302534,3.7302046,1.9512249,-1.2298812,-0.06983721
2.454,1.2547566,1.3345491,3.7718744,1.9591238,-1.2261629,-0.070382476
2.456,1.2661096,1.3400601,3.8136373,1.9661436,-1.2229862,-0.07091707
2.458,1.2779438,1.3467379,3.855465,1.9722918,-1.2203262,-0.07146841
2.46,1.2901783,1.3546183,3.897522,1.9775796,-1.2181451,-0.07207155
2.462,1.3027653,1.3636956,3.9396353,1.9820194,-1.2163978,-0.07274985
2.464,1.3157161,1.3740262,3.9818451,1.9856321,-1.2150226,-0.073528945
2.466,1.329204,1.3854358,4.024112,1.9884378,-1.2139491,-0.07442707
2.468,1.3430992,1.3979986,4.0664835,1.990461,-1.2131054,-0.075455725
2.47,1.357479,1.4116079,4.1089287,1.9917268,-1.2123997,-0.07661319
2.472,1.3722924,1.4262716,4.151488,1.9922585,-1.2117512,-0.07790208
2.474,1.387516,1.4418215,4.1940923,1.9920764,-1.2110815,-0.0792855
2.476,1.4031959,1.4583066,4.236664,1.991193,-1.2103188,-0.080755174
2.478,1.4192402,1.475523,4.279244,1.989618,-1.2094212,-0.08229631
2.48,1.4358095,1.4934582,4.321801,1.9873514,-1.2083436,-0.08388537
2.482,1.4522752,1.5114709,4.3631296,1.9843951,-1.2070718,-0.08550614
2.484,1.4689506,1.529872,4.404102,1.9807484,-1.2056024,-0.08715898
2.486,1.4858329,1.5484817,4.4446454,1.9764043,-1.2039386,-0.088852584
2.488,1.502826,1.5672487,4.4846663,1.971366,-1.202086,-0.090596735
2.49,1.5199747,1.5860463,4.524092,1.9656265,-1.2000523,-0.092418075
2.492,1.5372648,1.6046995,4.5628304,1.9591856,-1.1978395,-0.09433079
2.494,1.5544872,1.6231612,4.600812,1.9520667,-1.1954453,-0.09635526
2.496,1.5716348,1.6413332,4.6379023,1.9442888,-1.1928495,-0.09850192
2.498,1.5886515,1.659157,4.6740737,1.9358746,-1.1900347,-0.10077548
2.5,1.60546,1.6765426,4.7092476,1.9268525,-1.1869798,-0.103179514
2.502,1.6219167,1.6934221,4.7433753,1.9172503,-1.1836563,-0.10571307
2.504,1.6380554,1.7097095,4.776371,1.9070975,-1.1800377,-0.10836643
2.506,1.6538649,1.7253617,4.8082075,1.8964207,-1.1760954,-0.11110467
2.508,1.6691368,1.740419,4.8388586,1.8852501,-1.1717997,-0.11390394
2.51,1.6839721,1.7547678,4.8682346,1.874122,-1.1673784,-0.11666983
2.512,1.6983092,1.7684264,4.896372,1.8628476,-1.1627039,-0.11939323
2.514,1.7121685,1.7813565,4.9232845,1.8515465,-1.1578217,-0.122021705
2.516,1.7254148,1.7936531,4.9490156,1.8403555,-1.1527951,-0.124507755
2.518,1.738043,1.8052865,4.973501,1.829417,-1.1477016,-0.12681198
2.52,1.7500663,1.8162789,4.9967256,1.8188629,-1.1426197,-0.12890553
2.522,1.7614882,1.8266315,5.018812,1.8088137,-1.1376356,-0.13076985
2.524,1.7723502,1.8364129,5.039715,1.7993524,-1.1328288,-0.1323983
2.526,1.782604,1.8456224,5.059457,1.7905495,-1.1282612,-0.13379124
2.528,1.7922896,1.8542283,5.078145,1.7824363,-1.123976,-0.13497388
2.53,1.801519,1.862318,5.09583,1.7750151,-1.1199968,-0.1359604
2.532,1.810209,1.8699223,5.112536,1.7682657,-1.1163374,-0.13676941
