Time_s_,Acc_x_m_s_2_,Acc_y_m_s_2_,Acc_z_m_s_2_,Gyro_x_1_s_,Gyro_y_1_s_,Gyro_z_1_s_
0,-1.5701294,-0.45313218,-2.1586123,-0.8190416,-2.1628165,-2.1630704
0.002,-1.5186974,-0.40835497,-2.2012403,-0.8322906,-2.1842582,-2.1820917
0.004,-1.4662732,-0.36197096,-2.2473884,-0.8470508,-2.2089844,-2.2031035
0.006,-1.4130874,-0.31401002,-2.2977293,-0.86342937,-2.2374306,-2.2261083
0.008,-1.3595088,-0.26442236,-2.352706,-0.8815464,-2.2700639,-2.251049
0.01,-1.3058684,-0.2132029,-2.4126348,-0.901507,-2.3074079,-2.2778018
0.012,-1.2526852,-0.16015112,-2.47775,-0.9233462,-2.3499093,-2.3061886
0.014,-1.200801,-0.105303645,-2.548173,-0.9470651,-2.397904,-2.3359704
0.016,-1.1507319,-0.04852259,-2.623817,-0.97264993,-2.451702,-2.3668032
0.018,-1.1031988,0.010195255,-2.7044978,-1.0000677,-2.511475,-2.3982568
0.02,-1.059047,0.07069337,-2.7900448,-1.0292373,-2.5771956,-2.4299197
0.022,-1.0191674,0.13307214,-2.8799794,-1.0601044,-2.6488333,-2.4614167
0.024,-0.98450136,0.19726694,-2.9737775,-1.0926472,-2.7264223,-2.4924586
0.026,-0.9559131,0.26331377,-3.0708401,-1.1268626,-2.8100166,-2.5228832
0.028,-0.93415904,0.33115113,-3.1704023,-1.1635382,-2.9011827,-2.55359
0.03,-0.91982037,0.40063155,-3.2713635,-1.201724,-2.9982438,-2.5834448
0.032,-0.9134447,0.47153437,-3.372569,-1.2416391,-3.1016502,-2.613028
0.034,-0.9152593,0.5435226,-3.4726522,-1.2834178,-3.2117162,-2.642929
0.036,-0.9255975,0.6162915,-3.5703945,-1.327125,-3.3285146,-2.673749
0.038,-0.9443114,0.68926823,-3.6643977,-1.3727345,-3.4518523,-2.7060843
0.04,-0.9711796,0.7621608,-3.7531738,-1.4201627,-3.581222,-2.7404578
0.042,-1.0056856,0.83451724,-3.835329,-1.4692732,-3.7157393,-2.7771692
0.044,-1.0472283,0.90598774,-3.9095778,-1.5198582,-3.8540711,-2.8162665
0.046,-1.0949697,0.97610986,-3.9745808,-1.5716546,-3.9945989,-2.8575828
0.048,-1.1475462,1.044212,-4.029416,-1.6244407,-4.1356316,-2.9007926
0.05,-1.2035484,1.1096476,-4.0730324,-1.6780568,-4.27562,-2.9453266
0.052,-1.2613579,1.1716294,-4.1047816,-1.7324164,-4.413114,-2.990479
0.054,-1.3195335,1.2295666,-4.12413,-1.787502,-4.546922,-3.0355668
0.056,-1.3763055,1.2858729,-4.132833,-1.8434384,-4.6763535,-3.0800118
0.058,-1.4301364,1.3356745,-4.127288,-1.9003973,-4.8011303,-3.1233091
0.06,-1.479016,1.3782523,-4.107821,-1.9585738,-4.921304,-3.165031
0.062,-1.5221843,1.4136271,-4.075432,-2.0181608,-5.0371957,-3.2048059
0.064,-1.5591457,1.4414104,-4.030495,-2.0793345,-5.149292,-3.242332
0.066,-1.5879709,1.4613829,-3.972933,-2.1422656,-5.2582064,-3.277306
0.068,-1.6069224,1.4728174,-3.90272,-2.2070878,-5.3645945,-3.3094635
0.07,-1.6159538,1.4755374,-3.819983,-2.273871,-5.4689445,-3.3385768
0.072,-1.61507,1.4693073,-3.7249038,-2.342622,-5.5716724,-3.3645144
0.074,-1.6024544,1.4534153,-3.6182582,-2.4133368,-5.673104,-3.3871653
0.076,-1.5762497,1.4269772,-3.5010865,-2.4859245,-5.7732525,-3.4064846
0.078,-1.5369806,1.3900292,-3.374206,-2.560249,-5.8719063,-3.4224844
0.08,-1.4850316,1.3427646,-3.2386408,-2.6361275,-5.9687643,-3.4351993
0.082,-1.4200234,1.285262,-3.0953238,-2.713326,-6.063431,-3.4446776
0.084,-1.3422668,1.2176936,-2.9450445,-2.791604,-6.155461,-3.4509468
0.086,-1.251483,1.1399658,-2.7878582,-2.8707216,-6.24441,-3.4539995
0.088,-1.1479418,1.0521163,-2.6238666,-2.9504461,-6.329856,-3.4538171
0.09,-1.0317072,0.95421696,-2.4534442,-3.030581,-6.4114466,-3.4503932
0.092,-0.9031342,0.8466638,-2.277471,-3.1109948,-6.488946,-3.4436903
0.094,-0.7628993,0.7302334,-2.0969381,-3.1916084,-6.562322,-3.4336777
0.096,-0.61155033,0.6056115,-1.9136082,-3.2724066,-6.6316156,-3.4203591
0.098,-0.44895273,0.4733224,-1.7298603,-3.3533833,-6.696904,-3.403784
0.1,-0.27567106,0.33383873,-1.5470772,-3.434562,-6.7583275,-3.3840077
0.102,-0.092927195,0.1879797,-1.3665379,-3.5159323,-6.816037,-3.3611088
0.104,0.09800494,0.03633684,-1.1893618,-3.5974264,-6.870067,-3.33518
0.106,0.29579607,-0.12040998,-1.0168767,-3.6788924,-6.920357,-3.3063161
0.108,0.49863175,-0.28138003,-0.850174,-3.760108,-6.96675,-3.2745333
0.11,0.7047794,-0.44602925,-0.6904679,-3.8407712,-7.008975,-3.2398071
0.112,0.912586,-0.61395377,-0.53878176,-3.9205348,-7.0467434,-3.2020607
0.114,1.1195529,-0.78457093,-0.3959437,-3.9990563,-7.0797625,-3.1611943
0.116,1.3232398,-0.95718753,-0.26253474,-4.075994,-7.1078196,-3.1171389
0.118,1.5211985,-1.1310493,-0.13955702,-4.1510468,-7.130769,-3.0698411
0.12,1.7108017,-1.3054612,-0.028085992,-4.223958,-7.1486454,-3.0193586
0.122,1.8895203,-1.4798882,0.07076065,-4.294504,-7.161633,-2.96579
0.124,2.0550034,-1.6536402,0.15614001,-4.362507,-7.170096,-2.9092722
0.126,2.2047195,-1.8262084,0.227332,-4.427819,-7.1744967,-2.8499124
0.128,2.3363678,-1.997011,0.28359276,-4.4902987,-7.1753488,-2.7877717
0.13,2.447651,-2.1652474,0.32467216,-4.549822,-7.1732445,-2.7228355
0.132,2.5365496,-2.330448,0.35005093,-4.606281,-7.1688266,-2.6549911
0.134,2.6015186,-2.4920368,0.3596062,-4.6596484,-7.162736,-2.5840015
0.136,2.6414933,-2.6496282,0.35379994,-4.7099247,-7.1555395,-2.5095062
0.138,2.655826,-2.8029695,0.33291852,-4.757197,-7.147811,-2.4311068
0.14,2.644268,-2.951828,0.2968871,-4.8016663,-7.140194,-2.3483622
0.142,2.6064367,-3.0960002,0.24562012,-4.843606,-7.1334553,-2.2608395
0.144,2.54195,-3.235038,0.17908779,-4.8833866,-7.1284456,-2.1681278
0.146,2.4517353,-3.3685825,0.097514,-4.921426,-7.1260853,-2.0699005
0.148,2.3379338,-3.496479,0.0017020702,-4.9581475,-7.127288,-1.9659414
0.15,2.2015183,-3.6183949,-0.10759953,-4.9939394,-7.133055,-1.8561296
0.152,2.0415998,-3.733182,-0.23153022,-5.0291786,-7.1443944,-1.7404277
0.154,1.8628031,-3.8411908,-0.37027037,-5.064154,-7.1621785,-1.6189088
0.156,1.6704609,-3.943239,-0.52239496,-5.099074,-7.187122,-1.4917104
0.158,1.4678092,-4.03964,-0.68431425,-5.134094,-7.219776,-1.3590417
0.16,1.2567993,-4.130064,-0.853444,-5.1693163,-7.2605133,-1.2211723
0.162,1.0400877,-4.21444,-1.0275004,-5.204799,-7.3094387,-1.078425
0.164,0.8215924,-4.292866,-1.2057457,-5.2405367,-7.366441,-0.93117964
0.166,0.6050495,-4.36542,-1.389993,-5.2764826,-7.43118,-0.77985
0.168,0.39532483,-4.4327583,-1.5821621,-5.312509,-7.5031433,-0.6248524
0.17,0.19668484,-4.4950533,-1.781874,-5.3484535,-7.5817423,-0.46660966
0.172,0.012155652,-4.5526137,-1.9861834,-5.3840675,-7.666318,-0.3055086
0.174,-0.15623617,-4.60466,-2.1920393,-5.4189796,-7.756054,-0.14186275
0.176,-0.3068943,-4.6505275,-2.3976684,-5.452677,-7.849971,0.024041533
0.178,-0.43820894,-4.6887054,-2.6027322,-5.4845862,-7.947046,0.19196367
0.18,-0.5481247,-4.717821,-2.808508,-5.51406,-8.046326,0.36169958
0.182,-0.63449144,-4.7360153,-3.0160034,-5.540433,-8.146761,0.533077
0.184,-0.6970202,-4.742149,-3.2272747,-5.563085,-8.247343,0.7060468
0.186,-0.73627174,-4.7349396,-3.4431157,-5.581461,-8.347362,0.88060963
0.188,-0.753361,-4.7130384,-3.6632953,-5.5951395,-8.446351,1.0568838
0.19,-0.7500799,-4.674953,-3.8881674,-5.60388,-8.544209,1.2351758
0.192,-0.7292732,-4.618874,-4.1182075,-5.6076546,-8.641289,1.415941
0.194,-0.69392204,-4.5429916,-4.353867,-5.6066313,-8.738253,1.5996752
0.196,-0.64711964,-4.4457397,-4.596271,-5.601098,-8.836012,1.7867386
0.198,-0.5926057,-4.325506,-4.846263,-5.5914574,-8.935869,1.977241
0.2,-0.53444993,-4.181163,-5.104295,-5.578143,-9.039323,2.17095
0.202,-0.4774109,-4.0117354,-5.3699913,-5.5615396,-9.147715,2.3672364
0.204,-0.42626607,-3.8165796,-5.6426115,-5.542038,-9.262188,2.5651095
0.206,-0.38638163,-3.5950022,-5.9203115,-5.5199165,-9.383466,2.7632835
0.208,-0.36333525,-3.346236,-6.201423,-5.495251,-9.511853,2.9602568
0.21,-0.36219406,-3.069982,-6.4842296,-5.467873,-9.647303,3.1544602
0.212,-0.3878237,-2.7658179,-6.766923,-5.4372654,-9.789301,3.34435
0.214,-0.44478226,-2.4335887,-7.0478783,-5.4025908,-9.936942,3.528649
0.216,-0.5375129,-2.07327,-7.3254776,-5.362861,-10.089081,3.7066379
0.218,-0.6695247,-1.685231,-7.5976734,-5.3170123,-10.244136,3.8782647
0.22,-0.84422445,-1.2697463,-7.862562,-5.264014,-10.400189,4.04404
0.222,-1.0645146,-0.82706213,-8.118246,-5.2029977,-10.555097,4.2049093
0.224,-1.3319178,-0.35768628,-8.36279,-5.1333604,-10.706514,4.361894
0.226,-1.6476877,0.13758421,-8.594616,-5.0548377,-10.85207,4.5158863
0.228,-2.0122933,0.6575012,-8.8123045,-4.9675994,-10.989613,4.6673584
0.23,-2.4252994,1.2009313,-9.014992,-4.8721805,-11.11727,4.8162694
0.232,-2.8853714,1.7665229,-9.202285,-4.769372,-11.233479,4.9620433
0.234,-3.3905098,2.3528907,-9.37447,-4.6602416,-11.33713,5.103673
0.236,-3.9381154,2.958607,-9.532018,-4.545958,-11.427708,5.2398963
0.238,-4.524896,3.581996,-9.67555,-4.4277124,-11.5051,5.3693943
0.24,-5.146864,4.220979,-9.805934,-4.3066425,-11.569468,5.491044
0.242,-5.799571,4.8735876,-9.92395,-4.1837616,-11.62134,5.6040316
0.244,-6.4784904,5.5375934,-10.030668,-4.059942,-11.661474,5.7079215
0.246,-7.178695,6.210718,-10.127388,-3.935899,-11.690602,5.8026853
0.248,-7.8952546,6.8904324,-10.215016,-3.812194,-11.709496,5.88863
0.25,-8.62295,7.573853,-10.294072,-3.6893272,-11.718895,5.9662743
0.252,-9.356556,8.258162,-10.3645315,-3.5676212,-11.719276,6.036185
0.254,-10.090955,8.940903,-10.426596,-3.4473424,-11.711043,6.098815
0.256,-10.820995,9.61904,-10.47998,-3.328665,-11.694567,6.1544657
0.258,-11.543467,10.289724,-10.52504,-3.2116168,-11.670118,6.203225
0.26,-12.254194,10.949614,-10.5621195,-3.0961637,-11.637905,6.2450094
0.262,-12.947441,11.59492,-10.588864,-2.9822984,-11.597999,6.2796445
0.264,-13.62292,12.223544,-10.604082,-2.8700542,-11.550302,6.306923
0.266,-14.280292,12.833899,-10.60794,-2.759545,-11.49473,6.326596
0.268,-14.917074,13.424043,-10.601826,-2.6509514,-11.431162,6.338318
0.27,-15.52998,13.991381,-10.585424,-2.544437,-11.35944,6.3415394
0.272,-16.117052,14.533621,-10.557436,-2.4402313,-11.279606,6.335594
0.274,-16.67802,15.048763,-10.515367,-2.3386068,-11.191701,6.31989
0.276,-17.212854,15.535389,-10.45532,-2.239884,-11.095715,6.293932
0.278,-17.722677,15.992688,-10.375223,-2.1444082,-10.991607,6.257412
0.28,-18.207937,16.419836,-10.275951,-2.0525436,-10.879274,6.210293
0.282,-18.66843,16.816158,-10.1606045,-1.9645782,-10.758415,6.152783
0.284,-19.104263,17.180813,-10.031939,-1.8807944,-10.628633,6.0852413
0.286,-19.515759,17.51349,-9.890852,-1.8014681,-10.489456,6.008048
0.288,-19.904148,17.814129,-9.737201,-1.7268366,-10.340272,5.9216995
0.29,-20.27126,18.083542,-9.570334,-1.6571066,-10.180435,5.8267484
0.292,-20.619549,18.322653,-9.390547,-1.5924692,-10.00929,5.7237563
0.294,-20.950014,18.533407,-9.198646,-1.5331035,-9.826141,5.6132345
0.296,-21.263489,18.71793,-8.997482,-1.4791671,-9.630318,5.495575
0.298,-21.561104,18.878288,-8.790713,-1.4308001,-9.421267,5.371018
0.3,-21.843992,19.016788,-8.581405,-1.3881465,-9.19859,5.2396593
0.302,-22.113148,19.135557,-8.372646,-1.3512967,-8.962088,5.1015167
0.304,-22.369633,19.236862,-8.167481,-1.320294,-8.711739,4.956571
0.306,-22.61532,19.323328,-7.968233,-1.2951375,-8.447698,4.8048472
0.308,-22.851091,19.397606,-7.7772264,-1.2757766,-8.170248,4.646426
0.31,-23.077812,19.462433,-7.5972705,-1.2621365,-7.8798404,4.4815464
0.312,-23.295898,19.520561,-7.431196,-1.2541143,-7.577025,4.3105803
0.314,-23.505573,19.574347,-7.282214,-1.251613,-7.262454,4.134078
0.316,-23.706242,19.62589,-7.154024,-1.254482,-6.9368153,3.9527125
0.318,-23.897587,19.677189,-7.0491524,-1.2625661,-6.6008134,3.7672224
0.32,-24.079258,19.730328,-6.97017,-1.2756953,-6.2552185,3.5783215
0.322,-24.250229,19.78687,-6.91895,-1.2936945,-5.9008527,3.3866198
0.324,-24.409012,19.848207,-6.8973713,-1.316392,-5.5385427,3.1925843
0.326,-24.554268,19.915533,-6.9072084,-1.3435994,-5.1692023,2.9965217
0.328,-24.68423,19.989937,-6.950338,-1.3751016,-4.7938466,2.7986078
0.33,-24.79657,20.07209,-7.028303,-1.4106394,-4.413509,2.5989075
0.332,-24.888565,20.162392,-7.1423755,-1.4499092,-4.0292444,2.3973894
0.334,-24.95742,20.261166,-7.2933187,-1.4925408,-3.6421847,2.1939225
0.336,-25.00024,20.368761,-7.481831,-1.5381333,-3.2535279,1.9883232
0.338,-25.013561,20.48502,-7.709052,-1.5861938,-2.8644028,1.7804418
0.34,-24.994156,20.609278,-7.974655,-1.6361516,-2.475804,1.5701265
0.342,-24.939106,20.741375,-8.277431,-1.687392,-2.0886755,1.3570957
0.344,-24.844952,20.88034,-8.616833,-1.7392943,-1.7038395,1.1409688
0.346,-24.708347,21.025196,-8.991661,-1.7912276,-1.3220304,0.9213882
0.348,-24.526276,21.17523,-9.40089,-1.8424993,-0.94391394,0.698048
0.35,-24.295143,21.32911,-9.843873,-1.8923916,-0.5701112,0.47067213
0.352,-24.01241,21.485779,-10.319611,-1.9401798,-0.20117316,0.23903942
0.354,-23.675442,21.643896,-10.826129,-1.9851415,0.16238528,0.002955258
0.356,-23.282778,21.80104,-11.362288,-2.0265937,0.5200507,-0.2377474
0.358,-22.832375,21.956718,-11.924931,-2.0639067,0.87122464,-0.48322353
0.36,-22.323572,22.111519,-12.511974,-2.0964923,1.2152472,-0.73359334
0.362,-21.755146,22.264368,-13.122286,-2.123817,1.551369,-0.9889426
0.364,-21.12519,22.412731,-13.753367,-2.1454484,1.8787299,-1.2493354
0.366,-20.435051,22.555557,-14.403278,-2.1610174,2.196482,-1.5148373
0.368,-19.685402,22.692225,-15.069203,-2.1702292,2.5037313,-1.785482
0.37,-18.876377,22.821827,-15.748714,-2.1729198,2.7992957,-2.0612352
0.372,-18.009293,22.943455,-16.440193,-2.168938,3.0819535,-2.3420138
0.374,-17.085957,23.056267,-17.141685,-2.1581793,3.3505359,-2.6276646
0.376,-16.10849,23.159557,-17.851524,-2.1405766,3.6037667,-2.9179955
0.378,-15.07913,23.252651,-18.56784,-2.11604,3.840442,-3.2127986
0.38,-14.000597,23.335117,-19.288689,-2.0844817,4.059444,-3.5118427
0.382,-12.876114,23.406937,-20.01207,-2.045816,4.25978,-3.8148816
0.384,-11.708576,23.468185,-20.735964,-1.9999733,4.4405284,-4.1216726
0.386,-10.500967,23.518843,-21.458853,-1.9469995,4.600753,-4.4317036
0.388,-9.256468,23.559101,-22.178526,-1.8869575,4.740022,-4.744195
0.39,-7.977565,23.588686,-22.893286,-1.8199092,4.858196,-5.0585093
0.392,-6.670392,23.609186,-23.604523,-1.7459863,4.9550962,-5.3740063
0.394,-5.336685,23.622023,-24.30844,-1.6654034,5.030516,-5.6897583
0.396,-3.9800272,23.62731,-25.000954,-1.5784189,5.0842824,-6.004613
0.398,-2.5995443,23.624994,-25.679295,-1.4852853,5.1162257,-6.3172646
0.4,-1.2001469,23.61739,-26.340034,-1.3863506,5.126156,-6.626314
0.402,0.21623921,23.606552,-26.983685,-1.2819968,5.1138196,-6.9303265
0.404,1.6467416,23.594889,-27.60671,-1.1726005,5.079059,-7.2280173
0.406,3.0873642,23.585285,-28.20427,-1.0584668,5.021899,-7.518396
0.408,4.5370736,23.57863,-28.773449,-0.939878,4.9425263,-7.8008533
0.41,5.995614,23.575092,-29.311825,-0.81705785,4.8413296,-8.07522
0.412,7.4605646,23.576214,-29.815704,-0.6901674,4.7190256,-8.34173
0.414,8.9294815,23.58422,-30.280935,-0.5592984,4.576498,-8.600972
0.416,10.400895,23.60056,-30.703888,-0.42449737,4.4147716,-8.853772
0.418,11.87355,23.626446,-31.081333,-0.2858119,4.234893,-9.1011
0.42,13.346441,23.662903,-31.40974,-0.14339638,4.037726,-9.343908
0.422,14.81856,23.710999,-31.685595,0.002642393,3.824399,-9.583103
0.424,16.288044,23.77231,-31.90491,0.152107,3.5957427,-9.819175
0.426,17.75335,23.847816,-32.063725,0.30420732,3.351781,-10.052195
0.428,19.21369,23.937769,-32.15908,0.4581251,3.092634,-10.281944
0.43,20.667715,24.042591,-32.188095,0.6128719,2.8186262,-10.508038
0.432,22.11367,24.162458,-32.148544,0.7674651,2.5301964,-10.72998
0.434,23.54985,24.297647,-32.038544,0.9207239,2.2274616,-10.947126
0.436,24.97518,24.447775,-31.8564,1.0712495,1.9105613,-11.158831
0.438,26.388378,24.612114,-31.601112,1.2177179,1.5801713,-11.364297
0.44,27.788054,24.789946,-31.272268,1.3590264,1.2374392,-11.562732
0.442,29.172474,24.980167,-30.870068,1.4942193,0.8835497,-11.753447
0.444,30.540226,25.181316,-30.395424,1.6225688,0.5201318,-11.935623
0.446,31.890217,25.391396,-29.849077,1.7435999,0.14936829,-12.10873
0.448,33.22056,25.608921,-29.231441,1.8571498,-0.22619057,-12.272934
0.45,34.530186,25.831778,-28.544697,1.9633248,-0.60373306,-12.42905
0.452,35.81856,26.056965,-27.791676,2.0623996,-0.9803438,-12.578455
0.454,37.08493,26.281822,-26.974665,2.154761,-1.3531108,-12.722978
0.456,38.3289,26.503319,-26.096687,2.2407403,-1.719145,-12.864716
0.458,39.550713,26.717983,-25.160622,2.3205462,-2.0758047,-13.0056
0.46,40.750187,26.922947,-24.168896,2.3942215,-2.4207425,-13.147165
0.462,41.928432,27.114735,-23.124329,2.4616318,-2.751828,-13.290405
0.464,43.08657,27.290176,-22.030502,2.5225103,-3.0671763,-13.435625
0.466,44.226772,27.446789,-20.89029,2.5764575,-3.3651767,-13.582322
0.468,45.350628,27.58037,-19.70819,2.6230412,-3.6443958,-13.729403
0.47,46.46068,27.686655,-18.48752,2.6619024,-3.903432,-13.875278
0.472,47.559414,27.762787,-17.231007,2.692837,-4.1409354,-14.018158
0.474,48.64894,27.806957,-15.942936,2.7158315,-4.3556657,-14.156328
0.476,49.73362,27.816242,-14.626688,2.7309096,-4.546771,-14.288285
0.478,50.81727,27.787983,-13.286281,2.738339,-4.713187,-14.413078
0.48,51.90307,27.71983,-11.924963,2.7387667,-4.8538623,-14.530151
0.482,52.994373,27.609749,-10.546355,2.7326424,-4.9686217,-14.639208
0.484,54.09446,27.455856,-9.154547,2.7203953,-5.057825,-14.740112
0.486,55.20689,27.256016,-7.7536106,2.702359,-5.122183,-14.832935
0.488,56.334217,27.008677,-6.34709,2.6790352,-5.1623244,-14.917992
0.49,57.478844,26.71281,-4.9394407,2.6510005,-5.1792617,-14.995659
0.492,58.64304,26.367367,-3.5359402,2.6186566,-5.1745677,-15.066534
0.494,59.828117,25.971579,-2.1415043,2.5823011,-5.1499224,-15.13138
0.496,61.034515,25.525095,-0.760705,2.5421858,-5.106902,-15.190947
0.498,62.262333,25.028015,0.6013031,2.4985344,-5.047006,-15.245927
0.5,63.51037,24.481037,1.9394455,2.4516306,-4.971455,-15.296968
0.502,64.78003,23.883682,3.2513156,2.4016452,-4.8813667,-15.344574
0.504,66.068,23.236124,4.5291457,2.34869,-4.7777286,-15.389009
0.506,67.37226,22.540276,5.7659826,2.29285,-4.661292,-15.4303
0.508,68.686424,21.798695,6.9574966,2.23416,-4.5326624,-15.468304
0.51,70.00997,21.0119,8.099094,2.172556,-4.392443,-15.502735
0.512,71.33895,20.18182,9.189636,2.1078942,-4.241145,-15.533236
0.514,72.66988,19.310698,10.224544,2.0398436,-4.0793166,-15.559355
0.516,73.99954,18.400843,11.199229,1.9678893,-3.9077454,-15.580554
0.518,75.32231,17.456589,12.111311,1.8913414,-3.7273073,-15.596231
0.52,76.63241,16.482704,12.959011,1.8094329,-3.5389385,-15.605775
0.522,77.926254,15.482469,13.739804,1.7212908,-3.343708,-15.608519
0.524,79.20007,14.45899,14.451052,1.6260206,-3.1428065,-15.603743
0.526,80.449844,13.416081,15.091926,1.5227892,-2.9373064,-15.590586
0.528,81.6712,12.35786,15.662486,1.4108946,-2.7281108,-15.568069
0.53,82.8606,11.288564,16.162796,1.2898438,-2.515925,-15.53513
0.532,84.01503,10.212215,16.592722,1.1593394,-2.3012905,-15.490599
0.534,85.13227,9.132551,16.95266,1.0192842,-2.0845265,-15.433258
0.536,86.20967,8.053513,17.243423,0.8697758,-1.8658004,-15.361812
0.538,87.2451,6.979067,17.466537,0.71101904,-1.6451735,-15.275055
0.54,88.23682,5.9127693,17.623508,0.5432794,-1.4226675,-15.17191
0.542,89.18346,4.8580894,17.716377,0.36681938,-1.198319,-15.051496
0.544,90.08399,3.817976,17.747658,0.18189335,-0.97224045,-14.913227
0.546,90.93735,2.7956524,17.72028,-0.011303425,-0.74462223,-14.756836
0.548,91.74281,1.7938213,17.63783,-0.21263766,-0.5156932,-14.582325
0.55,92.500275,0.81435394,17.504023,-0.42201996,-0.2856629,-14.389986
0.552,93.211075,-0.14147186,17.322306,-0.63936186,-0.054654837,-14.180454
0.554,93.875595,-1.0720825,17.095469,-0.8645725,0.17732811,-13.954599
0.556,94.49397,-1.9757385,16.826117,-1.0975153,0.41048884,-13.713512
0.558,95.06622,-2.8507805,16.516615,-1.3380265,0.64529586,-13.458401
0.56,95.5921,-3.6957664,16.169878,-1.5859017,0.88246393,-13.190573
0.562,96.07187,-4.510174,15.789274,-1.8408906,1.1228559,-12.911397
0.564,96.50653,-5.293545,15.377953,-2.1027842,1.3674212,-12.6222725
0.566,96.896965,-6.0457153,14.93919,-2.3714807,1.6170619,-12.32465
0.568,97.243576,-6.765875,14.476345,-2.646989,1.8726051,-12.020008
0.57,97.54733,-7.4537106,13.991842,-2.9294314,2.1348088,-11.709825
0.572,97.809235,-8.109089,13.487984,-3.2191665,2.4040852,-11.395612
0.574,98.030174,-8.730881,12.966652,-3.5167217,2.6806364,-11.078907
0.576,98.212204,-9.318623,12.429256,-3.822741,2.9646409,-10.761269
0.578,98.35815,-9.872,11.877178,-4.137888,3.2562032,-10.444298
0.58,98.47104,-10.390301,11.311947,-4.4628096,3.5554533,-10.129608
0.582,98.55403,-10.871885,10.734066,-4.7980566,3.862642,-9.818668
0.584,98.61037,-11.315304,10.144016,-5.1440644,4.1782885,-9.512764
0.586,98.644226,-11.718144,9.541153,-5.5011435,4.5031004,-9.2129755
0.588,98.66048,-12.078312,8.925091,-5.869485,4.837883,-8.920135
0.59,98.6647,-12.393728,8.295536,-6.2491474,5.183464,-8.634818
0.592,98.66456,-12.662367,7.652157,-6.6401005,5.5405946,-8.357174
0.594,98.667274,-12.881807,6.9948044,-7.0422497,5.909908,-8.086946
0.596,98.68001,-13.048226,6.323429,-7.455465,6.2917337,-7.823637
0.598,98.712166,-13.158846,5.6378784,-7.879603,6.6860285,-7.5666256
0.6,98.773285,-13.210711,4.9382305,-8.314619,7.0922785,-7.315281
0.602,98.87301,-13.199948,4.225054,-8.760563,7.5093355,-7.068988
0.604,99.02097,-13.122554,3.4985275,-9.217648,7.935465,-6.8272038
0.606,99.22821,-12.974001,2.758232,-9.686217,8.368387,-6.589457
0.608,99.505844,-12.747076,2.0037365,-10.166707,8.805188,-6.355219
0.61,99.85926,-12.430988,1.2356377,-10.659616,9.242555,-6.123905
0.612,100.299545,-12.023235,0.45879173,-11.165414,9.676885,-5.8947926
0.614,100.84346,-11.521502,-0.32509232,-11.68454,10.10439,-5.6668806
0.616,101.501305,-10.915247,-1.1165619,-12.217378,10.521228,-5.438801
0.618,102.27994,-10.192322,-1.9156952,-12.764265,10.923606,-5.208801
0.62,103.185,-9.332969,-2.7221222,-13.325543,11.307789,-4.9746776
0.622,104.22563,-8.316778,-3.5364885,-13.901658,11.670039,-4.7337265
0.624,105.407776,-7.1328273,-4.3505535,-14.493155,12.006725,-4.482647
0.626,106.74099,-5.774447,-5.166728,-15.100556,12.314508,-4.217657
0.628,108.22943,-4.2209,-5.98102,-15.724507,12.590265,-3.9344907
0.63,109.87577,-2.446094,-6.7899723,-16.365818,12.831093,-3.6284244
0.632,111.69233,-0.43513107,-7.6001716,-17.025333,13.034516,-3.2942593
0.634,113.68772,1.8151922,-8.414532,-17.703648,13.198685,-2.9265735
0.636,115.86808,4.316475,-9.227227,-18.400963,13.322752,-2.519861
0.638,118.241135,7.077581,-10.035568,-19.117176,13.406379,-2.068696
0.64,120.81058,10.14003,-10.807383,-19.85156,13.449749,-1.5683789
0.642,123.58076,13.556614,-11.520428,-20.60234,13.455029,-1.0148516
0.644,126.55494,17.336334,-12.183207,-21.366589,13.425528,-0.40394306
0.646,129.73569,21.477465,-12.811707,-22.140942,13.363996,0.26752043
0.648,133.12578,26.057468,-13.499811,-22.922062,13.272441,1.0009813
0.65,136.66888,31.091919,-14.216019,-23.706146,13.15249,1.7956185
0.652,140.37247,36.563545,-14.911842,-24.488409,13.004653,2.6492705
0.654,144.31444,42.400497,-15.619778,-25.263983,12.826878,3.5591402
0.656,148.54054,48.58246,-16.347404,-26.02739,12.616194,4.5213976
0.658,152.99437,55.123547,-17.039757,-26.773758,12.366724,5.5306473
0.66,157.68024,62.04857,-17.660007,-27.49831,12.069328,6.5796957
0.662,162.60077,69.327736,-18.182205,-28.195324,11.712207,7.6598244
0.664,167.75528,76.909805,-18.58503,-28.859322,11.278882,8.761749
0.666,173.14563,84.74463,-18.826004,-29.486725,10.748014,9.876974
0.668,178.76842,92.76004,-18.892319,-30.075003,10.096352,11.001548
0.67,184.63736,100.94008,-18.842094,-30.623528,9.296792,12.13595
0.672,190.73795,109.177826,-18.629936,-31.131567,8.319082,13.281915
0.674,197.05386,117.36408,-18.223757,-31.594933,7.133067,14.446595
0.676,203.5394,125.43309,-17.605265,-32.008636,5.704138,15.6454315
0.678,210.15244,133.30086,-16.767056,-32.366226,3.995778,16.890886
0.68,216.88696,140.85197,-15.682155,-32.664597,1.9680185,18.189634
0.682,223.689,147.98788,-14.315976,-32.905426,-0.41033268,19.559347
0.684,230.4536,154.63315,-12.633749,-33.093227,-3.152072,21.021067
0.686,237.06645,160.67674,-10.588515,-33.232628,-6.253805,22.592419
0.688,243.54967,165.92674,-8.109501,-33.3227,-9.694467,24.283426
0.69,249.87238,170.31818,-5.150206,-33.36722,-13.445188,26.084244
0.692,255.84123,173.82309,-1.6836329,-33.374462,-17.468014,27.962927
0.694,261.4024,176.3669,2.316249,-33.342377,-21.68782,29.844997
0.696,266.48492,177.8664,6.8873405,-33.28422,-26.006374,31.65204
0.698,270.96777,178.26718,12.067112,-33.23686,-30.311762,33.293095
0.7,274.73993,177.53136,17.873869,-33.231358,-34.490833,34.65786
0.702,277.70795,175.63672,24.311056,-33.289654,-38.434944,35.626366
0.704,279.77307,172.5897,31.360231,-33.427982,-42.04117,36.07729
0.706,280.85257,168.4212,38.97928,-33.643696,-45.216576,35.896503
0.708,280.87286,163.19534,47.097412,-33.905994,-47.884834,34.986076
0.71,279.772,156.9994,55.63233,-34.154522,-49.997,33.27114
0.712,277.51108,149.93097,64.48838,-34.29976,-51.523193,30.705946
0.714,274.0854,142.10043,73.53913,-34.23474,-52.443512,27.28181
0.716,269.49158,133.63702,82.643295,-33.853184,-52.751266,23.048265
0.718,263.75888,124.67477,91.651886,-33.060028,-52.4506,18.132914
0.72,256.9543,115.36424,100.40436,-31.785116,-51.55334,12.701645
0.722,249.16821,105.875854,108.729095,-29.995827,-50.080063,6.9450912
0.724,240.51984,96.37672,116.45236,-27.700918,-48.060745,1.0974579
0.726,231.15662,87.01823,123.40335,-24.949715,-45.535843,-4.573786
0.728,221.23376,77.94847,129.4236,-21.825863,-42.55658,-9.795524
0.73,210.91853,69.30231,134.36543,-18.431404,-39.17836,-14.310829
0.732,200.39525,61.199966,138.10257,-14.875269,-35.463127,-17.887825
0.734,189.86389,53.748207,140.54208,-11.258796,-31.474178,-20.34277
0.736,179.50955,47.050835,141.63657,-7.670147,-27.282246,-21.570866
0.738,169.49211,41.184464,141.37189,-4.183813,-22.963955,-21.54524
0.74,159.96152,36.18729,139.75899,-0.8629265,-18.590569,-20.32011
0.742,151.05945,32.06752,136.84384,2.2365875,-14.228048,-18.030724
0.744,142.90765,28.80698,132.70322,5.07981,-9.933687,-14.874083
0.746,135.59181,26.3647,127.42018,7.652075,-5.764805,-11.092587
0.748,129.16592,24.688408,121.104065,9.942846,-1.8016355,-6.9451547
0.75,123.67308,23.67366,113.8662,11.968245,1.8752928,-2.7220476
0.752,119.11945,23.19429,105.85268,13.767305,5.1943674,1.3025603
0.754,115.47505,23.172218,97.238525,15.372801,8.098021,4.8992753
0.756,112.67619,23.528126,88.19148,16.817987,10.540507,7.8883934
0.758,110.64286,24.112583,78.92515,18.141403,12.488467,10.14639
0.76,109.332726,24.865093,69.51572,19.37477,13.927885,11.609024
0.762,108.62751,25.760405,60.04564,20.53881,14.869612,12.273807
0.764,108.35917,26.813835,50.672997,21.640379,15.350935,12.2006235
0.766,108.41693,27.982826,41.51027,22.67187,15.421846,11.503323
0.768,108.78334,29.211906,32.610645,23.617363,15.1405115,10.334601
0.77,109.36637,30.465765,24.055643,24.455435,14.576502,8.865168
0.772,110.084465,31.778187,15.933833,25.154768,13.799742,7.2725134
0.774,110.86895,33.19741,8.328851,25.676888,12.870476,5.765296
0.776,111.65823,34.76149,1.2972208,25.983372,11.835213,4.5530605
0.778,112.405426,36.51745,-5.083519,26.041685,10.72636,3.7992728
0.78,113.05734,38.454,-10.697989,25.82646,9.558695,3.6148572
0.782,113.595924,40.638916,-15.553586,25.319277,8.329836,4.055568
0.784,114.004196,43.107857,-19.63931,24.513634,7.026017,5.1147304
0.786,114.288155,45.836292,-22.9351,23.420855,5.6288695,6.720416
0.788,114.439674,48.808163,-25.42272,22.069483,4.1196804,8.744048
0.79,114.41577,52.018932,-27.11274,20.50375,2.4865057,11.015368
0.792,114.21993,55.427402,-28.02818,18.782463,0.7297926,13.341011
0.794,113.883446,58.963158,-28.19661,16.97608,-1.137255,15.525831
0.796,113.41513,62.58584,-27.661688,15.160625,-3.0884519,17.392572
0.798,112.69673,66.3051,-26.48834,13.406366,-5.0857587,18.7952
0.8,111.69422,69.99284,-24.719246,11.770847,-7.0836515,19.631643
0.802,110.508965,73.52015,-22.391298,10.300437,-9.032219,19.857342
0.804,109.08219,76.83228,-19.55939,9.027211,-10.881278,19.489243
0.806,107.38836,79.894394,-16.303053,7.9652762,-12.585203,18.598284
0.808,105.452805,82.65901,-12.709235,7.113278,-14.106038,17.297163
0.81,103.28581,85.0878,-8.855387,6.458728,-15.415972,15.723599
0.812,100.88662,87.15358,-4.817589,5.981913,-16.499004,14.021715
0.814,98.27224,88.832,-0.6668892,5.6588,-17.350065,12.324913
0.816,95.457504,90.10926,3.5302677,5.463991,-17.972775,10.741765
0.818,92.46422,90.977356,7.7140217,5.3747897,-18.377066,9.348099
0.82,89.321594,91.44307,11.817322,5.3712797,-18.577305,8.187413
0.822,86.05711,91.53412,15.773882,5.4355927,-18.594242,7.2740145
0.824,82.69071,91.289085,19.5357,5.5544386,-18.452362,6.5954833
0.826,79.26521,90.74597,23.059635,5.720318,-18.173876,6.117835
0.828,75.81167,89.94926,26.30546,5.9297743,-17.778805,5.7945166
0.83,72.35353,88.93437,29.244287,6.1789265,-17.285778,5.576346
0.832,68.91019,87.73256,31.859425,6.461775,-16.711704,5.419053
0.834,65.4953,86.37738,34.14787,6.7728634,-16.070757,5.2876
0.836,62.126015,84.90393,36.11468,7.108675,-15.375307,5.1588044
0.838,58.829258,83.3396,37.766014,7.4634037,-14.637647,5.0218334
0.84,55.626045,81.706276,39.115417,7.8270044,-13.869565,4.875452
0.842,52.521595,80.02577,40.17782,8.188759,-13.082087,4.723912
0.844,49.514214,78.31943,40.95698,8.539096,-12.286083,4.573713
0.846,46.61238,76.589806,41.459137,8.86848,-11.492773,4.432217
0.848,43.839706,74.83433,41.68954,9.167892,-10.712749,4.30631
0.85,41.206963,73.0666,41.66824,9.42974,-9.955717,4.2011223
0.852,38.703777,71.3137,41.42018,9.648286,-9.230541,4.119008
0.854,36.32611,69.60293,40.963783,9.819841,-8.545067,4.0593195
0.856,34.08129,67.94281,40.32927,9.942804,-7.905573,4.018752
0.858,31.974539,66.33485,39.54534,10.017448,-7.3164997,3.9920382
0.86,29.996613,64.78936,38.634018,10.045543,-6.780509,3.9730773
0.862,28.14735,63.325,37.61714,10.030035,-6.2986574,3.9559236
0.864,26.433481,61.94703,36.522934,9.974769,-5.870695,3.935398
0.866,24.865093,60.65708,35.38239,9.88409,-5.495389,3.9073966
0.868,23.44062,59.45622,34.222755,9.762527,-5.170846,3.869077
0.87,22.148392,58.335373,33.064163,9.614517,-4.8948154,3.8188798
0.872,20.971016,57.281685,31.92057,9.444157,-4.664913,3.7563345
0.874,19.89377,56.28247,30.805761,9.255138,-4.47876,3.6818035
0.876,18.90646,55.3265,29.732014,9.050778,-4.334029,3.596172
0.878,18.001064,54.404884,28.709206,8.834112,-4.2284737,3.500594
0.88,17.170937,53.511063,27.745892,8.607906,-4.1598005,3.3962364
0.882,16.409294,52.64125,26.85052,8.374714,-4.125612,3.284175
0.884,15.709919,51.793816,26.031277,8.136885,-4.1233354,3.1652822
0.886,15.067179,50.96786,25.295115,7.8966684,-4.1501064,3.040183
0.888,14.474998,50.16313,24.646873,7.6561728,-4.202785,2.9093223
0.89,13.927807,49.37888,24.089844,7.4173856,-4.2779446,2.773045
0.892,13.419312,48.61348,23.626194,7.182154,-4.371916,2.631678
0.894,12.943073,47.864113,23.257587,6.952157,-4.4808803,2.4855826
0.896,12.492723,47.126266,22.984398,6.7288904,-4.6009626,2.3351886
0.898,12.061312,46.395157,22.806408,6.5136647,-4.7283516,2.1810775
0.9,11.64241,45.665997,22.721752,6.3076086,-4.8593636,2.0239456
0.902,11.230112,44.934303,22.727602,6.111665,-4.9905024,1.8646271
0.904,10.818806,44.196156,22.819866,5.926652,-5.1185036,1.7040627
0.906,10.4034395,43.448112,22.99335,5.7532735,-5.240367,1.5432405
0.908,9.979947,42.687393,23.241322,5.5921793,-5.3533635,1.3832119
0.91,9.544618,41.911972,23.556057,5.44401,-5.4549437,1.2250345
0.912,9.094669,41.120274,23.928627,5.3094516,-5.5427465,1.069725
0.914,8.627277,40.311485,24.349491,5.189195,-5.6145782,0.91823626
0.916,8.140841,39.485153,24.808678,5.0839353,-5.668355,0.7714603
0.918,7.634652,38.641308,25.295364,4.9943886,-5.7020245,0.63021326
0.92,7.1084814,37.78045,25.798424,4.9212503,-5.713586,0.49526167
0.922,6.562991,36.9036,26.30645,4.8650417,-5.701227,0.3673327
0.924,5.999074,36.012047,26.808495,4.8259854,-5.663381,0.2471559
0.926,5.4184237,35.10756,27.294132,4.803965,-5.598778,0.13553047
0.928,4.823368,34.191887,27.7533,4.7983947,-5.506513,0.03332019
0.93,4.2169333,33.267212,28.176159,4.8081865,-5.386139,-0.058654785
0.932,3.6023407,32.33606,28.553755,4.8317437,-5.2377496,-0.13960552
0.934,2.983574,31.40088,28.877998,4.8669577,-5.0621033,-0.20880556
0.936,2.3647861,30.46428,29.14209,4.911229,-4.860638,-0.2656262
0.938,1.7501364,29.528894,29.340563,4.9615684,-4.635433,-0.30953836
0.94,1.1436586,28.597569,29.46962,5.014637,-4.3892293,-0.3401513
0.942,0.54942226,27.673069,29.52715,5.0668306,-4.125396,-0.35725665
0.944,-0.028722763,26.758047,29.51255,5.1143837,-3.847843,-0.36087692
0.946,-0.587059,25.854923,29.426926,5.1534576,-3.5609393,-0.3512894
0.948,-1.1220393,24.965828,29.273254,5.180219,-3.2693856,-0.3290639
0.95,-1.631114,24.092869,29.056105,5.1909995,-2.9780517,-0.29513502
0.952,-2.11207,23.237543,28.781134,5.1823883,-2.6918573,-0.25087345
0.954,-2.5633001,22.401138,28.455479,5.151361,-2.4156446,-0.19810963
0.956,-2.9837618,21.58451,28.087078,5.095448,-2.1539752,-0.13910818
0.958,-3.3730907,20.788124,27.684624,5.0127926,-1.9109828,-0.07648635
0.96,-3.731237,20.012064,27.256859,4.9022303,-1.6902099,-0.013082981
0.962,-4.0586543,19.256147,26.812872,4.763362,-1.4945147,0.04812908
0.964,-4.3564763,18.519905,26.361542,4.5965242,-1.3260194,0.10421252
0.966,-4.625922,17.802479,25.91122,4.402742,-1.1859665,0.15245306
0.968,-4.868242,17.102861,25.469734,4.183732,-1.074682,0.19050914
0.97,-5.0852165,16.420057,25.043951,3.94175,-0.99158794,0.21649253
0.972,-5.2781267,15.752735,24.639513,3.6794598,-0.9352451,0.22900122
0.974,-5.4482675,15.099673,24.260792,3.399831,-0.9033456,0.22716159
0.976,-5.5970793,14.459848,23.911102,3.106078,-0.89267737,0.21061224
0.978,-5.725682,13.832396,23.59275,2.8014753,-0.89937854,0.17947328
0.98,-5.835187,13.216901,23.306717,2.4891894,-0.9191458,0.13428771
0.982,-5.9263687,12.612889,23.052822,2.172201,-0.94744337,0.07601848
0.984,-5.999444,12.020246,22.82991,1.8531709,-0.97973883,0.0060665905
0.986,-6.054531,11.439222,22.635792,1.5343426,-1.0116953,-0.07381752
0.988,-6.091715,10.87058,22.4674,1.2175317,-1.039342,-0.16159081
0.99,-6.110879,10.315586,22.321022,0.9041642,-1.0592972,-0.25496975
0.992,-6.111639,9.775686,22.19225,0.59525096,-1.0688732,-0.35148567
0.994,-6.093639,9.252898,22.075974,0.291504,-1.0661047,-0.44856808
0.996,-6.056778,8.749466,21.967054,-0.0065807104,-1.0497226,-0.5436127
0.998,-6.0007353,8.267883,21.860584,-0.29865682,-1.019113,-0.6340831
1,-5.9251127,7.810917,21.751778,-0.58441436,-0.97418046,-0.7176301
1.002,-5.829174,7.3811345,21.636326,-0.86353475,-0.91530156,-0.79217815
1.004,-5.712687,6.9813776,21.510235,-1.1357036,-0.8432223,-0.8560337
1.006,-5.5756493,6.6142144,21.369858,-1.4005483,-0.75888044,-0.9079417
1.008,-5.4185233,6.2820997,21.211966,-1.6576604,-0.6633447,-0.94716716
1.01,-5.2418375,5.98718,21.0341,-1.9066527,-0.5577623,-0.9735309
1.012,-5.046528,5.73159,20.834106,-2.1471896,-0.4432953,-0.9873754
1.014,-4.8334455,5.5169635,20.610264,-2.379003,-0.3210829,-0.9895228
1.016,-4.603818,5.344948,20.361155,-2.601944,-0.19218583,-0.98118377
1.018,-4.3590384,5.216578,20.08597,-2.8159714,-0.057575703,-0.9638667
1.02,-4.1005044,5.132426,19.784224,-3.0211306,0.08186111,-0.93926585
1.022,-3.8296936,5.09273,19.456102,-3.2175925,0.22533327,-0.909171
1.024,-3.5480335,5.0972285,19.101948,-3.405612,0.3721018,-0.87535393
1.026,-3.257242,5.14517,18.72235,-3.5855265,0.521473,-0.8394634
1.028,-2.959371,5.2355304,18.31827,-3.7577367,0.6727954,-0.8029768
1.03,-2.6561477,5.3669767,17.890684,-3.9226782,0.8254139,-0.7671646
1.032,-2.3495781,5.5378294,17.440853,-4.080823,0.9787209,-0.7330804
1.034,-2.0412695,5.7458887,16.970238,-4.232648,1.1321267,-0.70154893
1.036,-1.7328594,5.9889326,16.480293,-4.378656,1.285023,-0.6732191
1.038,-1.4256301,6.264227,15.972815,-4.519353,1.4368099,-0.648599
1.04,-1.1213315,6.56896,15.449784,-4.6551785,1.5868529,-0.6280942
1.042,-0.82131195,6.8999033,14.913286,-4.786495,1.7344468,-0.6120281
1.044,-0.52669954,7.254042,14.365561,-4.9136133,1.8788522,-0.6006888
1.046,-0.23860145,7.6278296,13.808771,-5.036714,2.019305,-0.59432805
1.048,0.042194128,8.017844,13.245174,-5.155854,2.1550267,-0.59318316
1.05,0.31502914,8.42029,12.6765785,-5.2709765,2.285263,-0.59751177
1.052,0.57967925,8.831544,12.10511,-5.381917,2.4093184,-0.6075543
1.054,0.8359263,9.247955,11.532635,-5.4884276,2.526561,-0.62353003
1.056,1.0837791,9.665841,10.961107,-5.5902267,2.6364872,-0.64560854
1.058,1.3232391,10.081564,10.39235,-5.687044,2.7387347,-0.6738876
1.06,1.5548916,10.49158,9.828034,-5.7786913,2.8330326,-0.7083725
1.062,1.7794514,10.892514,9.269826,-5.865095,2.9192123,-0.74892485
1.064,1.9974124,11.281215,8.719058,-5.9463243,2.9971702,-0.79525876
1.066,2.2094,11.654711,8.177054,-6.0225897,3.0668085,-0.84694624
1.068,2.416352,12.010382,7.644936,-6.094269,3.1280503,-0.9033916
1.07,2.6190343,12.345922,7.124061,-6.1618958,3.1807933,-0.96383786
1.072,2.8181522,12.659399,6.615494,-6.2261586,3.2249117,-1.0273738
1.074,3.014664,12.9492445,6.1204243,-6.287904,3.2602801,-1.0930259
1.076,3.2092211,13.214617,5.639964,-6.348093,3.2867794,-1.1597927
1.078,3.4025238,13.454775,5.1751723,-6.4077716,3.3043683,-1.2266953
1.08,3.5954397,13.669451,4.727007,-6.4680605,3.3130798,-1.2928691
1.082,3.7883332,13.858957,4.2965317,-6.530068,3.313081,-1.357619
1.084,3.9818125,14.023657,3.8846304,-6.594856,3.3047545,-1.4204731
1.086,4.1765423,14.164371,3.4923248,-6.6633244,3.2886899,-1.481178
1.088,4.3727846,14.2822075,3.1203687,-6.736143,3.2657213,-1.5397103
1.09,4.5709553,14.378405,2.7695303,-6.813698,3.2369533,-1.5962317
1.092,4.771347,14.454437,2.4406831,-6.8960056,3.2037048,-1.6510282
1.094,4.973995,14.511908,2.1344287,-6.9826736,3.1674833,-1.7044697
1.096,5.179078,14.55247,1.8513172,-7.072949,3.1299326,-1.756911
1.098,5.386574,14.577759,1.5919785,-7.1657143,3.0926907,-1.8085926
1.1,5.59634,14.5893545,1.3565125,-7.2595625,3.0573463,-1.8596041
1.102,5.8082304,14.588881,1.1452608,-7.352912,3.025351,-1.9098456
1.104,6.021935,14.577898,0.95832014,-7.4440613,2.9979181,-1.9590287
1.106,6.2370834,14.557996,0.7955339,-7.531309,2.9759953,-2.0067053
1.108,6.453415,14.530576,0.65664196,-7.6130576,2.9602628,-2.0522766
1.11,6.6702023,14.4969635,0.5410166,-7.687852,2.951162,-2.0950513
1.112,6.8870444,14.4585495,0.44796538,-7.754409,2.9488957,-2.134261
1.114,7.1033235,14.416462,0.37662697,-7.811634,2.9535315,-2.169135
1.116,7.3184013,14.371778,0.32595134,-7.858652,2.965047,-2.1989267
1.118,7.5315785,14.325641,0.294662,-7.894779,2.983419,-2.2229419
1.12,7.742005,14.279115,0.28133512,-7.919507,3.0087056,-2.240588
1.122,7.9491224,14.23309,0.28433466,-7.932473,3.0410976,-2.251403
1.124,8.1520605,14.188648,0.30185485,-7.9334054,3.0809608,-2.2550848
1.126,8.350002,14.146571,0.33172417,-7.922119,3.128831,-2.2514927
1.128,8.542489,14.107464,0.371603,-7.898524,3.1853688,-2.240648
1.13,8.728793,14.072174,0.41904068,-7.8625774,3.2513447,-2.2227435
1.132,8.908358,14.041208,0.47127366,-7.814319,3.3275895,-2.1981633
1.134,9.081036,14.015105,0.52543396,-7.753845,3.4149404,-2.1674592
1.136,9.246346,13.994147,0.5785728,-7.681366,3.5141282,-2.1313164
1.138,9.4044075,13.978248,0.6277573,-7.5971627,3.6257176,-2.090542
1.14,9.55506,13.967343,0.67008007,-7.5016165,3.7500834,-2.046045
1.142,9.698372,13.961106,0.7028122,-7.395197,3.8873327,-1.9987769
1.144,9.834534,13.959236,0.72320014,-7.278448,4.037284,-1.9497087
1.146,9.963704,13.9612255,0.72875977,-7.1520233,4.1994214,-1.8997607
1.148,10.08604,13.966479,0.717344,-7.016673,4.372902,-1.8497884
1.15,10.202902,13.973973,0.68660754,-6.873195,4.5565653,-1.8005416
1.152,10.314934,13.983163,0.63475966,-6.7224464,4.748986,-1.7526581
1.154,10.422193,13.993359,0.5605775,-6.5653524,4.9484386,-1.7066753
1.156,10.52516,14.004144,0.46287346,-6.402874,5.152953,-1.6630111
1.158,10.624598,14.0149555,0.3407576,-6.2360134,5.3604164,-1.6219816
1.16,10.720995,14.025339,0.19401383,-6.065791,5.568597,-1.5838096
1.162,10.814945,14.034869,0.022359133,-5.8932543,5.7752028,-1.5486913
1.164,10.907026,14.04329,-0.17388535,-5.7194514,5.977949,-1.5168016
1.166,10.997534,14.050496,-0.394073,-5.5454726,6.1746144,-1.4882841
1.168,11.087053,14.05641,-0.63728714,-5.3723907,6.363073,-1.4632742
1.17,11.1760235,14.06118,-0.90239835,-5.201276,6.5413413,-1.441884
1.172,11.264742,14.065051,-1.1880198,-5.0331626,6.7076435,-1.4241872
1.174,11.35358,14.068299,-1.492238,-4.869037,6.8604403,-1.410193
1.176,11.442993,14.071361,-1.813313,-4.709818,6.9984174,-1.3999009
1.178,11.533074,14.074478,-2.1492758,-4.5563354,7.120587,-1.3932388
1.18,11.624121,14.078006,-2.498033,-4.409315,7.2261963,-1.3900933
1.182,11.716315,14.0822735,-2.8573682,-4.2693505,7.314689,-1.3902926
1.184,11.80965,14.087201,-3.2252657,-4.136841,7.3859086,-1.3936124
1.186,11.904313,14.092875,-3.5995588,-4.0119925,7.4399686,-1.3997875
1.188,12.000145,14.099102,-3.9780068,-3.8948662,7.4771576,-1.4085104
1.19,12.096985,14.105556,-4.3583913,-3.7854114,7.4979305,-1.4194325
1.192,12.194769,14.1116495,-4.73862,-3.6834502,7.5029197,-1.4321804
1.194,12.293185,14.116725,-5.116501,-3.5887372,7.4928446,-1.4464105
1.196,12.391917,14.119863,-5.4899473,-3.5009437,7.4685025,-1.461847
1.198,12.4907,14.120034,-5.8569326,-3.4196906,7.4307375,-1.4783401
1.2,12.588917,14.116114,-6.2155404,-3.3445778,7.380431,-1.4959064
1.202,12.685994,14.106806,-6.5639257,-3.2751722,7.318482,-1.5147687
1.204,12.781252,14.090889,-6.900362,-3.2110343,7.245801,-1.5353578
1.206,12.873924,14.067021,-7.2231064,-3.151712,7.1632886,-1.5582826
1.208,12.963209,14.034073,-7.53056,-3.0967422,7.07188,-1.5842184
1.21,13.048265,13.990825,-7.821349,-3.0456762,6.9725504,-1.6138617
1.212,13.12799,13.936357,-8.094254,-2.9980507,6.8663144,-1.6478287
1.214,13.201677,13.869768,-8.348126,-2.9534082,6.754259,-1.6865602
1.216,13.268487,13.7904005,-8.582175,-2.9112954,6.637527,-1.7302192
1.218,13.327785,13.697809,-8.795546,-2.8712769,6.5173674,-1.7786384
1.22,13.379144,13.591819,-8.98778,-2.8329139,6.3951235,-1.8313503
1.222,13.422144,13.472344,-9.158674,-2.7957911,6.2722306,-1.887609
1.224,13.456556,13.339452,-9.308332,-2.7594976,6.1501694,-1.9465156
1.226,13.482231,13.19364,-9.436929,-2.7236614,6.0304155,-2.0070708
1.228,13.499303,13.035472,-9.544869,-2.687942,5.914428,-2.0682766
1.23,13.508007,12.86561,-9.633047,-2.6520853,5.803579,-2.1291862
1.232,13.508702,12.68505,-9.70223,-2.6159015,5.699061,-2.1889906
1.234,13.502041,12.49479,-9.7533455,-2.5792823,5.601947,-2.2470536
1.236,13.488575,12.295959,-9.787588,-2.542204,5.513112,-2.3029265
1.238,13.468979,12.089845,-9.806255,-2.5047538,5.43302,-2.3562973
1.24,13.444035,11.877549,-9.810579,-2.4670885,5.361824,-2.4069717
1.242,13.414592,11.660347,-9.801887,-2.4293723,5.2994547,-2.4548745
1.244,13.381325,11.439364,-9.781591,-2.3917656,5.2455244,-2.4999926
1.246,13.34513,11.215809,-9.750973,-2.3544524,5.199314,-2.542356
1.248,13.3066025,10.990801,-9.711283,-2.3175845,5.1598635,-2.582022
1.25,13.2663765,10.765303,-9.663781,-2.2813199,5.1259866,-2.6190412
1.252,13.224901,10.540256,-9.609625,-2.2457688,5.096362,-2.6534567
1.254,13.182588,10.316505,-9.549763,-2.2109969,5.069599,-2.6852999
1.256,13.139738,10.094577,-9.48525,-2.1770468,5.0443335,-2.7145793
1.258,13.096413,9.875133,-9.416973,-2.1439102,5.0193157,-2.7412827
1.26,13.051717,9.658995,-9.3452425,-2.1115527,4.993512,-2.7654035
1.262,13.005806,9.44635,-9.270763,-2.079878,4.9661283,-2.786953
1.264,12.958854,9.237448,-9.194272,-2.0487485,4.9366493,-2.8059633
1.266,12.910859,9.0326185,-9.116107,-2.018003,4.9048314,-2.8224926
1.268,12.86145,8.8320465,-9.036606,-1.9874659,4.870697,-2.83661
1.27,12.810677,8.636048,-8.956254,-1.956949,4.8345017,-2.848404
1.272,12.75833,8.444658,-8.875379,-1.9262553,4.796674,-2.8579836
1.274,12.704548,8.257849,-8.794475,-1.8951955,4.7577677,-2.8654275
1.276,12.649381,8.0755825,-8.713964,-1.8635943,4.71841,-2.8708255
1.278,12.592947,7.8978586,-8.634427,-1.8312914,4.6792607,-2.8742175
1.28,12.53541,7.7244177,-8.55615,-1.7981535,4.640982,-2.8756363
1.282,12.476947,7.5551524,-8.479543,-1.7640669,4.6041856,-2.875115
1.284,12.417766,7.389815,-8.4052725,-1.7289397,4.569438,-2.8727028
1.286,12.358332,7.228029,-8.33381,-1.6927058,4.5372357,-2.8685005
1.288,12.298816,7.0698185,-8.265662,-1.6553378,4.5079403,-2.862612
1.29,12.239345,6.915008,-8.201144,-1.6168439,4.4817877,-2.8552053
1.292,12.18042,6.7633033,-8.140774,-1.5772743,4.4588804,-2.8464801
1.294,12.122258,6.614522,-8.084825,-1.5367229,4.439178,-2.8366687
1.296,12.06509,6.46859,-8.033568,-1.4953123,4.422485,-2.8259947
1.298,12.009163,6.325324,-7.987255,-1.4532183,4.4084616,-2.8146973
1.3,11.954621,6.1846647,-7.9459968,-1.4106381,4.396649,-2.802978
1.302,11.901676,6.0465956,-7.9097805,-1.3678067,4.386523,-2.7909918
1.304,11.85049,5.910986,-7.878579,-1.324959,4.3774967,-2.778827
1.306,11.801283,5.777751,-7.8522644,-1.2823676,4.368985,-2.7665372
1.308,11.754154,5.646858,-7.830619,-1.2402935,4.360431,-2.7541351
1.31,11.70937,5.51814,-7.813421,-1.1990023,4.3513517,-2.741611
1.312,11.667105,5.391588,-7.800369,-1.1587412,4.3413253,-2.7289581
1.314,11.62751,5.266979,-7.7910795,-1.1197417,4.3300533,-2.7161927
1.316,11.5908,5.14417,-7.785174,-1.0821872,4.31734,-2.7033617
1.318,11.55721,5.022939,-7.7823195,-1.0462129,4.3030705,-2.690548
1.32,11.526909,4.9032025,-7.782037,-1.0118954,4.287252,-2.6779163
1.322,11.499947,4.7846923,-7.7839127,-0.9792596,4.2699347,-2.6656752
1.324,11.4764805,4.667159,-7.7875595,-0.94829583,4.25118,-2.6540306
1.326,11.456501,4.55038,-7.7925434,-0.9189392,4.2310796,-2.643209
1.328,11.439831,4.434128,-7.798432,-0.89110816,4.209712,-2.6334047
1.33,11.426558,4.318186,-7.8047585,-0.8647146,4.187111,-2.6247501
1.332,11.416322,4.2023573,-7.8111014,-0.8396488,4.1632967,-2.6173174
1.334,11.409042,4.0866275,-7.8169584,-0.81580025,4.138257,-2.6111145
1.336,11.404563,3.9707153,-7.821961,-0.7930933,4.1119723,-2.6061015
1.338,11.402644,3.8545153,-7.825766,-0.7714485,4.084434,-2.602181
1.34,11.403007,3.737952,-7.8279605,-0.7508142,4.05564,-2.599215
1.342,11.405376,3.6209009,-7.8283577,-0.7311503,4.0256424,-2.5970669
1.344,11.409346,3.5033123,-7.8267074,-0.71244526,3.9945207,-2.5955715
1.346,11.414701,3.385085,-7.8227434,-0.6946868,3.9623926,-2.5945559
1.348,11.420966,3.2664235,-7.816429,-0.67786586,3.9294393,-2.5938458
1.35,11.427696,3.147294,-7.8076878,-0.6619731,3.8958457,-2.5932684
1.352,11.43472,3.027873,-7.7963643,-0.64698315,3.86183,-2.5926328
1.354,11.441541,2.908184,-7.782344,-0.63286597,3.8276227,-2.5917618
1.356,11.44794,2.788507,-7.765545,-0.61955774,3.7934268,-2.5905046
1.358,11.453686,2.6689436,-7.7460704,-0.60699016,3.7594552,-2.5887372
1.36,11.458445,2.5497358,-7.72387,-0.59504616,3.7259061,-2.5863526
1.362,11.462076,2.4310744,-7.699034,-0.58361256,3.6929536,-2.5832744
1.364,11.464381,2.3130565,-7.671748,-0.57254744,3.6607502,-2.579478
1.366,11.465181,2.1960645,-7.6419787,-0.5617107,3.6294196,-2.574964
1.368,11.464519,2.0802302,-7.6099396,-0.5509634,3.599052,-2.5697708
1.37,11.462395,1.9657335,-7.575864,-0.54018337,3.5697465,-2.5639467
1.372,11.458566,1.8528216,-7.5398436,-0.5292678,3.541574,-2.5575325
1.374,11.453245,1.7415538,-7.5021095,-0.5181309,3.5145853,-2.5505586
1.376,11.446307,1.6320872,-7.4628553,-0.50668603,3.4888167,-2.543028
1.378,11.437726,1.5246313,-7.4222507,-0.49487168,3.464296,-2.534946
1.38,11.427518,1.4192288,-7.3803935,-0.48266974,3.4409912,-2.5262709
1.382,11.415709,1.3160937,-7.337522,-0.470072,3.418847,-2.516936
1.384,11.402378,1.215354,-7.293761,-0.4570872,3.3978176,-2.506856
1.386,11.387806,1.1171649,-7.2493486,-0.44375783,3.3778133,-2.4959414
1.388,11.371964,1.0215881,-7.2044106,-0.4301264,3.3587346,-2.4840908
1.39,11.355003,0.9287081,-7.159128,-0.41624194,3.3404462,-2.471198
1.392,11.337046,0.83860993,-7.113631,-0.4021806,3.3228114,-2.457196
1.394,11.318312,0.75133514,-7.0680943,-0.38800022,3.3057046,-2.4420424
1.396,11.298771,0.6670716,-7.0224185,-0.37376714,3.289008,-2.4257092
1.398,11.278763,0.5855408,-6.976813,-0.3595368,3.2726061,-2.4082153
1.4,11.2584715,0.50681853,-6.9314327,-0.345365,3.2563624,-2.3896148
1.402,11.237806,0.43080664,-6.8860846,-0.33127826,3.2401295,-2.3699768
1.404,11.217049,0.35760927,-6.840864,-0.31732568,3.2237806,-2.3494
1.406,11.196298,0.28688908,-6.7956514,-0.3035368,3.207162,-2.3280082
1.408,11.175616,0.2187357,-6.750475,-0.2899358,3.1901457,-2.3059382
1.41,11.155352,0.15280843,-6.7051754,-0.27655515,3.172646,-2.283326
1.412,11.135405,0.088944435,-6.6597114,-0.26339427,3.1546113,-2.2603266
1.414,11.115864,0.027013302,-6.613988,-0.25045687,3.1360228,-2.2371068
1.416,11.096788,-0.03323698,-6.5678687,-0.23769999,3.1169267,-2.2138338
1.418,11.078332,-0.09208584,-6.521163,-0.22507685,3.097426,-2.1906586
1.42,11.0605345,-0.14970374,-6.473756,-0.21250764,3.0776823,-2.1677256
1.422,11.04341,-0.20631361,-6.4255314,-0.19989458,3.0578973,-2.145162
1.424,11.027103,-0.26211286,-6.376301,-0.18711922,3.0382757,-2.1230736
1.426,11.011544,-0.31731272,-6.325946,-0.17405984,3.0190432,-2.1015222
1.428,10.996726,-0.37220955,-6.2746263,-0.16060677,3.0003967,-2.0805128
1.43,10.982703,-0.42689204,-6.2220154,-0.14666161,2.9825447,-2.060007
1.432,10.969625,-0.48148608,-6.1682487,-0.13213679,2.9656916,-2.0399191
1.434,10.95743,-0.5361266,-6.1131377,-0.11696324,2.9500227,-2.0201223
1.436,10.946035,-0.59100366,-6.056728,-0.101103365,2.9356894,-2.0004585
1.438,10.935591,-0.6459949,-5.999157,-0.08453375,2.9228072,-1.9807584
1.44,10.925795,-0.70115805,-5.940385,-0.06725171,2.9114718,-1.9608576
1.442,10.916901,-0.756511,-5.8805156,-0.04927215,2.9017653,-1.9406028
1.444,10.90876,-0.81209874,-5.819627,-0.030624688,2.8937337,-1.9198538
1.446,10.901415,-0.8677981,-5.7578926,-0.011340022,2.8873591,-1.8984959
1.448,10.894832,-0.92352414,-5.695411,0.008518577,2.882605,-1.8764428
1.45,10.888974,-0.97918725,-5.6322274,0.028899193,2.879373,-1.8536367
1.452,10.883757,-1.0347722,-5.5686193,0.04974854,2.8775501,-1.8300353
1.454,10.879158,-1.0901392,-5.504633,0.0709849,2.8769975,-1.8056189
1.456,10.875179,-1.1451435,-5.44038,0.09253356,2.8775449,-1.7803751
1.458,10.871615,-1.1997926,-5.375882,0.11433792,2.8789957,-1.7543118
1.46,10.868574,-1.2540076,-5.3113384,0.13632745,2.8811634,-1.7274362
1.462,10.865791,-1.3076787,-5.2468367,0.15843284,2.8838346,-1.699785
1.464,10.863387,-1.3606868,-5.182457,0.1805929,2.8868082,-1.6714145
1.466,10.861125,-1.4130807,-5.11823,0.20273095,2.8899035,-1.6423969
1.468,10.859113,-1.4647906,-5.054143,0.2247777,2.8929722,-1.6128095
1.47,10.8572235,-1.5159018,-4.990227,0.2466538,2.895892,-1.5827619
1.472,10.855361,-1.5663674,-4.926456,0.26830387,2.8985746,-1.552367
1.474,10.853321,-1.6162078,-4.862764,0.2896735,2.9009566,-1.5217507
1.476,10.851227,-1.6655827,-4.799164,0.31073773,2.9030223,-1.4910302
1.478,10.848846,-1.714432,-4.7355614,0.33147705,2.9048,-1.4603369
1.48,10.846199,-1.7628894,-4.6719885,0.35189807,2.906338,-1.4297708
1.482,10.843257,-1.8110566,-4.6083407,0.3720333,2.9077015,-1.3994069
1.484,10.839979,-1.8589466,-4.544565,0.39191145,2.9089918,-1.3693097
1.486,10.836291,-1.9065778,-4.4806466,0.41158915,2.9102998,-1.3395
1.488,10.83226,-1.9539886,-4.416504,0.4311245,2.9117317,-1.3099844
1.49,10.827835,-2.0012069,-4.35221,0.450581,2.913427,-1.2807392
1.492,10.823103,-2.048257,-4.287769,0.469998,2.9154975,-1.251714
1.494,10.81802,-2.0951335,-4.223087,0.48941952,2.9180605,-1.2228398
1.496,10.812428,-2.141739,-4.1582384,0.50887716,2.9212146,-1.1940453
1.498,10.80644,-2.1880383,-4.0932617,0.5283897,2.9250507,-1.1652553
1.5,10.800192,-2.2339664,-4.0282354,0.5479619,2.929655,-1.1363809
1.502,10.793753,-2.2795339,-3.9632373,0.5675966,2.9350786,-1.1073372
1.504,10.787111,-2.3245006,-3.8983207,0.58727586,2.9413662,-1.0780404
1.506,10.780233,-2.3688664,-3.8336704,0.60697633,2.948542,-1.0484037
1.508,10.773173,-2.4124043,-3.7693207,0.6266737,2.9565976,-1.018357
1.51,10.7660475,-2.4551022,-3.705441,0.6463306,2.9654934,-0.9878618
1.512,10.758867,-2.4967108,-3.6422415,0.6658904,2.9751415,-0.9568658
1.514,10.751673,-2.5371041,-3.5797517,0.685281,2.9854245,-0.9253387
1.516,10.744567,-2.5761862,-3.5182025,0.70442563,2.996202,-0.8932512
1.518,10.737519,-2.6139088,-3.457657,0.7232275,3.0072875,-0.860596
1.52,10.730468,-2.6499069,-3.3982463,0.7415788,3.0184474,-0.8273802
1.522,10.723576,-2.6841738,-3.3400774,0.7593372,3.029387,-0.7936072
1.524,10.716971,-2.7166376,-3.2831879,0.7763546,3.0397706,-0.75927544
1.526,10.710449,-2.74718,-3.2276454,0.7924558,3.0492463,-0.7243999
1.528,10.704042,-2.775641,-3.1735282,0.80745703,3.0574498,-0.6889788
1.53,10.697723,-2.802014,-3.1207452,0.82116765,3.064029,-0.65304255
1.532,10.69158,-2.826326,-3.0692694,0.83341366,3.0686493,-0.6166264
1.534,10.685417,-2.8485084,-3.0190558,0.8440213,3.0710368,-0.5798112
1.536,10.679367,-2.868546,-2.970004,0.85283816,3.0709965,-0.5426787
1.538,10.673396,-2.8863525,-2.921822,0.85977197,3.0683846,-0.5053482
1.54,10.667325,-2.9020736,-2.8744328,0.86474925,3.063162,-0.4679849
1.542,10.661098,-2.915728,-2.8276117,0.86774707,3.0553503,-0.43074763
1.544,10.654668,-2.9273782,-2.781243,0.8687725,3.0450096,-0.3938284
1.546,10.648023,-2.9369721,-2.7350388,0.8678876,3.0322683,-0.357396
1.548,10.641037,-2.944809,-2.6887627,0.8651626,3.0172937,-0.3216033
1.55,10.633687,-2.9508657,-2.6421227,0.86068404,3.000269,-0.28656435
1.552,10.6258545,-2.9551253,-2.5949214,0.8545546,2.9813993,-0.2523378
1.554,10.617626,-2.95779,-2.547025,0.84688395,2.9608958,-0.2189399
1.556,10.608627,-2.9587855,-2.4981213,0.8377746,2.9389753,-0.18631923
1.558,10.59904,-2.9582505,-2.4481606,0.827326,2.9158792,-0.1543833
1.56,10.588707,-2.9562454,-2.3970153,0.8156256,2.891855,-0.122985125
1.562,10.577701,-2.9527276,-2.3443985,0.8027567,2.8671646,-0.091941476
1.564,10.565794,-2.9477947,-2.2904463,0.78879374,2.8420606,-0.061056614
1.566,10.5529995,-2.9413676,-2.2351413,0.7738138,2.8167868,-0.030147672
1.568,10.53928,-2.9335287,-2.1785083,0.7578898,2.7915568,0.00095427036
1.57,10.524449,-2.9241295,-2.120558,0.7410831,2.7665472,0.032387376
1.572,10.5085335,-2.9132047,-2.0613022,0.72345304,2.7419238,0.06427705
1.574,10.491495,-2.900788,-2.0008287,0.7050582,2.717813,0.09670544
1.576,10.473273,-2.8868678,-1.9393234,0.6859641,2.6943269,0.12972581
1.578,10.453595,-2.8713179,-1.8768438,0.6662047,2.671548,0.16334522
1.58,10.432474,-2.8540792,-1.8135041,0.6458375,2.6494987,0.19755471
1.582,10.409668,-2.8351107,-1.7493906,0.6248878,2.6281843,0.23232508
1.584,10.385134,-2.8144069,-1.684544,0.60337985,2.6075778,0.26763523
1.586,10.358631,-2.7918224,-1.6190939,0.5813192,2.5876594,0.30345434
1.588,10.330178,-2.7673717,-1.5530586,0.55871236,2.5683637,0.33976442
1.59,10.299218,-2.7408862,-1.4863877,0.5355586,2.549634,0.37653744
1.592,10.265637,-2.7122684,-1.4191313,0.511826,2.531426,0.41377807
1.594,10.229056,-2.6814685,-1.3512541,0.48751685,2.513691,0.45148772
1.596,10.189408,-2.6486712,-1.2826623,0.46262115,2.4964347,0.48965782
1.598,10.1464615,-2.6137695,-1.2135068,0.43715852,2.4796832,0.5282912
1.6,10.099999,-2.576775,-1.1435707,0.41115856,2.4634876,0.5673619
1.602,10.04973,-2.5376422,-1.0727758,0.38468397,2.4479342,0.6068506
1.604,9.995478,-2.4964297,-1.0010726,0.35780793,2.4331415,0.6467016
1.606,9.937032,-2.453233,-0.9283273,0.33060652,2.4192066,0.6868525
1.608,9.87428,-2.4080992,-0.8543415,0.3031698,2.4062424,0.72724855
1.61,9.806954,-2.3609662,-0.77907014,0.27556676,2.3943405,0.7678124
1.612,9.7349415,-2.3117914,-0.702299,0.24786282,2.3835824,0.80849755
1.614,9.65822,-2.260794,-0.62384784,0.22012317,2.3740036,0.84926236
1.616,9.576781,-2.2080555,-0.54365885,0.19238287,2.3656273,0.8901118
1.618,9.490644,-2.1536393,-0.4615414,0.16467273,2.358448,0.93110114
1.62,9.399874,-2.0975592,-0.37726796,0.13701284,2.352459,0.97230774
1.622,9.304689,-2.0400224,-0.29080784,0.10941672,2.3476868,1.0138483
1.624,9.2052,-1.9811205,-0.20206285,0.08192229,2.3441682,1.0558786
1.626,9.101698,-1.9209071,-0.11097276,0.05456972,2.3419557,1.0985712
1.628,8.9946,-1.8595195,-0.017519593,0.02740705,2.3411489,1.1421148
1.63,8.884374,-1.797195,0.07815802,0.0005059242,2.3418741,1.1866608
1.632,8.771363,-1.7340924,0.1760459,-0.02605176,2.344327,1.2323341
1.634,8.656166,-1.6702266,0.27600074,-0.0522092,2.348755,1.2791859
1.636,8.539483,-1.6058894,0.37767112,-0.07789999,2.3554354,1.327201
1.638,8.4218855,-1.5412532,0.48093283,-0.10308564,2.3646743,1.3762611
1.64,8.304105,-1.4764452,0.5853609,-0.12775314,2.3767674,1.4261864
1.642,8.186834,-1.4116614,0.6906619,-0.15191591,2.391994,1.4767386
1.644,8.070842,-1.3470556,0.7964685,-0.1756221,2.4105356,1.5276486
1.646,7.9567523,-1.2828984,0.90234447,-0.1989311,2.4324841,1.5786562
1.648,7.845267,-1.2193956,1.0078787,-0.22192991,2.457822,1.6295183
1.65,7.7374096,-1.1568128,1.112587,-0.24469364,2.4863932,1.6800399
1.652,7.6337595,-1.0952833,1.2160906,-0.2672832,2.5179546,1.7300642
1.654,7.534993,-1.0350196,1.3180397,-0.28974426,2.5521681,1.7794824
1.656,7.4418406,-0.97631836,1.4180425,-0.31212664,2.5886345,1.8281883
1.658,7.3547378,-0.9192717,1.5157121,-0.33445835,2.6269324,1.8760962
1.66,7.2743225,-0.8641515,1.6106654,-0.35677218,2.6666782,1.9230957
1.662,7.200892,-0.81109405,1.7027498,-0.37910295,2.7075176,1.9690517
1.664,7.1346827,-0.76009226,1.7918067,-0.40148437,2.749188,2.0138125
1.666,7.076255,-0.71131706,1.8775297,-0.4239657,2.7914886,2.0571964
1.668,7.025447,-0.6647258,1.9598626,-0.4466318,2.8343148,2.099006
1.67,6.982779,-0.6202998,2.0387444,-0.4695499,2.877614,2.1390631
1.672,6.947944,-0.5779872,2.1139739,-0.49282372,2.9214098,2.1771963
1.674,6.9210644,-0.5375912,2.1857114,-0.516541,2.9657311,2.2132978
1.676,6.9019547,-0.49908638,2.2538958,-0.5407765,3.0106084,2.2473407
1.678,6.890469,-0.46216798,2.3186238,-0.56559,3.0561104,2.279339
1.68,6.8862944,-0.42655587,2.3799052,-0.5910187,3.1022673,2.3093452
1.682,6.8889627,-0.39192653,2.4375954,-0.61708844,3.1490831,2.337473
1.684,6.8982115,-0.35782623,2.491785,-0.64379346,3.1965547,2.363872
1.686,6.913508,-0.3238573,2.5424876,-0.67110384,3.2446365,2.388731
1.688,6.934511,-0.28957438,2.5897448,-0.6989714,3.2932942,2.41224
1.69,6.9606776,-0.25448227,2.6335218,-0.7273551,3.3425016,2.434575
1.692,6.991517,-0.2181313,2.6737761,-0.7562096,3.3922644,2.4558957
1.694,7.026474,-0.1799314,2.710412,-0.7854965,3.4425888,2.4763212
1.696,7.0649023,-0.13933873,2.7434237,-0.8152033,3.493495,2.4959373
1.698,7.1060824,-0.09580183,2.7727904,-0.84533215,3.545038,2.5147958
1.7,7.1498675,-0.048836708,2.7983627,-0.8759092,3.59725,2.532919
1.702,7.195443,0.0021703243,2.820056,-0.9069725,3.650147,2.5503263
1.704,7.2421937,0.05771494,2.8377929,-0.93858075,3.703726,2.56701
1.706,7.289484,0.11855888,2.851572,-0.97081876,3.7579312,2.582967
1.708,7.336712,0.18496013,2.861411,-1.00377,3.8126917,2.5982075
1.71,7.3833055,0.25748134,2.8671644,-1.0374906,3.8678966,2.6127326
1.712,7.428762,0.33646894,2.8688087,-1.0720522,3.9234357,2.6265526
1.714,7.4725575,0.42224383,2.8661995,-1.1075115,3.9791627,2.6396704
1.716,7.514155,0.5150299,2.8593292,-1.1439178,4.0349154,2.652075
1.718,7.552976,0.61504877,2.8480983,-1.1813035,4.0905066,2.6637478
1.72,7.5885777,0.72238505,2.832646,-1.2196898,4.145749,2.6746552
1.722,7.6204867,0.8369663,2.8127651,-1.2590834,4.2004476,2.6847503
1.724,7.6481457,0.9589746,2.7885654,-1.2994853,4.2543974,2.6939666
1.726,7.671013,1.0882713,2.760133,-1.3408681,4.307329,2.7022324
1.728,7.688673,1.2246081,2.7275114,-1.3832138,4.3589964,2.7094567
1.73,7.7008185,1.3677013,2.6906161,-1.4265028,4.4091187,2.7155206
1.732,7.706983,1.5172786,2.6498494,-1.4707242,4.4573774,2.7203288
1.734,7.7070117,1.6729176,2.605271,-1.5158602,4.503483,2.7237997
1.736,7.700721,1.8340645,2.5570056,-1.5618801,4.5471506,2.72584
1.738,7.687956,2.0002255,2.5053482,-1.6087955,4.5880656,2.726393
1.74,7.6687346,2.1706934,2.4504983,-1.6566148,4.6259456,2.725391
1.742,7.6432953,2.3448405,2.3926735,-1.7053577,4.660534,2.7227926
1.744,7.6117806,2.521811,2.3321455,-1.7550478,4.6916075,2.7185695
1.746,7.5747128,2.7009428,2.2692237,-1.8057418,4.7189713,2.7127101
1.748,7.5326834,2.8813758,2.2040284,-1.8574783,4.7425504,2.7052069
1.75,7.486122,3.0623403,2.1370134,-1.9103063,4.7623205,2.6960492
1.752,7.435791,3.2430828,2.0683002,-1.9642636,4.7783384,2.6852322
1.754,7.3826575,3.422658,1.9981217,-2.019386,4.790762,2.6727145
1.756,7.327659,3.6003036,1.9267297,-2.0756907,4.79982,2.658444
1.758,7.2716837,3.775392,1.8543549,-2.133152,4.805822,2.6423738
1.76,7.215628,3.9473124,1.7812109,-2.1916974,4.8091216,2.6244369
1.762,7.16065,4.115285,1.7074115,-2.2512367,4.8100996,2.6045718
1.764,7.107618,4.278924,1.6331036,-2.3116302,4.809147,2.5827413
1.766,7.0575895,4.4378233,1.558408,-2.3726854,4.8066216,2.558956
1.768,7.0113554,4.591561,1.4835496,-2.4341855,4.802863,2.5332828
1.77,6.96969,4.740032,1.4085054,-2.495891,4.7981596,2.5058432
1.772,6.9334173,4.8830905,1.3332303,-2.5575476,4.792756,2.4768212
1.774,6.903014,5.0208015,1.2576504,-2.618888,4.786827,2.446457
1.776,6.8788323,5.1532493,1.1817598,-2.679665,4.7805076,2.4150314
1.778,6.8612347,5.2807302,1.1053853,-2.739676,4.7738953,2.3828325
1.78,6.849913,5.4035254,1.0283306,-2.7987356,4.7670755,2.3501437
1.782,6.8451576,5.522099,0.9503989,-2.8567123,4.760104,2.3172226
1.784,6.846733,5.6369004,0.8712549,-2.9135365,4.7530136,2.28428
1.786,6.854273,5.748464,0.79067755,-2.9691818,4.7458477,2.2514567
1.788,6.8672404,5.8574514,0.70835304,-3.0236616,4.7386274,2.2188454
1.79,6.8851337,5.96435,0.62388587,-3.0770292,4.7313433,2.1864817
1.792,6.9072714,6.0697207,0.5370493,-3.129342,4.7240095,2.1543496
1.794,6.932782,6.1741977,0.44743586,-3.180677,4.7165966,2.1223907
1.796,6.961104,6.2782903,0.35464787,-3.2310839,4.7090626,2.090535
1.798,6.9912424,6.3824143,0.25838995,-3.2806032,4.701352,2.058669
1.8,7.022358,6.487012,0.15825963,-3.3292298,4.6933913,2.026691
1.802,7.0536547,6.5924864,0.053975344,-3.376954,4.685065,1.9944938
1.804,7.0842156,6.6991334,-0.05484891,-3.4237213,4.676267,1.9619828
1.806,7.113366,6.806979,-0.16840792,-3.4694493,4.6668663,1.9290938
1.808,7.1403885,6.916129,-0.28715062,-3.5140262,4.656732,1.89581
1.81,7.164314,7.0266542,-0.41123772,-3.5573432,4.6457367,1.8621447
1.812,7.1847143,7.138467,-0.54105496,-3.5992775,4.6337557,1.8281233
1.814,7.200956,7.2513366,-0.6766858,-3.6397204,4.6206694,1.7938256
1.816,7.212532,7.3650093,-0.81846166,-3.6785722,4.6063576,1.7593384
1.818,7.2189684,7.4792633,-0.9665401,-3.715766,4.5906954,1.7247638
1.82,7.2199225,7.5937543,-1.1210749,-3.75127,4.573548,1.6901901
1.822,7.215163,7.707778,-1.2822357,-3.7850792,4.554772,1.6556852
1.824,7.204517,7.82101,-1.4500103,-3.8172245,4.534195,1.6213143
1.826,7.1878524,7.9329185,-1.6244327,-3.84778,4.511637,1.5871171
1.828,7.1652493,8.04282,-1.805632,-3.876831,4.4869003,1.553093
1.83,7.1367087,8.150118,-1.9935615,-3.9044778,4.459761,1.5192332
1.832,7.102402,8.254165,-2.188043,-3.930812,4.43001,1.4855309
1.834,7.0627136,8.354233,-2.3890429,-3.955937,4.397433,1.451945
1.836,7.0180736,8.449635,-2.5963602,-3.9799094,4.361827,1.4184381
1.838,6.9685626,8.539867,-2.8098576,-4.002767,4.3230424,1.3849728
1.84,6.914536,8.624093,-3.0291169,-4.024516,4.280959,1.3515105
1.842,6.856428,8.701816,-3.2540107,-4.0451365,4.2355237,1.3180053
1.844,6.79448,8.772386,-3.484047,-4.064565,4.1867204,1.2844107
1.846,6.7290897,8.835291,-3.7186973,-4.0827203,4.13458,1.2506664
1.848,6.660715,8.890031,-3.9575582,-4.0994997,4.079191,1.2167156
1.85,6.589452,8.936298,-4.1997976,-4.1147966,4.0206537,1.1825023
1.852,6.5156336,8.973652,-4.4448133,-4.1284924,3.9590986,1.1480036
1.854,6.439482,9.001846,-4.6919165,-4.140484,3.8946614,1.1131783
1.856,6.3611755,9.020702,-4.9402714,-4.1506686,3.827466,1.0780134
1.858,6.280792,9.030076,-5.188817,-4.158978,3.7576332,1.0424833
1.86,6.198612,9.029788,-5.4368353,-4.1653576,3.6852455,1.0065726
1.862,6.114578,9.019864,-5.6831555,-4.16978,3.6103702,0.9702713
1.864,6.0285587,9.000391,-5.926574,-4.172228,3.5330474,0.93357116
1.866,5.9406953,8.971496,-6.1659966,-4.1727185,3.4533005,0.8964688
1.868,5.851033,8.93322,-6.4001927,-4.171265,3.3711293,0.8589748
1.87,5.7591743,8.885842,-6.627866,-4.1678953,3.286518,0.8211149
1.872,5.665077,8.829768,-6.8476105,-4.1626344,3.1994622,0.78295445
1.874,5.5687428,8.765175,-7.0580745,-4.1555033,3.1099591,0.7445829
1.876,5.469906,8.692517,-7.257796,-4.1464868,3.0180051,0.70614374
1.878,5.368581,8.6122675,-7.445513,-4.1355677,2.9236288,0.6678118
1.88,5.2646155,8.524805,-7.61973,-4.1226892,2.8268511,0.62977034
1.882,5.157951,8.430732,-7.779026,-4.1078043,2.7277267,0.59229153
1.884,5.0486584,8.330368,-7.922237,-4.0908413,2.6263833,0.5556701
1.886,4.936667,8.224369,-8.048086,-4.0717225,2.5229409,0.5202026
1.888,4.8220553,8.11333,-8.155528,-4.0503664,2.417578,0.4862157
1.89,4.705102,7.9978037,-8.243846,-4.026705,2.31053,0.45405263
1.892,4.585808,7.8782144,-8.312215,-4.00065,2.2020838,0.4240625
1.894,4.464447,7.7552276,-8.360211,-3.972129,2.0925877,0.39658505
1.896,4.3412995,7.629411,-8.387653,-3.9410524,1.9824505,0.37193137
1.898,4.216691,7.5012617,-8.394614,-3.9073415,1.8721596,0.35035628
1.9,4.0910482,7.3713107,-8.381313,-3.8709097,1.762269,0.3320722
1.902,3.9648857,7.2400656,-8.348348,-3.8316715,1.6533829,0.31719518
1.904,3.8385417,7.1079364,-8.2964735,-3.789548,1.5461646,0.30576086
1.906,3.7125063,6.9754295,-8.226927,-3.7444696,1.4412898,0.29770666
1.908,3.5872893,6.8429976,-8.141002,-3.6963725,1.3394396,0.29292762
1.91,3.4634418,6.7110243,-8.040199,-3.6452146,1.2412658,0.29124647
1.912,3.341569,6.5797443,-7.9263287,-3.5909324,1.1473646,0.29245394
1.914,3.2219536,6.44963,-7.8012304,-3.5334978,1.0582767,0.2963398
1.916,3.105246,6.3208947,-7.6669526,-3.4728913,0.9744418,0.30269247
1.918,2.9918451,6.193803,-7.525551,-3.4090831,0.89620835,0.31130093
1.92,2.882339,6.068521,-7.379155,-3.3420434,0.8238481,0.3219717
1.922,2.7770276,5.9451723,-7.2296987,-3.2717488,0.7575516,0.3345058
1.924,2.6762593,5.824052,-7.0794525,-3.1981697,0.6974335,0.34870458
1.926,2.5802305,5.705158,-6.9304028,-3.1212819,0.64354944,0.36432266
1.928,2.489316,5.588547,-6.784396,-3.0410883,0.59591293,0.38111192
1.93,2.4036508,5.474324,-6.643126,-2.9576108,0.55449414,0.3987878
1.932,2.3233886,5.36277,-6.5081687,-2.8709028,0.5192253,0.41706377
1.934,2.2486115,5.253738,-6.3810825,-2.7810555,0.49003875,0.4356588
1.936,2.1792834,5.1473484,-6.263062,-2.6881697,0.46679837,0.45427376
1.938,2.115385,5.043627,-6.154936,-2.592435,0.44930935,0.47265333
1.94,2.0569787,4.9425592,-6.057683,-2.4940643,0.4373785,0.4906183
1.942,2.0038972,4.8442464,-5.9718485,-2.3933084,0.43077537,0.5080309
1.944,1.9559762,4.74861,-5.897846,-2.290453,0.4292484,0.52479494
1.946,1.9132168,4.6556454,-5.8360214,-2.185814,0.43251273,0.5408812
1.948,1.8755592,4.5652866,-5.7864857,-2.0797238,0.44027323,0.5563189
1.95,1.8427706,4.477625,-5.749249,-1.9725326,0.4522493,0.57115036
1.952,1.8148439,4.3925,-5.724055,-1.8645886,0.468153,0.5854325
1.954,1.7915974,4.309933,-5.7106824,-1.7562332,0.48769855,0.5992023
1.956,1.7728735,4.22997,-5.7088623,-1.6478072,0.5106058,0.6124762
1.958,1.7585796,4.1524835,-5.7181206,-1.5396357,0.5365943,0.62523574
1.96,1.7487098,4.077263,-5.738135,-1.4320494,0.56537783,0.63742775
1.962,1.7429428,4.004444,-5.768264,-1.3253601,0.59667766,0.64894974
1.964,1.7412645,3.9337506,-5.807924,-1.2198818,0.6302035,0.65967166
1.966,1.7434381,3.8650846,-5.8564444,-1.1159129,0.6656676,0.66946447
1.968,1.7494639,3.7983062,-5.91323,-1.0137199,0.7027973,0.67816955
1.97,1.7591231,3.7333565,-5.9775805,-0.9135513,0.74132943,0.68561614
1.972,1.7724575,3.670035,-6.048827,-0.81562877,0.7810259,0.69164246
1.974,1.7893184,3.608129,-6.1263313,-0.7201408,0.82166016,0.6960819
1.976,1.8095403,3.547517,-6.209281,-0.6272334,0.8630337,0.69875133
1.978,1.83297,3.4879494,-6.2969317,-0.53701985,0.9049714,0.6994562
1.98,1.8595829,3.429181,-6.388675,-0.44958237,0.94728327,0.69802094
1.982,1.8893489,3.3709245,-6.4837894,-0.36497736,0.98982143,0.69427043
1.984,1.9219902,3.312991,-6.5815473,-0.28324065,1.0324433,0.6880506
1.986,1.9576086,3.255064,-6.6813455,-0.20439032,1.0750154,0.6792408
1.988,1.9959424,3.1969619,-6.7823987,-0.12844218,1.117413,0.667789
1.99,2.0368931,3.1383114,-6.884073,-0.05540751,1.1595416,0.6537051
1.992,2.0804312,3.0789366,-6.9858327,0.014735363,1.2013077,0.63706255
1.994,2.126363,3.0186677,-7.08693,0.08200094,1.2426376,0.6180093
1.996,2.1745844,2.957327,-7.18693,0.14642957,1.2834649,0.5967613
1.998,2.2250443,2.89462,-7.285221,0.20808148,1.3237073,0.5735608
2,2.2775328,2.8304915,-7.381192,0.26703227,1.3632872,0.5486668
2.002,2.3318992,2.7648885,-7.4744473,0.3233959,1.4021136,0.5223421
2.004,2.3880558,2.697669,-7.5645323,0.37730485,1.4400512,0.49484402
2.006,2.4458468,2.6288137,-7.6510315,0.42890483,1.4769416,0.46639246
2.008,2.5051012,2.558217,-7.7335854,0.47835624,1.5125977,0.43717447
2.01,2.5655248,2.4859734,-7.811956,0.52581775,1.5468199,0.40735483
2.012,2.6269207,2.4121683,-7.8857985,0.57144684,1.5793973,0.37704396
2.014,2.6892328,2.3367481,-7.9549384,0.615414,1.6101184,0.3463263
2.016,2.752174,2.2598412,-8.018953,0.65785325,1.6387651,0.31527478
2.018,2.8156135,2.1815815,-8.0779085,0.6988962,1.6651423,0.28394577
2.02,2.8793507,2.102025,-8.131563,0.73864424,1.6890635,0.25237855
2.022,2.9429874,2.0214343,-8.179894,0.7771823,1.710361,0.22061208
2.024,3.0065713,1.9397641,-8.2227745,0.81458515,1.7288784,0.18868363
2.026,3.0696788,1.8573607,-8.260169,0.85088444,1.7444718,0.15664357
2.028,3.132195,1.7743198,-8.292105,0.88611,1.7570078,0.12454325
2.03,3.193894,1.6908686,-8.318609,0.9202643,1.7663589,0.092452705
2.032,3.2545621,1.6072242,-8.339828,0.9533369,1.7724073,0.060455263
2.034,3.3139672,1.5235097,-8.355692,0.98532176,1.775057,0.028635144
2.036,3.372111,1.439962,-8.366309,1.016191,1.7742133,-0.0029161572
2.038,3.4285672,1.3567617,-8.371802,1.0459108,1.7697996,-0.034113646
2.04,3.4834464,1.2739637,-8.37229,1.0744553,1.7617608,-0.06488919
2.042,3.5364888,1.1918092,-8.367921,1.1017824,1.7500676,-0.09519446
2.044,3.587555,1.1104172,-8.358778,1.1278591,1.7347399,-0.124997616
2.046,3.6368208,1.029842,-8.345031,1.152659,1.7158253,-0.15428
2.048,3.6840677,0.9503183,-8.326985,1.176153,1.6934092,-0.18306398
2.05,3.7291455,0.8719409,-8.3047,1.1983228,1.6676166,-0.21138948
2.052,3.7721975,0.7947774,-8.278387,1.2191812,1.6386154,-0.23930365
2.054,3.8132677,0.7189915,-8.248297,1.238754,1.6065983,-0.26685786
2.056,3.8522356,0.6446713,-8.214409,1.2570709,1.5717771,-0.2940935
2.058,3.8893197,0.5718895,-8.176982,1.2741983,1.5343893,-0.32103682
2.06,3.9246683,0.50080633,-8.136182,1.2902167,1.4946746,-0.3476792
2.062,3.9582822,0.43141425,-8.092256,1.3052144,1.4528795,-0.37398994
2.064,3.990397,0.36384833,-8.045317,1.3193016,1.4092413,-0.3999158
2.066,4.0212092,0.2981732,-7.9955053,1.3325894,1.3639791,-0.4253497
2.068,4.0506716,0.2344414,-7.9430313,1.3451822,1.3173152,-0.45015997
2.07,4.0790725,0.17295742,-7.888105,1.3571818,1.2694488,-0.47420734
2.072,4.106731,0.113615155,-7.830853,1.3686879,1.2205673,-0.49732053
2.074,4.1338396,0.056595802,-7.7713494,1.3797729,1.1708343,-0.51934904
2.076,4.1605473,0.0020489693,-7.7098904,1.3904986,1.1204128,-0.540143
2.078,4.186941,-0.049855947,-7.646684,1.4009023,1.0694588,-0.55954796
2.08,4.2133427,-0.099006295,-7.581602,1.4110217,1.0181046,-0.5774697
2.082,4.2397456,-0.14531016,-7.5149007,1.4208672,0.9664802,-0.5938537
2.084,4.2664886,-0.18854785,-7.4466825,1.4304459,0.9146863,-0.6086711
2.086,4.293629,-0.22865546,-7.3769884,1.4397511,0.8628175,-0.6219389
2.088,4.3213525,-0.26552427,-7.305985,1.4487814,0.8109358,-0.63371205
2.09,4.3498297,-0.2991066,-7.233572,1.4575242,0.7590922,-0.6440902
2.092,4.379031,-0.32921576,-7.159701,1.465978,0.7073211,-0.6531802
2.094,4.409035,-0.3558675,-7.084635,1.4741411,0.65564036,-0.661117
2.096,4.4397783,-0.37905324,-7.0082207,1.4820426,0.6040509,-0.6680408
2.098,4.471507,-0.39889634,-6.9304867,1.4896933,0.5525359,-0.67411447
2.1,4.5040584,-0.41533804,-6.85156,1.4971211,0.5010812,-0.67949635
2.102,4.5373273,-0.4283824,-6.7712917,1.5043802,0.4496923,-0.6843335
2.104,4.5714626,-0.43820333,-6.689745,1.5115277,0.39836544,-0.6887882
2.106,4.606237,-0.44489443,-6.60693,1.5186334,0.34711716,-0.69297373
2.108,4.6416616,-0.4485767,-6.522955,1.5257941,0.29599845,-0.69699585
2.11,4.677705,-0.44941413,-6.4378495,1.5331334,0.24507669,-0.7009511
2.112,4.7140613,-0.44763327,-6.351735,1.54077,0.19443847,-0.7049005
2.114,4.7507496,-0.44329476,-6.264659,1.5488317,0.14418648,-0.70886415
2.116,4.787602,-0.43667018,-6.1767235,1.5574491,0.0944206,-0.7128303
2.118,4.824588,-0.42796385,-6.088022,1.5667514,0.04523608,-0.7167446
2.12,4.861537,-0.4172771,-5.99862,1.5768379,-0.0032697767,-0.72053766
2.122,4.8982916,-0.4048869,-5.908814,1.587781,-0.051024854,-0.72412986
2.124,4.934727,-0.3909071,-5.818691,1.5996311,-0.09796883,-0.7274319
2.126,4.9706345,-0.37549025,-5.72846,1.6123583,-0.14407624,-0.7303731
2.128,5.0060606,-0.35887808,-5.6380763,1.6259122,-0.18933587,-0.7328893
2.13,5.0408955,-0.34113896,-5.5477986,1.6401949,-0.23376511,-0.7349528
2.132,5.075083,-0.32243162,-5.457626,1.6550797,-0.2773986,-0.73657715
2.134,5.1084476,-0.30276084,-5.3677273,1.6704222,-0.3202719,-0.7377873
2.136,5.140906,-0.2822647,-5.2781906,1.6860694,-0.36244732,-0.7386191
2.138,5.172435,-0.26113445,-5.1890135,1.7018726,-0.40398282,-0.7391216
2.14,5.2029767,-0.23938382,-5.1002502,1.7177022,-0.44494224,-0.7393378
2.142,5.2324853,-0.21707904,-5.0119596,1.7334421,-0.48538816,-0.73928523
2.144,5.261078,-0.19431287,-4.924137,1.7490273,-0.52535474,-0.73894596
2.146,5.2885294,-0.17113829,-4.836817,1.7643925,-0.5648686,-0.738284
2.148,5.3149714,-0.14761353,-4.749992,1.7795165,-0.6039388,-0.73722833
2.15,5.340332,-0.123701274,-4.66368,1.7943845,-0.64253634,-0.7357141
2.152,5.3645744,-0.09950948,-4.577773,1.8090124,-0.6806065,-0.7336463
2.154,5.3877926,-0.07506257,-4.4923162,1.8234065,-0.71808225,-0.73094326
2.156,5.4098587,-0.05032611,-4.40728,1.8375688,-0.75490034,-0.72752535
2.158,5.430913,-0.025391042,-4.322624,1.8514997,-0.7909767,-0.72333515
2.16,5.4509935,-0.0002924204,-4.2384067,1.8651967,-0.826241,-0.7183628
2.162,5.4700217,0.024953544,-4.1546254,1.8786392,-0.8606522,-0.7125927
2.164,5.488108,0.050208837,-4.0711837,1.8918076,-0.8941859,-0.7060146
2.166,5.5053415,0.075526446,-3.9882522,1.9046886,-0.92681897,-0.6986393
2.168,5.5216246,0.100866735,-3.9057314,1.9172647,-0.9585462,-0.6904885
2.17,5.5370827,0.12612364,-3.8236885,1.9295126,-0.9893788,-0.68157125
2.172,5.551654,0.15130016,-3.7420883,1.9414026,-1.0193405,-0.6719027
2.174,5.565368,0.17630357,-3.6609383,1.9529235,-1.048466,-0.66148335
2.176,5.578375,0.20107058,-3.5803597,1.9640739,-1.0767833,-0.6503073
2.178,5.590724,0.22559145,-3.5001864,1.9748412,-1.1043261,-0.6383783
2.18,5.6024227,0.24977946,-3.4204645,1.985246,-1.1311245,-0.6256906
2.182,5.613409,0.27354315,-3.3412042,1.9952874,-1.1572077,-0.61225414
2.184,5.623821,0.2968695,-3.2624977,2.004978,-1.1826015,-0.5980753
2.186,5.6336756,0.31967795,-3.1841173,2.0143194,-1.2073299,-0.5831547
2.188,5.6430244,0.34191582,-3.1061177,2.0233138,-1.2314197,-0.56750566
2.19,5.65191,0.36353678,-3.028542,2.031971,-1.254876,-0.5511356
2.192,5.6603775,0.38456315,-2.951322,2.0403,-1.2777218,-0.53404844
2.194,5.668342,0.40488213,-2.8743753,2.0483012,-1.2999706,-0.516242
2.196,5.6759806,0.4245255,-2.797742,2.0559876,-1.3216132,-0.49771553
2.198,5.6833735,0.44343373,-2.7212753,2.063357,-1.3426689,-0.478467
2.2,5.6904984,0.46165228,-2.6450624,2.0704088,-1.3631405,-0.45850134
2.202,5.697357,0.47907895,-2.5691674,2.0771272,-1.3830187,-0.43781805
2.204,5.7039776,0.4958208,-2.4933515,2.0835204,-1.4023054,-0.41641957
2.206,5.7104263,0.51189655,-2.4177046,2.0895882,-1.4209917,-0.39432776
2.208,5.716644,0.5273719,-2.3423538,2.0953298,-1.4390668,-0.3715632
2.21,5.722765,0.5422625,-2.267105,2.1007504,-1.456511,-0.34815758
2.212,5.728839,0.5564509,-2.1921206,2.1058621,-1.4733053,-0.32413298
2.214,5.734779,0.57019013,-2.1174078,2.1106699,-1.489446,-0.2995149
2.216,5.740878,0.5833989,-2.042945,2.1151907,-1.5049192,-0.27434188
2.218,5.7468185,0.59616214,-1.9687445,2.1194344,-1.519706,-0.24864674
2.22,5.7528543,0.6086117,-1.8949755,2.1234152,-1.533819,-0.2224536
2.222,5.759121,0.6207315,-1.8214763,2.127147,-1.5472534,-0.19579864
2.224,5.765466,0.6324931,-1.7484449,2.1306396,-1.5600101,-0.16872609
2.226,5.772009,0.64417255,-1.6758627,2.133904,-1.5720901,-0.14127868
2.228,5.7787657,0.65573627,-1.6037502,2.1369429,-1.5834973,-0.11352152
2.23,5.7858524,0.66718197,-1.5321987,2.139753,-1.5942571,-0.08549845
2.232,5.7932525,0.67861325,-1.4611238,2.1423316,-1.6043801,-0.057269275
2.234,5.801075,0.6901058,-1.3906236,2.1446736,-1.6138837,-0.02888602
2.236,5.809365,0.70162976,-1.3206831,2.1467648,-1.622789,-0.00039428473
2.238,5.817984,0.7133075,-1.2513434,2.148588,-1.6311165,0.02815342
2.24,5.8270855,0.7251653,-1.1826221,2.1501446,-1.6388842,0.05669135
2.242,5.8366585,0.7371747,-1.1146055,2.1514282,-1.646102,0.08516353
2.244,5.8468747,0.7493688,-1.0472193,2.1524343,-1.6528064,0.11348802
2.246,5.8576565,0.7617835,-0.98049784,2.153148,-1.6590079,0.14159733
2.248,5.869028,0.7745359,-0.91446126,2.1535609,-1.66473,0.1694287
2.25,5.8808265,0.7875049,-0.8490447,2.1536605,-1.6700072,0.19693083
2.252,5.8931766,0.80069536,-0.78430367,2.153445,-1.6748686,0.22406673
2.254,5.9059505,0.81410176,-0.7202246,2.152915,-1.679345,0.25082266
2.256,5.919201,0.8276926,-0.65676236,2.152065,-1.6834655,0.27719176
2.258,5.9329677,0.8414959,-0.59398186,2.1508777,-1.6872666,0.30318397
2.26,5.946982,0.8552877,-0.53186214,2.149357,-1.6907817,0.32879928
2.262,5.961359,0.8690945,-0.47044063,2.1475093,-1.6940298,0.35402203
2.264,5.975951,0.8828806,-0.40965998,2.1453514,-1.697048,0.37881723
2.266,5.990861,0.8964223,-0.34959054,2.1428924,-1.6998595,0.4031348
2.268,6.0057707,0.9097547,-0.29014766,2.1401722,-1.7024794,0.42688528
2.27,6.020794,0.9226843,-0.2313286,2.1372225,-1.7049378,0.4499639
2.272,6.03579,0.93516964,-0.17312181,2.1340818,-1.7072529,0.47226667
2.274,6.0506835,0.94710386,-0.115674734,2.130774,-1.7094378,0.49368906
2.276,6.0654683,0.95834655,-0.05881524,2.1273327,-1.7115194,0.51414907
2.278,6.0801587,0.96886253,-0.0026612282,2.1237783,-1.7135001,0.5335914
2.28,6.094613,0.97856873,0.052800894,2.1201355,-1.7153931,0.55199623
2.282,6.108932,0.98740095,0.107608914,2.1163883,-1.7172021,0.5693817
2.284,6.123037,0.9954005,0.16170597,2.112543,-1.7189156,0.5857909
2.286,6.1368017,1.002472,0.21514761,2.108591,-1.7205307,0.6013048
2.288,6.150324,1.0086771,0.2678305,2.1045105,-1.7220519,0.61599576
2.29,6.163674,1.0139325,0.3198619,2.1002874,-1.7234733,0.62996405
2.292,6.176687,1.0184221,0.37120616,2.095899,-1.7248087,0.64330995
2.294,6.189336,1.0221496,0.4218514,2.091326,-1.7260734,0.65613246
2.296,6.2017374,1.0251185,0.47178268,2.086536,-1.7272847,0.66849744
2.298,6.2137733,1.0274739,0.5210612,2.0815089,-1.7284702,0.6804501
2.3,6.2255135,1.0292552,0.56961083,2.0762324,-1.7296579,0.6919977
2.302,6.236938,1.0305381,0.6175504,2.0706937,-1.7308841,0.7031253
2.304,6.248098,1.0314331,0.66475403,2.0648763,-1.7321917,0.71379554
2.306,6.258726,1.0320212,0.7114305,2.058767,-1.7336133,0.72395414
2.308,6.268899,1.0324798,0.7574476,2.052353,-1.7351975,0.73353046
2.31,6.278625,1.0328152,0.80290943,2.0456276,-1.7370012,0.74245244
2.312,6.2878475,1.0330862,0.8478671,2.0385928,-1.7390488,0.750666
2.314,6.296537,1.033279,0.89229256,2.0312433,-1.7413826,0.758131
2.316,6.3046813,1.0335131,0.936254,2.023578,-1.7440263,0.7648205
2.318,6.312209,1.0337716,0.97984046,2.0155885,-1.7470025,0.7707272
2.32,6.319062,1.0341287,1.0230578,2.0072773,-1.7503201,0.7758573
2.322,6.3250704,1.0345955,1.0659199,1.9986289,-1.7539742,0.78023356
2.324,6.3302503,1.0351243,1.1084888,1.9896488,-1.7579457,0.78389704
2.326,6.334554,1.0356939,1.1507522,1.9803385,-1.7622164,0.78687954
2.328,6.338152,1.0363599,1.1928114,1.9707057,-1.7667456,0.7892263
2.33,6.3406744,1.0370542,1.2347137,1.9607538,-1.771503,0.79097795
2.332,6.3423066,1.0378042,1.2762811,1.950478,-1.7764384,0.7921866
2.334,6.3429437,1.0385984,1.3177332,1.9398822,-1.7814941,0.79290473
2.336,6.342664,1.0392847,1.3590431,1.9289961,-1.7866316,0.79317504
2.338,6.3413544,1.0399795,1.4001752,1.9178262,-1.791806,0.7930417
2.34,6.33901,1.0405784,1.4411802,1.9063823,-1.7969581,0.7925441
2.342,6.3356934,1.0411172,1.481979,1.8946722,-1.8020458,0.79173964
2.344,6.3313546,1.0415055,1.5226424,1.8827093,-1.8070295,0.79065675
2.346,6.325984,1.0417396,1.5631413,1.8705103,-1.8118697,0.78932667
2.348,6.319609,1.0417726,1.6034086,1.858089,-1.8165407,0.78777784
2.35,6.312204,1.0414948,1.643517,1.8454549,-1.8210276,0.786041
2.352,6.303858,1.0408697,1.6833912,1.8326153,-1.825315,0.7841422
2.354,6.294504,1.039834,1.7230515,1.8195888,-1.8294015,0.7820995
2.356,6.284244,1.0383742,1.7623912,1.8063883,-1.8332834,0.7799358
2.358,6.2729993,1.0364119,1.8014355,1.7930183,-1.836958,0.77766955
2.36,6.2608547,1.0339156,1.8400925,1.7794899,-1.8404251,0.7753153
2.362,6.2477,1.0307958,1.8785028,1.7658218,-1.843675,0.7728956
2.364,6.233711,1.0270633,1.9164882,1.7520267,-1.8466979,0.77042365
2.366,6.218813,1.0226239,1.9541333,1.7381105,-1.8494918,0.7679162
2.368,6.2030606,1.0174732,1.9914286,1.7240732,-1.852041,0.7653813
2.37,6.186483,1.0116122,2.0282779,1.7099289,-1.8543384,0.76283616
2.372,6.1691628,1.0049714,2.064756,1.6956756,-1.8563566,0.76029605
2.374,6.1510534,0.99756485,2.100782,1.6813135,-1.8580966,0.7577893
2.376,6.132149,0.9894363,2.1363382,1.6668577,-1.859554,0.755345
2.378,6.112597,0.98055285,2.171411,1.6522905,-1.8607262,0.75299263
2.38,6.0922837,0.97099185,2.205967,1.6376138,-1.8615977,0.7507768
2.382,6.0714135,0.96069497,2.2400198,1.6228352,-1.8621598,0.748752
2.384,6.049905,0.9498056,2.2736115,1.6079614,-1.8624097,0.74696183
2.386,6.0277886,0.9382344,2.3066754,1.5930082,-1.8623463,0.74544543
2.388,6.005042,0.9260587,2.3392472,1.5779781,-1.8619521,0.74424666
2.39,5.981881,0.9133519,2.371245,1.5628846,-1.861224,0.743394
2.392,5.9580665,0.90025336,2.4026458,1.547742,-1.8601543,0.7429148
2.394,5.9339776,0.8866581,2.4335172,1.5325706,-1.8587468,0.7428181
2.396,5.909451,0.8727458,2.463747,1.5173781,-1.8569998,0.7431021
2.398,5.8845134,0.85848755,2.493392,1.5021783,-1.8549243,0.74375767
2.4,5.8592215,0.84397364,2.522379,1.4869629,-1.8525356,0.7447669
2.402,5.833666,0.82926196,2.5507178,1.4717393,-1.8498622,0.74610066
2.404,5.8077636,0.81435484,2.5784557,1.456513,-1.8469067,0.74773365
2.406,5.781754,0.7992883,2.6054728,1.4412789,-1.8436936,0.7496435
2.408,5.7556868,0.7840901,2.6318274,1.4260278,-1.8402426,0.7518105
2.41,5.729344,0.76884466,2.657565,1.410763,-1.8365742,0.7542214
2.412,5.7029934,0.7535404,2.682572,1.395482,-1.8326955,0.7568706
2.414,5.676557,0.7382399,2.7069635,1.3801926,-1.8286148,0.7597688
2.416,5.650152,0.722877,2.7304995,1.3648828,-1.8243356,0.7629195
2.418,5.6236944,0.70744896,2.7533844,1.3495606,-1.8198671,0.76633924
2.42,5.597304,0.69203246,2.7756488,1.3342379,-1.815211,0.7700418
2.422,5.5709453,0.6766386,2.7971413,1.3189244,-1.810364,0.7740373
2.424,5.5448174,0.66126513,2.8180056,1.3036282,-1.8053408,0.77831763
2.426,5.5186377,0.6458406,2.8381598,1.2883469,-1.8001523,0.782881
2.428,5.4925685,0.6303555,2.8577096,1.2730771,-1.7948083,0.7877035
2.43,5.466656,0.6148033,2.8765829,1.2577932,-1.7893364,0.7927637
2.432,5.441031,0.5992158,2.8948774,1.2424922,-1.7837634,0.7980316
2.434,5.41561,0.5834942,2.9125938,1.2271436,-1.77813,0.8034497
2.436,5.3903546,0.5676716,2.929796,1.2117207,-1.772469,0.8089751
2.438,5.3652277,0.55177796,2.946478,1.1961979,-1.7668177,0.8145734
2.44,5.340448,0.535653,2.9627018,1.1805601,-1.7612224,0.82019496
2.442,5.3159685,0.5194099,2.9785213,1.1648068,-1.7557241,0.8257935
2.444,5.291676,0.502941,2.9939275,1.1489295,-1.7503543,0.8313566
2.446,5.267658,0.48627198,3.008976,1.1329465,-1.7451382,0.8368537
2.448,5.244024,0.46932316,3.0237637,1.1168768,-1.7400892,0.84227216
2.45,5.220672,0.45214742,3.038309,1.1007622,-1.7352062,0.8476218
2.452,5.197598,0.4346766,3.0526707,1.0846329,-1.730482,0.8529206
2.454,5.174619,0.4170146,3.0668914,1.0685409,-1.725891,0.85818774
2.456,5.151996,0.3990804,3.0808372,1.0525331,-1.7214051,0.8634486
2.458,5.1295457,0.38091147,3.0947044,1.0366534,-1.7170008,0.8687358
2.46,5.1072726,0.36259174,3.1084473,1.02094,-1.7126212,0.87409127
2.462,5.085041,0.34413254,3.1220717,1.0054263,-1.708234,0.87953794
2.464,5.0628266,0.32565653,3.135507,0.99013853,-1.70379,0.8851047
2.466,5.0405293,0.30715692,3.1487598,0.97510046,-1.6992567,0.8908235
2.468,5.018204,0.28869188,3.1617,0.9603112,-1.6945925,0.8966994
2.47,4.9957657,0.27033663,3.1743228,0.9457758,-1.6897669,0.9027567
2.472,4.97307,0.25226152,3.186502,0.93148017,-1.6847563,0.9089849
2.474,4.9499626,0.2345792,3.1982334,0.91740155,-1.6795563,0.9153696
2.476,4.9264007,0.21735263,3.209423,0.9035176,-1.6741766,0.9219011
2.478,4.9022565,0.20060897,3.2199707,0.88979435,-1.6686466,0.928551
2.48,4.87751,0.18451941,3.2299204,0.8762134,-1.6630111,0.93528837
2.482,4.8520203,0.16923213,3.2391071,0.8627314,-1.6573267,0.94206774
2.484,4.8257947,0.15479887,3.2474818,0.8493111,-1.6516573,0.94884765
2.486,4.7986684,0.14131522,3.2550645,0.83591133,-1.6460873,0.9555986
2.488,4.770536,0.12878096,3.2616956,0.8224993,-1.6407082,0.96229357
2.49,4.741441,0.11740446,3.267422,0.8090299,-1.6356082,0.9688857
2.492,4.7110276,0.107311964,3.2722154,0.7954729,-1.6308668,0.97535217
2.494,4.6793885,0.0983783,3.2760487,0.78179264,-1.6265577,0.98167074
2.496,4.6478257,0.09067476,3.2790341,0.7679674,-1.6227566,0.98783416
2.498,4.61538,0.08421183,3.2811933,0.7539854,-1.6195147,0.9938164
2.5,4.581921,0.079048514,3.2825677,0.7398426,-1.6168838,0.9996239
2.502,4.547745,0.07513082,3.283197,0.7255416,-1.6148912,1.0052652
2.504,4.512673,0.0724895,3.2830994,0.71108466,-1.613572,1.0107355
2.506,4.4770174,0.07106507,3.2824569,0.6964855,-1.6129274,1.016043
2.508,4.4409075,0.07082164,3.2812366,0.6817495,-1.6129642,1.0211979
2.51,4.4043813,0.07170737,3.2795281,0.666873,-1.6136796,1.0262218
2.512,4.367732,0.07358229,3.2774165,0.65187097,-1.6150587,1.031102
2.514,4.3310843,0.076440215,3.2749665,0.6367367,-1.6170955,1.0358287
2.516,4.294468,0.080150366,3.2723062,0.62146944,-1.6197559,1.0403875
2.518,4.258165,0.08459151,3.2694159,0.6060701,-1.6230148,1.0447578
2.52,4.222414,0.08967948,3.266372,0.5905446,-1.6268361,1.0488989
2.522,4.1872163,0.09533477,3.263254,0.57488716,-1.6311846,1.0527653
2.524,4.152815,0.10140884,3.2600846,0.55967236,-1.6357521,1.056295
2.526,4.119371,0.10784602,3.2569914,0.54464424,-1.6405787,1.0594631
2.528,4.0869613,0.114549756,3.2539017,0.52992165,-1.6455628,1.0622315
2.53,4.0556426,0.12138319,3.2507918,0.5156396,-1.6505964,1.0645677
2.532,4.0255494,0.12828255,3.247837,0.5019405,-1.6555712,1.0664655
2.534,3.9965932,0.13520515,3.2449336,0.48895,-1.660405,1.0679235
2.536,3.9690614,0.14208019,3.2421656,0.4767836,-1.6650305,1.0689765
2.538,3.9427745,0.14890409,3.2394788,0.46552196,-1.6693968,1.0696629
2.54,3.9177575,0.15554833,3.2369294,0.45521024,-1.6734707,1.0700226
2.542,3.8939438,0.16197348,3.2344792,0.44585103,-1.6772335,1.0701152
2.544,3.8714046,0.16824079,3.23218,0.43743306,-1.6806899,1.0700029
2.546,3.850088,0.17431247,3.2299933,0.42990112,-1.6838489,1.0697305
