Time_s_,Acc_x_m_s_2_,Acc_y_m_s_2_,Acc_z_m_s_2_,Gyro_x_1_s_,Gyro_y_1_s_,Gyro_z_1_s_
0,-0.77492774,0.52763164,0.8806982,-0.13984296,1.1412064,-0.50318414
0.002,-0.767107,0.5363442,0.87586987,-0.13631943,1.1446358,-0.5012616
0.004,-0.75584096,0.5446483,0.8704271,-0.13229719,1.1482348,-0.4992323
0.006,-0.74070907,0.55257624,0.8641461,-0.12766808,1.1518834,-0.49705166
0.008,-0.7211971,0.5599819,0.8571421,-0.12235141,1.1554284,-0.49462482
0.01,-0.6966543,0.5667131,0.84936076,-0.116291344,1.1586949,-0.49184108
0.012,-0.6665557,0.5725905,0.84066695,-0.1094687,1.1615238,-0.48861343
0.014,-0.6301844,0.5772183,0.8308868,-0.101896554,1.1637186,-0.4848796
0.016,-0.58706945,0.5802042,0.8199216,-0.09361145,1.1650393,-0.48060167
0.018,-0.5365454,0.5812876,0.80767775,-0.08466351,1.1652266,-0.47577184
0.02,-0.4779785,0.58007085,0.79389435,-0.07513577,1.1640475,-0.4704383
0.022,-0.41086817,0.5764296,0.7782766,-0.06516567,1.1613098,-0.46473715
0.024,-0.33434457,0.5700456,0.7607577,-0.054895073,1.1568722,-0.4588514
0.026,-0.24788952,0.5605984,0.7411789,-0.044454277,1.1507001,-0.4529763
0.028,-0.15092254,0.5477671,0.7190452,-0.033698082,1.1429396,-0.44714212
0.03,-0.042947173,0.53128684,0.69447434,-0.022950053,1.1336195,-0.44172263
0.032,0.07632652,0.51086664,0.6672583,-0.012172818,1.123048,-0.4367444
0.034,0.20714626,0.48633128,0.63713914,-0.0013125539,1.1115452,-0.4321453
0.036,0.34942758,0.4576501,0.60383976,0.009707719,1.0994316,-0.42779142
0.038,0.5029271,0.4247345,0.5672361,0.02092877,1.0869813,-0.4234673
0.04,0.6672041,0.38768825,0.5274597,0.032321066,1.0744488,-0.41891608
0.042,0.8415085,0.34690514,0.48455632,0.04379767,1.0620025,-0.4138922
0.044,1.0250635,0.30283555,0.43863696,0.055178136,1.0497369,-0.408135
0.046,1.2167997,0.25596863,0.38979062,0.06623614,1.0377054,-0.40140042
0.048,1.4153416,0.2069568,0.33822218,0.07668513,1.0259709,-0.3934276
0.05,1.6192584,0.15614855,0.28374714,0.08622235,1.0146763,-0.3839451
0.052,1.8277618,0.1038295,0.22593942,0.09458098,1.0040612,-0.3726784
0.054,2.0370555,0.05164355,0.16563147,0.1015605,0.9944442,-0.3593544
0.056,2.2461798,0.00060892105,0.10454115,0.10705209,0.9863158,-0.3436939
0.058,2.4515984,-0.048555136,0.044418275,0.11107205,0.98033583,-0.32543728
0.06,2.6517901,-0.0945096,-0.014240146,0.11371839,0.9772646,-0.30443114
0.062,2.8440013,-0.13593984,-0.07157719,0.11524609,0.9778764,-0.28059036
0.064,3.0255003,-0.17201483,-0.12765795,0.11601642,0.9829105,-0.2538991
0.066,3.194286,-0.20210874,-0.18171453,0.116463006,0.99295986,-0.22440398
0.068,3.3485365,-0.22522902,-0.23263466,0.11702636,1.0084636,-0.1922116
0.07,3.4864264,-0.2407906,-0.27924556,0.11810452,1.029685,-0.15752962
0.072,3.6061063,-0.24824059,-0.32092714,0.1200265,1.0566776,-0.12065512
0.074,3.7054858,-0.2473048,-0.35691917,0.123046935,1.0892656,-0.081938416
0.076,3.7833998,-0.23802423,-0.38659954,0.12732133,1.1270876,-0.04177451
0.078,3.8390684,-0.22068608,-0.40879387,0.1328581,1.1696512,-0.0006442964
0.08,3.870379,-0.19470942,-0.42271018,0.13952011,1.2163707,0.04093197
0.082,3.87713,-0.16034102,-0.42816472,0.14704803,1.26654,0.0824188
0.084,3.859106,-0.117966294,-0.42498374,0.15512371,1.3194153,0.12320289
0.086,3.8166218,-0.06839597,-0.4127028,0.16335577,1.3743877,0.16262773
0.088,3.7499666,-0.012470841,-0.3911971,0.17142439,1.4308861,0.2002635
0.09,3.6595762,0.049273968,-0.36127722,0.17916155,1.4883436,0.23575288
0.092,3.5448675,0.11716187,-0.32286197,0.18647778,1.5462806,0.26861775
0.094,3.40785,0.19010282,-0.27482444,0.19332111,1.6041927,0.29840288
0.096,3.2489586,0.26739693,-0.21836609,0.1997177,1.66152,0.32489017
0.098,3.0684168,0.34866935,-0.15332311,0.20581424,1.7177236,0.34799802
0.1,2.8673763,0.43302745,-0.078722656,0.21189034,1.7722758,0.3676687
0.102,2.6477883,0.5192906,0.0038688183,0.21832633,1.8246348,0.38384768
0.104,2.4106216,0.6074267,0.09002632,0.22559321,1.8742515,0.3965493
0.106,2.158618,0.6965151,0.17959851,0.23418587,1.9205847,0.4058618
0.108,1.8938923,0.78551185,0.27509183,0.2445665,1.9631088,0.41187847
0.11,1.6178393,0.87419236,0.3763691,0.25707704,2.0013196,0.41469055
0.112,1.3324082,0.9619701,0.480925,0.271909,2.0347748,0.4143378
0.114,1.0392318,1.0481571,0.58591527,0.28909022,2.0631232,0.41084248
0.116,0.73946774,1.1322434,0.6889928,0.30840045,2.086122,0.40417066
0.118,0.43734634,1.2129495,0.7890267,0.32941425,2.103651,0.39427826
0.12,0.13898742,1.287705,0.89104795,0.3515209,2.1157117,0.38114244
0.122,-0.15798038,1.3578707,0.99413776,0.37401444,2.1224256,0.36473098
0.124,-0.45333302,1.4244556,1.0930502,0.39618248,2.1241462,0.34504586
0.126,-0.7409541,1.4853306,1.186744,0.41741008,2.121451,0.322111
0.128,-1.019377,1.5399741,1.2761358,0.43717122,2.1149924,0.29602432
0.13,-1.2879927,1.5885162,1.3623132,0.45513082,2.1054451,0.26699054
0.132,-1.5439801,1.6296645,1.4462165,0.47114563,2.093419,0.23521167
0.134,-1.7846613,1.6627856,1.5276833,0.48530388,2.0793557,0.20083487
0.136,-2.0081472,1.6877838,1.6059021,0.49777982,2.0635996,0.16405451
0.138,-2.212862,1.704355,1.6801361,0.5087217,2.0465178,0.12518233
0.14,-2.3970227,1.712098,1.7497809,0.51832366,2.0284183,0.08436537
0.142,-2.5586178,1.7110171,1.8153216,0.5267938,2.0095215,0.04141903
0.144,-2.6959143,1.701175,1.8776562,0.5343362,1.9900007,-0.0037454963
0.146,-2.8070338,1.6827796,1.9373753,0.54126585,1.9698565,-0.050966024
0.148,-2.8903456,1.6560965,1.9944546,0.5479641,1.9489133,-0.09998584
0.15,-2.9443772,1.6214936,2.0486727,0.55469143,1.9271984,-0.15059912
0.152,-2.9680278,1.5793407,2.0998604,0.5615238,1.9048226,-0.20284045
0.154,-2.9605525,1.5299939,2.1477575,0.5684643,1.8812828,-0.2566517
0.156,-2.9213314,1.4738896,2.1925423,0.5755992,1.855865,-0.3114313
0.158,-2.85005,1.4115139,2.2347383,0.5829847,1.8281708,-0.36635554
0.16,-2.74691,1.3438982,2.2751703,0.5905211,1.7978729,-0.42074746
0.162,-2.6132436,1.2720418,2.3144639,0.598063,1.7647333,-0.47390592
0.164,-2.4480414,1.1959604,2.3521202,0.6054896,1.7287534,-0.52502155
0.166,-2.2524881,1.1167245,2.386839,0.61269087,1.6901466,-0.5733531
0.168,-2.0296338,1.0352954,2.4191594,0.61953586,1.6492306,-0.6183644
0.17,-1.7821746,0.9526175,2.4503336,0.6258855,1.6064403,-0.6596253
0.172,-1.5121552,0.8697025,2.4818969,0.63158774,1.5623299,-0.6968291
0.174,-1.2219732,0.78784406,2.5146027,0.63650984,1.5175519,-0.72986335
0.176,-0.9151362,0.7083595,2.5479167,0.6405585,1.472822,-0.7587483
0.178,-0.5950926,0.63199323,2.58124,0.64366865,1.4287965,-0.78356075
0.18,-0.26530272,0.5597056,2.614452,0.6458339,1.3861132,-0.8043805
0.182,0.07061434,0.49243504,2.6477623,0.64717495,1.3454994,-0.82132024
0.184,0.40907466,0.43117142,2.6810606,0.64785343,1.3077137,-0.83446467
0.186,0.74644995,0.37665963,2.714207,0.6480534,1.2735023,-0.8437376
0.188,1.0792717,0.32953215,2.7464597,0.6479467,1.2436109,-0.84897923
0.19,1.4039413,0.29032826,2.777121,0.64777267,1.2186553,-0.850081
0.192,1.7168915,0.25955474,2.805484,0.6478214,1.198956,-0.8469995
0.194,2.015088,0.23750186,2.8310027,0.64828354,1.1846579,-0.83964646
0.196,2.295485,0.22416079,2.8530302,0.64918804,1.1758895,-0.82803917
0.198,2.5555234,0.21962857,2.8709102,0.6504834,1.1726656,-0.8124828
0.2,2.792524,0.22403431,2.8840547,0.6520392,1.174875,-0.7935358
0.202,3.0056229,0.23648632,2.8904688,0.6537061,1.1823475,-0.7719328
0.204,3.1920722,0.25748563,2.887902,0.6553458,1.1945512,-0.74845374
0.206,3.3514552,0.28649497,2.876801,0.6567994,1.2108374,-0.723627
0.208,3.4837866,0.32260466,2.8563526,0.65783054,1.2309704,-0.69807255
0.21,3.5886393,0.36520958,2.8253264,0.65809965,1.2545547,-0.67272913
0.212,3.6655502,0.41408825,2.7846954,0.65739346,1.2807636,-0.6483643
0.214,3.7154083,0.46790028,2.7370105,0.6556835,1.3088226,-0.6253344
0.216,3.7384875,0.5260446,2.6798105,0.6529873,1.337993,-0.6039105
0.218,3.7362127,0.587723,2.6094432,0.6493525,1.367441,-0.5844267
0.22,3.7111468,0.65126634,2.5264685,0.6448518,1.3963432,-0.56711745
0.222,3.665583,0.7157725,2.433591,0.63962793,1.423943,-0.5521431
0.224,3.6024818,0.7802031,2.3327632,0.6338589,1.4495028,-0.5397029
0.226,3.525281,0.84338856,2.224872,0.62773967,1.472287,-0.5300093
0.228,3.4348712,0.90486777,2.109358,0.621421,1.4916146,-0.52317995
0.23,3.3317633,0.9648459,1.9814796,0.6150007,1.5068998,-0.5192745
0.232,3.2245662,1.0199238,1.8439968,0.60855585,1.5177063,-0.5183149
0.234,3.1173358,1.0683613,1.7026405,0.6021389,1.5237732,-0.5202712
0.236,3.0089912,1.1114681,1.557956,0.5957836,1.5250247,-0.525049
0.238,2.903537,1.1485348,1.4090246,0.58952296,1.5215327,-0.53252035
0.24,2.8049831,1.1786371,1.2558572,0.5834016,1.5134873,-0.54256934
0.242,2.714849,1.2020857,1.0992523,0.5774491,1.5011196,-0.5550378
0.244,2.6344113,1.2187591,0.9411534,0.5716578,1.4846869,-0.56972647
0.246,2.5656843,1.2283375,0.78367686,0.56600773,1.4644403,-0.5864055
0.248,2.5104535,1.2308857,0.628924,0.560453,1.4406154,-0.60481787
0.25,2.4697313,1.2267241,0.4780329,0.5549432,1.4134077,-0.62467587
0.252,2.443752,1.2161386,0.33130783,0.54938084,1.3829398,-0.64569384
0.254,2.4326992,1.1994708,0.18899632,0.54363656,1.3493131,-0.6676227
0.256,2.4359744,1.1769301,0.05236292,0.5375165,1.3125577,-0.6902443
0.258,2.4531682,1.1487901,-0.07705855,0.5307871,1.2727029,-0.71336806
0.26,2.4827151,1.1160376,-0.1980477,0.5232025,1.2298402,-0.73681647
0.262,2.5230055,1.0792558,-0.3085538,0.5144969,1.1841466,-0.7603886
0.264,2.572304,1.0393951,-0.40689498,0.50443894,1.1358542,-0.7838798
0.266,2.629024,0.9975436,-0.4922375,0.49281394,1.0852433,-0.807036
0.268,2.691477,0.95456684,-0.5642082,0.47945675,1.0326265,-0.8296155
0.27,2.7577138,0.9111532,-0.62231517,0.46423602,0.9783417,-0.8514124
0.272,2.8260324,0.8678465,-0.6661946,0.44707322,0.9227669,-0.872222
0.274,2.8943865,0.825105,-0.6957564,0.42798743,0.86630577,-0.8919122
0.276,2.9609482,0.7831137,-0.7106387,0.40708762,0.8093645,-0.9104178
0.278,3.0237696,0.74232805,-0.7103616,0.38457394,0.75236243,-0.9277618
0.28,3.0809515,0.70302796,-0.69480485,0.3607278,0.6957544,-0.94406074
0.282,3.1309214,0.6658809,-0.6637103,0.33592227,0.64005774,-0.9595376
0.284,3.1720397,0.63149107,-0.61669755,0.3105786,0.5857827,-0.9744911
0.286,3.2028556,0.6002848,-0.553831,0.28521574,0.5335164,-0.9892558
0.288,3.2218292,0.5729482,-0.4754588,0.2604244,0.48399767,-1.0040622
0.29,3.227902,0.5499525,-0.3823037,0.2367307,0.43769547,-1.0191196
0.292,3.2205334,0.5315678,-0.27509153,0.21465424,0.39499307,-1.0345495
0.294,3.1994433,0.51824015,-0.15447819,0.19467488,0.3561787,-1.0503206
0.296,3.1642272,0.51049286,-0.021716535,0.17717618,0.3213328,-1.0663153
0.298,3.1151564,0.508474,0.12210256,0.16247064,0.29036987,-1.0823369
0.3,3.0524607,0.51246196,0.2759118,0.15077588,0.26309112,-1.0981053
0.302,2.9768205,0.52247214,0.43862325,0.1422799,0.23917413,-1.1132587
0.304,2.8890986,0.5383365,0.6088597,0.13713278,0.2182393,-1.1273718
0.306,2.7906427,0.55989397,0.7851479,0.13547395,0.1999318,-1.1399548
0.308,2.6826909,0.5866911,0.9663569,0.1374333,0.18394047,-1.1504936
0.31,2.566989,0.6180749,1.150842,0.14309447,0.17002088,-1.158539
0.312,2.4448802,0.6534926,1.337075,0.1524491,0.15794069,-1.1638038
0.314,2.3179715,0.692252,1.5232373,0.16533436,0.1474509,-1.1662304
0.316,2.1879113,0.7334739,1.70752,0.18141736,0.13826543,-1.1660476
0.318,2.0564187,0.7765906,1.8881688,0.20019266,0.13009933,-1.1637263
0.32,1.9249545,0.8210856,2.0635123,0.2210278,0.12270731,-1.159954
0.322,1.7950375,0.8664056,2.231995,0.24318957,0.115877986,-1.1555092
0.324,1.6680022,0.91207874,2.3917828,0.26591027,0.10948935,-1.1511805
0.326,1.5445561,0.9578637,2.5411263,0.28845054,0.1035479,-1.1477178
0.328,1.4254403,1.0034841,2.6786945,0.31019288,0.098210156,-1.1456783
0.33,1.311176,1.0487055,2.8033671,0.33068657,0.09377307,-1.1453872
0.332,1.201964,1.0932239,2.9142933,0.34969515,0.09064835,-1.1469159
0.334,1.0975775,1.1371766,3.0108814,0.36719984,0.089297265,-1.1500787
0.336,0.9974829,1.1806394,3.0926516,0.3833702,0.0901241,-1.1544847
0.338,0.9011233,1.2238214,3.159391,0.39852363,0.0934501,-1.1596506
0.34,0.80810213,1.2669266,3.2110336,0.41298214,0.0993343,-1.1651026
0.342,0.7179198,1.3099574,3.2473931,0.42705762,0.10753128,-1.1705035
0.344,0.630086,1.3527486,3.2684877,0.44107378,0.11778265,-1.1755824
0.346,0.5439694,1.39502,3.2744164,0.4551719,0.12957084,-1.1802087
0.348,0.4590112,1.4365144,3.2657819,0.46936637,0.14216757,-1.1844183
0.35,0.3747301,1.476822,3.2434664,0.48357648,0.15486217,-1.1883898
0.352,0.29076058,1.5157068,3.2086143,0.49766558,0.16704404,-1.192371
0.354,0.20710546,1.5526906,3.1622794,0.5114861,0.17823876,-1.1966791
0.356,0.12397164,1.5871891,3.1059217,0.52490544,0.18818358,-1.2016451
0.358,0.041656613,1.6185869,3.0404582,0.5378481,0.1968405,-1.2075912
0.36,-0.039487004,1.6460689,2.9670148,0.5503471,0.20436516,-1.214786
0.362,-0.11848867,1.6688104,2.8871841,0.5625208,0.21102607,-1.2233927
0.364,-0.19443774,1.6859722,2.8021123,0.5745409,0.21715581,-1.2334507
0.366,-0.26608455,1.6970536,2.712708,0.5866314,0.22309203,-1.2448416
0.368,-0.33248377,1.7018801,2.6202888,0.5990206,0.22908002,-1.2573152
0.37,-0.39186662,1.6995364,2.5260856,0.6119217,0.23525637,-1.2705214
0.372,-0.44275922,1.6898525,2.4307318,0.62548417,0.24160545,-1.284065
0.374,-0.48414838,1.6727862,2.3352056,0.63977814,0.2479547,-1.2975403
0.376,-0.51542753,1.6482725,2.2408729,0.65482,0.25405365,-1.3105624
0.378,-0.5358868,1.6165332,2.148982,0.67055863,0.25956762,-1.322773
0.38,-0.5446733,1.5779107,2.060717,0.6868892,0.26414555,-1.3338369
0.382,-0.5414657,1.5331341,1.9774582,0.70367116,0.26746136,-1.3434851
0.384,-0.5258966,1.4830225,1.900407,0.72075903,0.26925212,-1.3515354
0.386,-0.4979639,1.4285277,1.8301202,0.73800457,0.2693261,-1.3578626
0.388,-0.45780146,1.3705178,1.7670588,0.755262,0.2675824,-1.3624132
0.39,-0.40564132,1.3098367,1.7115839,0.7723941,0.26400244,-1.3651773
0.392,-0.34211457,1.2469966,1.6639862,0.78926283,0.25861233,-1.366162
0.394,-0.26777816,1.1827254,1.624593,0.8057526,0.2514689,-1.3653799
0.396,-0.18357229,1.1176628,1.593836,0.8217559,0.24269679,-1.3628426
0.398,-0.09045249,1.0524416,1.5718524,0.83717716,0.2324591,-1.3585666
0.4,0.010180414,0.9878073,1.5586375,0.85195434,0.22093809,-1.3525966
0.402,0.11671162,0.9244794,1.55411,0.8660351,0.20835991,-1.3449908
0.404,0.2273933,0.8629716,1.5580022,0.879383,0.19496773,-1.3357972
0.406,0.34078425,0.8037697,1.5702139,0.8919424,0.18098594,-1.325139
0.408,0.45501846,0.747381,1.5903134,0.90366405,0.16665064,-1.3131688
0.41,0.5688334,0.69418174,1.6176605,0.9145183,0.15223984,-1.3001018
0.412,0.68088955,0.6443978,1.6511457,0.9245108,0.13802862,-1.286177
0.414,0.7898451,0.5984064,1.6898557,0.9336484,0.124271184,-1.2716624
0.416,0.89437246,0.5562295,1.7327592,0.9419611,0.11124921,-1.2568502
0.418,0.99365234,0.51782966,1.7787514,0.94952756,0.099217415,-1.2420244
0.42,1.0866925,0.48310298,1.8271773,0.95642966,0.088408515,-1.2274475
0.422,1.1730456,0.45194417,1.8770487,0.96278477,0.07901496,-1.213346
0.424,1.2525356,0.42407435,1.927536,0.9687087,0.07119614,-1.1998996
0.426,1.3249277,0.3992514,1.9780576,0.974338,0.06501797,-1.187261
0.428,1.3901508,0.37709677,2.0278525,0.97979045,0.06046462,-1.1755496
0.43,1.4483871,0.3573079,2.0760188,0.98515457,0.057408378,-1.1648757
0.432,1.499847,0.3395208,2.1218271,0.99048436,0.055681914,-1.15531
0.434,1.5452285,0.32342613,2.1646633,0.9958052,0.05506277,-1.1469092
0.436,1.5852382,0.30857766,2.2038453,1.0011001,0.05532497,-1.1397009
0.438,1.6205435,0.29472816,2.238752,1.0063313,0.056243107,-1.1336616
0.44,1.6517637,0.28164005,2.2685885,1.0114343,0.05762756,-1.1287371
0.442,1.6796246,0.26917052,2.2927608,1.0163356,0.05933486,-1.1248536
0.444,1.7052041,0.2569673,2.3106356,1.0209529,0.061294183,-1.1219285
0.446,1.7290974,0.244995,2.3217125,1.0252187,0.063507915,-1.1198485
0.448,1.7521013,0.23307407,2.3254538,1.0290835,0.0660363,-1.1184955
0.45,1.7746723,0.22120857,2.3216064,1.0325177,0.06895687,-1.1177307
0.452,1.7974238,0.20943046,2.3099973,1.0355327,0.07238984,-1.1173823
0.454,1.8207866,0.19777024,2.2907405,1.0381722,0.07643393,-1.1172694
0.456,1.8452853,0.18633342,2.263772,1.0405039,0.08119762,-1.1172174
0.458,1.8713315,0.17505085,2.229107,1.0426165,0.08676109,-1.1170477
0.46,1.899051,0.16390431,2.1867447,1.044633,0.09315355,-1.1165671
0.462,1.9286554,0.15264177,2.136871,1.0466734,0.100366116,-1.1156201
0.464,1.9599583,0.1411866,2.0800145,1.0488572,0.10830192,-1.1140574
0.466,1.9928756,0.1295358,2.016759,1.0512798,0.11680229,-1.1117569
0.468,2.0272083,0.11771941,1.9480476,1.0540053,0.1256212,-1.1086165
0.47,2.0626578,0.10598397,1.8748221,1.0570575,0.13443068,-1.10457
0.472,2.0987265,0.09441769,1.7978859,1.060435,0.14288242,-1.0995845
0.474,2.1348572,0.083247066,1.7188047,1.0640978,0.15062244,-1.0936807
0.476,2.1703959,0.07257986,1.6388948,1.067987,0.15731224,-1.086921
0.478,2.2048423,0.062374055,1.5594548,1.0720352,0.16265228,-1.0794123
0.48,2.2376015,0.052744627,1.4818381,1.076179,0.16644904,-1.0712966
0.482,2.2681153,0.043601274,1.4072112,1.0803831,0.1685969,-1.0627338
0.484,2.2959387,0.03485924,1.3370492,1.0846409,0.16911377,-1.0538753
0.486,2.3203948,0.026583195,1.2726636,1.0889802,0.16808619,-1.0448866
0.488,2.3409877,0.018766463,1.2154839,1.0934691,0.16569655,-1.0359257
0.49,2.356904,0.0117176175,1.1666521,1.0981866,0.16219614,-1.0271466
0.492,2.3679392,0.0051867366,1.1274534,1.1032386,0.15785615,-1.0186846
0.494,2.3737543,-0.000944376,1.098842,1.108729,0.15292785,-1.0106566
0.496,2.3741224,-0.006718099,1.0813634,1.1147478,0.14762738,-1.0031505
0.498,2.3685877,-0.012174666,1.0754436,1.1213728,0.14211874,-0.99625087
0.5,2.356975,-0.017375946,1.0814825,1.1286223,0.13652161,-0.9900458
0.502,2.3391268,-0.022355556,1.0998577,1.1364883,0.13092752,-0.9846034
0.504,2.3147392,-0.027250767,1.1305828,1.1449376,0.125408,-0.97999704
0.506,2.283786,-0.032082558,1.1735791,1.1539189,0.12001667,-0.9762838
0.508,2.2464163,-0.03701073,1.2285362,1.1633404,0.11485392,-0.97351253
0.51,2.202734,-0.042194307,1.2948704,1.1731018,0.1100284,-0.9717059
0.512,2.1528735,-0.04771942,1.3716024,1.1831245,0.10568299,-0.97082114
0.514,2.0970962,-0.053623497,1.4575692,1.1933539,0.102003455,-0.97077703
0.516,2.0356953,-0.059946418,1.5514305,1.2037545,0.09918167,-0.97143227
0.518,1.9690006,-0.06654835,1.6517042,1.2142956,0.097433835,-0.9726014
0.52,1.8974386,-0.07345444,1.7569232,1.2249993,0.096974954,-0.9740926
0.522,1.8214421,-0.08034706,1.865557,1.2359195,0.09802093,-0.97570926
0.524,1.741409,-0.087040424,1.976073,1.2471282,0.10075597,-0.97729236
0.526,1.6581792,-0.09335679,2.0866866,1.258685,0.105274156,-0.978738
0.528,1.572291,-0.098952115,2.195841,1.270656,0.11156135,-0.97999203
0.53,1.4844187,-0.103660285,2.3020062,1.2830507,0.11948266,-0.9810816
0.532,1.3954864,-0.10723168,2.4037004,1.2958512,0.12874444,-0.982107
0.534,1.3061929,-0.109504044,2.4994383,1.3089818,0.13890459,-0.9832333
0.536,1.217663,-0.11009747,2.587751,1.3223033,0.14939138,-0.984667
0.538,1.1307545,-0.108789444,2.6674466,1.3356546,0.15953697,-0.9866497
0.54,1.0463562,-0.10534966,2.7377162,1.3488553,0.16865337,-0.9894135
0.542,0.96552396,-0.099775195,2.7980006,1.3617144,0.17608336,-0.9931411
0.544,0.889218,-0.09205735,2.847946,1.3740833,0.18127991,-0.9979744
0.546,0.8184223,-0.082187295,2.88743,1.3858305,0.18388078,-1.0040164
0.548,0.754207,-0.07019585,2.9161818,1.3968918,0.18374415,-1.0113196
0.55,0.69741905,-0.056123734,2.9342945,1.4072523,0.1809678,-1.0198681
0.552,0.64882314,-0.04014933,2.941841,1.416949,0.17586541,-1.0295783
0.554,0.6090034,-0.022522807,2.9390638,1.42607,0.16892828,-1.0403217
0.556,0.5787965,-0.0037077665,2.9264133,1.4347202,0.16076766,-1.0519398
0.558,0.55871254,0.016024768,2.9046366,1.443015,0.15204538,-1.064224
0.56,0.5489694,0.03637612,2.874209,1.4510782,0.14338817,-1.076978
0.562,0.5499605,0.05692482,2.8357973,1.4590237,0.13532902,-1.0899965
0.564,0.56199074,0.07729179,2.789885,1.4669328,0.12826578,-1.103085
0.566,0.5852515,0.09689307,2.7371457,1.4748638,0.122416556,-1.1161001
0.568,0.61971056,0.11536789,2.678204,1.4828166,0.117825545,-1.1289219
0.57,0.6655433,0.13220757,2.613697,1.490791,0.114361785,-1.1414691
0.572,0.7225055,0.14704812,2.5443976,1.4987452,0.11175969,-1.1536983
0.574,0.79073244,0.15933931,2.470949,1.5066102,0.10966112,-1.165567
0.576,0.86998045,0.16863602,2.3939588,1.5143238,0.10764027,-1.1770581
0.578,0.9599445,0.17447382,2.3139977,1.5218239,0.10525787,-1.1881671
0.58,1.0603758,0.17650265,2.2314727,1.5290629,0.10210892,-1.1989229
0.582,1.1708351,0.17438596,2.1467478,1.5360045,0.09785375,-1.2093666
0.584,1.2909449,0.16792327,2.0598054,1.542653,0.09223128,-1.2195089
0.586,1.4202561,0.15694231,1.9706593,1.5490102,0.08507011,-1.229333
0.588,1.5580232,0.14168525,1.8797565,1.5551083,0.076283164,-1.2387975
0.59,1.7032337,0.12248713,1.7876434,1.5609993,0.06589019,-1.2478588
0.592,1.8550916,0.0996837,1.6944004,1.5667256,0.054019302,-1.2564577
0.594,2.0127687,0.07365984,1.6000397,1.5723637,0.040893093,-1.2645001
0.596,2.1753457,0.044875264,1.5043366,1.5779755,0.02680865,-1.2718806
0.598,2.341867,0.013729215,1.4072073,1.5836369,0.012095794,-1.2784805
0.6,2.5110817,-0.019375384,1.3088651,1.5894055,-0.002922669,-1.2841642
0.602,2.681957,-0.053645015,1.2092341,1.5953344,-0.017961219,-1.2887872
0.604,2.853122,-0.0883638,1.1084892,1.6014733,-0.03281291,-1.2922121
0.606,3.0233605,-0.12287608,1.0071619,1.6078773,-0.047349557,-1.2943075
0.608,3.1916406,-0.15654176,0.90558636,1.6145948,-0.061547473,-1.2949479
0.61,3.3565295,-0.18866292,0.80407965,1.6216767,-0.075465575,-1.2940513
0.612,3.5167537,-0.21856362,0.7029463,1.6291958,-0.08923361,-1.2915652
0.614,3.6713324,-0.24567352,0.60274065,1.6372151,-0.10300666,-1.2874659
0.616,3.8190749,-0.2693023,0.50407064,1.6458292,-0.11695251,-1.281759
0.618,3.9588225,-0.28905576,0.40777913,1.6551415,-0.13122207,-1.2744788
0.62,4.0896316,-0.3043521,0.31465378,1.6652452,-0.14587781,-1.2657248
0.622,4.2107935,-0.31481883,0.2256826,1.6762419,-0.16088751,-1.2556216
0.624,4.3216224,-0.32035473,0.14167936,1.6882297,-0.17614943,-1.2442954
0.626,4.42153,-0.32101333,0.063314304,1.7012954,-0.19149391,-1.2318879
0.628,4.51029,-0.3169566,-0.008681096,1.7155061,-0.20671219,-1.2185569
0.63,4.587602,-0.30836827,-0.0736741,1.7308922,-0.22157069,-1.2044326
0.632,4.653327,-0.29544628,-0.13097344,1.7474564,-0.23589271,-1.1896366
0.634,4.7079005,-0.2785524,-0.18016535,1.7651556,-0.24956612,-1.1742798
0.636,4.7513847,-0.2579389,-0.22089264,1.7839297,-0.26260388,-1.1584861
0.638,4.7844334,-0.23418866,-0.25317794,1.8036608,-0.27514842,-1.1424146
0.64,4.80772,-0.20758678,-0.27683836,1.8242034,-0.2874691,-1.1262633
0.642,4.821904,-0.17881452,-0.29180282,1.845383,-0.29994395,-1.1102549
0.644,4.827895,-0.14817935,-0.29809287,1.8669912,-0.31301993,-1.0946186
0.646,4.8265266,-0.11624788,-0.295827,1.8888111,-0.32718801,-1.0795841
0.648,4.819048,-0.08352199,-0.2853486,1.9106241,-0.3429164,-1.0653887
0.65,4.8066607,-0.05041586,-0.26735312,1.932266,-0.36055756,-1.0522381
0.652,4.7903905,-0.017184928,-0.24262196,1.9536026,-0.38031462,-1.0402822
0.654,4.7711945,0.015860572,-0.21210626,1.9745514,-0.40220848,-1.0296121
0.656,4.750361,0.048469782,-0.17650023,1.995071,-0.42610815,-1.0202464
0.658,4.728805,0.08047439,-0.13656548,2.0151508,-0.45170003,-1.0121406
0.66,4.7078714,0.11167087,-0.09322097,2.0348308,-0.47854304,-1.0051881
0.662,4.6884503,0.14198868,-0.047269642,2.0541923,-0.50611496,-0.99924994
0.664,4.6714687,0.17153993,0.00053060055,2.0733168,-0.5338581,-0.994177
0.666,4.657757,0.20035926,0.049331218,2.092299,-0.56124693,-0.98983705
0.668,4.647999,0.22844614,0.098213166,2.1112194,-0.58784866,-0.9861014
0.67,4.643084,0.25569886,0.14659612,2.1301353,-0.6133707,-0.9828632
0.672,4.6435227,0.28223702,0.19388285,2.149078,-0.637673,-0.9800484
0.674,4.649667,0.30812877,0.2396331,2.1680784,-0.66079134,-0.9775517
0.676,4.6618943,0.33346382,0.28363436,2.187155,-0.6829002,-0.975294
0.678,4.6804576,0.35828733,0.32582694,2.2063105,-0.70428246,-0.97322583
0.68,4.7054954,0.3825969,0.36627796,2.2255485,-0.72528684,-0.9713044
0.682,4.737076,0.40643826,0.40515125,2.244866,-0.74628174,-0.9694819
0.684,4.7752714,0.4297567,0.44268984,2.2642732,-0.7676281,-0.9677268
0.686,4.82006,0.45243585,0.47932595,2.2837813,-0.78959334,-0.9659995
0.688,4.8713436,0.47445518,0.51555604,2.3034017,-0.81235033,-0.96425223
0.69,4.9288807,0.4955483,0.55195993,2.323133,-0.8359365,-0.9624582
0.692,4.992471,0.5156021,0.5892731,2.3429897,-0.86026245,-0.96059
0.694,5.0616517,0.5343612,0.6285354,2.3629723,-0.885118,-0.9586044
0.696,5.1360936,0.55156505,0.6706852,2.3830633,-0.9101945,-0.95649195
0.698,5.2152615,0.5667486,0.7162629,2.4032443,-0.93512917,-0.9542353
0.7,5.2990613,0.5794401,0.76582533,2.4234877,-0.9595352,-0.9518238
0.702,5.386733,0.5895314,0.8200665,2.4437463,-0.98304796,-0.94923955
0.704,5.47756,0.59675413,0.87950855,2.4639475,-1.0053775,-0.946468
0.706,5.5709786,0.6007912,0.9447904,2.4840093,-1.0263214,-0.943492
0.708,5.665951,0.6017721,1.0159657,2.5038543,-1.0457809,-0.94028556
0.71,5.7621183,0.5994281,1.0928302,2.523377,-1.063735,-0.93683356
0.712,5.8581686,0.5937878,1.1750553,2.542489,-1.0802748,-0.933107
0.714,5.9532394,0.58492327,1.2622654,2.561071,-1.0955645,-0.9290842
0.716,6.046435,0.5730271,1.3538363,2.5789995,-1.1098061,-0.9247078
0.718,6.1365647,0.558398,1.4489053,2.596176,-1.1232631,-0.91991514
0.72,6.22277,0.5412899,1.5466205,2.6124952,-1.1361717,-0.9146408
0.722,6.3040466,0.5222332,1.6458803,2.6278937,-1.1487507,-0.9088152
0.724,6.379331,0.50176597,1.7455171,2.6423383,-1.1611686,-0.90239906
0.726,6.447843,0.48025742,1.8442751,2.6558328,-1.1735356,-0.895353
0.728,6.508463,0.45837262,1.9405487,2.668406,-1.1859376,-0.8876793
0.73,6.560363,0.43654862,2.0329847,2.6801555,-1.1984271,-0.8793959
0.732,6.6026235,0.41539204,2.1200101,2.6912107,-1.2110289,-0.8705612
0.734,6.634697,0.39566004,2.200181,2.7017412,-1.223796,-0.86126214
0.736,6.6562257,0.37800622,2.2722626,2.7119389,-1.2368246,-0.85163367
0.738,6.666808,0.36304587,2.3348625,2.7219894,-1.2502584,-0.84183306
0.74,6.666279,0.35140437,2.3867424,2.732084,-1.2643152,-0.8320144
0.742,6.654552,0.3435004,2.4266384,2.7424123,-1.2792667,-0.8223111
0.744,6.631793,0.3396822,2.453447,2.7531362,-1.2954454,-0.8128302
0.746,6.59814,0.3402783,2.4664462,2.7643816,-1.313194,-0.8036462
0.748,6.553639,0.34548151,2.4649103,2.7762558,-1.332864,-0.7947919
0.75,6.498793,0.35637718,2.448173,2.7888486,-1.3547724,-0.7862311
0.752,6.4340906,0.37315896,2.4161184,2.8022413,-1.3791595,-0.7778869
0.754,6.3609624,0.39548808,2.3684986,2.8165035,-1.4062036,-0.7696403
0.756,6.2803335,0.42334545,2.3052201,2.8316872,-1.4360116,-0.7613543
0.758,6.1929636,0.45685053,2.2268393,2.8478682,-1.4685954,-0.75286347
0.76,6.100011,0.49610782,2.1342037,2.8651376,-1.5038861,-0.74401015
0.762,6.0029416,0.54096407,2.0284111,2.8836176,-1.5417366,-0.7346433
0.764,5.9032784,0.5913805,1.9107579,2.9034657,-1.5819244,-0.7246447
0.766,5.802361,0.6470541,1.7823938,2.924847,-1.6241666,-0.71393645
0.768,5.701824,0.7076089,1.6447371,2.9479485,-1.6681195,-0.7024783
0.77,5.6029067,0.7727556,1.4994378,2.972943,-1.7134103,-0.69028217
0.772,5.5074086,0.84208727,1.3484193,2.9999838,-1.7596473,-0.6773839
0.774,5.4167757,0.91517687,1.1934457,3.0291898,-1.8064398,-0.66384155
0.776,5.3324604,0.99190354,1.0361089,3.0606148,-1.8534043,-0.6497028
0.778,5.255673,1.0719767,0.87869537,3.0942295,-1.9001869,-0.6349459
0.78,5.187766,1.1549188,0.7230612,3.1300018,-1.9464352,-0.61963177
0.782,5.1296673,1.2404875,0.57038766,3.167829,-1.9918203,-0.60386705
0.784,5.0825977,1.3283021,0.42213592,3.2075205,-2.0360246,-0.58769476
0.786,5.0470834,1.4180598,0.27978212,3.2488234,-2.0788639,-0.57107675
0.788,5.0243163,1.5091581,0.1446081,3.291472,-2.1202047,-0.5540173
0.79,5.0147448,1.601281,0.017572165,3.33515,-2.1600091,-0.5366006
0.792,5.018796,1.694021,-0.10060778,3.3795373,-2.1983385,-0.5189837
0.794,5.03656,1.7872112,-0.20911172,3.4243078,-2.2353933,-0.50139505
0.796,5.06801,1.8807238,-0.30752105,3.4691231,-2.2715063,-0.4841135
0.798,5.1130185,1.9741709,-0.39595848,3.513656,-2.3071475,-0.46746022
0.8,5.1712184,2.0673244,-0.47432655,3.557599,-2.3429387,-0.45175928
0.802,5.242166,2.1599457,-0.5425979,3.6006663,-2.3796134,-0.43727964
0.804,5.3252153,2.251904,-0.6013031,3.6426105,-2.4180157,-0.4242015
0.806,5.4196067,2.3429518,-0.6507503,3.6832068,-2.4590828,-0.41260582
0.808,5.524798,2.4328568,-0.6916203,3.7222629,-2.503778,-0.4024408
0.81,5.640009,2.5213673,-0.7249441,3.7596457,-2.5530255,-0.39353323
0.812,5.764477,2.607963,-0.7514092,3.7952552,-2.6077456,-0.38561273
0.814,5.8969083,2.6925364,-0.77017725,3.8290358,-2.6687977,-0.37834013
0.816,6.0364,2.7743764,-0.7776666,3.8609602,-2.7369483,-0.37137765
0.818,6.18272,2.8531935,-0.7773394,3.891039,-2.8128245,-0.36439437
0.82,6.3345118,2.9306357,-0.7771473,3.9193017,-2.8969407,-0.35707158
0.822,6.4894505,3.0070767,-0.77371925,3.9458199,-2.9896674,-0.3491544
0.824,6.644537,3.0806768,-0.75378066,3.9706607,-3.0911868,-0.34045815
0.826,6.805119,3.1466064,-0.7172473,3.9939077,-3.201461,-0.3308748
0.828,6.97089,3.2068982,-0.6784956,4.0156436,-3.3202767,-0.3203652
0.83,7.136704,3.2652898,-0.6365877,4.03597,-3.447156,-0.30891144
0.832,7.299409,3.322632,-0.5898615,4.054977,-3.5813854,-0.29654944
0.834,7.4613595,3.3768215,-0.5400504,4.072683,-3.7219841,-0.2832458
0.836,7.6214995,3.4274797,-0.48640352,4.089123,-3.86771,-0.26899397
0.838,7.7768927,3.4765055,-0.4267587,4.1043453,-4.017087,-0.25391805
0.84,7.9263086,3.5258934,-0.35709065,4.1184034,-4.1683345,-0.23821342
0.842,8.068901,3.5760891,-0.27563173,4.131353,-4.319574,-0.22201836
0.844,8.20386,3.626873,-0.18466133,4.143277,-4.4688396,-0.20544267
0.846,8.330411,3.6781983,-0.08739656,4.1542974,-4.614093,-0.1886115
0.848,8.447603,3.7309108,0.013217807,4.1647367,-4.7530684,-0.17159891
0.85,8.555231,3.7863731,0.11491525,4.1751475,-4.883991,-0.15444624
0.852,8.652158,3.846871,0.21382672,4.186145,-5.0057435,-0.13720703
0.854,8.737849,3.9139795,0.3052739,4.198419,-5.116954,-0.11974716
0.856,8.812356,3.9891646,0.38609397,4.213025,-5.215337,-0.10154414
0.858,8.874602,4.074369,0.4543041,4.231165,-5.299832,-0.08197141
0.86,8.924049,4.1704454,0.5074375,4.2541227,-5.3708096,-0.060631514
0.862,8.960301,4.2791243,0.54215115,4.283343,-5.4280753,-0.037191153
0.864,8.981764,4.402525,0.55567414,4.3199897,-5.471728,-0.011107445
0.866,8.987421,4.542365,0.54473,4.3651795,-5.502257,0.018345833
0.868,8.976291,4.6997995,0.50613046,4.4201746,-5.520075,0.051866293
0.87,8.946527,4.876171,0.43826342,4.486185,-5.5253916,0.08988762
0.872,8.896048,5.0730705,0.34078538,4.56418,-5.517905,0.13250351
0.874,8.822771,5.2921333,0.21478462,4.654687,-5.496874,0.17947626
0.876,8.724729,5.5348697,0.062145352,4.7577085,-5.4613338,0.23028398
0.878,8.599832,5.8024263,-0.11420798,4.872652,-5.4101906,0.28417754
0.88,8.446211,6.095666,-0.3107704,4.9982886,-5.3423715,0.3401084
0.882,8.261938,6.415217,-0.52354074,5.132797,-5.2568808,0.39673877
0.884,8.045516,6.761446,-0.7475004,5.273917,-5.1528635,0.4526043
0.886,7.7958126,7.134165,-0.97688437,5.419203,-5.0297556,0.50630903
0.888,7.512365,7.533166,-1.2060416,5.566225,-4.8874063,0.55657625
0.89,7.1949735,7.9580364,-1.4287391,5.7127886,-4.726068,0.60229754
0.892,6.8442974,8.407721,-1.6384327,5.857042,-4.54665,0.6426513
0.894,6.4615927,8.880959,-1.8296669,5.9975414,-4.350908,0.6770966
0.896,6.049087,9.376227,-1.9976377,6.1332846,-4.1415253,0.7053051
0.898,5.6090918,9.891678,-2.1381493,6.263629,-3.9222078,0.7271744
0.9,5.145018,10.425037,-2.2476318,6.388212,-3.6976995,0.74273646
0.902,4.6608844,10.973722,-2.3232126,6.5067334,-3.4735594,0.75209904
0.904,4.1610174,11.534929,-2.363267,6.6189847,-3.2552915,0.7554529
0.906,3.650298,12.105659,-2.3670208,6.7249255,-3.048191,0.75303614
0.908,3.133535,12.683082,-2.3342605,6.8245907,-2.857652,0.74494696
0.91,2.6158545,13.2640915,-2.2661214,6.917864,-2.6887116,0.73108494
0.912,2.1021042,13.845606,-2.1643262,7.0047693,-2.5438213,0.7115027
0.914,1.5972581,14.42461,-2.0308814,7.085508,-2.423602,0.6865488
0.916,1.1054478,14.998304,-1.8682632,7.160333,-2.3287947,0.65647256
0.918,0.6305454,15.5639515,-1.6790929,7.229783,-2.2589872,0.6212288
0.92,0.1758039,16.119093,-1.4659429,7.2942233,-2.2128181,0.5806775
0.922,-0.25578284,16.661554,-1.2319512,7.3537807,-2.188684,0.5348213
0.924,-0.66123986,17.189194,-0.98169994,7.408566,-2.1848943,0.4838705
0.926,-1.0387444,17.700632,-0.7208595,7.45876,-2.1998606,0.4281242
0.928,-1.3872442,18.194078,-0.44767857,7.504611,-2.2319646,0.36782956
0.93,-1.7054653,18.666954,-0.1583023,7.546361,-2.2794776,0.30313396
0.932,-1.9916792,19.118597,0.13983822,7.5842566,-2.3406515,0.23413992
0.934,-2.2447436,19.550465,0.4345026,7.618538,-2.413733,0.16101766
0.936,-2.4709463,19.965717,0.7296858,7.649474,-2.4970636,0.083984375
0.938,-2.669158,20.360615,1.039525,7.6773,-2.589153,0.0032055378
0.94,-2.834979,20.731812,1.3594856,7.70221,-2.6885853,-0.08116865
0.942,-2.9678195,21.080193,1.6859894,7.7243934,-2.7940817,-0.16895652
0.944,-3.071929,21.408981,2.0194788,7.7439747,-2.9045923,-0.2599635
0.946,-3.1473153,21.719345,2.3583202,7.7610397,-3.0191994,-0.354043
0.948,-3.1926847,22.010382,2.700673,7.775628,-3.1371284,-0.4510758
0.95,-3.2092597,22.282177,3.0442953,7.7876883,-3.2577958,-0.5509515
0.952,-3.1982625,22.536407,3.3905344,7.797105,-3.3807478,-0.6536107
0.954,-3.1609578,22.775263,3.7439537,7.803676,-3.5056045,-0.7590103
0.956,-3.098426,23.000008,4.108219,7.80717,-3.6320963,-0.86713195
0.958,-3.0124757,23.212435,4.485661,7.8072953,-3.7599711,-0.97796917
0.96,-2.9022985,23.41001,4.878124,7.803769,-3.8889196,-1.0914943
0.962,-2.769982,23.592949,5.2855115,7.7962904,-4.0185204,-1.2076368
0.964,-2.6180854,23.763166,5.7098684,7.7845974,-4.1482,-1.3263037
0.966,-2.4465978,23.919142,6.1512775,7.7684746,-4.2772365,-1.4473515
0.968,-2.257574,24.06147,6.6064377,7.747737,-4.404805,-1.5706332
0.97,-2.0547988,24.19136,7.0774093,7.722236,-4.5299597,-1.695961
0.972,-1.839122,24.308676,7.564325,7.691885,-4.651743,-1.823123
0.974,-1.6128315,24.413626,8.06768,7.656651,-4.7691765,-1.9518678
0.976,-1.3782724,24.50596,8.588668,7.6165266,-4.88132,-2.081944
0.978,-1.1375728,24.585562,9.127697,7.57152,-4.987282,-2.2130737
0.98,-0.892724,24.651838,9.6840725,7.5217066,-5.0862536,-2.344987
0.982,-0.6459477,24.704294,10.256619,7.4671645,-5.1774945,-2.477361
0.984,-0.39929262,24.742023,10.843977,7.408043,-5.260353,-2.6098254
0.986,-0.1549542,24.764494,11.445101,7.3444757,-5.334333,-2.7420266
0.988,0.0855217,24.771305,12.058527,7.276586,-5.3991885,-2.8737023
0.99,0.32067657,24.762003,12.682739,7.204539,-5.454468,-3.0044363
0.992,0.5494282,24.736177,13.316153,7.128481,-5.5000076,-3.133768
0.994,0.7710917,24.69346,13.956821,7.0485544,-5.5358934,-3.261443
0.996,0.98508644,24.633724,14.602492,6.964942,-5.561908,-3.3871264
0.998,1.1910415,24.556795,15.250433,6.8777947,-5.5783877,-3.5104303
1,1.3889618,24.46245,15.897884,6.7873383,-5.5855494,-3.6311193
1.002,1.5792484,24.350811,16.541998,6.693845,-5.583389,-3.748858
1.004,1.7623172,24.222103,17.17997,6.5975986,-5.572012,-3.8633246
1.006,1.9389367,24.076561,17.808882,6.4989486,-5.551403,-3.9741719
1.008,2.1102014,23.914738,18.42578,6.398301,-5.5215206,-4.0810137
1.01,2.277472,23.737041,19.027548,6.2960687,-5.4823227,-4.183435
1.012,2.4421601,23.544071,19.610973,6.192671,-5.433791,-4.281016
1.014,2.605865,23.336456,20.17305,6.0884857,-5.376014,-4.3733926
1.016,2.7701573,23.11502,20.71088,5.9838424,-5.3092585,-4.4602776
1.018,2.9370432,22.880384,21.221771,5.87898,-5.2339745,-4.5414968
1.02,3.108098,22.633554,21.70308,5.774011,-5.150832,-4.617028
1.022,3.2851057,22.375309,22.152298,5.6689425,-5.0606656,-4.686962
1.024,3.4695215,22.106459,22.567406,5.5636635,-4.9644895,-4.7515054
1.026,3.663269,21.827795,22.946228,5.4579725,-4.8634186,-4.8109646
1.028,3.8675003,21.540148,23.286983,5.351587,-4.758603,-4.8657227
1.03,4.0834837,21.244173,23.58825,5.244178,-4.651184,-4.9161835
1.032,4.312169,20.94063,23.849247,5.135405,-4.5422254,-4.9627347
1.034,4.5540466,20.63004,24.069618,5.0249376,-4.432671,-5.0057454
1.036,4.809392,20.312834,24.249096,4.912475,-4.3233314,-5.0455656
1.038,5.078266,19.98952,24.387844,4.7977734,-4.214851,-5.082506
1.04,5.360568,19.660355,24.486118,4.680661,-4.1077013,-5.1167965
1.042,5.655859,19.325695,24.54443,4.561053,-4.002165,-5.148585
1.044,5.9634495,18.9857,24.563667,4.438868,-3.8986983,-5.17815
1.046,6.2823553,18.64049,24.545218,4.3141346,-3.7974129,-5.2057095
1.048,6.6114483,18.290136,24.490961,4.1869273,-3.6983328,-5.231286
1.05,6.9492245,17.934717,24.403069,4.0573387,-3.6018085,-5.255016
1.052,7.29432,17.574146,24.284138,3.9255834,-3.5077176,-5.2770166
1.054,7.6452675,17.20851,24.136541,3.791842,-3.4162936,-5.297268
1.056,8.000593,16.837729,23.9626,3.6563249,-3.327929,-5.3158493
1.058,8.358933,16.461699,23.7646,3.5193124,-3.2428598,-5.332815
1.06,8.719146,16.08027,23.54494,3.3810549,-3.1614144,-5.3482156
1.062,9.079523,15.693551,23.30573,3.2418303,-3.0838985,-5.362159
1.064,9.438923,15.301285,23.049217,3.1019068,-3.0105767,-5.374776
1.066,9.795969,14.903679,22.777754,2.9615364,-2.9416616,-5.386209
1.068,10.150238,14.499531,22.493233,2.8209589,-2.8772736,-5.3966002
1.07,10.498708,14.091442,22.196598,2.6803737,-2.8174336,-5.4060783
1.072,10.842248,13.678272,21.891253,2.5399988,-2.7620587,-5.414729
1.074,11.180735,13.259058,21.577883,2.4000373,-2.7109628,-5.4226065
1.076,11.511776,12.835953,21.257183,2.2606812,-2.663886,-5.4297576
1.078,11.836266,12.408322,20.931786,2.1221533,-2.6204584,-5.4361725
1.08,12.155168,11.975417,20.599873,1.9846917,-2.580262,-5.441787
1.082,12.466539,11.538159,20.262764,1.848591,-2.5428233,-5.446508
1.084,12.770706,11.096403,19.920986,1.7141602,-2.5076454,-5.4502416
1.086,13.067918,10.650507,19.574667,1.581733,-2.474223,-5.452903
1.088,13.358098,10.200817,19.224064,1.4516485,-2.4420948,-5.4543777
1.09,13.641521,9.747758,18.869137,1.3242834,-2.4108393,-5.4545383
1.092,13.918548,9.291563,18.50955,1.1999962,-2.3800936,-5.453262
1.094,14.18932,8.832535,18.144775,1.0791535,-2.3495758,-5.45041
1.096,14.454355,8.371,17.774017,0.96209025,-2.3190618,-5.4457984
1.098,14.713521,7.9075136,17.396908,0.84909964,-2.2884002,-5.439247
1.1,14.967052,7.442494,17.013073,0.7404115,-2.2574964,-5.430544
1.102,15.2149105,6.9764757,16.621899,0.6361811,-2.2263222,-5.4194636
1.104,15.457135,6.5099773,16.22283,0.53649044,-2.1948953,-5.405773
1.106,15.693738,6.0434923,15.815371,0.44135404,-2.1632676,-5.3892283
1.108,15.924504,5.577679,15.399215,0.3507223,-2.131552,-5.369564
1.11,16.149187,5.113475,14.974056,0.26449108,-2.0999148,-5.3465233
1.112,16.367306,4.651447,14.539869,0.18249798,-2.068564,-5.319848
1.114,16.578402,4.192405,14.0966625,0.10456753,-2.037716,-5.2892666
1.116,16.782106,3.7371874,13.644535,0.030514002,-2.0075877,-5.254508
1.118,16.977722,3.2865157,13.183771,-0.039827347,-1.9783938,-5.215306
1.12,17.164486,2.8413,12.714905,-0.10658288,-1.9502976,-5.171419
1.122,17.341694,2.4022965,12.2385235,-0.16985321,-1.9233975,-5.1226454
1.124,17.50885,1.9702168,11.755398,-0.22970009,-1.8977009,-5.068834
1.126,17.665266,1.545661,11.266639,-0.28617978,-1.873126,-5.0099
1.128,17.810057,1.1294355,10.773269,-0.3393116,-1.8494989,-4.9458275
1.13,17.942932,0.7220535,10.276685,-0.38908434,-1.8265707,-4.876672
1.132,18.06328,0.32418728,9.778366,-0.4354813,-1.804025,-4.802571
1.134,18.170792,-0.06357765,9.279923,-0.47845006,-1.781501,-4.7237225
1.136,18.26523,-0.4406557,8.783457,-0.5179596,-1.7586195,-4.640336
1.138,18.346584,-0.80655,8.291121,-0.5539571,-1.7350166,-4.552655
1.14,18.41477,-1.1605577,7.8048496,-0.58639383,-1.7103684,-4.46092
1.142,18.469799,-1.5023232,7.3263416,-0.615239,-1.6843995,-4.3653803
1.144,18.51185,-1.8311596,6.857354,-0.64049757,-1.656904,-4.2662716
1.146,18.541203,-2.146535,6.399792,-0.66221654,-1.6277411,-4.1638293
1.148,18.557913,-2.4479904,5.9553633,-0.6804706,-1.5968139,-4.0583105
1.15,18.562178,-2.7351289,5.525991,-0.695349,-1.5640543,-3.9500022
1.152,18.554085,-3.0076418,5.113274,-0.70697474,-1.5293944,-3.8392076
1.154,18.533882,-3.2652512,4.718546,-0.71547914,-1.4927475,-3.7262683
1.156,18.501741,-3.5075297,4.3428926,-0.7209984,-1.4539912,-3.6115556
1.158,18.457466,-3.7342548,3.986755,-0.7236614,-1.4129703,-3.495445
1.16,18.40139,-3.945228,3.6504655,-0.7235944,-1.369532,-3.3783073
1.162,18.333296,-4.1403346,3.3340921,-0.72092974,-1.3235099,-3.2605166
1.164,18.253109,-4.31965,3.0376482,-0.71577275,-1.2747515,-3.1424227
1.166,18.160854,-4.4834795,2.760745,-0.70826226,-1.2231716,-3.0243554
1.168,18.056501,-4.63197,2.502942,-0.6985472,-1.1687686,-2.9066463
1.17,17.939816,-4.7655888,2.2632422,-0.6868104,-1.1116189,-2.7895944
1.172,17.811115,-4.8849187,2.0408573,-0.6732596,-1.0518872,-2.673503
1.174,17.670155,-4.9905343,1.8346438,-0.6581087,-0.98981965,-2.5586789
1.176,17.517101,-5.0833,1.6432695,-0.6415558,-0.9257028,-2.4454157
1.178,17.352013,-5.1639485,1.465245,-0.6237836,-0.8598547,-2.3340182
1.18,17.17498,-5.2335954,1.299108,-0.6049248,-0.7925803,-2.2247815
1.182,16.98621,-5.293138,1.1433551,-0.5850761,-0.72417307,-2.1179779
1.184,16.786003,-5.34369,0.9965062,-0.5643095,-0.654902,-2.0138574
1.186,16.574661,-5.386208,0.8571296,-0.5426532,-0.5850259,-1.9126236
1.188,16.352348,-5.421783,0.72422576,-0.5201117,-0.5147549,-1.8144534
1.19,16.11936,-5.451318,0.5965986,-0.4966591,-0.44427693,-1.7195041
1.192,15.875836,-5.4756227,0.47339654,-0.47227842,-0.37374687,-1.6278851
1.194,15.622068,-5.4954257,0.3536992,-0.44696635,-0.3032698,-1.5396807
1.196,15.35828,-5.5114293,0.23681998,-0.42075157,-0.2329498,-1.4549531
1.198,15.0845995,-5.5241146,0.122250795,-0.3937075,-0.16289228,-1.373713
1.2,14.801112,-5.533889,0.009603977,-0.36593273,-0.09322661,-1.2959652
1.202,14.508008,-5.541004,-0.10103059,-0.33758098,-0.024108946,-1.2216953
1.204,14.205395,-5.545626,-0.20973301,-0.30885965,0.04421985,-1.15087
1.206,13.89325,-5.5477104,-0.3163097,-0.2799953,0.11143252,-1.0834537
1.208,13.571867,-5.547364,-0.42083478,-0.25126857,0.17710367,-1.0194259
1.21,13.241209,-5.5442553,-0.5230566,-0.22296932,0.24072132,-0.9587698
1.212,12.901698,-5.538001,-0.622658,-0.19540888,0.3017232,-0.90150166
1.214,12.553511,-5.5283837,-0.7193712,-0.16888955,0.35951385,-0.84765786
1.216,12.197168,-5.514964,-0.8129809,-0.1436838,0.41352135,-0.7972908
1.218,11.833359,-5.4975057,-0.90310335,-0.12004152,0.4632329,-0.7504722
1.22,11.462902,-5.4756727,-0.98949516,-0.09813709,0.5082428,-0.70730263
1.222,11.086701,-5.4490223,-1.071918,-0.078089796,0.5482862,-0.6678789
1.224,10.70585,-5.4172807,-1.1499913,-0.05995309,0.5832342,-0.6322933
1.226,10.321327,-5.3800807,-1.2232511,-0.043727536,0.61310905,-0.60063833
1.228,9.934599,-5.3373384,-1.2914741,-0.029359795,0.6380061,-0.572968
1.23,9.5471525,-5.2888393,-1.3542497,-0.016753651,0.65808576,-0.54933447
1.232,9.160535,-5.234548,-1.411257,-0.005790226,0.6735532,-0.5297591
1.234,8.776384,-5.174505,-1.4621536,0.0036493614,0.6846143,-0.5142517
1.236,8.396543,-5.108799,-1.5067811,0.011672378,0.69145274,-0.5027989
1.238,8.02283,-5.0375705,-1.5450628,0.018376745,0.69422114,-0.49536848
1.24,7.6567483,-4.961073,-1.5769374,0.023833752,0.69303894,-0.4919083
1.242,7.29989,-4.8796215,-1.6024938,0.02806408,0.68797016,-0.49234173
1.244,6.9536133,-4.7936068,-1.6218555,0.03107921,0.6790194,-0.49656394
1.246,6.6191897,-4.703429,-1.6350942,0.03286455,0.66615903,-0.5044394
1.248,6.297658,-4.609547,-1.6422671,0.033397034,0.64932656,-0.51579314
1.25,5.9899755,-4.512569,-1.6434302,0.032636546,0.6284422,-0.5304319
1.252,5.697049,-4.4129295,-1.6387173,0.030550301,0.6034167,-0.5481512
1.254,5.41942,-4.3112745,-1.6283194,0.027095966,0.5741397,-0.5687146
1.256,5.157427,-4.2081947,-1.6126642,0.022220276,0.54048723,-0.591889
1.258,4.9108386,-4.10421,-1.5920084,0.015896508,0.50235546,-0.6174559
1.26,4.6797214,-3.9998605,-1.5668031,0.008090405,0.45963147,-0.64520633
1.262,4.46382,-3.8956864,-1.5371294,-0.0012030415,0.4122341,-0.6749558
1.264,4.262506,-3.79219,-1.5032731,-0.011982255,0.36010188,-0.7065319
1.266,4.0751796,-3.6900473,-1.4655321,-0.02423197,0.30321693,-0.73976517
1.268,3.9012046,-3.5897372,-1.4239562,-0.03791471,0.24162532,-0.77448946
1.27,3.7394016,-3.491598,-1.3786765,-0.05296415,0.17544404,-0.8105145
1.272,3.5889387,-3.3962057,-1.329914,-0.06927724,0.10489985,-0.8476248
1.274,3.448796,-3.3038425,-1.2774556,-0.08672911,0.030356646,-0.8855717
1.276,3.3177786,-3.2146587,-1.2211293,-0.105161816,-0.04769081,-0.92408407
1.278,3.1948287,-3.129156,-1.1606824,-0.12438545,-0.12860334,-0.96284556
1.28,3.078974,-3.0474792,-1.0958012,-0.14420222,-0.21163297,-1.0015196
1.282,2.968988,-2.9698925,-1.026331,-0.16441566,-0.29590553,-1.0397705
1.284,2.8639727,-2.8964458,-0.95209634,-0.18481496,-0.38048974,-1.0772645
1.286,2.762788,-2.8271897,-0.8728968,-0.20519859,-0.46443018,-1.1136736
1.288,2.664404,-2.7622013,-0.78834176,-0.2253626,-0.5467861,-1.1486974
1.29,2.5678115,-2.7013958,-0.6981184,-0.24510115,-0.62664205,-1.1820618
1.292,2.4721365,-2.6447568,-0.6018219,-0.26422715,-0.7031409,-1.2135181
1.294,2.3765984,-2.5923438,-0.49935943,-0.2825517,-0.7754995,-1.2428476
1.296,2.2803755,-2.5439694,-0.39048108,-0.29988152,-0.8430032,-1.2698367
1.298,2.1830664,-2.49964,-0.27513894,-0.3160538,-0.9050087,-1.2942998
1.3,2.084283,-2.4593189,-0.15326619,-0.33089605,-0.96095085,-1.3160496
1.302,1.9837286,-2.423124,-0.025011897,-0.34423605,-1.0103184,-1.334904
1.304,1.881289,-2.390853,0.10960826,-0.3559305,-1.0526569,-1.35067
1.306,1.7765121,-2.3623953,0.25047195,-0.36587504,-1.0876036,-1.3631517
1.308,1.6691483,-2.3376465,0.39755368,-0.37400705,-1.1148658,-1.3721464
1.31,1.5591853,-2.316491,0.5508343,-0.3802963,-1.1342604,-1.3774362
1.312,1.4462473,-2.2987022,0.71011347,-0.3848008,-1.1457207,-1.3788096
1.314,1.3300155,-2.283785,0.87535197,-0.3876233,-1.14928,-1.376081
1.316,1.2103006,-2.271367,1.0466754,-0.38892925,-1.145059,-1.3691034
1.318,1.0865319,-2.2607872,1.22433,-0.38889825,-1.1332251,-1.357779
1.32,0.95840853,-2.2515707,1.4082311,-0.38771546,-1.1139685,-1.3420584
1.322,0.8252653,-2.2431126,1.5983639,-0.38554543,-1.0874355,-1.3219316
1.324,0.68628556,-2.234651,1.7949051,-0.3825239,-1.0536817,-1.2974595
1.326,0.54054487,-2.2253351,1.9979845,-0.37875536,-1.0126772,-1.268718
1.328,0.38698298,-2.2139404,2.2077978,-0.37428117,-0.9642733,-1.2358078
1.33,0.22418825,-2.1992981,2.424546,-0.36909834,-0.9082363,-1.1988413
1.332,0.050748356,-2.1800802,2.6483042,-0.36318198,-0.8442608,-1.1579413
1.334,-0.13481024,-2.1548355,2.8787627,-0.356473,-0.77198297,-1.113223
1.336,-0.33398855,-2.1221738,3.1156363,-0.3489052,-0.6910305,-1.0647969
1.338,-0.54858166,-2.080323,3.358543,-0.3404184,-0.6010665,-1.0128
1.34,-0.78021556,-2.0278263,3.606835,-0.33093596,-0.5018076,-0.95739424
1.342,-1.0307155,-1.9628041,3.85995,-0.32039744,-0.39300185,-0.8987764
1.344,-1.3019876,-1.8834796,4.117272,-0.30875587,-0.27452794,-0.83719134
1.346,-1.5955714,-1.7881142,4.3776817,-0.29598308,-0.14637971,-0.77293324
1.348,-1.913019,-1.6750712,4.6400533,-0.28208393,-0.008630842,-0.7063402
1.35,-2.255656,-1.5428478,4.9029994,-0.26709712,0.13851584,-0.6378006
1.352,-2.6246636,-1.389873,5.1650257,-0.2510942,0.29471636,-0.56771594
1.354,-3.020981,-1.21485,5.424559,-0.23420095,0.45951363,-0.4965016
1.356,-3.445362,-1.0164282,5.6797724,-0.21658045,0.63231385,-0.42458472
1.358,-3.8982387,-0.79361075,5.928957,-0.19840428,0.812422,-0.35240236
1.36,-4.3798,-0.5453181,6.1705766,-0.17985927,0.99908346,-0.28042638
1.362,-4.890061,-0.27095765,6.4027133,-0.16114157,1.1914787,-0.20917395
1.364,-5.4285855,0.029989243,6.6237264,-0.14244324,1.3887482,-0.139213
1.366,-5.994764,0.35786027,6.8318563,-0.12393111,1.5899941,-0.07116574
1.368,-6.5871525,0.71261406,7.025685,-0.10578883,1.7942932,-0.005720854
1.37,-7.2047396,1.0941066,7.203952,-0.08819848,2.000689,0.056388974
1.372,-7.8455644,1.5017807,7.3655095,-0.071357846,2.2081666,0.11438817
1.374,-8.507733,1.9349835,7.5095944,-0.05547315,2.4156752,0.16746503
1.376,-9.188816,2.3927963,7.63554,-0.04078412,2.6221056,0.21478653
1.378,-9.885938,2.8738577,7.742796,-0.027522206,2.8262615,0.25554156
1.38,-10.596068,3.3765922,7.831195,-0.015934587,3.0269008,0.28889865
1.382,-11.31548,3.8993855,7.900602,-0.0062606335,3.2227352,0.31405377
1.384,-12.040945,4.4402103,7.9508886,0.0012898445,3.412462,0.33019185
1.386,-12.768619,4.9967985,7.982632,0.006534338,3.5947819,0.33649933
1.388,-13.494749,5.5669127,7.9962873,0.009316206,3.7683792,0.3321731
1.39,-14.215631,6.1478004,7.992667,0.009512186,3.9319525,0.3164208
1.392,-14.9272,6.7367654,7.9725637,0.007024169,4.084218,0.28848708
1.394,-15.625661,7.330863,7.9369674,0.001770258,4.2238817,0.2476548
1.396,-16.30724,7.926896,7.886927,-0.0063322783,4.349602,0.19329584
1.398,-16.968561,8.521832,7.8236036,-0.017373323,4.460062,0.12488091
1.4,-17.606264,9.112479,7.7481604,-0.031434774,4.553934,0.04202354
1.402,-18.217583,9.695719,7.6618557,-0.04861927,4.629863,-0.055523396
1.404,-18.80012,10.268521,7.5659266,-0.06905544,4.6865177,-0.16786647
1.406,-19.351643,10.827721,7.461442,-0.0928967,4.722624,-0.29497874
1.408,-19.870754,11.370523,7.34956,-0.12032771,4.736985,-0.43670237
1.41,-20.356188,11.894268,7.2317095,-0.15155816,4.728529,-0.59274185
1.412,-20.806889,12.396267,7.109316,-0.18678486,4.6963825,-0.7626796
1.414,-21.222523,12.874025,6.9837866,-0.22620761,4.6398816,-0.94600666
1.416,-21.602577,13.32527,6.8565583,-0.26997036,4.5586395,-1.142105
1.418,-21.9469,13.748002,6.728881,-0.3181889,4.4526167,-1.3502982
1.42,-22.255943,14.140373,6.6022463,-0.3709051,4.3221064,-1.5698309
1.422,-22.530027,14.500811,6.4782434,-0.4280755,4.16772,-1.7998868
1.424,-22.769432,14.8277855,6.358535,-0.48957002,3.9903855,-2.039616
1.426,-22.97477,15.12014,6.244872,-0.5551916,3.7913642,-2.2881122
1.428,-23.146374,15.37681,6.1389017,-0.62465364,3.5721662,-2.544423
1.43,-23.284779,15.597115,6.04245,-0.69759214,3.3345468,-2.8075573
1.432,-23.390131,15.780436,5.9571157,-0.77360505,3.0804772,-3.076502
1.434,-23.462461,15.926604,5.884314,-0.8522543,2.8121014,-3.3502223
1.436,-23.501759,16.035532,5.8256774,-0.9331,2.5317159,-3.6276782
1.438,-23.507788,16.107079,5.782452,-1.0157126,2.2417173,-3.9078164
1.44,-23.480137,16.141598,5.7560134,-1.0996665,1.9445928,-4.189613
1.442,-23.418297,16.139515,5.7476897,-1.1845753,1.6429297,-4.472068
1.444,-23.321625,16.10155,5.758375,-1.2700806,1.3393552,-4.7542076
1.446,-23.189476,16.028685,5.788487,-1.3558769,1.0365224,-5.0350933
1.448,-23.021042,15.922136,5.8382616,-1.4417012,0.7370627,-5.3138385
1.45,-22.815702,15.783544,5.9074674,-1.5273068,0.44357014,-5.5896063
1.452,-22.572027,15.614326,5.9954705,-1.61246,0.15854073,-5.8616085
1.454,-22.288961,15.416246,6.1012535,-1.6969393,-0.11568427,-6.1291265
1.456,-21.966452,15.191372,6.224132,-1.7804885,-0.37688422,-6.39149
1.458,-21.604034,14.941978,6.3629737,-1.862818,-0.6230335,-6.6481147
1.46,-21.201046,14.67086,6.5166073,-1.9435854,-0.85230017,-6.8984985
1.462,-20.756966,14.380629,6.6840158,-2.0224051,-1.0630884,-7.142235
1.464,-20.27143,14.074453,6.863725,-2.0988364,-1.2540355,-7.379011
1.466,-19.744484,13.755341,7.054281,-2.1724133,-1.4240484,-7.6086617
1.468,-19.17596,13.426454,7.2541847,-2.242652,-1.5722506,-7.831071
1.47,-18.566135,13.0908785,7.4619503,-2.309081,-1.6980593,-8.046248
1.472,-17.915422,12.751744,7.6767974,-2.3712225,-1.8011882,-8.254287
1.474,-17.224506,12.412166,7.8977656,-2.428657,-1.8816109,-8.455339
1.476,-16.494106,12.075177,8.124039,-2.4809985,-1.9395854,-8.64963
1.478,-15.725291,11.74387,8.354618,-2.5279305,-1.975656,-8.837413
1.48,-14.919089,11.42115,8.588907,-2.5691557,-1.990596,-9.019013
1.482,-14.077298,11.110115,8.826274,-2.6044297,-1.9854193,-9.194771
1.484,-13.200566,10.812708,9.066252,-2.6335647,-1.9613152,-9.36508
1.486,-12.291027,10.531637,9.308608,-2.6563926,-1.919569,-9.53037
1.488,-11.350563,10.269442,9.553099,-2.6727736,-1.8615174,-9.691086
1.49,-10.380682,10.028172,9.7993355,-2.6825614,-1.7885766,-9.847721
1.492,-9.383812,9.80994,10.047213,-2.6856415,-1.7022223,-10.000797
1.494,-8.361466,9.616748,10.296572,-2.681911,-1.604002,-10.150866
1.496,-7.3156385,9.45047,10.547042,-2.6712875,-1.495605,-10.298517
1.498,-6.2479258,9.312818,10.79834,-2.653729,-1.3788929,-10.444358
1.5,-5.1601067,9.205473,11.050314,-2.629229,-1.2559505,-10.588997
1.502,-4.053962,9.129829,11.302772,-2.597858,-1.1291404,-10.733019
1.504,-2.9308329,9.08741,11.55568,-2.559753,-1.0010724,-10.876976
1.506,-1.7919061,9.079878,11.808923,-2.515129,-0.8745966,-11.021372
1.508,-0.6380437,9.108641,12.062422,-2.464254,-0.75273657,-11.166643
1.51,0.5298265,9.174903,12.316191,-2.4074597,-0.63862467,-11.313164
1.512,1.7111039,9.28013,12.570303,-2.3451428,-0.53534794,-11.46125
1.514,2.9053574,9.425517,12.825259,-2.277779,-0.44594383,-11.611084
1.516,4.112808,9.611842,13.081637,-2.2059226,-0.37324047,-11.762707
1.518,5.333687,9.839661,13.339935,-2.1302047,-0.3197813,-11.916138
1.52,6.5680065,10.109661,13.601458,-2.0513306,-0.2878704,-12.071272
1.522,7.816114,10.422242,13.867669,-1.970072,-0.27949953,-12.227928
1.524,9.078606,10.777189,14.138969,-1.8872724,-0.29633427,-12.385839
1.526,10.355667,11.174479,14.415333,-1.8038307,-0.3397689,-12.544648
1.528,11.64816,11.612864,14.697419,-1.7206641,-0.41092443,-12.703926
1.53,12.955627,12.092085,14.987113,-1.6387241,-0.51065874,-12.863157
1.532,14.279756,12.609928,15.2873955,-1.5589201,-0.6395488,-13.02175
1.534,15.621348,13.165146,15.59988,-1.4821429,-0.7979107,-13.179049
1.536,16.981764,13.7549,15.925159,-1.4092016,-0.98575544,-13.334369
1.538,18.36205,14.376814,16.263775,-1.3408406,-1.2027779,-13.487003
1.54,19.762808,15.028099,16.617968,-1.2776945,-1.4483867,-13.636203
1.542,21.183765,15.705447,16.99006,-1.2203288,-1.7216477,-13.781287
1.544,22.624882,16.406216,17.38107,-1.1692307,-2.0212889,-13.921605
1.546,24.090963,17.123241,17.791092,-1.1247423,-2.3456936,-14.056526
1.548,25.579493,17.852745,18.220688,-1.0871058,-2.6930416,-14.185444
1.55,27.084896,18.596836,18.674334,-1.0564303,-3.0613604,-14.307812
1.552,28.613098,19.346764,19.1526,-1.0327172,-3.4485025,-14.423083
1.554,30.163792,20.10112,19.653856,-1.015841,-3.8522313,-14.530707
1.556,31.736334,20.856226,20.178152,-1.0056043,-4.2702913,-14.630072
1.558,33.330723,21.607162,20.725327,-1.0017266,-4.7005496,-14.720526
1.56,34.945263,22.349571,21.296103,-1.0038605,-5.140895,-14.801382
1.562,36.577106,23.079845,21.889812,-1.0116005,-5.5893307,-14.871922
1.564,38.224117,23.794064,22.50566,-1.0244489,-6.0438743,-14.931311
1.566,39.88442,24.488194,23.14267,-1.0418339,-6.5026703,-14.978587
1.568,41.5551,25.158741,23.799126,-1.0631471,-6.9638743,-15.012745
1.57,43.232697,25.801731,24.472927,-1.0877595,-7.425855,-15.032818
1.572,44.913418,26.413666,25.161152,-1.115077,-7.887029,-15.037714
1.574,46.593708,26.990015,25.86055,-1.1444259,-8.345825,-15.026419
1.576,48.268867,27.527277,26.568108,-1.1750245,-8.800552,-14.997784
1.578,49.933895,28.022282,27.280235,-1.206254,-9.249464,-14.9507
1.58,51.584488,28.471468,27.992897,-1.2374024,-9.691116,-14.884563
1.582,53.216034,28.871681,28.702068,-1.2676635,-10.12351,-14.798528
1.584,54.824482,29.219894,29.403664,-1.2962704,-10.544735,-14.691853
1.586,56.406456,29.513237,30.09338,-1.3224316,-10.953033,-14.564007
1.588,57.9587,29.74904,30.766806,-1.345346,-11.346655,-14.414512
1.59,59.478245,29.92494,31.419262,-1.3642612,-11.723932,-14.243063
1.592,60.962944,30.038853,32.045967,-1.3783455,-12.083321,-14.0495405
1.594,62.41012,30.090302,32.642624,-1.3867114,-12.42362,-13.833986
1.596,63.81904,30.078075,33.20531,-1.3883064,-12.7439375,-13.596545
1.598,65.18885,30.0022,33.730045,-1.3819695,-13.043652,-13.337544
1.6,66.519,29.86386,34.213326,-1.3664427,-13.322457,-13.057438
1.602,67.809364,29.66518,34.652573,-1.340385,-13.58017,-12.756787
1.604,69.06028,29.408829,35.045967,-1.3024039,-13.816778,-12.436117
1.606,70.27236,29.098824,35.39215,-1.2511265,-14.032513,-12.095886
1.608,71.44628,28.740368,35.690685,-1.1851251,-14.227607,-11.7365265
1.61,72.582924,28.3402,35.941956,-1.1030098,-14.402357,-11.358345
1.612,73.68308,27.906273,36.147774,-1.003443,-14.557152,-10.9615
1.614,74.74745,27.448013,36.310993,-0.88515884,-14.692557,-10.545964
1.616,75.77722,26.97636,36.435677,-0.74700296,-14.809332,-10.111622
1.618,76.774055,26.50353,36.526863,-0.58796096,-14.9085045,-9.6583805
1.62,77.74055,26.043205,36.589966,-0.40718162,-14.991263,-9.186202
1.622,78.67922,25.610256,36.63137,-0.20401001,-15.059084,-8.695131
1.624,79.59253,25.221354,36.657898,0.022048593,-15.1136,-8.1853
1.626,80.482414,24.8952,36.677643,0.2712438,-15.156695,-7.657037
1.628,81.35095,24.651295,36.70009,0.5435817,-15.190365,-7.1108294
1.63,82.20124,24.509598,36.734093,0.83885443,-15.216774,-6.5474405
1.632,83.03503,24.491104,36.789017,1.1568412,-15.238023,-5.967636
1.634,83.85525,24.6171,36.875362,1.4970728,-15.255957,-5.3719835
1.636,84.665634,24.908852,37.00379,1.8589773,-15.272804,-4.7615433
1.638,85.470505,25.387684,37.18293,2.2420242,-15.290498,-4.137327
1.64,86.27649,26.07103,37.420166,2.6456132,-15.310807,-3.5002303
1.642,87.08856,26.981321,37.72477,3.0691917,-15.335511,-2.8512416
1.644,87.90607,28.144629,38.102997,3.5121932,-15.366251,-2.191287
1.646,88.72363,29.591522,38.562084,3.9740376,-15.40447,-1.52123
1.648,89.55862,31.323885,39.10906,4.4541683,-15.451225,-0.8419113
1.65,90.42529,33.33831,39.749493,4.9521055,-15.507161,-0.15405881
1.652,91.33232,35.66579,40.495132,5.467541,-15.5723095,0.5418206
1.654,92.28296,38.33218,41.33938,6.000318,-15.646035,1.2454706
1.656,93.296814,41.351532,42.277695,6.5503883,-15.727133,1.9569576
1.658,94.376724,44.759632,43.300163,7.1178155,-15.813547,2.6767995
1.66,95.53,48.54088,44.3881,7.7027016,-15.902501,3.4060502
1.662,96.7419,52.701973,45.540718,8.305098,-15.990572,4.1463
1.664,98.01056,57.231396,46.77538,8.924987,-16.07347,4.899649
1.666,99.34534,62.109127,48.114044,9.562186,-16.145998,5.6687884
1.668,100.73442,67.35132,49.524666,10.216355,-16.202196,6.456816
1.67,102.148155,72.996994,50.939106,10.886885,-16.23536,7.26733
1.672,103.572624,79.01097,52.39634,11.5728655,-16.23809,8.10436
1.674,104.975876,85.336914,53.972267,12.273401,-16.201746,8.971577
1.676,106.40763,91.91663,55.700256,12.9873905,-16.116966,9.871891
1.678,107.966866,98.70526,57.562473,13.713587,-15.973546,10.809496
1.68,109.70435,105.700005,59.490585,14.451588,-15.759074,11.790802
1.682,111.63428,112.92889,61.37868,15.202581,-15.457896,12.822178
1.684,113.704605,120.36403,63.2392,15.968573,-15.052353,13.910061
1.686,115.927895,127.93616,65.04754,16.750963,-14.523423,15.062683
1.688,118.30856,135.53558,66.82015,17.551056,-13.848389,16.288685
1.69,120.82933,143.0765,68.60925,18.368008,-13.00207,17.596268
1.692,123.560005,150.46828,70.39195,19.20092,-11.957127,18.991045
1.694,126.51412,157.68427,72.1511,20.05085,-10.681694,20.474396
1.696,129.72968,164.69466,73.909454,20.916452,-9.143564,22.04504
1.698,133.23553,171.46562,75.67247,21.79203,-7.3069234,23.69963
1.7,137.06996,177.92384,77.4162,22.66457,-5.14303,25.418415
1.702,141.2321,183.93996,79.09111,23.512833,-2.6307635,27.173302
1.704,145.71663,189.40816,80.64871,24.31018,0.2435894,28.931116
1.706,150.5044,194.25099,82.0512,25.025993,3.484686,30.642986
1.708,155.59796,198.40427,83.26854,25.631119,7.079038,32.254974
1.71,161.01422,201.79105,84.26987,26.097534,10.997017,33.70687
1.712,166.73344,204.38293,84.99988,26.398453,15.196533,34.931175
1.714,172.74931,206.16017,85.381226,26.510403,19.622673,35.86132
1.716,179.04288,207.10712,85.33418,26.41265,24.201717,36.452785
1.718,185.56436,207.22691,84.78578,26.090973,28.824062,36.662224
1.72,192.26,206.51926,83.66849,25.546635,33.37302,36.462486
1.722,199.07132,204.99936,81.914085,24.801495,37.736816,35.869324
1.724,205.92648,202.7016,79.46767,23.893074,41.794,34.920532
1.726,212.74196,199.66324,76.285255,22.874517,45.42748,33.657707
1.728,219.41954,195.92899,72.334114,21.805553,48.534447,32.112183
1.73,225.84747,191.55812,67.597275,20.741621,51.02923,30.30126
1.732,231.91382,186.61232,62.07267,19.728443,52.84939,28.229015
1.734,237.51462,181.14494,55.780525,18.798895,53.95128,25.902233
1.736,242.52902,175.22256,48.7683,17.967688,54.316677,23.33456
1.738,246.84882,168.9153,41.111603,17.230637,53.96199,20.541046
1.74,250.37111,162.29015,32.905598,16.562899,52.92781,17.538977
1.742,253.00406,155.4084,24.253845,15.926934,51.278484,14.352335
1.744,254.68542,148.33,15.272293,15.283184,49.101852,11.012148
1.746,255.37273,141.11015,6.0952454,14.589673,46.495716,7.5512447
1.748,255.03885,133.79459,-3.1190338,13.80438,43.55808,4.004033
1.75,253.67838,126.42609,-12.196411,12.891672,40.383293,0.41284657
1.752,251.301,119.05014,-20.954765,11.822297,37.049744,-3.1665459
1.754,247.9469,111.711914,-29.212059,10.572625,33.620544,-6.6547394
1.756,243.68549,104.45617,-36.800705,9.122723,30.13502,-9.960262
1.758,238.5859,97.35924,-43.572464,7.4542255,26.606398,-12.980448
1.76,232.74509,90.50096,-49.40026,5.5534706,23.025867,-15.598252
1.762,226.28088,83.926636,-54.179924,3.4133968,19.374876,-17.703577
1.764,219.32437,77.68682,-57.812943,1.0397501,15.628048,-19.20119
1.766,211.98962,71.84703,-60.23606,-1.5447836,11.760504,-20.022839
1.768,204.4145,66.44824,-61.416843,-4.2997894,7.7612677,-20.14405
1.77,196.72415,61.56977,-61.354626,-7.166409,3.6470835,-19.597511
1.772,189.04257,57.258812,-60.093872,-10.074654,-0.52352536,-18.445639
1.774,181.47217,53.552612,-57.7168,-12.955049,-4.6800294,-16.790596
1.776,174.09157,50.48143,-54.32774,-15.740025,-8.739607,-14.775433
1.778,166.98555,48.03423,-50.0053,-18.360031,-12.589072,-12.5414
1.78,160.23285,46.1847,-44.837677,-20.749039,-16.10646,-10.208125
1.782,153.87268,44.9698,-39.0345,-22.842712,-19.172771,-7.8691816
1.784,147.94046,44.41342,-32.819435,-24.57991,-21.677273,-5.600526
1.786,142.38647,44.506966,-26.355118,-25.911818,-23.529842,-3.4658318
1.788,137.13974,45.204292,-19.758862,-26.808064,-24.665195,-1.5237236
1.79,132.19653,46.41216,-13.121662,-27.255981,-25.055832,0.17982864
1.792,127.58298,48.021206,-6.5314293,-27.261354,-24.717941,1.6189566
1.794,123.35988,49.9847,-0.19483566,-26.84649,-23.699923,2.7860098
1.796,119.49986,52.278915,5.7448845,-26.054878,-22.083689,3.6887846
1.798,115.97865,54.89098,11.131378,-24.948639,-19.977629,4.3490524
1.8,112.782776,57.76072,15.8189125,-23.598581,-17.500948,4.8030467
1.802,109.82143,60.821964,19.767895,-22.07807,-14.776927,5.0945697
1.804,107.07373,63.955654,22.94513,-20.458244,-11.925526,5.265691
1.806,104.49851,67.071495,25.302624,-18.803774,-9.054766,5.3550415
1.808,102.07057,70.10444,26.837753,-17.169823,-6.254937,5.3976917
1.81,99.76088,73.0371,27.590084,-15.601092,-3.5962696,5.4205728
1.812,97.57608,75.893486,27.624481,-14.132175,-1.1285028,5.4381065
1.814,95.51399,78.65726,27.000072,-12.788844,1.1180754,5.452423
1.816,93.571884,81.28607,25.767073,-11.589613,3.129109,5.455269
1.818,91.71705,83.73765,23.976397,-10.545997,4.902194,5.43162
1.82,89.90576,85.9937,21.688442,-9.664657,6.442546,5.365106
1.822,88.12921,88.0052,18.989763,-8.948792,7.7589073,5.2429304
1.824,86.35905,89.74194,15.980173,-8.3984375,8.860738,5.058682
1.826,84.57684,91.192314,12.750195,-8.008985,9.755903,4.814042
1.828,82.78515,92.346924,9.376501,-7.769797,10.452717,4.518925
1.83,80.97683,93.21685,5.9283495,-7.6675377,10.960595,4.189796
1.832,79.14006,93.810745,2.4751253,-7.687626,11.28754,3.8466277
1.834,77.26914,94.13404,-0.9243283,-7.814934,11.441518,3.5085304
1.836,75.36165,94.20233,-4.215544,-8.035249,11.43082,3.191365
1.838,73.42177,94.03377,-7.3463364,-8.335302,11.264149,2.9071698
1.84,71.45809,93.640945,-10.270115,-8.701654,10.951683,2.662257
1.842,69.47453,93.04231,-12.943954,-9.120971,10.505531,2.4572191
1.844,67.468735,92.26673,-15.334688,-9.580581,9.939843,2.290448
1.846,65.45711,91.33051,-17.420979,-10.068373,9.270668,2.159834
1.848,63.44673,90.25041,-19.191265,-10.572625,8.515643,2.0624259
1.85,61.44655,89.04823,-20.63442,-11.081895,7.693691,1.9951941
1.852,59.465973,87.7502,-21.735186,-11.5851555,6.8245907,1.9561107
1.854,57.500374,86.381226,-22.484243,-12.071799,5.92863,1.9445477
1.856,55.54852,84.96745,-22.88657,-12.531801,5.0260944,1.960444
1.858,53.616486,83.53917,-22.9654,-12.956112,4.136366,2.002905
1.86,51.710815,82.12313,-22.75365,-13.3370495,3.277166,2.069602
1.862,49.843864,80.733765,-22.289698,-13.6684475,2.464291,2.15738
1.864,48.02257,79.38101,-21.606659,-13.945633,1.7113638,2.2628696
1.866,46.245605,78.07398,-20.732374,-14.165542,1.0292859,2.382526
1.868,44.512035,76.815155,-19.69155,-14.326517,0.42610407,2.512391
1.87,42.82002,75.60176,-18.509047,-14.4282055,-0.09300184,2.6480672
1.872,41.169434,74.43375,-17.215223,-14.471355,-0.52545214,2.7850175
1.874,39.560707,73.316986,-15.842297,-14.457669,-0.8710842,2.918923
1.876,37.998337,72.25568,-14.420925,-14.38958,-1.1318173,3.0460205
1.878,36.48777,71.251465,-12.979042,-14.270194,-1.3113284,3.163269
1.88,35.03302,70.30635,-11.541653,-14.103132,-1.4147177,3.2684069
1.882,33.636948,69.42369,-10.132563,-13.892483,-1.4481647,3.359991
1.884,32.30198,68.60715,-8.774326,-13.642726,-1.4185829,3.4374146
1.886,31.029356,67.85503,-7.4869175,-13.358671,-1.3333616,3.5006518
1.888,29.817951,67.157906,-6.2850685,-13.045385,-1.2001424,3.5501347
1.89,28.665794,66.50239,-5.1792355,-12.708198,-1.0266619,3.5866776
1.892,27.5711,65.876015,-4.177515,-12.352525,-0.8205917,3.6113648
1.894,26.532326,65.26953,-3.2847214,-11.983794,-0.5894773,3.6255348
1.896,25.548687,64.67734,-2.502798,-11.6073475,-0.34061337,3.6307166
1.898,24.619732,64.096306,-1.8305397,-11.228287,-0.08096218,3.6285534
1.9,23.745287,63.52552,-1.2651634,-10.851419,0.18292606,3.6208217
1.902,22.924881,62.964947,-0.8019886,-10.481085,0.44505847,3.60934
1.904,22.15812,62.41517,-0.43510056,-10.121115,0.7001636,3.5959854
1.906,21.4443,61.87687,-0.15748405,-9.774727,0.9437734,3.582628
1.908,20.78207,61.35008,0.03863144,-9.444463,1.1723809,3.5710402
1.91,20.169754,60.83473,0.16200447,-9.13218,1.3835275,3.5628934
1.912,19.604918,60.33123,0.2215519,-8.8390255,1.5758394,3.5596535
1.914,19.085117,59.83969,0.22673702,-8.56549,1.7489209,3.5625384
1.916,18.607273,59.36076,0.18679237,-8.311445,1.9032687,3.5724626
1.918,18.168396,58.895596,0.1109972,-8.076284,2.040122,3.590027
1.92,17.76509,58.44558,0.008105278,-7.8590074,2.161335,3.6154635
1.922,17.394127,58.012146,-0.1137867,-7.658344,2.2692099,3.6486304
1.924,17.052292,57.596405,-0.24773693,-7.4728737,2.3663273,3.6890016
1.926,16.73639,57.199142,-0.38781738,-7.301116,2.455388,3.7356844
1.928,16.443283,56.82038,-0.5292883,-7.141656,2.5391076,3.7874413
1.93,16.16971,56.459457,-0.66838264,-6.9932075,2.6201127,3.8427453
1.932,15.91221,56.115036,-0.8019953,-6.8546104,2.700858,3.899928
1.934,15.667607,55.78481,-0.927989,-6.724865,2.7836025,3.9572277
1.936,15.433122,55.4656,-1.0449123,-6.603121,2.8703446,4.0129185
1.938,15.205963,55.153614,-1.1520262,-6.488637,2.9628181,4.0654125
1.94,14.983814,54.844547,-1.2494874,-6.3806844,3.0624657,4.1133575
1.942,14.764296,54.5337,-1.3378105,-6.2785254,3.1704528,4.1557007
1.944,14.545492,54.216072,-1.4179478,-6.1813965,3.2876484,4.1916547
1.946,14.325592,53.88677,-1.4914227,-6.08851,3.4146833,4.2207026
1.948,14.103079,53.54102,-1.5604119,-5.9990396,3.551904,4.2425227
1.95,13.87672,53.17466,-1.627485,-5.912202,3.699407,4.2569757
1.952,13.645454,52.783955,-1.6953721,-5.8272724,3.8570282,4.264059
1.954,13.4085,52.365746,-1.7670019,-5.743605,4.0243835,4.26388
1.956,13.165525,51.917576,-1.8452026,-5.6607237,4.2008686,4.256632
1.958,12.916219,51.437843,-1.9326618,-5.5782623,4.3856807,4.2425933
1.96,12.660636,50.925602,-2.0321267,-5.496005,4.5778775,4.2221656
1.962,12.398607,50.381054,-2.1466234,-5.413866,4.7763867,4.1958776
1.964,12.130751,49.805027,-2.2794025,-5.33184,4.9800587,4.1643724
1.966,11.857504,49.19932,-2.4339051,-5.249986,5.1877313,4.1284084
1.968,11.579447,48.566555,-2.6133525,-5.1683726,5.3982496,4.088799
1.97,11.29705,47.91019,-2.8207645,-5.087094,5.610487,4.046427
1.972,11.011135,47.234486,-3.0588408,-5.0062366,5.823379,4.002172
1.974,10.722181,46.54399,-3.33033,-4.9258904,6.0359163,3.9568992
1.976,10.431089,45.843685,-3.6375937,-4.8461294,6.247122,3.9114006
1.978,10.138693,45.138367,-3.9826427,-4.767046,6.45604,3.866395
1.98,9.845701,44.433266,-4.367154,-4.688781,6.66169,3.822465
1.982,9.552737,43.733147,-4.7924395,-4.6114655,6.863005,3.7800522
1.984,9.260378,43.042686,-5.2596626,-4.5352793,7.058785,3.7394466
1.986,8.969543,42.365845,-5.7691317,-4.46045,7.2476835,3.7007468
1.988,8.681009,41.706154,-6.320656,-4.387248,7.4281826,3.663878
1.99,8.395485,41.06653,-6.913554,-4.3159914,7.5986447,3.6285532
1.992,8.113714,40.44921,-7.5465336,-4.2470684,7.757326,3.5942461
1.994,7.836483,39.855568,-8.217455,-4.180939,7.9024067,3.5602098
1.996,7.564542,39.28601,-8.923872,-4.118108,8.03206,3.5255241
1.998,7.2984724,38.74031,-9.662789,-4.059103,8.144478,3.489113
2,7.038825,38.21748,-10.43071,-4.0044665,8.2379055,3.4497695
2.002,6.7861557,37.7157,-11.223531,-3.9547255,8.310744,3.4062574
2.004,6.541044,37.232418,-12.036724,-3.9103534,8.361599,3.3573408
2.006,6.303995,36.764343,-12.865362,-3.8717263,8.389283,3.301861
2.008,6.0752783,36.30755,-13.704089,-3.8391666,8.392869,3.2387955
2.01,5.855323,35.857918,-14.547501,-3.812858,8.37169,3.167306
2.012,5.644315,35.41111,-15.389961,-3.79286,8.32541,3.0867472
2.014,5.442232,34.962517,-16.225641,-3.779085,8.253968,2.99671
2.016,5.248823,34.50786,-17.048868,-3.7713172,8.157574,2.8969908
2.018,5.063983,34.04289,-17.854311,-3.7692,8.036647,2.7876234
2.02,4.887224,33.56378,-18.636715,-3.7722178,7.89186,2.66887
2.022,4.717903,33.066998,-19.391201,-3.779745,7.724074,2.5411694
2.024,4.5554028,32.549534,-20.113361,-3.7910452,7.5343285,2.405134
2.026,4.399004,32.008778,-20.799358,-3.8052762,7.323872,2.2615318
2.028,4.2475624,31.442755,-21.445877,-3.821545,7.0941467,2.1112828
2.03,4.099995,30.850163,-22.050266,-3.8389068,6.8468347,1.9554052
2.032,3.9550705,30.230335,-22.61045,-3.8564003,6.5838046,1.7950048
2.034,3.8115282,29.583353,-23.124876,-3.8730865,6.3071547,1.6312349
2.036,3.6682224,28.909859,-23.592613,-3.888073,6.019156,1.4652638
2.038,3.5238585,28.211094,-24.013268,-3.9004922,5.722222,1.2982423
2.04,3.377542,27.488762,-24.38711,-3.9095254,5.418808,1.1312847
2.042,3.2284636,26.74501,-24.714956,-3.9143767,5.1113486,0.9654703
2.044,3.0759063,25.982288,-24.99808,-3.9142916,4.8021793,0.80179334
2.046,2.919417,25.203522,-25.237885,-3.9085112,4.493453,0.6411388
2.048,2.7587242,24.411636,-25.436367,-3.8963032,4.18712,0.48427176
2.05,2.593676,23.609877,-25.595734,-3.8769333,3.8848827,0.3318119
2.052,2.4246783,22.801506,-25.718334,-3.8497202,3.5881653,0.18423212
2.054,2.2523108,21.98979,-25.80652,-3.8140547,3.2981267,0.0418607
2.056,2.0772424,21.177929,-25.862604,-3.7694337,3.0156379,-0.09510374
2.058,1.9005942,20.368998,-25.888708,-3.7154994,2.741295,-0.2265786
2.06,1.7236421,19.565886,-25.8869,-3.6520605,2.475464,-0.35256386
2.062,1.5479119,18.771284,-25.859232,-3.5791163,2.218326,-0.47311878
2.064,1.3746679,17.987808,-25.807886,-3.4968529,1.9699057,-0.5883267
2.066,1.2051249,17.217842,-25.734928,-3.405676,1.7300797,-0.69826216
2.068,1.0409427,16.463493,-25.642332,-3.306165,1.4986593,-0.8030107
2.07,0.88329625,15.726731,-25.531591,-3.1990118,1.2754335,-0.90263367
2.072,0.73402023,15.008947,-25.403963,-3.0850391,1.0601658,-0.9972061
2.074,0.5942614,14.311686,-25.260374,-2.9651425,0.85256743,-1.0868498
2.076,0.4653108,13.635853,-25.101404,-2.8402271,0.652375,-1.1717114
2.078,0.3480916,12.982408,-24.927536,-2.711199,0.45933777,-1.2520186
2.08,0.2437849,12.351938,-24.73922,-2.5789037,0.27317852,-1.3280811
2.082,0.15283155,11.74485,-24.536697,-2.4440913,0.09362978,-1.4003102
2.084,0.07577324,11.1613865,-24.32028,-2.307422,-0.07958299,-1.4691851
2.086,0.013021946,10.601652,-24.090052,-2.1693964,-0.24671054,-1.5352366
2.088,-0.03539896,10.065779,-23.846273,-2.0303786,-0.4079994,-1.5990036
2.09,-0.06929898,9.553531,-23.588997,-1.8906,-0.5636766,-1.6610303
2.092,-0.088707924,9.064777,-23.31839,-1.750176,-0.713939,-1.721836
2.094,-0.09373474,8.599283,-23.034237,-1.6091045,-0.8589233,-1.7818699
2.096,-0.08477163,8.156727,-22.736774,-1.4673018,-0.9987014,-1.8415027
2.098,-0.062251806,7.7369275,-22.426102,-1.3245951,-1.1332371,-1.9009814
2.1,-0.026508093,7.339627,-22.102262,-1.1807504,-1.2623903,-1.9604264
2.102,0.021947384,6.964417,-21.76545,-1.0354898,-1.3859204,-2.0198345
2.104,0.08248186,6.6111,-21.416256,-0.8884978,-1.5034809,-2.079105
2.106,0.15447164,6.279628,-21.055088,-0.7394214,-1.614671,-2.1380606
2.108,0.23737979,5.9696503,-20.682598,-0.58789927,-1.7190951,-2.1964736
2.11,0.330621,5.680869,-20.299559,-0.43360955,-1.8163879,-2.2541351
2.112,0.43366218,5.4130745,-19.906527,-0.27626342,-1.9062873,-2.3108506
2.114,0.54567003,5.1659265,-19.504204,-0.11566063,-1.9886994,-2.36649
2.116,0.6658783,4.9391847,-19.093117,0.048283935,-2.0637066,-2.421016
2.118,0.7935946,4.732773,-18.674072,0.21551567,-2.1315866,-2.4744902
2.12,0.9280336,4.5462365,-18.247543,0.3858613,-2.1928146,-2.5270677
2.122,1.068507,4.3791733,-17.814293,0.5590263,-2.248018,-2.578966
2.124,1.2142282,4.2311068,-17.374939,0.73461694,-2.2979002,-2.6304595
2.126,1.3647628,4.101447,-16.930094,0.9121794,-2.3431852,-2.6818259
2.128,1.5194485,3.9894671,-16.479958,1.0912279,-2.3845644,-2.7333212
2.13,1.677571,3.894473,-16.024975,1.2712828,-2.422646,-2.7851644
2.132,1.8383737,3.8156748,-15.565343,1.4519031,-2.457874,-2.837519
2.134,2.0012712,3.752039,-15.101288,1.6326928,-2.490529,-2.890477
2.136,2.1655939,3.7027464,-14.6330185,1.8133256,-2.5207188,-2.9440491
2.138,2.33077,3.6667008,-14.160686,1.9935836,-2.548354,-2.9981923
2.14,2.4960425,3.6427884,-13.684413,2.1733308,-2.5731876,-3.052806
2.142,2.6608865,3.6299095,-13.204409,2.3525524,-2.5948105,-3.107758
2.144,2.8246312,3.6269054,-12.720919,2.5313342,-2.6126864,-3.1628628
2.146,2.9865713,3.6326108,-12.234474,2.7098553,-2.626204,-3.2179177
2.148,3.1462698,3.6459434,-11.745483,2.888386,-2.63472,-3.2727349
2.15,3.3030207,3.665907,-11.254349,3.0672598,-2.6375816,-3.3271155
2.152,3.4563076,3.69169,-10.761962,3.246838,-2.6341982,-3.3808813
2.154,3.6058078,3.7224758,-10.269217,3.4274814,-2.6240616,-3.4338777
2.156,3.7510436,3.7573037,-9.777292,3.609533,-2.6067817,-3.4859545
2.158,3.8917377,3.79577,-9.2874565,3.7932608,-2.5821087,-3.536955
2.16,4.027789,3.8373091,-8.80106,3.9788742,-2.5499392,-3.586717
2.162,4.15895,3.8816528,-8.319602,4.1665034,-2.5102737,-3.6350644
2.164,4.285141,3.9286258,-7.844673,4.3562126,-2.463249,-3.6817968
2.166,4.4066763,3.9782326,-7.3779306,4.5479474,-2.4091182,-3.7266612
2.168,4.5236034,4.030496,-6.920921,4.741582,-2.3482318,-3.7693467
2.17,4.636202,4.0856085,-6.4751115,4.9369063,-2.2810616,-3.8095133
2.172,4.744779,4.143973,-6.0418873,5.133636,-2.2081692,-3.8467968
2.174,4.8497806,4.2060323,-5.622432,5.3314366,-2.1301851,-3.8808362
2.176,4.951685,4.2723207,-5.217791,5.5299425,-2.0478182,-3.9113142
2.178,5.0509377,4.3436074,-4.8291664,5.728776,-1.9618516,-3.9379241
2.18,5.148237,4.4205546,-4.457382,5.9275503,-1.8730708,-3.9604197
2.182,5.244125,4.504145,-4.103204,6.1258917,-1.7822378,-3.978612
2.184,5.339422,4.595089,-3.7671504,6.323441,-1.690103,-3.992378
2.186,5.434679,4.69449,-3.4495535,6.5198717,-1.5973924,-4.001628
2.188,5.530551,4.8033466,-3.1504316,6.7148566,-1.5047952,-4.0062985
2.19,5.6276827,4.922671,-2.8697176,6.908063,-1.4129621,-4.0063205
2.192,5.7268667,5.053446,-2.6071112,7.0991435,-1.3225493,-4.0016375
2.194,5.828727,5.1967425,-2.361947,7.2877445,-1.2342106,-3.9922175
2.196,5.933864,5.3534403,-2.13362,7.473473,-1.1486582,-3.9780388
2.198,6.0428743,5.5243044,-1.9211675,7.655939,-1.0666516,-3.959131
2.2,6.1564097,5.7100196,-1.7237275,7.8346972,-0.9890263,-3.9355605
2.202,6.27503,5.91133,-1.539964,8.009311,-0.9166793,-3.9074676
2.204,6.3991566,6.1288323,-1.3685983,8.179333,-0.8505683,-3.8750594
2.206,6.529397,6.363039,-1.2082797,8.344321,-0.7916821,-3.838607
2.208,6.6661625,6.614285,-1.0576794,8.503857,-0.74100745,-3.7984648
2.21,6.810184,6.882763,-0.91553146,8.6575575,-0.69950974,-3.755019
2.212,6.96155,7.168691,-0.7804178,8.805056,-0.6680949,-3.7086964
2.214,7.120913,7.4720974,-0.65102947,8.946038,-0.6475712,-3.6599464
2.216,7.288583,7.7926083,-0.5261924,9.080226,-0.6386502,-3.609203
2.218,7.4649987,8.130007,-0.40465283,9.20736,-0.6418873,-3.5569103
2.22,7.6505013,8.483861,-0.28524232,9.327272,-0.6576814,-3.5035405
2.222,7.8452554,8.853693,-0.16720343,9.439785,-0.6862675,-3.4495769
2.224,8.049643,9.23912,-0.049706936,9.544781,-0.72770524,-3.3955164
2.226,8.263759,9.639445,0.06772494,9.642133,-0.78193355,-3.3418984
2.228,8.488082,10.053716,0.18578696,9.731703,-0.8487547,-3.289297
2.23,8.722594,10.481251,0.30490375,9.813349,-0.9278749,-3.2382917
2.232,8.967497,10.92106,0.42560673,9.88692,-1.0188739,-3.1894798
2.234,9.222939,11.372204,0.54838896,9.952291,-1.1212826,-3.1434436
2.236,9.488655,11.833757,0.67361736,10.009357,-1.234564,-3.1007433
2.238,9.764645,12.304798,0.8014889,10.058058,-1.3581401,-3.0618284
2.24,10.050897,12.784065,0.9322839,10.098387,-1.4913658,-3.0270689
2.242,10.347169,13.270555,1.0661626,10.130384,-1.6335537,-2.9966927
2.244,10.653179,13.763422,1.2035718,10.154174,-1.7839942,-2.9708054
2.246,10.968477,14.261721,1.34479,10.169908,-1.9419456,-2.9493074
2.248,11.29279,14.7645,1.4902458,10.177828,-2.10668,-2.931925
2.25,11.625745,15.270705,1.6403456,10.178206,-2.277455,-2.91822
2.252,11.966844,15.779411,1.7956495,10.17137,-2.4535618,-2.907678
2.254,12.315535,16.2896,1.9566574,10.157617,-2.6343398,-2.8997798
2.256,12.67145,16.800354,2.124115,10.137189,-2.8192196,-2.8940654
2.258,13.0338955,17.310696,2.298524,10.110249,-3.0077355,-2.8902187
2.26,13.402376,17.819479,2.4803076,10.076852,-3.1995666,-2.8880587
2.262,13.776102,18.325558,2.6703253,10.036953,-3.3945427,-2.8875697
2.264,14.154638,18.827765,2.8691397,9.990431,-3.5926468,-2.8889241
2.266,14.537435,19.324917,3.0774841,9.937093,-3.7939956,-2.892456
2.268,14.924018,19.815416,3.2959204,9.876726,-3.998843,-2.898622
2.27,15.313807,20.297771,3.5247707,9.809081,-4.2075524,-2.90795
2.272,15.706348,20.770363,3.7644958,9.733955,-4.4205694,-2.920991
2.274,16.10118,21.231628,4.0153255,9.651163,-4.6383963,-2.9382982
2.276,16.498013,21.679718,4.2775507,9.560548,-4.861532,-2.9604096
2.278,16.896534,22.112701,4.5512457,9.461989,-5.0904784,-2.987832
2.28,17.296606,22.52823,4.8362064,9.355381,-5.325676,-3.0209975
2.282,17.697891,22.923752,5.1322556,9.240628,-5.567546,-3.0602825
2.284,18.09998,23.29702,5.438881,9.11764,-5.8163824,-3.1060097
2.286,18.502506,23.645815,5.755562,8.986319,-6.0723963,-3.1584244
2.288,18.905205,23.967741,6.0816164,8.846584,-6.3356385,-3.217666
2.29,19.30766,24.260712,6.4162683,8.6983595,-6.6060095,-3.2837663
2.292,19.709465,24.522568,6.7584734,8.541605,-6.883239,-3.3567073
2.294,20.110102,24.75103,7.1069098,8.376348,-7.1668444,-3.4363534
2.296,20.50898,24.943962,7.4601116,8.2026825,-7.456137,-3.5225155
2.298,20.905563,25.099152,7.816517,8.020761,-7.750221,-3.6148837
2.3,21.299109,25.214813,8.174535,7.8308377,-8.047995,-3.713108
2.302,21.68875,25.289368,8.532404,7.633234,-8.348132,-3.816815
2.304,22.073542,25.32119,8.888188,7.4283743,-8.649187,-3.9256465
2.306,22.452295,25.30904,9.239948,7.216778,-8.949569,-4.0392575
2.308,22.823828,25.251858,9.585449,6.9990807,-9.2476015,-4.157351
2.31,23.186914,25.148788,9.922527,6.776004,-9.54155,-4.2796626
2.312,23.540188,24.99898,10.249029,6.548298,-9.82967,-4.4059772
2.314,23.881733,24.802137,10.562757,6.3167343,-10.110267,-4.5361547
2.316,24.209513,24.558233,10.861538,6.082105,-10.381715,-4.670107
2.318,24.521736,24.267612,11.143171,5.845189,-10.642509,-4.8077345
2.32,24.81607,23.930994,11.405556,5.6067114,-10.891245,-4.9488487
2.322,25.090515,23.549671,11.646502,5.367364,-11.1266365,-5.0931897
2.324,25.342419,23.125454,11.863956,5.1277456,-11.347554,-5.2403374
2.326,25.56958,22.660704,12.055898,4.888331,-11.55304,-5.389634
2.328,25.769478,22.157759,12.220486,4.649481,-11.742249,-5.5401087
2.33,25.93969,21.619843,12.35613,4.411424,-11.9145,-5.690569
2.332,26.077826,21.050453,12.461748,4.174241,-12.069262,-5.8395987
2.334,26.18194,20.453426,12.53644,3.937889,-12.206127,-5.9856954
2.336,26.25013,19.833298,12.579723,3.7022681,-12.324804,-6.1273212
2.338,26.280598,19.19485,12.591282,3.4672074,-12.425179,-6.2630086
2.34,26.271866,18.5429,12.571186,3.232544,-12.507307,-6.391424
2.342,26.222683,17.882534,12.519796,2.9981456,-12.571407,-6.5114155
2.344,26.132164,17.21895,12.437836,2.7639966,-12.617789,-6.622028
2.346,25.99995,16.557198,12.326448,2.5301847,-12.646824,-6.722522
2.348,25.82592,15.90225,12.187158,2.2969542,-12.658991,-6.8123593
2.35,25.610409,15.259224,12.021708,2.0646963,-12.654741,-6.891115
2.352,25.353949,14.632751,11.832232,1.8339791,-12.634506,-6.958448
2.354,25.057587,14.02693,11.620751,1.6055198,-12.5987,-7.014088
2.356,24.722626,13.445732,11.389678,1.3801479,-12.547563,-7.0578265
2.358,24.350765,12.892418,11.14124,1.1588278,-12.481125,-7.089443
2.36,23.943851,12.369947,10.877872,0.94262457,-12.399294,-7.1087356
2.362,23.504232,11.880481,10.601862,0.73267984,-12.301769,-7.115519
2.364,23.034393,11.425984,10.315384,0.5302005,-12.18813,-7.109723
2.366,22.536983,11.007645,10.020527,0.33641815,-12.057829,-7.091299
2.368,22.014835,10.626303,9.719223,0.15252304,-11.91032,-7.06026
2.37,21.471254,10.282192,9.413288,-0.020401478,-11.74514,-7.016624
2.372,20.90962,9.974949,9.104211,-0.18143511,-11.561958,-6.9604473
2.374,20.332964,9.704123,8.793378,-0.32980514,-11.360685,-6.8917913
2.376,19.74483,9.468712,8.481739,-0.46495843,-11.141544,-6.81071
2.378,19.14855,9.267424,8.170188,-0.58653975,-10.905035,-6.7172985
2.38,18.5479,9.098647,7.8593435,-0.6944094,-10.651976,-6.611754
2.382,17.946465,8.960583,7.5497503,-0.78862786,-10.38347,-6.4943495
2.384,17.347618,8.851111,7.24182,-0.8694637,-10.100864,-6.365445
2.386,16.7546,8.768257,6.935704,-0.93728566,-9.805668,-6.2255507
2.388,16.171066,8.709865,6.631562,-0.992599,-9.49948,-6.075282
2.39,15.600336,8.674078,6.329876,-1.0359726,-9.183989,-5.915404
2.392,15.045864,8.65877,6.0307484,-1.0680193,-8.860856,-5.746813
2.394,14.510897,8.661547,5.734742,-1.0893763,-8.53169,-5.5705404
2.396,13.997981,8.680042,5.4421177,-1.1007029,-8.198027,-5.387732
2.398,13.509863,8.71189,5.1536045,-1.1026483,-7.8613596,-5.1995964
2.4,13.048965,8.754605,4.8695626,-1.0958848,-7.523114,-5.0073547
2.402,12.617561,8.80594,4.5905666,-1.0810694,-7.184565,-4.812214
2.404,12.217685,8.863937,4.317337,-1.0588777,-6.8468423,-4.6153283
2.406,11.850696,8.926769,4.050641,-1.0299598,-6.5109234,-4.417819
2.408,11.517805,8.992742,3.7912621,-0.99496585,-6.177623,-4.220683
2.41,11.219723,9.06015,3.5398538,-0.95449996,-5.847674,-4.024774
2.412,10.957166,9.127286,3.2972221,-0.90915626,-5.5216503,-3.83086
2.414,10.730379,9.192642,3.0641074,-0.8594876,-5.1999297,-3.6396122
2.416,10.539358,9.254892,2.8413525,-0.805959,-4.8827405,-3.4515548
2.418,10.383605,9.312959,2.629636,-0.74898815,-4.570267,-3.2670777
2.42,10.262433,9.365695,2.4296653,-0.68894607,-4.2626443,-3.0864954
2.422,10.174907,9.412167,2.241822,-0.6261563,-3.9599862,-2.9100292
2.424,10.1200695,9.45146,2.0665123,-0.56086934,-3.6624107,-2.7378526
2.426,10.096734,9.482772,1.9042225,-0.4932945,-3.3701138,-2.5700936
2.428,10.1032295,9.505446,1.7552636,-0.42362875,-3.0833232,-2.4068806
2.43,10.137938,9.518888,1.6198399,-0.35204965,-2.802331,-2.2483854
2.432,10.198988,9.522537,1.4982228,-0.2787484,-2.5275002,-2.0947769
2.434,10.284627,9.515868,1.3903875,-0.2039171,-2.2592416,-1.9462552
2.436,10.39274,9.498585,1.2962725,-0.12775122,-1.9979784,-1.803084
2.438,10.521214,9.470756,1.2153983,-0.05047571,-1.7440416,-1.6655838
2.44,10.667884,9.432165,1.1472712,0.027632594,-1.4976428,-1.5341322
2.442,10.8308935,9.382749,1.0912954,0.1062594,-1.258837,-1.4091443
2.444,11.007683,9.322542,1.0466735,0.18506096,-1.027483,-1.2910428
2.446,11.196205,9.251617,1.0125415,0.26369405,-0.8032273,-1.1801622
2.448,11.394226,9.170337,0.98803914,0.3418158,-0.5855392,-1.0767446
2.45,11.599808,9.078911,0.9722631,0.41913545,-0.37377077,-0.9808893
2.452,11.810899,8.977885,0.96418345,0.49539858,-0.1672318,-0.8925568
2.454,12.025567,8.867685,0.9626943,0.5704212,0.03475964,-0.8115864
2.456,12.241966,8.748768,0.96660125,0.64407504,0.23277585,-0.7377393
2.458,12.45806,8.621803,0.9747832,0.7162898,0.4272316,-0.6707352
2.46,12.672226,8.487175,0.98588467,0.7870226,0.618376,-0.6102979
2.462,12.8828745,8.345525,0.99874234,0.8562437,0.8062614,-0.55618507
2.464,13.088575,8.197534,1.0122856,0.9239072,0.99073863,-0.5082175
2.466,13.287927,8.043729,1.0252582,0.98996,1.1714879,-0.4662625
2.468,13.479644,7.885005,1.0366836,1.0543004,1.3480376,-0.43023175
2.47,13.662564,7.7219815,1.0454882,1.1167662,1.5198072,-0.40006536
2.472,13.8356905,7.5553303,1.050739,1.1771237,1.685909,-0.3758602
2.474,13.998166,7.3856316,1.0515627,1.2353657,1.8461518,-0.35721365
2.476,14.149126,7.213552,1.0472594,1.2913045,1.9997063,-0.34403875
2.478,14.288067,7.0397034,1.0371977,1.3448236,2.1459134,-0.33608806
2.48,14.414112,6.864753,1.0209014,1.3958355,2.2841341,-0.3330748
2.482,14.526852,6.68945,0.9979067,1.4442738,2.4137619,-0.3346691
2.484,14.626244,6.514181,0.96797884,1.4901046,2.5342326,-0.34052324
2.486,14.711922,6.3397517,0.9310032,1.5333304,2.6450782,-0.35030138
2.488,14.783933,6.1666803,0.88699174,1.5739655,2.74592,-0.36369073
2.49,14.842124,5.9955645,0.83606386,1.6120323,2.8364441,-0.38037705
2.492,14.88674,5.8268967,0.77835655,1.6475942,2.9164147,-0.4000287
2.494,14.917986,5.6613374,0.71407664,1.6807262,2.9856796,-0.4223233
2.496,14.936321,5.499348,0.6434916,1.7115426,3.0441706,-0.44696134
2.498,14.941808,5.341571,0.56709754,1.7401563,3.0918965,-0.47366863
2.5,14.934731,5.18841,0.48499703,1.7666728,3.1288989,-0.50219864
2.502,14.915742,5.0404325,0.39761257,1.7911943,3.1552777,-0.532288
2.504,14.885402,4.898135,0.30504394,1.8137947,3.1711872,-0.5636998
2.506,14.844668,4.7619524,0.20762491,1.8345152,3.1768346,-0.59618473
2.508,14.793927,4.6323156,0.10558772,1.8533711,3.172461,-0.6294642
2.51,14.73394,4.509726,-0.00072944164,1.8703239,3.1583502,-0.6632462
2.512,14.665233,4.3945813,-0.11085117,1.8853099,3.1348374,-0.69721687
2.514,14.58844,4.2871466,-0.2245208,1.8982306,3.1022747,-0.7310469
2.516,14.504627,4.1875124,-0.3414638,1.9089833,3.0610523,-0.7643999
2.518,14.414474,4.095704,-0.46146548,1.9174503,3.0115883,-0.7969556
2.52,14.318715,4.011868,-0.5840963,1.9234916,2.9543042,-0.8284299
2.522,14.218063,3.936006,-0.7091807,1.9269996,2.8896155,-0.85856986
2.524,14.113216,3.8682592,-0.8362975,1.9279007,2.8179524,-0.88717866
2.526,14.004836,3.8084579,-0.9650935,1.9261715,2.7398999,-0.91400033
2.528,13.893795,3.7564087,-1.0951236,1.9216554,2.6554265,-0.9392134
2.53,13.780595,3.7120516,-1.2260299,1.9144398,2.565205,-0.96259737
2.532,13.6658945,3.675243,-1.3572778,1.9045522,2.4696033,-0.9841654
2.534,13.5504265,3.6455917,-1.4884936,1.8920591,2.3690112,-1.0039535
2.536,13.434735,3.6228638,-1.6191591,1.8770667,2.2638052,-1.022011
2.538,13.319375,3.60664,-1.748796,1.8596917,2.1544118,-1.0384188
2.54,13.204815,3.5965695,-1.8768542,1.8400693,2.0412621,-1.0532697
2.542,13.091505,3.592194,-2.002925,1.8183453,1.9248021,-1.0666578
2.544,12.979909,3.5930252,-2.1264992,1.7946739,1.8055179,-1.0787026
2.546,12.870477,3.598671,-2.2472248,1.7691847,1.6838892,-1.0895232
2.548,12.763613,3.6086788,-2.3645797,1.7420146,1.5604054,-1.0992315
2.55,12.659639,3.6224961,-2.4781764,1.7132845,1.4355328,-1.107944
2.552,12.558753,3.6396933,-2.5878108,1.6831019,1.3097003,-1.1157546
2.554,12.461202,3.6598535,-2.6931,1.6515803,1.1832957,-1.1227574
2.556,12.367322,3.6824749,-2.7937288,1.6188443,1.0566549,-1.1290334
2.558,12.277287,3.7071617,-2.8894062,1.5850143,0.9300691,-1.1346277
2.56,12.191417,3.7336571,-2.980022,1.5502418,0.80377734,-1.1395763
2.562,12.109748,3.7615128,-3.065321,1.5146984,0.6779623,-1.1439054
2.564,12.032505,3.7903962,-3.145094,1.4785651,0.5527853,-1.1476295
2.566,11.959708,3.8201618,-3.2190924,1.4420316,0.42838052,-1.1507415
2.568,11.891562,3.850453,-3.2873757,1.4053012,0.30488715,-1.15323
2.57,11.828103,3.8812327,-3.349568,1.3685708,0.18244255,-1.1550845
2.572,11.769461,3.912218,-3.4056711,1.332048,0.061183155,-1.1562707
2.574,11.715624,3.9433534,-3.455593,1.2959204,-0.058742374,-1.1567488
2.576,11.66662,3.9744425,-3.499158,1.2603676,-0.17717418,-1.1564841
2.578,11.622529,4.005438,-3.5364146,1.2255672,-0.29396296,-1.1554289
2.58,11.583386,4.0362186,-3.5673075,1.1916741,-0.40896216,-1.153564
2.582,11.549121,4.066773,-3.5918794,1.1588447,-0.5220377,-1.1508645
2.584,11.519757,4.0969934,-3.610177,1.1272265,-0.63309336,-1.1473433
2.586,11.495173,4.1268806,-3.6222703,1.096943,-0.7420525,-1.1430198
2.588,11.475474,4.1562963,-3.6282082,1.0681076,-0.84887934,-1.137948
2.59,11.460531,4.1851745,-3.6282449,1.0408022,-0.9535371,-1.1322154
2.592,11.450146,4.2134237,-3.6224597,1.0151134,-1.0560284,-1.1259227
2.594,11.444099,4.241087,-3.6110287,0.99109805,-1.1563447,-1.119175
2.596,11.442359,4.267965,-3.5942109,0.96881247,-1.2544764,-1.1120912
2.598,11.444684,4.2940392,-3.572302,0.9482931,-1.3503978,-1.1047857
2.6,11.450808,4.3192196,-3.5456235,0.92957604,-1.4440609,-1.0973853
2.602,11.460525,4.3433795,-3.514603,0.9126781,-1.5354075,-1.0899892
2.604,11.473602,4.36643,-3.4795308,0.8975976,-1.6243478,-1.0826793
2.606,11.489866,4.388191,-3.4407926,0.8843424,-1.7107763,-1.0755343
2.608,11.508873,4.4087358,-3.398914,0.8728974,-1.7945849,-1.068614
2.61,11.530409,4.427958,-3.3542244,0.86322194,-1.875669,-1.0619372
2.612,11.554025,4.445751,-3.3071349,0.8552796,-1.9539173,-1.0555131
2.614,11.57939,4.4620953,-3.2580655,0.8490226,-2.029233,-1.0493388
2.616,11.606154,4.4769926,-3.207418,0.84438497,-2.10153,-1.0433882
2.618,11.634015,4.4904475,-3.1556735,0.84132105,-2.1707394,-1.0376062
2.62,11.662557,4.502474,-3.1032624,0.8397814,-2.236817,-1.0319531
2.622,11.691408,4.513043,-3.050529,0.8397176,-2.2997546,-1.0263741
2.624,11.720169,4.522239,-2.997878,0.84110147,-2.3595622,-1.0208144
2.626,11.74854,4.530181,-2.945827,0.8438949,-2.4162824,-1.0152318
2.628,11.776046,4.536975,-2.8945918,0.84808624,-2.4699676,-1.0095925
2.63,11.802553,4.542604,-2.8446116,0.85366476,-2.5206919,-1.0038565
2.632,11.827686,4.5472703,-2.7960367,0.8606185,-2.5685358,-0.99800724
2.634,11.851195,4.5510354,-2.7492666,0.86894894,-2.613575,-0.9920063
2.636,11.872866,4.5541344,-2.7045588,0.8786455,-2.6558862,-0.9858478
2.638,11.892401,4.5567207,-2.6620722,0.8897018,-2.6955209,-0.97950876
2.64,11.909601,4.5589542,-2.6219957,0.9021129,-2.7325194,-0.9729637
2.642,11.924368,4.560871,-2.5846162,0.915871,-2.766914,-0.9661844
2.644,11.9366665,4.562723,-2.5500193,0.9309751,-2.7987354,-0.9591462
2.646,11.9463825,4.564523,-2.5183241,0.9474018,-2.8279994,-0.95181257
2.648,11.953496,4.566478,-2.4896479,0.96514076,-2.8547237,-0.94415736
2.65,11.958084,4.5687175,-2.4641662,0.9841715,-2.8789375,-0.9361547
2.652,11.9601755,4.571377,-2.4420118,1.0044801,-2.9006884,-0.92776
2.654,11.959792,4.5746145,-2.4231586,1.0260394,-2.9200296,-0.9189558
2.656,11.957154,4.5784326,-2.4077563,1.048825,-2.9370403,-0.909726
2.658,11.952308,4.582966,-2.395802,1.0728163,-2.9518242,-0.9000615
2.66,11.945731,4.588681,-2.3873062,1.0979732,-2.964511,-0.88996816
2.662,11.937407,4.5951757,-2.382598,1.1242529,-2.975244,-0.8794527
2.664,11.927615,4.602746,-2.3815699,1.151614,-2.9841917,-0.8685416
2.666,11.916354,4.611562,-2.384221,1.1799914,-2.9915338,-0.8572612
2.668,11.904023,4.621547,-2.3905869,1.2093129,-2.997453,-0.8456341
2.67,11.890788,4.632889,-2.4005609,1.239485,-3.00214,-0.83366334
2.672,11.876979,4.645735,-2.414215,1.2704035,-3.0057898,-0.8213749
2.674,11.862633,4.6601095,-2.4313579,1.3019578,-3.0085886,-0.80875504
2.676,11.848064,4.67599,-2.4520407,1.3340454,-3.0107083,-0.7957983
2.678,11.833469,4.693576,-2.4759586,1.3665311,-3.0123181,-0.7824795
2.68,11.818885,4.7128487,-2.5031252,1.3993046,-3.0135722,-0.76876664
2.682,11.804523,4.733858,-2.5332081,1.4322581,-3.0146306,-0.7546233
2.684,11.790445,4.756582,-2.5660686,1.4652832,-3.0156238,-0.74003375
2.686,11.776899,4.781065,-2.601487,1.4983001,-3.0166996,-0.7249683
2.688,11.763853,4.807184,-2.6391788,1.5312214,-3.017987,-0.709425
2.69,11.751343,4.8350744,-2.6789641,1.5639799,-3.019617,-0.69339883
2.692,11.739424,4.864602,-2.7204957,1.5965171,-3.0217013,-0.67689764
2.694,11.728194,4.8956413,-2.7635107,1.6287785,-3.0243545,-0.6599574
2.696,11.717477,4.9281387,-2.8078191,1.6607254,-3.0276651,-0.642612
2.698,11.707356,4.9619675,-2.8531203,1.6923213,-3.031707,-0.62489486
2.7,11.697921,4.997055,-2.8990688,1.7235385,-3.0365376,-0.606851
2.702,11.688943,5.033297,-2.9454503,1.7543616,-3.0421858,-0.58853626
2.704,11.680482,5.070415,-2.9920032,1.7847795,-3.048666,-0.56998765
2.706,11.672446,5.1083174,-3.038416,1.8147888,-3.055963,-0.55125725
2.708,11.664752,5.146818,-3.0845435,1.8443879,-3.064056,-0.53237104
2.71,11.657395,5.185706,-3.1300464,1.8735797,-3.0728993,-0.51336193
2.712,11.650216,5.2247877,-3.1747658,1.9023645,-3.0824482,-0.49425256
2.714,11.6430645,5.263941,-3.2185102,1.9307468,-3.0926518,-0.4750502
2.716,11.635724,5.3030615,-3.2610264,1.9587259,-3.1034787,-0.45577574
2.718,11.628394,5.3418455,-3.3022075,1.9863048,-3.1148853,-0.43643486
2.72,11.620825,5.380275,-3.3418527,2.0134916,-3.1268651,-0.41704023
2.722,11.612877,5.4181337,-3.3798795,2.040289,-3.1394036,-0.3975953
2.724,11.604494,5.4553404,-3.4161575,2.0667124,-3.1525059,-0.37813127
2.726,11.59551,5.4917746,-3.4505455,2.092773,-3.1661892,-0.35865474
2.728,11.58588,5.52742,-3.482973,2.1184921,-3.1804652,-0.3391862
2.73,11.575498,5.5621815,-3.5133162,2.1438918,-3.195353,-0.31973326
2.732,11.564165,5.5960817,-3.5415478,2.1690142,-3.2108564,-0.3003142
2.734,11.55202,5.629173,-3.567559,2.1938927,-3.22697,-0.28092682
2.736,11.538757,5.661455,-3.5911937,2.2185786,-3.2436736,-0.2615484
2.738,11.524502,5.6930585,-3.6125686,2.2431178,-3.260937,-0.24212742
2.74,11.508955,5.724038,-3.6314974,2.2675686,-3.2786932,-0.22261155
2.742,11.492027,5.7545695,-3.6480484,2.2919788,-3.2968836,-0.20292759
2.744,11.473888,5.78476,-3.662068,2.3164032,-3.3154254,-0.18299317
2.746,11.45437,5.8147745,-3.6736689,2.3408785,-3.334244,-0.16271842
2.748,11.433414,5.844842,-3.682861,2.3654451,-3.3532736,-0.14201915
2.75,11.411021,5.8752003,-3.689633,2.3901076,-3.3724446,-0.12083435
2.752,11.387199,5.906061,-3.6939783,2.4148912,-3.3917034,-0.09911156
2.754,11.361917,5.937552,-3.6958613,2.4397984,-3.4109945,-0.076820016
2.756,11.335189,5.969904,-3.695395,2.4648247,-3.4302893,-0.053934336
2.758,11.306955,6.003272,-3.6926126,2.489966,-3.4495597,-0.030473828
2.76,11.277227,6.037812,-3.687478,2.5152268,-3.4688017,-0.006459713
2.762,11.246072,6.0738196,-3.68008,2.5406032,-3.4879956,0.018072128
2.764,11.2134695,6.1114807,-3.6705894,2.5661063,-3.5071292,0.04306829
2.766,11.179539,6.150939,-3.6589925,2.5917525,-3.5261574,0.06847167
2.768,11.144331,6.192424,-3.645419,2.6175742,-3.5450237,0.09422886
2.77,11.107706,6.235796,-3.6300066,2.6436083,-3.563644,0.120286345
2.772,11.069986,6.2816772,-3.612505,2.669907,-3.5819085,0.1466062
2.774,11.031218,6.32979,-3.5932093,2.6965275,-3.599672,0.17316973
2.776,10.991492,6.380225,-3.5721903,2.7235298,-3.6168022,0.19996357
2.778,10.950842,6.4332404,-3.5495324,2.7509623,-3.6331677,0.22699785
2.78,10.909339,6.4886665,-3.5252185,2.7788606,-3.648664,0.2542869
2.782,10.867011,6.546553,-3.4992077,2.8072512,-3.6631918,0.28184342
2.784,10.824075,6.607024,-3.4716039,2.8361635,-3.6766934,0.3096695
2.786,10.780427,6.67004,-3.4422603,2.8655982,-3.6891446,0.33778274
2.788,10.736297,6.73551,-3.4111242,2.8955357,-3.7005746,0.36617327
2.79,10.691723,6.8034773,-3.3781052,2.9259431,-3.7110543,0.39481187
2.792,10.646679,6.87401,-3.3431458,2.9567719,-3.7206666,0.4236511
2.794,10.601081,6.947092,-3.3060021,2.987976,-3.729525,0.45261908
2.796,10.555084,7.022683,-3.266573,3.0195365,-3.7376988,0.48164785
2.798,10.508675,7.1007767,-3.2246003,3.0514464,-3.7452033,0.5106704
2.8,10.461808,7.1813173,-3.1798906,3.0837421,-3.7519603,0.5396465
2.802,10.414492,7.2642865,-3.1322937,3.1165106,-3.7577827,0.568573
2.804,10.366465,7.34988,-3.0815501,3.14988,-3.7624083,0.59749126
2.806,10.317945,7.4378977,-3.0274677,3.1839912,-3.7655015,0.6264794
2.808,10.268532,7.528403,-2.9697542,3.2190094,-3.7666783,0.6556411
2.81,10.218182,7.6214066,-2.9081974,3.255105,-3.7655473,0.68511
2.812,10.1670265,7.716851,-2.8425288,3.2924051,-3.7617383,0.71501696
2.814,10.114666,7.814771,-2.7725759,3.331014,-3.754939,0.7454748
2.816,10.060987,7.915129,-2.6981483,3.3709917,-3.744936,0.7765626
2.818,10.005819,8.0179,-2.6189756,3.4123452,-3.7315876,0.80833364
2.82,9.949035,8.123076,-2.534934,3.4550424,-3.7148452,0.8407992
2.822,9.890459,8.230488,-2.445853,3.4990242,-3.6947389,0.8739232
2.824,9.830008,8.340035,-2.3516233,3.5442042,-3.6713233,0.9076594
2.826,9.767467,8.451551,-2.2522583,3.590475,-3.644701,0.9419278
2.828,9.702603,8.564989,-2.1474717,3.637764,-3.6149724,0.9766619
2.83,9.635415,8.680125,-2.037437,3.6859975,-3.5822115,1.0118188
2.832,9.565617,8.796843,-1.921981,3.735133,-3.5464747,1.0473675
2.834,9.493123,8.914855,-1.8010938,3.785119,-3.5078125,1.0833005
2.836,9.417888,9.033918,-1.6748967,3.835925,-3.4662564,1.1196262
2.838,9.339738,9.153755,-1.5433614,3.8875163,-3.421824,1.1563665
2.84,9.258675,9.274026,-1.4065473,3.9398563,-3.374513,1.1935419
2.842,9.17467,9.394426,-1.2645352,3.9928935,-3.3243022,1.2311709
2.844,9.087455,9.514658,-1.1174304,4.0465794,-3.2711613,1.2692931
2.846,8.997235,9.634197,-0.9653517,4.100852,-3.215071,1.3079519
2.848,8.903877,9.7527485,-0.80830073,4.155635,-3.156024,1.3471786
2.85,8.80751,9.869892,-0.6465056,4.210821,-3.0940435,1.3869969
2.852,8.708201,9.985154,-0.48021603,4.2663026,-3.0291767,1.4274238
2.854,8.605838,10.098154,-0.30954278,4.3219767,-2.961503,1.4684498
2.856,8.500753,10.208395,-0.13452542,4.377746,-2.8911128,1.5100813
2.858,8.392982,10.315342,0.043895483,4.4335327,-2.8180695,1.5522915
2.86,8.282419,10.418722,0.22636485,4.489277,-2.7424216,1.5950333
2.862,8.169956,10.517945,0.4122511,4.544937,-2.6641915,1.6382716
2.864,8.055874,10.612554,0.6006795,4.6004715,-2.5833454,1.6819606
2.866,7.9399676,10.702202,0.7917284,4.6558595,-2.499807,1.7260407
2.868,7.822686,10.786509,0.9849099,4.7110496,-2.4134655,1.7704697
2.87,7.704648,10.864882,1.1794059,4.7660007,-2.3241618,1.8152167
2.872,7.5861278,10.936909,1.3748726,4.8206377,-2.231725,1.8602533
2.874,7.4674644,11.002159,1.5708088,4.874887,-2.1359704,1.9055848
2.876,7.348889,11.060434,1.766789,4.9286494,-2.0367281,1.9512451
2.878,7.2309847,11.111307,1.9622184,4.981828,-1.933869,1.9972723
2.88,7.114188,11.154593,2.156489,5.0342903,-1.8273165,2.0437179
2.882,6.998743,11.189941,2.3490684,5.085876,-1.7170618,2.0906239
2.884,6.8850837,11.217239,2.539327,5.1364374,-1.603175,2.138013
2.886,6.773486,11.236392,2.7267797,5.185813,-1.4857973,2.1859117
2.888,6.6643224,11.24715,2.910961,5.2338114,-1.3651444,2.2343316
2.89,6.5577116,11.249646,3.0912173,5.280219,-1.2416034,2.2831874
2.892,6.4538665,11.243777,3.2671096,5.3248444,-1.1155483,2.3324513
2.894,6.3527727,11.229578,3.4382663,5.367439,-0.9874762,2.3819933
2.896,6.2545905,11.207334,3.6042485,5.407692,-0.85800457,2.4316418
2.898,6.1592383,11.177044,3.7647529,5.445294,-0.72771025,2.4812138
2.9,6.066476,11.139044,3.9196002,5.479932,-0.59720767,2.5304925
2.902,5.9760776,11.09359,4.068715,5.511275,-0.46716523,2.5792413
2.904,5.8879285,11.040872,4.2119465,5.539006,-0.3381927,2.6272058
2.906,5.801372,10.9813175,4.3494153,5.562827,-0.21086454,2.6741216
2.908,5.7160344,10.915155,4.4810643,5.5824256,-0.08567619,2.7197204
2.91,5.631366,10.842837,4.607005,5.5975294,0.036964417,2.7637138
2.912,5.5467234,10.764737,4.727367,5.6078835,0.15672326,2.8058794
2.914,5.461615,10.681204,4.8422203,5.6132817,0.27341747,2.8460188
2.916,5.3752465,10.59277,4.9517355,5.613517,0.38693953,2.8839846
2.918,5.286994,10.499862,5.0560064,5.6084533,0.49728107,2.9196978
2.92,5.1961007,10.402926,5.1552277,5.59798,0.6044848,2.9531636
2.922,5.101915,10.302371,5.249492,5.5820427,0.70864654,2.984448
2.924,5.0038204,10.19872,5.3389425,5.5606284,0.8098674,3.0136743
2.926,4.901084,10.092329,5.4235625,5.533754,0.90820765,3.041008
2.928,4.7932496,9.983517,5.503186,5.5014753,1.0036788,3.0666423
2.93,4.67979,9.872577,5.5776677,5.4638524,1.0962187,3.0907817
2.932,4.560423,9.760023,5.6467447,5.4209647,1.1856755,3.1136088
2.934,4.434699,9.646026,5.7101197,5.3728795,1.2718153,3.1352677
2.936,4.3023744,9.531045,5.767583,5.3196626,1.3543144,3.1558726
2.938,4.163314,9.415239,5.8184776,5.2613697,1.4327811,3.1754847
2.94,4.017551,9.298906,5.8624744,5.198043,1.5067595,3.1941113
2.942,3.8650937,9.182219,5.8989983,5.1297474,1.575766,3.2117212
2.944,3.7061684,9.065407,5.9276047,5.056535,1.6393449,3.2282825
2.946,3.5408275,8.94866,5.947924,4.978444,1.6969726,3.2436488
2.948,3.3693466,8.832122,5.959427,4.895577,1.748199,3.2577186
2.95,3.1918838,8.715961,5.96176,4.808051,1.7926391,3.2703667
2.952,3.0089345,8.600314,5.9546967,4.715949,1.8298651,3.2814188
2.954,2.8208098,8.485195,5.93792,4.619361,1.8595369,3.2907424
2.956,2.6277964,8.370719,5.9113913,4.5183973,1.8814337,3.2981963
2.958,2.4303336,8.257078,5.8750057,4.413184,1.8953437,3.3036866
2.96,2.2287157,8.144402,5.8289194,4.303862,1.9011014,3.3071616
2.962,2.0231931,8.032864,5.773505,4.1906447,1.898606,3.3086336
2.964,1.8141359,7.922554,5.709008,4.0737453,1.8878326,3.308141
2.966,1.6017393,7.8135805,5.6357846,3.9534206,1.8688414,3.305716
2.968,1.3864256,7.70613,5.554992,3.829941,1.8417746,3.3014202
2.97,1.1685472,7.6002994,5.4663486,3.7035947,1.8069032,3.295321
2.972,0.9476197,7.4963846,5.3710475,3.574645,1.7646167,3.2874837
2.974,0.7240583,7.394664,5.2703743,3.443358,1.7154143,3.2779841
2.976,0.4985693,7.2952127,5.1647034,3.3099713,1.6598926,3.2668996
2.978,0.27110556,7.1981845,5.0551033,3.1747286,1.598719,3.2543325
2.98,0.041668713,7.1038566,4.9427257,3.0378752,1.5326176,3.2404113
2.982,-0.18945867,7.0123806,4.828433,2.899668,1.46232,3.2252777
2.984,-0.42205417,6.9239078,4.7130237,2.7604294,1.3885082,3.2091057
2.986,-0.65595734,6.8384323,4.597438,2.6205204,1.3117983,3.192097
2.988,-0.8910214,6.7561765,4.4825673,2.4803748,1.2327263,3.1744468
2.99,-1.1270366,6.6771936,4.3694515,2.3404644,1.1517386,3.1563334
2.992,-1.3637561,6.6015596,4.25889,2.2012973,1.0692158,3.1378953
2.994,-1.601033,6.529244,4.1518593,2.0634089,0.9854606,3.1192358
2.996,-1.8385636,6.460002,4.049009,1.9273188,0.90074396,3.1004105
2.998,-2.076223,6.393804,3.951075,1.7935283,0.81532705,3.0814252
3,-2.3136985,6.330418,3.8587155,1.6625108,0.7294574,3.062265
3.002,-2.5507066,6.2695575,3.7725794,1.5346873,0.64341974,3.0428703
3.004,-2.7869895,6.210937,3.69308,1.4104223,0.5575365,3.0231607
3.006,-3.0223603,6.1541295,3.620737,1.2900486,0.47216576,3.0030363
3.008,-3.256617,6.098874,3.5558088,1.1738445,0.3877312,2.982397
3.01,-3.4893548,6.0445423,3.498453,1.0620661,0.30468154,2.9611628
3.012,-3.720199,5.9907637,3.4488292,0.9549193,0.22352004,2.939226
3.014,-3.9490755,5.937207,3.4070358,0.8525735,0.14476746,2.9165058
3.016,-4.1754055,5.8832717,3.3729534,0.75515485,0.06896424,2.8929348
3.018,-4.398969,5.8286223,3.34655,0.66276664,-0.0033854246,2.8684845
3.02,-4.6195135,5.772696,3.3276427,0.5754808,-0.071810424,2.8431602
3.022,-4.8364706,5.715162,3.3161082,0.49334204,-0.13590086,2.8169675
3.024,-5.049715,5.6556215,3.3116252,0.41636822,-0.19531685,2.7899675
3.026,-5.2588296,5.5937457,3.3138225,0.34455007,-0.24980515,2.7622213
3.028,-5.4634547,5.5291305,3.3222573,0.2778614,-0.2992046,2.7338233
3.03,-5.6632648,5.461584,3.3364112,0.21627378,-0.34344232,2.7048864
3.032,-5.8579283,5.3909903,3.3557756,0.1597451,-0.38251618,2.6755202
3.034,-6.047295,5.317105,3.379811,0.10822898,-0.41652018,2.6458328
3.036,-6.230835,5.2400427,3.4080045,0.061674237,-0.44557825,2.6159277
3.038,-6.4084487,5.159823,3.439919,0.020002186,-0.46983978,2.5858734
3.04,-6.579983,5.0766883,3.4749453,-0.01687932,-0.48947322,2.555721
3.042,-6.745373,4.9905744,3.5126207,-0.04908967,-0.50464153,2.5255027
3.044,-6.904316,4.901809,3.5522933,-0.07676703,-0.5154952,2.4952235
3.046,-7.0568542,4.8105283,3.5933013,-0.10008466,-0.52216655,2.464871
3.048,-7.202931,4.717031,3.6352072,-0.11922544,-0.5247409,2.4344125
3.05,-7.3427434,4.6217594,3.6773572,-0.1343875,-0.52327406,2.4038072
3.052,-7.476181,4.5251203,3.7192543,-0.14580435,-0.5177841,2.373004
3.054,-7.60342,4.427415,3.760395,-0.15371734,-0.5082345,2.3419287
3.056,-7.7245326,4.3291855,3.8001304,-0.15836734,-0.4945692,2.3105237
3.058,-7.839729,4.23093,3.8380191,-0.15998721,-0.4767219,2.278748
3.06,-7.9490614,4.1330776,3.873688,-0.15881506,-0.45462206,2.2465596
3.062,-8.052836,4.0361857,3.9065576,-0.15506151,-0.4282186,2.2139318
3.064,-8.1510515,3.9407368,3.9363527,-0.14894292,-0.3974877,2.1808634
3.066,-8.244148,3.8473423,3.9626708,-0.14063966,-0.36245173,2.1473775
3.068,-8.332148,3.7563066,3.98521,-0.13033873,-0.32317603,2.113524
3.07,-8.415165,3.668088,4.003668,-0.11820519,-0.2797952,2.079367
3.072,-8.49337,3.5831707,4.0177817,-0.10440746,-0.23248613,2.0449963
3.074,-8.567001,3.501956,4.0273438,-0.08910856,-0.18148029,2.0105183
3.076,-8.636206,3.4249597,4.032308,-0.07247484,-0.1270425,1.9760642
3.078,-8.701119,3.3525476,4.032591,-0.05466935,-0.06946474,1.9417373
3.08,-8.761841,3.2848818,4.0281367,-0.035862714,-0.009050071,1.9076605
3.082,-8.818606,3.2224627,4.0190587,-0.016200632,0.05388701,1.8739272
3.084,-8.871436,3.1654117,4.0053167,0.0041341186,0.119050086,1.8406149
3.086,-8.920443,3.1139727,3.9871714,0.024973303,0.18613446,1.8077807
3.088,-8.965807,3.0683765,3.964765,0.046168506,0.25485924,1.7754493
3.09,-9.007632,3.0287683,3.9383817,0.06757501,0.3249372,1.7436221
3.092,-9.046076,2.9951515,3.9081428,0.089047894,0.39610597,1.7122777
3.094,-9.081108,2.9675915,3.8743687,0.11045754,0.46811867,1.6813662
3.096,-9.112898,2.9461565,3.8373494,0.1316823,0.5407461,1.6508222
3.098,-9.141494,2.9305253,3.7973986,0.15261233,0.61377937,1.6205509
3.1,-9.167061,2.9207485,3.7547097,0.17314674,0.6870464,1.5904651
3.102,-9.189566,2.916671,3.7096262,0.1931754,0.76039565,1.5604479
3.104,-9.209095,2.91806,3.6622696,0.21260424,0.83369684,1.5303771
3.106,-9.22563,2.9246645,3.6129665,0.23135518,0.90683866,1.5001333
3.108,-9.239375,2.9362795,3.5619361,0.2493349,0.9797065,1.4695895
3.11,-9.250151,2.9525204,3.509419,0.26645747,1.0521948,1.438631
3.112,-9.257978,2.9731522,3.4555364,0.28263548,1.1241966,1.4071363
3.114,-9.262725,2.9977362,3.4003754,0.29778618,1.1955948,1.3750057
3.116,-9.264496,3.0259194,3.344145,0.31180423,1.2662507,1.3421614
3.118,-9.263242,3.057348,3.2868338,0.3245994,1.3360012,1.3085358
3.12,-9.258798,3.0917034,3.228694,0.33607554,1.4046669,1.2740928
3.122,-9.251187,3.1286569,3.1697147,0.34614503,1.4720398,1.2388184
3.124,-9.240262,3.1677518,3.1099558,0.35472417,1.537902,1.2027194
3.126,-9.226012,3.2088132,3.0494888,0.36173862,1.6020112,1.1658165
3.128,-9.208324,3.251508,2.9883428,0.36711985,1.6641206,1.128141
3.13,-9.186974,3.295597,2.9265423,0.37080556,1.7239798,1.0897282
3.132,-9.162152,3.3407698,2.864097,0.37275797,1.7813274,1.0506275
3.134,-9.133583,3.386784,2.8010328,0.372944,1.8359022,1.0108817
3.136,-9.101278,3.4335747,2.737415,0.3713298,1.8874623,0.97054636
3.138,-9.065093,3.4810565,2.6733594,0.3679264,1.9357586,0.92967486
3.14,-9.025024,3.5289888,2.6089685,0.36274272,1.9805666,0.8883242
3.142,-8.98109,3.5772486,2.5443366,0.35578513,2.021681,0.8465426
3.144,-8.933114,3.625829,2.479616,0.34707758,2.058917,0.8043895
3.146,-8.881066,3.6745524,2.4148629,0.33665806,2.0921264,0.7619285
3.148,-8.825006,3.7235637,2.3502257,0.32455516,2.1212025,0.719208
3.15,-8.764822,3.7725792,2.2859426,0.31080848,2.1460662,0.6762617
3.152,-8.700466,3.8217027,2.2221239,0.29545233,2.1666937,0.6331355
3.154,-8.631885,3.8708484,2.158929,0.2785251,2.1831088,0.5898533
3.156,-8.558953,3.919974,2.0966225,0.26007262,2.1953685,0.54643387
3.158,-8.481778,3.9691956,2.0352437,0.2401373,2.2035902,0.5028854
3.16,-8.400278,4.018296,1.9750688,0.21875973,2.2079122,0.45919287
3.162,-8.314323,4.067337,1.9160933,0.19600229,2.208524,0.415351
3.164,-8.223958,4.1163387,1.8584355,0.17191528,2.2056298,0.37132606
3.166,-8.129106,4.165189,1.802273,0.14655498,2.1994467,0.3271082
3.168,-8.029692,4.213805,1.7477597,0.119984284,2.1902034,0.2826716
3.17,-7.925792,4.2622766,1.6947923,0.09228502,2.1781342,0.23798576
3.172,-7.8173857,4.3104925,1.6435837,0.06352594,2.163484,0.19305399
3.174,-7.704533,4.358462,1.5940841,0.0337707,2.1464849,0.14786112
3.176,-7.58726,4.4061384,1.5463696,0.003096586,2.12738,0.102392614
3.178,-7.4656343,4.45348,1.500414,-0.028428987,2.1064017,0.056666017
3.18,-7.339897,4.500563,1.4562318,-0.060738456,2.0837877,0.010684133
3.182,-7.209988,4.54725,1.4138061,-0.0937708,2.0597606,-0.035546362
3.184,-7.076181,4.593617,1.3730434,-0.12746133,2.0345488,-0.08201122
3.186,-6.938511,4.6396017,1.3339493,-0.16176178,2.0083864,-0.12868339
3.188,-6.797265,4.6852503,1.2964249,-0.19660954,1.9815004,-0.17552567
3.19,-6.6526494,4.730555,1.2604339,-0.23193969,1.954114,-0.22250259
3.192,-6.5047417,4.775441,1.2256533,-0.26770142,1.9264424,-0.2695756
3.194,-6.3539467,4.819934,1.1922586,-0.30382952,1.8987058,-0.3166954
3.196,-6.2005167,4.8641033,1.1600118,-0.34025255,1.871114,-0.36381406
3.198,-6.0446,4.9079685,1.1288078,-0.37689444,1.8438692,-0.41089022
3.2,-5.886591,4.9515247,1.0985279,-0.41367725,1.8171482,-0.45789075
3.202,-5.726589,4.994773,1.0691483,-0.45052102,1.7911294,-0.5047766
3.204,-5.565028,5.037804,1.0404763,-0.4873555,1.7659734,-0.5515192
3.206,-5.402014,5.080569,1.0122993,-0.52409375,1.741815,-0.5981101
3.208,-5.237928,5.1232305,0.98458767,-0.56065553,1.7187593,-0.64454615
3.21,-5.072879,5.165694,0.9571315,-0.5969757,1.6969014,-0.6908232
3.212,-4.9070477,5.207966,0.9297852,-0.63298386,1.6763026,-0.7369486
3.214,-4.74071,5.2501707,0.902521,-0.6686143,1.6570073,-0.78293127
3.216,-4.574155,5.292343,0.87514454,-0.7038289,1.6390349,-0.8287873
3.218,-4.407303,5.334329,0.8474733,-0.73856986,1.622391,-0.874524
3.22,-4.24054,5.3763237,0.81944174,-0.7728003,1.6070627,-0.92016846
3.222,-4.0739994,5.418306,0.7907665,-0.8065026,1.5930117,-0.9657267
3.224,-3.9079297,5.460288,0.7615407,-0.8396708,1.5801948,-1.0112047
3.226,-3.7422194,5.502208,0.7314487,-0.87230635,1.5685432,-1.0566188
3.228,-3.5770664,5.5440893,0.70060813,-0.90443116,1.557971,-1.1019622
3.23,-3.4125934,5.585827,0.6687807,-0.93607306,1.5483909,-1.1472476
3.232,-3.2489638,5.6273217,0.63598967,-0.9672626,1.5396965,-1.1924756
3.234,-3.0861912,5.6687145,0.60212255,-0.99804574,1.5317736,-1.2376394
3.236,-2.9244874,5.7098627,0.5671536,-1.028466,1.5245118,-1.2827183
3.238,-2.7638392,5.7506213,0.53105164,-1.0585622,1.517792,-1.3276953
3.24,-2.6042302,5.7909946,0.49377775,-1.0883722,1.5114968,-1.3725543
3.242,-2.445855,5.8308673,0.45531452,-1.1179358,1.5055273,-1.4172635
3.244,-2.2885377,5.8702025,0.4158026,-1.1472886,1.4997948,-1.4617808
3.246,-2.1324716,5.9088063,0.3751186,-1.1764556,1.4942178,-1.5060537
3.248,-1.9777265,5.946643,0.33331203,-1.2054662,1.4887164,-1.5500321
3.25,-1.8242804,5.983712,0.29038477,-1.2343385,1.4832386,-1.5936704
3.252,-1.6720663,6.0198674,0.24629033,-1.2630918,1.4777241,-1.6369109
3.254,-1.5210854,6.0550113,0.20103502,-1.2917448,1.4721375,-1.6796951
3.256,-1.3715209,6.0890946,0.15473485,-1.3203113,1.4664254,-1.7219768
3.258,-1.2232271,6.1219597,0.10732949,-1.3487959,1.4605508,-1.7637128
3.26,-1.0762568,6.1537027,0.058826685,-1.3772177,1.4544638,-1.8048655
3.262,-0.93062115,6.184192,0.009209871,-1.4055799,1.4481273,-1.8454071
3.264,-0.7864375,6.213372,-0.04145956,-1.4338853,1.441492,-1.8853276
3.266,-0.6436597,6.241213,-0.093193054,-1.4621377,1.4345019,-1.924625
3.268,-0.50219536,6.2676296,-0.14593935,-1.4903474,1.4271154,-1.9633024
3.27,-0.36196333,6.292613,-0.19973469,-1.5185122,1.4192679,-2.0013752
3.272,-0.22328767,6.3161144,-0.25443268,-1.5466543,1.4109099,-2.0388732
3.274,-0.08608554,6.338116,-0.31012988,-1.5747831,1.4019871,-2.0757911
3.276,0.049684137,6.358546,-0.36673808,-1.602905,1.3924332,-2.112143
3.278,0.18406461,6.377388,-0.42425752,-1.6310451,1.3821914,-2.1479301
3.28,0.31692383,6.394567,-0.4824865,-1.6592166,1.3712053,-2.1831532
3.282,0.4482094,6.410119,-0.54143023,-1.6874362,1.3594139,-2.2177904
3.284,0.57789767,6.423938,-0.6009581,-1.7157227,1.3467708,-2.251812
3.286,0.7060929,6.4359837,-0.66101646,-1.7440919,1.3332272,-2.2852025
3.288,0.83263147,6.446203,-0.7214763,-1.7725432,1.3187548,-2.3179271
3.29,0.95759386,6.454491,-0.78227735,-1.8010838,1.3033425,-2.3499758
3.292,1.0807296,6.4608345,-0.8433423,-1.829713,1.2869731,-2.381331
3.294,1.2021456,6.4651256,-0.9044516,-1.8584242,1.2696583,-2.4119902
3.296,1.3216283,6.467244,-0.9655726,-1.8872023,1.2514064,-2.4419467
3.298,1.439281,6.4670987,-1.0265074,-1.9160421,1.2322284,-2.4712105
3.3,1.5549853,6.464799,-1.0871537,-1.9449213,1.212143,-2.4997904
3.302,1.6685681,6.4600787,-1.1472745,-1.9738262,1.1911584,-2.5276828
3.304,1.780081,6.4529753,-1.206862,-2.002752,1.1692882,-2.5548844
3.306,1.8894618,6.4433985,-1.2657473,-2.0316906,1.146542,-2.58138
3.308,1.9966553,6.4313316,-1.3237286,-2.0606306,1.1229237,-2.6071408
3.31,2.1015143,6.416723,-1.3806605,-2.089557,1.0984545,-2.632139
3.312,2.2039547,6.399599,-1.4365149,-2.1184626,1.07315,-2.6563194
3.314,2.3040273,6.3799806,-1.4910359,-2.1473286,1.0470648,-2.679625
3.316,2.4015539,6.3577485,-1.5441875,-2.176146,1.0202495,-2.701993
3.318,2.4966073,6.333063,-1.5957944,-2.2048776,0.9927882,-2.7233539
3.32,2.5890338,6.305961,-1.645762,-2.2334998,0.9647718,-2.7436354
3.322,2.6787667,6.2765374,-1.6939931,-2.2619653,0.93630195,-2.7627723
3.324,2.7659998,6.244685,-1.7404218,-2.2902334,0.9075109,-2.780704
3.326,2.850626,6.210618,-1.7850473,-2.318244,0.87852395,-2.7973669
3.328,2.9325905,6.1743927,-1.8277116,-2.3459237,0.84949315,-2.8127348
3.33,3.0119622,6.135987,-1.8684945,-2.3732228,0.8205749,-2.8267858
3.332,3.0888026,6.0955443,-1.9072511,-2.4000676,0.79187584,-2.839511
3.334,3.1630595,6.053191,-1.9441359,-2.4263995,0.76352906,-2.850912
3.336,3.2347722,6.008973,-1.979089,-2.4521668,0.7356447,-2.861012
3.338,3.30404,5.962924,-2.0122657,-2.477318,0.7083131,-2.8698401
3.34,3.370925,5.915225,-2.0436237,-2.5018227,0.68162364,-2.8774343
3.342,3.435427,5.8658757,-2.0733275,-2.5256457,0.6556365,-2.8838267
3.344,3.4977355,5.814872,-2.1014297,-2.5487654,0.6304059,-2.8890433
3.346,3.5578992,5.762293,-2.1280355,-2.5711653,0.6059847,-2.8931117
3.348,3.6159694,5.708396,-2.1532497,-2.5928166,0.582421,-2.8960376
3.35,3.6718576,5.6530514,-2.1772058,-2.613709,0.55974853,-2.8978329
3.352,3.7258017,5.59639,-2.2000473,-2.6338105,0.5380224,-2.8984904
3.354,3.777732,5.53855,-2.2218475,-2.6531007,0.5172999,-2.8980045
3.356,3.8277822,5.479582,-2.2427435,-2.6715605,0.49763376,-2.896369
3.358,3.8760624,5.4195557,-2.2628736,-2.6891606,0.47906208,-2.8935726
3.36,3.9226635,5.3585415,-2.2823339,-2.7058635,0.46166277,-2.8896112
3.362,3.9675732,5.296728,-2.3010914,-2.7216446,0.44547898,-2.884482
3.364,4.0108047,5.234166,-2.3194022,-2.736478,0.43056965,-2.878181
3.366,4.05248,5.170966,-2.3372512,-2.7503426,0.41699183,-2.8707287
3.368,4.092738,5.1073694,-2.3547857,-2.7632046,0.40477765,-2.8621356
3.37,4.1315365,5.0433965,-2.372076,-2.7750351,0.3939669,-2.8524177
3.372,4.1690254,4.979227,-2.3892152,-2.7858207,0.3845997,-2.841591
3.374,4.20524,4.915021,-2.4062648,-2.7955236,0.37670958,-2.8296795
3.376,4.24026,4.8508935,-2.4232807,-2.8041368,0.37031734,-2.8167005
3.378,4.2741284,4.7869496,-2.440317,-2.8116448,0.36545205,-2.8026738
3.38,4.3069267,4.723417,-2.4574833,-2.8180401,0.36213112,-2.7876184
3.382,4.3388977,4.6602936,-2.474854,-2.823319,0.36036325,-2.7715492
3.384,4.369912,4.5977583,-2.4923286,-2.827469,0.36015832,-2.7544703
3.386,4.4001007,4.536017,-2.5100343,-2.830496,0.36153626,-2.7364082
3.388,4.429547,4.4751034,-2.5279899,-2.8323946,0.36448443,-2.717378
3.39,4.4583216,4.4151583,-2.5463614,-2.8331656,0.36898673,-2.697403
3.392,4.486621,4.3561754,-2.5651512,-2.8328168,0.3750316,-2.676504
3.394,4.514403,4.298435,-2.58427,-2.8313427,0.3825996,-2.6547062
3.396,4.541806,4.2419276,-2.6037812,-2.8287547,0.3916726,-2.6320462
3.398,4.568937,4.186795,-2.6236749,-2.825057,0.40222096,-2.6085641
3.4,4.595768,4.13308,-2.6440072,-2.8202753,0.41422582,-2.5843086
3.402,4.6226077,4.080883,-2.6646776,-2.8144214,0.42764688,-2.5593305
3.404,4.6494274,4.030225,-2.6858144,-2.807507,0.44246066,-2.533687
3.406,4.6763196,3.981194,-2.7073827,-2.7995467,0.4586289,-2.5074272
3.408,4.7033257,3.9338064,-2.729451,-2.790551,0.47611785,-2.4806106
3.41,4.7305617,3.8880591,-2.7519782,-2.780525,0.49489397,-2.4532914
3.412,4.7581153,3.8441472,-2.7748892,-2.769476,0.5149205,-2.4255128
3.414,4.786021,3.8020244,-2.7982945,-2.7574239,0.5361444,-2.3973165
3.416,4.814374,3.7617002,-2.8221753,-2.74436,0.55852354,-2.36874
3.418,4.843157,3.723184,-2.8464885,-2.7303,0.58201087,-2.3397973
3.42,4.872633,3.6865406,-2.8712564,-2.715242,0.60653806,-2.3104982
3.422,4.902584,3.6518536,-2.8963873,-2.6992023,0.63206506,-2.2808652
3.424,4.9331913,3.618984,-2.921903,-2.6821845,0.65853477,-2.2508965
3.426,4.9644,3.5881424,-2.9477987,-2.6642044,0.6858839,-2.220601
3.428,4.9962726,3.559159,-2.9740934,-2.6452768,0.7140583,-2.1899767
3.43,5.028821,3.532079,-3.00071,-2.6254053,0.74301374,-2.1590097
3.432,5.0619855,3.506923,-3.0275726,-2.604612,0.7726917,-2.1277003
3.434,5.09574,3.4837244,-3.0548356,-2.5829287,0.80305266,-2.0960474
3.436,5.1299663,3.4623706,-3.0822835,-2.5603793,0.834049,-2.0640478
3.438,5.164885,3.4428182,-3.1099696,-2.5369923,0.8656358,-2.0317063
3.44,5.2003894,3.4250522,-3.1378362,-2.5127816,0.897773,-1.9990335
3.442,5.236321,3.409044,-3.165907,-2.487795,0.9304285,-1.9660714
3.444,5.2727604,3.39466,-3.19414,-2.4620638,0.963562,-1.9328592
3.446,5.3095846,3.3818445,-3.2225008,-2.435617,0.99711627,-1.8994614
3.448,5.3467383,3.3705845,-3.2509818,-2.408488,1.0310451,-1.8659573
3.45,5.384174,3.3606954,-3.279625,-2.3807173,1.0652871,-1.8324296
3.452,5.4219875,3.352128,-3.3083367,-2.3523483,1.0997765,-1.798959
3.454,5.460093,3.3446789,-3.3371227,-2.323423,1.1344382,-1.7656202
3.456,5.4983764,3.3383126,-3.365965,-2.2940106,1.1692114,-1.7324938
3.458,5.5367827,3.3328626,-3.3949177,-2.264167,1.2040026,-1.6996224
3.46,5.5754204,3.3283317,-3.4239137,-2.2339435,1.238726,-1.667042
3.462,5.614192,3.3245778,-3.4529836,-2.2033832,1.2732863,-1.6347662
3.464,5.653041,3.3214993,-3.4821637,-2.1725256,1.3075886,-1.6027973
3.466,5.6920166,3.318955,-3.511383,-2.1414082,1.3415437,-1.5711342
3.468,5.7309885,3.3169622,-3.540714,-2.11005,1.3750665,-1.5397605
3.47,5.7699146,3.315454,-3.5701313,-2.0784843,1.4080772,-1.508661
3.472,5.808754,3.3143497,-3.599676,-2.0467207,1.4404927,-1.4778292
3.474,5.847521,3.313643,-3.6293116,-2.014783,1.4722466,-1.4472525
3.476,5.8861494,3.313232,-3.6591084,-1.9826802,1.5032632,-1.4169116
3.478,5.9245567,3.3129463,-3.6890433,-1.9504461,1.5334861,-1.38681
3.48,5.9627175,3.3129606,-3.7191749,-1.9181039,1.5628594,-1.3569458
3.482,6.0005646,3.3130414,-3.749384,-1.88569,1.5913149,-1.3273349
3.484,6.038044,3.313253,-3.7797203,-1.8532474,1.618781,-1.2980034
3.486,6.0750957,3.313522,-3.8101978,-1.8208146,1.6451912,-1.2689673
3.488,6.111644,3.3137903,-3.8407755,-1.7884429,1.6704811,-1.2402582
3.49,6.1476374,3.3139672,-3.8714013,-1.756197,1.694556,-1.2119248
3.492,6.183033,3.3141122,-3.9021082,-1.7241468,1.7173362,-1.184012
3.494,6.218056,3.3141327,-3.9328754,-1.6923759,1.7387257,-1.1565552
