Time_s_,Acc_x_m_s_2_,Acc_y_m_s_2_,Acc_z_m_s_2_,Gyro_x_1_s_,Gyro_y_1_s_,Gyro_z_1_s_
0,-3.557195,-1.2373987,0.10708296,-4.6025677,-8.107299,-2.9005957
0.002,-3.617158,-1.2560405,0.02117157,-4.6098814,-8.057481,-2.8576424
0.004,-3.6812317,-1.2750723,-0.07201667,-4.617411,-8.00146,-2.8087063
0.006,-3.7499604,-1.2941946,-0.1730412,-4.625041,-7.938739,-2.7530138
0.008,-3.8235004,-1.3135223,-0.28239954,-4.6326227,-7.8690658,-2.6899085
0.01,-3.9019196,-1.3330524,-0.40043223,-4.6400356,-7.792531,-2.6188538
0.012,-3.985119,-1.3527874,-0.5276065,-4.647176,-7.7095404,-2.5394716
0.014,-4.073388,-1.3727496,-0.663783,-4.6540117,-7.6208973,-2.4515445
0.016,-4.1667924,-1.3929055,-0.8089989,-4.6606035,-7.527869,-2.3550205
0.018,-4.2650795,-1.4134767,-0.9629502,-4.6670666,-7.432122,-2.2501125
0.02,-4.367874,-1.4347852,-1.1247966,-4.673583,-7.3356237,-2.137278
0.022,-4.4745445,-1.4571061,-1.2940235,-4.6804047,-7.24058,-2.01718
0.024,-4.5848374,-1.4806889,-1.470313,-4.6878104,-7.1492476,-1.8906286
0.026,-4.6985292,-1.5054759,-1.6535962,-4.696088,-7.063789,-1.7584776
0.028,-4.8153424,-1.5311408,-1.8435895,-4.7058144,-6.9836807,-1.6189971
0.03,-4.934793,-1.5575352,-2.0399885,-4.7166033,-6.913945,-1.4764484
0.032,-5.056315,-1.5843258,-2.2425456,-4.728517,-6.855274,-1.3311447
0.034,-5.1794057,-1.6110175,-2.450457,-4.7414227,-6.8080926,-1.1833426
0.036,-5.30311,-1.6373141,-2.6628928,-4.754997,-6.7724977,-1.0332105
0.038,-5.4263697,-1.6626797,-2.878732,-4.76871,-6.7482166,-0.8808007
0.04,-5.5483246,-1.6865621,-3.0964832,-4.781964,-6.7347717,-0.7260783
0.042,-5.6680775,-1.7083262,-3.3146548,-4.794175,-6.7315845,-0.56895494
0.044,-5.784694,-1.7273928,-3.5316844,-4.8048096,-6.7381063,-0.40933132
0.046,-5.8973875,-1.7431493,-3.7461686,-4.8134747,-6.7539253,-0.24715877
0.048,-6.005131,-1.7548496,-3.9568377,-4.819891,-6.778719,-0.08247447
0.05,-6.106903,-1.7614044,-4.162658,-4.8239503,-6.8122873,0.08464575
0.052,-6.202009,-1.761549,-4.3628073,-4.8257465,-6.854803,0.25403118
0.054,-6.28971,-1.7539544,-4.556568,-4.825514,-6.906604,0.4253626
0.056,-6.3725667,-1.7378662,-4.747739,-4.823534,-6.968011,0.5982065
0.058,-6.446239,-1.7110159,-4.9309664,-4.8200817,-7.039195,0.77206993
0.06,-6.510285,-1.6719539,-5.106452,-4.8153687,-7.120064,0.9464655
0.062,-6.565053,-1.6190946,-5.2742395,-4.809467,-7.2101574,1.1209347
0.064,-6.6110206,-1.550889,-5.434437,-4.802223,-7.3085794,1.2950084
0.066,-6.6484632,-1.46597,-5.587476,-4.7933097,-7.4141135,1.4682012
0.068,-6.678438,-1.3628179,-5.7336683,-4.782266,-7.5253453,1.6399858
0.07,-6.7023797,-1.2399262,-5.873528,-4.7685905,-7.6408052,1.8098235
0.072,-6.720859,-1.0962158,-6.006948,-4.7518797,-7.7591953,1.9772834
0.074,-6.7360883,-0.9303782,-6.133158,-4.7318444,-7.8795376,2.1420488
0.076,-6.7506127,-0.74117184,-6.253036,-4.708356,-8.001263,2.3039405
0.078,-6.7673087,-0.527401,-6.368271,-4.681434,-8.12429,2.4629288
0.08,-6.7890067,-0.28772616,-6.4803557,-4.6512356,-8.248987,2.6191044
0.082,-6.818469,-0.021390676,-6.5900097,-4.6180615,-8.376064,2.7726417
0.084,-6.8593926,0.27222323,-6.697055,-4.5822687,-8.506388,2.9237537
0.086,-6.915715,0.593452,-6.8006954,-4.544224,-8.640692,3.0726438
0.088,-6.9918737,0.94275236,-6.900464,-4.504223,-8.779353,3.2194648
0.09,-7.0916314,1.3205161,-6.996625,-4.4624434,-8.922306,3.3642685
0.092,-7.2187734,1.7266791,-7.089896,-4.418928,-9.068953,3.5069866
0.094,-7.376488,2.1609075,-7.1808996,-4.373537,-9.218174,3.6473906
0.096,-7.5680404,2.6224418,-7.2697287,-4.3260365,-9.368435,3.78516
0.098,-7.796652,3.1100397,-7.3562574,-4.2761464,-9.517977,3.9198866
0.1,-8.064893,3.6226885,-7.4400764,-4.223573,-9.66503,4.05109
0.102,-8.375303,4.159152,-7.521158,-4.1681027,-9.80801,4.1782894
0.104,-8.729417,4.7179775,-7.5993357,-4.1095862,-9.945615,4.3010163
0.106,-9.127762,5.2973814,-7.674803,-4.047952,-10.07687,4.4188886
0.108,-9.5697775,5.8952956,-7.7474103,-3.983216,-10.201146,4.5316076
0.11,-10.054639,6.5090227,-7.8170652,-3.9154925,-10.318047,4.63894
0.112,-10.581545,7.136652,-7.8832784,-3.844964,-10.427371,4.740757
0.114,-11.147472,7.7754498,-7.9456077,-3.7718573,-10.528907,4.8370214
0.116,-11.750414,8.423466,-8.004049,-3.6963902,-10.622293,4.9277945
0.118,-12.387128,9.079193,-8.059061,-3.6188169,-10.706981,5.0132174
0.12,-13.052185,9.739094,-8.110783,-3.5393546,-10.782181,5.093485
0.122,-13.741976,10.400984,-8.15913,-3.4582043,-10.846842,5.1688375
0.124,-14.451042,11.061875,-8.204633,-3.3755593,-10.899752,5.2395105
0.126,-15.174364,11.719306,-8.247382,-3.2916346,-10.939682,5.3057175
0.128,-15.906699,12.371181,-8.287872,-3.2066717,-10.965456,5.367622
0.13,-16.642523,13.015689,-8.327017,-3.1209805,-10.976069,5.425297
0.132,-17.376465,13.650941,-8.36513,-3.034944,-10.970792,5.478689
0.134,-18.10284,14.275054,-8.402271,-2.9490032,-10.949174,5.5276666
0.136,-18.816183,14.886155,-8.438229,-2.8636558,-10.911028,5.5720096
0.138,-19.511791,15.482446,-8.473569,-2.7794507,-10.856481,5.6114798
0.14,-20.185215,16.062407,-8.50863,-2.6969264,-10.785886,5.645851
0.142,-20.832544,16.624744,-8.543005,-2.6163862,-10.69908,5.6753
0.144,-21.450647,17.168531,-8.57749,-2.5385349,-10.597473,5.6990967
0.146,-22.037186,17.693338,-8.612804,-2.4636269,-10.48125,5.71736
0.148,-22.590254,18.19881,-8.649712,-2.3919463,-10.350979,5.7298594
0.15,-23.108303,18.684696,-8.689674,-2.323759,-10.207327,5.7363997
0.152,-23.590649,19.150887,-8.733692,-2.2592072,-10.050867,5.7367783
0.154,-24.036901,19.597332,-8.782554,-2.1983962,-9.882154,5.7308116
0.156,-24.44704,20.023922,-8.836738,-2.141386,-9.701716,5.7182164
0.158,-24.821964,20.430912,-8.896623,-2.088204,-9.510092,5.6985626
0.16,-25.163048,20.818453,-8.962618,-2.0388908,-9.30783,5.6711826
0.162,-25.471504,21.186651,-9.035233,-1.9935322,-9.095506,5.63515
0.164,-25.74886,21.53564,-9.114928,-1.952278,-8.873813,5.589365
0.166,-25.996853,21.865402,-9.202181,-1.9153165,-8.643423,5.5325947
0.168,-26.217438,22.17639,-9.297714,-1.8829013,-8.405032,5.463641
0.17,-26.41258,22.46892,-9.401944,-1.8553307,-8.15942,5.381445
0.172,-26.584068,22.74319,-9.515678,-1.8328716,-7.907299,5.2852535
0.174,-26.73367,22.999462,-9.639576,-1.8158131,-7.649362,5.174685
0.176,-26.86359,23.238237,-9.77424,-1.8044059,-7.3863153,5.049835
0.178,-26.975,23.459538,-9.920468,-1.798855,-7.1188407,4.9112267
0.18,-27.068722,23.663458,-10.078954,-1.7992764,-6.847623,4.7596807
0.182,-27.14656,23.850796,-10.249889,-1.8057482,-6.5734034,4.5962224
0.184,-27.208889,24.021896,-10.433424,-1.8182268,-6.2969007,4.4219723
0.186,-27.25641,24.177523,-10.629537,-1.8365732,-6.0187902,4.238054
0.188,-27.289967,24.318214,-10.838138,-1.8605273,-5.7397127,4.0454793
0.19,-27.30957,24.444613,-11.0585,-1.8897082,-5.460223,3.8450887
0.192,-27.315325,24.557468,-11.289872,-1.9236525,-5.1807737,3.6375313
0.194,-27.306993,24.657658,-11.531612,-1.961829,-4.9017186,3.4232779
0.196,-27.284678,24.746529,-11.783074,-2.0037768,-4.623667,3.2025118
0.198,-27.247643,24.82512,-12.043529,-2.0485866,-4.345835,2.9761553
0.2,-27.19592,24.894796,-12.312287,-2.0957696,-4.0687823,2.7442427
0.202,-27.128769,24.957098,-12.588627,-2.1445858,-3.7923007,2.5073268
0.204,-27.045803,25.01378,-12.871459,-2.194283,-3.516095,2.265861
0.206,-26.945951,25.06637,-13.159932,-2.2441804,-3.2399583,2.0203
0.208,-26.828138,25.116837,-13.453062,-2.2936234,-2.963672,1.7710683
0.21,-26.690977,25.166748,-13.750175,-2.3419738,-2.6870148,1.5185795
0.212,-26.532648,25.217655,-14.050698,-2.3886576,-2.4097695,1.2632843
0.214,-26.351503,25.271183,-14.354184,-2.4331226,-2.1317089,1.0056651
0.216,-26.145683,25.328897,-14.660126,-2.4748287,-1.8526042,0.74621505
0.218,-25.913105,25.392157,-14.968418,-2.5132987,-1.57225,0.4853645
0.22,-25.65127,25.462358,-15.278789,-2.5481358,-1.2905419,0.22348726
0.222,-25.357327,25.540085,-15.590802,-2.578965,-1.007395,-0.039124012
0.224,-25.029812,25.626858,-15.905164,-2.6054611,-0.72273505,-0.30221713
0.226,-24.664028,25.72243,-16.222546,-2.6273775,-0.43666545,-0.5655709
0.228,-24.256363,25.826044,-16.54303,-2.6444542,-0.14938045,-0.829032
0.23,-23.806515,25.939701,-16.86671,-2.6564407,0.13886222,-1.092517
0.232,-23.31087,26.063675,-17.19346,-2.6630917,0.427651,-1.3559849
0.234,-22.766228,26.197859,-17.524336,-2.6641662,0.7164611,-1.6194448
0.236,-22.169199,26.341013,-17.860008,-2.6594114,1.0046849,-1.8829675
0.238,-21.518112,26.492794,-18.20017,-2.6485674,1.291633,-2.1466908
0.24,-20.811577,26.652912,-18.544535,-2.631344,1.5766,-2.4108064
0.242,-20.04777,26.82074,-18.89319,-2.607473,1.8587965,-2.6755486
0.244,-19.225388,26.995384,-19.246328,-2.5766711,2.1374357,-2.941217
0.246,-18.343567,27.175808,-19.603405,-2.5386276,2.4117503,-3.2081268
0.248,-17.401363,27.36092,-19.963724,-2.4930792,2.6809187,-3.4765973
0.25,-16.399078,27.54986,-20.326828,-2.4397535,2.9441018,-3.7469473
0.252,-15.33736,27.741451,-20.692694,-2.378404,3.2004654,-4.019516
0.254,-14.217032,27.934252,-21.060286,-2.3088088,3.4491215,-4.2946496
0.256,-13.039752,28.126871,-21.42833,-2.2308092,3.6891248,-4.572646
0.258,-11.807293,28.317635,-21.795078,-2.1442943,3.9194167,-4.8537674
0.26,-10.52257,28.504229,-22.160686,-2.0491467,4.1387796,-5.1383076
0.262,-9.190708,28.6873,-22.524334,-1.9453009,4.3460236,-5.426577
0.264,-7.8163223,28.866003,-22.882496,-1.8327353,4.5399165,-5.718855
0.266,-6.399347,29.037724,-23.234083,-1.7114354,4.719027,-6.0152597
0.268,-4.945402,29.201647,-23.575258,-1.5814232,4.8819213,-6.3157215
0.27,-3.458671,29.35703,-23.905293,-1.4427125,5.0273013,-6.6199903
0.272,-1.9438839,29.503036,-24.222252,-1.2953761,5.1538315,-6.9276457
0.274,-0.40747452,29.63996,-24.522673,-1.1395133,5.2600784,-7.2380342
0.276,1.1447086,29.767717,-24.80363,-0.97531605,5.344618,-7.550201
0.278,2.7080832,29.885397,-25.063017,-0.80305505,5.40611,-7.8629646
0.28,4.277289,29.992447,-25.298912,-0.6230874,5.4433274,-8.175002
0.282,5.8465,30.08946,-25.508612,-0.43590045,5.4551506,-8.484926
0.284,7.4104557,30.177029,-25.68938,-0.24213648,5.440637,-8.791361
0.286,8.964372,30.255676,-25.838825,-0.04259324,5.3990936,-9.092995
0.288,10.503666,30.326265,-25.954493,0.16169047,5.3300123,-9.388705
0.29,12.024418,30.389523,-26.033596,0.3695476,5.233279,-9.677628
0.292,13.52368,30.446484,-26.073847,0.5798867,5.109304,-9.959071
0.294,14.998324,30.498455,-26.073112,0.79119205,4.9583883,-10.232534
0.296,16.446222,30.546808,-26.029263,1.0019732,4.78113,-10.497644
0.298,17.866451,30.593014,-25.94036,1.2107251,4.578571,-10.75415
0.3,19.258085,30.63817,-25.804865,1.4160879,4.3522673,-11.001894
0.302,20.621117,30.683422,-25.621292,1.6167929,4.103756,-11.240729
0.304,21.95565,30.729877,-25.388012,1.8115208,3.8345072,-11.470551
0.306,23.263186,30.778252,-25.104078,1.9990461,3.546293,-11.691114
0.308,24.545275,30.828941,-24.768436,2.178296,3.241095,-11.901991
0.31,25.80418,30.882027,-24.38007,2.3483725,2.9209487,-12.102687
0.312,27.042038,30.937452,-23.93826,2.508592,2.5880773,-12.2927065
0.314,28.26151,30.994638,-23.442734,2.658404,2.2448282,-12.471625
0.316,29.464857,31.05307,-22.89346,2.7974834,1.8934863,-12.639236
0.318,30.654713,31.111221,-22.290604,2.925732,1.5364537,-12.795773
0.32,31.83315,31.167263,-21.634356,3.0432725,1.1763642,-12.94204
0.322,33.002136,31.218948,-20.924978,3.150392,0.8157921,-13.079291
0.324,34.16398,31.263626,-20.16354,3.2474232,0.45719528,-13.209108
0.326,35.320343,31.2981,-19.351452,3.3347313,0.10311866,-13.333249
0.328,36.472523,31.319088,-18.489819,3.4125574,-0.24397206,-13.4534855
0.33,37.621353,31.322973,-17.580074,3.4809723,-0.58191323,-13.57142
0.332,38.767403,31.305923,-16.624119,3.5398476,-0.9088023,-13.68821
0.334,39.911346,31.263657,-15.623598,3.588836,-1.2229767,-13.804403
0.336,41.052376,31.192137,-14.5803585,3.6274474,-1.522984,-13.920017
0.338,42.189735,31.087643,-13.497015,3.6551566,-1.8076088,-14.034638
0.34,43.32422,30.945398,-12.376896,3.6715086,-2.0757427,-14.147638
0.342,44.455254,30.761095,-11.223547,3.6762388,-2.326273,-14.258309
0.344,45.58127,30.531471,-10.039232,3.6692255,-2.5582452,-14.365984
0.346,46.70156,30.253435,-8.827238,3.6504722,-2.7707667,-14.470284
0.348,47.816383,29.923313,-7.591732,3.6205435,-2.9625196,-14.571027
0.35,48.92561,29.537888,-6.3365917,3.5800216,-3.1323762,-14.668096
0.352,50.029,29.094862,-5.065716,3.5295572,-3.2795262,-14.761255
0.354,51.12629,28.59291,-3.7830887,3.4697702,-3.4034128,-14.850059
0.356,52.217525,28.03128,-2.4934235,3.4013422,-3.5033455,-14.933787
0.358,53.302464,27.409786,-1.2013016,3.3250415,-3.5787716,-15.011356
0.36,54.381504,26.728695,0.08856392,3.2414756,-3.6297383,-15.081436
0.362,55.45505,25.98872,1.3712139,3.1511185,-3.6564808,-15.142572
0.364,56.5242,25.190872,2.6415892,3.0544283,-3.6592903,-15.193169
0.366,57.590252,24.3366,3.8943262,2.9518409,-3.63867,-15.231654
0.368,58.654194,23.428234,5.123932,2.8438323,-3.595192,-15.25661
0.37,59.717434,22.46922,6.3268566,2.7309496,-3.5294142,-15.2668295
0.372,60.78258,21.460789,7.497813,2.613712,-3.4420033,-15.261322
0.374,61.8503,20.406395,8.62938,2.492656,-3.3336554,-15.239361
0.376,62.91738,19.311172,9.717472,2.36829,-3.2051506,-15.20045
0.378,63.986588,18.177986,10.755994,2.2410932,-3.0573545,-15.144362
0.38,65.058495,17.010237,11.7425,2.1115136,-2.8912754,-15.071079
0.382,66.133736,15.811979,12.673235,1.9798939,-2.708046,-14.980864
0.384,67.21344,14.586953,13.543459,1.8464367,-2.5089946,-14.874221
0.386,68.297714,13.3397,14.349766,1.7111987,-2.2955885,-14.751865
0.388,69.38527,12.07546,15.0904045,1.5740955,-2.0694695,-14.614676
0.39,70.47544,10.798901,15.763646,1.4348549,-1.8323827,-14.46353
0.392,71.56809,9.513849,16.367643,1.2930243,-1.5861335,-14.299215
0.394,72.66161,8.224659,16.901056,1.1480117,-1.3325891,-14.12233
0.396,73.754326,6.9359245,17.363745,0.9991368,-1.0735807,-13.933255
0.398,74.843796,5.6520653,17.756048,0.8456913,-0.81077814,-13.732201
0.4,75.92728,4.377085,18.078535,0.6869823,-0.54563904,-13.519249
0.402,77.001945,3.1144066,18.332737,0.522388,-0.2794118,-13.294516
0.404,78.06525,1.8668699,18.520947,0.3514279,-0.013012409,-13.058215
0.406,79.11468,0.63725376,18.646097,0.17374063,0.2528615,-12.810776
0.408,80.1471,-0.5717888,18.7111,-0.0108709335,0.5177727,-12.552817
0.41,81.15954,-1.757494,18.719091,-0.20246696,0.78153944,-12.285181
0.412,82.148384,-2.917532,18.672897,-0.40097797,1.0441186,-12.008963
0.414,83.11006,-4.04992,18.575731,-0.6061889,1.3055978,-11.725506
0.416,84.04048,-5.153061,18.431194,-0.8178319,1.5660741,-11.43639
0.418,84.936165,-6.225954,18.242828,-1.0356408,1.8256993,-11.143335
0.42,85.79466,-7.268318,18.014477,-1.2593141,2.084693,-10.84812
0.422,86.61307,-8.2796,17.749605,-1.4885696,2.3433552,-10.552576
0.424,87.3882,-9.25938,17.451332,-1.7231343,2.602036,-10.258531
0.426,88.11771,-10.207851,17.122658,-1.9628031,2.8612044,-9.967811
0.428,88.79939,-11.12484,16.766262,-2.2074332,3.121471,-9.68218
0.43,89.43149,-12.010136,16.383944,-2.4569516,3.3835368,-9.403272
0.432,90.012634,-12.863255,15.977037,-2.7114463,3.6481423,-9.13243
0.434,90.54173,-13.684139,15.547207,-2.9712024,3.9160345,-8.870648
0.436,91.0189,-14.472357,15.096031,-3.2366838,4.1879506,-8.618612
0.438,91.445404,-15.227743,14.624325,-3.5084877,4.46466,-8.376723
0.44,91.82267,-15.949236,14.132254,-3.7873614,4.7469597,-8.145146
0.442,92.15263,-16.635626,13.619619,-4.074093,5.0357003,-7.9238143
0.444,92.438324,-17.285435,13.085817,-4.369425,5.3318887,-7.7125106
0.446,92.68375,-17.896778,12.529995,-4.6740336,5.636624,-7.510934
0.448,92.89343,-18.467611,11.951271,-4.9884377,5.9511156,-7.3186574
0.45,93.07289,-18.995523,11.348972,-5.312937,6.276745,-7.135095
0.452,93.22822,-19.477648,10.722603,-5.6476555,6.614907,-6.959619
0.454,93.366425,-19.911142,10.071838,-5.9925976,6.9668097,-6.791573
0.456,93.49518,-20.292631,9.396839,-6.3476973,7.3333635,-6.63031
0.458,93.62242,-20.618948,8.698559,-6.7129135,7.7150335,-6.4752607
0.46,93.75746,-20.886826,7.978485,-7.088295,8.111654,-6.325985
0.462,93.909225,-21.092728,7.238598,-7.4740667,8.522254,-6.182169
0.464,94.08789,-21.232439,6.4801674,-7.870639,8.945099,-6.0435495
0.466,94.3042,-21.302015,5.705826,-8.278557,9.377811,-5.9098253
0.468,94.56897,-21.296797,4.9177055,-8.698466,9.817432,-5.7805567
0.47,94.89339,-21.21135,4.119915,-9.131072,10.260486,-5.655081
0.472,95.2889,-21.039268,3.316063,-9.577138,10.703121,-5.5324764
0.474,95.76424,-20.771374,2.5112457,-10.037474,11.141223,-5.4114056
0.476,96.33014,-20.399414,1.7098045,-10.51292,11.570457,-5.289978
0.478,97.00023,-19.915813,0.91324615,-11.004373,11.986315,-5.165707
0.48,97.78644,-19.308533,0.12580109,-11.512866,12.384137,-5.0354714
0.482,98.69623,-18.566814,-0.6442585,-12.039541,12.759281,-4.895467
0.484,99.73772,-17.678606,-1.3830967,-12.585666,13.107176,-4.7413087
0.486,100.91333,-16.617706,-2.0807667,-13.152529,13.423434,-4.5680947
0.488,102.23335,-15.366678,-2.7425327,-13.74131,13.704178,-4.3705273
0.49,103.717896,-13.925829,-3.3790016,-14.352911,13.946236,-4.142891
0.492,105.381676,-12.275748,-3.9928284,-14.98782,14.147285,-3.8792615
0.494,107.22944,-10.377041,-4.5756893,-15.646092,14.305929,-3.5736384
0.496,109.26549,-8.193598,-5.1169605,-16.327112,14.421989,-3.220161
0.498,111.497635,-5.7055244,-5.613241,-17.029564,14.496416,-2.8132234
0.5,113.92293,-2.896906,-6.060651,-17.751434,14.531381,-2.3477323
0.502,116.56324,0.23457146,-6.4732904,-18.489948,14.530094,-1.8192906
0.504,119.42736,3.7063313,-6.8228807,-19.241802,14.496426,-1.2245331
0.506,122.46385,7.598324,-7.1051745,-20.00318,14.435125,-0.5611181
0.508,125.66018,11.937868,-7.37722,-20.76983,14.351456,0.17242455
0.51,129.02274,16.762194,-7.665311,-21.537977,14.249506,0.9766121
0.512,132.47926,22.11729,-7.9765205,-22.30438,14.13229,1.8505071
0.514,136.00552,28.002382,-8.296491,-23.065727,14.002297,2.7915316
0.516,139.68892,34.19811,-8.757825,-23.817719,13.861572,3.7956455
0.518,143.7221,40.672764,-9.368391,-24.555412,13.711046,4.85798
0.52,147.90126,47.59863,-10.085817,-25.274261,13.550503,5.9737306
0.522,152.22414,54.99311,-10.81756,-25.97148,13.375819,7.1377406
0.524,156.66219,62.7793,-11.484844,-26.645197,13.17882,8.342472
0.526,161.19612,70.904144,-12.197215,-27.293644,12.94813,9.57794
0.528,165.80696,79.306335,-12.950264,-27.914661,12.669613,10.832886
0.53,170.48088,87.93123,-13.60825,-28.507477,12.323446,12.095029
0.532,175.09563,96.757095,-14.31663,-29.073631,11.881142,13.354007
0.534,179.83453,105.64873,-15.12209,-29.620672,11.304704,14.606138
0.536,184.58366,114.48371,-15.960224,-30.159878,10.552066,15.844913
0.538,189.26999,123.18117,-16.813568,-30.70113,9.576714,17.055498
0.54,193.86798,131.56361,-17.61327,-31.246267,8.325298,18.224684
0.542,198.39421,139.46553,-18.31908,-31.788893,6.7421227,19.33713
0.544,202.82523,146.77501,-18.879292,-32.31854,4.775429,20.380154
0.546,207.14742,153.36932,-19.228886,-32.83689,2.3884258,21.382334
0.548,211.29895,159.14124,-19.30049,-33.354652,-0.43523026,22.348713
0.55,215.20462,163.98466,-19.009518,-33.86402,-3.6940498,23.26731
0.552,218.87694,167.74731,-18.24848,-34.345535,-7.3751316,24.141407
0.554,222.37065,170.33902,-16.926422,-34.77718,-11.437463,24.9798
0.556,225.57014,171.76642,-14.997023,-35.111866,-15.799447,25.791885
0.558,228.46115,172.00389,-12.385037,-35.299232,-20.338177,26.580654
0.56,231.0257,171.02303,-9.021442,-35.346367,-24.924564,27.369028
0.562,233.19923,168.8378,-4.849867,-35.30033,-29.420925,28.129587
0.564,234.93053,165.47557,0.16218567,-35.177525,-33.67631,28.82729
0.566,236.16742,160.99152,6.01276,-34.998882,-37.574566,29.4096
0.568,236.85164,155.46909,12.678234,-34.799038,-41.021133,29.781536
0.57,236.92203,149.01794,20.10748,-34.59873,-43.937576,29.832558
0.572,236.31459,141.7746,28.218193,-34.390804,-46.273483,29.44099
0.574,234.98149,133.8821,36.900352,-34.13078,-48.001255,28.481617
0.576,232.87122,125.48914,46.0232,-33.74221,-49.10778,26.843794
0.578,229.9436,116.74448,55.427757,-33.132774,-49.59085,24.448288
0.58,226.17413,107.80251,64.92807,-32.212692,-49.46238,21.268703
0.582,221.54938,98.81976,74.33594,-30.90739,-48.745373,17.35833
0.584,216.08081,89.94552,83.46656,-29.172045,-47.47222,12.8298435
0.586,209.80838,81.32421,92.13404,-27.001377,-45.689247,7.8334846
0.588,202.7956,73.091286,100.16254,-24.43037,-43.45913,2.5665894
0.59,195.1341,65.359695,107.38103,-21.533327,-40.860912,-2.7253056
0.592,186.92683,58.232468,113.6317,-18.41351,-37.980812,-7.769128
0.594,178.28737,51.795494,118.776924,-15.188666,-34.90216,-12.298013
0.596,169.35925,46.103836,122.709564,-11.970992,-31.701168,-16.065037
0.598,160.29604,41.20579,125.37176,-8.852054,-28.442766,-18.866264
0.6,151.24438,37.14934,126.74542,-5.88995,-25.178953,-20.580427
0.602,142.35327,33.951187,126.83916,-3.1207476,-21.94378,-21.120304
0.604,133.77232,31.587793,125.674774,-0.5830002,-18.75174,-20.473656
0.606,125.64934,30.01285,123.295845,1.6948414,-15.601249,-18.737251
0.608,118.107086,29.17719,119.77954,3.7003613,-12.498646,-16.089392
0.61,111.25253,29.016525,115.227234,5.421615,-9.468966,-12.764478
0.612,105.14755,29.46268,109.76935,6.8733926,-6.550839,-9.025418
0.614,99.83853,30.421986,103.50895,8.123251,-3.7721894,-5.1644783
0.616,95.39943,31.741402,96.5871,9.241057,-1.1695056,-1.4248483
0.618,91.819756,33.330376,89.193436,10.251657,1.2073528,1.9621687
0.62,89.04643,35.08763,81.46593,11.195367,3.3312407,4.809803
0.622,87.066826,36.909718,73.51287,12.12805,5.1708584,7.0015025
0.624,85.78479,38.74156,65.423874,13.090286,6.693109,8.467028
0.626,85.01068,40.696407,57.405956,14.102875,7.8813353,9.1918335
0.628,84.51837,42.66416,49.512924,15.164289,8.729756,9.219717
0.63,84.45981,44.403343,41.76526,16.255342,9.241831,8.643097
0.632,84.72747,45.89868,34.169647,17.345186,9.431251,7.5905194
0.634,85.24153,47.229057,26.778637,18.394728,9.324946,6.2096214
0.636,85.914444,48.436478,19.80794,19.355955,8.955299,4.6539745
0.638,86.66696,49.56707,13.319239,20.179134,8.357504,3.1013126
0.64,87.427086,50.65812,7.269704,20.818012,7.569852,1.7406764
0.642,88.22028,51.72158,1.8801098,21.235237,6.62984,0.7311559
0.644,88.80938,52.87039,-2.7879562,21.406506,5.570218,0.19012308
0.646,89.28977,54.170258,-6.780817,21.319307,4.4174347,0.18891573
0.648,89.683395,55.631294,-10.082893,20.972162,3.1916313,0.74830747
0.65,89.96127,57.335354,-12.720615,20.375534,1.9075172,1.834346
0.652,90.07286,59.3125,-14.683277,19.553036,0.5756545,3.361537
0.654,90.02236,61.523766,-15.97397,18.54027,-0.79654646,5.203643
0.656,89.80673,63.93982,-16.608849,17.38113,-2.2029748,7.2071404
0.658,89.46321,66.51444,-16.60747,16.126942,-3.6353073,9.205876
0.66,89.02051,69.20253,-16.007074,14.834578,-5.082364,11.038457
0.662,88.419174,71.99696,-14.863707,13.560373,-6.529663,12.562665
0.664,87.58804,74.8248,-13.216579,12.3533,-7.9577827,13.664438
0.666,86.6181,77.55209,-11.079446,11.252914,-9.34429,14.267844
0.668,85.47689,80.119354,-8.515762,10.29054,-10.665378,14.346538
0.67,84.143234,82.49191,-5.594998,9.486019,-11.897234,13.923153
0.672,82.6374,84.61699,-2.3879042,8.845302,-13.018253,13.060768
0.674,80.957146,86.458855,1.0408773,8.362915,-14.010932,11.853104
0.676,79.10074,87.98312,4.6366854,8.024914,-14.8626585,10.413013
0.678,77.07329,89.16012,8.338836,7.8109975,-15.566309,8.858877
0.68,74.88458,89.967384,12.088308,7.6969013,-16.119892,7.301739
0.682,72.55084,90.3897,15.830943,7.6576996,-16.524694,5.8345156
0.684,70.08045,90.43373,19.516212,7.6710076,-16.785385,4.526638
0.686,67.49696,90.12065,23.092644,7.7181664,-16.910118,3.4239058
0.688,64.82341,89.48315,26.520939,7.7854166,-16.909258,2.5472803
0.69,62.0823,88.55349,29.771923,7.865198,-16.792423,1.891803
0.692,59.301594,87.36413,32.81087,7.9557257,-16.568316,1.4319363
0.694,56.503525,85.950935,35.601665,8.0592985,-16.245405,1.130791
0.696,53.70215,84.34912,38.120743,8.179177,-15.8323555,0.9469538
0.698,50.910778,82.592094,40.35279,8.317788,-15.338668,0.8400707
0.7,48.14232,80.71606,42.29421,8.476999,-14.774137,0.77630925
0.702,45.42133,78.74945,43.94762,8.658153,-14.148937,0.73122025
0.704,42.771168,76.716965,45.319374,8.860315,-13.474085,0.6903758
0.706,40.199764,74.64079,46.420162,9.079826,-12.7609215,0.6483693
0.708,37.707455,72.53827,47.255657,9.311336,-12.020782,0.60610723
0.71,35.302185,70.41859,47.826206,9.548958,-11.264906,0.56803036
0.712,32.995644,68.28147,48.13283,9.786542,-10.504061,0.54047537
0.714,30.798454,66.13702,48.18952,10.018118,-9.748012,0.5300889
0.716,28.70747,64.00782,48.01913,10.238587,-9.005253,0.54225254
0.718,26.723879,61.91345,47.642765,10.444126,-8.282859,0.5801339
0.72,24.851814,59.86699,47.077118,10.632176,-7.5864286,0.64442873
0.722,23.09174,57.875984,46.3407,10.801267,-6.920203,0.73347807
0.724,21.449476,55.942757,45.45134,10.950652,-6.2872443,0.84367704
0.726,19.920864,54.07537,44.427437,11.079838,-5.6897535,0.97022676
0.728,18.505457,52.28214,43.287437,11.188305,-5.1293163,1.1079597
0.73,17.203476,50.571724,42.05178,11.275341,-4.607199,1.251966
0.732,16.016409,48.953,40.74348,11.339956,-4.1245165,1.3980274
0.734,14.943914,47.43238,39.3832,11.380877,-3.6823092,1.5428548
0.736,13.978941,46.00876,37.988586,11.396606,-3.2815466,1.6841121
0.738,13.111082,44.674324,36.573994,11.385553,-2.9230757,1.8202186
0.74,12.330032,43.420822,35.153233,11.346249,-2.607546,1.9501534
0.742,11.6270275,42.242188,33.739075,11.277559,-2.3353174,2.0732126
0.744,10.99432,41.13289,32.344078,11.178885,-2.106328,2.1888437
0.746,10.425209,40.088722,30.979816,11.050282,-1.9200261,2.2964444
0.748,9.912977,39.106865,29.657398,10.892519,-1.7753341,2.395289
0.75,9.451126,38.18637,28.38725,10.7071,-1.6706378,2.4844859
0.752,9.033785,37.32687,27.179398,10.49624,-1.6038291,2.5630124
0.754,8.654655,36.528305,26.04324,10.262768,-1.5723438,2.6297493
0.756,8.308161,35.789772,24.986914,10.009956,-1.5732002,2.6835248
0.758,7.988514,35.10949,24.017653,9.741364,-1.6031109,2.7231934
0.76,7.6898994,34.484043,23.141659,9.460703,-1.6585896,2.747674
0.762,7.406563,33.90861,22.36382,9.171654,-1.7360338,2.7560494
0.764,7.1327477,33.377357,21.687168,8.877719,-1.8317922,2.7476285
0.766,6.8629932,32.88328,21.113289,8.582118,-1.9423057,2.72202
0.768,6.5921564,32.419243,20.642143,8.287722,-2.0641448,2.679165
0.77,6.3154383,31.977802,20.272606,7.9969974,-2.1940978,2.6193893
0.772,6.0288715,31.551815,20.00206,7.71198,-2.3292065,2.5433898
0.774,5.7286043,31.13461,19.826859,7.434274,-2.4668264,2.452208
0.776,5.411907,30.719875,19.742659,7.165128,-2.6046607,2.3472366
0.778,5.0761356,30.30202,19.744257,6.9054956,-2.7407331,2.230172
0.78,4.719552,29.876083,19.825592,6.6560774,-2.873306,2.102896
0.782,4.3408527,29.43789,19.98008,6.4173546,-3.000856,1.9673846
0.784,3.939271,28.983711,20.20041,6.1896577,-3.121988,1.8255992
0.786,3.5145273,28.510529,20.478918,5.9732313,-3.2353764,1.6794729
0.788,3.0668402,28.015753,20.80744,5.768261,-3.3397439,1.5308216
0.79,2.5968065,27.49744,21.177399,5.5748343,-3.433779,1.3813214
0.792,2.105484,26.953999,21.580273,5.3929815,-3.5161493,1.2325222
0.794,1.5943232,26.384535,22.007399,5.2226152,-3.5855649,1.0858579
0.796,1.0652647,25.788754,22.45014,5.0635185,-3.6408482,0.94269204
0.798,0.52119637,25.166618,22.89981,4.9153385,-3.6810198,0.80429816
0.8,-0.035043716,24.518768,23.348475,4.777556,-3.7053556,0.6719353
0.802,-0.6007738,23.846252,23.788944,4.649478,-3.7134924,0.5468459
0.804,-1.1724377,23.150368,24.214924,4.5302567,-3.705473,0.43020153
0.806,-1.7467489,22.432844,24.620907,4.4189043,-3.681693,0.32308292
0.808,-2.3200626,21.695868,25.00163,4.3143206,-3.64285,0.22640753
0.81,-2.8887396,20.941738,25.352749,4.2153015,-3.5899684,0.14086771
0.812,-3.4494457,20.172926,25.670666,4.120551,-3.524317,0.06691837
0.814,-3.9986296,19.392078,25.952662,4.02868,-3.4473581,0.0047211647
0.816,-4.5331764,18.60189,26.196775,3.9382324,-3.360691,-0.045841336
0.818,-5.04988,17.805157,26.401794,3.847715,-3.2659762,-0.08516872
0.82,-5.5459805,17.004906,26.56744,3.755609,-3.1648555,-0.11389804
0.822,-6.018923,16.204025,26.693598,3.6604104,-3.0588634,-0.13284862
0.824,-6.4666243,15.40564,26.78082,3.5606513,-2.949377,-0.14298713
0.826,-6.8873177,14.612777,26.830189,3.4549909,-2.8375335,-0.14533436
0.828,-7.2793818,13.828423,26.842873,3.3421986,-2.724178,-0.14094341
0.83,-7.641756,13.05553,26.820744,3.2212396,-2.6098747,-0.1308502
0.832,-7.973675,12.297108,26.76545,3.0912762,-2.4948714,-0.11603868
0.834,-8.274576,11.555963,26.679003,2.9517312,-2.379165,-0.09740555
0.836,-8.544369,10.834906,26.563263,2.8022616,-2.2625592,-0.075758696
0.838,-8.783219,10.136455,26.420132,2.6428077,-2.144728,-0.05180204
0.84,-8.991669,9.463072,26.251234,2.4735744,-2.0252771,-0.026161194
0.842,-9.169876,8.817001,26.058071,2.2949924,-1.9038141,0.0006453991
0.844,-9.318617,8.200216,25.8419,2.1077204,-1.7800099,0.028211713
0.846,-9.438526,7.6143475,25.603794,1.9125618,-1.6536099,0.056200504
0.848,-9.530394,7.0609837,25.344894,1.7104309,-1.524461,0.084328175
0.85,-9.595053,6.541486,25.066366,1.5023098,-1.392502,0.11236149
0.852,-9.633715,6.056988,24.76915,1.289157,-1.2577834,0.14014882
0.854,-9.647377,5.608548,24.454597,1.0719126,-1.1205107,0.16755915
0.856,-9.637099,5.1967707,24.123615,0.85148716,-0.98100865,0.19448423
0.858,-9.603891,4.8222322,23.777164,0.6287367,-0.83971435,0.22085595
0.86,-9.548805,4.484974,23.41626,0.4044753,-0.6972061,0.24661106
0.862,-9.472895,4.185052,23.041702,0.1794921,-0.5542203,0.27168074
0.864,-9.37695,3.9220867,22.654455,-0.045420095,-0.4115389,0.2960027
0.866,-9.262234,3.695509,22.255325,-0.2694649,-0.2699758,0.31950223
0.868,-9.129604,3.5045195,21.845095,-0.49185264,-0.13036104,0.34205824
0.87,-8.9800415,3.3480434,21.4247,-0.71178293,0.0065070987,0.36347875
0.872,-8.814684,3.2249393,20.995382,-0.9284605,0.13990974,0.3835229
0.874,-8.634614,3.1337452,20.558544,-1.1411307,0.2692402,0.40185952
0.876,-8.440947,3.072976,20.115534,-1.3490722,0.3939977,0.41811007
0.878,-8.2350445,3.0410204,19.667622,-1.5516233,0.51386416,0.43179864
0.88,-8.017965,3.0360203,19.215954,-1.7482114,0.62867844,0.442375
0.882,-7.791009,3.0561318,18.761744,-1.9383283,0.7384307,0.44927153
0.884,-7.555455,3.0993042,18.305817,-2.1215792,0.8432387,0.4519005
0.886,-7.312553,3.1635447,17.849037,-2.2976618,0.9433068,0.44973925
0.888,-7.063757,3.2466965,17.392473,-2.4663825,1.0388911,0.4423399
0.89,-6.810657,3.3468533,16.937185,-2.6276207,1.1302531,0.42939043
0.892,-6.5544367,3.461769,16.484056,-2.7813652,1.2176528,0.41073978
0.894,-6.296436,3.5895967,16.034142,-2.927686,1.3013413,0.38644385
0.896,-6.0380287,3.7285452,15.5879545,-3.066735,1.3815465,0.35675597
0.898,-5.780452,3.8768659,15.145916,-3.1987529,1.4584498,0.32209694
0.9,-5.5247135,4.0331144,14.708328,-3.324047,1.5322143,0.28305686
0.902,-5.2720437,4.1960278,14.275351,-3.4429865,1.6029997,0.24034226
0.904,-5.023333,4.3646007,13.847045,-3.5559843,1.6709192,0.19471014
0.906,-4.7793846,4.537853,13.423448,-3.6634927,1.736067,0.1469202
0.908,-4.541006,4.715242,13.004261,-3.7659988,1.798547,0.09773302
0.91,-4.3086586,4.8964133,12.589031,-3.8640208,1.8584471,0.047872186
0.912,-4.0827255,5.0810966,12.177164,-3.9580808,1.915818,-0.0020413399
0.914,-3.8634868,5.269387,11.768051,-4.048699,1.9707183,-0.051424026
0.916,-3.6511474,5.4614334,11.360977,-4.1363606,2.02319,-0.099775314
0.918,-3.4456,5.6575737,10.955324,-4.2215385,2.0732641,-0.1466825
0.92,-3.246811,5.858338,10.550186,-4.304642,2.1209435,-0.19177663
0.922,-3.0543768,6.0643597,10.144631,-4.3860016,2.1662126,-0.23475349
0.924,-2.8679185,6.2761326,9.7378025,-4.465883,2.2090476,-0.2753502
0.926,-2.6869688,6.4942923,9.328765,-4.544481,2.2493994,-0.31337774
0.928,-2.5110095,6.7193966,8.916676,-4.621898,2.2872272,-0.34866703
0.93,-2.3394978,6.9518757,8.500548,-4.698183,2.322466,-0.38113463
0.932,-2.1718345,7.1921225,8.079741,-4.7733154,2.3550298,-0.4107399
0.934,-2.0072913,7.4402943,7.653374,-4.8472376,2.3848505,-0.43751216
0.936,-1.8452849,7.696273,7.2208023,-4.9198437,2.4118435,-0.46156
0.938,-1.6850662,7.9596596,6.781502,-4.9910145,2.435938,-0.4830439
0.94,-1.5261526,8.230071,6.3349333,-5.060627,2.4570196,-0.5022235
0.942,-1.3681288,8.506666,5.8809314,-5.1285477,2.4749722,-0.51942873
0.944,-1.2106228,8.788539,5.419479,-5.194643,2.489656,-0.5350871
0.946,-1.053149,9.07454,4.9505844,-5.2588053,2.5008717,-0.54972506
0.948,-0.8953996,9.363188,4.4746723,-5.320966,2.5083575,-0.56393385
0.95,-0.7369919,9.652763,3.992308,-5.381112,2.511797,-0.5783706
0.952,-0.57809544,9.941737,3.5042934,-5.4392977,2.510808,-0.5937376
0.954,-0.41862726,10.228191,3.011692,-5.495682,2.5049415,-0.6107464
0.956,-0.25878334,10.510215,2.5158439,-5.550518,2.4937208,-0.63006425
0.958,-0.098834515,10.785763,2.018126,-5.604166,2.4766295,-0.6522739
0.96,0.061003685,11.052923,1.5205436,-5.6570916,2.453137,-0.67784166
0.962,0.2203002,11.309792,1.0251422,-5.70984,2.4227495,-0.70707345
0.964,0.37866712,11.554509,0.53416514,-5.7629957,2.3850372,-0.7401004
0.966,0.5355563,11.785456,0.05020809,-5.8171377,2.3396587,-0.7768445
0.968,0.6904464,12.001123,-0.42395067,-5.8727856,2.2863848,-0.8170414
0.97,0.84263587,12.200266,-0.885633,-5.9303446,2.2251456,-0.8602369
0.972,0.9915724,12.381641,-1.331917,-5.9900475,2.1560416,-0.9058111
0.974,1.1363914,12.544623,-1.7599888,-6.0518913,2.0793881,-0.95305586
0.976,1.27665,12.688502,-2.1670082,-6.115625,1.9957612,-1.0011764
0.978,1.4115648,12.812879,-2.5502386,-6.18075,1.9059815,-1.0493999
0.98,1.5406182,12.917691,-2.9074116,-6.246517,1.8110874,-1.0969543
0.982,1.663224,13.002873,-3.2363524,-6.3119583,1.7123674,-1.1431403
0.984,1.7787716,13.068869,-3.5352397,-6.3759747,1.6113435,-1.1873212
0.986,1.886802,13.116297,-3.8029423,-6.4373727,1.5096995,-1.2289443
0.988,1.986823,13.145805,-4.038474,-6.494913,1.409223,-1.267535
0.99,2.0786185,13.158442,-4.2415047,-6.5474014,1.3117708,-1.3027284
0.992,2.1617575,13.155094,-4.412195,-6.593741,1.2191706,-1.3342593
0.994,2.2361047,13.137061,-4.5508757,-6.6329694,1.1331642,-1.3619387
0.996,2.3015187,13.105516,-4.65832,-6.6643295,1.0553367,-1.3856559
0.998,2.3579254,13.0618515,-4.7361207,-6.6872663,0.9870435,-1.4053612
1,2.4053063,13.007354,-4.786065,-6.701459,0.9293401,-1.4210546
1.002,2.4438286,12.943654,-4.810199,-6.706766,0.88296926,-1.4328034
1.004,2.4733858,12.872229,-4.8109937,-6.7032537,0.8483535,-1.4407008
1.006,2.4941957,12.794606,-4.790824,-6.6911435,0.82563007,-1.4448636
1.008,2.5063486,12.712416,-4.752421,-6.670771,0.8146517,-1.4454281
1.01,2.510045,12.626869,-4.698292,-6.6425486,0.8150451,-1.4425616
1.012,2.50583,12.539432,-4.6312633,-6.6069136,0.82632685,-1.4364166
1.014,2.4939518,12.45143,-4.554082,-6.564269,0.8479394,-1.427181
1.016,2.474894,12.364118,-4.469448,-6.5149517,0.8793069,-1.4150546
1.018,2.4491565,12.27859,-4.3797703,-6.459244,0.919883,-1.400264
1.02,2.417266,12.195778,-4.2873797,-6.397309,0.96919215,-1.383023
1.022,2.3798614,12.1166525,-4.194495,-6.329254,1.026815,-1.3635333
1.024,2.3376138,12.041761,-4.1031137,-6.255115,1.0923884,-1.3419623
1.026,2.2912416,11.971914,-4.015116,-6.1749163,1.1655838,-1.3184476
1.028,2.2413154,11.907577,-3.9322276,-6.0887165,1.2460463,-1.2930622
1.03,2.1887074,11.849069,-3.8558383,-5.9966335,1.3333484,-1.2658072
1.032,2.134226,11.796686,-3.7874153,-5.898863,1.4269599,-1.2366118
1.034,2.078475,11.7506895,-3.7280226,-5.7957134,1.5262511,-1.2054021
1.036,2.0223546,11.711154,-3.6785097,-5.6876287,1.630414,-1.1721077
1.038,1.9666499,11.678067,-3.6396565,-5.575179,1.7384591,-1.1366699
1.04,1.912349,11.651271,-3.6118927,-5.459097,1.8492022,-1.0990565
1.042,1.8603202,11.630383,-3.5956392,-5.3402348,1.9612968,-1.059298
1.044,1.8112347,11.615042,-3.5906663,-5.2195377,2.0732641,-1.0174556
1.046,1.7659246,11.605011,-3.5969636,-5.0980053,2.1835778,-0.9736781
1.048,1.725139,11.599837,-3.6141171,-4.9766645,2.2907393,-0.9281678
1.05,1.6895127,11.599043,-3.6416497,-4.856533,2.3933458,-0.88120985
1.052,1.6598926,11.602165,-3.6789446,-4.7385273,2.4902148,-0.8331766
1.054,1.6368192,11.608631,-3.7254567,-4.623455,2.5804796,-0.7844939
1.056,1.6206194,11.617758,-3.7802906,-4.511984,2.663613,-0.7356453
1.058,1.6117823,11.629091,-3.8426917,-4.404583,2.7394664,-0.68715143
1.06,1.6107204,11.642023,-3.9118958,-4.301502,2.8082798,-0.63953567
1.062,1.6179066,11.655814,-3.98707,-4.20283,2.8706448,-0.5932956
1.064,1.6334622,11.669841,-4.06748,-4.1084633,2.9273984,-0.54888487
1.066,1.6577137,11.683547,-4.15238,-4.018154,2.9795582,-0.5066906
1.068,1.690753,11.696285,-4.2410536,-3.9315815,3.0282154,-0.46697557
1.07,1.7325573,11.707445,-4.333113,-3.8483553,3.0744562,-0.42988968
1.072,1.783174,11.716423,-4.428106,-3.7680666,3.1192846,-0.3954847
1.074,1.8424058,11.72276,-4.5257044,-3.6903539,3.16357,-0.36376083
1.076,1.9099238,11.72606,-4.6257124,-3.6148577,3.2080128,-0.33466518
1.078,1.9855053,11.72594,-4.72806,-3.5412924,3.2531419,-0.308151
1.08,2.0686152,11.7221365,-4.8326764,-3.4694138,3.2993324,-0.2842182
1.082,2.1587775,11.714512,-4.9395275,-3.3990264,3.3468332,-0.26291966
1.084,2.2554357,11.702841,-5.048707,-3.33,3.395753,-0.24436235
1.086,2.3578572,11.687348,-5.160429,-3.2622633,3.4461074,-0.22867548
1.088,2.4653168,11.668006,-5.2747345,-3.1958127,3.4978235,-0.21597743
1.09,2.5770116,11.644983,-5.391695,-3.1306725,3.550766,-0.20633256
1.092,2.6920261,11.618754,-5.5114737,-3.0669093,3.604754,-0.19974792
1.094,2.8095796,11.589423,-5.6341734,-3.0046077,3.6595838,-0.19613564
1.096,2.9289238,11.557354,-5.759674,-2.9438908,3.7150238,-0.19530344
1.098,3.049231,11.522915,-5.88805,-2.8849103,3.7708387,-0.196975
1.1,3.1694095,11.486626,-6.019157,-2.8278122,3.8267999,-0.20079803
1.102,3.2888749,11.448977,-6.1528344,-2.772734,3.8827088,-0.2064097
1.104,3.4068785,11.410488,-6.2890472,-2.7198148,3.9383967,-0.21345508
1.106,3.5227773,11.371494,-6.4276533,-2.6691751,3.993743,-0.22162211
1.108,3.6361728,11.332446,-6.568306,-2.6208773,4.0486474,-0.23066902
1.11,3.7466874,11.293754,-6.710724,-2.5749526,4.1030655,-0.24043119
1.112,3.8538115,11.255559,-6.8548517,-2.5313811,4.156971,-0.25079918
1.114,3.9574778,11.218164,-7.0004196,-2.490104,4.2103276,-0.2617228
1.116,4.057558,11.181637,-7.1472273,-2.4510012,4.263096,-0.27318728
1.118,4.154093,11.146019,-7.295009,-2.4139388,4.315224,-0.28519392
1.12,4.2471385,11.111391,-7.443616,-2.378759,4.366616,-0.29776227
1.122,4.336792,11.077623,-7.592627,-2.3452945,4.4171147,-0.31094092
1.124,4.42342,11.044379,-7.741762,-2.3134174,4.4665065,-0.32480705
1.126,4.5071583,11.011511,-7.8906293,-2.2830288,4.514533,-0.33945823
1.128,4.588499,10.978434,-8.038967,-2.2540758,4.5608625,-0.3550141
1.13,4.6676946,10.944772,-8.186284,-2.2265718,4.605101,-0.37163746
1.132,4.7453766,10.909856,-8.332068,-2.200563,4.6468,-0.3895136
1.134,4.821887,10.873101,-8.475906,-2.1761432,4.6854744,-0.40882134
1.136,4.898002,10.833672,-8.617343,-2.1534452,4.7206364,-0.42978245
1.138,4.973656,10.7911825,-8.755568,-2.1325927,4.751833,-0.45261097
1.14,5.04928,10.74488,-8.889992,-2.1137009,4.778686,-0.47751844
1.142,5.1249185,10.6940365,-9.019777,-2.0968497,4.8009024,-0.50469977
1.144,5.2013335,10.637777,-9.144601,-2.0820541,4.818316,-0.53432965
1.146,5.278698,10.575436,-9.264117,-2.0692573,4.8309107,-0.5665377
1.148,5.3571296,10.506517,-9.377706,-2.0583007,4.8388247,-0.6013983
1.15,5.436467,10.430681,-9.484922,-2.0489502,4.842346,-0.6388979
1.152,5.5168715,10.347626,-9.585266,-2.0408907,4.841925,-0.6789673
1.154,5.5983863,10.257159,-9.678581,-2.033737,4.8381033,-0.7214396
1.156,5.680867,10.158809,-9.764342,-2.0270572,4.831526,-0.766065
1.158,5.7640915,10.0525875,-9.842451,-2.0203834,4.822893,-0.8125118
1.16,5.848037,9.93842,-9.912797,-2.0132596,4.812912,-0.86039466
1.162,5.9321713,9.816461,-9.975418,-2.0052428,4.8022666,-0.9093188
1.164,6.016509,9.6868,-10.030278,-1.9959066,4.7915897,-0.95885205
1.166,6.1007895,9.549829,-10.077646,-1.9848552,4.781414,-1.0085167
1.168,6.1847205,9.405831,-10.117736,-1.9717386,4.7722125,-1.0578983
1.17,6.2679048,9.255396,-10.150846,-1.9562391,4.764401,-1.1066993
1.172,6.3501625,9.099144,-10.177596,-1.938093,4.758366,-1.1546413
1.174,6.4312334,8.937803,-10.19827,-1.9171085,4.754351,-1.2014406
1.176,6.5108395,8.772017,-10.213558,-1.893148,4.7524714,-1.2468183
1.178,6.5888085,8.60253,-10.223871,-1.8661166,4.752806,-1.2905343
1.18,6.6650352,8.430123,-10.22987,-1.8359977,4.755374,-1.3323891
1.182,6.739402,8.255585,-10.232004,-1.8028452,4.760148,-1.3722315
1.184,6.811864,8.079725,-10.230954,-1.7668145,4.7670426,-1.4099331
1.186,6.882263,7.90326,-10.227147,-1.7281531,4.775986,-1.4454236
1.188,6.9505925,7.7269125,-10.221061,-1.687175,4.786873,-1.4786853
1.19,7.0169835,7.5514245,-10.213131,-1.6442401,4.799591,-1.5097324
1.192,7.081325,7.377419,-10.203704,-1.5997107,4.8140016,-1.5386146
1.194,7.1438036,7.205487,-10.193146,-1.5539138,4.829945,-1.5653917
1.196,7.204487,7.0359874,-10.181549,-1.5071111,4.847238,-1.5900905
1.198,7.263482,6.86953,-10.169256,-1.4594867,4.86569,-1.6127124
1.2,7.3207617,6.70641,-10.156314,-1.4111018,4.8850856,-1.6332464
1.202,7.3766885,6.5468354,-10.142868,-1.361918,4.9052296,-1.6516813
1.204,7.4311852,6.3911533,-10.128881,-1.3117837,4.9259534,-1.6680212
1.206,7.484279,6.2394314,-10.114501,-1.2604932,4.947145,-1.6822703
1.208,7.536172,6.0917892,-10.099641,-1.2078192,4.968792,-1.69446
1.21,7.5869517,5.9481206,-10.084329,-1.1535535,4.990946,-1.7046722
1.212,7.636808,5.8083267,-10.068586,-1.0975221,5.0137277,-1.7130041
1.214,7.685891,5.6722174,-10.052415,-1.0395865,5.037334,-1.719549
1.216,7.734218,5.539763,-10.035915,-0.97968936,5.0619926,-1.724413
1.218,7.781927,5.4105988,-10.018957,-0.9178298,5.087923,-1.7277098
1.22,7.8291144,5.2843637,-10.001601,-0.854027,5.1153255,-1.7295463
1.222,7.8759856,5.160764,-9.9838295,-0.7883171,5.1443186,-1.7299771
1.224,7.922641,5.0394697,-9.965732,-0.7207507,5.1749334,-1.7289953
1.226,7.9691443,4.9202595,-9.947338,-0.65137726,5.207094,-1.726673
1.228,8.015609,4.802726,-9.92858,-0.58025193,5.2406936,-1.7231317
1.23,8.062258,4.6866145,-9.909514,-0.50746965,5.2755766,-1.7185146
1.232,8.109114,4.5716143,-9.890242,-0.43318725,5.3114686,-1.7129552
1.234,8.156222,4.457629,-9.870754,-0.35759628,5.348031,-1.7065811
1.236,8.20386,4.344387,-9.851144,-0.28092486,5.3848925,-1.6994973
1.238,8.251915,4.231818,-9.83133,-0.20343894,5.4216585,-1.6917993
1.24,8.300645,4.1196113,-9.81144,-0.12543523,5.4579062,-1.6835601
1.242,8.349903,4.007784,-9.791354,-0.047195733,5.4932356,-1.6748005
1.244,8.399765,3.8962922,-9.7711315,0.031001031,5.527264,-1.6655053
1.246,8.450123,3.785039,-9.750675,0.10889292,5.5596175,-1.6556464
1.248,8.5015545,3.6736045,-9.730165,0.18625236,5.5899515,-1.6452006
1.25,8.55376,3.5622427,-9.709354,0.26288182,5.6179953,-1.6341357
1.252,8.606947,3.4508147,-9.688495,0.33861452,5.643521,-1.6224225
1.254,8.660696,3.3396358,-9.667216,0.4132818,5.6663485,-1.6100483
1.256,8.7149315,3.2284908,-9.645412,0.48673087,5.686335,-1.5970553
1.258,8.769761,3.1173584,-9.623143,0.55880773,5.703414,-1.5835093
1.26,8.8249855,3.0061815,-9.600275,0.629361,5.717537,-1.5694817
1.262,8.880726,2.8948236,-9.577049,0.69824827,5.7286835,-1.555045
1.264,8.936678,2.783359,-9.553371,0.7653401,5.736877,-1.5402957
1.266,8.992818,2.6718721,-9.5294485,0.830506,5.74214,-1.5253254
1.268,9.048937,2.5603137,-9.505067,0.89361835,5.744495,-1.5102137
1.27,9.104791,2.4487536,-9.4803095,0.95457417,5.743958,-1.4949862
1.272,9.160264,2.3370676,-9.455155,1.0132887,5.7405553,-1.4796367
1.274,9.215168,2.2254157,-9.42981,1.0696708,5.7343154,-1.4641439
1.276,9.269289,2.1138246,-9.404192,1.1236498,5.7252235,-1.4484514
1.278,9.322452,2.002307,-9.378355,1.1751637,5.713253,-1.4324722
1.28,9.374454,1.8908954,-9.352356,1.224149,5.698416,-1.4161128
1.282,9.425003,1.7796267,-9.326065,1.2705655,5.680722,-1.3993028
1.284,9.474153,1.6686131,-9.299711,1.3143638,5.6601453,-1.3819617
1.286,9.521637,1.5578896,-9.273051,1.355512,5.636658,-1.3640426
1.288,9.567223,1.4476368,-9.246218,1.3939922,5.610246,-1.3455424
1.29,9.610811,1.3380044,-9.219091,1.4297733,5.5808992,-1.3265057
1.292,9.652219,1.2289865,-9.191573,1.4628485,5.5486,-1.3069935
1.294,9.6914625,1.120618,-9.163568,1.493222,5.51333,-1.287107
1.296,9.728508,1.0129293,-9.135099,1.5208998,5.4750705,-1.2669998
1.298,9.76334,0.9060844,-9.106033,1.5459152,5.4338346,-1.2468288
1.3,9.795702,0.80009997,-9.076248,1.5683165,5.389661,-1.2267454
1.302,9.825762,0.69507277,-9.045641,1.5881903,5.3426204,-1.2068696
1.304,9.85341,0.59097683,-9.014009,1.6056376,5.2927804,-1.1873375
1.306,9.878782,0.48795652,-8.981403,1.6207638,5.2402425,-1.1682303
1.308,9.901804,0.38598108,-8.9476385,1.6336963,5.185155,-1.1495879
1.31,9.922701,0.2851833,-8.912758,1.6445307,5.1276565,-1.1313933
1.312,9.941435,0.18554151,-8.876682,1.6533434,5.0678988,-1.1135987
1.314,9.958271,0.08720851,-8.839285,1.6602035,5.0060587,-1.0961586
1.316,9.973341,-0.009770513,-8.800545,1.6651301,4.942306,-1.0789955
1.318,9.987019,-0.10533488,-8.760505,1.6681117,4.8767776,-1.0619841
1.32,9.999056,-0.19919479,-8.719083,1.6691283,4.809572,-1.0450081
1.322,10.009204,-0.29110885,-8.675894,1.6681061,4.740753,-1.0279492
1.324,10.017864,-0.38113594,-8.631088,1.6649473,4.6703,-1.0106905
1.326,10.025499,-0.46933997,-8.584657,1.6595469,4.5981536,-0.9931035
1.328,10.032317,-0.5554136,-8.536589,1.6517998,4.524204,-0.9750626
1.33,10.038271,-0.6392846,-8.48675,1.6416274,4.4483385,-0.9564792
1.332,10.0435295,-0.7207484,-8.434974,1.6289778,4.37045,-0.93731296
1.334,10.04812,-0.79985654,-8.381186,1.6138318,4.290429,-0.91759
1.336,10.052102,-0.8765662,-8.325223,1.5962164,4.2082453,-0.8973874
1.338,10.055746,-0.95074856,-8.267008,1.5762262,4.1239657,-0.87684906
1.34,10.058912,-1.022393,-8.206305,1.5539862,4.0377164,-0.8561896
1.342,10.061586,-1.0914243,-8.143038,1.529659,3.9497082,-0.83563864
1.344,10.063987,-1.157977,-8.076979,1.5034661,3.8601997,-0.81540966
1.346,10.06592,-1.2220527,-8.00795,1.4756498,3.7695198,-0.79568756
1.348,10.067507,-1.283716,-7.9358535,1.4464666,3.6779802,-0.776548
1.35,10.0687685,-1.3429868,-7.8605127,1.4161763,3.585935,-0.7580408
1.352,10.069639,-1.4001164,-7.781914,1.3850793,3.4938395,-0.74017155
1.354,10.070169,-1.4550885,-7.69981,1.3534281,3.4021287,-0.7228499
1.356,10.069925,-1.5079821,-7.614071,1.3214529,3.3111517,-0.7059267
1.358,10.068686,-1.5587021,-7.524472,1.2893784,3.2213027,-0.6892105
1.36,10.066698,-1.6076798,-7.4314327,1.2574292,3.1330235,-0.6725377
1.362,10.063947,-1.6549476,-7.334724,1.2257955,3.0467372,-0.65572923
1.364,10.060263,-1.7006018,-7.2344766,1.1946361,2.962882,-0.6386396
1.366,10.055522,-1.7445596,-7.1308465,1.1640966,2.8818855,-0.62114656
1.368,10.049597,-1.7870643,-7.0241194,1.1342702,2.8041553,-0.6031576
1.37,10.0426235,-1.8280047,-6.914562,1.1052232,2.7300715,-0.58459526
1.372,10.033985,-1.8672482,-6.802064,1.0769894,2.6599846,-0.5653645
1.374,10.023866,-1.905039,-6.6871037,1.0495794,2.5941517,-0.54537976
1.376,10.012115,-1.9412609,-6.569969,1.0230081,2.5327637,-0.52452916
1.378,9.998724,-1.9759213,-6.451029,0.99730647,2.4759388,-0.502675
1.38,9.983607,-2.0090022,-6.330548,0.9725078,2.4236858,-0.47963136
1.382,9.966658,-2.040309,-6.2088385,0.94865584,2.3759394,-0.45518315
1.384,9.947708,-2.0698104,-6.086167,0.9258233,2.3325665,-0.42908984
1.386,9.926716,-2.0974977,-5.9629993,0.90413344,2.293445,-0.40115327
1.388,9.903489,-2.1232376,-5.8395615,0.8837374,2.2585163,-0.3712315
1.39,9.878058,-2.14705,-5.716046,0.86474586,2.2276733,-0.33923805
1.392,9.850508,-2.1689057,-5.592932,0.8472724,2.2008119,-0.3051731
1.394,9.820654,-2.1889472,-5.4704432,0.83142364,2.1778708,-0.2691102
1.396,9.788784,-2.2070732,-5.3489656,0.8172845,2.1588702,-0.23122507
1.398,9.755041,-2.2233646,-5.2287087,0.8049067,2.1438525,-0.19176662
1.4,9.719233,-2.2377796,-5.109997,0.7942995,2.132879,-0.15102714
1.402,9.681681,-2.250391,-4.9932833,0.7854173,2.1260428,-0.10934579
1.404,9.642298,-2.261105,-4.87871,0.7781753,2.1233954,-0.066991985
1.406,9.601385,-2.2698765,-4.766478,0.7724087,2.1248908,-0.024190605
1.408,9.559093,-2.2769108,-4.6568246,0.76794505,2.1305184,0.018857062
1.41,9.515642,-2.2821188,-4.5500774,0.76457286,2.1402197,0.062038004
1.412,9.47123,-2.2855082,-4.4464035,0.7620369,2.1537757,0.105339885
1.414,9.4261,-2.2870991,-4.3460364,0.76007783,2.1708243,0.14886475
1.416,9.380355,-2.2867982,-4.248992,0.75845194,2.1909158,0.19279444
1.418,9.334398,-2.2847266,-4.15542,0.7569629,2.213521,0.23735976
1.42,9.288414,-2.2808795,-4.06536,0.75540876,2.238047,0.28276187
1.422,9.242593,-2.2751787,-3.9788182,0.7536218,2.2638626,0.32919693
1.424,9.197037,-2.267643,-3.895855,0.75145364,2.290357,0.37677932
1.426,9.151787,-2.2582073,-3.8162649,0.74876535,2.316982,0.4254951
1.428,9.106975,-2.246991,-3.7398932,0.74540985,2.3432918,0.4752202
1.43,9.06321,-2.234292,-3.6665907,0.7412347,2.368897,0.5256839
1.432,9.020685,-2.2200415,-3.5963764,0.73606324,2.3935437,0.5765015
1.434,8.978992,-2.2042356,-3.5286841,0.7297349,2.417067,0.6271949
1.436,8.937948,-2.1868582,-3.4631715,0.7221101,2.4393978,0.67726636
1.438,8.897747,-2.168149,-3.399562,0.7130492,2.4605403,0.72623074
1.44,8.858546,-2.1481977,-3.3375173,0.70243526,2.480497,0.7736857
1.442,8.820296,-2.1273336,-3.2767594,0.69020545,2.499289,0.81934476
1.444,8.78306,-2.1055448,-3.216898,0.67636466,2.5170326,0.86301553
1.446,8.746859,-2.0830002,-3.157677,0.6609638,2.533852,0.9046444
1.448,8.71143,-2.05983,-3.0988252,0.64406335,2.54984,0.94433105
1.45,8.676815,-2.0361876,-3.040125,0.62576425,2.5650752,0.98228276
1.452,8.6431265,-2.0122094,-2.9812164,0.60620046,2.5796669,1.0188046
1.454,8.610144,-1.9879434,-2.9220514,0.58552074,2.5937326,1.0542411
1.456,8.577909,-1.9634281,-2.8624923,0.5638784,2.6074069,1.0889496
1.458,8.546399,-1.9387721,-2.8024626,0.54141283,2.6208563,1.1232675
1.46,8.515409,-1.9139644,-2.7419724,0.51825833,2.63425,1.1574818
1.462,8.485194,-1.8890239,-2.6810904,0.49452817,2.6477604,1.1918154
1.464,8.455662,-1.8641093,-2.6199112,0.4703108,2.661565,1.2263987
1.466,8.427058,-1.83914,-2.5585835,0.44568098,2.6758232,1.2612938
1.468,8.399528,-1.8142236,-2.497476,0.4206947,2.6906657,1.2964847
1.47,8.3728,-1.7892221,-2.436379,0.3954149,2.7061975,1.3318708
1.472,8.346795,-1.7641249,-2.3755822,0.36988735,2.722478,1.367309
1.474,8.321784,-1.7390698,-2.3152986,0.34418535,2.7395403,1.402641
1.476,8.297941,-1.7140131,-2.2557435,0.31836343,2.7574244,1.4376504
1.478,8.27535,-1.6889876,-2.1970727,0.29244876,2.7761366,1.4721179
1.48,8.254107,-1.664143,-2.1395528,0.26645935,2.7956684,1.505834
1.482,8.234492,-1.6395403,-2.083392,0.24036682,2.8159785,1.5386138
1.484,8.216681,-1.6151404,-2.028704,0.21412325,2.8370516,1.570309
1.486,8.200657,-1.5910087,-1.975555,0.1876564,2.8588412,1.6008075
1.488,8.186615,-1.567176,-1.9241786,0.16087306,2.8812952,1.6300389
1.49,8.174445,-1.5435916,-1.874584,0.1336664,2.9043427,1.6579883
1.492,8.164593,-1.5204269,-1.8269057,0.10596526,2.9279172,1.6846713
1.494,8.156802,-1.4976584,-1.7812278,0.07769847,2.9519563,1.7101274
1.496,8.151118,-1.475169,-1.7375023,0.04881394,2.9764042,1.7344272
1.498,8.147692,-1.4530667,-1.6958861,0.01932025,3.0012038,1.7576485
1.5,8.146434,-1.4312118,-1.6564295,-0.0107729435,3.0263057,1.7798743
1.502,8.146954,-1.4094934,-1.6189642,-0.041410685,3.051685,1.80117
1.504,8.149131,-1.3876883,-1.5835459,-0.07251823,3.077305,1.8216022
1.506,8.1525545,-1.3656937,-1.5501814,-0.10401201,3.1031501,1.8412105
1.508,8.156955,-1.3433855,-1.5189111,-0.13581526,3.129198,1.8600355
1.51,8.162185,-1.3205055,-1.4896235,-0.16785026,3.155413,1.8781074
1.512,8.167811,-1.2967881,-1.4622121,-0.20005286,3.1817381,1.895458
1.514,8.1734085,-1.2720186,-1.4367824,-0.23236156,3.208128,1.9121243
1.516,8.178526,-1.2458513,-1.4133358,-0.2647462,3.2345138,1.9281597
1.518,8.182427,-1.2179362,-1.3919137,-0.2972039,3.2608218,1.9436429
1.52,8.184771,-1.1879317,-1.3724294,-0.3297423,3.2869377,1.9586548
1.522,8.184858,-1.155499,-1.3549447,-0.36239266,3.3127508,1.9732848
1.524,8.182055,-1.1202738,-1.3394358,-0.39519632,3.3381226,1.9876369
1.526,8.175958,-1.0819161,-1.3259344,-0.4282254,3.3629017,2.0017955
1.528,8.165993,-1.0400212,-1.3144829,-0.4615637,3.3869374,2.015837
1.53,8.151524,-0.9942395,-1.3050718,-0.49529767,3.4100523,2.0298312
1.532,8.132064,-0.9442324,-1.2976735,-0.52951014,3.4320886,2.0438066
1.534,8.107305,-0.8897421,-1.2923057,-0.5643102,3.4528563,2.057761
1.536,8.077003,-0.8305021,-1.2890236,-0.5997802,3.4721823,2.0716648
1.538,8.040735,-0.7662104,-1.2878599,-0.63601065,3.489874,2.0854588
1.54,7.9983115,-0.6966275,-1.2887907,-0.67309797,3.5057275,2.0990627
1.542,7.9498634,-0.6218674,-1.2918172,-0.7111273,3.5195553,2.1124108
1.544,7.895484,-0.5418308,-1.2970192,-0.75018215,3.531159,2.125434
1.546,7.8353686,-0.45660156,-1.3042731,-0.79035974,3.5403476,2.138097
1.548,7.7697034,-0.36625433,-1.3136117,-0.83175194,3.5469513,2.1503763
1.55,7.69904,-0.27117252,-1.324925,-0.8744439,3.5508413,2.1622539
1.552,7.6238737,-0.17152345,-1.3381405,-0.9185319,3.551922,2.1737134
1.554,7.5448694,-0.06785303,-1.3531147,-0.9640887,3.550169,2.1847167
1.556,7.4627924,0.039338768,-1.3698083,-1.0111778,3.5456054,2.1951852
1.558,7.378386,0.14944732,-1.3879753,-1.0598617,3.538321,2.2049768
1.56,7.2925396,0.26184893,-1.4074783,-1.1101772,3.5284407,2.2138965
1.562,7.206186,0.37570757,-1.4280888,-1.1621307,3.5161295,2.2216885
1.564,7.1201935,0.49034053,-1.4495219,-1.215717,3.501563,2.2280707
1.566,7.0355678,0.604869,-1.4714996,-1.2708892,3.4849238,2.232729
1.568,6.9530983,0.7185632,-1.4936672,-1.3275704,3.466379,2.2353816
1.57,6.8736405,0.8305625,-1.5157721,-1.3856351,3.4460874,2.2357986
1.572,6.7980046,0.94012475,-1.5375035,-1.4449036,3.4241793,2.233841
1.574,6.7268133,1.0464989,-1.5584577,-1.5051589,3.4008112,2.229479
1.576,6.6607976,1.1489768,-1.578472,-1.5661286,3.3761232,2.2228003
1.578,6.6004486,1.2470403,-1.5971645,-1.6275034,3.3502877,2.2139914
1.58,6.546102,1.3402536,-1.6144412,-1.6889257,3.3234904,2.203359
1.582,6.4978514,1.428314,-1.6300215,-1.7500385,3.2959304,2.1912723
1.584,6.4559216,1.5108931,-1.6438928,-1.8104866,3.267844,2.178145
1.586,6.4202404,1.5879372,-1.6558291,-1.8699322,3.2394843,2.1644402
1.588,6.39064,1.6595044,-1.6658609,-1.9280832,3.2111328,2.150612
1.59,6.366918,1.725811,-1.6739997,-1.9847041,3.1830812,2.137065
1.592,6.3487587,1.7872221,-1.6803076,-2.0396202,3.1556077,2.1241472
1.594,6.3356857,1.8441101,-1.6849025,-2.0927308,3.1289904,2.1121418
1.596,6.327237,1.8969784,-1.6880249,-2.1439981,3.1034713,2.1012423
1.598,6.3227544,1.9464767,-1.6899246,-2.193429,3.079272,2.0915554
1.6,6.321873,1.9932342,-1.6909207,-2.2410629,3.0565748,2.083122
1.602,6.323569,2.0381148,-1.6913022,-2.2869537,3.035533,2.0759041
1.604,6.3273635,2.081975,-1.6914394,-2.3311615,3.0162535,2.0698256
1.606,6.332541,2.1255424,-1.6917835,-2.373745,2.998817,2.0647693
1.608,6.3382287,2.1698608,-1.6928294,-2.4147453,2.9832504,2.060606
1.61,6.3437085,2.21569,-1.6950035,-2.454198,2.9695451,2.057208
1.612,6.348459,2.263836,-1.6987109,-2.492127,2.957671,2.0544825
1.614,6.3517404,2.3151252,-1.7042568,-2.5285645,2.9475467,2.0523524
1.616,6.352914,2.3703043,-1.7121487,-2.563546,2.9390678,2.0507874
1.618,6.3513784,2.4300315,-1.722637,-2.5971339,2.9321115,2.0497787
1.62,6.3467584,2.4949868,-1.7359717,-2.6294117,2.9264941,2.049342
1.622,6.338509,2.5656662,-1.7524774,-2.660479,2.9220316,2.0495007
1.624,6.32634,2.642544,-1.7721984,-2.6904438,2.918505,2.0502925
1.626,6.310107,2.7258937,-1.7952163,-2.7194326,2.9156747,2.0517633
1.628,6.2898707,2.8160014,-1.8215444,-2.747572,2.913285,2.0539465
1.63,6.2654834,2.9129004,-1.8512064,-2.7749724,2.9110787,2.056867
1.632,6.2370114,3.0166852,-1.8841434,-2.8017173,2.9088368,2.0605333
1.634,6.204791,3.1272178,-1.9201663,-2.827863,2.9063804,2.0649166
1.636,6.1689596,3.2441614,-1.959157,-2.8534179,2.9035811,2.0699537
1.638,6.130032,3.3672538,-2.0009968,-2.8783479,2.900389,2.0755477
1.64,6.088324,3.4958913,-2.0455215,-2.9025764,2.8968139,2.0815356
1.642,6.0442414,3.6293967,-2.0924716,-2.9259818,2.8929167,2.0877156
1.644,5.998569,3.7671168,-2.1421793,-2.9484205,2.8888104,2.0938401
1.646,5.951554,3.9082258,-2.1941144,-2.9697142,2.8846133,2.0996382
1.648,5.903739,4.051927,-2.248135,-2.9896703,2.8804321,2.104787
1.65,5.855753,4.1971316,-2.304274,-3.0080848,2.8763351,2.1089647
1.652,5.807768,4.3429704,-2.3623226,-3.0247478,2.872355,2.1118407
1.654,5.7603574,4.488357,-2.4222083,-3.0394535,2.8684804,2.113091
1.656,5.7138805,4.63224,-2.4838595,-3.0520196,2.8646526,2.11242
1.658,5.668676,4.773523,-2.547281,-3.0622635,2.8607907,2.109557
1.66,5.624869,4.9113774,-2.6124175,-3.0700433,2.8568,2.1042776
1.662,5.5826044,5.044834,-2.6792917,-3.0752497,2.8525834,2.096419
1.664,5.541939,5.173063,-2.747932,-3.0778422,2.848038,2.0858648
1.666,5.5027876,5.2954226,-2.818501,-3.077826,2.8430667,2.0725482
1.668,5.4651184,5.4112754,-2.8911393,-3.07527,2.8376036,2.0564826
1.67,5.428589,5.520144,-2.9660587,-3.0702875,2.8315928,2.0377376
1.672,5.3930235,5.6216326,-3.04361,-3.0630493,2.8249893,2.0164225
1.674,5.358078,5.7154384,-3.1240392,-3.0537493,2.817733,1.9927285
1.676,5.3233304,5.8014913,-3.2076359,-3.0425935,2.8097365,1.9668869
1.678,5.288456,5.879729,-3.2947235,-3.0298476,2.8008838,1.9390526
1.68,5.2530994,5.9502597,-3.3855286,-3.0157957,2.7910213,1.9093843
1.682,5.2166967,6.013121,-3.480303,-3.0007195,2.7799616,1.8780538
1.684,5.17883,6.068649,-3.5793314,-2.9849157,2.767481,1.8451924
1.686,5.1390486,6.117024,-3.6827157,-2.9686465,2.7533274,1.8109207
1.688,5.0969424,6.1586018,-3.7906284,-2.9521427,2.73724,1.7753301
1.69,5.0522246,6.1936684,-3.9031062,-2.9355948,2.7189755,1.7384933
1.692,5.0045705,6.222596,-4.020215,-2.919138,2.6983123,1.7004727
1.694,4.9535146,6.245867,-4.141829,-2.9028227,2.6750813,1.6613419
1.696,4.8989043,6.2637353,-4.2679205,-2.8866422,2.6491795,1.6211903
1.698,4.8404293,6.2765303,-4.3983765,-2.8704948,2.6205432,1.5801167
1.7,4.7778296,6.284607,-4.5330286,-2.854255,2.5892015,1.5382504
1.702,4.710978,6.2881947,-4.6715846,-2.8377392,2.5552363,1.4957606
1.704,4.639687,6.287654,-4.813737,-2.8207507,2.518784,1.4528279
1.706,4.563929,6.2832165,-4.959068,-2.8030746,2.4800165,1.4096682
1.708,4.4835505,6.27506,-5.107068,-2.7845066,2.439125,1.3664855
1.71,4.398516,6.2633805,-5.257186,-2.7648628,2.3963094,1.323504
1.712,4.309022,6.248369,-5.408877,-2.743989,2.3517685,1.2809044
1.714,4.215073,6.230111,-5.561366,-2.7217655,2.3056846,1.2388383
1.716,4.116625,6.2088675,-5.7141266,-2.6981022,2.2582157,1.1974106
1.718,4.0138288,6.1846905,-5.8662906,-2.6729324,2.2094839,1.1566813
1.72,3.9067552,6.157845,-6.0172977,-2.6462271,2.1595564,1.1166523
1.722,3.7954712,6.128433,-6.1664214,-2.617982,2.108448,1.0773005
1.724,3.6799924,6.096862,-6.31296,-2.5882256,2.0561306,1.0385787
1.726,3.5603433,6.06329,-6.455966,-2.5569787,2.00254,1.0004585
1.728,3.4368849,6.028064,-6.5946994,-2.5243013,1.9476407,0.9628879
1.73,3.309729,5.991264,-6.728436,-2.490245,1.891376,0.92587423
1.732,3.179297,5.9533324,-6.856415,-2.4548273,1.8337276,0.8895174
1.734,3.045865,5.914416,-6.9780693,-2.4180655,1.7747211,0.8539109
1.736,2.9094434,5.874884,-7.092799,-2.3800054,1.7143971,0.8191725
1.738,2.770207,5.8350873,-7.1999965,-2.3406947,1.652866,0.7854614
1.74,2.628634,5.7954464,-7.2989693,-2.300204,1.5903162,0.7529937
1.742,2.4850218,5.756345,-7.389279,-2.2585964,1.5269914,0.72197044
1.744,2.3397748,5.7180786,-7.470295,-2.2159414,1.4632025,0.69259864
1.746,2.19347,5.6811237,-7.5416965,-2.172316,1.3992839,0.66505325
1.748,2.0466948,5.645856,-7.602995,-2.1277997,1.3355914,0.63948417
1.75,1.9001713,5.6125975,-7.653671,-2.08245,1.272506,0.61599624
1.752,1.7547023,5.581501,-7.6937814,-2.0363142,1.2104235,0.5946646
1.754,1.6105455,5.552685,-7.722787,-1.98938,1.1497599,0.5754998
1.756,1.4689813,5.5261555,-7.741074,-1.9416102,1.0909187,0.55846125
1.758,1.3307128,5.5017653,-7.7488027,-1.892922,1.034308,0.5434731
1.76,1.1965265,5.479583,-7.746067,-1.8431975,0.9803383,0.5304049
1.762,1.0675054,5.459357,-7.7332616,-1.7922486,0.929436,0.51907825
1.764,0.94434375,5.4409323,-7.7107224,-1.7398264,0.8820243,0.5092547
1.766,0.8279165,5.4238777,-7.679023,-1.6856335,0.8385291,0.500685
1.768,0.7189621,5.4079056,-7.6387987,-1.6293201,0.79938567,0.49310017
1.77,0.618374,5.3925867,-7.590875,-1.5705069,0.76504457,0.48620015
1.772,0.52698284,5.3775024,-7.5359173,-1.5088124,0.73592734,0.47968876
1.774,0.44555023,5.3621,-7.4750075,-1.4438864,0.7124392,0.47331816
1.776,0.3747067,5.345859,-7.4088893,-1.375405,0.694952,0.46693808
1.778,0.31523287,5.328323,-7.338751,-1.3030751,0.68384486,0.46046868
1.78,0.2678148,5.3090696,-7.2657,-1.2267768,0.6794811,0.45384672
1.782,0.23285282,5.2878046,-7.190856,-1.1465018,0.6821742,0.44714636
1.784,0.21092749,5.2641897,-7.115434,-1.0623502,0.69227,0.4405759
1.786,0.2023957,5.2379208,-7.0407963,-0.9745349,0.7100724,0.4344345
1.788,0.20755982,5.20889,-6.968092,-0.88342375,0.73580325,0.42904603
1.79,0.22677776,5.176888,-6.8986497,-0.78945976,0.7696359,0.42472172
1.792,0.26014534,5.1420197,-6.833489,-0.6931852,0.8115956,0.42172122
1.794,0.3077633,5.1041126,-6.773839,-0.5952058,0.8615102,0.42018184
1.796,0.36954534,5.0632677,-6.720499,-0.496188,0.9190026,0.4201229
1.798,0.44524318,5.0194106,-6.674286,-0.3968083,0.9834019,0.42140412
1.8,0.53451335,4.9726057,-6.635741,-0.29772806,1.0537479,0.42373592
1.802,0.6370052,4.9226913,-6.605193,-0.19958639,1.1287684,0.42668968
1.804,0.7518834,4.8696647,-6.582817,-0.10296348,1.2068814,0.42975545
1.806,0.8783155,4.8134794,-6.5683923,-0.008372302,1.2862513,0.43235624
1.808,1.0155139,4.7539606,-6.5615115,0.08374765,1.3648437,0.433904
1.81,1.1622887,4.690918,-6.561541,0.17306183,1.440557,0.4338148
1.812,1.3173325,4.624154,-6.5676885,0.25932088,1.5112977,0.43150514
1.814,1.4794173,4.553439,-6.578927,0.34235203,1.575073,0.42642692
1.816,1.646996,4.4784966,-6.594012,0.42203218,1.6301005,0.41807836
1.818,1.8187518,4.399174,-6.6115055,0.4983196,1.6749045,0.40600866
1.82,1.9929628,4.315196,-6.6301336,0.5711969,1.7083602,0.38983962
1.822,2.1681075,4.226477,-6.648283,0.64068466,1.7297251,0.36930537
1.824,2.342525,4.132779,-6.6645036,0.706844,1.7386684,0.34428453
1.826,2.5149522,4.0341635,-6.6771593,0.7697667,1.7352931,0.31483448
1.828,2.6839705,3.9307575,-6.68491,0.8295668,1.7200676,0.28118184
1.83,2.8483229,3.822619,-6.686401,0.8863449,1.6937928,0.24369663
1.832,3.0068562,3.7101178,-6.6804523,0.9401997,1.6575307,0.20296532
1.834,3.158763,3.5935235,-6.6661186,0.99128854,1.6125759,0.15974581
1.836,3.3033166,3.4733787,-6.6427574,1.0397246,1.5603883,0.11482397
1.838,3.439637,3.3502636,-6.6099205,1.0855839,1.5024955,0.06896147
1.84,3.5673509,3.2249584,-6.5672493,1.1289268,1.440473,0.022921503
1.842,3.6860802,3.0981743,-6.5145936,1.1698127,1.3759153,-0.022584558
1.844,3.7959893,2.9707208,-6.452114,1.2082781,1.310327,-0.06694931
1.846,3.8973987,2.8433318,-6.3802958,1.2443731,1.2451087,-0.10969633
1.848,3.9905937,2.7167258,-6.2997656,1.2781515,1.1815351,-0.15046883
1.85,4.0759315,2.5916557,-6.2114005,1.3096737,1.1207093,-0.18905059
1.852,4.153981,2.4687438,-6.1160316,1.3390262,1.0635818,-0.22533917
1.854,4.225299,2.3487775,-6.014903,1.3663074,1.0109105,-0.259326
1.856,4.2904797,2.2322297,-5.9089475,1.391653,0.9632679,-0.2910897
1.858,4.3500395,2.1195838,-5.7993946,1.4152052,0.9210495,-0.32076702
1.86,4.4049454,2.011376,-5.6875186,1.4371264,0.88448375,-0.3485158
1.862,4.455721,1.9080999,-5.574326,1.4575981,0.8536588,-0.37451318
1.864,4.503323,1.8100386,-5.4607863,1.4768034,0.82852894,-0.3989174
1.866,4.5482535,1.717393,-5.347956,1.494909,0.80893815,-0.4218426
1.868,4.591149,1.6303761,-5.23666,1.5120859,0.79467326,-0.44337475
1.87,4.6326523,1.549051,-5.1277757,1.5284823,0.78544825,-0.46355715
1.872,4.6733303,1.4733458,-5.022124,1.5442268,0.78093624,-0.48239478
1.874,4.7137613,1.4031707,-4.9202747,1.5594385,0.7807748,-0.49986607
1.876,4.7542458,1.3385545,-4.8227468,1.5742204,0.7846118,-0.5159504
1.878,4.7953386,1.2792001,-4.7299356,1.5886569,0.79208374,-0.53060186
1.88,4.8372393,1.2249267,-4.642085,1.6028272,0.80282784,-0.5438069
1.882,4.880153,1.1755083,-4.5594935,1.6168147,0.81649786,-0.55558246
1.884,4.924382,1.1307662,-4.4821463,1.6306871,0.8327465,-0.5659632
1.886,4.9698715,1.0904057,-4.4101925,1.6445129,0.85121953,-0.57503027
1.888,5.016782,1.0541965,-4.3434863,1.6583532,0.8715749,-0.5828962
1.89,5.0649023,1.0218831,-4.2818065,1.6722622,0.89346397,-0.58971435
1.892,5.1143413,0.9929882,-4.2249227,1.6862658,0.91652596,-0.59565175
1.894,5.1650553,0.9672667,-4.172632,1.7003827,0.9403939,-0.60088396
1.896,5.216869,0.94440496,-4.124491,1.7146184,0.96468014,-0.60559845
1.898,5.26962,0.9240285,-4.0802016,1.7289416,0.98898864,-0.609987
1.9,5.323113,0.9058285,-4.039301,1.7432959,1.0129398,-0.61423266
1.902,5.3771453,0.8894824,-4.0013967,1.7576114,1.0361392,-0.6184952
1.904,5.431551,0.8748015,-3.9659977,1.7717814,1.0582352,-0.6229161
1.906,5.486155,0.8613931,-3.932716,1.7856812,1.078893,-0.6276151
1.908,5.5407767,0.84907675,-3.9010198,1.7991707,1.0978159,-0.63268125
1.91,5.595195,0.83769715,-3.8704777,1.8120935,1.1147549,-0.6381644
1.912,5.649302,0.8271527,-3.840642,1.8243138,1.1295242,-0.64406
1.914,5.703011,0.8171754,-3.8111129,1.8357062,1.1419924,-0.6503245
1.916,5.7561884,0.8077092,-3.781513,1.8461431,1.1520771,-0.6568625
1.918,5.808679,0.79872257,-3.7514515,1.8555413,1.1597747,-0.66354835
1.92,5.860458,0.79013485,-3.7206502,1.8638624,1.1651381,-0.67021805
1.922,5.9115353,0.7819836,-3.688804,1.8710965,1.1682607,-0.67668957
1.924,5.961787,0.7742748,-3.655691,1.8772628,1.1692872,-0.68278825
1.926,6.0113773,0.7669869,-3.6212063,1.8823962,1.1684124,-0.688354
1.928,6.060277,0.76005405,-3.5852718,1.8865594,1.165861,-0.6932474
1.93,6.108529,0.75361484,-3.5477042,1.8898462,1.161866,-0.6973682
1.932,6.156233,0.7475947,-3.5086887,1.8923368,1.1566848,-0.7006698
1.934,6.2036886,0.74204206,-3.4681985,1.894125,1.1505723,-0.7031402
1.936,6.2508087,0.7369381,-3.4263668,1.8952937,1.1437639,-0.7048151
1.938,6.29775,0.7321728,-3.383381,1.8959284,1.1364863,-0.70576394
1.94,6.3446226,0.72773355,-3.339334,1.8960896,1.1289277,-0.7060773
1.942,6.391539,0.7235733,-3.294562,1.8958275,1.1212361,-0.7058653
1.944,6.4386883,0.71956486,-3.249168,1.8951843,1.1135306,-0.7052394
1.946,6.4860477,0.71562994,-3.2034621,1.8941835,1.105886,-0.7043137
1.948,6.5338154,0.7115969,-3.1575882,1.892827,1.0983331,-0.70318687
1.95,6.582026,0.70738816,-3.1118665,1.8911083,1.0908661,-0.7019398
1.952,6.6306906,0.70282537,-3.066482,1.8890312,1.0834589,-0.7006404
1.954,6.6797047,0.69783676,-3.0215724,1.8865734,1.0760331,-0.69933355
1.956,6.7291164,0.69228005,-2.9772298,1.8837109,1.068518,-0.698052
1.958,6.7790112,0.686092,-2.9336636,1.8804393,1.0608069,-0.6967901
1.96,6.829259,0.6789885,-2.8909707,1.8767326,1.0527773,-0.69554603
1.962,6.879793,0.670983,-2.8492265,1.8725852,1.0443121,-0.6943126
1.964,6.930435,0.66190404,-2.8084893,1.8679755,1.0352857,-0.6930819
1.966,6.981068,0.6517297,-2.7687693,1.8628705,1.0255507,-0.69185245
1.968,7.031733,0.64030063,-2.7300086,1.857267,1.0149924,-0.69063365
1.97,7.082101,0.62767005,-2.692187,1.8511539,1.0034988,-0.68943954
1.972,7.132163,0.61374885,-2.6551669,1.8445139,0.9909638,-0.6883005
1.974,7.181615,0.5985863,-2.6189725,1.8373417,0.97731054,-0.68726087
1.976,7.230373,0.5822534,-2.5834389,1.8296217,0.962481,-0.6863617
1.978,7.2782707,0.564768,-2.5485234,1.8213723,0.94644666,-0.6856399
1.98,7.3252,0.54614604,-2.5140476,1.8126032,0.92919457,-0.68511784
1.982,7.3709497,0.52654016,-2.4799433,1.8033276,0.91074276,-0.6848113
1.984,7.415407,0.5059932,-2.4461427,1.7935637,0.89113796,-0.68472385
1.986,7.458592,0.48467726,-2.4125042,1.7833306,0.87042326,-0.6848429
1.988,7.5002484,0.46272376,-2.378885,1.7726458,0.84866565,-0.68512994
1.99,7.540372,0.44035473,-2.345256,1.7615125,0.82594526,-0.6855314
1.992,7.5789185,0.4176423,-2.3115225,1.749943,0.8023255,-0.68597895
1.994,7.615648,0.39492375,-2.2776437,1.7379425,0.77788866,-0.68638223
1.996,7.6508937,0.3722016,-2.243493,1.7255094,0.75271255,-0.68664753
1.998,7.6842084,0.349768,-2.2090495,1.7126539,0.72687066,-0.686686
2,7.7159433,0.327738,-2.174277,1.6993724,0.70043564,-0.6864104
2.002,7.745947,0.30636692,-2.1392074,1.6856792,0.6734848,-0.68573856
2.004,7.774187,0.28577083,-2.103764,1.6715963,0.6460998,-0.68461114
2.006,7.8007603,0.2661406,-2.0679927,1.6571572,0.6183561,-0.6829815
2.008,7.8256035,0.24760877,-2.0318947,1.642404,0.5903397,-0.6808287
2.01,7.8488913,0.2303239,-1.9953988,1.627382,0.56212056,-0.67815137
2.012,7.870709,0.21430631,-1.9586532,1.6121519,0.53376836,-0.6749862
2.014,7.8910675,0.19955727,-1.9215267,1.5967734,0.5053588,-0.671367
2.016,7.909911,0.18631297,-1.8841647,1.5813117,0.47696793,-0.66732883
2.018,7.9274583,0.17457265,-1.8466022,1.5658485,0.4486627,-0.6629131
2.02,7.943718,0.16425268,-1.8088819,1.5504647,0.42051247,-0.65817153
2.022,7.958731,0.1552898,-1.7710346,1.5352039,0.39258152,-0.6531271
2.024,7.972607,0.14783469,-1.7330196,1.5201429,0.36492553,-0.64779747
2.026,7.9853926,0.14175366,-1.6949524,1.5053377,0.33760172,-0.6421858
2.028,7.997221,0.13709879,-1.6568224,1.4908489,0.31066668,-0.6362706
2.03,8.008083,0.13371825,-1.6186109,1.4767207,0.28416082,-0.6300205
2.032,8.018132,0.13156775,-1.5804653,1.4629856,0.25811228,-0.62339354
2.034,8.027368,0.13063683,-1.542223,1.4496874,0.23254772,-0.6163579
2.036,8.035858,0.13085666,-1.503958,1.4368528,0.2074689,-0.6088724
2.038,8.043734,0.13220872,-1.4657421,1.4245015,0.18286434,-0.60090387
2.04,8.051042,0.1345728,-1.4275925,1.4126445,0.15873522,-0.5924443
2.042,8.057758,0.13791163,-1.3894532,1.4013015,0.13505885,-0.5834899
2.044,8.063976,0.14217703,-1.3514171,1.3904784,0.11181908,-0.5740521
2.046,8.069714,0.14725025,-1.3134146,1.3801641,0.08899881,-0.5641784
2.048,8.075008,0.15320696,-1.2755015,1.370362,0.0665765,-0.55390763
2.05,8.079929,0.15993547,-1.2377403,1.3610677,0.044528823,-0.5433006
2.052,8.08464,0.16734175,-1.2001467,1.3522465,0.02284142,-0.53241456
2.054,8.08904,0.17538276,-1.1628041,1.3438909,0.001505373,-0.52131224
2.056,8.093052,0.18398087,-1.1256962,1.3359685,-0.019499213,-0.5100578
2.058,8.096831,0.19315104,-1.088872,1.3284466,-0.040187865,-0.49868596
2.06,8.100396,0.20269276,-1.0524352,1.321286,-0.06057453,-0.48721933
2.062,8.103858,0.21263118,-1.0164261,1.3144569,-0.08067555,-0.47566313
2.064,8.107154,0.22282785,-0.980881,1.3079289,-0.10050508,-0.46400124
2.066,8.110352,0.2332197,-0.94584584,1.3016596,-0.120089285,-0.4521985
2.068,8.113387,0.24373403,-0.9113395,1.2956269,-0.13945483,-0.4402271
2.07,8.116305,0.25436863,-0.8773806,1.2897962,-0.15863939,-0.42806023
2.072,8.11924,0.26499206,-0.84407425,1.2841369,-0.17767607,-0.4156673
2.074,8.122141,0.27556452,-0.8113611,1.2786313,-0.19660643,-0.40302712
2.076,8.125048,0.28596815,-0.779284,1.273273,-0.21548077,-0.3901458
2.078,8.127943,0.29628003,-0.7478459,1.268044,-0.23433943,-0.37704256
2.08,8.130865,0.3064183,-0.7170763,1.2629263,-0.25323427,-0.363761
2.082,8.133898,0.3163076,-0.6869483,1.2578974,-0.27220958,-0.35035825
2.084,8.137019,0.3259362,-0.657398,1.2529453,-0.29129085,-0.33689293
2.086,8.140371,0.33534682,-0.6284692,1.2480615,-0.3105152,-0.32342052
2.088,8.143967,0.34451622,-0.6000829,1.2432253,-0.329913,-0.30998817
2.09,8.147809,0.35342562,-0.57223225,1.2384253,-0.3494906,-0.29663673
2.092,8.151978,0.36220682,-0.5448866,1.2336433,-0.3692531,-0.28338328
2.094,8.156534,0.37089616,-0.5180626,1.2288809,-0.38918462,-0.27022612
2.096,8.16152,0.3795053,-0.49171495,1.224114,-0.40927824,-0.25715384
2.098,8.167004,0.38814127,-0.46594095,1.2193458,-0.429513,-0.24415159
2.1,8.173077,0.3968179,-0.4405384,1.2145618,-0.44986773,-0.23117304
2.102,8.179699,0.40574706,-0.41553783,1.2097365,-0.4703256,-0.21819395
2.104,8.187006,0.41496453,-0.3909452,1.2048526,-0.49086785,-0.2051819
2.106,8.194924,0.42472705,-0.36672807,1.199902,-0.5114752,-0.19210541
2.108,8.203754,0.43494582,-0.34287667,1.1948612,-0.53214073,-0.17894936
2.11,8.213259,0.4458236,-0.3194511,1.18972,-0.5528601,-0.16570756
2.112,8.223565,0.45756114,-0.29636765,1.1844556,-0.5736339,-0.15239426
2.114,8.234639,0.47023594,-0.2736199,1.1790539,-0.5944687,-0.13901937
2.116,8.246547,0.4839627,-0.25118494,1.1735063,-0.61536646,-0.1256203
2.118,8.259351,0.49885786,-0.22906709,1.1677986,-0.63633025,-0.11222926
2.12,8.272748,0.5149252,-0.20722365,1.161926,-0.65735567,-0.09887895
2.122,8.286924,0.5323384,-0.18566132,1.1558683,-0.6784395,-0.08559498
2.124,8.301735,0.55113167,-0.16432524,1.1496282,-0.6995697,-0.07242504
2.126,8.317291,0.5713005,-0.14313745,1.1431891,-0.7207363,-0.0594123
2.128,8.33335,0.5929127,-0.12204659,1.1365589,-0.7419188,-0.046587974
2.13,8.349984,0.61601293,-0.10101378,1.1297377,-0.7630932,-0.033982724
2.132,8.367021,0.64065766,-0.08002305,1.1227435,-0.78424287,-0.021635264
2.134,8.384336,0.66670144,-0.05910778,1.1155903,-0.80533606,-0.00956741
2.136,8.401913,0.6942216,-0.038062096,1.108305,-0.82636344,0.0021975338
2.138,8.419566,0.7230558,-0.016972184,1.1009003,-0.84729505,0.0136401355
2.14,8.437261,0.7533489,0.0041884184,1.0933932,-0.8681031,0.024746478
2.142,8.454884,0.78494,0.0255754,1.0858002,-0.88875705,0.035521924
2.144,8.472454,0.81777614,0.047041178,1.0781256,-0.9092195,0.0459688
2.146,8.489851,0.8518735,0.06864643,1.0703768,-0.9294619,0.056085885
2.148,8.506886,0.88711536,0.09044433,1.0625453,-0.94945645,0.06588563
2.15,8.523602,0.923477,0.11244917,1.0546246,-0.9691474,0.07537374
2.152,8.539892,0.96086365,0.13464284,1.0466084,-0.9885015,0.08456677
2.154,8.555735,0.99920326,0.15696967,1.038489,-1.0074773,0.09345576
2.156,8.571137,1.03841,0.17939258,1.0302713,-1.0260465,0.10204381
2.158,8.585957,1.078385,0.20186484,1.0219613,-1.0441995,0.11033289
2.16,8.600232,1.1190324,0.22447026,1.0135577,-1.0619246,0.118308485
2.162,8.61384,1.1602807,0.2471106,1.0050662,-1.0792223,0.12595943
2.164,8.626842,1.2020001,0.2697351,0.9964924,-1.0960971,0.1332589
2.166,8.639308,1.2441844,0.29229772,0.9878538,-1.1125647,0.1401854
2.168,8.651074,1.2866375,0.31483757,0.9791612,-1.1286459,0.1467064
2.17,8.662174,1.329284,0.33728993,0.97042996,-1.144365,0.15280719
2.172,8.672576,1.3719279,0.35965145,0.9616786,-1.1597432,0.15846786
2.174,8.6824,1.4145601,0.38188338,0.95292455,-1.1748008,0.16367681
2.176,8.691514,1.4570749,0.4040426,0.94419765,-1.1895599,0.16842826
2.178,8.699987,1.4992584,0.4260044,0.9355171,-1.2040385,0.17272653
2.18,8.707857,1.5410179,0.4478153,0.9269154,-1.218231,0.17659639
2.182,8.715093,1.582213,0.4695729,0.9184086,-1.2321521,0.18005228
2.184,8.721805,1.6227843,0.49116904,0.91002744,-1.2457907,0.18312305
2.186,8.72797,1.6625193,0.5126332,0.90179217,-1.25913,0.1858477
2.188,8.733683,1.701349,0.53397006,0.89373505,-1.2721653,0.18825269
2.19,8.73893,1.7389909,0.55527073,0.8858735,-1.2848711,0.19036615
2.192,8.743599,1.7755507,0.57651305,0.8782276,-1.2972407,0.19219807
2.194,8.747909,1.8108413,0.5975861,0.87081015,-1.3092395,0.19375665
2.196,8.75172,1.84471,0.6186078,0.8636355,-1.3208512,0.19503167
2.198,8.755059,1.8770571,0.6395535,0.8567332,-1.3320687,0.19602092
2.2,8.75792,1.90794,0.6604216,0.85011274,-1.3428516,0.19672264
2.202,8.760393,1.9370292,0.6812735,0.8437968,-1.353176,0.19712315
2.204,8.762479,1.9643627,0.7021104,0.83780605,-1.3630227,0.1972215
2.206,8.764102,1.989842,0.72289157,0.8321676,-1.3723607,0.19703048
2.208,8.765278,2.0135517,0.74373317,0.8269088,-1.3811657,0.19656874
2.21,8.766023,2.0353389,0.76455724,0.82205456,-1.3894061,0.1958548
2.212,8.766335,2.0551012,0.7854222,0.81763875,-1.397055,0.1949141
2.214,8.766159,2.0728908,0.8063935,0.81369936,-1.4040952,0.1937785
2.216,8.765386,2.08877,0.82746136,0.81026703,-1.4104997,0.19249953
2.218,8.76398,2.102698,0.84864676,0.8073783,-1.4162492,0.19110768
2.22,8.762151,2.1146274,0.87004185,0.805069,-1.4213338,0.18963018
2.222,8.759646,2.1246464,0.89161944,0.80338085,-1.4257201,0.18808246
2.224,8.756498,2.1327171,0.91340834,0.8023441,-1.4293997,0.18647319
2.226,8.752623,2.13889,0.93545544,0.8019779,-1.432343,0.1848075
2.228,8.748003,2.1431937,0.95776725,0.80232215,-1.4345298,0.18308298
2.23,8.742714,2.1457427,0.98028725,0.803399,-1.435927,0.18129773
2.232,8.736592,2.1465364,1.0031307,0.80523556,-1.4365056,0.17946684
2.234,8.729699,2.1456542,1.0261763,0.80785275,-1.4362434,0.17758147
2.236,8.721933,2.1431603,1.0495176,0.81126004,-1.4351017,0.175667
2.238,8.713332,2.1391354,1.0730722,0.81547827,-1.4330719,0.17375553
2.24,8.703798,2.1336882,1.096906,0.8205134,-1.4301286,0.17189474
2.242,8.693466,2.1268334,1.120986,0.8263676,-1.4262582,0.1701309
2.244,8.682301,2.1187284,1.1452963,0.8330351,-1.4214531,0.16852452
2.246,8.670215,2.1093395,1.1697645,0.840512,-1.415709,0.16714558
2.248,8.657316,2.0987997,1.1945312,0.8487825,-1.4090503,0.16604805
2.25,8.643655,2.0871184,1.2194793,0.8578259,-1.4014919,0.1652793
2.252,8.629058,2.0743709,1.2446785,0.86761475,-1.3930529,0.1648608
2.254,8.613629,2.0605745,1.2701051,0.8781386,-1.383764,0.16479109
2.256,8.597466,2.0457692,1.2957652,0.88937396,-1.373651,0.16505289
2.258,8.580551,2.0299733,1.3216107,0.9013159,-1.3627278,0.16561492
2.26,8.562964,2.0131676,1.3476431,0.9139492,-1.3510174,0.16642067
2.262,8.544754,1.9953882,1.3738744,0.9272793,-1.3385288,0.16741093
2.264,8.525892,1.9766381,1.4002993,0.9413103,-1.3252677,0.16852388
2.266,8.506438,1.9569174,1.4268323,0.95603925,-1.3112301,0.16970654
2.268,8.486449,1.9362875,1.4535366,0.97147703,-1.2964014,0.17091317
2.27,8.465977,1.9147636,1.4802526,0.9876291,-1.2807734,0.17212911
2.272,8.444963,1.8923845,1.5070937,1.0044817,-1.2643322,0.17336869
2.274,8.423429,1.8691204,1.5339878,1.0220225,-1.2470669,0.17468254
2.276,8.40158,1.8449829,1.5608989,1.0402267,-1.2290006,0.17613913
2.278,8.379356,1.8200374,1.5877273,1.0590641,-1.2101308,0.17782958
2.28,8.356816,1.7943208,1.6145606,1.0784941,-1.1904888,0.17983784
2.282,8.333855,1.7679217,1.6412264,1.0984582,-1.1701117,0.18225944
2.284,8.310462,1.7409114,1.6676898,1.1189018,-1.1490508,0.18516329
2.286,8.286675,1.7133298,1.6938411,1.1397657,-1.1273649,0.18859752
2.288,8.262432,1.6853174,1.7197068,1.1609936,-1.1051114,0.19258216
2.29,8.237957,1.6568992,1.7451973,1.1825274,-1.0823618,0.1970998
2.292,8.21315,1.6280694,1.7701418,1.2043082,-1.0591846,0.20209982
2.294,8.187908,1.5988219,1.7946335,1.2262818,-1.0356418,0.20750502
2.296,8.16225,1.5693316,1.8186364,1.2484099,-1.0117867,0.21324328
2.298,8.136112,1.5394549,1.8421564,1.2706522,-0.9876667,0.21923418
2.3,8.109682,1.5093851,1.8650826,1.2929688,-0.96331716,0.22539757
2.302,8.083005,1.4790585,1.8873792,1.3153144,-0.9387571,0.23169461
2.304,8.056076,1.4485519,1.9090788,1.3376554,-0.91400504,0.23808867
2.306,8.028832,1.4179474,1.9301354,1.3599488,-0.88908017,0.24458665
2.308,8.001454,1.3872176,1.9505218,1.3821436,-0.863994,0.2512219
2.31,7.973884,1.3564236,1.9701331,1.4041953,-0.83875686,0.25804484
2.312,7.946147,1.3256972,1.9890445,1.4260334,-0.813415,0.2651125
2.314,7.918213,1.2950398,2.0072653,1.4475865,-0.7880246,0.27251333
2.316,7.8903174,1.2644893,2.0246873,1.4687641,-0.7626529,0.28034008
2.318,7.862434,1.2339592,2.041435,1.4894981,-0.73735666,0.28866702
2.32,7.8345323,1.2035707,2.0574467,1.509723,-0.712208,0.29751855
2.322,7.806712,1.173281,2.0727367,1.5293734,-0.68732524,0.30687997
2.324,7.778899,1.143171,2.0874186,1.5483843,-0.6628202,0.3167223
2.326,7.751281,1.1130891,2.1014113,1.5666837,-0.6388117,0.3270011
2.328,7.7238073,1.0831733,2.114827,1.5842083,-0.6154106,0.3376309
2.33,7.6964602,1.0534098,2.1276798,1.6009125,-0.59270823,0.34850284
2.332,7.6693373,1.023715,2.1400495,1.6167669,-0.5708123,0.35948348
2.334,7.6425133,0.99418443,2.151998,1.6317596,-0.5498116,0.37043786
2.336,7.615827,0.9649137,2.1634982,1.645884,-0.529776,0.3812142
2.338,7.589347,0.9358007,2.1746993,1.6591343,-0.51076293,0.39169136
2.34,7.5631547,0.90697706,2.1856263,1.6715164,-0.49280772,0.40176332
2.342,7.5371423,0.87839687,2.1963918,1.6830121,-0.47593382,0.41138482
2.344,7.5114155,0.8501236,2.2069845,1.6935993,-0.46012655,0.42056125
2.346,7.4860187,0.82221705,2.2175229,1.7032304,-0.44536382,0.42934018
2.348,7.46082,0.79468274,2.2280188,1.7118497,-0.43161616,0.4378294
2.35,7.4358974,0.7675346,2.2384005,1.7193737,-0.4188322,0.44615698
2.352,7.411124,0.7409578,2.2488122,1.7257259,-0.40697494,0.45444453
2.354,7.3865666,0.7148788,2.2592857,1.7308469,-0.39598948,0.4628107
2.356,7.3620844,0.68952465,2.2697234,1.7346935,-0.38583493,0.47131306
2.358,7.3376775,0.66483986,2.2801485,1.7372445,-0.37649107,0.47997
2.36,7.313278,0.6408788,2.2907076,1.7385138,-0.36793804,0.48872048
2.362,7.2888017,0.6177252,2.3012223,1.7385447,-0.36017415,0.4974465
2.364,7.2639594,0.59541076,2.3117588,1.7373945,-0.35320467,0.5059949
2.366,7.238745,0.57385486,2.3222876,1.7351332,-0.34702817,0.51420605
2.368,7.213062,0.5531941,2.3329113,1.7318292,-0.34164596,0.5219095
2.37,7.1867676,0.5333781,2.3435783,1.7275176,-0.33708906,0.5289616
2.372,7.1596465,0.5144466,2.3543935,1.7222108,-0.3333837,0.5352814
2.374,7.1316566,0.49631274,2.3653936,1.7159035,-0.33055454,0.5408357
2.376,7.1025553,0.47891432,2.37665,1.7085767,-0.32859433,0.54563606
2.378,7.0723343,0.46216363,2.3882346,1.700211,-0.32751483,0.54970753
2.38,7.0406957,0.44606513,2.4002762,1.690785,-0.3273207,0.5531135
2.382,7.0077972,0.43059927,2.4128087,1.6802673,-0.32802737,0.5559386
2.384,6.9734645,0.41568047,2.4259596,1.6686211,-0.329643,0.55827504
2.386,6.93763,0.40126538,2.439891,1.655819,-0.33214736,0.56022155
2.388,6.9003057,0.38729227,2.4546824,1.6418533,-0.33549273,0.5618627
2.39,6.861466,0.37372518,2.470439,1.6267298,-0.33960888,0.5632759
2.392,6.82129,0.36038828,2.487306,1.6104666,-0.34440386,0.56450915
2.394,6.7799063,0.3471496,2.5054016,1.593087,-0.3497665,0.565606
2.396,6.7373447,0.33399248,2.5247931,1.5746576,-0.3555541,0.5665817
2.398,6.693788,0.3207649,2.5456374,1.5552434,-0.3616205,0.5674475
2.4,6.649091,0.30738544,2.5678897,1.534927,-0.36779937,0.56820995
2.402,6.6036754,0.29386067,2.5916505,1.5138026,-0.37392837,0.5688625
2.404,6.557703,0.28003013,2.6168745,1.4919809,-0.37985343,0.5693985
2.406,6.511365,0.26575792,2.643533,1.4695889,-0.38542342,0.56981725
2.408,6.4648013,0.25095928,2.671574,1.4467472,-0.39051172,0.5701181
2.41,6.4180803,0.23547244,2.7010143,1.4235784,-0.39499968,0.57030594
2.412,6.3714795,0.2191267,2.7318163,1.4002111,-0.39876622,0.5703869
2.414,6.325054,0.20183265,2.7638564,1.3767512,-0.401722,0.5703677
2.416,6.279121,0.18343449,2.7970552,1.353302,-0.40377647,0.57026803
2.418,6.2336845,0.16402185,2.8312178,1.3299574,-0.4048441,0.57010853
2.42,6.189043,0.14338577,2.866302,1.3067869,-0.4048531,0.56989896
2.422,6.1451893,0.12149811,2.9020405,1.283848,-0.4037251,0.56966466
2.424,6.1023064,0.09828031,2.9382463,1.2611874,-0.4013793,0.56942993
2.426,6.060404,0.07378185,2.9747674,1.2388086,-0.39776358,0.5692026
2.428,6.019598,0.048065662,3.0112956,1.2167134,-0.39280197,0.5689888
2.43,5.980003,0.021117568,3.0476732,1.1948842,-0.3864479,0.5687647
2.432,5.9415865,-0.006980777,3.0836563,1.1732895,-0.37866026,0.5684906
2.434,5.9045506,-0.03622973,3.1189895,1.1518786,-0.36943394,0.5681151
2.436,5.868657,-0.066559434,3.1535437,1.1305863,-0.3587634,0.5675707
2.438,5.8339944,-0.09783614,3.18708,1.1093583,-0.34666854,0.5667962
2.44,5.800485,-0.12991142,3.2193434,1.0881293,-0.3332004,0.5657192
2.442,5.768192,-0.16287994,3.250277,1.0668234,-0.3184395,0.5642705
2.444,5.7369018,-0.19653356,3.2796464,1.0453756,-0.30248958,0.56239974
2.446,5.706796,-0.2308867,3.3073509,1.0237372,-0.2854637,0.5600797
2.448,5.677611,-0.265702,3.333244,1.0018522,-0.2674949,0.55729336
2.45,5.649188,-0.30084884,3.3572886,0.97965574,-0.24872407,0.55405575
2.452,5.6215463,-0.33624148,3.3793583,0.9571081,-0.22928345,0.55039763
2.454,5.5943913,-0.3716842,3.3995173,0.93418306,-0.20929313,0.5463724
2.456,5.5677276,-0.40710533,3.4176416,0.9108621,-0.1888676,0.54202795
2.458,5.541612,-0.4423244,3.433817,0.88713366,-0.1680935,0.537431
2.46,5.515793,-0.47702515,3.4481115,0.8629835,-0.14702043,0.5326536
2.462,5.4901195,-0.51114047,3.4604566,0.8384259,-0.12570171,0.52775425
2.464,5.464608,-0.5444521,3.4709206,0.81347823,-0.10416016,0.5227946
2.466,5.4391675,-0.5767981,3.479615,0.7881527,-0.08241533,0.5178315
2.468,5.413721,-0.6079141,3.486468,0.76246715,-0.060469642,0.51291895
2.47,5.388188,-0.6376487,3.491599,0.7364374,-0.038315684,0.5081054
2.472,5.3627005,-0.665836,3.495002,0.7100705,-0.015949667,0.50342107
2.474,5.337292,-0.69221914,3.4968033,0.68338203,0.0066251755,0.49890888
2.476,5.311743,-0.71658576,3.497051,0.6563673,0.029398724,0.49459672
2.478,5.286137,-0.7387459,3.4956203,0.6290156,0.052340478,0.49051374
2.48,5.2605567,-0.75855386,3.4927151,0.6013096,0.07542449,0.4866822
2.482,5.2349954,-0.77580583,3.4881794,0.5732154,0.09860276,0.4831189
2.484,5.2095695,-0.790347,3.482185,0.54470927,0.1218193,0.47983694
2.486,5.1843095,-0.8020961,3.474734,0.51574606,0.14500147,0.47682273
2.488,5.159301,-0.81086504,3.4658828,0.48630077,0.16807851,0.47406036
2.49,5.134702,-0.816682,3.455677,0.45634255,0.19095902,0.47151563
2.492,5.1103964,-0.8195027,3.4441733,0.42584166,0.21355334,0.46913603
2.494,5.086527,-0.8192227,3.4315376,0.39478174,0.23576352,0.46685517
2.496,5.0632234,-0.8159063,3.4177103,0.36315683,0.25750133,0.4646036
2.498,5.040614,-0.8096286,3.4028506,0.3309665,0.27867794,0.46228895
2.5,5.018776,-0.8004005,3.3870618,0.298208,0.29920635,0.4598134
2.502,4.9977646,-0.7882347,3.3705096,0.26490894,0.31901634,0.45708838
2.504,4.9776964,-0.7733121,3.3533273,0.23108469,0.3380442,0.45401612
2.506,4.9586906,-0.75575864,3.3355913,0.19674508,0.35624224,0.45050773
2.508,4.9409213,-0.7356818,3.317432,0.16190624,0.37358168,0.4464795
2.51,4.9244967,-0.71320736,3.2990434,0.1265834,0.39004576,0.44188097
2.512,4.9094462,-0.6884999,3.2805092,0.09078759,0.40562886,0.4366532
2.514,4.895896,-0.6618078,3.2619946,0.0545366,0.42034078,0.4307713
2.516,4.884025,-0.6332214,3.2436314,0.017834669,0.4342096,0.42423478
2.518,4.8734126,-0.60399246,3.2257247,-0.019303564,0.44725955,0.41704187
2.52,4.8644304,-0.5735421,3.2082062,-0.05686757,0.45952663,0.40922368
2.522,4.857041,-0.54207397,3.191196,-0.09483221,0.47104722,0.40081784
2.524,4.8513455,-0.5098388,3.1747983,-0.13317388,0.4818496,0.39186588
2.526,4.8472743,-0.4770398,3.1590452,-0.17185856,0.49198145,0.3824091
2.528,4.8448453,-0.44399607,3.1441135,-0.21085444,0.50148857,0.37247884
2.53,4.843934,-0.4108528,3.1299753,-0.2501133,0.5104149,0.36209893
2.532,4.8445926,-0.37779105,3.1167316,-0.28957912,0.5188206,0.35127702
2.534,4.8467093,-0.34500277,3.1043794,-0.32919705,0.52676964,0.3400188
2.536,4.8501472,-0.31271136,3.0929942,-0.36891693,0.53432167,0.32830706
2.538,4.8548737,-0.2810979,3.082545,-0.40868938,0.54153985,0.31611666
2.54,4.8606663,-0.25024617,3.0730038,-0.44846636,0.5484967,0.3034404
2.542,4.867517,-0.2202841,3.064412,-0.48821428,0.5552658,0.2902671
2.544,4.875186,-0.1913898,3.0566938,-0.5279034,0.5619144,0.27661046
2.546,4.883662,-0.16354167,3.0498176,-0.5661181,0.56823575,0.26303738
2.548,4.892755,-0.13690972,3.0437224,-0.6034978,0.57440233,0.24934708
2.55,4.9023447,-0.11158538,3.0384076,-0.6397729,0.5804053,0.23570317
2.552,4.912319,-0.08738983,3.0337107,-0.67465925,0.5862253,0.22229257
2.554,4.9226255,-0.06448889,3.0296848,-0.7078711,0.5918309,0.20930493
2.556,4.932993,-0.042812347,3.0262766,-0.7391626,0.5971823,0.19691306
2.558,4.9434934,-0.022331476,3.023415,-0.76832354,0.6022459,0.18526232
2.56,4.9540653,-0.0031569004,3.0210197,-0.7952157,0.60698885,0.17445838
2.562,4.964588,0.014916301,3.0190654,-0.81978786,0.6113884,0.16456586
2.564,4.9751353,0.03186953,3.0174584,-0.8420532,0.6154437,0.15559551
2.566,4.985445,0.04777503,3.0162215,-0.8620961,0.61915576,0.14753453
2.568,4.995446,0.062772036,3.0152235,-0.88005334,0.6225269,0.14032654
