Time_s_,Acc_x_m_s_2_,Acc_y_m_s_2_,Acc_z_m_s_2_,Gyro_x_1_s_,Gyro_y_1_s_,Gyro_z_1_s_
0,0.091997266,0.49721998,0.113178775,0.86556154,-0.9652749,-2.394078
0.002,0.027946059,0.52037895,0.16096766,0.86551666,-0.9744792,-2.4052262
0.004,-0.03943171,0.5489182,0.21216337,0.86398304,-0.98592776,-2.415881
0.006,-0.10973865,0.5828859,0.26700398,0.8606343,-0.99982375,-2.4258428
0.008,-0.18251687,0.62219095,0.32585272,0.8550403,-1.0164196,-2.4349327
0.01,-0.25722837,0.66666454,0.38934845,0.84673077,-1.0359098,-2.443043
0.012,-0.33313516,0.71623576,0.45764768,0.83531016,-1.0582986,-2.4501567
0.014,-0.40920585,0.7705296,0.5303598,0.8205721,-1.0832565,-2.4563031
0.016,-0.48448992,0.82927585,0.6068724,0.80257916,-1.1100459,-2.4614854
0.018,-0.5580561,0.89212835,0.6867278,0.78171635,-1.1374583,-2.4656215
0.02,-0.62853885,0.9583005,0.77001816,0.75871384,-1.1638334,-2.4685173
0.022,-0.69412047,1.026807,0.85665256,0.73462504,-1.187171,-2.4698582
0.024,-0.7527865,1.0962218,0.94636697,0.71075094,-1.2053151,-2.46922
0.026,-0.8027776,1.1653955,1.0386293,0.6885095,-1.2161484,-2.46612
0.028,-0.8420407,1.2329067,1.1325597,0.6690749,-1.2183225,-2.4606142
0.03,-0.8690946,1.2976109,1.2272145,0.6539431,-1.2098975,-2.451211
0.032,-0.88259053,1.3583295,1.3216442,0.6441729,-1.1901348,-2.4377847
0.034,-0.8817464,1.4138392,1.4150163,0.6404946,-1.1589873,-2.4204414
0.036,-0.8654552,1.4627712,1.506787,0.6433437,-1.1169757,-2.399456
0.038,-0.8323909,1.5032881,1.5958564,0.6529194,-1.0649668,-2.375189
0.04,-0.78304386,1.5342866,1.6819724,0.66922957,-1.0040369,-2.3481054
0.042,-0.7175757,1.5547247,1.7646391,0.69203234,-0.9353732,-2.3187904
0.044,-0.63636076,1.5638838,1.8435408,0.7208414,-0.86029124,-2.2879722
0.046,-0.5401089,1.5613858,1.9183702,0.7549077,-0.7802462,-2.2564845
0.048,-0.43000004,1.5470147,1.9891437,0.7932826,-0.6967488,-2.22515
0.05,-0.30754298,1.5207632,2.0557232,0.83485425,-0.61126834,-2.1947265
0.052,-0.1746172,1.4829197,2.11833,0.8783778,-0.5252513,-2.1658149
0.054,-0.032992724,1.4339195,2.177168,0.9224459,-0.44028312,-2.1388175
0.056,0.11542141,1.3725379,2.2347808,0.9655425,-0.35802734,-2.113965
0.058,0.26792058,1.303117,2.2879515,1.006161,-0.28007525,-2.0913057
0.06,0.42265654,1.2267267,2.3363996,1.0429977,-0.20778388,-2.0707555
0.062,0.5777643,1.1439683,2.3808193,1.0750431,-0.14213526,-2.0521326
0.064,0.73126125,1.0552956,2.4223816,1.101649,-0.08365309,-2.0352116
0.066,0.8811574,0.9614822,2.461918,1.1224899,-0.03242922,-2.0197725
0.068,1.0257217,0.8641435,2.4993837,1.1373849,0.011564016,-2.005628
0.07,1.1636392,0.764845,2.534122,1.1463914,0.048661113,-1.9926453
0.072,1.293573,0.6652487,2.5661669,1.1497159,0.07933676,-1.9807613
0.074,1.4151858,0.56629294,2.5967243,1.1475662,0.10395199,-1.9699712
0.076,1.5278891,0.46873152,2.6271844,1.1400859,0.12271643,-1.9603
0.078,1.6307627,0.37370932,2.6577873,1.1272757,0.1355645,-1.9517763
0.08,1.7229817,0.2826773,2.6878824,1.1089553,0.14204621,-1.9443908
0.082,1.8037554,0.19709682,2.717678,1.0847805,0.14140213,-1.9380994
0.084,1.872927,0.117543936,2.7485921,1.0542625,0.13261116,-1.9328187
0.086,1.9299983,0.044026375,2.7831001,1.016845,0.11449194,-1.9283909
0.088,1.9741286,-0.023616195,2.8233862,0.97200954,0.08589375,-1.9245906
0.09,2.0052261,-0.085578084,2.8710268,0.9193617,0.045892477,-1.9211652
0.092,2.0225954,-0.14169312,2.926817,0.85872287,-0.006067455,-1.9178033
0.094,2.0256343,-0.19141507,2.9908462,0.7901741,-0.07002866,-1.9142087
0.096,2.0128236,-0.23397851,3.063367,0.7141026,-0.14549148,-1.9101295
0.098,1.9829166,-0.2686689,3.1451867,0.6311931,-0.23136997,-1.9053872
0.1,1.9353586,-0.29541528,3.2367654,0.5423797,-0.32610697,-1.8999424
0.102,1.8703074,-0.3145895,3.338582,0.44876516,-0.42781293,-1.8938444
0.104,1.7870758,-0.32591212,3.4505367,0.35153362,-0.5344391,-1.8872175
0.106,1.6852734,-0.32894683,3.5714908,0.25184405,-0.6439206,-1.880275
0.108,1.5634977,-0.32275963,3.7006009,0.15075676,-0.7542758,-1.8732069
0.11,1.4205855,-0.30592704,3.8368182,0.049190585,-0.86374116,-1.866149
0.112,1.257439,-0.27806973,3.9783626,-0.052106954,-0.9707986,-1.8591528
0.114,1.0750015,-0.23893142,4.1235,-0.15258814,-1.0742043,-1.8521466
0.116,0.87365746,-0.18820572,4.269823,-0.2518997,-1.1729282,-1.8449194
0.118,0.65384823,-0.12503314,4.414652,-0.3498857,-1.2661767,-1.8372121
0.12,0.41638562,-0.048524857,4.5546913,-0.44648638,-1.3532894,-1.8288517
0.122,0.16240312,0.042167425,4.686942,-0.54161257,-1.433511,-1.8198085
0.124,-0.1070782,0.1480987,4.8083854,-0.63524276,-1.506246,-1.8102272
0.126,-0.39019224,0.26975822,4.916152,-0.7273169,-1.5709202,-1.8004144
0.128,-0.68442,0.4072616,5.0073547,-0.8176813,-1.6268688,-1.7908509
0.13,-0.98756623,0.56115055,5.078251,-0.90607923,-1.6734356,-1.7822495
0.132,-1.2980169,0.73192644,5.124884,-0.99215573,-1.710066,-1.775388
0.134,-1.613167,0.91974115,5.1441765,-1.075456,-1.7362133,-1.771038
0.136,-1.9299296,1.1236289,5.1339216,-1.1555026,-1.7515326,-1.7699951
0.138,-2.2453837,1.3423393,5.092451,-1.2318628,-1.7560416,-1.7729828
0.14,-2.5572462,1.5745578,5.0189595,-1.3041701,-1.7500066,-1.7807205
0.142,-2.8633552,1.8190024,4.9129543,-1.3721478,-1.7340721,-1.7939253
0.144,-3.1611025,2.0741882,4.773664,-1.4356675,-1.7093506,-1.8131707
0.146,-3.4485157,2.338416,4.600468,-1.4947646,-1.6773043,-1.8388015
0.148,-3.72429,2.6105103,4.3937016,-1.5496119,-1.6396875,-1.870877
0.15,-3.9860823,2.8884695,4.1534524,-1.6005074,-1.5985104,-1.9093273
0.152,-4.232741,3.1705084,3.8807883,-1.6478655,-1.5559717,-1.9539648
0.154,-4.4637365,3.4548368,3.5770671,-1.6921188,-1.5143036,-2.004482
0.156,-4.678715,3.7395859,3.2437353,-1.733721,-1.4757054,-2.0604684
0.158,-4.877078,4.022729,2.8824968,-1.7731266,-1.4422557,-2.1214068
0.16,-5.0586863,4.3026185,2.495759,-1.810718,-1.415726,-2.1866338
0.162,-5.2238154,4.577629,2.085832,-1.8468088,-1.3975086,-2.2554002
0.164,-5.373342,4.8466015,1.654999,-1.8816569,-1.3886776,-2.326936
0.166,-5.5080223,5.108157,1.2056682,-1.9154581,-1.3899744,-2.4005537
0.168,-5.628663,5.3610353,0.74034023,-1.9483734,-1.4017653,-2.4755807
0.17,-5.7357497,5.604068,0.26121688,-1.9805291,-1.4241233,-2.5514174
0.172,-5.8304763,5.8364077,-0.2293446,-2.0120063,-1.4568741,-2.6276488
0.174,-5.913624,6.0569143,-0.7283542,-2.042881,-1.4997942,-2.7041025
0.176,-5.986921,6.265212,-1.2324324,-2.073216,-1.5527976,-2.7809002
0.178,-6.0514736,6.4605403,-1.7387841,-2.1030872,-1.6160002,-2.8584216
0.18,-6.107915,6.6423445,-2.244213,-2.132575,-1.6897833,-2.9372392
0.182,-6.157042,6.81036,-2.7456987,-2.1617718,-1.7747583,-3.0180292
0.184,-6.2000737,6.9646087,-3.2400365,-2.1908066,-1.8717299,-3.1014876
0.186,-6.237526,7.105172,-3.7238433,-2.2198448,-1.9815063,-3.1883745
0.188,-6.2698956,7.232088,-4.1936135,-2.2491202,-2.104892,-3.279303
0.19,-6.297493,7.345664,-4.645337,-2.2789044,-2.2424126,-3.3745673
0.192,-6.320585,7.446402,-5.075293,-2.3094873,-2.3941174,-3.4741158
0.194,-6.3388667,7.534649,-5.4794636,-2.3412027,-2.559658,-3.577554
0.196,-6.352295,7.611212,-5.8538914,-2.374446,-2.7381954,-3.6841812
0.198,-6.3611994,7.677057,-6.1960254,-2.4095592,-2.9283812,-3.7932012
0.2,-6.3663106,7.733404,-6.5034137,-2.446851,-3.1285086,-3.9038272
0.202,-6.367045,7.7810082,-6.772621,-2.4865108,-3.336606,-4.015243
0.204,-6.362494,7.8203573,-6.999834,-2.5285888,-3.5505033,-4.1265554
0.206,-6.352651,7.852552,-7.182174,-2.5729716,-3.7679083,-4.2369184
0.208,-6.3379617,7.8789797,-7.3193264,-2.6193843,-3.986515,-4.3456106
0.21,-6.318994,7.901069,-7.4107704,-2.6674395,-4.2041597,-4.4520674
0.212,-6.2969437,7.9201174,-7.4563203,-2.7166376,-4.41882,-4.5558386
0.214,-6.271883,7.9366245,-7.455473,-2.7664258,-4.6286855,-4.6565933
0.216,-6.2446795,7.9511604,-7.408009,-2.8162522,-4.832178,-4.754097
0.218,-6.2154627,7.9638777,-7.315255,-2.8656359,-5.027878,-4.848102
0.22,-6.184766,7.9750123,-7.179631,-2.914166,-5.214501,-4.938319
0.222,-6.1548023,7.9858055,-7.0037336,-2.9615223,-5.390933,-5.0245495
0.224,-6.127566,7.997162,-6.790581,-3.0074763,-5.5561805,-5.106673
0.226,-6.103919,8.009458,-6.543474,-3.051852,-5.7092338,-5.1845326
0.228,-6.084454,8.022406,-6.2661996,-3.0945253,-5.848973,-5.257971
0.23,-6.070118,8.035764,-5.9624176,-3.1353762,-5.974236,-5.326918
0.232,-6.0615277,8.048871,-5.636315,-3.1742537,-6.08384,-5.391443
0.234,-6.0590215,8.060992,-5.292068,-3.211012,-6.176592,-5.4516315
0.236,-6.0631065,8.071662,-4.9343605,-3.2455158,-6.2513123,-5.507581
0.238,-6.0742702,8.080354,-4.568033,-3.2776306,-6.3068986,-5.559437
0.24,-6.0923905,8.086365,-4.1975822,-3.3072157,-6.3424735,-5.607403
0.242,-6.116583,8.0888605,-3.8272016,-3.334116,-6.357339,-5.651706
0.244,-6.1460176,8.087122,-3.462117,-3.3582308,-6.35107,-5.6925235
0.246,-6.1797523,8.080642,-3.1074276,-3.3795338,-6.3235626,-5.7299604
0.248,-6.216571,8.068657,-2.7678783,-3.3980765,-6.27499,-5.7640758
0.25,-6.2538714,8.049768,-2.4484165,-3.4139388,-6.2058063,-5.7948885
0.252,-6.289085,8.022399,-2.1535988,-3.4272435,-6.1167545,-5.8224096
0.254,-6.320169,7.9852667,-1.8871288,-3.4381182,-6.0088677,-5.8466578
0.256,-6.3452716,7.937195,-1.6524675,-3.4466903,-5.8834114,-5.867658
0.258,-6.36211,7.8768206,-1.4529963,-3.4530354,-5.7418523,-5.885416
0.26,-6.3683496,7.8026195,-1.2918384,-3.4571924,-5.5858817,-5.899903
0.262,-6.361803,7.7131324,-1.1717765,-3.4591494,-5.4173684,-5.911046
0.264,-6.340102,7.606757,-1.0952134,-3.4588568,-5.238268,-5.918766
0.266,-6.3013325,7.4821615,-1.0636356,-3.456256,-5.05065,-5.9228997
0.268,-6.243987,7.338254,-1.0779569,-3.451342,-4.8566856,-5.9231553
0.27,-6.1664257,7.17373,-1.1384702,-3.4441707,-4.6585884,-5.919144
0.272,-6.0669456,6.987318,-1.2446778,-3.4348316,-4.4585333,-5.9103885
0.274,-5.9442735,6.777786,-1.3950354,-3.4235144,-4.258714,-5.8963494
0.276,-5.7974167,6.544118,-1.5878506,-3.4104748,-4.0613174,-5.876444
0.278,-5.6264186,6.2856565,-1.821845,-3.3960073,-3.8684592,-5.850008
0.28,-5.4322524,6.002322,-2.095201,-3.3804674,-3.6822283,-5.8163066
0.282,-5.215679,5.694581,-2.4055202,-3.3642373,-3.5047312,-5.7745724
0.284,-4.977929,5.3633113,-2.7497947,-3.3477707,-3.3380466,-5.7239623
0.286,-4.720088,5.009316,-3.1260753,-3.3316011,-3.1843152,-5.6636167
0.288,-4.4427123,4.6338577,-3.5307217,-3.3163168,-3.0457468,-5.5927076
0.29,-4.148657,4.238908,-3.9593892,-3.3025703,-2.9246275,-5.5104623
0.292,-3.8391535,3.8255334,-4.407151,-3.2911181,-2.823197,-5.4160886
0.294,-3.515182,3.3952684,-4.8693924,-3.2827916,-2.7435188,-5.3088484
0.296,-3.178513,2.949851,-5.342004,-3.2784424,-2.6874723,-5.1881275
0.298,-2.8307834,2.4914083,-5.821102,-3.2788734,-2.6566024,-5.0535045
0.3,-2.4741535,2.0223682,-6.3030353,-3.2848074,-2.6520915,-4.9047503
0.302,-2.109955,1.545227,-6.784671,-3.2968793,-2.6746755,-4.7417865
0.304,-1.7390465,1.0624986,-7.263591,-3.31562,-2.7246468,-4.5647764
0.306,-1.3622197,0.5768424,-7.737616,-3.3414826,-2.8019066,-4.3741455
0.308,-0.9793719,0.09071851,-8.204077,-3.3748455,-2.9060977,-4.170567
0.31,-0.5903499,-0.3933226,-8.660798,-3.415948,-3.0365765,-3.9549446
0.312,-0.19612831,-0.8720243,-9.106679,-3.4648507,-3.1924644,-3.7284298
0.314,0.20222427,-1.3421553,-9.541322,-3.5214736,-3.3727527,-3.492378
0.316,0.6049732,-1.8012732,-9.964546,-3.585678,-3.5764241,-3.2482133
0.318,1.0116658,-2.246457,-10.375747,-3.6572254,-3.8025334,-2.997333
0.32,1.4215027,-2.6745121,-10.774814,-3.7358475,-4.050238,-2.7410429
0.322,1.833674,-3.0820096,-11.162134,-3.8212953,-4.3187914,-2.480404
0.324,2.2471397,-3.4657006,-11.538018,-3.913406,-4.6077194,-2.216098
0.326,2.661015,-3.822685,-11.902674,-4.0121484,-4.916758,-1.9483391
0.328,3.0736172,-4.1498737,-12.2561035,-4.117566,-5.2458262,-1.6769134
0.33,3.48237,-4.443954,-12.598214,-4.229742,-5.5949516,-1.4012862
0.332,3.8845122,-4.701948,-12.929195,-4.3487077,-5.964102,-1.1208184
0.334,4.2771626,-4.920743,-13.249017,-4.4743633,-6.3531218,-0.83494794
0.336,4.6568074,-5.0973606,-13.557022,-4.6063557,-6.7614994,-0.54334396
0.338,5.0194917,-5.229003,-13.852319,-4.743977,-7.1881685,-0.24604532
0.34,5.361267,-5.313079,-14.133851,-4.88615,-7.631539,0.05645538
0.342,5.6778784,-5.3472033,-14.400526,-5.031458,-8.089421,0.36319563
0.344,5.96498,-5.329314,-14.650883,-5.178153,-8.559031,0.67283356
0.346,6.2185197,-5.257775,-14.883413,-5.3242497,-9.03714,0.98376155
0.348,6.4343214,-5.131471,-15.096806,-5.467615,-9.520246,1.2942941
0.35,6.6088266,-4.9497986,-15.289141,-5.6060905,-10.004725,1.602744
0.352,6.738572,-4.7126784,-15.458426,-5.737574,-10.487101,1.9075348
0.354,6.82041,-4.4204936,-15.602678,-5.860096,-10.96406,2.2072618
0.356,6.8519983,-4.074162,-15.720925,-5.9718804,-11.432614,2.5007074
0.358,6.831586,-3.6751304,-15.812018,-6.0714054,-11.890115,2.786756
0.36,6.7579613,-3.225527,-15.8749695,-6.157378,-12.3342085,3.0643692
0.362,6.63023,-2.7276754,-15.90859,-6.228789,-12.762805,3.3324418
0.364,6.447732,-2.184497,-15.911614,-6.2849193,-13.174194,3.5898237
0.366,6.211024,-1.599515,-15.883322,-6.3253236,-13.566863,3.835376
0.368,5.9208374,-0.97671604,-15.82267,-6.349759,-13.939418,4.0680094
0.37,5.577764,-0.31987047,-15.728895,-6.3581147,-14.2905245,4.286672
0.372,5.18291,0.3669858,-15.601765,-6.350433,-14.61886,4.4904394
0.374,4.7381396,1.0796428,-15.441235,-6.326832,-14.9232025,4.6786256
0.376,4.245104,1.8138914,-15.247919,-6.287462,-15.202343,4.8507237
0.378,3.705943,2.565506,-15.022813,-6.232488,-15.455025,5.0065093
0.38,3.1234965,3.3304477,-14.76667,-6.162151,-15.680138,5.1459446
0.382,2.500138,4.1049414,-14.480858,-6.0767784,-15.876633,5.2691946
0.384,1.838305,4.885191,-14.166977,-5.976793,-16.043503,5.376596
0.386,1.1413531,5.667339,-13.8257675,-5.8627524,-16.179964,5.46861
0.388,0.41324258,6.4476757,-13.457981,-5.735353,-16.285408,5.5457754
0.39,-0.3424976,7.2226896,-13.065206,-5.595454,-16.35939,5.6086316
0.392,-1.1227984,7.9891357,-12.649439,-5.444088,-16.401703,5.6576967
0.394,-1.9243526,8.74427,-12.213733,-5.2824364,-16.412258,5.693413
0.396,-2.7437317,9.485905,-11.760395,-5.111784,-16.39114,5.7161665
0.398,-3.5788934,10.21232,-11.292706,-4.9334974,-16.33855,5.726289
0.4,-4.4261217,10.922039,-10.814462,-4.748978,-16.254753,5.7240334
0.402,-5.2831664,11.614609,-10.329975,-4.559646,-16.140074,5.709592
0.404,-6.1476707,12.289548,-9.842937,-4.366849,-15.994832,5.683159
0.406,-7.0165534,12.946523,-9.356754,-4.1719117,-15.819414,5.6449227
0.408,-7.886481,13.58529,-8.874879,-3.976017,-15.614345,5.595053
0.41,-8.753765,14.205431,-8.401382,-3.7802482,-15.380162,5.5336804
0.412,-9.615646,14.806875,-7.939571,-3.585563,-15.117576,5.460913
0.414,-10.469804,15.389853,-7.4930367,-3.3929033,-14.82752,5.3768234
0.416,-11.313237,15.954381,-7.0652204,-3.2031271,-14.511015,5.281475
0.418,-12.143631,16.501019,-6.659692,-3.0170915,-14.169165,5.1749496
0.42,-12.958381,17.030262,-6.28012,-2.8356164,-13.803199,5.0572834
0.422,-13.754769,17.542747,-5.9300585,-2.6594727,-13.414426,4.9284887
0.424,-14.52976,18.039043,-5.612751,-2.4894178,-13.004149,4.788633
0.426,-15.28042,18.519762,-5.330545,-2.3261309,-12.573694,4.6378007
0.428,-16.004082,18.985458,-5.0851574,-2.170232,-12.124383,4.476097
0.43,-16.69844,19.436676,-4.878107,-2.022244,-11.657583,4.3036976
0.432,-17.361134,19.874,-4.710498,-1.8825388,-11.174644,4.1208305
0.434,-17.989594,20.298136,-4.583108,-1.751373,-10.67701,3.9277685
0.436,-18.581717,20.70997,-4.4964123,-1.6288611,-10.16619,3.724843
0.438,-19.134838,21.110016,-4.450333,-1.5149686,-9.643785,3.5124393
0.44,-19.64618,21.49864,-4.4438906,-1.4095002,-9.111414,3.2908864
0.442,-20.113783,21.876547,-4.476906,-1.3121349,-8.570704,3.0604796
0.444,-20.53459,22.24373,-4.5487275,-1.2224102,-8.023312,2.8214254
0.446,-20.90675,22.60086,-4.657885,-1.1397934,-7.470876,2.573905
0.448,-21.228035,22.948597,-4.8028817,-1.06368,-6.9149933,2.318053
0.45,-21.495256,23.286963,-4.981956,-0.9934307,-6.3571596,2.0539565
0.452,-21.705832,23.616226,-5.1924434,-0.9284247,-5.7987947,1.7816372
0.454,-21.85732,23.936792,-5.4318447,-0.8680879,-5.241232,1.5011666
0.456,-21.946442,24.248821,-5.698375,-0.8118424,-4.6857214,1.2126187
0.458,-21.970343,24.552708,-5.990013,-0.7591505,-4.133537,0.91616064
0.46,-21.926458,24.848654,-6.3049994,-0.70945567,-3.5858455,0.6120744
0.462,-21.812012,25.136942,-6.641718,-0.66219306,-3.043819,0.300784
0.464,-21.62443,25.417837,-6.9983587,-0.61673915,-2.508714,-0.017139196
0.466,-21.361353,25.691675,-7.3727646,-0.5724119,-1.9817104,-0.3410353
0.468,-21.020475,25.958715,-7.763355,-0.5284126,-1.4639674,-0.6702051
0.47,-20.59995,26.219025,-8.168879,-0.4838866,-0.95672,-1.0040193
0.472,-20.09787,26.47234,-8.588368,-0.4379153,-0.4611078,-1.3419305
0.474,-19.512474,26.718582,-9.020944,-0.38961452,0.021603048,-1.6833909
0.476,-18.842934,26.958138,-9.464976,-0.3380839,0.49022406,-2.0279338
0.478,-18.088528,27.191345,-9.919365,-0.2823854,0.9436841,-2.375215
0.48,-17.248507,27.41816,-10.382913,-0.22169787,1.3808706,-2.7249174
0.482,-16.32245,27.638178,-10.854292,-0.15529376,1.8006439,-3.076715
0.484,-15.311488,27.851439,-11.332226,-0.0825201,2.201913,-3.4302824
0.486,-14.216661,28.057785,-11.815205,-0.0028349757,2.5835714,-3.7852364
0.488,-13.04002,28.257046,-12.301872,0.08416617,2.944487,-4.1411796
0.49,-11.784974,28.448896,-12.791297,0.17873472,3.2834942,-4.4976635
0.492,-10.454488,28.632765,-13.282042,0.2809499,3.5994143,-4.854179
0.494,-9.052128,28.808392,-13.772241,0.39069527,3.8910556,-5.210145
0.496,-7.582525,28.975626,-14.260418,0.5077171,4.1572328,-5.564935
0.498,-6.0502987,29.134066,-14.7445545,0.6316617,4.3968363,-5.9178762
0.5,-4.459959,29.28288,-15.222124,0.762127,4.608863,-6.2682447
0.502,-2.8166728,29.421421,-15.690724,0.89871275,4.7924147,-6.6152315
0.504,-1.1264615,29.54919,-16.147629,1.0410657,4.94677,-6.957949
0.506,0.60436547,29.66567,-16.59009,1.1889422,5.071459,-7.295491
0.508,2.369711,29.770447,-17.015348,1.3422196,5.166237,-7.6270437
0.51,4.1630325,29.863258,-17.42068,1.5008645,5.231138,-7.95183
0.512,5.9777985,29.944088,-17.802711,1.6648998,5.266479,-8.269138
0.514,7.808244,30.012764,-18.15835,1.8343576,5.2727776,-8.578351
0.516,9.647436,30.069244,-18.484692,2.0092387,5.2507715,-8.878955
0.518,11.488535,30.114573,-18.777925,2.1894298,5.2013297,-9.170479
0.52,13.325892,30.149189,-19.03418,2.3747034,5.125463,-9.452429
0.522,15.154828,30.173426,-19.249277,2.5646932,5.024312,-9.724316
0.524,16.970766,30.188301,-19.419468,2.758827,4.898981,-9.985683
0.526,18.770224,30.194645,-19.541586,2.9563494,4.750537,-10.236156
0.528,20.549217,30.194168,-19.61164,3.1564167,4.580167,-10.475536
0.53,22.303848,30.18869,-19.625818,3.3580337,4.388866,-10.70374
0.532,24.03171,30.179005,-19.580784,3.5600526,4.1774797,-10.920777
0.534,25.73111,30.165613,-19.47363,3.761347,3.9469006,-11.126859
0.536,27.400578,30.149302,-19.302183,3.9607506,3.6979542,-11.322321
0.538,29.03944,30.131037,-19.06453,4.1570754,3.431354,-11.507536
0.54,30.647566,30.111797,-18.759071,4.349188,3.1479063,-11.682838
0.542,32.22562,30.091969,-18.384773,4.5361123,2.84862,-11.848477
0.544,33.77477,30.07173,-17.941572,4.716965,2.534594,-12.004673
0.546,35.296223,30.051352,-17.42977,4.8910837,2.2072568,-12.151558
0.548,36.79117,30.031105,-16.849852,5.058068,1.8683267,-12.289164
0.55,38.26075,30.011246,-16.202995,5.217654,1.5194893,-12.417434
0.552,39.707222,29.990808,-15.489998,5.3696604,1.162477,-12.536267
0.554,41.13112,29.969603,-14.712491,5.5140524,0.7991853,-12.645559
0.556,42.53339,29.947119,-13.873602,5.650833,0.43137932,-12.745157
0.558,43.914795,29.922102,-12.976825,5.7799435,0.06045389,-12.835064
0.56,45.275303,29.893116,-12.026084,5.901187,-0.3125291,-12.9154625
0.562,46.61419,29.85888,-11.02585,6.014269,-0.6868124,-12.986682
0.564,47.931038,29.81782,-9.981251,6.118802,-1.0619321,-13.049183
0.566,49.2244,29.767874,-8.896829,6.214366,-1.4376607,-13.1036825
0.568,50.493176,29.707317,-7.777427,6.300502,-1.8138676,-13.15119
0.57,51.736195,29.634113,-6.6282077,6.376745,-2.190425,-13.193045
0.572,52.952656,29.54595,-5.454374,6.4427304,-2.5670056,-13.230944
0.574,54.14137,29.440878,-4.2608814,6.4981794,-2.942965,-13.266891
0.576,55.3012,29.317225,-3.0526052,6.542923,-3.317285,-13.303024
0.578,56.431023,29.173409,-1.833992,6.5768075,-3.6885738,-13.341484
0.58,57.529877,29.008139,-0.6090212,6.599692,-4.055089,-13.384138
0.582,58.5972,28.820028,0.6187372,6.6113615,-4.4148245,-13.432328
0.584,59.632874,28.607529,1.845521,6.6114573,-4.765539,-13.48665
0.586,60.63696,28.369595,3.06777,6.5995054,-5.1049666,-13.546976
0.588,61.609806,28.105415,4.2824974,6.5749297,-5.4308414,-13.612369
0.59,62.552124,27.81466,5.4867706,6.5371017,-5.740984,-13.681095
0.592,63.4649,27.497253,6.677936,6.485439,-6.03329,-13.750953
0.594,64.35055,27.152796,7.853945,6.419553,-6.3057475,-13.819574
0.596,65.21136,26.781374,9.013113,6.3393087,-6.556523,-13.88465
0.598,66.04973,26.383667,10.154428,6.244982,-6.783864,-13.94426
0.6,66.86873,25.960085,11.276933,6.137246,-6.986186,-13.997105
0.602,67.67127,25.511232,12.380013,6.017206,-7.162038,-14.042585
0.604,68.46031,25.037262,13.462541,5.8863907,-7.309978,-14.080712
0.606,69.23825,24.539051,14.523514,5.7465944,-7.428974,-14.112005
0.608,70.00753,24.017178,15.561676,5.599629,-7.5186133,-14.13723
0.61,70.7705,23.472288,16.575626,5.4472475,-7.5789356,-14.157179
0.612,71.52981,22.904837,17.563934,5.291036,-7.61036,-14.172222
0.614,72.28785,22.315277,18.525011,5.132288,-7.6138616,-14.182276
0.616,73.046684,21.704205,19.457346,4.971898,-7.5908537,-14.186855
0.618,73.80687,21.072702,20.358665,4.810374,-7.543009,-14.185152
0.62,74.569664,20.421291,21.226625,4.647924,-7.472044,-14.1761055
0.622,75.335434,19.750397,22.058449,4.4846287,-7.3794947,-14.15859
0.624,76.103546,19.060726,22.851662,4.320465,-7.266618,-14.131497
0.626,76.87381,18.35275,23.603924,4.155427,-7.1342816,-14.093922
0.628,77.645325,17.626348,24.312462,3.9895923,-6.982904,-14.045351
0.63,78.415665,16.88271,24.974564,3.8231566,-6.812504,-13.985712
0.632,79.182,16.123177,25.587133,3.6565146,-6.6228385,-13.915361
0.634,79.94124,15.34864,26.14787,3.4900942,-6.4136667,-13.834919
0.636,80.69052,14.560007,26.654993,3.324295,-6.184929,-13.745256
0.638,81.42758,13.7576065,27.106274,3.1594157,-5.9369497,-13.647307
0.64,82.14977,12.942593,27.499763,2.9955254,-5.67046,-13.541845
0.642,82.85322,12.117058,27.834139,2.8324113,-5.386589,-13.429445
0.644,83.534164,11.28317,28.108355,2.6696696,-5.0867195,-13.310544
0.646,84.189125,10.442509,28.32194,2.5066752,-4.772427,-13.185335
0.648,84.81449,9.596285,28.474857,2.3426309,-4.445314,-13.053804
0.65,85.4064,8.745781,28.567608,2.1767073,-4.1067114,-12.915769
0.652,85.96124,7.8926353,28.60111,2.0080643,-3.7576401,-12.770861
0.654,86.47545,7.0381994,28.576588,1.8359118,-3.3988252,-12.618601
0.656,86.94699,6.18287,28.495852,1.6595345,-3.0306544,-12.45848
0.658,87.37372,5.3271394,28.360207,1.4782848,-2.6531875,-12.289975
0.66,87.753265,4.471906,28.17118,1.2915711,-2.2663438,-12.112659
0.662,88.082794,3.619214,27.930279,1.098784,-1.869977,-11.926314
0.664,88.36071,2.7705688,27.639063,0.89928675,-1.4639921,-11.731022
0.666,88.58693,1.9266701,27.299871,0.6923785,-1.0484567,-11.527216
0.668,88.7614,1.0889602,26.915369,0.47724247,-0.6235564,-11.315645
0.67,88.88345,0.2602296,26.487795,0.2530017,-0.1894877,-11.097364
0.672,88.95445,-0.5574231,26.019224,0.018744946,0.25361204,-10.873735
0.674,88.975586,-1.3622475,25.5124,-0.22649479,0.70575535,-10.646233
0.676,88.94802,-2.1516447,24.969896,-0.483644,1.1671768,-10.416307
0.678,88.87466,-2.9234147,24.39363,-0.75355005,1.638395,-10.185375
0.68,88.75848,-3.6747756,23.785517,-1.0369787,2.1201754,-9.954683
0.682,88.60292,-4.402504,23.147387,-1.3346112,2.6133263,-9.725275
0.684,88.41307,-5.103702,22.48118,-1.647079,3.1185591,-9.498074
0.686,88.19518,-5.775786,21.788797,-1.9750032,3.6363032,-9.273958
0.688,87.956635,-6.4162807,21.072483,-2.318976,4.166542,-9.053871
0.69,87.70548,-7.0221663,20.334743,-2.6795623,4.708704,-8.838824
0.692,87.45044,-7.5898633,19.577755,-3.057334,5.26155,-8.630042
0.694,87.2012,-8.116086,18.804497,-3.4528472,5.823167,-8.428964
0.696,86.96851,-8.597814,18.017673,-3.8665626,6.3912163,-8.237219
0.698,86.76377,-9.032248,17.22036,-4.2988095,6.9631186,-8.056503
0.7,86.59924,-9.416627,16.41595,-4.749644,7.5363817,-7.8885064
0.702,86.48741,-9.747978,15.607754,-5.2188435,8.108735,-7.7348633
0.704,86.44017,-10.023033,14.798244,-5.705884,8.678101,-7.596878
0.706,86.4711,-10.23986,13.9910965,-6.2099833,9.242648,-7.4753914
0.708,86.59251,-10.395007,13.189533,-6.730189,9.8007,-7.370717
0.71,86.81573,-10.484773,12.39772,-7.2655463,10.350358,-7.2825174
0.712,87.15222,-10.504141,11.62085,-7.815221,10.889348,-7.2098536
0.714,87.610016,-10.44583,10.8624115,-8.378636,11.414951,-7.1511593
0.716,88.19848,-10.301614,10.123741,-8.955578,11.92386,-7.10425
0.718,88.91931,-10.0568285,9.407421,-9.546185,12.412168,-7.066305
0.72,89.7744,-9.702397,8.714386,-10.151017,12.875511,-7.0339384
0.722,90.78024,-9.240442,8.048691,-10.770847,13.30921,-7.003227
0.724,91.94163,-8.660847,7.4177284,-11.406609,13.708593,-6.9696045
0.726,93.2483,-7.9389133,6.8205643,-12.059293,14.069263,-6.9279284
0.728,94.69347,-7.050047,6.259739,-12.729761,14.387443,-6.87251
0.73,96.27721,-5.983404,5.7314453,-13.418668,14.660248,-6.7970934
0.732,98.00619,-4.7325077,5.23102,-14.126386,14.885905,-6.6949377
0.734,99.881874,-3.2804317,4.7537727,-14.852952,15.0637245,-6.558912
0.736,101.89653,-1.5999641,4.302885,-15.59789,15.194521,-6.381504
0.738,104.04145,0.33740997,3.8832684,-16.3603,15.280347,-6.1550903
0.74,106.311035,2.559002,3.4904728,-17.138924,15.324344,-5.872406
0.742,108.71848,5.073555,3.1133919,-17.93206,15.330558,-5.5269527
0.744,111.25359,7.9172134,2.7824736,-18.737751,15.303528,-5.1133204
0.746,113.87338,11.13702,2.520275,-19.553623,15.248464,-4.627099
0.748,116.56495,14.746212,2.2764547,-20.377352,15.169849,-4.0654993
0.75,119.385574,18.742115,2.0530238,-21.206312,15.0717125,-3.4280996
0.752,122.3181,23.166388,1.7727542,-22.03759,14.957388,-2.7153952
0.754,125.35196,28.021503,1.420207,-22.868467,14.828384,-1.9285961
0.756,128.46599,33.298824,1.040308,-23.6959,14.685997,-1.070796
0.758,131.74321,38.94737,0.60429764,-24.516397,14.530058,-0.14712143
0.76,135.16454,44.977486,0.10116577,-25.325764,14.359337,0.8360858
0.762,138.70546,51.372993,-0.4431343,-26.119862,14.1714115,1.8726578
0.764,142.37856,58.110836,-0.9065552,-26.895107,13.960806,2.9568667
0.766,146.20493,65.18281,-1.2544212,-27.648117,13.719467,4.0834684
0.768,150.19478,72.5232,-1.5798721,-28.375854,13.437816,5.247629
0.77,154.36284,80.06476,-1.911274,-29.075352,13.103924,6.4444714
0.772,158.73361,87.76044,-2.1437073,-29.74445,12.70196,7.670185
0.774,163.32703,95.63819,-2.2687073,-30.386887,12.208472,8.922702
0.776,168.19307,103.55326,-2.342308,-31.00935,11.598127,10.199816
0.778,173.31691,111.38747,-2.2733078,-31.616241,10.848062,11.497448
0.78,178.60599,119.11335,-2.0871887,-32.21577,9.920833,12.816433
0.782,184.10367,126.569046,-1.7570877,-32.808807,8.772408,14.1670685
0.784,189.81027,133.5956,-1.254036,-33.39148,7.3608804,15.562783
0.786,195.70134,140.09848,-0.52270126,-33.966843,5.6586967,16.99583
0.788,201.72757,145.97327,0.51140594,-34.552063,3.6484401,18.467396
0.79,207.82922,151.11844,1.9099503,-35.15663,1.3154144,19.98425
0.792,213.95746,155.4329,3.7269936,-35.779533,-1.3475409,21.553553
0.794,220.04816,158.83269,6.0216637,-36.42094,-4.336466,23.180515
0.796,226.04239,161.26306,8.8612995,-37.081352,-7.6302223,24.868925
0.798,231.837,162.699,12.292622,-37.745316,-11.173614,26.609936
0.8,237.3362,163.0911,16.353603,-38.39234,-14.882402,28.377867
0.802,242.43642,162.40475,21.073639,-39.032726,-18.673145,30.155502
0.804,247.02411,160.63208,26.471794,-39.691025,-22.455534,31.873348
0.806,250.97806,157.7934,32.544434,-40.363148,-26.12073,33.437576
0.808,254.17442,153.93413,39.26965,-41.021416,-29.56393,34.753105
0.81,256.50385,149.11378,46.610382,-41.63683,-32.709038,35.685974
0.812,257.8629,143.41586,54.50725,-42.16199,-35.495678,36.10071
0.814,258.1678,136.93909,62.877373,-42.524086,-37.883465,35.872787
0.816,257.3512,129.79893,71.61334,-42.629307,-39.852734,34.89311
0.818,255.36703,122.12361,80.58537,-42.376045,-41.395226,33.087894
0.82,252.18697,114.05384,89.6418,-41.669136,-42.508545,30.432816
0.822,247.81622,105.72797,98.62477,-40.43327,-43.192993,26.96672
0.824,242.28563,97.285194,107.370674,-38.62583,-43.45042,22.792877
0.826,235.64513,88.86243,115.70912,-36.24509,-43.283516,18.063587
0.828,227.98082,80.583374,123.471,-33.33075,-42.69634,12.96349
0.83,219.39636,72.57674,130.49265,-29.967484,-41.703846,7.7078934
0.832,210.00452,64.96962,136.62344,-26.27867,-40.33428,2.532877
0.834,199.94627,57.861458,141.7302,-22.404526,-38.615364,-2.3286
0.836,189.38489,51.3229,145.71756,-18.495216,-36.586407,-6.6655254
0.838,178.48486,45.408592,148.52205,-14.689917,-34.300735,-10.298687
0.84,167.40881,40.169296,150.1115,-11.098985,-31.824053,-13.08307
0.842,156.31757,35.64659,150.46756,-7.7989397,-29.217073,-14.951954
0.844,145.37259,31.85746,149.60042,-4.850935,-26.526562,-15.909157
0.846,134.73367,28.79625,147.54572,-2.2946177,-23.792858,-16.020746
0.848,124.54481,26.447975,144.36406,-0.13959408,-21.05426,-15.407803
0.85,114.927475,24.791092,140.14474,1.6238041,-18.352089,-14.234603
0.852,105.971695,23.806763,134.99747,3.0062656,-15.73916,-12.682853
0.854,97.77335,23.437187,129.00958,4.030901,-13.265685,-10.934956
0.856,90.427155,23.6133,122.29973,4.7512355,-10.959222,-9.1733
0.858,83.96752,24.292229,115.05292,5.217344,-8.846945,-7.511118
0.86,78.35423,25.428165,107.388245,5.4508944,-6.9625635,-6.027085
0.862,73.61212,26.923882,99.48632,5.4762397,-5.3225,-4.771524
0.864,69.732285,28.719376,91.44589,5.3426743,-3.9184368,-3.7310133
0.866,66.69298,30.754055,83.31468,5.101403,-2.739338,-2.8763957
0.868,64.37117,32.989872,75.21579,4.800099,-1.7680566,-2.1678426
0.87,62.74627,35.320976,67.23851,4.486658,-0.98102736,-1.5572395
0.872,61.77653,37.674232,59.43271,4.209513,-0.35563946,-1.0074959
0.874,61.37135,39.984627,51.779766,4.011938,0.12634182,-0.5013695
0.876,61.434258,42.17875,44.367336,3.9268484,0.47924733,-0.044855297
0.878,61.88305,44.239296,37.37326,3.9746099,0.7148318,0.34139776
0.88,62.629307,46.142273,30.8609,4.1628532,0.84113455,0.63619715
0.882,63.588757,47.842113,24.771286,4.4875135,0.8622906,0.824425
0.884,64.68313,49.24533,19.16542,4.9356775,0.7805002,0.89105695
0.886,65.811646,50.442215,14.130022,5.486996,0.59763527,0.8262716
0.888,66.95428,51.46489,9.596256,6.1154404,0.3169341,0.6354273
0.89,68.13505,52.268673,5.6180553,6.792328,-0.05570054,0.34364688
0.892,69.236305,52.94456,2.1853704,7.49,-0.5103543,-0.005115986
0.894,70.206116,53.55194,-0.7150383,8.184193,-1.0328243,-0.3540817
0.896,71.01967,54.084732,-3.1189737,8.853771,-1.6062953,-0.64191574
0.898,71.669205,54.560394,-5.069743,9.480822,-2.2126622,-0.8112778
0.9,72.1472,55.00251,-6.5890236,10.051608,-2.833185,-0.81579494
0.902,72.43088,55.441864,-7.692462,10.556721,-3.4500914,-0.62527776
0.904,72.51051,55.901306,-8.405103,10.990836,-4.0480995,-0.22954518
0.906,72.37152,56.39009,-8.762705,11.352665,-4.615756,0.36034766
0.908,72.038574,56.911243,-8.786643,11.643873,-5.146311,1.1145768
0.91,71.51932,57.5056,-8.503621,11.867568,-5.6370506,1.9888458
0.912,70.82531,58.202652,-7.945235,12.02763,-6.0892334,2.928301
0.914,69.974594,59.012177,-7.1478834,12.129186,-6.5086904,3.8738048
0.916,68.988625,59.92788,-6.1423526,12.179216,-6.902358,4.769495
0.918,67.88863,60.933876,-4.961611,12.185926,-7.2773767,5.5683794
0.92,66.68456,62.014606,-3.6426291,12.158924,-7.6402454,6.2342076
0.922,65.38902,63.14402,-2.2185974,12.108406,-7.995589,6.741077
0.924,64.00837,64.29418,-0.7176933,12.043611,-8.345692,7.0742416
0.926,62.550167,65.43356,0.83553123,11.972848,-8.689782,7.2317805
0.928,61.02311,66.52788,2.4211617,11.904295,-9.023534,7.224101
0.93,59.440285,67.542,4.0241623,11.845447,-9.340224,7.070584
0.932,57.80634,68.45012,5.6228085,11.802377,-9.631876,6.7966743
0.934,56.13016,69.22867,7.1980495,11.779191,-9.889811,6.431633
0.936,54.425232,69.858185,8.737497,11.777907,-10.105249,6.0058675
0.938,52.69928,70.32723,10.228098,11.798426,-10.27024,5.548437
0.94,50.96323,70.62318,11.660284,11.838456,-10.37841,5.0851035
0.942,49.22715,70.73883,13.021618,11.893668,-10.425508,4.6367793
0.944,47.50404,70.67348,14.299889,11.958225,-10.409564,4.218644
0.946,45.806545,70.43474,15.479252,12.025645,-10.331045,3.8399782
0.948,44.145706,70.03781,16.540009,12.08953,-10.193083,3.5047255
0.95,42.528458,69.49952,17.471561,12.144232,-10.001302,3.212582
0.952,40.960068,68.82941,18.278372,12.18519,-9.763449,2.9603143
0.954,39.44852,68.03519,18.962788,12.209097,-9.488861,2.743092
0.956,38.001427,67.12694,19.523106,12.21394,-9.18774,2.5556397
0.958,36.625565,66.11477,19.961353,12.198773,-8.87044,2.3931274
0.96,35.327503,65.00872,20.283867,12.163495,-8.547003,2.2516346
0.962,34.10982,63.822292,20.49835,12.108582,-8.226912,2.1283953
0.964,32.973846,62.570312,20.613178,12.034839,-7.918643,2.0218122
0.966,31.919632,61.268524,20.636005,11.943217,-7.6290874,1.9312079
0.968,30.946745,59.933155,20.576649,11.834378,-7.3630867,1.8561652
0.97,30.054178,58.581123,20.447163,11.708674,-7.1249046,1.7962649
0.972,29.241089,57.22912,20.258533,11.566749,-6.917207,1.7509501
0.974,28.506216,55.892437,20.02059,11.408955,-6.7410197,1.7197986
0.976,27.847654,54.5838,19.743898,11.23543,-6.5963907,1.7023969
0.978,27.26255,53.314503,19.438326,11.04641,-6.482747,1.6975038
0.98,26.748217,52.093914,19.114178,10.842415,-6.3987937,1.7032869
0.982,26.301815,50.93018,18.781929,10.624125,-6.342787,1.7177424
0.984,25.919502,49.829933,18.452377,10.392399,-6.312773,1.7386847
0.986,25.596176,48.79947,18.136229,10.148432,-6.306634,1.763722
0.988,25.327343,47.843323,17.841167,9.893778,-6.322187,1.7902691
0.99,25.111086,46.962685,17.575695,9.630262,-6.357343,1.815671
0.992,24.937828,46.160774,17.346395,9.359946,-6.410142,1.8373437
0.994,24.805302,45.440384,17.151423,9.085026,-6.478763,1.8528879
0.996,24.71514,44.795628,16.998861,8.807735,-6.5615034,1.860162
0.998,24.657087,44.223637,16.898243,8.530256,-6.656758,1.8574029
1,24.627516,43.7179,16.853184,8.254694,-6.7630363,1.8432009
1.002,24.622946,43.27319,16.863043,7.982985,-6.878873,1.8166001
1.004,24.638176,42.885765,16.927326,7.7168813,-7.00278,1.777036
1.006,24.669313,42.550323,17.046406,7.457996,-7.1332455,1.7243403
1.008,24.712425,42.261417,17.219885,7.207776,-7.268648,1.658642
1.01,24.76313,42.013844,17.446918,6.967496,-7.407302,1.5802448
1.012,24.817219,41.802395,17.7256,6.7383146,-7.547437,1.4895579
1.014,24.871008,41.621067,18.053364,6.5212774,-7.6872234,1.3869582
1.016,24.920519,41.463833,18.427195,6.31737,-7.824742,1.2726507
1.018,24.96134,41.323967,18.843946,6.1275063,-7.9580607,1.1466606
1.02,24.98912,41.19432,19.30001,5.9526086,-8.085313,1.008837
1.022,24.999483,41.067482,19.790663,5.7935944,-8.20468,0.85881484
1.024,24.988049,40.936047,20.310715,5.6514397,-8.314363,0.69602394
1.026,24.95063,40.79248,20.854513,5.5271387,-8.412609,0.51979053
1.028,24.88308,40.62932,21.416418,5.4216356,-8.497784,0.32941318
1.03,24.781527,40.4394,21.990227,5.3357344,-8.5683775,0.12429643
1.032,24.642546,40.21564,22.569742,5.2700496,-8.623036,-0.09590745
1.034,24.46342,39.951393,23.148598,5.224952,-8.660513,-0.33111167
1.036,24.241402,39.640625,23.720509,5.200449,-8.679869,-0.58076763
1.038,23.974424,39.277565,24.279377,5.196099,-8.680454,-0.8437624
1.04,23.66119,38.857235,24.818897,5.210946,-8.661934,-1.1183624
1.042,23.301039,38.375378,25.333145,5.243604,-8.624263,-1.4021478
1.044,22.893791,37.82868,25.816395,5.2922344,-8.567777,-1.6920462
1.046,22.439964,37.21488,26.263165,5.354564,-8.4931755,-1.9844003
1.048,21.940918,36.532936,26.668573,5.428001,-8.401483,-2.2751007
1.05,21.39873,35.782547,27.028334,5.5097494,-8.293903,-2.559692
1.052,20.816235,34.965096,27.338776,5.5968933,-8.171844,-2.8335943
1.054,20.196917,34.082687,27.597008,5.686506,-8.036819,-3.0922532
1.056,19.544952,33.138737,27.800753,5.7757955,-7.89038,-3.3313935
1.058,18.864733,32.137703,27.94838,5.862178,-7.734025,-3.5472295
1.06,18.161291,31.084795,28.038965,5.943325,-7.5691032,-3.7365856
1.062,17.439793,29.986057,28.072552,6.017259,-7.396844,-3.897005
1.064,16.705723,28.847816,28.049732,6.0824385,-7.2183027,-4.0268264
1.066,15.964389,27.677052,27.97165,6.1377444,-7.0343714,-4.1251564
1.068,15.221294,26.48071,27.840342,6.1824746,-6.8457694,-4.191889
1.07,14.481407,25.265808,27.658356,6.2162876,-6.6531763,-4.227559
1.072,13.749937,24.039341,27.428963,6.239186,-6.457224,-4.2333384
1.074,13.031434,22.808275,27.155945,6.2513905,-6.258522,-4.2109723
1.076,12.330093,21.578957,26.84328,6.253284,-6.0577726,-4.1627154
1.078,11.649565,20.35744,26.494965,6.2453074,-5.8558474,-4.091275
1.08,10.992874,19.149082,26.115509,6.227943,-5.6537395,-3.9997158
1.082,10.362752,17.958902,25.709246,6.201673,-5.452532,-3.8913655
1.084,9.761184,16.791277,25.280476,6.1668983,-5.253329,-3.7697322
1.086,9.189876,15.650173,24.833525,6.1239114,-5.057208,-3.6383605
1.088,8.649753,14.539216,24.372498,6.07287,-4.8651943,-3.500709
1.09,8.141513,13.461022,23.90121,6.0138803,-4.678076,-3.3599825
1.092,7.6651416,12.417969,23.423306,5.946995,-4.496397,-3.2189717
1.094,7.2206635,11.4119,22.94177,5.8722343,-4.3204484,-3.0799613
1.096,6.8080387,10.444065,22.459303,5.7895875,-4.1502876,-2.9447155
1.098,6.4263396,9.515671,21.978733,5.6990976,-3.9856927,-2.8144126
1.1,6.074464,8.627773,21.502277,5.600864,-3.8261847,-2.6896763
1.102,5.7511325,7.781089,21.03155,5.4950466,-3.6711283,-2.5705867
1.104,5.4550056,6.9762297,20.568045,5.381855,-3.5198212,-2.4568686
1.106,5.184739,6.2134714,20.112862,5.2615876,-3.3714867,-2.3480158
1.108,4.938843,5.4929266,19.66684,5.1346316,-3.2253,-2.2433977
1.11,4.715881,4.8145485,19.230309,5.001409,-3.0804863,-2.142357
1.112,4.5144253,4.1778946,18.80315,4.8624473,-2.9363303,-2.0442672
1.114,4.3331347,3.5823107,18.385658,4.718367,-2.7922306,-1.9486939
1.116,4.1705494,3.0267777,17.977722,4.569877,-2.6476946,-1.8554177
1.118,4.025367,2.51018,17.579155,4.417752,-2.50237,-1.7644126
1.12,3.8963985,2.031242,17.189365,4.2628326,-2.3560674,-1.6758372
1.122,3.7825556,1.5886364,16.808252,4.1059723,-2.2088146,-1.5899867
1.124,3.6827178,1.1808476,16.43581,3.9480157,-2.0608282,-1.5073233
1.126,3.5958977,0.8059826,16.072054,3.7897217,-1.9125192,-1.4284234
1.128,3.5212717,0.4621787,15.716858,3.6317225,-1.7644846,-1.3539206
1.13,3.4579155,0.14755535,15.370594,3.4744804,-1.6175092,-1.2844412
1.132,3.404786,-0.14006042,15.033839,3.318275,-1.4724574,-1.2206018
1.134,3.3609757,-0.4028082,14.707117,3.1631856,-1.3302456,-1.163034
1.136,3.3258238,-0.64314175,14.391106,3.0091248,-1.191771,-1.1123314
1.138,3.298483,-0.86320496,14.086254,2.8558812,-1.0579054,-1.0689822
1.14,3.278369,-1.0653768,13.793314,2.7031548,-0.9293899,-1.033364
1.142,3.2646275,-1.251986,13.513027,2.550618,-0.8067592,-1.0057002
1.144,3.2565114,-1.425314,13.245891,2.397967,-0.6903398,-0.9860448
1.146,3.253581,-1.5874481,12.992218,2.2449725,-0.5802403,-0.97427505
1.148,3.2553186,-1.7402358,12.752068,2.0915377,-0.47634366,-0.97009724
1.15,3.2611804,-1.8854218,12.52578,1.9377043,-0.3783191,-0.97303545
1.152,3.2704403,-2.0245414,12.313213,1.7836633,-0.28564188,-0.98248637
1.154,3.2829952,-2.1589155,12.114231,1.6297414,-0.19767064,-0.9977279
1.156,3.2983654,-2.289783,11.928429,1.4763575,-0.113699764,-1.0179799
1.158,3.3165233,-2.4181337,11.755062,1.3239832,-0.03296876,-1.042386
1.16,3.3372512,-2.5444984,11.593258,1.1731147,0.045268625,-1.0700629
1.162,3.3603156,-2.669447,11.441915,1.0242256,0.1217058,-1.1001546
1.164,3.385718,-2.7932467,11.299532,0.8777663,0.19697157,-1.1318741
1.166,3.4134297,-2.9160194,11.164679,0.73407686,0.27160484,-1.1645341
1.168,3.4432802,-3.0377455,11.035727,0.5933938,0.34604564,-1.1975412
1.17,3.4753046,-3.158238,10.910977,0.4558288,0.4206101,-1.2304158
1.172,3.509541,-3.2771845,10.788487,0.3213638,0.49547535,-1.262811
1.174,3.5461102,-3.3940856,10.666351,0.18983743,0.5706948,-1.2944933
1.176,3.5849953,-3.5085657,10.54287,0.06098959,0.64619535,-1.325362
1.178,3.6261182,-3.619811,10.415915,-0.06555921,0.7217643,-1.3553901
1.18,3.669803,-3.727325,10.283726,-0.19029206,0.7970567,-1.3845786
1.182,3.715783,-3.8304994,10.144666,-0.31377223,0.87162364,-1.4129783
1.184,3.764365,-3.9288275,9.997071,-0.43658873,0.94491804,-1.4406828
1.186,3.815527,-4.0217,9.839729,-0.5593828,1.016296,-1.4677795
1.188,3.8692534,-4.1084948,9.671565,-0.6827953,1.0850731,-1.4943223
1.19,3.925766,-4.188629,9.4915,-0.8074541,1.1505287,-1.5203495
1.192,3.9848168,-4.2616415,9.298818,-0.9339507,1.2119702,-1.5458869
1.194,4.0465736,-4.327308,9.093061,-1.0627956,1.2687297,-1.5709212
1.196,4.11075,-4.385249,8.873752,-1.1944314,1.3201834,-1.5954417
1.198,4.17735,-4.435356,8.640921,-1.3292117,1.3657773,-1.619444
1.2,4.2462487,-4.477386,8.394529,-1.4673761,1.4050409,-1.6429431
1.202,4.317368,-4.511285,8.134995,-1.6090788,1.4376131,-1.6659807
1.204,4.390694,-4.5371733,7.862761,-1.7543557,1.4632456,-1.6886407
1.206,4.4660263,-4.555138,7.578533,-1.9031374,1.4818068,-1.7110469
1.208,4.543226,-4.5654445,7.282932,-2.0552487,1.493299,-1.7333901
1.21,4.622226,-4.5684004,6.9767694,-2.210414,1.4978426,-1.7559228
1.212,4.703008,-4.564438,6.6610117,-2.3682704,1.4956822,-1.7789369
1.214,4.7853823,-4.5539374,6.3364506,-2.5283906,1.4871732,-1.8027332
1.216,4.8692074,-4.537375,6.003939,-2.6902921,1.472771,-1.8276045
1.218,4.9545608,-4.515338,5.664319,-2.853473,1.4530214,-1.853806
1.22,5.041357,-4.488292,5.3183794,-3.0174427,1.4285269,-1.8815024
1.222,5.129389,-4.456853,4.9669228,-3.18175,1.3999196,-1.9107419
1.224,5.2188416,-4.4215574,4.610499,-3.346011,1.3678782,-1.9414229
1.226,5.309711,-4.3829017,4.2498107,-3.509941,1.333061,-1.9732895
1.228,5.4018893,-4.341483,3.8853927,-3.673346,1.2960893,-2.0059412
1.23,5.4954357,-4.2977557,3.5179024,-3.8361304,1.2575283,-2.0388515
1.232,5.590199,-4.2524076,3.1479285,-3.998303,1.2178767,-2.0714126
1.234,5.6862373,-4.20601,2.7760835,-4.159933,1.1775299,-2.1030385
1.236,5.7836,-4.1590276,2.4030867,-4.321108,1.1367595,-2.1331315
1.238,5.8824344,-4.1122465,2.0297408,-4.481974,1.0957376,-2.161153
1.24,5.982162,-4.0660663,1.6565783,-4.642629,1.0544982,-2.1867049
1.242,6.08228,-4.0208716,1.2848147,-4.803151,1.0129783,-2.209539
1.244,6.1822963,-3.977157,0.9158343,-4.9635844,0.9710283,-2.2295673
1.246,6.2817936,-3.9354422,0.5511657,-5.1239076,0.9284038,-2.246859
1.248,6.3807793,-3.896366,0.19251835,-5.284078,0.8848091,-2.2616208
1.25,6.4791956,-3.8605552,-0.15863037,-5.443997,0.8399215,-2.274169
1.252,6.5767374,-3.8287663,-0.50103986,-5.60355,0.79341346,-2.28488
1.254,6.6726847,-3.8014865,-0.8331977,-5.762599,0.74496955,-2.2941635
1.256,6.766455,-3.779408,-1.1536969,-5.9209948,0.6942964,-2.302445
1.258,6.8573704,-3.7630687,-1.4606016,-6.078593,0.64115757,-2.3101041
1.26,6.9448986,-3.7528005,-1.7523501,-6.2352495,0.5853623,-2.3174233
1.262,7.0287075,-3.7489493,-2.0273879,-6.3908153,0.52679944,-2.3245645
1.264,7.108325,-3.7518225,-2.2845263,-6.545162,0.46544433,-2.3315368
1.266,7.1835084,-3.7613316,-2.5228217,-6.698136,0.40139216,-2.338206
1.268,7.253923,-3.7771876,-2.7415733,-6.8495502,0.3349092,-2.3443131
1.27,7.319041,-3.7987404,-2.9404325,-6.9991484,0.2664448,-2.349444
1.272,7.378919,-3.8250895,-3.1192577,-7.146608,0.1965493,-2.3530667
1.274,7.4333954,-3.8549826,-3.2782707,-7.2915306,0.12590653,-2.3545225
1.276,7.482605,-3.8869092,-3.4178267,-7.433435,0.055343866,-2.35303
1.278,7.526677,-3.9188194,-3.5389786,-7.571786,-0.0141608715,-2.3477097
1.28,7.565848,-3.9484656,-3.6427262,-7.7059617,-0.08144516,-2.3376083
1.282,7.6001863,-3.973226,-3.7306213,-7.8352985,-0.14517522,-2.3216949
1.284,7.6298904,-3.9901593,-3.8045523,-7.9590807,-0.20387757,-2.2988684
1.286,7.65554,-3.9963837,-3.8667455,-8.076577,-0.2560203,-2.2679968
1.288,7.6775017,-3.9889126,-3.9196723,-8.187103,-0.30012563,-2.2279975
1.29,7.696302,-3.9644256,-3.9660316,-8.2900915,-0.3348459,-2.1779006
1.292,7.7124386,-3.9198136,-4.0089655,-8.385119,-0.35906863,-2.1168854
1.294,7.726251,-3.8519917,-4.0514593,-8.471966,-0.3719741,-2.044396
1.296,7.738323,-3.7580726,-4.0967503,-8.55061,-0.37315756,-1.9601715
1.298,7.7491856,-3.6355567,-4.1478543,-8.621196,-0.36260617,-1.8643038
1.3,7.7590113,-3.4821534,-4.2077985,-8.684034,-0.34069642,-1.7572341
1.302,7.768337,-3.2960954,-4.2793603,-8.739494,-0.30818075,-1.6397586
1.304,7.777397,-3.0761466,-4.364954,-8.787964,-0.26611722,-1.512949
1.306,7.7863464,-2.8216205,-4.4665956,-8.829789,-0.21584393,-1.3780962
1.308,7.7953577,-2.5325043,-4.5858088,-8.865264,-0.15892637,-1.236622
1.31,7.804326,-2.2093608,-4.7234674,-8.894607,-0.09714049,-1.0900209
1.312,7.813099,-1.8536656,-4.8798423,-8.918,-0.03241267,-0.93982685
1.314,7.821453,-1.4674246,-5.0546665,-8.935574,0.03325467,-0.7875824
1.316,7.8291473,-1.0535035,-5.247026,-8.947481,0.09778479,-0.6348135
1.318,7.835831,-0.61538506,-5.4551864,-8.953839,0.15917967,-0.4830338
1.32,7.841063,-0.15726948,-5.6772428,-8.954759,0.21557666,-0.33377346
1.322,7.8444195,0.31620753,-5.9106426,-8.950294,0.2653683,-0.18858653
1.324,7.845512,0.7999594,-6.1522737,-8.940399,0.30730334,-0.049093008
1.326,7.8438907,1.2884326,-6.3989253,-8.924867,0.3406966,0.08304691
1.328,7.8391156,1.7759607,-6.6473017,-8.903312,0.3654119,0.20619589
1.33,7.8308673,2.256618,-6.8938413,-8.875188,0.3818988,0.31878006
1.332,7.8188953,2.7247696,-7.13531,-8.839838,0.39111042,0.41942567
1.334,7.8027887,3.174978,-7.3683643,-8.796573,0.39447996,0.50706947
1.336,7.7823067,3.602046,-7.590096,-8.744763,0.39378285,0.5810425
1.338,7.75757,4.0012484,-7.7979026,-8.683919,0.3910422,0.64114535
1.34,7.728419,4.3685813,-7.9895315,-8.613771,0.3883797,0.68768984
1.342,7.6949973,4.7008,-8.163244,-8.534276,0.38781348,0.72155774
1.344,7.65722,4.995423,-8.317701,-8.445653,0.39111313,0.7441553
1.346,7.615435,5.2505507,-8.452068,-8.348344,0.39969003,0.7573291
1.348,7.569702,5.465482,-8.565897,-8.243016,0.4144706,0.76329184
1.35,7.5209727,5.639827,-8.658934,-8.130488,0.43592173,0.7644481
1.352,7.4698133,5.7742767,-8.731784,-8.011688,0.46402928,0.763268
1.354,7.4168444,5.8700843,-8.785337,-7.8875628,0.4983763,0.76209927
1.356,7.3623033,5.92951,-8.820468,-7.7590156,0.53822863,0.763062
1.358,7.3063684,5.9552145,-8.83832,-7.6268654,0.582656,0.7679009
1.36,7.2491984,5.9503555,-8.839802,-7.4917994,0.6305889,0.77790695
1.362,7.191502,5.9185247,-8.825618,-7.3543434,0.6809682,0.79391545
1.364,7.1340494,5.8631687,-8.796838,-7.214876,0.73277867,0.8163151
1.366,7.0774813,5.787988,-8.754494,-7.073646,0.78510225,0.8450623
1.368,7.022311,5.69658,-8.70001,-6.9308043,0.8371514,0.8797594
1.37,6.9689116,5.592452,-8.634602,-6.7864113,0.88827527,0.9197378
1.372,6.917268,5.4787884,-8.559124,-6.6405153,0.93795586,0.96414375
1.374,6.867463,5.358711,-8.474344,-6.4931417,0.98581165,1.0120511
1.376,6.81961,5.2346373,-8.380866,-6.3443103,1.0315883,1.0625263
1.378,6.7739177,5.1086273,-8.279149,-6.194065,1.0751677,1.1146902
1.38,6.73043,4.9824038,-8.170046,-6.042446,1.1165293,1.1677862
1.382,6.6889677,4.85738,-8.05421,-5.889479,1.1557609,1.2211497
1.384,6.6495457,4.734548,-7.932463,-5.7351766,1.1930223,1.274285
1.386,6.6119018,4.614661,-7.805732,-5.579527,1.2285626,1.3268383
1.388,6.575939,4.4981337,-7.674865,-5.422531,1.2626936,1.378624
1.39,6.541402,4.3853335,-7.541049,-5.2641845,1.295793,1.4295954
1.392,6.5082774,4.276348,-7.4052615,-5.1045256,1.3282793,1.479863
1.394,6.476309,4.1713157,-7.268436,-4.9436116,1.3605976,1.5296928
1.396,6.44529,4.070424,-7.1317425,-4.7815657,1.3932183,1.5794436
1.398,6.415062,3.973816,-6.996113,-4.618565,1.4265815,1.6295525
1.4,6.3853703,3.8815894,-6.862638,-4.4548597,1.46106,1.6805229
1.402,6.356329,3.7938485,-6.7321644,-4.2907643,1.4969327,1.7328811
1.404,6.327816,3.710819,-6.605752,-4.1266537,1.5343661,1.7871586
1.406,6.299654,3.632813,-6.484327,-3.9629545,1.5733908,1.8438375
1.408,6.271909,3.560166,-6.3687596,-3.8001392,1.6139132,1.9033453
1.41,6.244604,3.4932284,-6.259785,-3.6387122,1.65569,1.9659593
1.412,6.2176533,3.432376,-6.1581903,-3.4791605,1.6983533,2.0318158
1.414,6.191047,3.3780103,-6.064641,-3.3219414,1.7414669,2.1008782
1.416,6.1650267,3.3303642,-5.979686,-3.1674678,1.7845408,2.1728973
1.418,6.139555,3.2896404,-5.9037404,-3.0160995,1.8270841,2.247456
1.42,6.1147065,3.255987,-5.83712,-2.8681064,1.8685944,2.3239894
1.422,6.0907054,3.2293959,-5.7800927,-2.723691,1.908621,2.401763
1.424,6.067477,3.2097628,-5.7326274,-2.582969,1.9467981,2.4799213
1.426,6.044875,3.1969576,-5.694883,-2.4459796,1.982798,2.5575352
1.428,6.022898,3.1905906,-5.6667366,-2.3126853,2.016409,2.633645
1.43,6.0014586,3.1901798,-5.6477904,-2.1829934,2.047478,2.7072968
1.432,5.980316,3.1951938,-5.637855,-2.0567594,2.0759192,2.7776048
1.434,5.959234,3.2047787,-5.6366477,-1.9338107,2.1017177,2.8437505
1.436,5.9377675,3.218277,-5.643755,-1.8139765,2.1248677,2.9050653
1.438,5.9156685,3.2349467,-5.65867,-1.6971085,2.145421,2.96102
1.44,5.892557,3.2538455,-5.680912,-1.5830784,2.1634402,3.0112329
1.442,5.8679566,3.2742538,-5.7099657,-1.4717929,2.1790032,3.055492
1.444,5.841486,3.2952187,-5.74545,-1.3632338,2.1921873,3.093732
1.446,5.8128133,3.3160636,-5.786865,-1.2574346,2.2030706,3.1260238
1.448,5.781289,3.336148,-5.83365,-1.1544902,2.211744,3.1525574
1.45,5.746646,3.3548617,-5.885508,-1.0545492,2.2183008,3.1736174
1.452,5.708477,3.3716679,-5.9419637,-0.95780164,2.2228262,3.1895633
1.454,5.6665087,3.3861647,-6.002423,-0.86446434,2.2253988,3.2007818
1.456,5.620347,3.3981953,-6.066535,-0.7747528,2.2261138,3.2076726
1.458,5.5698857,3.407389,-6.133901,-0.6888663,2.2250555,3.210638
1.46,5.5151896,3.413993,-6.204888,-0.60698014,2.2223096,3.2100348
1.462,5.4579296,3.418664,-6.281495,-0.529232,2.2179441,3.2061925
1.464,5.4014206,3.4191139,-6.3595243,-0.45569962,2.2120578,3.1993918
1.466,5.3389254,3.4148362,-6.436328,-0.3864119,2.20476,3.1898458
1.468,5.268821,3.4055312,-6.5119133,-0.32135433,2.1961715,3.1777215
1.47,5.1942596,3.392344,-6.586748,-0.26045507,2.1864178,3.1631205
1.472,5.1178255,3.3755033,-6.660427,-0.2035945,2.1756382,3.1461008
1.474,5.0394325,3.3553348,-6.7325788,-0.15061659,2.163999,3.126703
1.476,4.959462,3.3318944,-6.8033195,-0.10132897,2.1516876,3.1049597
1.478,4.8787713,3.3050308,-6.872509,-0.05551392,2.1388783,3.0809045
1.48,4.7977676,3.2744746,-6.939647,-0.012948036,2.1257553,3.0545921
1.482,4.7169023,3.2402816,-7.004137,0.026584089,2.1124763,3.026093
1.484,4.6367774,3.2020054,-7.065173,0.06330535,2.0991712,2.995484
1.486,4.5581775,3.1594424,-7.1219606,0.09741816,2.085941,2.9628584
1.488,4.4814043,3.1123424,-7.1739745,0.1291048,2.0728672,2.9283044
1.49,4.406783,3.060485,-7.2203913,0.15862289,2.0603437,2.89195
1.492,4.334305,3.0038521,-7.2607455,0.18648192,2.049705,2.8538027
1.494,4.264007,2.9426363,-7.2948074,0.21324813,2.0408118,2.813186
1.496,4.195957,2.8771381,-7.322402,0.23964942,2.0332212,2.769618
1.498,4.1300874,2.8078282,-7.3435235,0.26634175,2.0275962,2.7233167
1.5,4.0661426,2.7353454,-7.3582754,0.29388776,2.0247986,2.6746473
1.502,4.0038414,2.6606555,-7.3669453,0.32297096,2.0254354,2.623588
1.504,3.9426582,2.584702,-7.3699665,0.3542488,2.0299914,2.5700955
1.506,3.8818436,2.508858,-7.367762,0.38832673,2.0388224,2.5144582
1.508,3.8208025,2.4346385,-7.361008,0.4255529,2.0518696,2.4573312
1.51,3.7591329,2.3636775,-7.350421,0.46579424,2.0685587,2.399836
1.512,3.6962013,2.2978017,-7.3367968,0.50830626,2.0878918,2.343557
1.514,3.6315486,2.2389047,-7.3209596,0.55163825,2.1085708,2.290471
1.516,3.5648637,2.1887727,-7.303852,0.5936093,2.1290755,2.2427752
1.518,3.4958405,2.149252,-7.286346,0.63141483,2.1477973,2.2026334
1.52,3.424584,2.1218948,-7.269252,0.66193867,2.1632288,2.1718326
1.522,3.35104,2.1080365,-7.253295,0.68216556,2.1740825,2.1514442
1.524,3.2754674,2.1087513,-7.239036,0.68957174,2.1793568,2.141605
1.526,3.1981785,2.1247005,-7.2268105,0.68254924,2.1783237,2.1413767
1.528,3.1196635,2.1560962,-7.216984,0.66068584,2.170454,2.1488287
1.53,3.0405736,2.2028627,-7.2094207,0.6248377,2.1553037,2.161255
1.532,2.9615815,2.2642941,-7.2041054,0.57702416,2.1324937,2.1755314
1.534,2.8833933,2.3394651,-7.2005863,0.52016395,2.1016936,2.1885195
1.536,2.806881,2.4269032,-7.198231,0.45762998,2.062649,2.1974373
1.538,2.732799,2.5248744,-7.196474,0.392801,2.0152848,2.200121
1.54,2.6619534,2.631442,-7.194433,0.3286609,1.9597464,2.1951296
1.542,2.5951717,2.7442925,-7.1911697,0.2675079,1.896447,2.1817455
1.544,2.5330663,2.861168,-7.1855025,0.21075091,1.8259177,2.1598396
1.546,2.4763086,2.9797843,-7.1764154,0.15889901,1.7485721,2.129841
1.548,2.4254332,3.0977128,-7.162845,0.11192188,1.6665565,2.0928016
1.55,2.3810394,3.212858,-7.1437373,0.069368124,1.5816236,2.049325
1.552,2.3434684,3.3231063,-7.117945,0.03074202,1.4942471,1.99961
1.554,2.3129709,3.426776,-7.0846786,-0.004451245,1.4050039,1.9442103
1.556,2.2896194,3.5223866,-7.042929,-0.036788553,1.3147366,1.8843119
1.558,2.2736359,3.6088264,-6.9921227,-0.06671509,1.224142,1.8210843
1.56,2.264767,3.6852107,-6.931666,-0.09454861,1.1337199,1.7554407
1.562,2.262953,3.7510662,-6.8611155,-0.120443255,1.0440087,1.6882088
1.564,2.2679887,3.8062894,-6.780363,-0.144377,0.95554656,1.6201464
1.566,2.279283,3.8510318,-6.689208,-0.16626862,0.8688102,1.5519118
1.568,2.2964063,3.8858917,-6.5877633,-0.1860517,0.7842523,1.4840732
1.57,2.3185625,3.9113045,-6.4756117,-0.20364818,0.7023685,1.4170917
1.572,2.3440223,3.9278436,-6.351594,-0.2190223,0.6237266,1.3513134
1.574,2.3702288,3.9388182,-6.2203565,-0.23220938,0.54888064,1.2870247
1.576,2.4036412,3.9450846,-6.0835657,-0.24332106,0.47836372,1.2244549
1.578,2.4432373,3.9475179,-5.9401064,-0.25249806,0.41264135,1.1638014
1.58,2.484199,3.9460015,-5.7891226,-0.25991338,0.35207507,1.1052651
1.582,2.5236428,3.9417667,-5.6313314,-0.2657815,0.29692125,1.0490426
1.584,2.561924,3.9359646,-5.4674215,-0.2703128,0.24731797,0.9953551
1.586,2.598448,3.929967,-5.2976847,-0.27369803,0.2032592,0.944403
1.588,2.632411,3.9251978,-5.123108,-0.27611303,0.16462046,0.89636284
1.59,2.6634045,3.9229302,-4.944957,-0.2777049,0.13116133,0.8513701
1.592,2.6910806,3.9239206,-4.7645717,-0.2785633,0.1025624,0.8094938
1.594,2.7146738,3.9292169,-4.583229,-0.27871665,0.078460306,0.7707317
1.596,2.7334423,3.9394634,-4.4020386,-0.27812696,0.058485746,0.734987
1.598,2.747139,3.955182,-4.221654,-0.27667266,0.042292684,0.70207494
1.6,2.7557454,3.976416,-4.042748,-0.27418408,0.029585734,0.67170435
1.602,2.7592816,4.0030427,-3.8658032,-0.27041692,0.020158365,0.6435224
1.604,2.7576802,4.034837,-3.6909494,-0.26510313,0.013872504,0.6171411
1.606,2.7510445,4.071406,-3.5185976,-0.25794765,0.010686442,0.5921266
1.608,2.7395918,4.1121883,-3.3488636,-0.248658,0.010639355,0.5680557
1.61,2.7238066,4.1564674,-3.1821392,-0.23698011,0.013826683,0.5445205
1.612,2.7041678,4.2034874,-3.018646,-0.22268537,0.020377979,0.5211556
1.614,2.6812885,4.252371,-2.8586557,-0.20561281,0.030459613,0.4976541
1.616,2.6560054,4.302166,-2.7025142,-0.18566355,0.044237047,0.4737429
1.618,2.6291847,4.3517327,-2.5504165,-0.16281527,0.061867014,0.44918004
1.62,2.601429,4.400014,-2.4026556,-0.13711339,0.083486564,0.42378622
1.622,2.5734763,4.4459195,-2.2594628,-0.10863818,0.109190896,0.3974313
1.624,2.5462127,4.4882526,-2.1210413,-0.077515036,0.1390526,0.37001002
1.626,2.5204306,4.526012,-1.9875239,-0.043909878,0.17310584,0.34147084
1.628,2.496928,4.5581975,-1.8591335,-0.007996127,0.21135876,0.31179732
1.63,2.4762237,4.583851,-1.7360508,0.030061606,0.25378835,0.2810355
1.632,2.4591804,4.602185,-1.6184378,0.070078164,0.3003576,0.24925068
1.634,2.4463954,4.612392,-1.506403,0.11188543,0.35101599,0.21656318
1.636,2.4382806,4.6139374,-1.4000725,0.15531993,0.40569448,0.18311507
1.638,2.4353633,4.6063795,-1.2995425,0.2002314,0.4643206,0.14907147
1.64,2.4380054,4.58927,-1.2049847,0.24644502,0.52681226,0.114610866
1.642,2.4465783,4.5624847,-1.1162986,0.2937955,0.5930718,0.07992609
1.644,2.4613597,4.525755,-1.0336338,0.3421332,0.66297805,0.045203
1.646,2.4824913,4.479136,-0.9569529,0.39130318,0.7363986,0.010615885
1.648,2.5101094,4.4226823,-0.88611555,0.44115183,0.81318665,-0.023686767
1.65,2.5441773,4.3565474,-0.8211255,0.49153924,0.8931558,-0.057575047
1.652,2.5845764,4.2810707,-0.7617221,0.54233694,0.97610044,-0.09096509
1.654,2.631363,4.1965113,-0.7079265,0.5934408,1.0617857,-0.123788
1.656,2.6842523,4.103375,-0.6594428,0.64475036,1.1499398,-0.1560097
1.658,2.742897,4.0020742,-0.6160594,0.6962005,1.240299,-0.18764076
1.66,2.8070447,3.8932483,-0.5774381,0.7477436,1.3325769,-0.21869278
1.662,2.876382,3.7774906,-0.5434046,0.79934967,1.4264889,-0.2491839
1.664,2.950386,3.6554885,-0.51344204,0.8509987,1.5217487,-0.27914482
1.666,3.0286222,3.5280032,-0.4873755,0.90269434,1.6180893,-0.30858123
1.668,3.110851,3.3956904,-0.46478415,0.9544468,1.715244,-0.3374806
1.67,3.196526,3.2593994,-0.4450506,1.0062742,1.812976,-0.36579037
1.672,3.2850142,3.1201382,-0.42785943,1.0582047,1.9110806,-0.3934238
1.674,3.375623,2.9787352,-0.41259706,1.1102655,2.0093596,-0.4202608
1.676,3.4680595,2.836061,-0.3988241,1.16246,2.107633,-0.44615972
1.678,3.5620875,2.6928916,-0.38632154,1.2147727,2.2057526,-0.4709469
1.68,3.6572366,2.5500531,-0.3747306,1.2671876,2.3035727,-0.49444073
1.682,3.7529764,2.4083216,-0.36381817,1.319657,2.4009619,-0.5164737
1.684,3.8489964,2.268588,-0.3531649,1.3720796,2.4977887,-0.5368997
1.686,3.9448836,2.1317077,-0.34265232,1.4243455,2.5939136,-0.5555812
1.688,4.0403676,1.9985191,-0.33204985,1.4763027,2.6892018,-0.57243097
1.69,4.1351795,1.8696456,-0.32135797,1.5277903,2.7835252,-0.58739436
1.692,4.229056,1.7457865,-0.31043315,1.5786254,2.876738,-0.600472
1.694,4.3218718,1.6275934,-0.29925537,1.628629,2.9686983,-0.61171615
1.696,4.413377,1.515668,-0.28794026,1.6777351,3.059631,-0.62185454
1.698,4.5035505,1.4103165,-0.27646494,1.7256362,3.1488967,-0.6301271
1.7,4.5923824,1.3119485,-0.2649405,1.7722595,3.236563,-0.63709366
1.702,4.6797595,1.2207915,-0.25330687,1.8175377,3.3225584,-0.6429912
1.704,4.7657194,1.1369488,-0.24188423,1.8614467,3.4068346,-0.64806354
1.706,4.8503294,1.0604144,-0.23069477,1.9039589,3.4893696,-0.6525816
1.708,4.9334006,0.99113697,-0.2200067,1.945054,3.5701103,-0.65678334
1.71,5.015033,0.9290086,-0.20995784,1.9847593,3.648994,-0.6608399
1.712,5.0952845,0.8738364,-0.20069718,2.0230815,3.7259524,-0.6648592
1.714,5.1743255,0.8252163,-0.19249845,2.060036,3.8009462,-0.6689229
1.716,5.2521377,0.78289056,-0.1854136,2.0956013,3.873948,-0.6731119
1.718,5.3286686,0.7464084,-0.17968321,2.1297312,3.9449582,-0.67749214
1.72,5.4041834,0.71531594,-0.17536974,2.1623259,4.0140114,-0.6821737
1.722,5.478631,0.6891786,-0.1725719,2.1932611,4.0811834,-0.6873076
1.724,5.5522127,0.66753846,-0.17137837,2.2223976,4.146561,-0.6931052
1.726,5.6250997,0.6497289,-0.17182183,2.249583,4.2102556,-0.69979656
1.728,5.6971197,0.6354682,-0.17394876,2.2746935,4.2723684,-0.707608
1.73,5.7685285,0.6241887,-0.17778945,2.297636,4.332957,-0.7167051
1.732,5.839408,0.61542904,-0.18319511,2.3183737,4.392012,-0.72718346
1.734,5.9098754,0.6087923,-0.19019723,2.3369055,4.449477,-0.739046
1.736,5.979951,0.6037918,-0.19864058,2.3532796,4.505231,-0.75218797
1.738,6.0496345,0.6001165,-0.20845008,2.3675826,4.55912,-0.7664299
1.74,6.1190205,0.5974736,-0.21941209,2.379914,4.6109853,-0.78157413
1.742,6.1881676,0.5955037,-0.23137403,2.39037,4.6606917,-0.7974441
1.744,6.256961,0.59394383,-0.24421835,2.3990328,4.708143,-0.8139204
1.746,6.3256435,0.59249103,-0.2577932,2.405962,4.7533197,-0.8309395
1.748,6.3940086,0.5909176,-0.2718904,2.4111795,4.79624,-0.8485172
1.75,6.4621744,0.5889683,-0.286314,2.4146175,4.836764,-0.86636627
1.752,6.529876,0.58650255,-0.3009684,2.4163978,4.87552,-0.88550127
1.754,6.5971894,0.58335674,-0.31562972,2.4163804,4.9122777,-0.90540576
1.756,6.664049,0.5793395,-0.3300364,2.4145043,4.947072,-0.9261472
1.758,6.730289,0.57443976,-0.34425187,2.4107165,4.9799376,-0.9477585
1.76,6.7957306,0.5684793,-0.35798526,2.4050314,5.0108814,-0.97020686
1.762,6.8604164,0.56132185,-0.37127185,2.3974743,5.03992,-0.9934648
1.764,6.924065,0.55290115,-0.38387203,2.3880572,5.0670333,-1.0175021
1.766,6.9866276,0.54309523,-0.3957932,2.3768277,5.0921702,-1.0422709
1.768,7.048143,0.53199327,-0.40690923,2.3638308,5.1152697,-1.0677336
1.77,7.1082287,0.51952827,-0.4172361,2.3491337,5.1362934,-1.0938282
1.772,7.166876,0.5057869,-0.42655277,2.3328164,5.1552353,-1.1205307
1.774,7.224209,0.49077344,-0.43492532,2.3149486,5.172105,-1.1478076
1.776,7.2800407,0.47456884,-0.44215202,2.2955885,5.1869383,-1.1756065
1.778,7.334119,0.4572717,-0.44817448,2.274765,5.199784,-1.2038465
1.78,7.3866434,0.4389218,-0.45309162,2.2525167,5.210689,-1.2324532
1.782,7.4375973,0.41958213,-0.45670855,2.2288716,5.2197037,-1.2613206
1.784,7.4871335,0.3993287,-0.4590782,2.203854,5.226866,-1.2903394
1.786,7.5351157,0.3784566,-0.46008086,2.177477,5.232202,-1.3193691
1.788,7.5813007,0.35720313,-0.45946956,2.1497817,5.235729,-1.3482753
1.79,7.6258144,0.33574486,-0.45715737,2.1208072,5.237449,-1.376961
1.792,7.6688013,0.31429553,-0.4531101,2.0906203,5.237362,-1.4053547
1.794,7.7102995,0.29293132,-0.44728196,2.0592735,5.2354565,-1.4334062
1.796,7.750387,0.27183592,-0.43959987,2.0268297,5.2317214,-1.4610801
1.798,7.7890625,0.25109172,-0.43000793,1.9933512,5.226154,-1.4883904
1.8,7.826328,0.23099828,-0.41842544,1.9589002,5.218752,-1.5153944
1.802,7.862401,0.21154952,-0.4047997,1.9235568,5.209531,-1.5421634
1.804,7.897167,0.19295394,-0.38904762,1.8873907,5.198509,-1.5687847
1.806,7.930827,0.17525697,-0.37111974,1.8504703,5.1857243,-1.5953553
1.808,7.9632344,0.15868616,-0.35102832,1.8128693,5.1712284,-1.6219434
1.81,7.99448,0.14328957,-0.32867908,1.7746627,5.1550922,-1.6486013
1.812,8.024662,0.12927914,-0.30425,1.7359179,5.137395,-1.6753492
1.814,8.053714,0.11667061,-0.27754402,1.6966864,5.118227,-1.7021606
1.816,8.081778,0.10561895,-0.2484374,1.6570358,5.0976944,-1.7289739
1.818,8.108974,0.09614372,-0.21709275,1.6170399,5.075927,-1.755702
1.82,8.135361,0.08828187,-0.18350732,1.5767759,5.05306,-1.782253
1.822,8.160917,0.082071066,-0.14765823,1.5363474,5.0292473,-1.808516
1.824,8.185572,0.07767248,-0.10959399,1.4958646,5.004644,-1.8343886
1.826,8.209598,0.07488632,-0.06947267,1.4554414,4.979395,-1.8597529
1.828,8.232988,0.0738852,-0.027246475,1.4152226,4.9536705,-1.8845356
1.83,8.255711,0.07459116,0.016953707,1.3753631,4.9276357,-1.9086815
1.832,8.278015,0.07700634,0.06292939,1.336011,4.9014473,-1.932169
1.834,8.299734,0.081085205,0.11062813,1.2973037,4.875249,-1.9549804
1.836,8.320919,0.08688426,0.15997672,1.2593788,4.8491883,-1.9771361
1.838,8.341769,0.09428167,0.2108311,1.2223461,4.8234034,-1.998677
1.84,8.362196,0.1031611,0.26311922,1.1863036,4.7979937,-2.0196836
1.842,8.382345,0.11346412,0.31668866,1.1513172,4.773049,-2.0402255
1.844,8.402233,0.1250906,0.3715014,1.1174387,4.7486644,-2.0603883
1.846,8.421949,0.1379478,0.42734462,1.0846837,4.724882,-2.0802598
1.848,8.441558,0.15180492,0.4841385,1.0530615,4.7017508,-2.0999353
1.85,8.461138,0.16661239,0.5417645,1.0225612,4.679292,-2.119481
1.852,8.480768,0.18226099,0.60025215,0.9931494,4.657511,-2.1389303
1.854,8.500429,0.19866538,0.6594633,0.9647876,4.636394,-2.1582837
1.856,8.52015,0.21567464,0.7194009,0.9374223,4.615935,-2.1775303
1.858,8.540215,0.23322248,0.77990997,0.91101515,4.5961037,-2.1966405
1.86,8.5604725,0.25123692,0.84094495,0.8855312,4.576872,-2.2155728
1.862,8.581193,0.26955295,0.9025637,0.8609185,4.558212,-2.2342718
1.864,8.602179,0.28821015,0.9646435,0.83713424,4.5401106,-2.2526667
1.866,8.623743,0.3070283,1.0270867,0.8141384,4.5225525,-2.2706883
1.868,8.645821,0.32603574,1.0899254,0.791898,4.5055394,-2.2882912
1.87,8.668541,0.34507585,1.1530962,0.77037644,4.4890847,-2.3054378
1.872,8.691877,0.3642912,1.2166008,0.74952936,4.4732246,-2.3220913
1.874,8.715796,0.3837483,1.2803949,0.7293304,4.457979,-2.3382065
1.876,8.740527,0.4034164,1.3444704,0.70974433,4.4433894,-2.3537583
1.878,8.765887,0.42324018,1.4086778,0.6907451,4.429513,-2.3687294
1.88,8.792111,0.44324183,1.4730673,0.6723354,4.4164033,-2.3831134
1.882,8.81909,0.46343803,1.5374384,0.6544944,4.4041147,-2.3968828
1.884,8.846812,0.48390365,1.6018677,0.6372198,4.392709,-2.4100337
1.886,8.875322,0.50469565,1.666199,0.6205257,4.3822403,-2.4225576
1.888,8.904591,0.52585626,1.7304227,0.6044134,4.372776,-2.4344318
1.89,8.934633,0.54737306,1.7942946,0.5889033,4.364367,-2.4456408
1.892,8.965323,0.5693035,1.8578215,0.57402503,4.357074,-2.4561827
1.894,8.996725,0.5917337,1.9208837,0.5597975,4.3509703,-2.4660625
1.896,9.028786,0.6146476,1.9833395,0.5462419,4.346121,-2.4752836
1.898,9.061394,0.63804483,2.0451717,0.5333866,4.34256,-2.4838533
1.9,9.094552,0.66204786,2.1061919,0.5212455,4.340352,-2.4918003
1.902,9.128219,0.68661857,2.1664047,0.5098393,4.339531,-2.4991555
1.904,9.162365,0.7119303,2.2256315,0.49917316,4.3401265,-2.505977
1.906,9.196808,0.73793626,2.2838721,0.48926795,4.342158,-2.5123138
1.908,9.231642,0.76470757,2.3409657,0.4801147,4.3456483,-2.5181992
1.91,9.266759,0.79224205,2.3969414,0.47172666,4.3505797,-2.5236425
1.912,9.301994,0.82074594,2.4516504,0.46409416,4.3569517,-2.5286326
1.914,9.337286,0.85025907,2.5050704,0.4572246,4.3647504,-2.5331385
1.916,9.3726845,0.88081384,2.5571315,0.45113397,4.373966,-2.5371063
1.918,9.408022,0.912483,2.6078095,0.44583678,4.384584,-2.5404794
1.92,9.44313,0.9453368,2.657093,0.44134092,4.3965735,-2.5431924
1.922,9.478111,0.9792428,2.7049274,0.43765473,4.4099116,-2.545159
1.924,9.512812,1.0144048,2.7513757,0.4347843,4.424564,-2.5463367
1.926,9.54701,1.0507858,2.7962394,0.43273866,4.440484,-2.5467134
1.928,9.580836,1.0883164,2.8396633,0.43151474,4.4576354,-2.5463176
1.93,9.613987,1.127116,2.8816836,0.4310987,4.4759493,-2.545201
1.932,9.646435,1.1669841,2.9221454,0.4314778,4.4953575,-2.5434523
1.934,9.678112,1.2079132,2.9611478,0.4326204,4.5157995,-2.5411797
1.936,9.708805,1.2499583,2.9987996,0.43450534,4.5371757,-2.5385027
1.938,9.738444,1.2929504,3.0350509,0.43710446,4.559389,-2.535528
1.94,9.766953,1.3368435,3.069902,0.44038022,4.5823507,-2.532352
1.942,9.794195,1.38146,3.1034606,0.44429696,4.605953,-2.5290656
1.944,9.820218,1.4267201,3.1357408,0.44881344,4.63007,-2.525703
1.946,9.844742,1.4723911,3.1668353,0.45390165,4.6545844,-2.5222435
1.948,9.867746,1.5182965,3.1966999,0.45954025,4.6793847,-2.518637
1.95,9.889151,1.564357,3.22548,0.4656998,4.7043476,-2.5148141
1.952,9.908878,1.6104109,3.2531533,0.47236288,4.7293787,-2.510665
1.954,9.92681,1.6561177,3.2798944,0.47951353,4.7543736,-2.5060947
1.956,9.942812,1.7013938,3.3057384,0.4871391,4.7792497,-2.5010123
1.958,9.956899,1.7459226,3.3308969,0.495224,4.803934,-2.495352
1.96,9.968966,1.7895477,3.3552685,0.5037507,4.828373,-2.4890919
1.962,9.97888,1.8320162,3.3789783,0.51272535,4.8525167,-2.4822588
1.964,9.986842,1.873105,3.4021704,0.5221468,4.8763304,-2.4749022
1.966,9.992558,1.9126518,3.424853,0.53201854,4.899785,-2.4670978
1.968,9.996019,1.9503746,3.4472072,0.5423224,4.9228506,-2.4589362
1.97,9.997232,1.9860971,3.4693134,0.5530611,4.9454894,-2.4505181
1.972,9.996105,2.0197222,3.491223,0.56423247,4.9676743,-2.441916
1.974,9.99264,2.0509737,3.5130272,0.575822,4.989388,-2.433185
1.976,9.986656,2.079802,3.5347912,0.58781385,5.010583,-2.4243631
1.978,9.978268,2.1059978,3.5567565,0.6001791,5.0312386,-2.4154146
1.98,9.967331,2.1296043,3.5788314,0.6128851,5.051317,-2.4062855
1.982,9.953863,2.150317,3.601122,0.6259037,5.0707808,-2.3968906
1.984,9.937963,2.1681256,3.6235976,0.63922036,5.0895834,-2.3871493
1.986,9.919394,2.1828728,3.6464455,0.6528014,5.107697,-2.3769464
1.988,9.898154,2.194753,3.669692,0.6666212,5.1250734,-2.3662071
1.99,9.8742695,2.2036033,3.693355,0.68065476,5.141674,-2.354873
1.992,9.847726,2.209463,3.717449,0.69487154,5.1574693,-2.3428974
1.994,9.818488,2.2123876,3.741951,0.7092542,5.172422,-2.3302658
1.996,9.786549,2.212433,3.7668376,0.72378135,5.186488,-2.3169904
1.998,9.751854,2.2097464,3.7920907,0.7384077,5.1996584,-2.3030798
2,9.714417,2.2044709,3.8177085,0.75308585,5.211899,-2.288572
2.002,9.674329,2.196692,3.8436205,0.76777565,5.2231917,-2.273479
2.004,9.63144,2.1865878,3.8697689,0.78243655,5.233534,-2.257811
2.006,9.585844,2.1742578,3.896106,0.79701126,5.2429175,-2.2415476
2.008,9.5376625,2.1599202,3.922529,0.81146705,5.251333,-2.2246304
2.01,9.486863,2.1437826,3.9489465,0.8257748,5.258786,-2.2070086
2.012,9.433388,2.1261,3.9752593,0.83991295,5.265278,-2.188628
2.014,9.377354,2.1069038,4.0013676,0.85384524,5.270781,-2.169427
2.016,9.318834,2.0865555,4.027183,0.8675477,5.2752585,-2.149352
2.018,9.25782,2.0651836,4.0525846,0.88099396,5.2786813,-2.1283736
2.02,9.194513,2.0430121,4.0775027,0.89417094,5.281001,-2.1064763
2.022,9.128864,2.0201912,4.1018276,0.9070773,5.2821383,-2.0836642
2.024,9.0610695,1.9968495,4.125451,0.91967833,5.282014,-2.0599642
2.026,8.991099,1.973346,4.1482553,0.93194944,5.2805266,-2.035411
2.028,8.919357,1.9496851,4.170291,0.94384813,5.2775655,-2.0100641
2.03,8.845856,1.9260063,4.1913633,0.955315,5.2730103,-1.9839801
2.032,8.770428,1.9025872,4.211565,0.9662812,5.266738,-1.9572538
2.034,8.693453,1.8793554,4.2308264,0.9766576,5.2586074,-1.9299669
2.036,8.615032,1.8565483,4.249137,0.9863396,5.2484956,-1.9022032
2.038,8.535364,1.8341925,4.26651,0.9952081,5.2362666,-1.8740306
2.04,8.454538,1.812319,4.2828894,1.0031648,5.2217965,-1.8455367
2.042,8.372823,1.791146,4.2983103,1.0101,5.2049847,-1.8167934
2.044,8.290422,1.7705579,4.3128643,1.015931,5.1857567,-1.7878553
2.046,8.20731,1.7506361,4.3265295,1.0205765,5.1640444,-1.7587652
2.048,8.123968,1.7313805,4.3393946,1.0239904,5.1398277,-1.7295465
2.05,8.040246,1.7128136,4.3515825,1.0261508,5.113113,-1.7002002
2.052,7.956557,1.6949701,4.3630905,1.0270648,5.083901,-1.6707238
2.054,7.873129,1.6778598,4.374017,1.0267568,5.0522475,-1.6411012
2.056,7.7901645,1.6615,4.384313,1.0252469,5.018199,-1.6113225
2.058,7.707822,1.6458907,4.394169,1.0225798,4.9818172,-1.5813904
2.06,7.6262608,1.6310711,4.40362,1.0187945,4.943175,-1.5513002
2.062,7.5457897,1.6169326,4.4126525,1.013892,4.90235,-1.5210913
2.064,7.4666004,1.6035905,4.421259,1.0078616,4.8594055,-1.4907871
2.066,7.388939,1.5910053,4.4295616,1.0006936,4.814418,-1.4604174
2.068,7.3129134,1.5792849,4.437421,0.99239266,4.7674785,-1.4300255
2.07,7.238662,1.568377,4.4450235,0.98294294,4.7186623,-1.3996625
2.072,7.1663218,1.5583005,4.452173,0.9723218,4.6680403,-1.3693792
2.074,7.096142,1.5490153,4.4589157,0.9605139,4.615698,-1.3392359
2.076,7.0283365,1.5405853,4.465209,0.9474969,4.56172,-1.3092659
2.078,6.962887,1.5330586,4.470951,0.9332672,4.5061665,-1.279506
2.08,6.8998857,1.5264387,4.476078,0.9178184,4.4491024,-1.249989
2.082,6.839332,1.5207248,4.48047,0.901176,4.390566,-1.220726
2.084,6.7814245,1.5159423,4.484165,0.8833677,4.3305826,-1.1917318
2.086,6.726062,1.5121808,4.4870496,0.86442447,4.2691517,-1.1629925
2.088,6.6732903,1.5093207,4.488924,0.8443948,4.2062716,-1.1345098
2.09,6.6230893,1.5074272,4.489818,0.8233228,4.1419287,-1.1062764
2.092,6.575427,1.5065305,4.489669,0.80125165,4.0761037,-1.078314
2.094,6.5301476,1.5066147,4.488431,0.77821434,4.0087614,-1.0506277
2.096,6.4872713,1.5077496,4.4859157,0.7542317,3.9398823,-1.023265
2.098,6.446708,1.5097742,4.482214,0.7293023,3.869442,-0.9962801
2.1,6.408257,1.5127325,4.477172,0.7034114,3.7974448,-0.96977365
2.102,6.3718386,1.516623,4.4708533,0.67651695,3.7238688,-0.94382894
2.104,6.3373175,1.5212977,4.463235,0.6485744,3.648718,-0.9185492
2.106,6.3046083,1.5267246,4.454359,0.61953264,3.5720115,-0.8940377
2.108,6.273554,1.5328789,4.444153,0.5893453,3.4937415,-0.8703803
2.11,6.244049,1.5396714,4.4328337,0.5579809,3.4139185,-0.8476502
2.112,6.215858,1.5468817,4.4203196,0.52540797,3.3325691,-0.8259152
2.114,6.188941,1.554517,4.406712,0.49161175,3.2497048,-0.8052298
2.116,6.1630526,1.5625324,4.392157,0.45661083,3.16535,-0.7856263
2.118,6.138139,1.5708148,4.376682,0.42041758,3.079548,-0.76713717
2.12,6.113944,1.5791607,4.36049,0.38304728,2.9923463,-0.749784
2.122,6.0905547,1.5874035,4.343787,0.34451807,2.9037988,-0.73358047
2.124,6.0677085,1.595576,4.326701,0.3048531,2.8139706,-0.7185186
2.126,6.0453286,1.6035402,4.309369,0.26409817,2.722948,-0.7045729
2.128,6.0233235,1.6112254,4.292033,0.22229046,2.6308165,-0.69170964
2.13,6.0013695,1.6184986,4.2748823,0.17948404,2.537685,-0.67989075
2.132,5.979664,1.6253061,4.2580485,0.13573045,2.4436889,-0.6690556
2.134,5.958115,1.6315823,4.2417583,0.09108173,2.3489556,-0.6591271
2.136,5.936568,1.6372402,4.226219,0.045585856,2.2536407,-0.65001756
2.138,5.914865,1.642375,4.211509,-0.00069893897,2.157914,-0.64163
2.14,5.893095,1.6469009,4.1978865,-0.0477017,2.0619478,-0.6338714
2.142,5.871304,1.6507161,4.185444,-0.09535237,1.965922,-0.6266276
2.144,5.8494067,1.6538391,4.1742682,-0.14356352,1.8700271,-0.6198084
2.146,5.8272424,1.6562935,4.164609,-0.19224663,1.7744482,-0.61332923
2.148,5.804871,1.6580733,4.1564884,-0.24129207,1.6793828,-0.60711485
2.15,5.7823567,1.6591256,4.150118,-0.29057777,1.5850183,-0.6010997
2.152,5.759586,1.6593946,4.145528,-0.33996412,1.4915476,-0.5952587
2.154,5.736597,1.6589221,4.1426444,-0.38930708,1.3991547,-0.58955026
2.156,5.7135806,1.6577406,4.141595,-0.43844438,1.3080362,-0.5839538
2.158,5.690265,1.6557604,4.14227,-0.48720533,1.218366,-0.5784575
2.16,5.666906,1.6530098,4.14473,-0.53541887,1.1303017,-0.57304037
2.162,5.6432657,1.6494251,4.1489325,-0.5829148,1.0440066,-0.567675
2.164,5.6194615,1.6450301,4.1548033,-0.62954265,0.95960885,-0.56231403
2.166,5.595469,1.6398258,4.16232,-0.67515695,0.8772171,-0.5568963
2.168,5.571238,1.633668,4.171273,-0.7196385,0.79692614,-0.5513554
2.17,5.5469933,1.6265937,4.181573,-0.76289576,0.7188173,-0.54560256
2.172,5.522408,1.6186336,4.1931624,-0.8048591,0.64295477,-0.5395501
2.174,5.4976535,1.609735,4.2058434,-0.84547323,0.56940734,-0.53310084
2.176,5.4726453,1.5998089,4.219447,-0.8847156,0.49823245,-0.5261735
2.178,5.447396,1.5888398,4.23385,-0.9225672,0.42949152,-0.51870644
2.18,5.421896,1.5767748,4.248805,-0.95902234,0.3632388,-0.5106348
2.182,5.3962092,1.5636371,4.2642517,-0.99407023,0.2995318,-0.5019232
2.184,5.370043,1.5494019,4.27993,-1.0277157,0.23842032,-0.49255717
2.186,5.3434434,1.5340095,4.2956886,-1.0599452,0.17992608,-0.4825517
2.188,5.3164563,1.5174454,4.3114386,-1.0907505,0.12407726,-0.47193778
2.19,5.289143,1.4996586,4.326989,-1.1201254,0.07087484,-0.46075875
2.192,5.2614026,1.4806674,4.342206,-1.1480577,0.020301789,-0.4490683
2.194,5.233234,1.4604595,4.356885,-1.1745511,-0.02766645,-0.43692425
2.196,5.204559,1.4389372,4.3709855,-1.1995965,-0.07308462,-0.42439473
2.198,5.175392,1.4161856,4.384419,-1.2232012,-0.11601707,-0.4115271
2.2,5.1457534,1.392121,4.3971643,-1.2453622,-0.15652639,-0.39836442
2.202,5.1156263,1.3667938,4.4090986,-1.2660863,-0.19467689,-0.38494873
2.204,5.0849466,1.3402636,4.4202127,-1.2853808,-0.23053838,-0.37129658
2.206,5.053709,1.3124038,4.4305205,-1.3032396,-0.2641684,-0.35741413
2.208,5.022088,1.2832637,4.439892,-1.3196552,-0.2956167,-0.34329942
2.21,4.9899793,1.253019,4.448436,-1.334623,-0.32492033,-0.3289464
2.212,4.9574175,1.2216,4.4561815,-1.3481269,-0.35210812,-0.314321
2.214,4.924404,1.1891031,4.4631124,-1.3601499,-0.37719408,-0.29939494
2.216,4.890959,1.155688,4.469261,-1.3706758,-0.40019357,-0.2841325
2.218,4.857108,1.1213293,4.4747415,-1.3796835,-0.4211097,-0.26850677
2.22,4.822853,1.0862447,4.4794316,-1.3871725,-0.43994153,-0.25248262
2.222,4.788379,1.0505934,4.483469,-1.3931416,-0.4566981,-0.23601718
2.224,4.7537465,1.0144575,4.4868855,-1.397591,-0.47138315,-0.2190845
2.226,4.718963,0.9780216,4.4897323,-1.4005297,-0.4840258,-0.2016626
2.228,4.684001,0.9414189,4.4920735,-1.401992,-0.4946597,-0.18374714
2.23,4.6490827,0.9048989,4.493863,-1.4020097,-0.5033163,-0.16532099
2.232,4.614194,0.8686521,4.4951544,-1.400628,-0.5100407,-0.14636523
2.234,4.5793614,0.83288026,4.4960017,-1.3978859,-0.51489514,-0.12690485
2.236,4.5448484,0.7977214,4.496453,-1.39383,-0.5179288,-0.10693142
2.238,4.5105743,0.76342964,4.4965534,-1.3885125,-0.519194,-0.086453676
2.24,4.476714,0.7301686,4.4961867,-1.3819907,-0.5187518,-0.06547123
2.242,4.4432282,0.698112,4.4955354,-1.3743157,-0.51667243,-0.043991297
2.244,4.410112,0.66742134,4.4945917,-1.3655322,-0.5130152,-0.02203679
2.246,4.3775096,0.63822436,4.4933386,-1.3556825,-0.50784487,0.00036674738
2.248,4.345506,0.61065245,4.4918284,-1.3448093,-0.50122494,0.023199975
2.25,4.3140883,0.58482146,4.490047,-1.3329576,-0.49321425,0.046427667
2.252,4.2832966,0.5607996,4.4880657,-1.3201586,-0.4838833,0.07000208
2.254,4.253107,0.5387461,4.4858994,-1.3064529,-0.47330937,0.09386605
2.256,4.223626,0.51849294,4.483538,-1.2918664,-0.46157426,0.11796871
2.258,4.194844,0.5001769,4.4811,-1.276427,-0.44875026,0.14224748
2.26,4.16669,0.4838047,4.478372,-1.26016,-0.4349273,0.16664025
2.262,4.1391764,0.46926665,4.475584,-1.2431049,-0.42019528,0.19109309
2.264,4.112328,0.45662427,4.4726276,-1.2252823,-0.40464354,0.21554615
2.266,4.0859914,0.44571495,4.469515,-1.2067251,-0.3883533,0.23994519
2.268,4.0604267,0.4365523,4.4662676,-1.1874785,-0.37141263,0.26423985
2.27,4.0354595,0.42903042,4.462878,-1.1675808,-0.3538977,0.28838733
2.272,4.01104,0.42303824,4.4592915,-1.1470767,-0.335889,0.3123597
2.274,3.9872983,0.4184332,4.4555817,-1.1260071,-0.31746897,0.33612195
2.276,3.9641247,0.41512966,4.4516497,-1.1044236,-0.29868886,0.35964632
2.278,3.9416823,0.4131415,4.447527,-1.0823838,-0.2796213,0.38291433
2.28,3.919808,0.41229153,4.443116,-1.059942,-0.2603107,0.40590402
2.282,3.898661,0.41250253,4.4385576,-1.0371463,-0.24081504,0.42859572
2.284,3.878211,0.41368604,4.4337244,-1.0140381,-0.2211784,0.45095676
2.286,3.8584838,0.41583276,4.428732,-0.9906813,-0.20145613,0.47295412
2.288,3.8395147,0.41888237,4.423502,-0.96712637,-0.18168405,0.49456725
2.29,3.8214583,0.42283034,4.4181075,-0.94341934,-0.16189916,0.5157555
2.292,3.8041775,0.42765617,4.412542,-0.9195959,-0.14215305,0.5364935
2.294,3.7878315,0.43340302,4.406825,-0.89570075,-0.12248264,0.5567528
2.296,3.7724519,0.4400823,4.4010363,-0.87178206,-0.10292266,0.5765091
2.298,3.7581248,0.44778562,4.3951154,-0.84788656,-0.08351606,0.5957619
2.3,3.7447262,0.45660734,4.389173,-0.82405704,-0.06430234,0.614517
2.302,3.7325032,0.46658492,4.383258,-0.80033606,-0.045319945,0.63277686
2.304,3.7214026,0.47783136,4.3774524,-0.77677596,-0.026594907,0.6505735
2.306,3.711558,0.4905069,4.371744,-0.7534243,-0.008164912,0.6679437
2.308,3.7028508,0.5047791,4.36621,-0.73032486,0.009943873,0.6849273
2.31,3.6954226,0.52074194,4.360775,-0.70754415,0.027718514,0.70155144
2.312,3.689155,0.5385814,4.3555207,-0.68512243,0.045145363,0.71785367
2.314,3.6841407,0.5584874,4.3505464,-0.6631094,0.062224,0.73387265
2.316,3.680351,0.58069134,4.345751,-0.6415441,0.07894212,0.74962187
2.318,3.6776097,0.60544014,4.341294,-0.62047774,0.09528619,0.7651266
2.32,3.6761036,0.63276315,4.337131,-0.5999405,0.11124769,0.78039277
2.322,3.6758733,0.6629329,4.33319,-0.5799465,0.12681702,0.7954212
2.324,3.6766717,0.69621706,4.329652,-0.56053275,0.1419779,0.8102132
2.326,3.678584,0.7326628,4.3264494,-0.54171795,0.15671942,0.82476145
2.328,3.681581,0.7725258,4.323621,-0.52352256,0.17102677,0.8390707
2.33,3.6856124,0.81589997,4.321175,-0.5059641,0.18487683,0.8531296
2.332,3.690526,0.8629961,4.3191104,-0.48906228,0.19826305,0.8669518
2.334,3.6962357,0.9138298,4.317377,-0.47283077,0.21117121,0.88054335
2.336,3.702917,0.968454,4.316041,-0.45729434,0.22358987,0.893921
2.338,3.7103124,1.0270699,4.315099,-0.44247675,0.23549926,0.90710723
2.34,3.7185054,1.0895343,4.314636,-0.4283974,0.24687535,0.9201346
2.342,3.7272825,1.1559072,4.314587,-0.41508928,0.25768533,0.93303084
2.344,3.736784,1.2260334,4.315033,-0.4025848,0.26788962,0.9458264
2.346,3.7466893,1.2998275,4.3160334,-0.3909018,0.27745527,0.95855045
2.348,3.7571807,1.3771318,4.3176575,-0.38005996,0.2863414,0.9712361
2.35,3.7681248,1.4577192,4.3200207,-0.37007326,0.29450282,0.9839016
2.352,3.7794704,1.5413404,4.3231835,-0.36096108,0.30188006,0.9965546
2.354,3.7911754,1.6276829,4.327193,-0.3527259,0.30843726,1.009196
2.356,3.8032565,1.7163268,4.3322053,-0.34535658,0.31413633,1.0218107
2.358,3.8155842,1.8068569,4.338386,-0.33884078,0.31894642,1.0343665
2.36,3.8281662,1.898803,4.3457227,-0.33316118,0.3228764,1.0468233
2.362,3.8410342,1.9916425,4.3542995,-0.3282786,0.32594693,1.059121
2.364,3.8541012,2.0848238,4.3642354,-0.32413203,0.3282111,1.0711757
2.366,3.8671358,2.1778665,4.375539,-0.3206748,0.32974803,1.0828816
2.368,3.880056,2.270171,4.3882236,-0.317831,0.33069134,1.0941106
2.37,3.8928928,2.3612146,4.4024563,-0.31552047,0.331206,1.1047193
2.372,3.9054809,2.4504476,4.4180255,-0.31365976,0.33148077,1.1145524
2.374,3.9176402,2.5372787,4.4350777,-0.31217527,0.3317164,1.1234546
2.376,3.9292324,2.6212678,4.4534435,-0.3109922,0.33213255,1.1312884
2.378,3.9398866,2.7019615,4.4730663,-0.3100295,0.33293933,1.1379474
2.38,3.9493423,2.7790666,4.4937477,-0.30922294,0.3343311,1.1433642
2.382,3.9575236,2.8522031,4.5154524,-0.30851752,0.33646905,1.1475407
2.384,3.963848,2.9212203,4.5379243,-0.3078649,0.33948797,1.1505361
2.386,3.9682665,2.9858727,4.5610466,-0.30722177,0.34349597,1.1524651
2.388,3.9703522,3.0459552,4.5846934,-0.30655354,0.34856027,1.1535048
2.39,3.9697387,3.1016157,4.6086283,-0.30583382,0.3547212,1.1538522
2.392,3.966193,3.1528146,4.6324844,-0.30504903,0.36199206,1.1537306
2.394,3.9593189,3.1997166,4.6562705,-0.30418807,0.37036234,1.153355
2.396,3.9486685,3.2424755,4.67958,-0.3032583,0.3797928,1.1529328
2.398,3.9339657,3.2813613,4.7022653,-0.30227453,0.3902372,1.1526588
2.4,3.9148786,3.3166332,4.724129,-0.30128378,0.40163413,1.1526805
2.402,3.8911982,3.3486009,4.745048,-0.30032432,0.41389924,1.1531272
2.404,3.8626215,3.3776164,4.7650075,-0.29944512,0.42694846,1.154099
2.406,3.8288841,3.4041443,4.783863,-0.29871035,0.4406868,1.1556697
2.408,3.7899108,3.4283829,4.8016024,-0.2981872,0.45498377,1.1578937
2.41,3.7457564,3.4507635,4.8181744,-0.29794157,0.46971458,1.1608273
2.412,3.6963382,3.4715512,4.833668,-0.29803687,0.48474604,1.1645164
2.414,3.641736,3.4912302,4.8481646,-0.29852623,0.49992684,1.1689886
2.416,3.5822241,3.5099273,4.8617826,-0.29946116,0.5151264,1.1742845
2.418,3.518091,3.5278103,4.8746376,-0.30088818,0.5302175,1.1804241
2.42,3.449669,3.5451028,4.8869605,-0.30283836,0.54510325,1.1874133
2.422,3.3773751,3.5619156,4.8989434,-0.30533582,0.5597148,1.1952455
2.424,3.3018165,3.5781534,4.91069,-0.30840656,0.574031,1.2038968
2.426,3.2234693,3.5939555,4.9225225,-0.31206143,0.5880799,1.2133071
2.428,3.1429608,3.6090872,4.93449,-0.31630713,0.60194,1.2233974
2.43,3.0608573,3.6234322,4.946736,-0.32115453,0.61573994,1.2340513
2.432,2.9777691,3.6368597,4.9595037,-0.32658872,0.6296736,1.2451153
2.434,2.8945363,3.6490514,4.97282,-0.33259165,0.64396167,1.2564337
2.436,2.8116174,3.6598346,4.9867845,-0.3391381,0.6588713,1.2678103
2.438,2.7297053,3.6689963,5.001432,-0.34619316,0.6746668,1.2790416
2.44,2.6492143,3.6762,5.0168414,-0.35370827,0.6916004,1.2899284
2.442,2.5706952,3.681221,5.032919,-0.36163068,0.7099011,1.3002844
2.444,2.4945881,3.6839263,5.049707,-0.36989176,0.72975606,1.3099627
2.446,2.4211097,3.684039,5.0670576,-0.37842143,0.7513179,1.3188524
2.448,2.350704,3.6813493,5.0848393,-0.38714743,0.77467763,1.3268944
2.45,2.283365,3.6758661,5.1028566,-0.39599115,0.7998675,1.3340788
2.452,2.2191148,3.667628,5.120914,-0.40489596,0.8268845,1.34045
2.454,2.1578355,3.656566,5.1387424,-0.41379118,0.85569084,1.3460969
2.456,2.0993204,3.642893,5.1560903,-0.4226455,0.8862378,1.3511419
2.458,2.0433254,3.626785,5.1727276,-0.4314155,0.91846114,1.3557496
2.46,1.9895188,3.6085744,5.188453,-0.44007942,0.95230216,1.3601072
2.462,1.9375551,3.5885723,5.202952,-0.4486289,0.9877018,1.3644038
2.464,1.8870559,3.5671492,5.2161126,-0.45706528,1.0245848,1.3688318
2.466,1.8376322,3.5446007,5.2277346,-0.46540213,1.0628833,1.3735806
2.468,1.7888595,3.521531,5.237609,-0.4736557,1.102541,1.3788396
2.47,1.7402906,3.4983866,5.2458334,-0.48182955,1.1435043,1.3847579
2.472,1.6915894,3.4756293,5.2522593,-0.48989978,1.1857519,1.3914752
2.474,1.6425323,3.453672,5.25672,-0.4978381,1.2292745,1.3990872
2.476,1.5927645,3.4328904,5.259124,-0.50561786,1.2740512,1.4076399
2.478,1.5421093,3.4137466,5.2595563,-0.51319265,1.3200713,1.41714
2.48,1.4903612,3.3965247,5.257835,-0.52052927,1.3673347,1.4275748
2.482,1.4372935,3.3817441,5.2539186,-0.5275756,1.4158609,1.4388745
2.484,1.3826985,3.3695974,5.2477226,-0.5342765,1.4656553,1.4509449
2.486,1.3267808,3.3603616,5.239124,-0.5406163,1.5166967,1.4636683
2.488,1.2693133,3.3543818,5.227736,-0.5465873,1.5689039,1.476877
2.49,1.2104096,3.3518195,5.213363,-0.55221415,1.6221187,1.4903857
2.492,1.1499815,3.3528428,5.1955953,-0.5575633,1.6761148,1.5039965
2.494,1.0880657,3.3576593,5.174094,-0.5627346,1.7305763,1.5174747
2.496,1.0246518,3.36647,5.1484056,-0.5678643,1.7850959,1.5305933
2.498,0.95928556,3.379687,5.1184793,-0.5730994,1.8391749,1.5431323
2.5,0.8922901,3.3970091,5.0841427,-0.5785941,1.8922607,1.5548537
2.502,0.8240037,3.4183016,5.045483,-0.5845203,1.9438109,1.5655289
2.504,0.7546833,3.443251,5.002197,-0.5910274,1.9932747,1.5749363
2.506,0.68507683,3.4715984,4.953904,-0.598223,2.0401497,1.5828552
2.508,0.61523414,3.5033987,4.9001045,-0.60616165,2.084042,1.5890735
2.51,0.54480344,3.5391037,4.840016,-0.61487275,2.1246192,1.5933626
2.512,0.4738279,3.5789495,4.7729597,-0.62435293,2.161646,1.5954792
2.514,0.40200287,3.6233962,4.698875,-0.6345762,2.1949434,1.5951483
2.516,0.32818335,3.6731617,4.6181803,-0.6455206,2.2243962,1.5920708
2.518,0.25100762,3.7290802,4.531637,-0.65713894,2.2499223,1.5859528
2.52,0.16951811,3.791319,4.439913,-0.6693753,2.2714064,1.5764936
2.522,0.08290005,3.860268,4.343393,-0.6822035,2.2886806,1.5634001
2.524,-0.009387672,3.9356456,4.2424107,-0.6955869,2.301489,1.5464133
2.526,-0.108391166,4.0177245,4.1370993,-0.70951164,2.3095028,1.5253012
2.528,-0.21466655,4.106576,4.02749,-0.7239151,2.3123755,1.499839
2.53,-0.32923138,4.2025547,3.9139304,-0.7387378,2.3096535,1.4697847
2.532,-0.45357132,4.306032,3.7970018,-0.7539674,2.3007019,1.4349375
2.534,-0.5893477,4.4178214,3.6770744,-0.7694822,2.284927,1.3951391
2.536,-0.73821235,4.538541,3.554551,-0.7849846,2.2619889,1.3503124
2.538,-0.9020363,4.6691113,3.4299212,-0.79996294,2.2317984,1.3004144
2.54,-1.0822546,4.8100204,3.3037112,-0.8136198,2.194519,1.2454014
2.542,-1.280413,4.961453,3.1763687,-0.8248018,2.1507332,1.1853526
2.544,-1.4977493,5.123593,3.048241,-0.831895,2.1015525,1.120569
2.546,-1.735146,5.2962418,2.9198406,-0.8327904,2.0488253,1.0515517
2.548,-1.9933105,5.478836,2.791254,-0.8249381,1.9953103,0.97892857
2.55,-2.272375,5.670547,2.6622062,-0.80536336,1.944716,0.90339166
2.552,-2.5720155,5.87026,2.5321426,-0.7707043,1.9017824,0.8256529
2.554,-2.8916314,6.076406,2.3998415,-0.7173144,1.8722999,0.74651057
2.556,-3.229869,6.287483,2.2636383,-0.64144015,1.8630172,0.66675633
2.558,-3.5850036,6.5014462,2.1214128,-0.53957814,1.881329,0.5869966
2.56,-3.954603,6.7160196,1.9703491,-0.4088022,1.9347706,0.5075575
2.562,-4.3357244,6.9284196,1.8072658,-0.24714346,2.0305903,0.42848313
2.564,-4.724865,7.136075,1.6286554,-0.053856708,2.1752887,0.34951603
2.566,-5.1181254,7.3359137,1.4304686,0.17027128,2.3739316,0.27013814
2.568,-5.5112615,7.524958,1.2085557,0.4227895,2.6296215,0.18971395
2.57,-5.899571,7.700098,0.95893025,0.6996057,2.9429672,0.10773492
2.572,-6.2783475,7.8584905,0.6777923,0.99515444,3.3117518,0.024050474
2.574,-6.6428494,7.997637,0.3616898,1.3027463,3.730812,-0.060898423
2.576,-6.988512,8.115228,0.008116007,1.614935,4.192143,-0.14595294
2.578,-7.3108315,8.209215,-0.38466144,1.9239366,4.6851807,-0.22925365
2.58,-7.6058445,8.278144,-0.817142,2.2220404,5.1972346,-0.30847073
2.582,-7.8700514,8.321003,-1.2884114,2.501932,5.7141275,-0.38108397
2.584,-8.100877,8.337264,-1.7962983,2.757027,6.2209964,-0.4447477
2.586,-8.29581,8.32701,-2.3371572,2.981645,6.703039,-0.4977231
2.588,-8.453825,8.290712,-2.906075,3.1710062,7.146074,-0.5391197
2.59,-8.57419,8.229292,-3.4968266,3.3213246,7.5371647,-0.5689857
2.592,-8.657133,8.143978,-4.1020937,3.42993,7.8653703,-0.58818936
2.594,-8.70348,8.036516,-4.7136335,3.4953022,8.122273,-0.5982096
2.596,-8.715009,7.9086714,-5.322614,3.5171003,8.302147,-0.6009557
2.598,-8.693814,7.7625275,-5.9198103,3.4961815,8.402061,-0.5985265
2.6,-8.642705,7.600303,-6.496237,3.4345777,8.421785,-0.59284854
2.602,-8.56505,7.4244256,-7.04315,3.3354676,8.363654,-0.5854881
2.604,-8.4642935,7.2372184,-7.552468,3.2029924,8.232363,-0.57765675
2.606,-8.343997,7.0409822,-8.016981,3.0419774,8.034461,-0.5702808
2.608,-8.207642,6.837943,-8.430925,2.857664,7.777854,-0.56424713
2.61,-8.059259,6.6306047,-8.7893915,2.6554232,7.47128,-0.560415
2.612,-7.90265,6.4212885,-9.089061,2.4405398,7.123872,-0.55957055
2.614,-7.7411056,6.2118936,-9.32751,2.217916,6.7446775,-0.56245565
2.616,-7.5778666,6.004201,-9.503508,1.9919021,6.3421803,-0.56974745
2.618,-7.415258,5.799363,-9.617082,1.7661437,5.9238997,-0.5819571
2.62,-7.254812,5.5981708,-9.669382,1.5435188,5.496274,-0.5993222
2.622,-7.0982246,5.401581,-9.662827,1.3261541,5.0645533,-0.621768
2.624,-6.946437,5.210318,-9.60122,1.1154482,4.632832,-0.64896274
2.626,-6.799656,5.024769,-9.489049,0.91214716,4.20414,-0.6803663
2.628,-6.6580124,4.845571,-9.33139,0.71645707,3.7805576,-0.7153281
2.63,-6.521866,4.673559,-9.132998,0.52819467,3.3633342,-0.7531682
2.632,-6.3917456,4.509365,-8.898371,0.34691775,2.9531171,-0.79323304
2.634,-6.267938,4.3537707,-8.631916,0.17205757,2.5501723,-0.83490735
2.636,-6.150138,4.2067523,-8.337728,0.003000155,2.1545525,-0.877643
2.638,-6.038269,4.068374,-8.019816,-0.16079691,1.7662779,-0.9209728
2.64,-5.931425,3.9380932,-7.6823325,-0.31974733,1.3854986,-0.9644667
2.642,-5.828591,3.8153286,-7.329356,-0.4740667,1.0125725,-1.0076979
2.644,-5.7285194,3.6992688,-6.964406,-0.62377,0.6481474,-1.050216
2.646,-5.6302347,3.5892065,-6.590906,-0.76866084,0.29316536,-1.0915319
2.648,-5.532678,3.4843307,-6.212113,-0.9083613,-0.051202655,-1.1310842
2.65,-5.4352603,3.3841481,-5.8311872,-1.0423595,-0.3835871,-1.1682467
2.652,-5.3370843,3.2883883,-5.4510202,-1.1700842,-0.70252424,-1.2023561
2.654,-5.2377443,3.1966772,-5.0743537,-1.290907,-1.0065383,-1.2327418
2.656,-5.136845,3.108775,-4.7038393,-1.4042282,-1.2942581,-1.2588129
2.658,-5.0373774,3.02611,-4.348307,-1.5095062,-1.56453,-1.2800725
2.66,-4.9364076,2.947187,-4.004536,-1.6063172,-1.8164246,-1.2961777
2.662,-4.8339815,2.8717985,-3.674393,-1.6943706,-2.0493157,-1.3069639
2.664,-4.7299733,2.7998595,-3.3593097,-1.7735339,-2.2628753,-1.3124604
2.666,-4.624507,2.73102,-3.060458,-1.8438554,-2.4570973,-1.3128898
2.668,-4.5176454,2.6651561,-2.7787032,-1.9055493,-2.6322486,-1.3086176
2.67,-4.409671,2.602163,-2.5144856,-1.958991,-2.7888694,-1.3001359
2.672,-4.300718,2.5420895,-2.26801,-2.0046775,-2.927651,-1.2879956
2.674,-4.191269,2.4848576,-2.0392592,-2.043188,-3.0494423,-1.272793
2.676,-4.0816703,2.4305024,-1.8277403,-2.075111,-3.1551888,-1.2551174
2.678,-3.9724863,2.3790255,-1.6327692,-2.1010327,-3.2458816,-1.235534
2.68,-3.8642344,2.3305078,-1.4535835,-2.121465,-3.3225312,-1.2145419
2.682,-3.757423,2.284885,-1.2891489,-2.1368268,-3.386085,-1.1925336
2.684,-3.6525264,2.241999,-1.1383157,-2.1474113,-3.4374132,-1.1698236
2.686,-3.5499809,2.2018692,-1.0000571,-2.154187,-3.4780602,-1.1476171
2.688,-3.4502459,2.1643074,-0.87320876,-2.1571784,-3.5088828,-1.1256236
2.69,-3.3536232,2.1291716,-0.7567749,-2.1567478,-3.5309057,-1.104093
2.692,-3.2605233,2.0963724,-0.6498264,-2.153297,-3.5451672,-1.0832261
2.694,-3.1709552,2.065682,-0.5513381,-2.147272,-3.5527296,-1.063185
2.696,-3.0853086,2.0369558,-0.46052527,-2.1391518,-3.5546632,-1.0441027
2.698,-3.0035772,2.009967,-0.3766942,-2.129434,-3.5520144,-1.0260798
2.7,-2.9258578,1.984613,-0.2990483,-2.1186118,-3.5457845,-1.0091894
2.702,-2.8521378,1.9607878,-0.22698212,-2.1071384,-3.5368795,-0.9934806
2.704,-2.7824583,1.938416,-0.1601597,-2.09541,-3.5261164,-0.978968
2.706,-2.7168431,1.9175572,-0.09803927,-2.083739,-3.514171,-0.96562797
2.708,-2.6551564,1.898091,-0.040136814,-2.0723703,-3.5015845,-0.9534216
