Time_s_,Acc_x_m_s_2_,Acc_y_m_s_2_,Acc_z_m_s_2_,Gyro_x_1_s_,Gyro_y_1_s_,Gyro_z_1_s_
0,-1.6586756,0.63146055,3.596065,0.42597777,0.96186924,-0.29129273
0.002,-1.5989151,0.6071534,3.590964,0.43141595,0.9754939,-0.29545647
0.004,-1.5379733,0.5825135,3.5815978,0.43712565,0.9906616,-0.29941344
0.006,-1.4756992,0.557366,3.5669994,0.44297802,1.0075865,-0.30299985
0.008,-1.4122669,0.5317852,3.5468118,0.448845,1.0264819,-0.30603552
0.01,-1.3478553,0.50579095,3.5209637,0.4545579,1.0475466,-0.30830416
0.012,-1.2828251,0.47934932,3.488947,0.45990103,1.0709394,-0.3095852
0.014,-1.2175012,0.4527508,3.449811,0.46464205,1.0967448,-0.30969507
0.016,-1.1522617,0.42616135,3.4022398,0.46853352,1.1249459,-0.30848923
0.018,-1.0876753,0.39995855,3.344946,0.4713437,1.1554244,-0.3059005
0.02,-1.0241425,0.37446636,3.2767017,0.4728704,1.1879315,-0.30200315
0.022,-0.96131396,0.34962457,3.1969967,0.4729541,1.2220731,-0.2970001
0.024,-0.8998857,0.325708,3.1053128,0.47147387,1.2573471,-0.29121363
0.026,-0.840639,0.30356103,3.0006151,0.46837175,1.2931172,-0.28505072
0.028,-0.78275603,0.2824186,2.8842075,0.46378425,1.3294554,-0.27904606
0.03,-0.72688186,0.26268667,2.757923,0.45758608,1.3644042,-0.2734231
0.032,-0.67343605,0.24468002,2.6211283,0.44985572,1.3972242,-0.2685426
0.034,-0.62124074,0.22802496,2.472627,0.44070393,1.4271678,-0.2647082
0.036,-0.57069135,0.21315381,2.312521,0.4302708,1.4534976,-0.2621333
0.038,-0.52189887,0.20015743,2.1421556,0.41869432,1.475438,-0.26088142
0.04,-0.47445583,0.18908638,1.9639385,0.4061532,1.4923416,-0.2609229
0.042,-0.4280523,0.18034302,1.78057,0.392771,1.5036811,-0.26215807
0.044,-0.3824981,0.17406245,1.5946126,0.37864718,1.5090566,-0.26444054
0.046,-0.3373931,0.17017573,1.4086574,0.36386406,1.5082607,-0.2676317
0.048,-0.29242015,0.1685382,1.2253406,0.3485433,1.5013635,-0.2715718
0.05,-0.2472874,0.1691313,1.04728,0.33267504,1.4883355,-0.2762117
0.052,-0.20183222,0.17200842,0.8770916,0.31629157,1.4695526,-0.28139073
0.054,-0.15588805,0.1771614,0.7174677,0.29940444,1.4456145,-0.28686818
0.056,-0.10668592,0.18379016,0.56898504,0.2819541,1.4170339,-0.2925735
0.058,-0.057463482,0.19281209,0.43566704,0.2639153,1.3844671,-0.29834557
0.06,-0.008197233,0.20410134,0.32038575,0.24527499,1.3487532,-0.30399215
0.062,0.041526616,0.2173684,0.22536908,0.22601122,1.3108046,-0.30937845
0.064,0.09124398,0.23271854,0.15180543,0.20616046,1.2714429,-0.31439993
0.066,0.14064132,0.25014967,0.10041542,0.18582684,1.2313839,-0.318987
0.068,0.18942106,0.26958436,0.07108432,0.16512495,1.1913266,-0.3231039
0.07,0.2369921,0.2911183,0.06359098,0.14422756,1.1520247,-0.326725
0.072,0.28309166,0.31457186,0.077587135,0.12339595,1.1143847,-0.32987824
0.074,0.32727033,0.33965692,0.11262417,0.10302481,1.0794913,-0.3326709
0.076,0.3696109,0.3668079,0.16615966,0.083682954,1.0485766,-0.33525625
0.078,0.40924478,0.3948976,0.2378704,0.066021055,1.0229589,-0.33777845
0.08,0.44647986,0.42345014,0.32461947,0.050688595,1.0039886,-0.34033316
0.082,0.48098046,0.45245934,0.42369416,0.038244784,0.99286,-0.34297675
0.084,0.51210064,0.4817262,0.5330108,0.029115587,0.99043417,-0.3457895
0.086,0.54144895,0.5114973,0.6471821,0.02348888,0.9971218,-0.34878218
0.088,0.5672625,0.54127043,0.7682922,0.021270365,1.0128195,-0.35195562
0.09,0.59023166,0.5706819,0.8925842,0.022102267,1.036875,-0.355332
0.092,0.61121607,0.5990449,1.015753,0.025416195,1.0682,-0.35896736
0.094,0.63034165,0.6265049,1.1356356,0.030555397,1.105418,-0.362917
0.096,0.64826953,0.6529678,1.2500229,0.036890596,1.1470253,-0.36725911
0.098,0.66617906,0.677897,1.3567495,0.043858737,1.1915821,-0.37210917
0.1,0.6847782,0.70076686,1.4539785,0.05105394,1.237856,-0.3775717
0.102,0.70475227,0.72144204,1.5396581,0.058241248,1.2849073,-0.383718
0.104,0.7271062,0.73943514,1.6121777,0.06537658,1.3320822,-0.3905977
0.106,0.75279754,0.7546981,1.6703147,0.072559655,1.379028,-0.39823204
0.108,0.7824418,0.7672298,1.7130651,0.07996261,1.4255849,-0.4065823
0.11,0.8168779,0.7768977,1.7399304,0.087723255,1.4716948,-0.4154914
0.112,0.8566722,0.78385186,1.7508483,0.09597778,1.5173047,-0.42489147
0.114,0.9026738,0.7880045,1.7457811,0.10479969,1.5623825,-0.4347093
0.116,0.9549591,0.78978586,1.7248762,0.11430156,1.6068016,-0.44467944
0.118,1.0135967,0.7895327,1.6882038,0.124406934,1.6503932,-0.45469832
0.12,1.0785353,0.78774726,1.6360925,0.13514775,1.6933107,-0.4647004
0.122,1.149743,0.7849269,1.5694029,0.1465885,1.7353358,-0.47446677
0.124,1.2268939,0.78138214,1.4894674,0.15874732,1.7760496,-0.483781
0.126,1.3094535,0.7777039,1.398233,0.17153108,1.8149543,-0.49246645
0.128,1.3969147,0.77443075,1.297477,0.18471456,1.8515207,-0.5003381
0.13,1.4884771,0.7720023,1.1887684,0.19797575,1.8852423,-0.5072579
0.132,1.5825658,0.7711922,1.0730357,0.21103561,1.9156655,-0.51313937
0.134,1.678164,0.77246827,0.95151556,0.22364968,1.9423976,-0.5179592
0.136,1.7742789,0.77591366,0.8263124,0.2356112,1.9651787,-0.52169657
0.138,1.8684312,0.7830213,0.69793975,0.24676675,1.9838767,-0.52428615
0.14,1.9596522,0.79388165,0.56707335,0.25704503,1.9985073,-0.5256844
0.142,2.0463736,0.8086371,0.43682957,0.2664557,2.0092049,-0.5258634
0.144,2.1260543,0.8279931,0.3102493,0.2750396,2.0162048,-0.5248357
0.146,2.1979566,0.8517276,0.18896148,0.2828731,2.0198088,-0.5226296
0.148,2.2608542,0.8800451,0.07343343,0.29001564,2.020337,-0.5193196
0.15,2.31327,0.9130002,-0.036750823,0.29649556,2.0180955,-0.51503605
0.152,2.3541036,0.95019543,-0.14192921,0.3023181,2.0133653,-0.5099548
0.154,2.3825667,0.99137956,-0.2417899,0.3074684,2.0063899,-0.50431097
0.156,2.39776,1.0364105,-0.33571926,0.31192493,1.9973501,-0.49839765
0.158,2.3987691,1.0852444,-0.4231577,0.31562746,1.9863784,-0.49254543
0.16,2.3852496,1.1374526,-0.5035392,0.31852978,1.9735652,-0.48710766
0.162,2.3570583,1.1925466,-0.5766409,0.32056755,1.9589512,-0.4824604
0.164,2.3141134,1.2500355,-0.6426596,0.3217113,1.942565,-0.4789939
0.166,2.2564838,1.309361,-0.7017976,0.32190502,1.9244485,-0.47708786
0.168,2.1847408,1.3699069,-0.75458866,0.32115048,1.904627,-0.47711626
0.17,2.0999093,1.4309652,-0.801498,0.31944382,1.883299,-0.47953254
0.172,2.0028973,1.4919477,-0.84338284,0.31695774,1.8607714,-0.48464355
0.174,1.8953321,1.5519744,-0.8809633,0.3137699,1.8371487,-0.49278542
0.176,1.7787097,1.6104426,-0.9148977,0.31004864,1.81293,-0.50439394
0.178,1.6548216,1.6667613,-0.9458309,0.30606306,1.7887058,-0.5198101
0.18,1.5256691,1.7204977,-0.9742452,0.3021776,1.764993,-0.53920615
0.182,1.393002,1.7713281,-1.0008671,0.29881984,1.742308,-0.56262004
0.184,1.2588418,1.8188965,-1.0259814,0.29643667,1.7211709,-0.5899378
0.186,1.1252861,1.8630183,-1.0499772,0.29545885,1.7020392,-0.6208816
0.188,0.99423623,1.9035988,-1.0731845,0.29633203,1.6853166,-0.6549804
0.19,0.86795145,1.9406852,-1.0956706,0.29949722,1.6712961,-0.6916222
0.192,0.7483486,1.974097,-1.1174405,0.3053648,1.660147,-0.73008585
0.194,0.6379596,2.0037475,-1.1388495,0.3142585,1.6518619,-0.76957
0.196,0.5370392,2.0292835,-1.1573826,0.32637915,1.6462281,-0.80924845
0.198,0.4491065,2.0512528,-1.177385,0.3417754,1.6428105,-0.84833395
0.2,0.37474895,2.0699172,-1.1961392,0.36031535,1.6409621,-0.8861377
0.202,0.3142715,2.0857377,-1.2111279,0.3816847,1.6398561,-0.9220934
0.204,0.26906028,2.098378,-1.2222245,0.40542224,1.6385474,-0.95576346
0.206,0.23934025,2.1079342,-1.2290264,0.43094695,1.63607,-0.98682517
0.208,0.22515118,2.1147714,-1.2305467,0.45760846,1.631525,-1.0150714
0.21,0.22670886,2.1190326,-1.2257441,0.48476642,1.6241896,-1.0403597
0.212,0.24397904,2.12062,-1.2134175,0.5118471,1.6136091,-1.0625902
0.214,0.27639982,2.119452,-1.1925452,0.5383724,1.5996248,-1.0817109
0.216,0.32315364,2.1151996,-1.1627334,0.56398493,1.5823786,-1.0976976
0.218,0.3831537,2.1075954,-1.1237267,0.5884162,1.5622612,-1.1105641
0.22,0.45487827,2.0965805,-1.0755099,0.6114962,1.5398271,-1.1203624
0.222,0.53687394,2.0819755,-1.0180197,0.6330867,1.5156744,-1.1271427
0.224,0.6273202,2.0637891,-0.95161235,0.6530287,1.4903498,-1.1309905
0.226,0.72454655,2.041844,-0.87722707,0.67112935,1.4643126,-1.1320442
0.228,0.82690054,2.0160723,-0.7961893,0.6871474,1.4378829,-1.1305071
0.23,0.93273044,1.9861373,-0.7099776,0.70080614,1.411233,-1.1266592
0.232,1.0401368,1.9518825,-0.6203177,0.7118391,1.3843844,-1.1208203
0.234,1.1473609,1.9132819,-0.52877617,0.72002256,1.3573036,-1.1133773
0.236,1.2526453,1.8703153,-0.43725207,0.72520554,1.3299297,-1.1048054
0.238,1.3543909,1.8229285,-0.34689337,0.7273478,1.3022004,-1.0956926
0.24,1.4514356,1.771245,-0.25883475,0.7265284,1.2741003,-1.086675
0.242,1.5432119,1.7153919,-0.1746769,0.72293454,1.2456836,-1.0784366
0.244,1.6296322,1.6553681,-0.096215874,0.7168378,1.2170368,-1.0716654
0.246,1.7106402,1.5911844,-0.025716782,0.7085443,1.188263,-1.0670242
0.248,1.7861203,1.5228035,0.034850717,0.6983949,1.1594633,-1.0651382
0.25,1.8561192,1.4503865,0.0840905,0.6867357,1.1307517,-1.0665262
0.252,1.9208114,1.3744609,0.121466875,0.67391086,1.1022607,-1.07161
0.254,1.9799535,1.2954769,0.14684424,0.6602567,1.0741652,-1.080704
0.256,2.033652,1.2143223,0.16036034,0.64610124,1.0466745,-1.0939598
0.258,2.081873,1.1319752,0.16240361,0.63176894,1.0200639,-1.1113589
0.26,2.124753,1.0494303,0.15348515,0.61757433,0.9946441,-1.1326854
0.262,2.1622868,0.96791416,0.13420233,0.60382366,0.970752,-1.1574908
0.264,2.19449,0.88862926,0.10520539,0.5908333,0.94873035,-1.1851113
0.266,2.2216012,0.81270623,0.06707829,0.57892716,0.9288681,-1.2146449
0.268,2.2439075,0.7410916,0.020683289,0.5684273,0.9113768,-1.2449863
0.27,2.2613156,0.67490804,-0.03303647,0.5596311,0.8963586,-1.2749112
0.272,2.2738166,0.6150299,-0.09277505,0.55280316,0.8837689,-1.3031527
0.274,2.281627,0.56246006,-0.15687811,0.5481577,0.8733745,-1.3284543
0.276,2.2849784,0.5178747,-0.22367615,0.54583937,0.8647948,-1.349679
0.278,2.2841613,0.4817295,-0.29151136,0.54590344,0.8575253,-1.3658451
0.28,2.279409,0.45412832,-0.35909352,0.54834414,0.8509891,-1.3761891
0.282,2.271129,0.4349988,-0.42511725,0.5530946,0.8446542,-1.3801891
0.284,2.2595532,0.42392033,-0.488298,0.56005955,0.83809817,-1.3775963
0.286,2.2452352,0.4203359,-0.54746056,0.5691335,0.831049,-1.3684251
0.288,2.2286487,0.423436,-0.6016145,0.58022463,0.8233949,-1.3529655
0.29,2.2100737,0.43225044,-0.650104,0.5932392,0.8151461,-1.3317297
0.292,2.189704,0.44578215,-0.69238895,0.60802746,0.8063732,-1.3054055
0.294,2.167556,0.46299106,-0.728243,0.62435055,0.79714596,-1.2748138
0.296,2.143608,0.483006,-0.7575988,0.6418544,0.7874742,-1.2408364
0.298,2.1178455,0.50477993,-0.7806791,0.6600584,0.7773181,-1.2043799
0.3,2.08994,0.5276146,-0.79787034,0.6783985,0.7665848,-1.1663322
0.302,2.0594604,0.55083084,-0.8093155,0.69626606,0.75516236,-1.1274971
0.304,2.0261598,0.57363296,-0.8154258,0.71304953,0.7429264,-1.088585
0.306,1.9896687,0.5955334,-0.8168822,0.72821474,0.729806,-1.0502082
0.308,1.9498695,0.6159097,-0.81431353,0.74135846,0.7157663,-1.0128895
0.31,1.9069684,0.6340345,-0.808674,0.75224197,0.70084816,-0.9771215
0.312,1.8616171,0.64917624,-0.8010372,0.7607922,0.68511,-0.94335115
0.314,1.8145092,0.6604558,-0.79258984,0.7670821,0.66858196,-0.91203326
0.316,1.7669317,0.6670338,-0.7842134,0.77128184,0.65121865,-0.88363904
0.318,1.7201742,0.6682354,-0.77690923,0.77358234,0.6328542,-0.8586627
0.32,1.6754036,0.6635215,-0.7717373,0.77418876,0.6132118,-0.83762264
0.322,1.6339917,0.652459,-0.7697032,0.77325404,0.5918697,-0.8210328
0.324,1.5979052,0.6346355,-0.7714038,0.77090895,0.56838596,-0.8093441
0.326,1.5698495,0.60952854,-0.77693725,0.76722693,0.5423419,-0.8029411
0.328,1.5522468,0.57673734,-0.7867142,0.7622232,0.5134262,-0.80211806
0.33,1.5476704,0.53562057,-0.80120873,0.7558984,0.48143134,-0.8070016
0.332,1.5587307,0.48563075,-0.82101834,0.7482433,0.44631368,-0.81754696
0.334,1.5875076,0.4263126,-0.84653914,0.7392035,0.40816653,-0.8334917
0.336,1.6357503,0.357594,-0.8776757,0.728701,0.36715037,-0.8543347
0.338,1.7044119,0.27948505,-0.9142717,0.71659464,0.32347757,-0.8793409
0.34,1.7939202,0.19264346,-0.95605284,0.7027092,0.27741376,-0.90756935
0.342,1.9041711,0.09779754,-1.0020996,0.68686646,0.22925088,-0.9379269
0.344,2.034566,-0.003854543,-1.0519881,0.6689009,0.1793211,-0.9692692
0.346,2.1837676,-0.11098176,-1.1051164,0.6487074,0.12801224,-1.0004592
0.348,2.3492703,-0.2218691,-1.1612248,0.62626743,0.07573156,-1.0304638
0.35,2.5284593,-0.33554387,-1.2189436,0.60161555,0.022884961,-1.0584171
0.352,2.7175598,-0.4497071,-1.2775539,0.5748697,-0.030166164,-1.0836287
0.354,2.9119987,-0.56233287,-1.3353357,0.54620445,-0.08313118,-1.1055675
0.356,3.1063292,-0.67127013,-1.3905207,0.51584363,-0.13580745,-1.1238871
0.358,3.2957811,-0.77439356,-1.4418316,0.484052,-0.188043,-1.1384163
0.36,3.4753356,-0.8696697,-1.4875973,0.45112205,-0.23974785,-1.1490688
0.362,3.6403608,-0.95555055,-1.5262165,0.41738716,-0.29085684,-1.1557895
0.364,3.7860925,-1.0304941,-1.5567323,0.38323376,-0.34135565,-1.1585162
0.366,3.907815,-1.0934913,-1.5787354,0.34909645,-0.39124477,-1.1572008
0.368,4.001131,-1.1436884,-1.5916183,0.3154838,-0.44048917,-1.151766
0.37,4.0619483,-1.1805471,-1.594523,0.28293717,-0.48905668,-1.142149
0.372,4.086744,-1.2038136,-1.5863594,0.25203115,-0.5368634,-1.1283728
0.374,4.072731,-1.2134656,-1.5662589,0.22333838,-0.58377653,-1.1106238
0.376,4.0175514,-1.2094833,-1.5339955,0.19738917,-0.6296952,-1.0893319
0.378,3.9197981,-1.1922185,-1.4893844,0.17468666,-0.67451215,-1.0652198
0.38,3.7787435,-1.1622995,-1.4324373,0.15571462,-0.7178702,-1.0391092
0.382,3.5947154,-1.120661,-1.3636471,0.14074251,-0.7596082,-1.0120145
0.384,3.368664,-1.0686877,-1.2837007,0.12986013,-0.7996342,-0.9851197
0.386,3.1020572,-1.0076073,-1.193574,0.123032376,-0.8378063,-0.95953834
0.388,2.7974355,-0.9389541,-1.0938939,0.12010312,-0.8740018,-0.93624324
0.39,2.4581585,-0.8641636,-0.98530835,0.12079078,-0.9081409,-0.9160344
0.392,2.0880733,-0.7849331,-0.8685469,0.12478252,-0.94010645,-0.8994944
0.394,1.6919702,-0.7028878,-0.7448708,0.13173632,-0.96975446,-0.886979
0.396,1.2747474,-0.619969,-0.6156078,0.14134316,-0.9969364,-0.8785751
0.398,0.8421097,-0.5380006,-0.4819197,0.15336783,-1.0215275,-0.87417245
0.4,0.40003306,-0.45896,-0.34517723,0.16763964,-1.0434347,-0.8735277
0.402,-0.04510174,-0.38469732,-0.20661676,0.18403278,-1.0625448,-0.8763151
0.404,-0.48688328,-0.31710067,-0.06765504,0.20247146,-1.078727,-0.88215965
0.406,-0.9190649,-0.25799316,0.07055536,0.22287942,-1.091806,-0.8907283
0.408,-1.3352318,-0.20899527,0.20697708,0.24518138,-1.1015882,-0.90180415
0.41,-1.7295489,-0.17155123,0.340284,0.26929665,-1.1078976,-0.91527843
0.412,-2.0962293,-0.14679775,0.4690022,0.29510957,-1.1105887,-0.93114275
0.414,-2.4302192,-0.13571596,0.5919153,0.32243836,-1.1096251,-0.94950247
0.416,-2.7269232,-0.13897178,0.70819676,0.35100484,-1.1050639,-0.9705614
0.418,-2.9823232,-0.15702593,0.81710005,0.38042808,-1.0971047,-0.9945434
0.42,-3.1931639,-0.18992156,0.9177526,0.4102313,-1.0861182,-1.0216333
0.422,-3.3571494,-0.23750508,1.0094305,0.43985593,-1.072661,-1.0519304
0.424,-3.472547,-0.2994693,1.0912995,0.46872538,-1.057404,-1.0853858
0.426,-3.5384464,-0.37535954,1.1625786,0.4962588,-1.0410973,-1.1217613
0.428,-3.5546672,-0.46457422,1.2224919,0.52190053,-1.0244884,-1.1606368
0.43,-3.521342,-0.5663298,1.2707723,0.54520893,-1.0081756,-1.2014296
0.432,-3.4396174,-0.67968947,1.3074269,0.5658075,-0.9926739,-1.2434684
0.434,-3.3113203,-0.8034297,1.3323804,0.58342046,-0.9784606,-1.2861581
0.436,-3.1394885,-0.9361192,1.3455918,0.59802383,-0.9655346,-1.3288476
0.438,-2.9273794,-1.0764127,1.3473355,0.6097075,-0.95371735,-1.3709034
0.44,-2.6787028,-1.2224982,1.3379872,0.6186138,-0.9428188,-1.41181
0.442,-2.398028,-1.3725743,1.3182429,0.6249655,-0.9324997,-1.4511305
0.444,-2.0895872,-1.5246842,1.2889442,0.6290506,-0.92231214,-1.4884512
0.446,-1.7579904,-1.6768917,1.2507074,0.6311818,-0.9118198,-1.523359
0.448,-1.4079257,-1.8273205,1.2041568,0.6316966,-0.90056837,-1.555486
0.45,-1.0440427,-1.9742014,1.1498646,0.6309405,-0.8880778,-1.5845159
0.452,-0.6708578,-2.115893,1.0877432,0.62927246,-0.8738727,-1.6101635
0.454,-0.29345322,-2.2508368,1.0189486,0.627051,-0.85751396,-1.6321439
0.456,0.08372891,-2.377492,0.94416344,0.6246396,-0.8386637,-1.6501665
0.458,0.45674503,-2.4943762,0.86403465,0.6223548,-0.81707466,-1.6639692
0.46,0.8209692,-2.5992262,0.779009,0.6204668,-0.79262555,-1.6733124
0.462,1.1726774,-2.6913512,0.6903455,0.6191662,-0.76531965,-1.6779983
0.464,1.5089846,-2.7695968,0.5977918,0.61858344,-0.73529035,-1.6778876
0.466,1.8265865,-2.8327432,0.50220287,0.61880445,-0.7028206,-1.6729524
0.468,2.122833,-2.8803291,0.40284416,0.61986035,-0.6683191,-1.6632987
0.47,2.3948731,-2.9115453,0.30038303,0.62174046,-0.6323522,-1.6491668
0.472,2.6397958,-2.9257357,0.19468045,0.62438226,-0.59561163,-1.6309233
0.474,2.8560612,-2.9227247,0.086081564,0.62771237,-0.5588951,-1.6090446
0.476,3.0420842,-2.9023645,-0.02439648,0.63161266,-0.52308065,-1.5841148
0.478,3.1970181,-2.8649483,-0.13586208,0.6359511,-0.48905694,-1.5567759
0.48,3.3202553,-2.81073,-0.24757028,0.64058584,-0.4576742,-1.5277001
0.482,3.4117582,-2.7405152,-0.35922906,0.6454042,-0.4296772,-1.4975379
0.484,3.4716394,-2.6551914,-0.47049028,0.65031075,-0.40562454,-1.4669192
0.486,3.500762,-2.5562587,-0.58064306,0.6552644,-0.385846,-1.4364228
0.488,3.500359,-2.445411,-0.68905425,0.6602979,-0.37044564,-1.406525
0.49,3.4718451,-2.3244631,-0.79501647,0.6655016,-0.359294,-1.3776054
0.492,3.4168382,-2.1952739,-0.8975668,0.67099667,-0.35200906,-1.349969
0.494,3.3373654,-2.0596762,-0.99582076,0.6769637,-0.34802186,-1.3238164
0.496,3.2358167,-1.9197371,-1.088689,0.68358755,-0.34665474,-1.299283
0.498,3.1146579,-1.7774174,-1.1753455,0.6910876,-0.34715113,-1.2764016
0.5,2.976357,-1.6346735,-1.2549765,0.69961196,-0.34882307,-1.2551296
0.502,2.8238668,-1.4934623,-1.3267937,0.70926774,-0.35099158,-1.235464
0.504,2.659971,-1.3556802,-1.3900656,0.72006696,-0.35311663,-1.217392
0.506,2.4875598,-1.2228463,-1.4442569,0.731952,-0.35485688,-1.2009128
0.508,2.3093708,-1.0964682,-1.4891089,0.7447784,-0.35605374,-1.1860796
0.51,2.1282964,-0.9778055,-1.5244609,0.75833243,-0.35674727,-1.172981
0.512,1.9469112,-0.86802137,-1.5502439,0.7723718,-0.35720563,-1.1617184
0.514,1.7678257,-0.7679636,-1.5665821,0.78661996,-0.35785353,-1.1523683
0.516,1.5932835,-0.6781409,-1.5736926,0.80080473,-0.35924596,-1.1449877
0.518,1.4252092,-0.59893256,-1.5723073,0.81467277,-0.36199334,-1.139591
0.52,1.2656864,-0.5306306,-1.5630033,0.8280167,-0.3667085,-1.1361525
0.522,1.116485,-0.4733511,-1.5464573,0.8406842,-0.3739306,-1.1346234
0.524,0.9792238,-0.4268605,-1.5235868,0.8525839,-0.38408455,-1.1349465
0.526,0.85523283,-0.39082077,-1.4954439,0.86368036,-0.3974285,-1.1370878
0.528,0.7456047,-0.36486566,-1.4632018,0.873977,-0.41405946,-1.1410383
0.53,0.65117294,-0.34842712,-1.4277321,0.88353884,-0.43389386,-1.1468103
0.532,0.57274514,-0.34085852,-1.3899771,0.89243597,-0.45668247,-1.1544394
0.534,0.5109416,-0.34121597,-1.3508017,0.90077007,-0.4820292,-1.1639737
0.536,0.4661766,-0.34847015,-1.3113365,0.908656,-0.5094168,-1.1754386
0.538,0.43853638,-0.36185205,-1.2725538,0.91622317,-0.5382486,-1.188794
0.54,0.42805573,-0.38032085,-1.2355473,0.92363286,-0.5678441,-1.2039381
0.542,0.43458942,-0.40293056,-1.201393,0.9310561,-0.59745276,-1.2207054
0.544,0.45794618,-0.42883864,-1.1710898,0.93869114,-0.6263131,-1.238858
0.546,0.49776587,-0.45713744,-1.1453735,0.94675416,-0.6536804,-1.2580729
0.548,0.5534069,-0.48672056,-1.1249692,0.9554788,-0.6788148,-1.2780172
0.55,0.6241727,-0.5167434,-1.1102252,0.96509135,-0.70106393,-1.2983065
0.552,0.70934254,-0.54632777,-1.1014221,0.97577494,-0.71993196,-1.3186022
0.554,0.80762726,-0.57467246,-1.0986267,0.9877096,-0.73502314,-1.3385786
0.556,0.91761065,-0.6009425,-1.1019531,1.0010026,-0.7462347,-1.3578582
0.558,1.0380372,-0.62439,-1.1113129,1.0156916,-0.75362706,-1.3761545
0.56,1.167125,-0.64441484,-1.126516,1.0317343,-0.75744766,-1.3932287
0.562,1.302836,-0.6603608,-1.1468012,1.0490109,-0.7581899,-1.4088672
0.564,1.4434979,-0.6717778,-1.1720536,1.0673304,-0.75648934,-1.422908
0.566,1.5870736,-0.678213,-1.201506,1.0864455,-0.75307244,-1.435234
0.568,1.7311335,-0.6791419,-1.2343862,1.106066,-0.7487474,-1.4457734
0.57,1.8735545,-0.674332,-1.2701262,1.1258861,-0.74431616,-1.4544731
0.572,2.012126,-0.6634375,-1.3077959,1.1456065,-0.7405312,-1.4613553
0.574,2.1443717,-0.64618546,-1.3462029,1.1649646,-0.738039,-1.4664797
0.576,2.268809,-0.6226991,-1.3851621,1.1837499,-0.7373571,-1.469933
0.578,2.383054,-0.59270424,-1.4229861,1.2018224,-0.7388301,-1.4718347
0.58,2.4854984,-0.55658853,-1.4595742,1.2190981,-0.7426478,-1.4723204
0.582,2.5747652,-0.5146824,-1.4939162,1.2355638,-0.7488369,-1.4715466
0.584,2.649218,-0.46716905,-1.5248163,1.2512728,-0.75728554,-1.4696846
0.586,2.707704,-0.4143554,-1.5514977,1.266351,-0.767777,-1.4669319
0.588,2.7496653,-0.35665432,-1.5734408,1.2809733,-0.7800056,-1.4634994
0.59,2.7746553,-0.29461777,-1.5900021,1.2953384,-0.79360604,-1.4596225
0.592,2.7826946,-0.22875324,-1.6007934,1.3096725,-0.80818146,-1.4555475
0.594,2.7743278,-0.15989941,-1.6056356,1.3242123,-0.8233141,-1.451538
0.596,2.75012,-0.0886077,-1.6044072,1.3391854,-0.83858365,-1.447893
0.598,2.7110045,-0.015432313,-1.5973269,1.3548349,-0.85357577,-1.4448683
0.6,2.6583982,0.059113488,-1.5847218,1.3713825,-0.8678647,-1.4427164
0.602,2.5940542,0.13452463,-1.5668243,1.3890238,-0.8810728,-1.4416409
0.604,2.5198302,0.20998237,-1.5442396,1.4079461,-0.8928306,-1.4418068
0.606,2.4379356,0.28513548,-1.5173271,1.4282855,-0.9028355,-1.4433241
0.608,2.350727,0.35944998,-1.486865,1.4501431,-0.91090447,-1.4462517
0.61,2.260813,0.43246228,-1.453888,1.4735706,-0.9169665,-1.4505953
0.612,2.1705186,0.5037356,-1.4194334,1.4985569,-0.92110014,-1.4562975
0.614,2.0825133,0.5729267,-1.3842822,1.5250036,-0.92355156,-1.463285
0.616,1.9994204,0.6396458,-1.3493994,1.552748,-0.92470664,-1.471479
0.618,1.923657,0.7037182,-1.3158281,1.5815727,-0.92505234,-1.480784
0.62,1.8574078,0.7648829,-1.2844855,1.6112171,-0.92512494,-1.491095
0.622,1.8029547,0.8231872,-1.2563843,1.6414303,-0.92541206,-1.5023038
0.624,1.7621303,0.8785172,-1.2324089,1.6719618,-0.9263133,-1.5142983
0.626,1.7370322,0.9306009,-1.2136416,1.7026167,-0.9280679,-1.5269285
0.628,1.7290951,0.97937423,-1.2006974,1.7332727,-0.93070036,-1.5400368
0.63,1.7392147,1.0248207,-1.194307,1.7638694,-0.9340092,-1.5534364
0.632,1.7680639,1.0670489,-1.1951588,1.7944205,-0.93758893,-1.566889
0.634,1.8162463,1.1059519,-1.2037864,1.8250065,-0.9408831,-1.5801371
0.636,1.883939,1.1416049,-1.2208133,1.8557613,-0.94327056,-1.5928867
0.638,1.9710535,1.1742047,-1.2466178,1.8868594,-0.94414824,-1.6048425
0.64,2.0771897,1.2037818,-1.281484,1.9184469,-0.943003,-1.6157309
0.642,2.2017386,1.2304858,-1.3255539,1.9506229,-0.93954843,-1.6252934
0.644,2.3437893,1.2543266,-1.3790814,1.9834533,-0.9337308,-1.6333193
0.646,2.502181,1.2754674,-1.4421449,2.0169666,-0.9257495,-1.6396513
0.648,2.675791,1.2942747,-1.5145521,2.0511596,-0.9160487,-1.644173
0.65,2.863095,1.3108672,-1.5961406,2.0860193,-0.90527004,-1.6468234
0.652,3.062609,1.3255237,-1.686669,2.121511,-0.89418674,-1.647641
0.654,3.2725272,1.3387787,-1.785776,2.157623,-0.8836651,-1.6467221
0.656,3.4910564,1.3510363,-1.8932164,2.1943212,-0.87456524,-1.6442299
0.658,3.7166,1.3627913,-2.0087264,2.2315953,-0.8677253,-1.6403689
0.66,3.9472604,1.3746238,-2.1321983,2.2694345,-0.86391187,-1.6353446
0.662,4.1813807,1.387185,-2.263499,2.3078284,-0.8637939,-1.6293999
0.664,4.4172096,1.4010918,-2.4024096,2.3467534,-0.86794513,-1.6227906
0.666,4.653259,1.4169881,-2.5487406,2.3861697,-0.87682337,-1.6157571
0.668,4.887866,1.4357653,-2.7024891,2.4260385,-0.8907577,-1.6084871
0.67,5.119652,1.4580936,-2.863691,2.466303,-0.9099479,-1.6011155
0.672,5.3471565,1.4848866,-3.032537,2.5069013,-0.9344877,-1.5937209
0.674,5.569146,1.5169001,-3.2092254,2.5477784,-0.96435034,-1.5863019
0.676,5.784275,1.5549856,-3.3940818,2.5888696,-0.99938637,-1.5787871
0.678,5.9914026,1.5998983,-3.5873594,2.6301503,-1.0393386,-1.5710337
0.68,6.189475,1.6526202,-3.789481,2.6715984,-1.0838643,-1.5628349
0.682,6.3775697,1.7138255,-4.0007668,2.7132134,-1.1325464,-1.5539346
0.684,6.554708,1.7842625,-4.221661,2.7550435,-1.1849648,-1.5440603
0.686,6.719335,1.8652048,-4.451594,2.7971642,-1.240714,-1.532943
0.688,6.8703475,1.957482,-4.6909337,2.8396654,-1.299395,-1.520308
0.69,7.0080824,2.061481,-4.940874,2.8826475,-1.3606762,-1.5059195
0.692,7.130286,2.1785555,-5.2027683,2.926221,-1.4243046,-1.4895747
0.694,7.236929,2.308311,-5.476817,2.9705327,-1.4901242,-1.4711182
0.696,7.330416,2.449162,-5.7621374,3.0157335,-1.5580305,-1.4504759
0.698,7.4094453,2.6018608,-6.0572124,3.0619557,-1.6280311,-1.4276363
0.7,7.4731374,2.76774,-6.3599334,3.1093056,-1.700252,-1.4026605
0.702,7.5222692,2.9467392,-6.666854,3.1578798,-1.7748828,-1.3756652
0.704,7.5541387,3.1395388,-6.974497,3.2077615,-1.8521751,-1.3468455
0.706,7.5666084,3.34663,-7.2825527,3.2590053,-1.932459,-1.316418
0.708,7.562597,3.5660107,-7.5880914,3.3116827,-2.016091,-1.2846534
0.71,7.543245,3.796005,-7.887522,3.3658557,-2.1034293,-1.2518787
0.712,7.510403,4.03541,-8.174624,3.421558,-2.1948292,-1.2184677
0.714,7.460238,4.28568,-8.446782,3.4787996,-2.2906375,-1.1848663
0.716,7.3971033,4.54468,-8.702061,3.5375392,-2.391126,-1.1515532
0.718,7.324069,4.8107843,-8.936905,3.5977225,-2.496492,-1.119034
0.72,7.2423997,5.080925,-9.145288,3.6593075,-2.6069276,-1.087806
0.722,7.152603,5.3549514,-9.323114,3.7222238,-2.7226634,-1.0584424
0.724,7.0554132,5.631885,-9.465765,3.7863393,-2.8439538,-1.0315392
0.726,6.9554844,5.908679,-9.569095,3.8514683,-2.9710128,-1.0075779
0.728,6.8558965,6.1829677,-9.628347,3.9173522,-3.1040938,-0.9869987
0.73,6.758292,6.4536567,-9.64154,3.983688,-3.243589,-0.9703375
0.732,6.6663475,6.7183785,-9.60799,4.0501375,-3.3898406,-0.9580867
0.734,6.5838284,6.9743514,-9.526056,4.1163807,-3.5428877,-0.9506252
0.736,6.51381,7.219401,-9.393454,4.1821146,-3.7026114,-0.9482378
0.738,6.459772,7.4509797,-9.209011,4.2471514,-3.8686752,-0.95099235
0.74,6.425009,7.6669064,-8.973142,4.311306,-4.0402675,-0.95873153
0.742,6.412389,7.864904,-8.687153,4.374408,-4.2159014,-0.9712739
0.744,6.4243364,8.043004,-8.354082,4.4363046,-4.3933673,-0.9883828
0.746,6.4632807,8.199253,-7.977387,4.4970384,-4.569848,-1.0095967
0.748,6.5307126,8.332125,-7.5619173,4.5569487,-4.741853,-1.034221
0.75,6.62642,8.441524,-7.1166887,4.616484,-4.9049335,-1.0615422
0.752,6.7501836,8.52746,-6.6501513,4.6765203,-5.0543094,-1.0907778
0.754,6.900651,8.590195,-6.1684546,4.73825,-5.1850624,-1.1211171
0.756,7.075459,8.630334,-5.678319,4.8030815,-5.2923946,-1.1516037
0.758,7.2717896,8.6493225,-5.1868916,4.8725734,-5.3719964,-1.1810687
0.76,7.485615,8.649423,-4.701499,4.9483366,-5.4201164,-1.2083321
0.762,7.7123747,8.633806,-4.2294283,5.0319624,-5.4337387,-1.2322035
0.764,7.9469857,8.605476,-3.7777166,5.1247997,-5.4108696,-1.251576
0.766,8.1838045,8.567974,-3.3531673,5.2278557,-5.3503036,-1.2654855
0.768,8.416062,8.525278,-2.9611928,5.3417373,-5.2514086,-1.273174
0.77,8.63696,8.481685,-2.6058965,5.466608,-5.1142635,-1.2741737
0.772,8.8396435,8.44169,-2.2902975,5.6021724,-4.939493,-1.2683005
0.774,9.01734,8.410103,-2.0164957,5.7477016,-4.7282166,-1.2556617
0.776,9.163725,8.391514,-1.785241,5.902088,-4.4821243,-1.2365654
0.778,9.272809,8.390418,-1.5964035,6.0639176,-4.2036047,-1.2114618
0.78,9.339262,8.411212,-1.4488938,6.2315474,-3.8958204,-1.18098
0.782,9.358646,8.457969,-1.340632,6.4031262,-3.5627756,-1.1457503
0.784,9.327173,8.534291,-1.2687339,6.57663,-3.2091444,-1.1062794
0.786,9.242222,8.643299,-1.2297431,6.7499886,-2.840257,-1.0631511
0.788,9.102413,8.787611,-1.2199675,6.9210877,-2.4621296,-1.0170557
0.79,8.907346,8.969053,-1.2353814,7.087968,-2.081068,-0.96873534
0.792,8.657491,9.189348,-1.272002,7.248819,-1.7035587,-0.91910243
0.794,8.354903,9.449177,-1.3254329,7.402176,-1.3362222,-0.8691683
0.796,8.002964,9.7483225,-1.3921791,7.546915,-0.98569894,-0.8198508
0.798,7.605138,10.086563,-1.4676167,7.682173,-0.6583586,-0.7720938
0.8,7.164913,10.463437,-1.5468258,7.807254,-0.35995078,-0.7269405
0.802,6.6890783,10.8769245,-1.624979,7.921665,-0.09557438,-0.6853887
0.804,6.1824007,11.326153,-1.6986058,8.025286,0.13032436,-0.64817
0.806,5.6488514,11.80998,-1.7650323,8.118055,0.31467915,-0.61586595
0.808,5.096592,12.324442,-1.8217576,8.200127,0.4556924,-0.5889003
0.81,4.5330696,12.865173,-1.8663411,8.271843,0.55280733,-0.5676737
0.812,3.964238,13.429134,-1.8967724,8.333665,0.60670483,-0.5525582
0.814,3.3989446,14.012423,-1.9102778,8.3860855,0.61898947,-0.5437645
0.816,2.8445282,14.611074,-1.9011254,8.429577,0.59206104,-0.541402
0.818,2.3032908,15.223311,-1.8667846,8.464671,0.5290021,-0.54553807
0.82,1.7800832,15.8462105,-1.8051438,8.491906,0.43315268,-0.55619466
0.822,1.27918,16.475897,-1.7161722,8.511796,0.30785286,-0.57333803
0.824,0.8094826,17.106632,-1.5959105,8.524833,0.1565305,-0.5969157
0.826,0.37094116,17.736214,-1.4412146,8.531503,-0.017391562,-0.6268492
0.828,-0.034347057,18.361845,-1.2508683,8.532304,-0.21051848,-0.66304255
0.83,-0.40239763,18.981558,-1.025918,8.527787,-0.41947854,-0.7053993
0.832,-0.72947264,19.590797,-0.7658024,8.518526,-0.64092803,-0.75388837
0.834,-1.0133576,20.186533,-0.47101927,8.505065,-0.87163544,-0.8085358
0.836,-1.2556248,20.767786,-0.14208889,8.487952,-1.1084336,-0.86940384
0.838,-1.4558611,21.332571,0.21948147,8.467687,-1.348412,-0.93660617
0.84,-1.6128888,21.878222,0.6138029,8.444675,-1.5889759,-1.0102415
0.842,-1.7281518,22.403694,1.0406475,8.419263,-1.8277521,-1.0904129
0.844,-1.803204,22.908592,1.4971142,8.39166,-2.0625796,-1.1771998
0.846,-1.8393221,23.392088,1.9793463,8.361988,-2.2915258,-1.2706051
0.848,-1.8384972,23.853941,2.4840956,8.330302,-2.512955,-1.3705621
0.85,-1.8027864,24.293787,3.0089154,8.29661,-2.7254632,-1.4769511
0.852,-1.7346435,24.711674,3.5510736,8.260902,-2.927875,-1.5895805
0.854,-1.6368299,25.107935,4.108646,8.223129,-3.1192946,-1.7081895
0.856,-1.512155,25.482824,4.6788726,8.1831875,-3.2990856,-1.8324661
0.858,-1.3634999,25.836702,5.25956,8.140952,-3.4668775,-1.96204
0.86,-1.1928291,26.169249,5.8506384,8.096251,-3.622563,-2.096502
0.862,-1.0030613,26.480871,6.4500694,8.048895,-3.7662802,-2.2353988
0.864,-0.79675114,26.772133,7.053255,7.998667,-3.8983989,-2.3782494
0.866,-0.57634735,27.043705,7.656743,7.9453354,-4.0194764,-2.5245647
0.868,-0.34480983,27.296047,8.257956,7.8886366,-4.1302204,-2.673861
0.87,-0.10428777,27.529343,8.855152,7.828277,-4.2314806,-2.8256843
0.872,0.14289013,27.743671,9.447216,7.7639465,-4.3241415,-2.9795964
0.874,0.39439815,27.939663,10.033343,7.695341,-4.409166,-3.1352024
0.876,0.6485528,28.117746,10.613145,7.6221414,-4.487507,-3.292104
0.878,0.90431774,28.277988,11.185593,7.5440617,-4.5601015,-3.4499083
0.88,1.1605008,28.420599,11.749545,7.4608345,-4.6278987,-3.6082249
0.882,1.4159131,28.545475,12.303968,7.3722,-4.6918263,-3.7666554
0.884,1.6699023,28.65229,12.84821,7.277956,-4.7527747,-3.9247792
0.886,1.9216046,28.740803,13.381609,7.17792,-4.8115745,-4.082183
0.888,2.170671,28.810658,13.90366,7.071938,-4.8689904,-4.23846
0.89,2.4169998,28.86144,14.41362,6.959902,-4.9257083,-4.3932385
0.892,2.6607928,28.892508,14.910732,6.8417215,-4.9823575,-4.5461864
0.894,2.9023728,28.903515,15.394087,6.717329,-5.0394588,-4.6970296
0.896,3.1423264,28.894014,15.862696,6.5866795,-5.0974574,-4.845518
0.898,3.3815045,28.863447,16.315655,6.449756,-5.1567216,-4.991448
0.9,3.6206012,28.811457,16.75193,6.3065734,-5.2175126,-5.134646
0.902,3.8608103,28.737555,17.170532,6.15715,-5.2800217,-5.2749763
0.904,4.1031537,28.641346,17.569958,6.001532,-5.344352,-5.4123063
0.906,4.3488936,28.522646,17.949062,5.839802,-5.410525,-5.546504
0.908,4.5993295,28.381311,18.30661,5.6720724,-5.478499,-5.677441
0.91,4.855983,28.217142,18.641218,5.4984913,-5.54816,-5.8049936
0.912,5.120141,28.030424,18.951664,5.3192472,-5.6193027,-5.9290137
0.914,5.3933363,27.821362,19.236933,5.1345897,-5.6916203,-6.049369
0.916,5.6768837,27.590582,19.496382,4.9448185,-5.764722,-6.165935
0.918,5.9721375,27.338743,19.729559,4.750288,-5.8380923,-6.278588
0.92,6.2803583,27.066515,19.935986,4.5514045,-5.9111342,-6.3872356
0.922,6.602723,26.774649,20.115463,4.348608,-5.983174,-6.491791
0.924,6.9403725,26.463982,20.267998,4.1423974,-6.0534506,-6.592185
0.926,7.294178,26.135431,20.393646,3.9332924,-6.121189,-6.6883783
0.928,7.6649065,25.789845,20.492882,3.7218108,-6.185592,-6.7803555
0.93,8.053003,25.428165,20.5663,3.5085032,-6.245885,-6.8681607
0.932,8.458751,25.05133,20.614475,3.293889,-6.301297,-6.9518185
0.934,8.88206,24.660334,20.638065,3.078518,-6.3511124,-7.0313854
0.936,9.32302,24.255995,20.637825,2.8629196,-6.394664,-7.1069384
0.938,9.781355,23.83902,20.614532,2.6476185,-6.431303,-7.1785517
0.94,10.256465,23.410091,20.56885,2.433151,-6.46046,-7.2463007
0.942,10.74779,22.96979,20.50156,2.2200518,-6.481578,-7.3102674
0.944,11.254587,22.51856,20.413239,2.0088575,-6.49415,-7.3705597
0.946,11.775998,22.056753,20.304415,1.8000915,-6.497721,-7.427297
0.948,12.310969,21.58456,20.175549,1.5942726,-6.4919324,-7.4805956
0.95,12.858514,21.102015,20.02697,1.3919117,-6.4764843,-7.5305777
0.952,13.417554,20.608925,19.859035,1.1934762,-6.4511743,-7.577398
0.954,13.986845,20.104912,19.672102,0.99943066,-6.41586,-7.6211824
0.956,14.56515,19.58958,19.466257,0.81022215,-6.370478,-7.662052
0.958,15.151169,19.062397,19.241493,0.62627554,-6.314985,-7.7000995
0.96,15.743507,18.522718,18.997618,0.44799232,-6.249421,-7.7354097
0.962,16.340754,17.969933,18.734535,0.27574682,-6.173873,-7.7680464
0.964,16.941402,17.403194,18.451962,0.10988951,-6.088456,-7.798032
0.966,17.543629,16.82198,18.14978,-0.04927349,-5.9933686,-7.825375
0.968,18.145672,16.225914,17.827454,-0.20147848,-5.8888965,-7.8500137
0.97,18.745586,15.614342,17.484713,-0.34651613,-5.7754116,-7.871855
0.972,19.341206,14.986988,17.121044,-0.48424578,-5.653411,-7.8906975
0.974,19.930122,14.343777,16.736082,-0.61460924,-5.5235023,-7.906249
0.976,20.509758,13.684796,16.329674,-0.7376113,-5.3863964,-7.9180946
0.978,21.077686,13.010433,15.901682,-0.853333,-5.2429447,-7.9257107
0.98,21.631023,12.32133,15.452034,-0.96191216,-5.094083,-7.928442
0.982,22.167145,11.618501,14.980755,-1.0634868,-4.9408064,-7.9255257
0.984,22.683416,10.90326,14.488083,-1.1582291,-4.784178,-7.9161315
0.986,23.176834,10.177431,13.974637,-1.2462761,-4.6252594,-7.899373
0.988,23.644604,9.442961,13.441309,-1.3277321,-4.46508,-7.874346
0.99,24.08411,8.702138,12.889099,-1.4026241,-4.3045907,-7.8401437
0.992,24.493,7.9576735,12.319357,-1.4709444,-4.144639,-7.7959194
0.994,24.869125,7.212413,11.733479,-1.5326066,-3.985924,-7.7409043
0.996,25.210785,6.4694653,11.133256,-1.5874779,-3.8289883,-7.6744223
0.998,25.516533,5.7318754,10.520557,-1.635381,-3.6741898,-7.5959253
1,25.785357,5.002859,9.89775,-1.6761007,-3.5217109,-7.50498
1.002,26.016655,4.28564,9.2674885,-1.7094226,-3.3715208,-7.401312
1.004,26.21037,3.5832949,8.632663,-1.7351377,-3.2234747,-7.2847786
1.006,26.36718,2.8986664,7.9963055,-1.7530503,-3.0773203,-7.155365
1.008,26.488005,2.2346172,7.36146,-1.7630284,-2.93277,-7.0132275
1.01,26.574379,1.5937567,6.7312803,-1.7650013,-2.7895322,-6.8586645
1.012,26.628342,0.9781933,6.1090856,-1.7589494,-2.6473627,-6.69212
1.014,26.652184,0.38983822,5.498276,-1.7449329,-2.506053,-6.514151
1.016,26.64832,-0.16967678,4.9019775,-1.7230809,-2.365485,-6.325461
1.018,26.619404,-0.69911575,4.323369,-1.6936092,-2.2256267,-6.1268554
1.02,26.568115,-1.1974535,3.7656593,-1.6568127,-2.0864754,-5.9192305
1.022,26.497465,-1.6643953,3.2316785,-1.6130828,-1.9480708,-5.7035546
1.024,26.410053,-2.0996313,2.724152,-1.5628606,-1.810447,-5.4808273
1.026,26.30842,-2.5033007,2.2452655,-1.5066513,-1.6735932,-5.252076
1.028,26.194763,-2.8755722,1.7970562,-1.4450147,-1.5374393,-5.018334
1.03,26.07117,-3.216752,1.3813019,-1.3785397,-1.4018435,-4.7806015
1.032,25.939194,-3.527337,0.99960756,-1.3078415,-1.2665915,-4.5398216
1.034,25.799782,-3.807929,0.65297365,-1.2335502,-1.1314169,-4.296912
1.036,25.653624,-4.0590935,0.34226847,-1.1563048,-0.99604106,-4.05273
1.038,25.501049,-4.2815266,0.06764889,-1.0767167,-0.8602109,-3.8080845
1.04,25.34209,-4.476082,-0.1709032,-0.9954036,-0.72373617,-3.5637736
1.042,25.176193,-4.643486,-0.37342095,-0.91297066,-0.586514,-3.3205395
1.044,25.002583,-4.7845182,-0.5404079,-0.82999045,-0.44852257,-3.079085
1.046,24.819956,-4.8998375,-0.6730211,-0.7469812,-0.3098507,-2.8400795
1.048,24.627007,-4.990316,-0.77271724,-0.6644157,-0.1706571,-2.6041744
1.05,24.422178,-5.056541,-0.841202,-0.58271366,-0.031163216,-2.372019
1.052,24.203878,-5.099454,-0.8804512,-0.50223756,0.10836691,-2.14424
1.054,23.970322,-5.1200337,-0.89254975,-0.42330423,0.24764451,-1.9214665
1.056,23.719774,-5.1193466,-0.8796799,-0.346185,0.3863394,-1.7043166
1.058,23.450573,-5.0983133,-0.8443208,-0.271117,0.5241468,-1.4934009
1.06,23.161282,-5.0579743,-0.78902173,-0.19832039,0.6607555,-1.2893173
1.062,22.850405,-4.999375,-0.71667385,-0.12798455,0.79583454,-1.0926448
1.064,22.51717,-4.923737,-0.63012075,-0.06030783,0.92906296,-0.90393615
1.066,22.160759,-4.8323636,-0.53212976,0.0045131445,1.0601319,-0.7237097
1.068,21.78075,-4.726592,-0.42546034,0.06628922,1.1887152,-0.55241346
1.07,21.37682,-4.607938,-0.31278467,0.12483245,1.3144941,-0.39041534
1.072,20.948929,-4.4778566,-0.19653964,0.17997462,1.4371076,-0.23802745
1.074,20.497276,-4.33781,-0.07902384,0.23155951,1.5561866,-0.09547901
1.076,20.022413,-4.189296,0.037595987,0.27944255,1.671329,0.037068933
1.078,19.525124,-4.0339417,0.15159893,0.32347196,1.7820888,0.1595104
1.08,19.006474,-3.8732643,0.26141334,0.36352056,1.8879597,0.27178687
1.082,18.46758,-3.7086077,0.3655436,0.3994665,1.9883807,0.3738641
1.084,17.909792,-3.541387,0.46273255,0.43117517,2.0827212,0.4657039
1.086,17.334913,-3.3728318,0.55181026,0.4585445,2.1703215,0.5472743
1.088,16.74453,-3.2040715,0.6319115,0.48147798,2.2505076,0.61857134
1.09,16.140629,-3.0361147,0.70249224,0.49990892,2.322618,0.67957187
1.092,15.525175,-2.8699713,0.7634442,0.51379836,2.3860245,0.730273
1.094,14.900328,-2.7065086,0.8148215,0.52314544,2.4401693,0.77067983
1.096,14.268599,-2.5464015,0.8568444,0.52798337,2.4845793,0.80081695
1.098,13.632521,-2.39012,0.8898287,0.528387,2.5188634,0.8207182
1.1,12.9946375,-2.2382045,0.91442966,0.5244711,2.542769,0.83047056
1.102,12.357515,-2.0910058,0.93150103,0.5163857,2.5561347,0.8302071
1.104,11.723669,-1.9487331,0.9418553,0.50431764,2.5589082,0.8201145
1.106,11.095702,-1.8116536,0.94633555,0.48848373,2.5511365,0.80040985
1.108,10.476104,-1.6798809,0.9460602,0.46912235,2.5329442,0.7713592
1.11,9.867165,-1.5533373,0.9418298,0.44650263,2.5045028,0.7332711
1.112,9.27129,-1.43208,0.93441606,0.4209016,2.4660046,0.68650794
1.114,8.690534,-1.3159621,0.9247258,0.3926134,2.4176655,0.6314832
1.116,8.126678,-1.2047565,0.91386914,0.36192304,2.3596961,0.56867
1.118,7.581571,-1.0983069,0.90296006,0.3291427,2.2923079,0.49857846
1.12,7.056943,-0.99652886,0.8927748,0.2945726,2.215704,0.4217738
1.122,6.55411,-0.89918804,0.88389325,0.25850874,2.1301193,0.3388422
1.124,6.074237,-0.8060446,0.87676716,0.221241,2.035809,0.25040406
1.126,5.618435,-0.71726775,0.87189806,0.18304032,1.933102,0.15711063
1.128,5.187576,-0.6327659,0.8697437,0.1441611,1.8223385,0.05963105
1.13,4.782053,-0.55241346,0.8705411,0.1048305,1.7039415,-0.04136437
1.132,4.402206,-0.47605264,0.87471426,0.06524634,1.5783718,-0.1451889
1.134,4.0485253,-0.40386963,0.8823441,0.025560081,1.4460987,-0.2511989
1.136,3.7210584,-0.33592188,0.8935771,-0.01412788,1.3076243,-0.35876957
1.138,3.4197054,-0.27240086,0.90845186,-0.053741068,1.1634748,-0.46730644
1.14,3.1443844,-0.21376169,0.92679584,-0.09324193,1.0141844,-0.57623327
1.142,2.8946507,-0.16015434,0.94844687,-0.1326079,0.86032784,-0.68501997
1.144,2.6701734,-0.111855865,0.97320616,-0.17184368,0.7025268,-0.7931561
1.146,2.4704442,-0.069279075,1.0007786,-0.21096256,0.5414752,-0.90015626
1.148,2.2948256,-0.03283775,1.0310034,-0.24997228,0.3779379,-1.005556
1.15,2.1424181,-0.0028443336,1.0637712,-0.2888811,0.21274427,-1.1089269
1.152,2.0123932,0.020359397,1.0988317,-0.327708,0.046776205,-1.2098619
1.154,1.9037008,0.03642702,1.1361408,-0.36648288,-0.119027674,-1.3079736
1.156,1.8151729,0.04506409,1.1759992,-0.40521955,-0.2836835,-1.4028949
1.158,1.7456157,0.046237588,1.2185786,-0.44392675,-0.44620162,-1.494272
1.16,1.6936082,0.039631844,1.2640171,-0.48257536,-0.60557944,-1.5817773
1.162,1.6577743,0.025149584,1.3125737,-0.5211303,-0.76082087,-1.665103
1.164,1.6366719,0.0028978586,1.3645809,-0.5595281,-0.9109207,-1.743956
1.166,1.6288545,-0.027114391,1.4203155,-0.5976647,-1.0548855,-1.8180856
1.168,1.6326625,-0.06475055,1.4802054,-0.635408,-1.1917403,-1.8872712
1.17,1.6463149,-0.10993254,1.544845,-0.672585,-1.3205367,-1.9513203
1.172,1.6682746,-0.16246688,1.6148975,-0.7090032,-1.4403734,-2.0100532
1.174,1.696502,-0.22167027,1.6911532,-0.7444303,-1.5503824,-2.0633168
1.176,1.7293974,-0.287122,1.7742379,-0.77863574,-1.6497773,-2.110967
1.178,1.7651933,-0.3583032,1.8647733,-0.81137943,-1.7378623,-2.1528637
1.18,1.8024311,-0.43444157,1.963392,-0.84242505,-1.8140556,-2.1888797
1.182,1.8394425,-0.51486766,2.0704627,-0.8715566,-1.877874,-2.2188933
1.184,1.8746758,-0.59878176,2.1861973,-0.8985869,-1.9290045,-2.2427952
1.186,1.9066088,-0.68535393,2.3108616,-0.92335033,-1.9672418,-2.260507
1.188,1.9336714,-0.7737173,2.4448917,-0.94570565,-1.9925106,-2.2719502
1.19,1.95433,-0.86274153,2.5884104,-0.96553755,-2.0048752,-2.2770948
1.192,1.9671594,-0.9514467,2.7415674,-0.982769,-2.0044942,-2.2759705
1.194,1.970754,-1.0386757,2.9042184,-0.9973515,-1.9916221,-2.2686324
1.196,1.9636135,-1.1233208,3.0759587,-1.0092676,-1.9665768,-2.255166
1.198,1.9443728,-1.2042447,3.2565289,-1.0185083,-1.9296846,-2.2356863
1.2,1.9113823,-1.2802296,3.4454775,-1.0250778,-1.8812482,-2.2103329
1.202,1.8630364,-1.3500302,3.642221,-1.0289932,-1.8215401,-2.1792452
1.204,1.7979393,-1.4124954,3.8462143,-1.0302707,-1.750769,-2.142563
1.206,1.7144245,-1.4663777,4.0567694,-1.0289191,-1.6690941,-2.1004498
1.208,1.6110594,-1.5104165,4.273137,-1.0249357,-1.5766467,-2.053071
1.21,1.4863641,-1.5432398,4.4943414,-1.018334,-1.4735646,-2.0005865
1.212,1.3391271,-1.5637472,4.719325,-1.0091394,-1.3599982,-1.9431796
1.214,1.1682112,-1.5708139,4.947284,-0.9974054,-1.2361501,-1.8810084
1.216,0.9725345,-1.5630652,5.177064,-0.9831715,-1.1022766,-1.8142623
1.218,0.7514042,-1.5395598,5.407236,-0.96651065,-0.9587394,-1.7431364
1.22,0.5042473,-1.4993622,5.6364894,-0.9475317,-0.80599636,-1.6678536
1.222,0.23071915,-1.4417143,5.863315,-0.9263587,-0.64459467,-1.5886781
1.224,-0.06926453,-1.36605,6.0861735,-0.9031402,-0.47516274,-1.50593
1.226,-0.395357,-1.2718112,6.3036256,-0.8780581,-0.29843462,-1.4200071
1.228,-0.7471349,-1.1584897,6.5142183,-0.85133314,-0.115222394,-1.331391
1.23,-1.1239402,-1.0257673,6.716711,-0.8231936,0.073604584,-1.2406557
1.232,-1.5248547,-0.8734658,6.909958,-0.79391754,0.26711613,-1.1484756
1.234,-1.948755,-0.701584,7.092764,-0.7638177,0.46432245,-1.0556184
1.236,-2.394372,-0.5101094,7.2641973,-0.7332393,0.6641925,-0.96291935
1.238,-2.8604603,-0.29953468,7.4232416,-0.7025498,0.86567396,-0.8712662
1.24,-3.3456342,-0.07030499,7.5691657,-0.6721267,1.0676785,-0.78158915
1.242,-3.848705,0.17705584,7.7013707,-0.64237356,1.2691153,-0.6948289
1.244,-4.368524,0.4419611,7.8194895,-0.6137003,1.4688846,-0.6119214
1.246,-4.9036016,0.7237293,7.9234505,-0.5865157,1.6658804,-0.5337894
1.248,-5.4523745,1.0213379,8.0132675,-0.56122947,1.8590114,-0.46134838
1.25,-6.0135784,1.3339989,8.089106,-0.5382173,2.0472155,-0.39546126
1.252,-6.585593,1.6605256,8.151116,-0.51783687,2.2294612,-0.33695275
1.254,-7.1668763,1.9997914,8.199697,-0.50039953,2.4046912,-0.2866059
1.256,-7.7557435,2.3506088,8.235411,-0.48617655,2.571893,-0.24517363
1.258,-8.350342,2.711729,8.2590475,-0.4753989,2.7300496,-0.21336955
1.26,-8.948441,3.081749,8.271271,-0.46824324,2.8781438,-0.19188005
1.262,-9.547873,3.4591386,8.272758,-0.46480203,3.0151625,-0.18137145
1.264,-10.146351,3.8424375,8.263895,-0.4651177,3.1400895,-0.1824888
1.266,-10.7412195,4.230138,8.244986,-0.46915776,3.2519207,-0.19581771
1.268,-11.32982,4.620407,8.216363,-0.47684747,3.3496938,-0.22191429
1.27,-11.909168,5.011503,8.178507,-0.4880548,3.432507,-0.26126957
1.272,-12.4765625,5.401736,8.1318655,-0.502606,3.4995985,-0.31431317
1.274,-13.02908,5.789276,8.076975,-0.5202858,3.550362,-0.38135684
1.276,-13.563904,6.1724386,8.014452,-0.5408664,3.5843525,-0.46259797
1.278,-14.078106,6.5493574,7.944872,-0.56411177,3.6013165,-0.5581112
1.28,-14.568949,6.9184847,7.8686,-0.5897973,3.6011672,-0.6678121
1.282,-15.033968,7.2780304,7.786137,-0.61772335,3.583948,-0.7914717
1.284,-15.470894,7.6261463,7.69788,-0.64775604,3.5498023,-0.9287076
1.286,-15.878013,7.9613686,7.6042366,-0.6798072,3.4989147,-1.0790097
1.288,-16.253782,8.28235,7.505851,-0.71387184,3.4314806,-1.241751
1.29,-16.596987,8.587804,7.40335,-0.75000703,3.3476596,-1.4162374
1.292,-16.90677,8.876776,7.2974997,-0.78835994,3.2475538,-1.6017063
1.294,-17.182394,9.148401,7.1891646,-0.82914126,3.131218,-1.7973547
1.296,-17.42366,9.401953,7.0793285,-0.87257946,2.9986463,-2.0023804
1.298,-17.630299,9.636841,6.968914,-0.91894454,2.8498375,-2.2159688
1.3,-17.802467,9.852577,6.8592215,-0.9685128,2.6848483,-2.4373028
1.302,-17.940393,10.048858,6.7517033,-1.0215425,2.5038483,-2.6655798
1.304,-18.044437,10.225582,6.647901,-1.0782688,2.3071737,-2.9000058
1.306,-18.115034,10.382586,6.549339,-1.1388897,2.0953481,-3.1397727
1.308,-18.152828,10.520006,6.457372,-1.2035526,1.8691685,-3.384072
1.31,-18.157953,10.637952,6.3733916,-1.2723482,1.6296177,-3.6320918
1.312,-18.130833,10.736692,6.298661,-1.3453063,1.3779055,-3.8829985
1.314,-18.071842,10.816684,6.234722,-1.4223909,1.1154159,-4.1359367
1.316,-17.980724,10.878183,6.182838,-1.50354,0.84370816,-4.390045
1.318,-17.85695,10.921301,6.143874,-1.5886271,0.5644971,-4.644464
1.32,-17.700626,10.946268,6.119178,-1.6774739,0.27962232,-4.898347
1.322,-17.511457,10.9534,6.109747,-1.7698469,-0.008974075,-5.150859
1.324,-17.288967,10.94303,6.1160154,-1.8654773,-0.29923797,-5.401169
1.326,-17.032442,10.915535,6.138803,-1.9640512,-0.58904314,-5.64849
1.328,-16.74139,10.871561,6.178626,-2.0652163,-0.87621427,-5.8920565
1.33,-16.41511,10.811664,6.235677,-2.1685982,-1.1585643,-6.131151
1.332,-16.05309,10.736557,6.3100123,-2.2738013,-1.433969,-6.365116
1.334,-15.654737,10.646892,6.401433,-2.3804135,-1.7003872,-6.593367
1.336,-15.219658,10.543383,6.5093303,-2.4880362,-1.9559112,-6.8153844
1.338,-14.7477455,10.426896,6.6330433,-2.5962381,-2.198804,-7.030734
1.34,-14.239046,10.298319,6.771989,-2.7045991,-2.427484,-7.239051
1.342,-13.693648,10.1586895,6.925398,-2.8126662,-2.64052,-7.440051
1.344,-13.11215,10.009394,7.0925097,-2.9199643,-2.8366,-7.633529
1.346,-12.495266,9.851984,7.272228,-3.025955,-3.0144343,-7.81934
1.348,-11.843817,9.688015,7.4637003,-3.1300695,-3.1727738,-7.9974003
1.35,-11.159117,9.519192,7.6661873,-3.231682,-3.3104084,-8.167669
1.352,-10.442574,9.34749,7.8788376,-3.3300953,-3.4261699,-8.330154
1.354,-9.69595,9.175137,8.100952,-3.4245863,-3.519028,-8.484916
1.356,-8.9214,9.004433,8.331502,-3.5144105,-3.5881906,-8.63208
1.358,-8.121119,8.837855,8.569578,-3.5988069,-3.6331406,-8.771845
1.36,-7.297441,8.67793,8.814238,-3.677027,-3.6537428,-8.904473
1.362,-6.452994,8.52738,9.0645,-3.7483912,-3.6503117,-9.030301
1.364,-5.590106,8.388855,9.319363,-3.8122444,-3.6236444,-9.149733
1.366,-4.711442,8.264926,9.577661,-3.8680325,-3.575024,-9.263247
1.368,-3.8193285,8.158279,9.838053,-3.915313,-3.5062592,-9.371399
1.37,-2.916237,8.071506,10.099409,-3.9537015,-3.4196322,-9.474798
1.372,-2.0042024,8.006956,10.360445,-3.9829404,-3.317849,-9.57407
1.374,-1.0848006,7.9666786,10.619997,-4.0028763,-3.2039595,-9.669868
1.376,-0.15948194,7.9523582,10.876677,-4.0135036,-3.0812943,-9.76286
1.378,0.7703622,7.9658365,11.129006,-4.014932,-2.9533935,-9.853727
1.38,1.7038033,8.00824,11.375275,-4.0074244,-2.823902,-9.943085
1.382,2.6404567,8.080282,11.61394,-3.991384,-2.6964796,-10.031549
1.384,3.579692,8.182484,11.843275,-3.9673555,-2.5747318,-10.119674
1.386,4.5214643,8.314674,12.061883,-3.9360447,-2.4621463,-10.207934
1.388,5.465935,8.476391,12.268606,-3.8982944,-2.3619814,-10.296713
1.39,6.413431,8.666614,12.462592,-3.855041,-2.2772064,-10.386288
1.392,7.3642464,8.884304,12.643354,-3.8073287,-2.2104352,-10.476803
1.394,8.318925,9.128176,12.810817,-3.7562494,-2.1638453,-10.568272
1.396,9.278381,9.396561,12.965052,-3.7029457,-2.139121,-10.660549
1.398,10.2433605,9.687777,13.106209,-3.6485353,-2.1374779,-10.753376
1.4,11.2147455,10.000027,13.234875,-3.5940905,-2.1596236,-10.846375
1.402,12.193929,10.331208,13.352419,-3.540626,-2.205768,-10.939099
1.404,13.181757,10.679647,13.460328,-3.4890416,-2.2756252,-11.031024
1.406,14.179794,11.043356,13.5602455,-3.4401288,-2.3685174,-11.121594
1.408,15.18935,11.420887,13.654322,-3.3944955,-2.483375,-11.210248
1.41,16.212154,11.810562,13.745556,-3.352596,-2.6188166,-11.296464
1.412,17.250423,12.210219,13.83678,-3.314714,-2.7732313,-11.379765
1.414,18.304792,12.620356,13.932989,-3.2809234,-2.9448128,-11.45978
1.416,19.38122,13.038209,14.03796,-3.2510874,-3.1316261,-11.536212
1.418,20.487366,13.456932,14.152904,-3.2248971,-3.3317018,-11.60887
1.42,21.612066,13.884495,14.28257,-3.2018473,-3.543081,-11.677627
1.422,22.760368,14.3183365,14.433861,-3.181323,-3.7639008,-11.742434
1.424,23.942135,14.758966,14.606693,-3.1626205,-3.9924903,-11.803281
1.426,25.158579,15.205675,14.801953,-3.145025,-4.2273874,-11.860167
1.428,26.41094,15.658245,15.021574,-3.1278257,-4.4674296,-11.913034
1.43,27.700245,16.115341,15.2683735,-3.1103969,-4.711774,-11.961758
1.432,29.027359,16.575888,15.543558,-3.0922203,-4.9598994,-12.006121
1.434,30.389795,17.040648,15.848085,-3.0729218,-5.2116094,-12.045809
1.436,31.786251,17.510384,16.183865,-3.0522852,-5.4669695,-12.0803585
1.438,33.218178,17.982965,16.55075,-3.030236,-5.726222,-12.109157
1.44,34.683876,18.458572,16.947844,-3.0068352,-5.9896927,-12.131494
1.442,36.180088,18.937439,17.373663,-2.9822357,-6.2576985,-12.146462
1.444,37.704002,19.41867,17.826206,-2.9567053,-6.5306935,-12.153152
1.446,39.250385,19.902094,18.303825,-2.9304636,-6.8088727,-12.150503
1.448,40.814247,20.38686,18.803978,-2.9038723,-7.0921617,-12.137136
1.45,42.391285,20.871853,19.323654,-2.8773696,-7.3807306,-12.112077
1.452,43.976448,21.356068,19.859959,-2.8511775,-7.6742096,-12.074171
1.454,45.564484,21.83936,20.409523,-2.8254666,-7.9717283,-12.022243
1.456,47.151077,22.32039,20.96944,-2.800347,-8.272201,-11.955308
1.458,48.731735,22.798325,21.536163,-2.7757328,-8.574171,-11.872531
1.46,50.302223,23.271763,22.106527,-2.7514746,-8.875847,-11.773157
1.462,51.858753,23.738985,22.6779,-2.727369,-9.175064,-11.656531
1.464,53.397663,24.198343,23.248058,-2.703179,-9.469616,-11.522265
1.466,54.915894,24.648188,23.814928,-2.6785386,-9.75754,-11.370239
1.468,56.410835,25.086794,24.376629,-2.6529708,-10.036987,-11.200352
1.47,57.88034,25.512093,24.931438,-2.6260366,-10.306514,-11.012649
1.472,59.32267,25.922098,25.478088,-2.5972934,-10.565001,-10.80735
1.474,60.73608,26.31456,26.015827,-2.566351,-10.811661,-10.5847845
1.476,62.11908,26.68766,26.543728,-2.532855,-11.046025,-10.345374
1.478,63.470776,27.039232,27.06107,-2.4963603,-11.26787,-10.089598
1.48,64.79041,27.367138,27.56713,-2.4562917,-11.477245,-9.817796
1.482,66.07704,27.66948,28.061495,-2.411954,-11.6744175,-9.53016
1.484,67.32964,27.944582,28.543911,-2.3625531,-11.859815,-9.226768
1.486,68.54728,28.191181,29.014093,-2.3072658,-12.03404,-8.907636
1.488,69.729416,28.408367,29.471788,-2.2452605,-12.197861,-8.5727825
1.49,70.87517,28.59611,29.917295,-2.175743,-12.352217,-8.222312
1.492,71.98456,28.754818,30.349728,-2.0979557,-12.498144,-7.856535
1.494,73.057304,28.885925,30.76907,-2.0111828,-12.636772,-7.475966
1.496,74.09366,28.991926,31.17567,-1.9147197,-12.769225,-7.0814466
1.498,75.09431,29.07603,31.569756,-1.8078194,-12.89638,-6.673955
1.5,76.06025,29.143278,31.951294,-1.6897182,-13.019157,-6.2547274
1.502,76.99374,29.199978,32.32055,-1.5593922,-13.138253,-5.825181
1.504,77.89712,29.2538,32.67932,-1.4156754,-13.253733,-5.386256
1.506,78.773605,29.314285,33.030197,-1.2574278,-13.365787,-4.939017
1.508,79.62697,29.392109,33.377205,-1.0832886,-13.474411,-4.4843073
1.51,80.46138,29.49907,33.72515,-0.89178956,-13.579174,-4.0225425
1.512,81.28103,29.648026,34.07914,-0.6815306,-13.679508,-3.5538857
1.514,82.091484,29.85315,34.444782,-0.45111167,-13.77478,-3.0783248
1.516,82.89683,30.131216,34.82557,-0.19929576,-13.864381,-2.595642
1.518,83.69951,30.499283,35.226448,0.074956894,-13.947633,-2.1054199
1.52,84.506546,30.973827,35.652027,0.372393,-14.023878,-1.6070588
1.522,85.31966,31.574123,36.108986,0.69344974,-14.092719,-1.1001558
1.524,86.142845,32.319138,36.604645,1.038354,-14.153967,-0.5843744
1.526,86.980255,33.226273,37.146667,1.4070808,-14.207888,-0.05941224
1.528,87.825516,34.3248,37.739758,1.7993658,-14.254979,0.47491384
1.53,88.69475,35.627914,38.395027,2.2147222,-14.2958555,1.0186741
1.532,89.593445,37.149048,39.10856,2.6523757,-14.331352,1.5718602
1.534,90.522385,38.895252,39.875656,3.1114035,-14.36222,2.1343842
1.536,91.48386,40.891785,40.70705,3.5908132,-14.389002,2.7062335
1.538,92.486496,43.161205,41.620827,4.0896764,-14.41201,3.2876582
1.54,93.536385,45.733795,42.62483,4.607197,-14.43117,3.879151
1.542,94.637726,48.636024,43.718555,5.1427464,-14.445997,4.4815264
1.544,95.800186,51.852314,44.8797,5.695928,-14.455436,5.096152
1.546,97.03525,55.389435,46.10409,6.266514,-14.45805,5.724865
1.548,98.33664,59.2658,47.37828,6.8544326,-14.45157,6.3699317
1.55,99.71306,63.48665,48.695404,7.4598145,-14.432813,7.034222
1.552,101.15641,68.06279,50.04355,8.082714,-14.398063,7.7210264
1.554,102.68488,72.98476,51.427086,8.7233715,-14.342536,8.433947
1.556,104.26012,78.240814,52.875008,9.382317,-14.260094,9.176956
1.558,105.81628,83.829575,54.40804,10.059992,-14.14349,9.953936
1.56,107.40832,89.69712,56.06794,10.756017,-13.9857025,10.768528
1.562,109.11784,95.81672,57.83282,11.470305,-13.777946,11.624856
1.564,110.98107,102.189575,59.64996,12.202108,-13.510323,12.527426
1.566,113.03752,108.82212,61.451283,12.949718,-13.173113,13.480597
1.568,115.32808,115.71226,63.175392,13.711184,-12.754881,14.488411
1.57,117.80793,122.816925,64.84726,14.484372,-12.241685,15.55489
1.572,120.46062,130.02849,66.49403,15.266782,-11.617081,16.684076
1.574,123.29007,137.25667,68.15551,16.056082,-10.861847,17.879438
1.576,126.317474,144.46252,69.81353,16.850288,-9.95382,19.141628
1.578,129.57718,151.64497,71.44669,17.64655,-8.868521,20.467224
1.58,133.09515,158.76923,73.055214,18.439548,-7.5810876,21.849737
1.582,136.88704,165.76154,74.61986,19.22181,-6.0633345,23.280703
1.584,140.96478,172.53297,76.104034,19.981215,-4.287088,24.750305
1.586,145.31607,178.9828,77.473145,20.701225,-2.2275343,26.241255
1.588,149.93655,185.02242,78.70609,21.364723,0.14008045,27.7233
1.59,154.82825,190.57692,79.77701,21.95211,2.8323898,29.16462
1.592,159.99277,195.57928,80.652565,22.442184,5.844949,30.531263
1.594,165.4131,199.9808,81.30307,22.814547,9.1663,31.785671
1.596,171.08719,203.7344,81.67829,23.047039,12.773434,32.88851
1.598,177.0158,206.7939,81.71574,23.12127,16.624815,33.81014
1.6,183.17854,209.13394,81.34188,23.02079,20.666689,34.52724
1.602,189.53746,210.73991,80.47739,22.730303,24.806498,35.00821
1.604,196.04362,211.6015,79.04675,22.255056,28.949638,35.244164
1.606,202.63844,211.71735,76.98315,21.616796,32.999485,35.243782
1.608,209.25844,211.0928,74.23813,20.85168,36.85174,35.018417
1.61,215.8332,209.73706,70.774345,20.006912,40.400814,34.56894
1.612,222.27702,207.66936,66.56561,19.13386,43.548317,33.88096
1.614,228.49655,204.9263,61.60019,18.282745,46.20813,32.929398
1.616,234.39235,201.55602,55.87678,17.49562,48.312,31.686108
1.618,239.85936,197.60822,49.41062,16.801126,49.816036,30.124123
1.62,244.78647,193.13612,42.235226,16.209398,50.704105,28.219276
1.622,249.06949,188.19305,34.414597,15.711593,50.983536,25.954304
1.624,252.61064,182.83992,26.04042,15.283474,50.685513,23.323044
1.626,255.31824,177.139,17.21276,14.890756,49.86477,20.33464
1.628,257.11847,171.15068,8.045311,14.491516,48.59056,17.015785
1.63,257.96326,164.93259,-1.3319702,14.040466,46.939007,13.412048
1.632,257.82382,158.5296,-10.766022,13.4944515,44.985897,9.588
1.634,256.69113,151.98761,-20.096344,12.814809,42.79872,5.6264896
1.636,254.56854,145.36282,-29.148102,11.967827,40.42748,1.6282692
1.638,251.49304,138.70078,-37.739754,10.926563,37.906143,-2.291154
1.64,247.52133,132.04947,-45.703697,9.6703415,35.25327,-6.0033445
1.642,242.72789,125.481,-52.876472,8.184763,32.468586,-9.373201
1.644,237.20938,119.07663,-59.11194,6.465864,29.542871,-12.279729
1.646,231.08505,112.893555,-64.29847,4.51954,26.466951,-14.623065
1.648,224.4746,106.9879,-68.35019,2.360036,23.21913,-16.331692
1.65,217.50308,101.41051,-71.19542,0.012687683,19.779476,-17.369919
1.652,210.29567,96.21237,-72.78326,-2.4918737,16.14088,-17.745968
1.654,202.9719,91.4694,-73.07914,-5.114661,12.308877,-17.500729
1.656,195.6413,87.22197,-72.103615,-7.80849,8.326899,-16.6934
1.658,188.4189,83.49991,-69.898346,-10.5354395,4.244648,-15.422765
1.66,181.39563,80.33989,-66.545074,-13.25374,0.13141084,-13.80085
1.662,174.66304,77.766075,-62.149708,-15.912262,-3.9135664,-11.929612
1.664,168.26868,75.81135,-56.856655,-18.450853,-7.7700796,-9.892416
1.666,162.29453,74.491455,-50.844135,-20.800907,-11.308157,-7.7594924
1.668,156.80777,73.79678,-44.2855,-22.89046,-14.396532,-5.597368
1.67,151.74223,73.74633,-37.37368,-24.651031,-16.915821,-3.470079
1.672,147.03084,74.30526,-30.244808,-26.023441,-18.769283,-1.4344425
1.674,142.66403,75.4023,-23.02843,-26.962877,-19.891453,0.4613595
1.676,138.62642,76.96464,-15.8640175,-27.445103,-20.252499,2.1771083
1.678,134.90022,78.92787,-8.911907,-27.470364,-19.863111,3.6822834
1.68,131.5326,81.25682,-2.4001293,-27.063248,-18.774237,4.956354
1.682,128.51242,83.94775,3.484291,-26.267784,-17.067776,5.9897513
1.684,125.79747,86.944664,8.586197,-25.143179,-14.849285,6.784771
1.686,123.3306,90.13299,12.83831,-23.759226,-12.238736,7.3539295
1.688,121.051704,93.379105,16.19093,-22.18964,-9.359995,7.7162147
1.69,118.918594,96.602325,18.595018,-20.507267,-6.3329926,7.8931017
1.692,116.903465,99.75988,20.044565,-18.78007,-3.268313,7.9068565
1.694,114.981834,102.81506,20.56522,-17.069181,-0.26238298,7.7782464
1.696,113.147446,105.731674,20.192863,-15.4289875,2.6060138,7.5232506
1.698,111.37759,108.45825,18.965675,-13.905621,5.2754006,7.1532407
1.7,109.64227,110.935905,16.945366,-12.536154,7.700341,6.6779976
1.702,107.91237,113.11241,14.214628,-11.3486805,9.849441,6.1078186
1.704,106.17388,114.93726,10.863775,-10.363102,11.702362,5.4549947
1.706,104.39493,116.38063,7.0091944,-9.591095,13.247549,4.7351565
1.708,102.54412,117.43067,2.7759194,-9.03685,14.479954,3.9684815
1.71,100.610886,118.07546,-1.7084036,-8.697871,15.398673,3.1799634
1.712,98.59454,118.31506,-6.319214,-8.562608,16.006958,2.3984492
1.714,96.49466,118.165665,-10.94619,-8.6138115,16.315454,1.6531552
1.716,94.31015,117.65071,-15.492216,-8.832567,16.339499,0.96882576
1.718,92.03582,116.802155,-19.877161,-9.198072,16.098486,0.36334756
1.72,89.6671,115.658775,-24.02683,-9.688581,15.61564,-0.15184483
1.722,87.208694,114.25821,-27.87208,-10.282134,14.916786,-0.57158744
1.724,84.66761,112.63095,-31.352663,-10.956385,14.029612,-0.8984443
1.726,82.05238,110.80715,-34.412254,-11.689042,12.983272,-1.1398238
1.728,79.37572,108.824234,-37.00618,-12.458811,11.808199,-1.302602
1.73,76.65566,106.72098,-39.10148,-13.245865,10.535171,-1.3926313
1.732,73.90507,104.537766,-40.68619,-14.03153,9.194514,-1.4159086
1.734,71.136475,102.307816,-41.76233,-14.798269,7.8156557,-1.3779984
1.736,68.36624,100.06353,-42.328053,-15.529909,6.4266825,-1.283783
1.738,65.60547,97.83896,-42.393143,-16.211744,5.0542793,-1.138463
1.74,62.853806,95.66904,-41.98005,-16.830727,3.7232423,-0.94832134
1.742,60.119545,93.59247,-41.13058,-17.37575,2.4562533,-0.72018814
1.744,57.411392,91.636795,-39.89107,-17.837595,1.2739606,-0.46105242
1.746,54.74363,89.81849,-38.317017,-18.208849,0.1947236,-0.17805576
1.748,52.126923,88.15129,-36.46713,-18.48391,-0.76579666,0.121507645
1.75,49.56607,86.64585,-34.399277,-18.658873,-1.5948534,0.43023872
1.752,47.063206,85.297295,-32.164528,-18.731607,-2.282762,0.74078655
1.754,44.623135,84.09332,-29.811613,-18.701788,-2.8230128,1.046248
1.756,42.2526,83.031265,-27.393734,-18.570946,-3.2124178,1.340477
1.758,39.95915,82.11361,-24.963823,-18.342415,-3.4511302,1.6184669
1.76,37.754288,81.33961,-22.57098,-18.021261,-3.5424564,1.8766208
1.762,35.649033,80.70848,-20.260248,-17.614164,-3.4926305,2.1127076
1.764,33.65159,80.21856,-18.073687,-17.12913,-3.3103623,2.3257146
1.766,31.769543,79.86118,-16.050354,-16.575378,-3.0063586,2.5156674
1.768,30.007626,79.62079,-14.223832,-15.962999,-2.5928829,2.6834216
1.77,28.368248,79.477936,-12.620786,-15.302603,-2.0832639,2.8303938
1.772,26.852463,79.41234,-11.261908,-14.605016,-1.491391,2.9581304
1.774,25.462482,79.4042,-10.162612,-13.881041,-0.8312342,3.0680537
1.776,24.200348,79.434616,-9.332515,-13.141241,-0.11642173,3.1612096
1.778,23.065699,79.486626,-8.775501,-12.395748,0.6399264,3.2381907
1.78,22.058147,79.544,-8.490776,-11.654129,1.4253724,3.299077
1.782,21.175749,79.59166,-8.473295,-10.925341,2.228199,3.3434758
1.784,20.415583,79.6147,-8.713672,-10.217579,3.0375023,3.3706512
1.786,19.773703,79.59795,-9.198692,-9.538322,3.8430305,3.379671
1.788,19.244825,79.52658,-9.911983,-8.8942995,4.6351156,3.3695416
1.79,18.821632,79.386826,-10.834492,-8.291435,5.404651,3.3393447
1.792,18.49531,79.16539,-11.94519,-7.734763,6.143009,3.2884223
1.794,18.256344,78.84998,-13.221277,-7.228345,6.8420796,3.2164528
1.796,18.094383,78.429855,-14.638332,-6.775157,7.494298,3.1235492
1.798,17.998013,77.89675,-16.171143,-6.377037,8.092771,3.0103812
1.8,17.956013,77.244255,-17.794233,-6.0346627,8.631373,2.878184
1.802,17.956196,76.46901,-19.482796,-5.7475486,9.1048565,2.7286668
1.804,17.987019,75.569435,-21.212206,-5.514118,9.50903,2.5639575
1.806,18.036636,74.546585,-22.958235,-5.3318357,9.840832,2.3866236
1.808,18.093464,73.40399,-24.69701,-5.197274,10.09853,2.1996255
1.81,18.145601,72.14759,-26.406322,-5.106247,10.281777,2.0061836
1.812,18.182602,70.78456,-28.065535,-5.054032,10.391608,1.8095775
1.814,18.194748,69.32365,-29.655872,-5.035567,10.4304085,1.6129572
1.816,18.173544,67.77521,-31.160133,-5.0456176,10.401871,1.4191964
1.818,18.111637,66.15056,-32.562675,-5.0789213,10.3108225,1.2308204
1.82,18.002502,64.46211,-33.850395,-5.13025,10.16311,1.0498881
1.822,17.840025,62.723183,-35.01252,-5.194565,9.965371,0.87793875
1.824,17.620796,60.946926,-36.040913,-5.2670794,9.724799,0.7160306
1.826,17.341053,59.147163,-36.930607,-5.3432803,9.448879,0.56479025
1.828,16.99929,57.33698,-37.678833,-5.419019,9.14513,0.4245019
1.83,16.59636,55.52799,-38.28511,-5.4905033,8.820875,0.29523087
1.832,16.133314,53.731316,-38.75144,-5.554297,8.483128,0.17689991
1.834,15.61216,51.95739,-39.08161,-5.607342,8.138464,0.069349766
1.836,15.036247,50.215427,-39.281425,-5.646943,7.7929573,-0.027576447
1.838,14.409809,48.513634,-39.35802,-5.6707387,7.4521303,-0.11404276
1.84,13.737869,46.859352,-39.320328,-5.676635,7.120972,-0.190166
1.842,13.026705,45.25821,-39.178596,-5.6628475,6.8038745,-0.25601435
1.844,12.283714,43.714294,-38.944305,-5.6278687,6.504651,-0.31167936
1.846,11.51734,42.22998,-38.62965,-5.570525,6.226569,-0.35734487
1.848,10.735748,40.806282,-38.247246,-5.490037,5.9722505,-0.39330482
1.85,9.947554,39.442833,-37.810116,-5.3861423,5.7435484,-0.4200282
1.852,9.161018,38.13806,-37.33169,-5.2590804,5.541491,-0.43815947
1.854,8.384005,36.889595,-36.82486,-5.109612,5.366237,-0.44846153
1.856,7.6235447,35.69429,-36.30175,-4.939021,5.217086,-0.4517634
1.858,6.886221,34.548515,-35.773327,-4.7491026,5.0924273,-0.4489107
1.86,6.1778603,33.448196,-35.249195,-4.5420666,4.989861,-0.4408486
1.862,5.504322,32.3885,-34.73791,-4.3204956,4.906201,-0.42860723
1.864,4.870865,31.364014,-34.24669,-4.0872774,4.837677,-0.41326952
1.866,4.2809906,30.369724,-33.781204,-3.8454742,4.780119,-0.39592433
1.868,3.7385368,29.39978,-33.34572,-3.5982437,4.729039,-0.37766147
1.87,3.2456322,28.44947,-32.94277,-3.348701,4.679859,-0.359612
1.872,2.8039026,27.514427,-32.573746,-3.099832,4.628049,-0.3429196
1.874,2.4144163,26.590712,-32.238495,-2.8544316,4.5692263,-0.32870555
1.876,2.0771627,25.674877,-31.93572,-2.6150236,4.499342,-0.31799912
1.878,1.7913618,24.764074,-31.66313,-2.3837948,4.414791,-0.31172967
1.88,1.5555725,23.85579,-31.417082,-2.1625674,4.3124785,-0.31063247
1.882,1.3681831,22.94822,-31.192982,-1.9527113,4.189903,-0.31523824
1.884,1.2266436,22.04019,-30.9855,-1.7551339,4.045261,-0.32582927
1.886,1.1277199,21.131996,-30.789192,-1.5702807,3.8774679,-0.34243345
1.888,1.0686865,20.224377,-30.598478,-1.3981547,3.6861894,-0.36483467
1.89,1.0462275,19.318264,-30.407745,-1.2383679,3.471841,-0.39265227
1.892,1.0571775,18.415081,-30.212086,-1.0901982,3.2355576,-0.42532587
1.894,1.0985203,17.516651,-30.007294,-0.95267296,2.9791288,-0.4621843
1.896,1.1667995,16.625137,-29.789661,-0.8246678,2.7049434,-0.50249267
1.898,1.2584648,15.742956,-29.556074,-0.7049533,2.4158626,-0.54545563
1.9,1.3702593,14.872765,-29.303936,-0.5922926,2.1150947,-0.59026414
1.902,1.499032,14.017223,-29.031506,-0.4855026,1.8060546,-0.63611406
1.904,1.6417227,13.179173,-28.737823,-0.3834559,1.4922447,-0.68222046
1.906,1.7951813,12.361343,-28.422615,-0.285151,1.1771216,-0.72788715
1.908,1.9567232,11.566441,-28.086031,-0.18969981,0.8639418,-0.772544
1.91,2.1236897,10.797077,-27.728882,-0.09630254,0.5556398,-0.81579876
1.912,2.2938185,10.055597,-27.35239,-0.004268527,0.25477633,-0.85749227
1.914,2.4647493,9.34444,-26.958166,0.08701107,-0.03656438,-0.8976696
1.916,2.6345634,8.665836,-26.548222,0.17806165,-0.31681803,-0.9366206
1.918,2.8017101,8.021495,-26.12478,0.2693377,-0.58498645,-0.9748292
1.92,2.9649148,7.412919,-25.690094,0.3612097,-0.8406209,-1.0129358
1.922,3.122882,6.841425,-25.246664,0.4539913,-1.0837239,-1.0516427
1.924,3.27458,6.3079615,-24.796577,0.54790306,-1.3147626,-1.0915703
1.926,3.4193282,5.8131256,-24.341928,0.6430979,-1.5345335,-1.1332253
1.928,3.5563765,5.3574476,-23.884384,0.73968494,-1.7440639,-1.17695
1.93,3.685328,4.9410257,-23.425144,0.83773756,-1.9445392,-1.2229346
1.932,3.8061724,4.5636578,-22.965454,0.93727654,-2.1371808,-1.2711912
1.934,3.9182305,4.225058,-22.50607,1.0383112,-2.3231635,-1.3215777
1.936,4.021873,3.924693,-22.047272,1.1408235,-2.5035357,-1.3738449
1.938,4.1174974,3.6618652,-21.589138,1.2447647,-2.6791823,-1.4276834
1.94,4.205156,3.435604,-21.131634,1.3500912,-2.8507931,-1.4827917
1.942,4.285265,3.244927,-20.674393,1.456758,-3.0188353,-1.5389153
1.944,4.358458,3.0884957,-20.21704,1.5647012,-3.1835861,-1.5958467
1.946,4.4252863,2.9647346,-19.75906,1.6738386,-3.345154,-1.653477
1.948,4.4866133,2.872171,-19.299812,1.7840948,-3.503471,-1.7117715
1.95,4.543224,2.8088012,-18.83855,1.8953882,-3.658388,-1.7707582
1.952,4.595807,2.7728562,-18.374605,2.0076475,-3.8096573,-1.8305458
1.954,4.6450067,2.7625885,-17.90731,2.1208181,-3.9570086,-1.8912731
1.956,4.691619,2.7763214,-17.435928,2.2348652,-4.1001453,-1.9530896
1.958,4.7367454,2.8123312,-16.960121,2.3497634,-4.2387853,-2.016136
1.96,4.7811875,2.8688369,-16.479342,2.4655182,-4.3726764,-2.0805087
1.962,4.8257513,2.9443812,-15.993019,2.5821698,-4.501596,-2.1462822
1.964,4.871554,3.0372348,-15.500829,2.699763,-4.6253667,-2.2134838
1.966,4.91954,3.145873,-15.002363,2.8183742,-4.743864,-2.2820582
1.968,4.970671,3.268817,-14.4972515,2.9380844,-4.856999,-2.3519304
1.97,5.025877,3.4046693,-13.985234,3.0590193,-4.9646997,-2.4229634
1.972,5.0861454,3.5520105,-13.466106,3.1813166,-5.0669303,-2.4949746
1.974,5.1523123,3.7097592,-12.939716,3.30512,-5.163629,-2.5677435
1.976,5.2250705,3.876695,-12.406053,3.4305706,-5.254753,-2.6410499
1.978,5.305237,4.0520086,-11.865006,3.557797,-5.340201,-2.7146745
1.98,5.3934183,4.234912,-11.316617,3.6869183,-5.4198117,-2.788404
1.982,5.4900866,4.4248886,-10.760881,3.8180437,-5.493371,-2.862015
1.984,5.595778,4.6212683,-10.197943,3.9512653,-5.5605674,-2.935265
1.986,5.711131,4.8236046,-9.628015,4.0866814,-5.621044,-3.0079284
1.988,5.836359,5.0314837,-9.051446,4.2243967,-5.6743793,-3.079803
1.99,5.971755,5.2445445,-8.468915,4.364524,-5.7201076,-3.1506808
1.992,6.1173005,5.462599,-7.88118,4.5071845,-5.7577505,-3.2203774
1.994,6.2731385,5.6852155,-7.2892036,4.6525016,-5.7868457,-3.2887142
1.996,6.4392776,5.912059,-6.6942005,4.800573,-5.806987,-3.3555255
1.998,6.6157174,6.1427474,-6.097343,4.951494,-5.8178573,-3.42069
2,6.802091,6.377136,-5.500228,5.105317,-5.819279,-3.4841413
2.002,6.998315,6.61485,-4.9044933,5.262016,-5.8112555,-3.545855
2.004,7.203878,6.8556156,-4.311907,5.421506,-5.79395,-3.6058764
2.006,7.4186172,7.099151,-3.724528,5.5835667,-5.7677364,-3.6643262
2.008,7.642099,7.3450203,-3.144539,5.7478747,-5.733203,-3.721415
2.01,7.87394,7.5929327,-2.574201,5.9140162,-5.6911345,-3.7774274
2.012,8.113684,7.8425236,-2.0159078,6.0814652,-5.6425037,-3.83269
2.014,8.361054,8.093558,-1.4719334,6.249576,-5.5884495,-3.8875484
2.016,8.61572,8.345754,-0.94478416,6.4176083,-5.5302467,-3.9423256
2.018,8.8772745,8.598925,-0.43670583,6.584737,-5.469246,-3.9973004
2.02,9.145554,8.852792,0.050080538,6.7500963,-5.4068584,-4.052696
2.022,9.420385,9.1071415,0.51351404,6.912794,-5.344533,-4.1086435
2.024,9.701668,9.361831,0.95166516,7.0719337,-5.283705,-4.165215
2.026,9.9895,9.616804,1.362895,7.226635,-5.2257833,-4.222416
2.028,10.283852,9.872015,1.7457132,7.3760796,-5.172144,-4.2802196
2.03,10.584784,10.127582,2.0988145,7.5195255,-5.124094,-4.338545
2.032,10.892538,10.383776,2.4215477,7.6563025,-5.082879,-4.3973427
2.034,11.207381,10.640925,2.7133963,7.7858076,-5.049703,-4.456552
2.036,11.529612,10.89929,2.9742553,7.9075136,-5.025676,-4.5161715
2.038,11.859633,11.15941,3.2043443,8.020972,-5.011867,-4.57619
2.04,12.19773,11.421694,3.4042861,8.125784,-5.009264,-4.636602
2.042,12.544363,11.68659,3.5752401,8.221594,-5.01881,-4.697406
2.044,12.900005,11.95466,3.7185118,8.308083,-5.041379,-4.75865
2.046,13.265077,12.2261915,3.8358126,8.384944,-5.0777855,-4.8203793
2.048,13.63984,12.501611,3.9290097,8.451886,-5.1287723,-4.882665
2.05,14.024637,12.781292,4.00045,8.508618,-5.1949964,-4.9456167
2.052,14.419511,13.065673,4.0526304,8.554833,-5.2770185,-5.0093617
2.054,14.824633,13.354589,4.0880957,8.590244,-5.375246,-5.074073
2.056,15.240255,13.647966,4.1096067,8.614585,-5.4899263,-5.140004
2.058,15.665998,13.945496,4.1200156,8.627558,-5.621098,-5.2074876
2.06,16.101746,14.246948,4.122113,8.628871,-5.768609,-5.276913
2.062,16.546803,14.551779,4.1187544,8.618222,-5.932032,-5.3487377
2.064,17.001038,14.85906,4.1124535,8.595321,-6.1106563,-5.4234657
2.066,17.464073,15.167526,4.10571,8.559898,-6.3035207,-5.5016236
2.068,17.934483,15.47612,4.101157,8.511753,-6.5093784,-5.5837193
2.07,18.411331,15.783367,4.1006784,8.450813,-6.726716,-5.670205
2.072,18.893457,16.0874,4.10604,8.377092,-6.95377,-5.761441
2.074,19.379545,16.386215,4.1189275,8.290764,-7.188575,-5.857667
2.076,19.868105,16.677572,4.1404314,8.1921,-7.4290166,-5.9589496
2.078,20.357508,16.959267,4.17153,8.081514,-7.6729445,-6.065205
2.08,20.846235,17.228481,4.2128234,7.959482,-7.9182825,-6.17622
2.082,21.33245,17.4825,4.264656,7.826526,-8.163097,-6.2917113
2.084,21.81412,17.718548,4.3271055,7.68321,-8.405648,-6.411364
2.086,22.28954,17.933731,4.4000335,7.5300703,-8.644506,-6.534769
2.088,22.756733,18.124912,4.483201,7.367584,-8.878654,-6.661509
2.09,23.213808,18.288918,4.5760975,7.1961327,-9.107434,-6.791125
2.092,23.658932,18.422916,4.678012,7.0160484,-9.330473,-6.9231615
2.094,24.090328,18.524052,4.7882977,6.8276153,-9.547697,-7.057132
2.096,24.506245,18.589603,4.906444,6.6311088,-9.759354,-7.1924243
2.098,24.905315,18.617163,5.032051,6.426841,-9.965781,-7.3283467
2.1,25.285616,18.604425,5.164447,6.215155,-10.167365,-7.4641547
2.102,25.646015,18.549536,5.303069,5.996434,-10.364511,-7.599015
2.104,25.985048,18.451141,5.4470572,5.7710915,-10.557586,-7.7319946
2.106,26.301455,18.308016,5.595745,5.5395536,-10.746878,-7.862096
2.108,26.594097,18.119484,5.748324,5.302212,-10.932561,-7.9883313
2.11,26.862217,17.884928,5.904365,5.0594325,-11.11467,-8.109726
2.112,27.104717,17.604477,6.063197,4.8115153,-11.293135,-8.225338
2.114,27.32084,17.278534,6.224204,4.5587006,-11.467745,-8.334304
2.116,27.509941,16.908115,6.386756,4.301156,-11.6381855,-8.435961
2.118,27.671467,16.494598,6.5504727,4.038966,-11.803949,-8.529777
2.12,27.804386,16.03997,6.7148232,3.772196,-11.964413,-8.615421
2.122,27.907938,15.546508,6.879385,3.5009043,-12.118772,-8.69272
2.124,27.98167,15.017036,7.0435243,3.2251956,-12.266074,-8.761673
2.126,28.024754,14.454824,7.206925,2.94522,-12.405146,-8.822389
2.128,28.036522,13.863474,7.3688364,2.6612668,-12.53459,-8.87504
2.13,28.015934,13.247104,7.528661,2.3737767,-12.652801,-8.919814
2.132,27.962032,12.610128,7.685764,2.083407,-12.757981,-8.956849
2.134,27.873875,11.957002,7.8393445,1.7910666,-12.848125,-8.986126
2.136,27.750515,11.292358,7.988518,1.4978952,-12.921066,-9.007432
2.138,27.591194,10.621179,8.132142,1.2052941,-12.974556,-9.020392
2.14,27.395039,9.948259,8.269049,0.914953,-13.006182,-9.024458
2.142,27.161503,9.278405,8.397619,0.6288769,-13.013391,-9.018854
2.144,26.890198,8.616471,8.516169,0.3493309,-12.993595,-9.002614
2.146,26.58093,7.9674187,8.623,0.078756094,-12.944364,-8.974567
2.148,26.233896,7.335572,8.716257,-0.18028307,-12.863474,-8.933462
2.15,25.85012,6.7253323,8.793997,-0.42520332,-12.748984,-8.878014
2.152,25.430363,6.140654,8.854327,-0.65350556,-12.599537,-8.806992
2.154,24.976334,5.5849648,8.895527,-0.86289525,-12.414464,-8.719198
2.156,24.489944,5.0615387,8.915967,-1.0513628,-12.193842,-8.613644
2.158,23.973759,4.572824,8.914217,-1.2173166,-11.93853,-8.489599
2.16,23.430777,4.120853,8.888807,-1.3596399,-11.650185,-8.346635
2.162,22.86443,3.7069063,8.838635,-1.4777153,-11.331161,-8.184631
2.164,22.278423,3.3320022,8.76306,-1.5714102,-10.9843025,-8.003862
2.166,21.67662,2.9964962,8.661611,-1.6410499,-10.61274,-7.804967
2.168,21.063274,2.699943,8.534148,-1.6873443,-10.219641,-7.5889325
2.17,20.442917,2.4412816,8.380842,-1.7113338,-9.8081,-7.357026
2.172,19.820093,2.2190595,8.20226,-1.7143068,-9.380901,-7.110753
2.174,19.19884,2.0316658,7.999628,-1.6977636,-8.940454,-6.851802
2.176,18.583172,1.8768226,7.774099,-1.6633158,-8.488737,-6.581898
2.178,17.97765,1.7518402,7.5273066,-1.6126764,-8.027385,-6.3027897
2.18,17.386005,1.6539276,7.261076,-1.5476004,-7.5577354,-6.0161524
2.182,16.81161,1.5801913,6.9775014,-1.4698598,-7.0809546,-5.7235723
2.184,16.257364,1.5277114,6.6787605,-1.3812296,-6.5981054,-5.426488
2.186,15.725938,1.4933298,6.367269,-1.2834604,-6.1102476,-5.1262546
2.188,15.219746,1.4739035,6.0454793,-1.1782119,-5.6185613,-4.824088
2.19,14.740312,1.4666504,5.715738,-1.0670432,-5.124422,-4.5211344
2.192,14.289279,1.4686937,5.3806887,-0.95137715,-4.6293864,-4.2184696
2.194,13.867623,1.4772924,5.042584,-0.83250356,-4.135236,-3.917145
2.196,13.475913,1.4902133,4.7035656,-0.71155924,-3.6439352,-3.6182013
2.198,13.114278,1.5054679,4.3657947,-0.5895255,-3.1575346,-3.3226342
2.2,12.782684,1.5213543,4.0311136,-0.4672239,-2.6780627,-3.031416
2.202,12.480673,1.5363783,3.7013628,-0.3453363,-2.2074697,-2.7454462
2.204,12.207299,1.5494705,3.3780806,-0.2244132,-1.7475885,-2.4655473
2.206,11.961729,1.5597773,3.062503,-0.104884885,-1.3000495,-2.1924222
2.208,11.742807,1.5666547,2.7556226,0.012902841,-0.86623764,-1.926693
2.21,11.549691,1.5697491,2.4585216,0.1286801,-0.44724804,-1.6688344
2.212,11.380976,1.5687368,2.1720552,0.24222213,-0.0439201,-1.4191749
2.214,11.235264,1.5635353,1.897161,0.35331783,0.34315044,-1.1779251
2.216,11.1110325,1.5543789,1.6344976,0.46173993,0.7135957,-0.9451829
2.218,11.006715,1.5416701,1.3845237,0.5672402,1.0671937,-0.72093713
2.22,10.920748,1.5259521,1.147427,0.66953844,1.4038674,-0.5051169
2.222,10.851528,1.5076427,0.92331976,0.768317,1.7236055,-0.2976264
2.224,10.797338,1.4872019,0.71241087,0.8632313,2.0264044,-0.09835029
2.226,10.756552,1.4650171,0.5145545,0.95394164,2.3122547,0.092813194
2.228,10.727533,1.4414444,0.329665,1.0401049,2.5811129,0.2759068
2.23,10.708988,1.4166524,0.15740198,1.1213809,2.8328586,0.4509462
2.232,10.699521,1.391003,-0.0024819374,1.1975,3.067349,0.61791575
2.234,10.6974535,1.364593,-0.15024579,1.26826,3.2843874,0.77677584
2.236,10.70167,1.3374841,-0.2862532,1.3335099,3.48379,0.9274694
2.238,10.710935,1.3097118,-0.41068524,1.3932023,3.665403,1.0699319
2.24,10.724256,1.281167,-0.5238314,1.4473852,3.8291342,1.2041484
2.242,10.740816,1.2517674,-0.626057,1.496227,3.9750135,1.3301744
2.244,10.759802,1.2215453,-0.7176913,1.540027,4.1032586,1.4481535
2.246,10.780497,1.1903195,-0.7990189,1.5791991,4.2142897,1.5582662
2.248,10.802232,1.1579762,-0.87014055,1.6142642,4.3088045,1.6607419
2.25,10.824592,1.1243465,-0.9313936,1.64583,4.387736,1.7558017
2.252,10.846983,1.0892035,-0.982895,1.6745566,4.4522405,1.8436372
2.254,10.869215,1.0523247,-1.0249953,1.7011157,4.5036607,1.9244412
2.256,10.891043,1.0133243,-1.0581613,1.7261714,4.5434704,1.9983904
2.258,10.912092,0.9721136,-1.0826954,1.7503445,4.57321,2.0656753
2.26,10.932155,0.9283414,-1.099322,1.7741854,4.594381,2.1264791
2.262,10.951103,0.8818579,-1.1085315,1.7981526,4.608384,2.1810255
2.264,10.968852,0.8325074,-1.1110555,1.822585,4.616455,2.2295728
2.266,10.985303,0.7801006,-1.1076171,1.8477234,4.619634,2.2724323
2.268,11.0003805,0.72454524,-1.0988396,1.8736846,4.6187544,2.3099751
2.27,11.013846,0.66587377,-1.0854616,1.9004688,4.6144342,2.3426094
2.272,11.025806,0.6039183,-1.068198,1.9279647,4.6071024,2.370772
2.274,11.0360365,0.5388322,-1.0478514,1.9559608,4.5969915,2.3948731
2.276,11.044387,0.4707582,-1.0250527,1.9841602,4.584187,2.4153306
2.278,11.050899,0.39982212,-1.000512,2.0122054,4.5686607,2.4325113
2.28,11.055207,0.32630634,-0.9748628,2.039683,4.550267,2.4467626
2.282,11.057357,0.25041008,-0.94881725,2.0661683,4.52876,2.4584098
2.284,11.057193,0.17225933,-0.92296445,2.0912447,4.503813,2.4677548
2.286,11.054466,0.092371225,-0.8979962,2.1145082,4.4750385,2.4751139
2.288,11.049097,0.011128664,-0.8743756,2.135625,4.4419966,2.4808009
2.29,11.040827,-0.071079254,-0.85246396,2.1543334,4.404208,2.4851332
2.292,11.029409,-0.15376091,-0.8326808,2.1704412,4.3611813,2.4884248
2.294,11.014675,-0.23659873,-0.815411,2.1838467,4.3124356,2.4909484
2.296,10.996489,-0.31906438,-0.80091536,2.1945035,4.257509,2.4929056
2.298,10.974561,-0.4007337,-0.7895417,2.202426,4.1959524,2.4944584
2.3,10.948884,-0.4811113,-0.78126323,2.2076898,4.1273456,2.4957013
2.302,10.919175,-0.5597992,-0.77639127,2.2104135,4.0513124,2.496666
2.304,10.885554,-0.636389,-0.77479756,2.210752,3.9675643,2.4973307
2.306,10.847971,-0.71067023,-0.77632844,2.2088811,3.8758748,2.4976225
2.308,10.806604,-0.78229284,-0.78113437,2.2049868,3.776125,2.4973989
2.31,10.761351,-0.85099363,-0.78904843,2.1992483,3.6682768,2.4964736
2.312,10.71251,-0.91668224,-0.79998386,2.191838,3.5523965,2.4946673
2.314,10.660542,-0.97927,-0.81386924,2.1829214,3.428656,2.4917998
2.316,10.605593,-1.0385187,-0.8305017,2.1726527,3.297316,2.4877086
2.318,10.547927,-1.094528,-0.8495928,2.161197,3.1587236,2.4822886
2.32,10.487908,-1.1470716,-0.870906,2.1487043,3.0133142,2.4754725
2.322,10.425569,-1.196116,-0.89407635,2.1353323,2.8615735,2.4672384
2.324,10.361564,-1.2417259,-0.9189712,2.1212373,2.704051,2.4576035
2.326,10.2963295,-1.2839677,-0.9453491,2.10656,2.5413337,2.446613
2.328,10.230248,-1.3229952,-0.9729545,2.0914474,2.3740373,2.434352
2.33,10.163586,-1.3587766,-1.0015564,2.0760274,2.2028086,2.4209158
2.332,10.096899,-1.3914375,-1.0308666,2.060423,2.0282784,2.406411
2.334,10.030555,-1.4210067,-1.0607054,2.044732,1.8510892,2.3909278
2.336,9.96478,-1.4473901,-1.0907388,2.029029,1.6718715,2.374562
2.338,9.900087,-1.4705732,-1.1208794,2.0133724,1.4912244,2.3573823
2.34,9.836569,-1.4905746,-1.1507955,1.9978026,1.3097278,2.339457
2.342,9.774371,-1.50737,-1.1803329,1.9823345,1.127954,2.3208451
2.344,9.713762,-1.5208747,-1.2092662,1.9669867,0.9464643,2.301603
2.346,9.654847,-1.5310035,-1.2374897,1.9517686,0.7657949,2.2817724
2.348,9.597827,-1.5377042,-1.2649188,1.9366872,0.58649,2.2614243
2.35,9.542805,-1.5408823,-1.2913842,1.9217682,0.40907162,2.240625
2.352,9.489667,-1.540484,-1.3167589,1.9070399,0.23405205,2.219443
2.354,9.438515,-1.5364752,-1.3408923,1.8925275,0.061919034,2.197976
2.356,9.389217,-1.5287592,-1.3637588,1.8782722,-0.10688928,2.1762998
2.358,9.341732,-1.5173495,-1.3852468,1.8643286,-0.2719895,2.1544683
2.36,9.295861,-1.5022311,-1.4052265,1.8507472,-0.43306994,2.1325161
2.362,9.2517,-1.4832759,-1.4236374,1.837577,-0.58992165,2.11046
2.364,9.208958,-1.4605079,-1.4402564,1.8248733,-0.74240494,2.0882666
2.366,9.167522,-1.4339283,-1.4550469,1.8126535,-0.8904925,2.065861
2.368,9.1273575,-1.4035137,-1.4680398,1.8009377,-1.0342416,2.0431428
2.37,9.088278,-1.3692346,-1.4789007,1.7897282,-1.1737661,2.0199864
2.372,9.050245,-1.3310263,-1.4876146,1.7789977,-1.3092377,1.996254
2.374,9.012947,-1.2889359,-1.4940116,1.7687039,-1.4408565,1.9718349
2.376,8.976423,-1.2429407,-1.4979908,1.7587814,-1.5688245,1.9466491
2.378,8.940424,-1.1930399,-1.4993962,1.7491572,-1.6933407,1.9206476
2.38,8.904911,-1.1392128,-1.4981381,1.7397445,-1.8145638,1.8938382
2.382,8.869837,-1.0813448,-1.4940435,1.7304635,-1.9326264,1.8662782
2.384,8.835024,-1.0194728,-1.4869066,1.7212355,-2.0476265,1.8380651
2.386,8.800487,-0.953634,-1.4766593,1.7120078,-2.159605,1.8093426
2.388,8.766055,-0.8836732,-1.4631952,1.70274,-2.2685857,1.7802827
2.39,8.731801,-0.8096452,-1.4463445,1.6934302,-2.3745499,1.7510586
2.392,8.697596,-0.731493,-1.4260465,1.6840762,-2.4774437,1.7218564
2.394,8.663464,-0.6491945,-1.4022979,1.6747125,-2.5771966,1.6928296
2.396,8.629393,-0.5627191,-1.3748996,1.6653924,-2.6737318,1.6641347
2.398,8.5954,-0.472147,-1.3440623,1.6561837,-2.7669506,1.6358875
2.4,8.561586,-0.3775065,-1.3097225,1.647177,-2.856769,1.6081997
2.402,8.527951,-0.27890086,-1.2719228,1.6384697,-2.9430919,1.5811384
2.404,8.494539,-0.1763711,-1.2306772,1.6301681,-3.0258458,1.5547525
2.406,8.46143,-0.07019472,-1.1861659,1.6223984,-3.1049836,1.5290534
2.408,8.428734,0.039494514,-1.1384747,1.615294,-3.1804676,1.5040205
2.41,8.396672,0.15229058,-1.0876966,1.6089755,-3.252305,1.4796095
2.412,8.365068,0.2679491,-1.0340073,1.6035516,-3.3205428,1.4557384
2.414,8.334193,0.38601303,-0.97758436,1.5991251,-3.3852541,1.4322996
2.416,8.304131,0.5060264,-0.9187043,1.5957812,-3.4465528,1.4091778
2.418,8.275,0.627604,-0.85746646,1.5935733,-3.5045934,1.3862509
2.42,8.246898,0.7501981,-0.79403543,1.5925411,-3.5595317,1.363389
2.422,8.219997,0.873315,-0.72868085,1.5926883,-3.6115394,1.3404862
2.424,8.194286,0.9963888,-0.6614561,1.5939877,-3.6608005,1.3174447
2.426,8.169957,1.1187931,-0.59265184,1.5964016,-3.707492,1.2941818
2.428,8.1471195,1.2401687,-0.5223458,1.5998633,-3.7517738,1.2706383
2.43,8.125878,1.3597938,-0.45077038,1.6043038,-3.7937913,1.2467861
2.432,8.106445,1.4772184,-0.3782215,1.6096312,-3.8336737,1.2226152
2.434,8.08861,1.5920519,-0.30474877,1.6157465,-3.871535,1.1981316
2.436,8.072701,1.7037774,-0.23059988,1.6225479,-3.907469,1.1733456
2.438,8.058646,1.8119763,-0.15595436,1.6299288,-3.941567,1.1482888
2.44,8.046632,1.9163027,-0.08098388,1.637776,-3.9739113,1.1229892
2.442,8.036588,2.0164227,-0.0058162212,1.6459932,-4.004564,1.0974939
2.444,8.028661,2.1120763,0.06923509,1.6544919,-4.033597,1.0718355
2.446,8.02287,2.2029262,0.14402914,1.6631846,-4.0610924,1.0460552
2.448,8.019145,2.2888274,0.21841955,1.6719898,-4.087125,1.020192
2.45,8.017665,2.3696759,0.29221988,1.6808333,-4.1117754,0.99428093
2.452,8.018493,2.4453154,0.36524153,1.6896503,-4.1351423,0.9683682
2.454,8.021544,2.5158162,0.4373951,1.698368,-4.157315,0.94248205
2.456,8.026626,2.5812178,0.5085118,1.7069263,-4.1784143,0.9166597
2.458,8.033762,2.6416583,0.5785904,1.7152677,-4.1985583,0.89096093
2.46,8.042883,2.6972804,0.6474652,1.7233107,-4.217864,0.865445
2.462,8.053953,2.748385,0.7151234,1.7310052,-4.2364717,0.84019756
2.464,8.066903,2.7951922,0.7815685,1.7382731,-4.2545104,0.8153242
2.466,8.08162,2.838017,0.8469174,1.7450618,-4.2721167,0.7909427
2.468,8.098013,2.8771925,0.91112757,1.7513076,-4.289432,0.76717687
2.47,8.116051,2.9131927,0.9743376,1.7569375,-4.306582,0.7441479
2.472,8.135267,2.946315,1.0365446,1.7619076,-4.323715,0.7219738
2.474,8.15555,2.9770193,1.0979495,1.7661586,-4.340967,0.70075846
2.476,8.176919,3.0057125,1.1587422,1.7696366,-4.3584743,0.68056834
2.478,8.199024,3.0328627,1.2190287,1.7723135,-4.376349,0.6614568
2.48,8.221531,3.058812,1.2789354,1.7741327,-4.3946943,0.6434486
2.482,8.244312,3.083991,1.3386464,1.7750589,-4.4136167,0.6265272
2.484,8.267009,3.1088853,1.3982952,1.7750504,-4.4332085,0.6106397
2.486,8.289251,3.1337426,1.4580482,1.7740831,-4.4535465,0.5957148
2.488,8.310746,3.1588886,1.5181853,1.7721174,-4.474689,0.58167326
2.49,8.331207,3.1844857,1.5786734,1.7691346,-4.4966497,0.5684353
2.492,8.350077,3.2108514,1.6396964,1.7651167,-4.519428,0.555913
2.494,8.367058,3.238168,1.7013938,1.7600582,-4.54297,0.5440401
2.496,8.381783,3.26649,1.763836,1.7539692,-4.5671844,0.5327617
2.498,8.393773,3.2958565,1.8271437,1.7468548,-4.591946,0.5220393
2.5,8.402452,3.3262262,1.8913203,1.7387464,-4.6170864,0.5118673
2.502,8.407563,3.3576112,1.9564502,1.7296755,-4.642429,0.5022491
2.504,8.408564,3.389958,2.022475,1.7196683,-4.667788,0.49319398
2.506,8.405035,3.4230177,2.0893803,1.708756,-4.692964,0.484733
2.508,8.396512,3.456664,2.1571949,1.6969805,-4.717784,0.47689652
2.51,8.382537,3.4907207,2.2257662,1.684359,-4.7420974,0.46972084
2.512,8.362704,3.5250444,2.2950485,1.6709048,-4.765776,0.46322596
2.514,8.336739,3.5593956,2.3649232,1.6566323,-4.788714,0.45743954
2.516,8.304042,3.5937233,2.4352727,1.6415296,-4.8108273,0.45237803
2.518,8.2642765,3.6277227,2.5061316,1.6256167,-4.832034,0.4480672
2.52,8.216931,3.6613834,2.5771775,1.6088774,-4.852265,0.44454896
2.522,8.16203,3.694556,2.6484184,1.5913419,-4.871433,0.4418851
2.524,8.098925,3.7271783,2.7196934,1.5730485,-4.8894415,0.44014347
2.526,8.0274725,3.7591622,2.790983,1.5540416,-4.906166,0.4394331
2.528,7.9473343,3.790412,2.8622084,1.5343992,-4.9214554,0.43987405
2.53,7.8583417,3.8209715,2.9333494,1.5142205,-4.9351373,0.44160068
2.532,7.760119,3.8508918,3.0044224,1.4936068,-4.9470263,0.44474733
2.534,7.6526203,3.8801887,3.0753174,1.4726878,-4.9569116,0.44945157
2.536,7.5355964,3.9089863,3.146263,1.4516056,-4.964548,0.4558332
2.538,7.408969,3.937393,3.2171068,1.4305047,-4.969672,0.46400166
2.54,7.272578,3.9656613,3.2879739,1.4095347,-4.972016,0.47403288
2.542,7.126468,3.9938428,3.3588872,1.3888705,-4.971285,0.4859743
2.544,6.9706864,4.022151,3.429941,1.3686733,-4.9671836,0.4998672
2.546,6.8052135,4.0506325,3.5012176,1.3491207,-4.959403,0.51573694
2.548,6.6303463,4.07931,3.5727396,1.330384,-4.9476414,0.53360224
2.55,6.4463034,4.108345,3.6446052,1.3126249,-4.931587,0.55349064
2.552,6.253236,4.1378074,3.7168756,1.296012,-4.910943,0.5754367
2.554,6.0516276,4.167731,3.789765,1.2806989,-4.885433,0.5994836
2.556,5.84193,4.1981587,3.8633208,1.2668226,-4.8547955,0.62567496
2.558,5.6247005,4.229029,3.937551,1.254511,-4.818788,0.6540712
2.56,5.4005375,4.260256,4.0125437,1.2438635,-4.7772064,0.68470967
2.562,5.1701508,4.291869,4.0883245,1.2349865,-4.729854,0.7176453
2.564,4.9344044,4.3235803,4.1648197,1.2279735,-4.6765404,0.752908
2.566,4.694409,4.3552165,4.2418985,1.2229325,-4.617072,0.79051614
2.568,4.4510374,4.38645,4.3194327,1.2199587,-4.551254,0.8304628
2.57,4.205355,4.4170556,4.3973923,1.2191359,-4.4789333,0.8727226
2.572,3.9585938,4.446571,4.4756703,1.2205379,-4.399953,0.9172331
2.574,3.7118819,4.474612,4.553915,1.2242616,-4.3141418,0.96390474
2.576,3.466493,4.500756,4.6319513,1.230381,-4.221364,1.0126157
2.578,3.2236595,4.5245013,4.709598,1.2389693,-4.121488,1.0632235
2.58,2.9845154,4.545327,4.78658,1.2500596,-4.014444,1.1155301
2.582,2.750422,4.562984,4.862723,1.2636448,-3.9002485,1.1693181
2.584,2.5225494,4.576945,4.9376383,1.27966,-3.7789793,1.224312
2.586,2.3019257,4.586861,5.0111103,1.298017,-3.6507697,1.2802168
2.588,2.0896647,4.592264,5.0828466,1.318599,-3.515798,1.336725
2.59,1.8867877,4.592985,5.1525545,1.341272,-3.3742542,1.3935475
2.592,1.6941189,4.588657,5.219989,1.3659185,-3.2263112,1.4504256
2.594,1.5122867,4.5791965,5.284899,1.3924615,-3.0721078,1.5071545
2.596,1.3418837,4.56455,5.3471355,1.420824,-2.9117568,1.5636142
2.598,1.1832635,4.5447197,5.4064455,1.450975,-2.7453532,1.6197703
2.6,1.0365828,4.5198665,5.462941,1.4828881,-2.5729887,1.675675
2.602,0.90188277,4.490244,5.5163956,1.516505,-2.394821,1.7314272
2.604,0.7789986,4.4560323,5.5667124,1.5516934,-2.2111177,1.7871346
2.606,0.667574,4.4176574,5.6139913,1.5882373,-2.0222595,1.8428842
2.608,0.56704676,4.375532,5.658142,1.6258138,-1.8287671,1.8986905
2.61,0.47697377,4.3301954,5.6990814,1.664027,-1.6312461,1.9544953
2.612,0.3964111,4.2821712,5.7368107,1.7024417,-1.4303555,2.010115
2.614,0.32448447,4.231977,5.7714267,1.7406087,-1.2267513,2.0652635
2.616,0.26011854,4.1803837,5.8026447,1.7780917,-1.0210361,2.1195664
2.618,0.2023862,4.127871,5.8303204,1.8145137,-0.8137224,2.1726143
2.62,0.15024334,4.075058,5.8542056,1.849563,-0.6052161,2.2239728
2.622,0.10253835,4.022452,5.8740287,1.8830256,-0.39580098,2.2732286
2.624,0.058095336,3.9705722,5.889366,1.9147418,-0.18566597,2.3199925
2.626,0.016011417,3.9198935,5.8998113,1.9445883,0.02501452,2.3639128
2.628,-0.02479291,3.8709989,5.904828,1.9724507,0.23604542,2.4046664
2.63,-0.06522882,3.8241947,5.903902,1.9982159,0.4472049,2.441976
2.632,-0.106241465,3.77979,5.896436,2.0217872,0.6581746,2.4756002
2.634,-0.14837927,3.738103,5.881687,2.0430808,0.86857885,2.5053377
2.636,-0.1922937,3.6993968,5.8589993,2.0620449,1.0779736,2.5310295
2.638,-0.23854935,3.6637707,5.8275485,2.0786526,1.2858117,2.5525682
2.64,-0.28756022,3.6313615,5.7865844,2.0929093,1.4914916,2.5698848
2.642,-0.33961654,3.6021767,5.7353873,2.1048439,1.6943487,2.5829535
2.644,-0.39512897,3.5762997,5.673127,2.114499,1.8936986,2.5917811
2.646,-0.45409578,3.553593,5.5990915,2.1219344,2.0888333,2.5964193
2.648,-0.51660025,3.5339384,5.512834,2.1271706,2.279036,2.596951
2.65,-0.58280486,3.5172584,5.4136662,2.1302302,2.4635954,2.5934682
2.652,-0.6526401,3.5034742,5.3012056,2.1310763,2.6418228,2.5860927
2.654,-0.7261492,3.4922943,5.1749506,2.1296234,2.8130276,2.5749688
2.656,-0.8032901,3.483717,5.034852,2.12576,2.9765453,2.5602787
2.658,-0.8840386,3.4775405,4.8807383,2.1193523,3.131711,2.5422328
2.66,-0.96835375,3.4734964,4.7127337,2.1102328,3.277862,2.5210633
2.662,-1.056114,3.471388,4.530981,2.09824,3.414363,2.497034
2.664,-1.1472502,3.4709163,4.3359537,2.083184,3.5405295,2.470428
2.666,-1.2416584,3.4718065,4.1281004,2.0648806,3.6556792,2.4415498
2.668,-1.3393778,3.4738715,3.9082928,2.043166,3.7591498,2.410712
2.67,-1.4403334,3.476802,3.677318,2.0179338,3.850295,2.3782344
2.672,-1.5444639,3.4801993,3.4364474,1.9891033,3.9284952,2.3444011
2.674,-1.6516476,3.4839506,3.1869035,1.9566424,3.9931772,2.3095145
2.676,-1.7619188,3.4877176,2.9301739,1.9205674,4.0438256,2.273846
2.678,-1.8750024,3.4912698,2.6677544,1.8809696,4.080017,2.2376537
2.68,-1.9907684,3.4943109,2.4011164,1.8379763,4.10143,2.2011847
2.682,-2.1091304,3.4966407,2.132079,1.7917657,4.1078415,2.1646578
2.684,-2.229852,3.4979079,1.8624187,1.742537,4.0991554,2.1282701
2.686,-2.3525999,3.4977944,1.5938647,1.6905199,4.075409,2.092169
2.688,-2.4771554,3.4960797,1.3282514,1.6359441,4.036765,2.0564802
2.69,-2.6030889,3.492504,1.0673827,1.5790323,3.9835167,2.0212955
2.692,-2.7301593,3.4866655,0.81283236,1.52001,3.9160793,1.9866889
2.694,-2.8579645,3.4784224,0.56627995,1.4590693,3.8349545,1.9527
2.696,-2.986146,3.4674757,0.32921034,1.3964021,3.7407262,1.919368
2.698,-3.1143503,3.4536963,0.102978796,1.3321835,3.6340365,1.886723
2.7,-3.242262,3.436796,-0.111086786,1.2665633,3.515595,1.8547797
2.702,-3.3694339,3.4166105,-0.31202102,1.1997046,3.386143,1.8235581
2.704,-3.4953814,3.392906,-0.49874836,1.1317618,3.246438,1.793071
2.706,-3.6197162,3.365658,-0.67057323,1.0628967,3.0972657,1.7633238
2.708,-3.7421174,3.3347714,-0.8269533,0.99328023,2.9394333,1.7343278
2.71,-3.8622212,3.3001757,-0.96736467,0.9230905,2.7737496,1.7060871
2.712,-3.979641,3.261843,-1.0915103,0.85250026,2.60105,1.6785986
2.714,-4.094102,3.2199707,-1.1991954,0.7816988,2.4221869,1.6518602
2.716,-4.2054124,3.1745803,-1.2904626,0.71087664,2.2380404,1.6258657
2.718,-4.313224,3.1258078,-1.3653969,0.6402469,2.0495207,1.6006072
2.72,-4.417328,3.073819,-1.4242533,0.57001585,1.8575585,1.5760846
2.722,-4.5177,3.0188575,-1.467375,0.5004085,1.6630864,1.5522968
2.724,-4.6140933,2.9611573,-1.4953163,0.4316468,1.4670988,1.5292356
2.726,-4.706389,2.9009216,-1.5083208,0.3639623,1.2705927,1.5068939
2.728,-4.7946825,2.8385754,-1.5070238,0.29759026,1.0745745,1.485267
2.73,-4.87895,2.7744255,-1.4918983,0.2327838,0.8800544,1.4643478
2.732,-4.9593,2.7088656,-1.4636319,0.16979289,0.6880245,1.4441396
2.734,-5.0357556,2.6423154,-1.4228891,0.10888296,0.4994318,1.4246386
2.736,-5.1083417,2.575006,-1.3702743,0.05031144,0.31517214,1.4058456
2.738,-5.177217,2.5072546,-1.3066418,-0.0056658834,0.1360599,1.3877559
2.74,-5.2426224,2.4395726,-1.2326419,-0.058812052,-0.037190378,1.3703669
2.742,-5.304708,2.3723361,-1.1489854,-0.108910084,-0.20395541,1.3536795
2.744,-5.3636665,2.305777,-1.0562903,-0.15578148,-0.36372054,1.3376927
2.746,-5.4197235,2.2402742,-0.95526975,-0.1992789,-0.5160746,1.3224119
2.748,-5.472963,2.1760519,-0.8464823,-0.23929322,-0.66066146,1.3078496
2.75,-5.5235033,2.1133964,-0.73049015,-0.27573773,-0.7971888,1.2940185
2.752,-5.5715737,2.0524938,-0.6078478,-0.30855924,-0.92544085,1.2809383
2.754,-5.617219,1.9935771,-0.4789359,-0.3377127,-1.0452148,1.2686374
2.756,-5.6606956,1.9367622,-0.3443553,-0.36316434,-1.1563317,1.257146
2.758,-5.702134,1.8822253,-0.20448607,-0.38490266,-1.2586417,1.2464917
2.76,-5.741399,1.8299612,-0.059680864,-0.40290594,-1.3520453,1.2366887
2.762,-5.7787437,1.7800033,0.089591205,-0.41716748,-1.4364705,1.2277311
2.764,-5.814212,1.73249,0.2430176,-0.42770267,-1.5118883,1.2195805
2.766,-5.847838,1.687387,0.40009156,-0.43452546,-1.5783386,1.2121773
2.768,-5.879574,1.6446033,0.56056273,-0.43767962,-1.6359136,1.2054498
2.77,-5.909549,1.6041617,0.7239227,-0.43723246,-1.6847712,1.1993039
2.772,-5.9376307,1.5659051,0.88979375,-0.43325907,-1.7250757,1.19362
2.774,-5.9641485,1.5299394,1.0576298,-0.42585167,-1.757024,1.1882714
2.776,-5.9889765,1.4960976,1.227117,-0.4151269,-1.78081,1.183117
2.778,-6.012061,1.4642901,1.3976996,-0.40119547,-1.7966383,1.1780306
2.78,-6.033446,1.4345034,1.5690061,-0.38418335,-1.8046649,1.1728708
2.782,-6.0531645,1.406645,1.7402246,-0.36422867,-1.8050127,1.1674956
2.784,-6.071392,1.3806047,1.910853,-0.3414938,-1.7977705,1.1617595
2.786,-6.0881524,1.3563257,2.0802147,-0.31614244,-1.7830056,1.1555126
2.788,-6.1035657,1.3337387,2.2475548,-0.28834498,-1.7607585,1.1486211
2.79,-6.1175847,1.3127933,2.4123864,-0.25828025,-1.7310522,1.1409643
2.792,-6.130216,1.2933644,2.5738196,-0.22612125,-1.6939173,1.1324441
2.794,-6.1415744,1.2755294,2.7312844,-0.19205306,-1.649414,1.1229981
2.796,-6.151675,1.2592158,2.8840027,-0.15624732,-1.5976175,1.1125803
2.798,-6.160464,1.2442938,3.0312626,-0.118873306,-1.5386533,1.1011885
2.8,-6.168032,1.2307893,3.172401,-0.08011444,-1.4726909,1.0888442
2.802,-6.1743746,1.2187268,3.3068373,-0.040139128,-1.3999616,1.075606
2.804,-6.1795807,1.208047,3.4339235,0.0008680001,-1.3207558,1.0615542
2.806,-6.1836243,1.1988386,3.5531058,0.04271707,-1.2353997,1.0467749
2.808,-6.1862664,1.1910286,3.663854,0.08521159,-1.1442994,1.0313555
2.81,-6.1875615,1.1846435,3.7657125,0.12816325,-1.0479205,1.0153984
2.812,-6.1875777,1.179852,3.858367,0.17136523,-0.9467869,0.99897444
2.814,-6.1860948,1.1765876,3.9414165,0.2146036,-0.8414689,0.9821605
2.816,-6.1831446,1.1748455,4.0145497,0.25765452,-0.7326079,0.9650097
2.818,-6.178738,1.1747284,4.0776987,0.30031067,-0.62086797,0.9475683
2.82,-6.172742,1.1762075,4.130785,0.34234092,-0.5069418,0.9298464
2.822,-6.165129,1.1793118,4.173716,0.38350984,-0.3915587,0.91183203
2.824,-6.1558137,1.1840769,4.206674,0.42359138,-0.27545592,0.8935054
2.826,-6.144718,1.190428,4.229815,0.4623462,-0.15938996,0.87483
2.828,-6.1318707,1.1983843,4.2433805,0.49953336,-0.04409898,0.8557537
2.83,-6.1172724,1.2079914,4.247804,0.5349256,0.06970434,0.83621347
2.832,-6.1008134,1.2191057,4.2433677,0.5682961,0.18133187,0.8161352
2.834,-6.0826097,1.2317843,4.2305336,0.59944123,0.29013622,0.795474
2.836,-6.062614,1.2459912,4.209598,0.6281696,0.39555746,0.77418345
2.838,-6.040822,1.2616218,4.1811786,0.6543297,0.49711263,0.75224644
2.84,-6.017382,1.2786723,4.1456776,0.6778028,0.594404,0.72967124
2.842,-5.992183,1.2969811,4.103675,0.6985076,0.6871178,0.70648074
2.844,-5.9654174,1.3165395,4.0557227,0.7164017,0.77502465,0.6827203
2.846,-5.937324,1.337418,4.002324,0.7314775,0.85797125,0.6584394
2.848,-5.907827,1.3594761,3.9440925,0.7437649,0.93587255,0.63368547
2.85,-5.877022,1.3825884,3.8815339,0.7533077,1.0086725,0.6084971
2.852,-5.84505,1.4067245,3.8151753,0.7601561,1.0763525,0.58288395
2.854,-5.8120947,1.4319103,3.7454298,0.7643759,1.1388984,0.5568497
2.856,-5.7782564,1.4580054,3.6728218,0.7660189,1.1963114,0.5303751
2.858,-5.743658,1.4849737,3.5978787,0.7651326,1.2485807,0.5034359
2.86,-5.7084293,1.512814,3.5209959,0.76177955,1.2956742,0.47599864
2.862,-5.672698,1.5414225,3.442561,0.75599563,1.3375645,0.44803777
2.864,-5.6365147,1.5706885,3.3630495,0.7478185,1.3742121,0.41953754
2.866,-5.6000395,1.6006265,3.2829227,0.7373039,1.4055711,0.3905064
2.868,-5.563233,1.6310787,3.2025669,0.72450846,1.4315946,0.3609593
2.87,-5.526155,1.6619661,3.122452,0.70948356,1.452239,0.33092973
2.872,-5.4888067,1.693255,3.0429728,0.69227755,1.4674515,0.30046177
2.874,-5.451288,1.7248881,2.9646091,0.6729382,1.4772093,0.26960963
2.876,-5.4135294,1.7567452,2.8876805,0.65152305,1.4815215,0.2384223
2.878,-5.3756356,1.7887914,2.8126547,0.6280651,1.4804047,0.20695399
2.88,-5.337439,1.8209625,2.7398891,0.602621,1.4739248,0.17526591
2.882,-5.298985,1.8532232,2.669768,0.5752417,1.4621725,0.14342585
2.884,-5.2600026,1.8852842,2.602704,0.5459787,1.445265,0.11149357
2.886,-5.2205596,1.9172366,2.5389934,0.5148865,1.4233742,0.079536684
2.888,-5.180482,1.9489617,2.4790614,0.4820413,1.3966993,0.047604665
2.89,-5.139749,1.9803922,2.4230459,0.4475209,1.3654604,0.015757546
2.892,-5.098126,2.0114374,2.3713908,0.41140354,1.3299094,-0.01594682
2.894,-5.0555415,2.042002,2.3242805,0.37377352,1.2903346,-0.04747197
2.896,-5.011876,2.0721478,2.2819524,0.33472708,1.2470589,-0.07877998
2.898,-4.966968,2.1016915,2.2445202,0.29437122,1.2004213,-0.109840095
2.9,-4.9208007,2.130585,2.212037,0.25280917,1.1507983,-0.14063635
2.902,-4.873173,2.1588206,2.184565,0.21017222,1.0985777,-0.17115396
2.904,-4.824039,2.186296,2.1620517,0.1665935,1.0441772,-0.20139626
2.906,-4.773354,2.212905,2.1444387,0.122228935,0.9880229,-0.2313771
2.908,-4.7210474,2.238782,2.1315393,0.07722755,0.9305718,-0.26111817
2.91,-4.667006,2.2637072,2.1232278,0.031768832,0.8722529,-0.29064015
2.912,-4.611001,2.2876585,2.1192997,-0.013977278,0.8135129,-0.31995982
2.914,-4.5531893,2.3105495,2.1193783,-0.05984036,0.75478923,-0.3490875
2.916,-4.493465,2.3324397,2.123198,-0.10565139,0.6964865,-0.37803558
2.918,-4.431865,2.3532124,2.1304522,-0.15125522,0.63899624,-0.40680778
2.92,-4.3684006,2.3729827,2.1407142,-0.19651663,0.5826562,-0.43538758
2.922,-4.3029947,2.3915918,2.1535964,-0.24131875,0.52775395,-0.46377695
2.924,-4.235807,2.4091,2.168715,-0.28555486,0.47452497,-0.49195787
2.926,-4.166769,2.4255393,2.185773,-0.32916698,0.423142,-0.5199151
2.928,-4.095847,2.4409072,2.2042632,-0.37210366,0.37370583,-0.5476418
2.93,-4.0231695,2.4553094,2.223812,-0.41434014,0.32627544,-0.57512224
2.932,-3.9488769,2.4686856,2.2441669,-0.45586824,0.28086042,-0.6023399
2.934,-3.8728418,2.4811058,2.2648737,-0.49669972,0.23744045,-0.6292727
2.936,-3.7952912,2.4927807,2.2857342,-0.5368363,0.19598714,-0.6559039
2.938,-3.7162182,2.5037932,2.3064656,-0.57629097,0.15646258,-0.68218744
2.94,-3.6357732,2.5140662,2.3267422,-0.6150633,0.11885184,-0.7080786
2.942,-3.553931,2.5238395,2.346446,-0.6531523,0.083161555,-0.7335301
2.944,-3.4707985,2.5331194,2.3653529,-0.6905377,0.04942654,-0.7584957
2.946,-3.3864493,2.5419621,2.3833778,-0.7271887,0.017705232,-0.78293496
2.948,-3.3009293,2.5506148,2.4003696,-0.7630688,-0.01193475,-0.8068146
2.95,-3.2142372,2.5589933,2.4161088,-0.7981446,-0.03941202,-0.83012265
2.952,-3.126484,2.567234,2.4305868,-0.83236384,-0.06465883,-0.85287535
2.954,-3.0377655,2.5753984,2.4437234,-0.8656871,-0.087616354,-0.87509394
2.956,-2.9480624,2.5834398,2.4553838,-0.8980922,-0.1082373,-0.8968345
2.958,-2.857584,2.5915456,2.46562,-0.92955476,-0.12650229,-0.9181504
2.96,-2.7662072,2.5997484,2.4742954,-0.96007013,-0.14241484,-0.9391215
2.962,-2.6741147,2.6080532,2.4814494,-0.98962694,-0.15600519,-0.9598262
2.964,-2.5812614,2.6164558,2.4870045,-1.01824,-0.16732089,-0.9803424
2.966,-2.487834,2.625075,2.4909308,-1.0459266,-0.17643479,-1.000742
2.968,-2.3937173,2.6338768,2.493154,-1.0727051,-0.18342674,-1.0210733
2.97,-2.2992005,2.6429155,2.493658,-1.0985935,-0.18838972,-1.0413675
2.972,-2.2041378,2.6522377,2.4924285,-1.1236064,-0.19142854,-1.0616398
2.974,-2.1084967,2.661794,2.4894233,-1.14776,-0.1926395,-1.081877
2.976,-2.0125384,2.6717458,2.484563,-1.1710777,-0.19211988,-1.1020434
2.978,-1.9162521,2.6820583,2.477819,-1.193571,-0.18995443,-1.1221089
2.98,-1.8196528,2.6927848,2.4691753,-1.2152436,-0.1862229,-1.1420335
2.982,-1.7227036,2.7039652,2.4586315,-1.2361238,-0.18099156,-1.161758
2.984,-1.6254945,2.715567,2.4460607,-1.2562199,-0.17433274,-1.1812525
2.986,-1.5280656,2.7276723,2.4315386,-1.2755597,-0.16630247,-1.200486
2.988,-1.4302664,2.7402894,2.4149303,-1.2941747,-0.15697223,-1.2194393
2.99,-1.3322055,2.7533495,2.3963706,-1.3120991,-0.14641549,-1.238113
2.992,-1.2338481,2.7669454,2.3757262,-1.3293754,-0.1347087,-1.2565194
2.994,-1.1352228,2.7810268,2.3530421,-1.3460537,-0.121952996,-1.27469
2.996,-1.0362313,2.79562,2.3282726,-1.3621774,-0.10825732,-1.292648
2.998,-0.93688524,2.8106105,2.3013217,-1.3778092,-0.09374289,-1.3104496
3,-0.83717614,2.8259752,2.2723079,-1.393008,-0.078531295,-1.3281435
3.002,-0.7371173,2.8415928,2.2411165,-1.4078299,-0.06274803,-1.3457831
3.004,-0.63659966,2.857411,2.2078955,-1.4223318,-0.04651302,-1.3634232
3.006,-0.535736,2.8732305,2.1725383,-1.4365792,-0.029952973,-1.3811159
3.008,-0.4344983,2.889081,2.1351943,-1.450617,-0.013195246,-1.3989074
3.01,-0.33293325,2.9046485,2.0958402,-1.4644941,0.0036326349,-1.4168316
3.012,-0.23109026,2.9199584,2.0546103,-1.4782459,0.020400032,-1.4349103
3.014,-0.1290087,2.9347606,2.0115113,-1.4919072,0.036976293,-1.4531498
3.016,-0.026710883,2.9490697,1.9666582,-1.5055125,0.05322048,-1.4715621
3.018,0.07566233,2.9625788,1.9202557,-1.5190835,0.06900892,-1.4901328
3.02,0.17798492,2.9752934,1.8723917,-1.5326382,0.0842085,-1.508842
3.022,0.28008083,2.98704,1.8231988,-1.5462008,0.09869918,-1.5276651
3.024,0.38190714,2.9977784,1.7728783,-1.5597916,0.11238088,-1.5465742
3.026,0.48325697,3.0073302,1.7216532,-1.5734284,0.12516928,-1.5655419
3.028,0.58402467,3.0157435,1.669618,-1.5871183,0.13700585,-1.5845329
3.03,0.68411326,3.0229504,1.6169589,-1.6008639,0.14784345,-1.6035264
3.032,0.7832302,3.0289605,1.5638741,-1.6146781,0.1576574,-1.6224868
3.034,0.88123757,3.0338094,1.5104994,-1.628557,0.16643605,-1.6414032
3.036,0.9779027,3.0375247,1.4570904,-1.6424857,0.17418003,-1.6602652
3.038,1.0731149,3.0400865,1.4037809,-1.6564758,0.180911,-1.6790471
3.04,1.1666602,3.0415113,1.3507012,-1.6705068,0.18665886,-1.6977363
3.042,1.2584833,3.0420704,1.2979671,-1.6845616,0.19145559,-1.7163072
3.044,1.3481053,3.0417566,1.2457579,-1.6986356,0.19535863,-1.7347124
3.046,1.4356543,3.0407207,1.1941216,-1.7127026,0.19842154,-1.7529091
3.048,1.5209043,3.039055,1.1432122,-1.7267491,0.2006938,-1.7708256
3.05,1.6037483,3.037087,1.0931295,-1.7407649,0.20224403,-1.7883794
3.052,1.6840359,3.0349023,1.0437939,-1.7547331,0.20313145,-1.805454
3.054,1.7617033,3.032765,0.9952887,-1.76863,0.20341629,-1.8219392
3.056,1.8366176,3.0308495,0.94758487,-1.7824471,0.203154,-1.8377115
3.058,1.9087456,3.0292933,0.90063363,-1.7961625,0.20241779,-1.8526422
3.06,1.9781704,3.0283768,0.85446376,-1.809756,0.20129588,-1.8665991
3.062,2.0448127,3.0282187,0.8089589,-1.8232217,0.19987348,-1.8794677
3.064,2.1087282,3.028925,0.7639932,-1.836532,0.19824046,-1.8911456
3.066,2.169999,3.0305724,0.7194833,-1.8496692,0.19650057,-1.9015543
3.068,2.228751,3.0331478,0.67525655,-1.8626153,0.19475034,-1.9106445
3.07,2.2851028,3.0366223,0.631314,-1.8753419,0.19309282,-1.9183936
3.072,2.3390691,3.040977,0.58736056,-1.8878243,0.19161248,-1.9248366
3.074,2.3908632,3.0459597,0.5433697,-1.900024,0.19037628,-1.930046
3.076,2.4407318,3.0514128,0.49918532,-1.9119126,0.18942708,-1.9341443
3.078,2.488796,3.0571482,0.45469874,-1.9234625,0.1887806,-1.9373028
3.08,2.5354214,3.0627072,0.40978146,-1.9346629,0.18841225,-1.9397122
3.082,2.580592,3.067874,0.36439705,-1.945509,0.18826821,-1.941605
3.084,2.62446,3.0721812,0.31845587,-1.9560143,0.1882649,-1.9431936
3.086,2.6674063,3.075213,0.2720198,-1.9662099,0.18828729,-1.9447052
3.088,2.709546,3.0766256,0.2249552,-1.9761482,0.18821692,-1.9463181
3.09,2.750991,3.075956,0.17726517,-1.9858869,0.18791121,-1.9481838
3.092,2.7919726,3.0728405,0.12904143,-1.9954971,0.18723857,-1.9503909
3.094,2.8327765,3.0668588,0.080244064,-2.0050523,0.18607888,-1.9529673
3.096,2.8733125,3.0577927,0.031032562,-2.0146153,0.18434757,-1.9558818
3.098,2.9138005,3.0453217,-0.018573284,-2.0242264,0.18197688,-1.9590536
3.1,2.9541638,3.0292401,-0.06847215,-2.0339193,0.17894313,-1.9623476
3.102,2.9946628,3.0093846,-0.118541,-2.0437047,0.17526037,-1.9656074
3.104,3.0350745,2.9857726,-0.16869712,-2.053572,0.17096299,-1.9686556
3.106,3.0755348,2.9583218,-0.21883535,-2.0634942,0.16612619,-1.9713163
3.108,3.1160443,2.9271486,-0.26879907,-2.0734432,0.16084337,-1.9734123
3.11,3.156636,2.892305,-0.31848228,-2.0833735,0.15522546,-1.9747939
3.112,3.197115,2.8541007,-0.36773705,-2.0932467,0.14935446,-1.9753395
3.114,3.2374458,2.8126452,-0.41659808,-2.1030233,0.14333797,-1.9749644
3.116,3.277696,2.7682781,-0.46486735,-2.1126552,0.13727379,-1.9736025
3.118,3.3175914,2.7212815,-0.5124538,-2.122119,0.13124877,-1.9712443
3.12,3.3570876,2.6720922,-0.5592507,-2.1313846,0.12533474,-1.9678943
3.122,3.3961248,2.620853,-0.60521543,-2.140436,0.119583964,-1.9635773
3.124,3.4345443,2.568154,-0.6502005,-2.1492648,0.114019334,-1.9583426
3.126,3.472235,2.5141716,-0.6942395,-2.1578608,0.108679116,-1.9522442
3.128,3.5090063,2.459386,-0.7373005,-2.1662264,0.10358107,-1.9453337
3.13,3.5448337,2.404211,-0.7793701,-2.1743574,0.09874576,-1.9376566
3.132,3.5796573,2.349068,-0.8203034,-2.1822479,0.094189346,-1.9292433
3.134,3.6133497,2.294276,-0.8601582,-2.1898904,0.089963615,-1.920122
3.136,3.6458344,2.2402968,-0.8990655,-2.1972742,0.08609915,-1.9102937
3.138,3.6768968,2.1874137,-0.9368967,-2.204381,0.082660496,-1.8997453
3.14,3.706687,2.1359684,-0.9737762,-2.2111917,0.07972342,-1.8884468
3.142,3.7350333,2.086266,-1.0097238,-2.217692,0.077364564,-1.8763694
3.144,3.7619944,2.0386248,-1.0447946,-2.2238727,0.075674355,-1.8634796
3.146,3.7876363,1.9932601,-1.079112,-2.2297015,0.07473129,-1.8497407
3.148,3.8119483,1.9505038,-1.1127037,-2.2351577,0.07461643,-1.8351278
3.15,3.8349843,1.9105502,-1.1457465,-2.2402194,0.07538545,-1.8196297
3.152,3.8567886,1.873367,-1.1782398,-2.2448545,0.077092946,-1.8032659
3.154,3.877479,1.8391227,-1.2104137,-2.2490375,0.07978386,-1.7860808
3.156,3.8972106,1.807787,-1.2422919,-2.252732,0.08348167,-1.7681375
3.158,3.9160392,1.7794046,-1.274087,-2.2559018,0.08820087,-1.7495222
3.16,3.9340825,1.7537954,-1.3058826,-2.2585163,0.09393406,-1.7303462
3.162,3.9514916,1.730895,-1.3377488,-2.2605464,0.10067141,-1.7107384
3.164,3.9683104,1.7105002,-1.3698311,-2.261959,0.108394146,-1.6908225
3.166,3.9848695,1.6923103,-1.402182,-2.2627296,0.117090225,-1.6707217
3.168,4.0012054,1.6760767,-1.4349382,-2.2628386,0.1267255,-1.6505504
3.17,4.0172915,1.661614,-1.4681029,-2.2622836,0.13727182,-1.6304141
3.172,4.0334764,1.6486509,-1.5017622,-2.26106,0.1486969,-1.6103797
3.174,4.0497804,1.6368654,-1.5359111,-2.2591646,0.16097647,-1.5905108
3.176,4.0663524,1.6259739,-1.5705495,-2.2565887,0.17408866,-1.5708175
3.178,4.0832815,1.6157227,-1.6057044,-2.253339,0.18801457,-1.5513102
3.18,4.1004033,1.6059811,-1.6413939,-2.249426,0.20272446,-1.5319631
3.182,4.1180887,1.5964798,-1.6775212,-2.2448406,0.21820587,-1.5127242
3.184,4.136272,1.5870913,-1.7140994,-2.2395797,0.23443615,-1.4935399
3.186,4.1549597,1.5776751,-1.7510564,-2.2336383,0.2514046,-1.4743505
3.188,4.1741643,1.5680827,-1.7883617,-2.226998,0.2690888,-1.4551023
3.19,4.1938877,1.5583822,-1.8259518,-2.219649,0.28748986,-1.4357316
3.192,4.214204,1.5484345,-1.8637584,-2.2115722,0.30659467,-1.4162002
3.194,4.2350125,1.5383638,-1.901736,-2.2027466,0.32639182,-1.3964763
3.196,4.256463,1.528125,-1.9397628,-2.19315,0.34686846,-1.3765357
3.198,4.2782493,1.517832,-1.9777597,-2.1827586,0.36801764,-1.3563741
3.2,4.300411,1.5075997,-2.015658,-2.1715636,0.38981524,-1.3360043
3.202,4.322866,1.4974415,-2.0534704,-2.1595583,0.4122431,-1.3154398
3.204,4.3455644,1.4875947,-2.0910378,-2.14673,0.43528396,-1.2946961
3.206,4.3685603,1.4781458,-2.1284268,-2.1330905,0.45888874,-1.2737889
3.208,4.391546,1.4692284,-2.1654625,-2.1186402,0.48302278,-1.2527322
3.21,4.4146347,1.461062,-2.20216,-2.1034036,0.50763625,-1.2315437
3.212,4.437613,1.453741,-2.2384596,-2.0874054,0.53269094,-1.2102258
3.214,4.460552,1.4473946,-2.2744083,-2.0706687,0.55813664,-1.1887757
3.216,4.4832053,1.4421403,-2.309941,-2.0532224,0.58393437,-1.1671948
3.218,4.5055804,1.4381266,-2.345018,-2.035108,0.6100401,-1.1454751
3.22,4.527656,1.4354612,-2.3796546,-2.0163572,0.63641226,-1.1236104
3.222,4.5493665,1.4341478,-2.4138622,-1.9969999,0.6630173,-1.1015911
3.224,4.5707555,1.4343318,-2.4476817,-1.9770563,0.6898249,-1.0794169
3.226,4.5916085,1.435972,-2.481102,-1.9565446,0.71680653,-1.0570911
3.228,4.612092,1.4389875,-2.5142853,-1.9354824,0.743933,-1.034623
3.23,4.632158,1.4433832,-2.5471702,-1.9138758,0.7711818,-1.0120538
3.232,4.6516714,1.4491683,-2.5798268,-1.89172,0.7985375,-0.989408
3.234,4.670902,1.4559782,-2.6123493,-1.8690008,0.8259737,-0.9667438
3.236,4.689659,1.4638557,-2.644859,-1.8457198,0.85346746,-0.9441385
3.238,4.708204,1.4725342,-2.67737,-1.8218708,0.8809968,-0.9216662
3.24,4.726486,1.4818039,-2.7100976,-1.797448,0.90852654,-0.89941025
3.242,4.7443657,1.4913573,-2.7430265,-1.7724704,0.9360157,-0.87745595
3.244,4.7621045,1.5009389,-2.776321,-1.7469555,0.9634037,-0.8559017
3.246,4.779656,1.5103042,-2.8100214,-1.7209395,0.9906188,-0.83482337
3.248,4.7971425,1.5192139,-2.8442578,-1.6944575,1.0175793,-0.81428313
3.25,4.814473,1.5273675,-2.8790371,-1.6675665,1.0441747,-0.7943314
3.252,4.831768,1.5345278,-2.9144092,-1.6403294,1.0702784,-0.7749852
3.254,4.849027,1.5404723,-2.9504802,-1.6128101,1.0957626,-0.7562516
3.256,4.8662305,1.5449373,-2.9872253,-1.5850598,1.1204753,-0.7381047
3.258,4.883394,1.547718,-3.02468,-1.5571451,1.1442621,-0.7205136
3.26,4.900607,1.5486432,-3.0628304,-1.5291235,1.1669888,-0.70342803
3.262,4.917847,1.5476725,-3.101612,-1.5010508,1.1884964,-0.6867933
3.264,4.9351063,1.5445855,-3.140975,-1.4729775,1.208665,-0.670561
3.266,4.9523034,1.5394342,-3.1809144,-1.4449595,1.2273681,-0.65467715
3.268,4.969507,1.5320448,-3.2213454,-1.4170493,1.2445273,-0.6391006
3.27,4.9866686,1.5224488,-3.2621307,-1.3892967,1.2600608,-0.62378514
3.272,5.003854,1.510604,-3.3031955,-1.3617407,1.2739449,-0.608711
3.274,5.0209894,1.496659,-3.3444312,-1.3344265,1.2861521,-0.5938504
3.276,5.037918,1.4807209,-3.3857272,-1.3073953,1.2966899,-0.57919466
3.278,5.0547705,1.4627944,-3.4269094,-1.2806802,1.3055797,-0.56473064
3.28,5.071558,1.442873,-3.4679623,-1.254306,1.3128664,-0.55044687
3.282,5.087931,1.4212621,-3.5087588,-1.2283028,1.3185903,-0.5363404
3.284,5.1041965,1.3979644,-3.5491457,-1.202682,1.3228084,-0.5223992
3.286,5.1201277,1.3731863,-3.5891013,-1.1774504,1.3255649,-0.50861275
3.288,5.1357636,1.3470681,-3.6285493,-1.1526185,1.3269145,-0.49496904
3.29,5.1512203,1.3196447,-3.6674118,-1.1281843,1.326897,-0.48146266
3.292,5.166261,1.2912109,-3.7055597,-1.1041602,1.3255336,-0.46808532
3.294,5.1809173,1.2619512,-3.7430215,-1.0805457,1.3228432,-0.45481843
3.296,5.1951528,1.2319131,-3.7796507,-1.0573385,1.3188438,-0.44165304
3.298,5.2089396,1.2014029,-3.815524,-1.0345435,1.3135355,-0.42857894
3.3,5.2221966,1.1705117,-3.8505352,-1.0121673,1.3069136,-0.41557842
3.302,5.234976,1.1394534,-3.8847585,-0.99022186,1.2989694,-0.40265393
3.304,5.2472634,1.1084634,-3.9180503,-0.9687134,1.2897128,-0.38979077
3.306,5.258985,1.0775867,-3.9505715,-0.9476466,1.2791349,-0.37698424
3.308,5.2701664,1.0471035,-3.982162,-0.9270335,1.2672439,-0.3642279
3.31,5.280833,1.0171226,-4.0128484,-0.9068923,1.2540555,-0.35153008
3.312,5.2909355,0.98776674,-4.042681,-0.88723516,1.2396013,-0.33889157
3.314,5.3003883,0.9592416,-4.0716195,-0.86806786,1.2239048,-0.32632145
3.316,5.309258,0.9315709,-4.0997086,-0.84939784,1.2070123,-0.31382722
3.318,5.3176475,0.9049833,-4.1269464,-0.83123916,1.1889706,-0.3014237
3.32,5.3254304,0.8795254,-4.153402,-0.8135848,1.1698347,-0.28913292
3.322,5.332627,0.8553231,-4.1789536,-0.79643816,1.1496571,-0.2769614
3.324,5.3392982,0.8324437,-4.2036457,-0.77979124,1.1285036,-0.2649252
3.326,5.345463,0.8109474,-4.227485,-0.7636364,1.1064296,-0.2530238
3.328,5.351088,0.7909157,-4.2505155,-0.7479627,1.0835006,-0.24126115
3.33,5.356256,0.7723514,-4.2726784,-0.73275447,1.0597595,-0.22963178
3.332,5.3610616,0.75538075,-4.2939568,-0.7179997,1.0352632,-0.21811953
3.334,5.365426,0.73997366,-4.314236,-0.7036842,1.0100492,-0.20672494
3.336,5.3695264,0.72612214,-4.33362,-0.6897829,0.98416704,-0.19542205
3.338,5.373247,0.7139509,-4.351972,-0.6762793,0.95765305,-0.18419155
3.34,5.3766813,0.70334625,-4.369327,-0.66315114,0.9305415,-0.17303306
3.342,5.380045,0.6942775,-4.385633,-0.65035784,0.9028691,-0.16193038
3.344,5.383122,0.68674064,-4.400798,-0.6378699,0.87469405,-0.15087327
3.346,5.386056,0.68057585,-4.414725,-0.6256441,0.84606576,-0.1398674
3.348,5.388936,0.6757417,-4.427491,-0.6136447,0.8170481,-0.12893164
3.35,5.391625,0.6720784,-4.438889,-0.60182214,0.7877102,-0.11807564
3.352,5.394314,0.66952467,-4.4490905,-0.5901384,0.7581363,-0.10732159
3.354,5.396937,0.66806436,-4.4578533,-0.5785512,0.7284149,-0.09669876
3.356,5.3994513,0.66736484,-4.4652576,-0.56701845,0.69864,-0.08623442
3.358,5.4018936,0.6674137,-4.4712887,-0.5555012,0.66890025,-0.075966895
3.36,5.404191,0.6680467,-4.475928,-0.5439647,0.6392936,-0.065929174
3.362,5.4065,0.66911864,-4.479223,-0.5323733,0.609903,-0.056144625
3.364,5.408634,0.6705408,-4.481142,-0.52069265,0.58081573,-0.046634197
3.366,5.410566,0.67224693,-4.4817486,-0.50887984,0.55211365,-0.03740698
3.368,5.412308,0.67403316,-4.480949,-0.49690726,0.5238543,-0.028456375
3.37,5.413759,0.67580056,-4.478899,-0.48475587,0.49609512,-0.019768953
3.372,5.414932,0.67752457,-4.4757338,-0.47238654,0.4688922,-0.011303037
3.374,5.415816,0.6791296,-4.4713764,-0.45979446,0.44227982,-0.003015563
3.376,5.4163165,0.68049,-4.4659147,-0.44695616,0.416283,0.0051391125
3.378,5.4166026,0.6815975,-4.459754,-0.4338671,0.3909221,0.013211608
3.38,5.416563,0.6824846,-4.452774,-0.4205154,0.36621863,0.021250263
3.382,5.4160557,0.68314624,-4.4450197,-0.40689284,0.34217638,0.02930373
3.384,5.415217,0.6835301,-4.4365864,-0.3930014,0.31881064,0.037409864
3.386,5.4139714,0.6836858,-4.427597,-0.37883505,0.29611745,0.04559525
3.388,5.412256,0.6836858,-4.418146,-0.36439222,0.274098,0.05389262
3.39,5.4101505,0.6835916,-4.408285,-0.3496702,0.2527508,0.06230239
3.392,5.407792,0.68328,-4.3981085,-0.33466902,0.23205979,0.07083942
3.394,5.404946,0.68295455,-4.387748,-0.31938127,0.21201147,0.07951374
3.396,5.401793,0.68261933,-4.377227,-0.30380872,0.19257714,0.08832444
3.398,5.398282,0.68228126,-4.366631,-0.28795126,0.17373064,0.09725893
3.4,5.394472,0.6820078,-4.356047,-0.27180988,0.15545127,0.10631666
3.402,5.390415,0.6817765,-4.3455863,-0.255383,0.13770483,0.115508
3.404,5.386135,0.68164444,-4.3351974,-0.23868395,0.120458476,0.124820724
3.406,5.3817215,0.6816485,-4.3250914,-0.22236541,0.10419618,0.13389395
3.408,5.3771267,0.6817601,-4.3151646,-0.20614737,0.08863509,0.14288804
3.41,5.372496,0.68195677,-4.3055425,-0.19016682,0.073834755,0.1517345
3.412,5.3677483,0.6823218,-4.2962074,-0.17458151,0.05986464,0.1603468
3.414,5.3629565,0.68276334,-4.2872906,-0.15955585,0.046798214,0.16864407
3.416,5.3581243,0.68339443,-4.2786674,-0.14523888,0.034688465,0.17654428
3.418,5.353397,0.6840732,-4.27047,-0.13176109,0.023573197,0.18398234
3.42,5.3486366,0.68488574,-4.2626324,-0.11922504,0.013460502,0.19090521
3.422,5.344001,0.6858821,-4.2551208,-0.10768308,0.004352033,0.19727832
3.424,5.339472,0.6869018,-4.248004,-0.09715054,-0.0037975535,0.20309389
3.426,5.334993,0.6880431,-4.241209,-0.08761937,-0.011057183,0.20835784
3.428,5.3305674,0.6892519,-4.234826,-0.07903319,-0.01748553,0.21309684
