Time_s_,Acc_x_m_s_2_,Acc_y_m_s_2_,Acc_z_m_s_2_,Gyro_x_1_s_,Gyro_y_1_s_,Gyro_z_1_s_
0,-0.809941,-1.4724731,-2.5990765,1.201512,0.58862436,-0.8642039
0.002,-0.8999599,-1.4414998,-2.5462134,1.1973679,0.5485742,-0.8853176
0.004,-0.98994637,-1.4133832,-2.482999,1.1910944,0.49979484,-0.9097478
0.006,-1.0793417,-1.3885463,-2.4089098,1.1823354,0.4414829,-0.93772036
0.008,-1.1672634,-1.3673103,-2.3238997,1.170896,0.3733495,-0.96933585
0.01,-1.2529703,-1.3500326,-2.2288353,1.1568754,0.29587287,-1.0044667
0.012,-1.335196,-1.336995,-2.1241503,1.1407349,0.21046847,-1.0426946
0.014,-1.4130467,-1.328326,-2.0104046,1.1233374,0.11962807,-1.0833024
0.016,-1.485646,-1.3238918,-1.8884838,1.1058972,0.026918113,-1.1252882
0.018,-1.5520544,-1.3236573,-1.7591957,1.0898807,-0.063281834,-1.1674956
0.02,-1.6114775,-1.3275063,-1.6237689,1.0767992,-0.14625818,-1.2087299
0.022,-1.6628795,-1.3355579,-1.4838518,1.067959,-0.21753371,-1.2478864
0.024,-1.7059103,-1.347604,-1.341226,1.0642273,-0.27348596,-1.2840805
0.026,-1.7405388,-1.3629434,-1.1978493,1.0658269,-0.31192434,-1.3167344
0.028,-1.7662417,-1.3809555,-1.0558113,1.0721966,-0.33382583,-1.3464596
0.03,-1.7826684,-1.4008965,-0.917178,1.0821574,-0.33850497,-1.3720567
0.032,-1.7906716,-1.4215658,-0.7835784,1.0940601,-0.32869244,-1.3936869
0.034,-1.7910271,-1.4416943,-0.65682334,1.1060137,-0.3080293,-1.4115791
0.036,-1.78424,-1.4601972,-0.53840077,1.1161723,-0.2804705,-1.4259293
0.038,-1.771115,-1.4757292,-0.43018186,1.1230146,-0.24969965,-1.4368918
0.04,-1.7527587,-1.4874287,-0.33321142,1.1254593,-0.21885026,-1.4445534
0.042,-1.7299955,-1.4939753,-0.24873894,1.1228852,-0.19028723,-1.4489367
0.044,-1.7040899,-1.4944988,-0.1776278,1.1151092,-0.16547382,-1.4500649
0.046,-1.67573,-1.4883332,-0.120639324,1.1023442,-0.14505035,-1.447999
0.048,-1.6460123,-1.4748147,-0.07795179,1.0851061,-0.12908155,-1.4429022
0.05,-1.6159301,-1.4535059,-0.04954636,1.0640655,-0.117257,-1.4350728
0.052,-1.5862558,-1.424228,-0.035271287,1.0399342,-0.1090256,-1.4249034
0.054,-1.5575552,-1.3870292,-0.034869254,1.013406,-0.1038,-1.4128048
0.056,-1.5322077,-1.3402975,-0.04829359,0.9851968,-0.101002336,-1.3991852
0.058,-1.5072167,-1.2878453,-0.07332027,0.95602703,-0.10015249,-1.3844227
0.06,-1.4840845,-1.2301881,-0.10906458,0.9265069,-0.10107356,-1.3688684
0.062,-1.4625673,-1.1681175,-0.15330237,0.8970926,-0.103832364,-1.3529019
0.064,-1.4417579,-1.1029983,-0.20480645,0.86810195,-0.10869658,-1.3369465
0.066,-1.4213748,-1.0357084,-0.26285726,0.83969796,-0.11613774,-1.3214781
0.068,-1.4006512,-0.9674887,-0.32595974,0.8118732,-0.12687522,-1.3069907
0.07,-1.3787543,-0.8995162,-0.39276224,0.7844984,-0.14184171,-1.2938917
0.072,-1.3546835,-0.8335556,-0.46235657,0.75736207,-0.16205353,-1.2824895
0.074,-1.3279939,-0.770998,-0.5330542,0.73021555,-0.18848813,-1.2729468
0.076,-1.2993923,-0.71270096,-0.6033604,0.7027894,-0.22207189,-1.2652106
0.078,-1.2699635,-0.65909666,-0.671219,0.67479914,-0.26353413,-1.2590497
0.08,-1.23988,-0.6108294,-0.73418856,0.6459896,-0.3132426,-1.2541173
0.082,-1.2100055,-0.56851053,-0.7896933,0.61615527,-0.37122542,-1.2500334
0.084,-1.1807821,-0.532752,-0.8353231,0.58517647,-0.437156,-1.246464
0.086,-1.1522725,-0.5039458,-0.8694961,0.5530108,-0.5103195,-1.2431377
0.088,-1.1250253,-0.48191553,-0.89071745,0.5196259,-0.5898799,-1.2397952
0.09,-1.0995961,-0.46578786,-0.89764136,0.48495916,-0.6749601,-1.2361931
0.092,-1.07648,-0.45481828,-0.88951343,0.44910812,-0.76438785,-1.2321354
0.094,-1.0561706,-0.4482998,-0.8657293,0.4122042,-0.8569335,-1.2275225
0.096,-1.0388539,-0.4455839,-0.8264937,0.37434846,-0.9514411,-1.2222961
0.098,-1.0250218,-0.4461223,-0.77189356,0.3356253,-1.0468426,-1.2163444
0.1,-1.0155407,-0.44878268,-0.70254856,0.29609478,-1.1422129,-1.2095405
0.102,-1.0112618,-0.45253927,-0.6192244,0.25574604,-1.236862,-1.2018518
0.104,-1.0130179,-0.45597342,-0.5225011,0.21450785,-1.33026,-1.193286
0.106,-1.02126,-0.45795423,-0.41317573,0.17230348,-1.4218537,-1.1838025
0.108,-1.0364532,-0.45725214,-0.29228285,0.12908544,-1.5111272,-1.1734968
0.11,-1.0590836,-0.45258284,-0.1611984,0.08481381,-1.5977488,-1.1626467
0.112,-1.0886497,-0.4432708,-0.021504164,0.039513007,-1.6813906,-1.1516938
0.114,-1.125103,-0.42840594,0.1246174,-0.0066876113,-1.7615992,-1.1412299
0.116,-1.1696012,-0.40635517,0.27485794,-0.053642184,-1.8380077,-1.1319267
0.118,-1.2231798,-0.37615663,0.42788032,-0.101187825,-1.9103445,-1.1245391
0.12,-1.2847393,-0.33755586,0.5832094,-0.14909092,-1.9783468,-1.1198274
0.122,-1.3539996,-0.2905049,0.7399518,-0.19703987,-2.04174,-1.1184973
0.124,-1.4306827,-0.234994,0.89613795,-0.24470156,-2.1003127,-1.1211358
0.126,-1.5135573,-0.17112064,1.0486495,-0.29176414,-2.1539693,-1.1280534
0.128,-1.6024532,-0.098309875,1.1944958,-0.33796042,-2.2027178,-1.1392857
0.13,-1.7007375,-0.014375687,1.3319683,-0.3830362,-2.246588,-1.1546253
0.132,-1.8091457,0.081546426,1.4600365,-0.42675772,-2.2856855,-1.1736124
0.134,-1.9255564,0.18848372,1.5774276,-0.46890914,-2.320154,-1.1955843
0.136,-2.0489979,0.30526662,1.683787,-0.5093194,-2.3500962,-1.2197605
0.138,-2.1799672,0.43130994,1.7781038,-0.5478334,-2.3755229,-1.2453803
0.14,-2.3188434,0.5665016,1.8587086,-0.584334,-2.3964224,-1.2718184
0.142,-2.464766,0.7106726,1.9239426,-0.61864483,-2.412506,-1.2986484
0.144,-2.616979,0.8636831,1.9726105,-0.65056187,-2.423417,-1.3256416
0.146,-2.773901,1.0247905,2.002656,-0.6800519,-2.4290845,-1.352679
0.148,-2.9338753,1.192991,2.0130339,-0.7070904,-2.4294176,-1.3797474
0.15,-3.0973501,1.3686135,2.0024738,-0.731647,-2.4243667,-1.4070184
0.152,-3.2653608,1.551786,1.9696122,-0.7536939,-2.4140108,-1.434746
0.154,-3.4367244,1.7419869,1.9131237,-0.77318645,-2.3984628,-1.4631023
0.156,-3.6100266,1.9380679,1.8328308,-0.79008687,-2.378006,-1.4921147
0.158,-3.7838845,2.1386542,1.728559,-0.8044919,-2.3534343,-1.5218352
0.16,-3.9569824,2.3425813,1.6002471,-0.81662667,-2.3258295,-1.5524368
0.162,-4.1284523,2.5490828,1.4479239,-0.82673013,-2.2962947,-1.5842673
0.164,-4.2969365,2.7574291,1.2721441,-0.83506835,-2.2661655,-1.6177725
0.166,-4.460024,2.9661157,1.0733856,-0.84195614,-2.236897,-1.6532962
0.168,-4.618592,3.1750813,0.8529038,-0.8476906,-2.2098513,-1.6910084
0.17,-4.769779,3.3824673,0.61159027,-0.85261875,-2.186367,-1.7310821
0.172,-4.911845,3.5864043,0.35019916,-0.85713977,-2.1678402,-1.7737634
0.174,-5.0447464,3.7859454,0.07018775,-0.86166763,-2.1555805,-1.8193746
0.176,-5.1677995,3.9801135,-0.22669268,-0.86661696,-2.15081,-1.868263
0.178,-5.280285,4.1679716,-0.5388397,-0.87238234,-2.1546931,-1.920682
0.18,-5.381738,4.3483615,-0.86404055,-0.8792497,-2.1680663,-1.9767284
0.182,-5.472046,4.5207314,-1.2001122,-0.8873327,-2.1913664,-2.0363922
0.184,-5.5516753,4.685062,-1.5458243,-0.89663625,-2.224847,-2.0995939
0.186,-5.6210003,4.840979,-1.8986596,-0.9070811,-2.2685766,-2.166063
0.188,-5.68012,4.9879856,-2.2557735,-0.9185194,-2.3223157,-2.2352493
0.19,-5.7302294,5.1259193,-2.6147406,-0.93077856,-2.3856065,-2.3064103
0.192,-5.772109,5.2549415,-2.973043,-0.94375736,-2.4580953,-2.3787825
0.194,-5.8072586,5.375528,-3.3281775,-0.95742977,-2.5396345,-2.4517643
0.196,-5.8368726,5.488101,-3.6779034,-0.9718859,-2.6304286,-2.5250363
0.198,-5.862233,5.593112,-4.0194983,-0.9873337,-2.7310164,-2.598624
0.2,-5.8847847,5.691077,-4.350234,-1.0040374,-2.8422263,-2.6728942
0.202,-5.90596,5.7825317,-4.667115,-1.02234,-2.965137,-2.748358
0.204,-5.926148,5.8678465,-4.967708,-1.0426236,-3.100874,-2.825626
0.206,-5.946765,5.947738,-5.248638,-1.0652742,-3.250407,-2.9053583
0.208,-5.9688582,6.022755,-5.50745,-1.0906776,-3.4144,-2.9881535
0.21,-5.992552,6.093069,-5.7418776,-1.1191032,-3.5928366,-3.0743573
0.212,-6.017664,6.158889,-5.9488554,-1.1506456,-3.7848997,-3.1639762
0.214,-6.0446672,6.2203836,-6.1250677,-1.1853542,-3.9893415,-3.2566905
0.216,-6.0733876,6.277485,-6.2680626,-1.2232943,-4.2045727,-3.3518348
0.218,-6.103196,6.3300533,-6.375908,-1.2644701,-4.4284925,-3.4486713
0.22,-6.133152,6.3779674,-6.447177,-1.3088396,-4.658939,-3.5466852
0.222,-6.16281,6.4209185,-6.4806376,-1.3563738,-4.8938894,-3.645512
0.224,-6.1915426,6.4586496,-6.4752173,-1.4069217,-5.131255,-3.7447677
0.226,-6.2175646,6.4902315,-6.430688,-1.4602599,-5.368924,-3.8440132
0.228,-6.239687,6.515377,-6.348049,-1.5162135,-5.6050873,-3.9427886
0.23,-6.258752,6.5340366,-6.22897,-1.5745678,-5.838058,-4.0407023
0.232,-6.274853,6.546131,-6.075122,-1.6350319,-6.066037,-4.137473
0.234,-6.2875915,6.551311,-5.8876486,-1.6973425,-6.287476,-4.2329297
0.236,-6.2973695,6.548999,-5.667423,-1.7612358,-6.5009093,-4.3269067
0.238,-6.3036065,6.5384517,-5.416527,-1.8263186,-6.704562,-4.4192066
0.24,-6.3034225,6.517677,-5.1386905,-1.8920962,-6.896658,-4.509762
0.242,-6.2977304,6.486782,-4.838167,-1.9580046,-7.075633,-4.598672
0.244,-6.289087,6.4468646,-4.5188704,-2.0233939,-7.2399406,-4.686057
0.246,-6.278364,6.398239,-4.185331,-2.0875793,-7.387991,-4.7719803
0.248,-6.2655163,6.3406982,-3.8411393,-2.1499305,-7.518428,-4.8563995
0.25,-6.2505107,6.2733827,-3.4895906,-2.2098544,-7.6301537,-4.939304
0.252,-6.2334757,6.1954474,-3.1343508,-2.2668602,-7.722396,-5.0206585
0.254,-6.2148476,6.106367,-2.7791443,-2.3206081,-7.7948027,-5.1004515
0.256,-6.195521,6.0062795,-2.4269369,-2.3709369,-7.8474298,-5.178731
0.258,-6.17573,5.895185,-2.0810804,-2.4178467,-7.8806734,-5.255501
0.26,-6.1531982,5.772097,-1.7446992,-2.4614892,-7.895301,-5.330715
0.262,-6.1253915,5.636086,-1.4205561,-2.5021133,-7.8923206,-5.404272
0.264,-6.0917645,5.4870415,-1.1113777,-2.5400927,-7.872983,-5.47602
0.266,-6.0527096,5.325037,-0.81997895,-2.5758834,-7.838715,-5.5457554
0.268,-6.007348,5.1500196,-0.54860497,-2.6099508,-7.7910004,-5.613229
0.27,-5.9539,4.9614735,-0.2995143,-2.6427855,-7.731365,-5.678172
0.272,-5.890825,4.758563,-0.07454443,-2.6748507,-7.6614256,-5.7403226
0.274,-5.817402,4.5407405,0.12488699,-2.7065475,-7.582804,-5.799378
0.276,-5.7330074,4.307807,0.29739714,-2.7381864,-7.4971495,-5.855017
0.278,-5.636245,4.059437,0.44157743,-2.770025,-7.4061575,-5.906872
0.28,-5.526354,3.7954738,0.55676246,-2.8022728,-7.311556,-5.9545135
0.282,-5.4029255,3.5157053,0.6425004,-2.8350277,-7.2149906,-5.9974985
0.284,-5.264954,3.2196765,0.69846654,-2.8683732,-7.1180954,-6.0353203
0.286,-5.1123695,2.907036,0.7243618,-2.9023674,-7.022574,-6.0674496
0.288,-4.945446,2.577791,0.7201289,-2.937037,-6.9299884,-6.0932636
0.29,-4.764145,2.231811,0.68594563,-2.9724426,-6.8418202,-6.112084
0.292,-4.568781,1.8688858,0.62222815,-3.008687,-6.7595015,-6.123264
0.294,-4.360074,1.4890103,0.5298779,-3.0459058,-6.6843596,-6.1261945
0.296,-4.139148,1.0925077,0.40972114,-3.0843112,-6.617709,-6.1202774
0.298,-3.907536,0.6801883,0.2626242,-3.1241689,-6.5608206,-6.1049275
0.3,-3.6666188,0.25295675,0.08967227,-3.1658056,-6.5148983,-6.0795736
0.302,-3.4181461,-0.18821251,-0.10791147,-3.2095916,-6.481081,-6.043729
0.304,-3.1636174,-0.64216155,-0.3297841,-3.2559657,-6.460447,-5.996929
0.306,-2.9046502,-1.1073521,-0.57461774,-3.3053482,-6.453961,-5.938803
0.308,-2.6430016,-1.5820827,-0.8406626,-3.358132,-6.4624476,-5.869039
0.31,-2.3798952,-2.0647585,-1.1255246,-3.414627,-6.486565,-5.787399
0.312,-2.1162739,-2.553687,-1.4264278,-3.475068,-6.526813,-5.6936617
0.314,-1.8532195,-3.0472784,-1.7404283,-3.5395954,-6.5834713,-5.587675
0.316,-1.5906014,-3.5443454,-2.065802,-3.6082733,-6.656676,-5.4693394
0.318,-1.3291384,-4.043357,-2.4003515,-3.681073,-6.7464333,-5.3386064
0.32,-1.070571,-4.541853,-2.742128,-3.7579107,-6.852664,-5.195455
0.322,-0.81520545,-5.037682,-3.0904732,-3.8387194,-6.975315,-5.0398974
0.324,-0.5626172,-5.528602,-3.4450226,-3.9234223,-7.114373,-4.871959
0.326,-0.3121593,-6.0124793,-3.8041663,-4.0119605,-7.269848,-4.6916685
0.328,-0.06340003,-6.4869404,-4.165336,-4.1043124,-7.441858,-4.4991307
0.33,0.18397903,-6.949719,-4.5258107,-4.2004385,-7.630566,-4.294553
0.332,0.43081284,-7.3987293,-4.882841,-4.3002396,-7.836073,-4.078214
0.334,0.67811847,-7.831817,-5.233631,-4.403513,-8.058365,-3.8504395
0.336,0.92725706,-8.247169,-5.5757213,-4.509942,-8.2972975,-3.6115527
0.338,1.1794035,-8.643003,-5.9071765,-4.6190515,-8.552506,-3.3619094
0.34,1.4361112,-9.017382,-6.226323,-4.730143,-8.823211,-3.1019099
0.342,1.6989927,-9.368645,-6.531139,-4.8422747,-9.108201,-2.8320065
0.344,1.9692144,-9.69498,-6.8198295,-4.9542685,-9.405899,-2.5527263
0.346,2.247786,-9.994349,-7.0901628,-5.0648046,-9.714474,-2.2646625
0.348,2.5355248,-10.264807,-7.3400865,-5.1724443,-10.0318,-1.9684486
0.35,2.833076,-10.503761,-7.5672436,-5.2755513,-10.3553705,-1.6648324
0.352,3.1408138,-10.708822,-7.7697535,-5.3723183,-10.682393,-1.3546919
0.354,3.4578547,-10.877296,-7.9464984,-5.4607773,-11.009763,-1.0389987
0.356,3.78336,-11.006269,-8.096561,-5.5389633,-11.334171,-0.7187861
0.358,4.11584,-11.092974,-8.219575,-5.6049204,-11.652181,-0.39516512
0.36,4.453555,-11.134472,-8.315308,-5.656808,-11.960382,-0.06924251
0.362,4.7938404,-11.127987,-8.383725,-5.6930714,-12.255619,0.2579527
0.364,5.1338983,-11.070829,-8.424926,-5.712543,-12.535259,0.58552873
0.366,5.470452,-10.959929,-8.439055,-5.714589,-12.797405,0.91281205
0.368,5.799841,-10.792889,-8.427148,-5.6990767,-13.041044,1.2393966
0.37,6.1174917,-10.567621,-8.390459,-5.6664143,-13.266112,1.5651164
0.372,6.4183264,-10.282697,-8.330016,-5.6175117,-13.473452,1.889934
0.374,6.6974916,-9.93679,-8.247328,-5.5536585,-13.664609,2.2138104
0.376,6.9505177,-9.5290165,-8.144583,-5.4764156,-13.841595,2.536559
0.378,7.1723495,-9.059095,-8.023979,-5.38752,-14.0066185,2.8576434
0.38,7.3573694,-8.527284,-7.8869505,-5.2886467,-14.161673,3.1760392
0.382,7.500643,-7.9345984,-7.735267,-5.181341,-14.308314,3.4902663
0.384,7.5975647,-7.2828693,-7.5712204,-5.0669203,-14.447557,3.7985036
0.386,7.6436872,-6.574197,-7.396922,-4.9464464,-14.579842,4.0987444
0.388,7.63436,-5.811384,-7.2144365,-4.82063,-14.7049885,4.3889427
0.39,7.5656796,-4.9975348,-7.026224,-4.6899085,-14.822294,4.667223
0.392,7.4343963,-4.136118,-6.834556,-4.5544777,-14.930802,4.932106
0.394,7.2378407,-3.2310982,-6.641567,-4.414383,-15.029392,5.1825886
0.396,6.973612,-2.2867644,-6.4492817,-4.2695026,-15.116731,5.418095
0.398,6.6400776,-1.3077044,-6.2594647,-4.1196737,-15.191517,5.638398
0.4,6.2360535,-0.29872894,-6.074066,-3.9647439,-15.252522,5.8435526
0.402,5.761126,0.7351949,-5.895095,-3.804633,-15.298562,6.033798
0.404,5.21607,1.7889056,-5.7242746,-3.6394596,-15.32871,6.209425
0.406,4.6025057,2.8569195,-5.5631714,-3.4695764,-15.342316,6.3706684
0.408,3.9226606,3.9335947,-5.413105,-3.2955089,-15.338955,6.5176997
0.41,3.1796439,5.0134597,-5.275286,-3.11798,-15.318379,6.6505632
0.412,2.377446,6.0909615,-5.1509833,-2.9378893,-15.280611,6.7692633
0.414,1.5207783,7.1607203,-5.0404925,-2.756291,-15.2258835,6.8737135
0.416,0.61499405,8.217163,-4.944651,-2.574307,-15.154529,6.963862
0.418,-0.3334902,9.254938,-4.8646326,-2.3930643,-15.066892,7.0397024
0.42,-1.3179818,10.268826,-4.8014746,-2.2136765,-14.963304,7.10133
0.422,-2.331831,11.254271,-4.7559423,-2.037248,-14.844073,7.1489253
0.424,-3.367765,12.207031,-4.727844,-1.8647988,-14.70938,7.182763
0.426,-4.417854,13.122991,-4.7160645,-1.6972404,-14.55938,7.2031937
0.428,-5.4731574,13.998083,-4.719001,-1.5354235,-14.39421,7.210581
0.43,-6.5244665,14.827908,-4.7349577,-1.3800608,-14.214012,7.205327
0.432,-7.564005,15.608818,-4.761957,-1.23174,-14.01898,7.1878633
0.434,-8.584064,16.337517,-4.797955,-1.0909767,-13.809448,7.1586394
0.436,-9.577926,17.011673,-4.841145,-0.9581828,-13.5858755,7.118101
0.438,-10.539229,17.629545,-4.8902245,-0.8336499,-13.348762,7.0666094
0.44,-11.461899,18.190006,-4.943717,-0.71755373,-13.098684,7.004492
0.442,-12.340798,18.692867,-4.999795,-0.6099902,-12.8362875,6.9320526
0.444,-13.171963,19.138496,-5.05628,-0.5109406,-12.5622015,6.849608
0.446,-13.9525,19.527939,-5.1108913,-0.4202839,-12.277003,6.757491
0.448,-14.680581,19.86295,-5.1608953,-0.33781558,-11.981241,6.656069
0.45,-15.3555155,20.145882,-5.2035193,-0.2633052,-11.675467,6.545763
0.452,-15.977503,20.379528,-5.237182,-0.19647467,-11.36005,6.427046
0.454,-16.547398,20.5669,-5.260312,-0.13701457,-11.03529,6.3003387
0.456,-17.066914,20.711115,-5.2722416,-0.08469421,-10.701604,6.1659904
0.458,-17.538479,20.815647,-5.272637,-0.039360404,-10.359474,6.0243344
0.46,-17.965225,20.884096,-5.2617664,-0.00094896555,-10.009495,5.875741
0.462,-18.35069,20.920694,-5.2397175,0.030508637,-9.652325,5.7206035
0.464,-18.698372,20.929575,-5.2068796,0.054919243,-9.288739,5.559299
0.466,-19.012108,20.914734,-5.1641927,0.07209027,-8.919616,5.3921866
0.468,-19.295694,20.88022,-5.113173,0.08176482,-8.545847,5.2195516
0.47,-19.553463,20.830019,-5.055696,0.08363807,-8.168366,5.0415983
0.472,-19.788961,20.768158,-4.9941115,0.07739967,-7.788106,4.858412
0.474,-20.005444,20.698435,-4.931359,0.06275475,-7.405954,4.669961
0.476,-20.206053,20.624197,-4.870867,0.03948468,-7.0227017,4.476191
0.478,-20.392908,20.548996,-4.8157043,0.007489443,-6.63906,4.2770357
0.48,-20.567102,20.476032,-4.7692084,-0.03319007,-6.255547,4.0724435
0.482,-20.729795,20.40871,-4.7350316,-0.08232343,-5.872534,3.862378
0.484,-20.881744,20.349834,-4.7168703,-0.13949823,-5.4901934,3.6468227
0.486,-21.022339,20.301865,-4.717561,-0.20408785,-5.1085443,3.425797
0.488,-21.150522,20.266752,-4.7396774,-0.2753008,-4.7274804,3.1994112
0.49,-21.264542,20.246597,-4.785674,-0.35219866,-4.346754,2.9678392
0.492,-21.36191,20.243328,-4.8576746,-0.4337273,-3.9660056,2.7312655
0.494,-21.439245,20.258335,-4.957882,-0.5187905,-3.584897,2.489866
0.496,-21.492687,20.292479,-5.08799,-0.6062796,-3.203098,2.2437785
0.498,-21.518276,20.347057,-5.2491894,-0.6951046,-2.8203235,1.9931113
0.5,-21.511934,20.42311,-5.441882,-0.7842337,-2.4363956,1.7379255
0.502,-21.469238,20.521263,-5.6665936,-0.8726679,-2.0511837,1.478214
0.504,-21.385433,20.641617,-5.923517,-0.95943534,-1.664587,1.2139219
0.506,-21.254868,20.783947,-6.212756,-1.0435851,-1.2765604,0.9449541
0.508,-21.072384,20.947748,-6.533849,-1.1241707,-0.88705605,0.67118466
0.51,-20.833012,21.132412,-6.8857346,-1.2002392,-0.49605936,0.39249468
0.512,-20.531687,21.336977,-7.2669706,-1.2708025,-0.10354322,0.10874236
0.514,-20.163294,21.559965,-7.675762,-1.3348753,0.29043165,-0.18025446
0.516,-19.723682,21.80017,-8.109798,-1.3915331,0.68560195,-0.4746795
0.518,-19.208294,22.056225,-8.566329,-1.4399045,1.0815314,-0.7747124
0.52,-18.613796,22.326473,-9.043825,-1.4792192,1.47753,-1.0805607
0.522,-17.93626,22.608204,-9.539469,-1.5088534,1.872547,-1.3924699
0.524,-17.172657,22.898397,-10.050589,-1.5282899,2.2652733,-1.710646
0.526,-16.321527,23.195166,-10.574591,-1.5371236,2.654062,-2.0351732
0.528,-15.382009,23.496286,-11.1089325,-1.5350556,3.0368946,-2.3660789
0.53,-14.353323,23.798843,-11.6513605,-1.521909,3.4115171,-2.7033842
0.532,-13.235439,24.099937,-12.199108,-1.4976032,3.7755232,-3.0470753
0.534,-12.030124,24.397047,-12.749475,-1.462081,4.126459,-3.3970513
0.536,-10.739999,24.687588,-13.299929,-1.4153072,4.4618416,-3.75305
0.538,-9.368706,24.969372,-13.84799,-1.3572276,4.779273,-4.1146455
0.54,-7.9205565,25.240211,-14.39104,-1.2877924,5.0765476,-4.481269
0.542,-6.400936,25.498215,-14.926632,-1.206928,5.3517213,-4.852232
0.544,-4.8160024,25.741486,-15.452258,-1.1145537,5.60308,-5.226677
0.546,-3.172544,25.968098,-15.9657955,-1.0106052,5.829092,-5.6035795
0.548,-1.477714,26.176025,-16.46524,-0.89511096,6.0284724,-5.9818764
0.55,0.2592039,26.363888,-16.949883,-0.7681788,6.2000694,-6.360564
0.552,2.026817,26.532078,-17.418991,-0.630097,6.3428087,-6.7385283
0.554,3.8169143,26.679409,-17.86879,-0.48133847,6.455675,-7.1145196
0.556,5.622778,26.804693,-18.297915,-0.3225265,6.5377417,-7.48722
0.558,7.4337335,26.908487,-18.703835,-0.15443885,6.58832,-7.855393
0.56,9.240535,26.991394,-19.085941,0.02202034,6.60699,-8.2178
0.562,11.035084,27.053864,-19.443047,0.20586032,6.5935893,-8.57322
0.564,12.80816,27.097198,-19.772787,0.39608294,6.548353,-8.920558
0.566,14.551387,27.123074,-20.072271,0.59168255,6.4719014,-9.258831
0.568,16.258394,27.132471,-20.34,0.791726,6.365269,-9.5872135
0.57,17.923008,27.126974,-20.574816,0.995325,6.2298665,-9.905096
0.572,19.539026,27.108883,-20.774687,1.201612,6.067297,-10.21206
0.574,21.102467,27.080349,-20.937271,1.4097219,5.879277,-10.507833
0.576,22.610147,27.043713,-21.060497,1.618768,5.66763,-10.792213
0.578,24.060099,27.001667,-21.14212,1.8277583,5.434029,-11.065165
0.58,25.45173,26.957024,-21.180067,2.0356452,5.1802955,-11.326834
0.582,26.785265,26.9124,-21.172672,2.2414277,4.908389,-11.577335
0.584,28.062248,26.870598,-21.118008,2.443858,4.6196737,-11.816616
0.586,29.285204,26.834494,-21.014347,2.641731,4.3155575,-12.044624
0.588,30.45793,26.806564,-20.860184,2.8338494,3.9975827,-12.261293
0.59,31.584385,26.78922,-20.654243,3.019117,3.667512,-12.466596
0.592,32.66964,26.784542,-20.39489,3.1964772,3.3269248,-12.660329
0.594,33.719658,26.793882,-20.08085,3.3648548,2.9771366,-12.842195
0.596,34.740456,26.81823,-19.712057,3.5232558,2.6195498,-13.011782
0.598,35.73769,26.858644,-19.288857,3.6707795,2.255672,-13.1686
0.6,36.71747,26.915108,-18.811579,3.8065877,1.8868413,-13.312128
0.602,37.685863,26.98691,-18.280844,3.9299943,1.5142798,-13.441933
0.604,38.648506,27.073116,-17.697205,4.0404468,1.1391506,-13.557798
0.606,39.610447,27.172415,-17.061724,4.1376057,0.7625966,-13.659992
0.608,40.577225,27.282005,-16.375965,4.2213807,0.3857684,-13.749325
0.61,41.553936,27.398554,-15.641697,4.291917,0.009774208,-13.827196
0.612,42.544525,27.518654,-14.860641,4.3495855,-0.3643527,-13.895456
0.614,43.551834,27.639034,-14.034533,4.3949614,-0.7355256,-13.956381
0.616,44.57804,27.755754,-13.164939,4.428683,-1.1025591,-14.01248
0.618,45.62494,27.864738,-12.25413,4.4513707,-1.4642816,-14.066294
0.62,46.69346,27.9618,-11.304598,4.463526,-1.8195176,-14.120124
0.622,47.78327,28.042803,-10.318753,4.465485,-2.167025,-14.175784
0.624,48.893475,28.10347,-9.299396,4.4573865,-2.5054908,-14.2344885
0.626,50.023746,28.138931,-8.249315,4.439223,-2.833518,-14.296786
0.628,51.17208,28.144903,-7.171405,4.410887,-3.1495962,-14.362609
0.63,52.33601,28.118092,-6.067756,4.372237,-3.4520864,-14.431482
0.632,53.512157,28.056347,-4.9420104,4.3232102,-3.7391996,-14.502668
0.634,54.697395,27.957302,-3.7974904,4.263899,-4.0091686,-14.575281
0.636,55.889355,27.818022,-2.637803,4.194541,-4.2601914,-14.648589
0.638,57.085274,27.636133,-1.4670262,4.115819,-4.489974,-14.722145
0.64,58.281567,27.410517,-0.2890439,4.0284834,-4.6965876,-14.7956085
0.642,59.474728,27.140297,0.8919196,3.933433,-4.878458,-14.868904
0.644,60.66149,26.824978,2.0710425,3.8315768,-5.03434,-14.942053
0.646,61.83885,26.464512,3.243751,3.7238975,-5.163133,-15.015193
0.648,63.003983,26.05887,4.405055,3.6113207,-5.264135,-15.088261
0.65,64.15424,25.608541,5.549638,3.4945526,-5.337467,-15.160947
0.652,65.287384,25.114302,6.6719193,3.374057,-5.383866,-15.232578
0.654,66.40149,24.577572,7.7660017,3.2500596,-5.4043665,-15.302103
0.656,67.4948,23.999865,8.826297,3.1226096,-5.4003644,-15.367999
0.658,68.565765,23.383156,9.847658,2.9915962,-5.3734746,-15.428444
0.66,69.61428,22.729286,10.826085,2.8568902,-5.3253493,-15.481585
0.662,70.64135,22.039051,11.757215,2.7183132,-5.2575693,-15.525516
0.664,71.64528,21.315228,12.634368,2.5757241,-5.1716022,-15.558467
0.666,72.6235,20.56089,13.454237,2.42909,-5.068644,-15.578906
0.668,73.57831,19.777565,14.212703,2.2784715,-4.9497375,-15.585641
0.67,74.51042,18.967464,14.907934,2.1240134,-4.815825,-15.577806
0.672,75.42036,18.133232,15.537947,1.9659042,-4.667762,-15.554797
0.674,76.31027,17.277199,16.100273,1.804338,-4.506406,-15.516281
0.676,77.18189,16.401852,16.593054,1.6394997,-4.332679,-15.4621105
0.678,78.03579,15.510737,17.016619,1.47153,-4.1475644,-15.392252
0.68,78.873314,14.606738,17.371738,1.3005085,-3.9521306,-15.30668
0.682,79.69616,13.692199,17.659008,1.1264677,-3.747473,-15.205348
0.684,80.50516,12.769694,17.879763,0.94941616,-3.5346794,-15.088181
0.686,81.301186,11.841604,18.036142,0.7693496,-3.314744,-14.955122
0.688,82.0845,10.90991,18.130762,0.58627224,-3.088487,-14.806135
0.69,82.8554,9.976558,18.166798,0.40023613,-2.8565507,-14.641279
0.692,83.61348,9.0436535,18.14763,0.21131039,-2.6193445,-14.460676
0.694,84.35814,8.112879,18.077143,0.019603252,-2.377054,-14.264616
0.696,85.08864,7.1851864,17.959448,-0.17475176,-2.1297224,-14.0535145
0.698,85.803566,6.2618656,17.798798,-0.37163687,-1.877284,-13.827899
0.7,86.5016,5.3439636,17.599888,-0.5709801,-1.6196551,-13.588509
0.702,87.180786,4.432192,17.366741,-0.7727647,-1.3568128,-13.3362665
0.704,87.83897,3.5275698,17.103657,-0.97702265,-1.0888361,-13.072229
0.706,88.47307,2.631239,16.814964,-1.1838436,-0.81585526,-12.797563
0.708,89.08072,1.7437372,16.504719,-1.3933415,-0.5380621,-12.513588
0.71,89.65861,0.8659115,16.17648,-1.6056738,-0.25562578,-12.221687
0.712,90.20406,-0.0014228821,15.833557,-1.8209963,0.03133607,-11.923265
0.714,90.714386,-0.8574338,15.478916,-2.0394788,0.32286274,-11.619581
0.716,91.18748,-1.7016907,15.114994,-2.2611947,0.6192895,-11.311821
0.718,91.62104,-2.5330968,14.74424,-2.4861705,0.9212638,-11.001082
0.72,92.012665,-3.3502846,14.368069,-2.714468,1.2295619,-10.688423
0.722,92.360916,-4.1520185,13.987736,-2.9461954,1.5451207,-10.374874
0.724,92.664536,-4.9366155,13.603939,-3.1815686,1.8689468,-10.061437
0.726,92.9228,-5.701967,13.216675,-3.4209137,2.2020032,-9.749079
0.728,93.13621,-6.4460316,12.825874,-3.664741,2.5451255,-9.438642
0.73,93.306076,-7.1669636,12.431175,-3.9137516,2.898948,-9.130951
0.732,93.43521,-7.8626986,12.031776,-4.168839,3.2638392,-8.826867
0.734,93.52632,-8.530488,11.626484,-4.431034,3.6399746,-8.527171
0.736,93.582825,-9.16725,11.213707,-4.701438,4.027408,-8.232545
0.738,93.60933,-9.770133,10.791111,-4.9811406,4.4261284,-7.943585
0.74,93.61214,-10.336523,10.356541,-5.2711453,4.836134,-7.660801
0.742,93.59808,-10.863667,9.907646,-5.57232,5.2574606,-7.384606
0.744,93.57364,-11.347997,9.442112,-5.8853583,5.690175,-7.1153326
0.746,93.5466,-11.78643,8.957745,-6.210733,6.1344357,-6.8532815
0.748,93.52521,-12.175728,8.452591,-6.5487266,6.5903845,-6.5986466
0.75,93.51842,-12.5129795,7.9248962,-6.899494,7.057993,-6.3516145
0.752,93.536255,-12.795731,7.3728714,-7.2631283,7.5369134,-6.1123695
0.754,93.58925,-13.021652,6.795288,-7.6397514,8.026342,-5.88112
0.756,93.68773,-13.187561,6.1905823,-8.02957,8.524875,-5.658081
0.758,93.8427,-13.290472,5.557947,-8.432906,9.030383,-5.443381
0.76,94.06447,-13.3266945,4.896763,-8.850176,9.53999,-5.2370415
0.762,94.36347,-13.291969,4.2066936,-9.281918,10.050139,-5.0388045
0.764,94.75048,-13.179874,3.487627,-9.728721,10.556673,-4.8481455
0.766,95.22781,-12.978186,2.7406464,-10.191236,11.054996,-4.6642046
0.768,95.80345,-12.682896,1.9703808,-10.670104,11.540207,-4.4857745
0.77,96.4976,-12.294947,1.1817818,-11.165996,12.007203,-4.3112116
0.772,97.32184,-11.807423,0.37348938,-11.679689,12.450844,-4.138388
0.774,98.27751,-11.2008705,-0.4507885,-12.212003,12.866039,-3.9645836
0.776,99.357666,-10.4412155,-1.2992506,-12.763887,13.247879,-3.7864718
0.778,100.55969,-9.504032,-2.1645298,-13.336384,13.591647,-3.6000512
0.78,101.90773,-8.39838,-3.0503883,-13.9307,13.892956,-3.4006639
0.782,103.41619,-7.117367,-3.9573097,-14.54801,14.147893,-3.182939
0.784,105.082634,-5.630047,-4.8834724,-15.189444,14.353192,-2.9407136
0.786,106.902145,-3.9022293,-5.817971,-15.855954,14.506265,-2.6671762
0.788,108.88252,-1.9206657,-6.767577,-16.548162,14.605222,-2.3550441
0.79,111.04029,0.31811523,-7.7232795,-17.26635,14.649057,-1.996672
0.792,113.378,2.829399,-8.674069,-18.01027,14.637825,-1.5842481
0.794,115.91067,5.626793,-9.592005,-18.779404,14.572075,-1.1101073
0.796,118.640205,8.785656,-10.4420395,-19.572895,14.452389,-0.56769156
0.798,121.58263,12.303024,-11.201639,-20.38879,14.281075,0.0484128
0.8,124.73797,16.17847,-11.890369,-21.224358,14.06106,0.7435434
0.802,128.06447,20.518133,-12.618576,-22.076557,13.794577,1.5223765
0.804,131.57657,25.359356,-13.416016,-22.942364,13.482617,2.387786
0.806,135.26225,30.662725,-14.179966,-23.816689,13.126673,3.339734
0.808,139.23248,36.384388,-14.920876,-24.69293,12.726917,4.375247
0.81,143.47786,42.4538,-15.683273,-25.56366,12.283155,5.489938
0.812,147.97153,48.931053,-16.415417,-26.42103,11.79311,6.678438
0.814,152.72858,55.809357,-16.965004,-27.256647,11.250566,7.932335
0.816,157.74791,63.0196,-17.303177,-28.06115,10.646587,9.2389145
0.818,163.03725,70.51412,-17.4404,-28.823456,9.969593,10.582216
0.82,168.61002,78.26271,-17.33863,-29.532661,9.201634,11.944927
0.822,174.47452,86.21692,-17.03199,-30.181103,8.318258,13.311652
0.824,180.64455,94.34904,-16.561172,-30.764378,7.2920246,14.671836
0.826,187.10898,102.55133,-15.837059,-31.28148,6.0900497,16.016134
0.828,193.74715,110.772766,-14.821243,-31.734196,4.670058,17.336472
0.83,200.51122,118.90881,-13.48196,-32.115227,2.9920037,18.639427
0.832,207.42532,126.812096,-11.807983,-32.40599,1.0288534,19.924505
0.834,214.45322,134.3671,-9.769947,-32.601192,-1.2619638,21.200142
0.836,221.4964,141.50084,-7.323723,-32.7089,-3.910811,22.480265
0.838,228.46448,148.09071,-4.4323387,-32.737167,-6.9142966,23.793617
0.84,235.30972,153.97174,-1.0478096,-32.67733,-10.248093,25.173103
0.842,241.9773,159.0739,2.8509998,-32.521202,-13.875823,26.64177
0.844,248.34166,163.37582,7.2751837,-32.270096,-17.75062,28.205206
0.846,254.2903,166.81917,12.254793,-31.919321,-21.795979,29.849955
0.848,259.71426,169.32057,17.808416,-31.455654,-25.892887,31.528502
0.85,264.49045,170.81485,23.940575,-30.892286,-29.917767,33.19813
0.852,268.49283,171.25215,30.64665,-30.27376,-33.745834,34.781986
0.854,271.60455,170.59926,37.90652,-29.645649,-37.264816,36.171906
0.856,273.72797,168.83932,45.686863,-29.050062,-40.37654,37.24585
0.858,274.76447,165.98663,53.940548,-28.523022,-42.99964,37.875107
0.86,274.63498,162.07457,62.603348,-28.081718,-45.07763,37.934395
0.862,273.2824,157.15433,71.58498,-27.71051,-46.583168,37.309082
0.864,270.66983,151.29745,80.77438,-27.355272,-47.521305,35.902702
0.866,266.78827,144.58975,90.04259,-26.928923,-47.914516,33.64789
0.868,261.65762,137.13324,99.247086,-26.325146,-47.79044,30.534836
0.87,255.32097,129.04356,108.239624,-25.43676,-47.179085,26.62607
0.872,247.84796,120.446815,116.86322,-24.172104,-46.111362,22.031166
0.874,239.33836,111.47687,124.953636,-22.46703,-44.61596,16.898365
0.876,229.92322,102.27193,132.35063,-20.296227,-42.715202,11.422063
0.878,219.74417,92.987274,138.90239,-17.680687,-40.430233,5.8341637
0.88,208.95358,83.77789,144.46922,-14.684162,-37.780952,0.39491844
0.882,197.72859,74.78061,148.93869,-11.403096,-34.784397,-4.626716
0.884,186.26477,66.10942,152.22389,-7.961225,-31.468943,-8.981492
0.886,174.76443,57.8591,154.2726,-4.4899797,-27.880564,-12.440314
0.888,163.41226,50.132706,155.0416,-1.0956278,-24.057995,-14.837894
0.89,152.35814,43.048103,154.52657,2.1348038,-20.063078,-16.087175
0.892,141.75558,36.679733,152.75018,5.1206827,-15.9854355,-16.195282
0.894,131.75586,31.059158,149.76338,7.784562,-11.916712,-15.251892
0.896,122.48947,26.200188,145.6393,10.076188,-7.943018,-13.414693
0.898,114.04729,22.116165,140.49765,11.973125,-4.1480536,-10.89623
0.9,106.48897,18.800884,134.45734,13.462391,-0.62534666,-7.9467254
0.902,99.86421,16.210835,127.647125,14.545435,2.5288677,-4.8193846
0.904,94.18301,14.284832,120.192566,15.266203,5.2556915,-1.771643
0.906,89.44539,12.900097,112.22538,15.694892,7.522021,1.0022582
0.908,85.61398,12.008255,103.89393,15.896757,9.323632,3.3691208
0.91,82.64685,11.539684,95.37421,15.939829,10.676035,5.2474713
0.912,80.515015,11.333179,86.88246,15.89756,11.610049,6.608919
0.914,79.11435,11.319675,78.508194,15.837277,12.173149,7.469931
0.916,78.36224,11.494823,70.22087,15.812345,12.428132,7.881767
0.918,78.07068,11.83709,62.11366,15.858738,12.44644,7.9178677
0.92,78.19513,12.330124,54.282024,15.995644,12.292643,7.6617866
0.922,78.68657,12.8437195,46.721046,16.225662,12.019494,7.18911
0.924,79.45187,13.346687,39.361786,16.535055,11.670792,6.5689316
0.926,80.41852,13.869377,32.27775,16.89238,11.283389,5.88755
0.928,81.51221,14.412914,25.557526,17.25135,10.885582,5.2379456
0.93,82.66185,14.968773,19.224976,17.559088,10.491146,4.6992993
0.932,83.81167,15.554718,13.356966,17.763607,10.10153,4.33735
0.934,84.909645,16.176365,8.004499,17.817608,9.707416,4.2036724
0.936,85.93339,16.911793,3.0945063,17.682156,9.288332,4.333893
0.938,86.94187,17.771378,-1.3715878,17.331337,8.817726,4.744664
0.94,87.8936,18.810318,-5.381014,16.75394,8.268005,5.4320407
0.942,88.690315,20.097252,-8.904542,15.952579,7.6116323,6.3739285
0.944,89.31093,21.642874,-11.9360285,14.944218,6.8236175,7.5318346
0.946,89.781204,23.413017,-14.480695,13.759291,5.886073,8.850646
0.948,90.09581,25.419264,-16.535086,12.437052,4.791106,10.260845
0.95,90.20598,27.689804,-18.106459,11.021446,3.5418026,11.6833935
0.952,90.08023,30.150928,-19.181814,9.557659,2.152144,13.036378
0.954,89.75043,32.709564,-19.754425,8.089921,0.64642906,14.24346
0.956,89.21864,35.334545,-19.849533,6.6589956,-0.9427746,15.2405405
0.958,88.47962,38.02336,-19.49065,5.2993765,-2.5771704,15.9798
0.96,87.538895,40.75572,-18.703033,4.039131,-4.215575,16.434603
0.962,86.40294,43.503983,-17.52063,2.9001875,-5.817309,16.60277
0.964,85.073074,46.23564,-15.981707,1.8979497,-7.3448973,16.504318
0.966,83.542786,48.91842,-14.1313095,1.0413074,-8.765845,16.17587
0.968,81.821945,51.51076,-12.020723,0.3332448,-10.054326,15.665078
0.97,79.91819,53.97783,-9.702194,-0.2285366,-11.191874,15.025143
0.972,77.83958,56.29293,-7.2219505,-0.6506977,-12.166861,14.309378
0.974,75.59994,58.43373,-4.6253586,-0.9432268,-12.9741955,13.566074
0.976,73.21356,60.38644,-1.9578629,-1.1181502,-13.614627,12.834476
0.978,70.69598,62.142235,0.73404694,-1.1879778,-14.094086,12.142927
0.98,68.06982,63.696205,3.4025497,-1.1643858,-14.422635,11.508591
0.982,65.35973,65.04731,6.006958,-1.0577908,-14.613066,10.938215
0.984,62.585587,66.19743,8.515774,-0.8780141,-14.679857,10.42948
0.986,59.7682,67.14877,10.899485,-0.6347513,-14.637684,9.973117
0.988,56.930546,67.90163,13.132734,-0.33725643,-14.500682,9.55578
0.99,54.092144,68.46129,15.198494,0.005738735,-14.282248,9.162916
0.992,51.27165,68.83777,17.082903,0.38575983,-13.9949045,8.781078
0.994,48.484398,69.045166,18.77069,0.7946105,-13.6503105,8.399741
0.996,45.744267,69.09572,20.25584,1.223979,-13.259058,8.012362
0.998,43.06833,68.9945,21.540236,1.66522,-12.830662,7.6167145
1,40.47393,68.74391,22.630589,2.1096795,-12.373701,7.214525
1.002,37.9738,68.34816,23.532898,2.5492089,-11.896088,6.8107004
1.004,35.578484,67.81416,24.25279,2.976338,-11.405331,6.4123917
1.006,33.29301,67.151306,24.795908,3.3847141,-10.908315,6.0279055
1.008,31.122236,66.37145,25.165125,3.7690237,-10.411764,5.66511
1.01,29.070223,65.48886,25.369843,4.1250095,-9.921816,5.3301897
1.012,27.140247,64.51871,25.425386,4.4497705,-9.443709,5.0272765
1.014,25.334276,63.47687,25.3481,4.7418904,-8.981929,4.7580743
1.016,23.652674,62.37773,25.15414,5.0014253,-8.540147,4.521897
1.018,22.095867,61.23459,24.859034,5.229706,-8.121158,4.316092
1.02,20.663048,60.058796,24.47753,5.429019,-7.72687,4.1366744
1.022,19.350443,58.860355,24.025005,5.6022573,-7.3584065,3.9788158
1.024,18.152615,57.648853,23.517265,5.7526064,-7.016129,3.8374562
1.026,17.062435,56.43195,22.969053,5.8832293,-6.69978,3.70786
1.028,16.074663,55.213425,22.393742,5.99697,-6.408596,3.5860543
1.03,15.179457,53.997887,21.803272,6.096198,-6.141443,3.4690778
1.032,14.3713455,52.788307,21.202637,6.1826777,-5.896938,3.3550348
1.034,13.642229,51.587833,20.598028,6.257552,-5.673545,3.2429981
1.036,12.98525,50.398224,19.997417,6.3213716,-5.469624,3.132872
1.038,12.392635,49.222115,19.406872,6.3742104,-5.2835317,3.0252225
1.04,11.857392,48.06164,18.83118,6.4158773,-5.113498,2.92104
1.042,11.373183,46.919014,18.274307,6.445989,-4.9579315,2.8214908
1.044,10.934365,45.79611,17.73893,6.464117,-4.815274,2.7276974
1.046,10.535732,44.695072,17.227043,6.4699597,-4.684055,2.6406045
1.048,10.17311,43.61818,16.73991,6.463396,-4.5629587,2.560814
1.05,9.842128,42.567783,16.277967,6.4445424,-4.450803,2.4885583
1.052,9.539175,41.54588,15.841404,6.4137883,-4.3465424,2.4236581
1.054,9.260764,40.554443,15.430111,6.3717937,-4.2492633,2.365543
1.056,9.003876,39.59503,15.043398,6.31947,-4.1581564,2.3132792
1.058,8.765903,38.66873,14.680312,6.257866,-4.0725193,2.2656398
1.06,8.544211,37.776264,14.339618,6.188164,-3.9917698,2.2212276
1.062,8.336341,36.917866,14.0199175,6.111559,-3.915447,2.1785798
1.064,8.140244,36.093147,13.719557,6.029179,-3.8432093,2.1362638
1.066,7.9540734,35.30149,13.436893,5.94204,-3.7749028,2.0929346
1.068,7.776122,34.54229,13.169895,5.8509784,-3.7105572,2.0474377
1.07,7.605252,33.81438,12.916937,5.756646,-3.6504087,1.9988908
1.072,7.4407926,33.116806,12.676346,5.65949,-3.594878,1.9466865
1.074,7.281566,32.44878,12.446291,5.559765,-3.54453,1.8904915
1.076,7.1271176,31.80943,12.225395,5.457555,-3.5000587,1.8302913
1.078,6.977029,31.197948,12.012595,5.352809,-3.4622264,1.7663568
1.08,6.831174,30.613647,11.807102,5.2454224,-3.431805,1.6992648
1.082,6.6892695,30.05566,11.608307,5.1352572,-3.4094958,1.6298107
1.084,6.55181,29.523075,11.415842,5.022196,-3.3959022,1.558931
1.086,6.418518,29.014877,11.230055,4.906171,-3.3914812,1.4876513
1.088,6.2896385,28.52979,11.051426,4.787172,-3.3965168,1.416981
1.09,6.1660676,28.065994,10.880389,4.66528,-3.4110835,1.3478377
1.092,6.0476203,27.62207,10.717594,4.540694,-3.4350438,1.2809349
1.094,5.9352727,27.195919,10.564056,4.41367,-3.4681556,1.2167065
1.096,5.829873,26.78534,10.420666,4.2846146,-3.5098739,1.1553047
1.098,5.7316003,26.388586,10.2889,4.1540174,-3.5595646,1.0965713
1.1,5.640977,26.003483,10.170071,4.022419,-3.61653,1.0400506
1.102,5.5587387,25.627483,10.065185,3.890425,-3.6799788,0.98501325
1.104,5.4853535,25.257923,9.975666,3.7586727,-3.749145,0.9305694
1.106,5.4212427,24.892155,9.902857,3.6277993,-3.8232927,0.87577164
1.108,5.3669624,24.527737,9.848091,3.498428,-3.901731,0.81966865
1.11,5.3222513,24.162449,9.812603,3.3711157,-3.9838624,0.7614269
1.112,5.2873983,23.793736,9.79742,3.2463794,-4.0691557,0.7004019
1.114,5.2623262,23.419304,9.803219,3.1246495,-4.1571684,0.6362126
1.116,5.246622,23.037292,9.830545,3.0063257,-4.2474885,0.5687032
1.118,5.240057,22.645798,9.880276,2.8917072,-4.339693,0.4979179
1.12,5.242326,22.243172,9.952538,2.7810056,-4.4333506,0.4241147
1.122,5.2515073,21.828789,10.047808,2.6744008,-4.528035,0.3477466
1.124,5.2672834,21.401413,10.16577,2.5720303,-4.623278,0.2693727
1.126,5.288637,20.960337,10.306362,2.4740124,-4.718577,0.18962193
1.128,5.314217,20.505293,10.468828,2.3804548,-4.813368,0.10907602
1.13,5.342413,20.036375,10.652592,2.2914386,-4.9069037,0.028153896
1.132,5.3717747,19.55385,10.856715,2.2069945,-4.9984155,-0.05280447
1.134,5.4008174,19.058369,11.079836,2.1271405,-5.087115,-0.13352895
1.136,5.4277215,18.550997,11.32062,2.0518909,-5.1721687,-0.21381044
1.138,5.4507017,18.03302,11.57725,1.9812684,-5.2527018,-0.29348493
1.14,5.468401,17.50549,11.847791,1.9153173,-5.327777,-0.3724792
1.142,5.479386,16.969795,12.129925,1.8540777,-5.3963547,-0.4507897
1.144,5.48213,16.427376,12.421276,1.7975545,-5.4574456,-0.5283365
1.146,5.47516,15.879845,12.719328,1.7457225,-5.510128,-0.604969
1.148,5.4573407,15.328641,13.021469,1.6985571,-5.5534763,-0.6804781
1.15,5.427559,14.775491,13.324873,1.6560133,-5.586604,-0.7546034
1.152,5.384958,14.22175,13.626804,1.6180232,-5.6086397,-0.82712364
1.154,5.3291073,13.668958,13.924595,1.5844463,-5.6187115,-0.89788127
1.156,5.2594604,13.118494,14.215378,1.5550697,-5.616023,-0.966717
1.158,5.175912,12.571495,14.496468,1.5296152,-5.5998716,-1.0334835
1.16,5.078639,12.029287,14.765397,1.507746,-5.5696406,-1.09811
1.162,4.9679556,11.492908,15.01972,1.4890827,-5.5248365,-1.1605377
1.164,4.844499,10.963158,15.257254,1.4732063,-5.465145,-1.2207382
1.166,4.709125,10.440978,15.476125,1.459646,-5.3904457,-1.2787037
1.168,4.5629973,9.927128,15.674586,1.4479063,-5.3007812,-1.3345418
1.17,4.40732,9.422207,15.851153,1.4374008,-5.1964955,-1.388294
1.172,4.2434607,8.926728,16.004723,1.4275331,-5.078246,-1.4399396
1.174,4.073108,8.441231,16.134365,1.417702,-4.94687,-1.4894261
1.176,3.8980045,7.96596,16.239574,1.4072713,-4.8033543,-1.5367085
1.178,3.719897,7.5013747,16.320099,1.3956046,-4.6488714,-1.5816846
1.18,3.5407035,7.047847,16.375996,1.3820755,-4.4846807,-1.624212
1.182,3.3621507,6.605629,16.407745,1.3660922,-4.3121185,-1.6640669
1.184,3.1862197,6.1750417,16.416027,1.3471411,-4.1325803,-1.7009684
1.186,3.014752,5.756416,16.401802,1.3248065,-3.947354,-1.7347077
1.188,2.849434,5.3499417,16.366364,1.2987475,-3.7576227,-1.7651238
1.19,2.691792,4.95598,16.311127,1.26871,-3.5645247,-1.7921033
1.192,2.5434587,4.5750117,16.237598,1.2345169,-3.3691466,-1.8155462
1.194,2.405653,4.207331,16.147491,1.1960896,-3.1725044,-1.8353236
1.196,2.2799225,3.8531098,16.042246,1.153469,-2.9755685,-1.8513027
1.198,2.167563,3.512825,15.923643,1.1068013,-2.7791085,-1.863477
1.2,2.0687292,3.1872811,15.793848,1.0562993,-2.5837579,-1.8718874
1.202,1.9842639,2.8768291,15.654696,1.0021964,-2.3900802,-1.8766071
1.204,1.9150833,2.5815878,15.507883,0.944749,-2.1985407,-1.8777637
1.206,1.8611958,2.3019943,15.355064,0.8842218,-2.0094943,-1.875484
1.208,1.8232281,2.0379972,15.197429,0.8209185,-1.8232092,-1.8699712
1.21,1.8011792,1.7897935,15.03635,0.75512886,-1.6398079,-1.8615639
1.212,1.7946324,1.5577021,14.87343,0.68714297,-1.4593234,-1.850695
1.214,1.8032976,1.3418531,14.709651,0.6172066,-1.2817404,-1.8378206
1.216,1.8266605,1.1420779,14.545935,0.5455417,-1.1070144,-1.8234453
1.218,1.8642589,0.9580679,14.382896,0.4724,-0.9350589,-1.8080693
1.22,1.9157825,0.7894869,14.221054,0.3980384,-0.76578104,-1.7921674
1.222,1.9802797,0.6360822,14.060698,0.3227417,-0.5991148,-1.7761325
1.224,2.0569425,0.49754333,13.90229,0.24686527,-0.4349388,-1.7603835
1.226,2.1448872,0.37322235,13.745983,0.17075858,-0.27311075,-1.7453403
1.228,2.2434797,0.26254845,13.5915165,0.09480132,-0.11355209,-1.7313292
1.23,2.3516018,0.16465902,13.438755,0.019436862,0.043847203,-1.7186608
1.232,2.468642,0.07878399,13.287186,-0.054934744,0.19923621,-1.7076596
1.234,2.5937188,0.004196167,13.136548,-0.12793666,0.35270125,-1.6985949
1.236,2.725838,-0.059806824,12.986343,-0.19919702,0.50434256,-1.6916869
1.238,2.8643436,-0.114106655,12.83612,-0.26836598,0.65428305,-1.687124
1.24,3.0086708,-0.15951777,12.68494,-0.3351593,0.8026314,-1.6850863
1.242,3.158309,-0.19694471,12.5321045,-0.39936063,0.94950426,-1.6857333
1.244,3.3125095,-0.22721672,12.376915,-0.46085015,1.0950236,-1.689188
1.246,3.471047,-0.25128508,12.218442,-0.51959324,1.2393001,-1.6955512
1.248,3.6333706,-0.26978397,12.055889,-0.57565767,1.3824189,-1.7049209
1.25,3.7989135,-0.28314495,11.888479,-0.6292375,1.5243981,-1.7173383
1.252,3.9674447,-0.2918334,11.715553,-0.68063176,1.6651533,-1.7327625
1.254,4.1386685,-0.2961588,11.536205,-0.7302265,1.8045009,-1.7510753
1.256,4.3122563,-0.29625702,11.349813,-0.778479,1.9421179,-1.7720546
1.258,4.4879484,-0.29221392,11.155672,-0.82589376,2.0775352,-1.7953893
1.26,4.665491,-0.28410053,10.953209,-0.8730014,2.2101147,-1.8206794
1.262,4.8446107,-0.2716012,10.741957,-0.9203683,2.339071,-1.847459
1.264,5.0250134,-0.25457335,10.521485,-0.96857125,2.4634695,-1.8752106
1.266,5.206668,-0.23256493,10.291675,-1.0182177,2.5822744,-1.9034196
1.268,5.38914,-0.20498848,10.052433,-1.0699106,2.6944199,-1.9316005
1.27,5.571973,-0.1713748,9.803606,-1.1242564,2.7988348,-1.9593571
1.272,5.754916,-0.131042,9.545429,-1.1818744,2.8945072,-1.9863915
1.274,5.937579,-0.08341503,9.278273,-1.2433623,2.9805388,-2.0125287
1.276,6.1198,-0.027956009,9.002573,-1.3092699,3.0561903,-2.037714
1.278,6.3011837,0.035691977,8.718861,-1.3800774,3.1209266,-2.0620112
1.28,6.481304,0.108171225,8.42782,-1.4561385,3.1744435,-2.0855875
1.282,6.6597633,0.18988466,8.130175,-1.5376825,3.2166958,-2.108746
1.284,6.8360076,0.28109312,7.8268456,-1.6248094,3.2478428,-2.1318095
1.286,7.009779,0.3819716,7.5186753,-1.7173917,3.2682488,-2.155118
1.288,7.180568,0.49247313,7.2065315,-1.8151461,3.2785277,-2.1791203
1.29,7.348011,0.61249113,6.891319,-1.9177012,3.2793915,-2.204273
1.292,7.5116143,0.7417383,6.573847,-2.0245993,3.2716224,-2.2310028
1.294,7.671076,0.87981725,6.2549834,-2.1353083,3.2560751,-2.259697
1.296,7.8258543,1.0262754,5.9355164,-2.2492642,3.2335968,-2.2906792
1.298,7.975821,1.1804376,5.616203,-2.3658986,3.2050083,-2.3242114
1.3,8.120664,1.341568,5.297617,-2.4847014,3.1710591,-2.3604803
1.302,8.260051,1.5088696,4.980472,-2.6051958,3.1324315,-2.3995981
1.304,8.393955,1.6815457,4.665123,-2.7269778,3.0897841,-2.441601
1.306,8.522106,1.858879,4.3521132,-2.8497245,3.043692,-2.486451
1.308,8.644354,2.0397935,4.04184,-2.9732182,2.9946647,-2.533996
1.31,8.760945,2.2233758,3.734438,-3.097334,2.943157,-2.583986
1.312,8.871665,2.408843,3.4301653,-3.2220182,2.889589,-2.6360793
1.314,8.97636,2.5956054,3.1294293,-3.3472807,2.834338,-2.6898553
1.316,9.07526,2.7829108,2.8323426,-3.473158,2.7777631,-2.7448144
1.318,9.168537,2.9701395,2.5390768,-3.5997417,2.7202046,-2.8003817
1.32,9.256236,3.156756,2.24991,-3.7271101,2.6619403,-2.8559287
1.322,9.338748,3.3422148,1.9651254,-3.8553553,2.6031978,-2.9107928
1.324,9.416125,3.5259986,1.6850431,-3.984543,2.5441632,-2.964282
1.326,9.488849,3.70784,1.4100378,-4.114699,2.4849613,-3.0157442
1.328,9.557053,3.8871968,1.1406578,-4.2457876,2.4256282,-3.0645857
1.33,9.621152,4.063482,0.87740684,-4.3777275,2.3661292,-3.1103055
1.332,9.681687,4.236247,0.6210957,-4.5103836,2.306343,-3.152512
1.334,9.738756,4.4050913,0.37253422,-4.6435757,2.2460892,-3.1909251
1.336,9.792978,4.569496,0.13263401,-4.7770696,2.1851304,-3.225405
1.338,9.84447,4.728778,-0.09778455,-4.91057,2.1232362,-3.2559247
1.34,9.893905,4.882276,-0.31767166,-5.043746,2.0601792,-3.2825663
1.342,9.941655,5.029256,-0.52610815,-5.1762238,1.995786,-3.3054676
1.344,9.987912,5.169093,-0.7222027,-5.307598,1.9299908,-3.3248272
1.346,10.033053,5.301063,-0.9049312,-5.43744,1.8627979,-3.3408422
1.348,10.077312,5.4243693,-1.073356,-5.5653114,1.7943166,-3.3536997
1.35,10.121065,5.538335,-1.2265909,-5.690791,1.7247398,-3.3635514
1.352,10.16448,5.6423364,-1.363942,-5.813486,1.6543665,-3.370457
1.354,10.207769,5.7358885,-1.484854,-5.9330435,1.5835595,-3.3743868
1.356,10.250814,5.818498,-1.5888815,-6.049209,1.5127043,-3.3752422
1.358,10.293824,5.889917,-1.675671,-6.1617684,1.4422324,-3.3728209
1.36,10.336542,5.949973,-1.7448992,-6.270578,1.3725927,-3.366858
1.362,10.378841,5.9987354,-1.7966114,-6.37554,1.3042768,-3.3570514
1.364,10.420415,6.0365963,-1.8308897,-6.4765754,1.237809,-3.3430789
1.366,10.461223,6.063721,-1.8482689,-6.573624,1.1737509,-3.324626
1.368,10.500915,6.080823,-1.8492959,-6.6665893,1.1127151,-3.30143
1.37,10.539395,6.088687,-1.8346694,-6.755306,1.055337,-3.2733262
1.372,10.576142,6.088154,-1.8053389,-6.8395214,1.0022681,-3.2402766
1.374,10.610962,6.080449,-1.7623248,-6.9189086,0.9542042,-3.202365
1.376,10.64352,6.0666966,-1.7068001,-6.993054,0.9118032,-3.1598125
1.378,10.67371,6.0480123,-1.640084,-7.0615053,0.87569815,-3.1129334
1.38,10.701421,6.0257607,-1.563335,-7.123798,0.84646577,-3.0621078
1.382,10.726509,6.001185,-1.4780996,-7.1794887,0.8246208,-3.0077477
1.384,10.748987,5.975574,-1.385922,-7.228199,0.8105661,-2.950284
1.386,10.768682,5.9501004,-1.2882531,-7.2696133,0.8045975,-2.8901358
1.388,10.785663,5.9259896,-1.1864915,-7.3035264,0.80690336,-2.8276796
1.39,10.800259,5.904055,-1.082063,-7.3298435,0.8175783,-2.7632222
1.392,10.812755,5.885115,-0.97632027,-7.348561,0.8366132,-2.6970196
1.394,10.823324,5.8698287,-0.87039113,-7.3597283,0.8639065,-2.6292818
1.396,10.832268,5.858843,-0.7654824,-7.3634577,0.89924943,-2.5601776
1.398,10.839908,5.8524194,-0.6623194,-7.3598714,0.94233614,-2.4898489
1.4,10.846683,5.850834,-0.56187034,-7.349113,0.9928261,-2.4184184
1.402,10.853123,5.85411,-0.46479416,-7.33131,1.0503349,-2.3460166
1.404,10.859232,5.862198,-0.37164092,-7.306555,1.1144842,-2.2727966
1.406,10.865511,5.8747597,-0.28279495,-7.2749248,1.1849043,-2.1989803
1.408,10.872055,5.8915014,-0.19869566,-7.236462,1.2612932,-2.1248193
1.41,10.879151,5.9119225,-0.11929321,-7.191163,1.3434104,-2.0505698
1.412,10.886936,5.935604,-0.044785976,-7.1390386,1.4310751,-1.9765426
1.414,10.895408,5.9619026,0.02489996,-7.080085,1.5241708,-1.9030364
1.416,10.904715,5.990204,0.08973265,-7.014291,1.6226187,-1.8303304
1.418,10.914715,6.020039,0.14986134,-6.9416714,1.7263486,-1.7586473
1.42,10.925592,6.050768,0.20538044,-6.8622656,1.8352975,-1.688151
1.422,10.937202,6.081975,0.25640917,-6.776165,1.9493423,-1.6189327
1.424,10.94939,6.1132073,0.3029971,-6.6835446,2.0683174,-1.5509939
1.426,10.962163,6.1440744,0.34524345,-6.584651,2.1919754,-1.4842769
1.428,10.975307,6.174228,0.38313293,-6.479815,2.320004,-1.4186491
1.43,10.988872,6.2034903,0.41660643,-6.3694544,2.452031,-1.3539301
1.432,11.002586,6.2317677,0.44554377,-6.2540436,2.587613,-1.2898949
1.434,11.01663,6.259023,0.46993256,-6.1341023,2.7262502,-1.2263354
1.436,11.030779,6.2852197,0.48955536,-6.0102086,2.8674116,-1.1630349
1.438,11.045067,6.3105116,0.50426865,-5.882934,3.010533,-1.09981
1.44,11.059395,6.3352294,0.5137191,-5.7528563,3.155045,-1.0365301
1.442,11.073637,6.359607,0.5178423,-5.6205344,3.300387,-0.97313976
1.444,11.08818,6.383629,0.5162587,-5.4864945,3.445993,-0.90965974
1.446,11.102894,6.4074516,0.5088177,-5.351215,3.591329,-0.8462088
1.448,11.118088,6.431305,0.49543,-5.215144,3.7359254,-0.78299
1.45,11.133776,6.455204,0.4759941,-5.07865,3.8793764,-0.7202914
1.452,11.150091,6.4790297,0.4504056,-4.94204,4.0213194,-0.65849847
1.454,11.1672125,6.502755,0.41862917,-4.8055606,4.16145,-0.5980334
1.456,11.185305,6.5262513,0.3806796,-4.6694007,4.2994976,-0.53934616
1.458,11.204414,6.549264,0.33652782,-4.5337167,4.4352255,-0.48287624
1.46,11.224569,6.571357,0.2864895,-4.398614,4.5683947,-0.42903936
1.462,11.245838,6.5921555,0.23070145,-4.264202,4.6987724,-0.378204
1.464,11.268454,6.6111307,0.16946507,-4.1306148,4.826099,-0.33066326
1.466,11.292536,6.627823,0.10308504,-3.997986,4.950113,-0.28661585
1.468,11.317984,6.641589,0.03185749,-3.8664923,5.0705256,-0.24615908
1.47,11.344955,6.651946,-0.043947697,-3.7363448,5.1870685,-0.20932093
1.472,11.373434,6.658283,-0.123765945,-3.607784,5.299458,-0.17604397
1.474,11.403503,6.6599073,-0.20717621,-3.4810305,5.407449,-0.14621685
1.476,11.435009,6.656515,-0.29365873,-3.3563156,5.510848,-0.11968776
1.478,11.467831,6.6475325,-0.38274145,-3.233836,5.6095223,-0.09630726
1.48,11.501844,6.6326222,-0.47394037,-3.1137693,5.7033815,-0.07591009
1.482,11.537136,6.611494,-0.56668186,-2.9962742,5.792403,-0.058334425
1.484,11.573523,6.58375,-0.66054344,-2.8814924,5.87662,-0.043435477
1.486,11.6107235,6.5493665,-0.7550731,-2.769555,5.9561043,-0.03111507
1.488,11.648638,6.5082436,-0.8497772,-2.6605935,6.0309925,-0.021252662
1.49,11.687082,6.4602156,-0.9442768,-2.5547018,6.1014304,-0.013770074
1.492,11.725969,6.4053574,-1.0379643,-2.4520016,6.1675897,-0.008581668
1.494,11.76499,6.3438206,-1.1305361,-2.3525856,6.229642,-0.0055992305
1.496,11.803939,6.275762,-1.2215257,-2.2565362,6.287754,-0.0047189295
1.498,11.842702,6.2013507,-1.3106027,-2.1638963,6.342097,-0.005854368
1.5,11.880878,6.1209574,-1.397326,-2.074656,6.392801,-0.008899868
1.502,11.91835,6.0349326,-1.4814029,-1.9887524,6.4399514,-0.01373142
1.504,11.954736,5.943775,-1.5625887,-1.9060628,6.4836187,-0.020223558
1.506,11.989913,5.8478336,-1.6405358,-1.8264017,6.5238223,-0.028224468
1.508,12.023719,5.747717,-1.7150941,-1.7495258,6.560548,-0.037591636
1.51,12.05575,5.64391,-1.7859912,-1.6751772,6.5937448,-0.04817432
1.512,12.085708,5.536997,-1.8529577,-1.6030831,6.6233654,-0.05981785
1.514,12.113719,5.427583,-1.9158397,-1.5329988,6.649356,-0.072360575
1.516,12.13927,5.316288,-1.9745126,-1.4647046,6.6716766,-0.08564228
1.518,12.162298,5.203779,-2.0286746,-1.3980348,6.6902986,-0.09950948
1.52,12.182575,5.0906982,-2.0783477,-1.3329048,6.705213,-0.113837
1.522,12.199922,4.977549,-2.1232474,-1.2692884,6.716431,-0.1285026
1.524,12.214135,4.8649573,-2.1633062,-1.2072117,6.723958,-0.14341092
1.526,12.225012,4.753398,-2.1983175,-1.1467508,6.72783,-0.1585058
1.528,12.232632,4.643195,-2.2281682,-1.0880024,6.7280564,-0.17375284
1.53,12.236668,4.53489,-2.252838,-1.031069,6.7246523,-0.18917298
1.532,12.237077,4.4287853,-2.2721283,-0.9760394,6.7176247,-0.20482922
1.534,12.233753,4.325037,-2.2860062,-0.92296576,6.7069826,-0.22081828
1.536,12.226642,4.223935,-2.2943623,-0.8718504,6.6927586,-0.23724431
1.538,12.215774,4.1255875,-2.2973464,-0.822654,6.675011,-0.25422382
1.54,12.2010975,4.0301456,-2.2949054,-0.7752849,6.653856,-0.27183604
1.542,12.18257,3.9375103,-2.287245,-0.72960985,6.6294646,-0.29014164
1.544,12.160286,3.847742,-2.2744825,-0.68547356,6.6020637,-0.30913547
1.546,12.134409,3.760691,-2.2569065,-0.64266443,6.571952,-0.3287792
1.548,12.105095,3.6763046,-2.2347417,-0.6009778,6.539456,-0.3489688
1.55,12.072451,3.5943172,-2.2081752,-0.56020415,6.5049324,-0.3695525
1.552,12.03674,3.5147276,-2.1779,-0.520154,6.468739,-0.3903159
1.554,11.998026,3.4374874,-2.144102,-0.48066235,6.4312367,-0.41101682
1.556,11.956671,3.3624883,-2.107462,-0.4416151,6.39274,-0.4314049
1.558,11.912902,3.2896252,-2.068512,-0.40294528,6.3534713,-0.45123357
1.56,11.867267,3.2190745,-2.0279384,-0.36465955,6.3135486,-0.47026312
1.562,11.819678,3.1508923,-1.9862593,-0.32683635,6.27299,-0.48827404
1.564,11.770322,3.085146,-1.9436834,-0.2896192,6.231692,-0.50508
1.566,11.719631,3.0217457,-1.9010401,-0.25322056,6.189416,-0.5205425
1.568,11.668354,2.9606097,-1.8589647,-0.21790075,6.145781,-0.53458154
1.57,11.616585,2.9019313,-1.817986,-0.18401456,6.100295,-0.5471652
1.572,11.5645895,2.8457115,-1.7784133,-0.15195513,6.0523715,-0.5583188
1.574,11.512503,2.7920868,-1.740591,-0.122124195,6.0013733,-0.5681095
1.576,11.460593,2.7411048,-1.7047412,-0.0949595,5.946652,-0.5766649
1.578,11.409105,2.6927173,-1.6710196,-0.07088637,5.8876076,-0.5841472
1.58,11.358024,2.646973,-1.6393325,-0.050270557,5.8237247,-0.59075975
1.582,11.307437,2.6038222,-1.609672,-0.0334239,5.75463,-0.596758
1.584,11.257425,2.5631957,-1.5817702,-0.020546198,5.6801033,-0.6024107
1.586,11.208044,2.5249627,-1.5552635,-0.011725187,5.6000996,-0.6080078
1.588,11.159288,2.4889815,-1.52981,-0.006919861,5.5147343,-0.61380625
1.59,11.110986,2.4550648,-1.5049936,-0.0059685707,5.424232,-0.6200328
1.592,11.062961,2.4229758,-1.4803914,-0.008574247,5.328979,-0.62688243
1.594,11.0152,2.3925548,-1.4553925,-0.014366865,5.229516,-0.63453835
1.596,10.9676485,2.3635077,-1.4294664,-0.02294755,5.126421,-0.643063
1.598,10.919982,2.3357663,-1.4021525,-0.03389144,5.020247,-0.6524283
1.6,10.87218,2.30908,-1.3729355,-0.046760798,4.911587,-0.6625101
1.602,10.823884,2.2832768,-1.3414713,-0.061137915,4.8011217,-0.6731571
1.604,10.775119,2.2582152,-1.3072317,-0.07665086,4.6895185,-0.6841968
1.606,10.725769,2.23377,-1.269989,-0.09299922,4.577461,-0.695482
1.608,10.675645,2.2098055,-1.2294588,-0.109950066,4.465633,-0.70688915
1.61,10.624752,2.1861792,-1.1855171,-0.12732756,4.354732,-0.7183316
1.612,10.573088,2.1628034,-1.1379735,-0.14501607,4.2454247,-0.7297629
1.614,10.520609,2.1396503,-1.086882,-0.1629479,4.138324,-0.7411658
1.616,10.467356,2.1167116,-1.0322196,-0.18107796,4.033952,-0.75250185
1.618,10.413329,2.0939474,-0.9740801,-0.19936442,3.9327207,-0.76370174
1.62,10.35871,2.0714698,-0.9125123,-0.21776378,3.8349473,-0.7746347
1.622,10.303769,2.0493276,-0.84780914,-0.23620224,3.7408588,-0.78512317
1.624,10.248335,2.0274737,-0.77999485,-0.25456512,3.6505713,-0.7949576
1.626,10.192555,2.006153,-0.70919085,-0.27270353,3.5641418,-0.8039071
1.628,10.13682,1.9851964,-0.63586557,-0.29047,3.4815848,-0.8117661
1.63,10.081408,1.9646075,-0.5603075,-0.3077017,3.402903,-0.8183786
1.632,10.026499,1.9444206,-0.48271137,-0.32424033,3.3281078,-0.82364655
1.634,9.972315,1.9246986,-0.40339816,-0.3399672,3.2572246,-0.82754797
1.636,9.919106,1.9055347,-0.32270968,-0.35478663,3.1903002,-0.83011633
1.638,9.866812,1.8869593,-0.24087894,-0.36864382,3.1274047,-0.8314519
1.64,9.815812,1.8688602,-0.15806752,-0.3815276,3.0685945,-0.8316644
1.642,9.766306,1.8511956,-0.074604034,-0.39344156,3.0139117,-0.8308999
1.644,9.71832,1.834161,0.009255528,-0.40441996,2.963382,-0.82928157
1.646,9.67216,1.8174527,0.09328616,-0.41451305,2.916951,-0.82685673
1.648,9.627828,1.8012555,0.17726767,-0.4237594,2.8744762,-0.82362354
1.65,9.585457,1.7854295,0.26087564,-0.43218893,2.8358266,-0.81960905
1.652,9.545162,1.7700484,0.34403336,-0.4398278,2.8008962,-0.81482756
1.654,9.506979,1.7550826,0.42635715,-0.446728,2.7695239,-0.80927896
1.656,9.470829,1.740499,0.5078171,-0.4529413,2.741539,-0.80296
1.658,9.436806,1.7263548,0.58817375,-0.45853484,2.7167652,-0.7958523
1.66,9.404793,1.7127254,0.6672689,-0.46356338,2.6949923,-0.78792626
1.662,9.374595,1.6994939,0.7450366,-0.46807116,2.6760576,-0.779173
1.664,9.346175,1.6867058,0.82124346,-0.4720921,2.6598263,-0.7696015
1.666,9.319495,1.6744285,0.89601046,-0.47565842,2.6461997,-0.7592424
1.668,9.294464,1.6626809,0.9691422,-0.47879177,2.6351018,-0.7481455
1.67,9.27067,1.6513569,1.0407587,-0.48151535,2.6265051,-0.73640203
1.672,9.248352,1.6404874,1.1107051,-0.48386508,2.6204052,-0.7241265
1.674,9.227349,1.6300209,1.1787095,-0.48587817,2.616785,-0.7114334
1.676,9.2072315,1.6200871,1.245093,-0.48760056,2.6156278,-0.69845545
1.678,9.187567,1.610784,1.3099854,-0.48906112,2.6168778,-0.6853017
1.68,9.168422,1.6019819,1.3732451,-0.49028718,2.6204407,-0.6720606
1.682,9.149694,1.5934517,1.4348564,-0.49127448,2.626165,-0.65879333
1.684,9.1312275,1.5851982,1.4948758,-0.4920023,2.6338649,-0.64553493
1.686,9.112923,1.5770552,1.5533025,-0.49242067,2.643315,-0.632309
1.688,9.094692,1.5689685,1.6101422,-0.49248004,2.6542883,-0.61913127
1.69,9.076421,1.5607908,1.6653404,-0.4921273,2.6665604,-0.6060271
1.692,9.057925,1.5524259,1.7189764,-0.49132228,2.679959,-0.59303737
1.694,9.039205,1.5437706,1.7710972,-0.49005878,2.6943436,-0.5802346
1.696,9.020218,1.5347989,1.8217323,-0.48836952,2.709641,-0.5677142
1.698,9.000894,1.525413,1.8709078,-0.48632812,2.725815,-0.555568
1.7,8.981379,1.515558,1.9186032,-0.4840634,2.7428575,-0.5438897
1.702,8.961623,1.5052187,1.964898,-0.48170578,2.7607913,-0.5327399
1.704,8.941652,1.494282,2.0097542,-0.47942537,2.7796364,-0.52213913
1.706,8.921576,1.4828682,2.053143,-0.47739065,2.7994056,-0.5120412
1.708,8.901451,1.4708624,2.095136,-0.47573823,2.820073,-0.50235105
1.71,8.881371,1.4584193,2.1356905,-0.47458404,2.8415787,-0.49292526
1.712,8.861492,1.445535,2.1747353,-0.4739887,2.8639271,-0.48362377
1.714,8.841836,1.4322023,2.212226,-0.4739855,2.887125,-0.47432607
1.716,8.822583,1.4185932,2.2481952,-0.47460407,2.9111304,-0.46492457
1.718,8.803778,1.4047649,2.2825203,-0.47584778,2.9358952,-0.4553438
1.72,8.78551,1.3908241,2.3151753,-0.4776938,2.9614017,-0.44555008
1.722,8.767913,1.3768151,2.3460603,-0.4801141,2.9876251,-0.43555275
1.724,8.751037,1.3628759,2.375141,-0.48307002,3.0145435,-0.42540938
1.726,8.734949,1.3490264,2.4023883,-0.48650998,3.0421278,-0.41519523
1.728,8.719765,1.335345,2.427696,-0.49039233,3.0703526,-0.4050104
1.73,8.705494,1.321831,2.4509735,-0.49467164,3.0991962,-0.39496383
1.732,8.692089,1.3085122,2.4722316,-0.49931985,3.1286173,-0.38516495
1.734,8.679837,1.2955334,2.491321,-0.50431985,3.1585598,-0.37570834
1.736,8.66887,1.2826903,2.5081377,-0.5096566,3.1889558,-0.36667418
1.738,8.65867,1.270308,2.5227666,-0.5153112,3.2197227,-0.35812375
1.74,8.649296,1.2582729,2.535314,-0.521292,3.250785,-0.35010847
1.742,8.640855,1.2465072,2.5455837,-0.52759117,3.2820442,-0.34265715
1.744,8.633289,1.2350461,2.5537171,-0.5342191,3.313402,-0.33579937
1.746,8.626607,1.2237651,2.5596848,-0.54118866,3.344764,-0.32954118
1.748,8.620794,1.2126915,2.5635822,-0.5485042,3.3760498,-0.3238932
1.75,8.615635,1.2018287,2.5653582,-0.5561771,3.4071681,-0.3188465
1.752,8.611181,1.191102,2.5650635,-0.56420857,3.4380345,-0.31439695
1.754,8.607474,1.1804922,2.5628533,-0.57260984,3.4685974,-0.31051806
1.756,8.604231,1.1701014,2.5587897,-0.58139443,3.4987855,-0.3071947
1.758,8.601607,1.1598465,2.5529666,-0.5905525,3.528551,-0.30439675
1.76,8.599546,1.1497335,2.5455627,-0.6000878,3.5578485,-0.3021085
1.762,8.597951,1.1398509,2.5366254,-0.6100069,3.586639,-0.30031848
1.764,8.596781,1.1301115,2.5263662,-0.62031484,3.6148927,-0.29899085
1.766,8.596098,1.1206512,2.514872,-0.63102025,3.642576,-0.2981086
1.768,8.595818,1.1113582,2.5023093,-0.6421285,3.669656,-0.2976563
1.77,8.596081,1.1022725,2.4887462,-0.65363735,3.6961021,-0.29763287
1.772,8.5969715,1.093425,2.474417,-0.6655523,3.7218983,-0.29804707
1.774,8.598219,1.0848105,2.4594455,-0.6778928,3.7470303,-0.29890686
1.776,8.5999975,1.0764401,2.44388,-0.690657,3.7714841,-0.3002441
1.778,8.602159,1.0682333,2.4279904,-0.70385593,3.7952473,-0.30209237
1.78,8.604811,1.0601594,2.4117239,-0.7174979,3.8183234,-0.30450517
1.782,8.607956,1.052264,2.3953106,-0.7315714,3.840716,-0.30753684
1.784,8.611719,1.0444748,2.3787746,-0.7460811,3.8624184,-0.3112349
1.786,8.615988,1.0368335,2.3622706,-0.7610142,3.8834438,-0.31564587
1.788,8.620777,1.0293276,2.3458452,-0.7763532,3.9037907,-0.3208136
1.79,8.6261425,1.0218306,2.3295739,-0.7920648,3.9234657,-0.32675278
1.792,8.632042,1.0144835,2.3135133,-0.80812585,3.94248,-0.33345872
1.794,8.63851,1.0071237,2.2976801,-0.82448167,3.9608278,-0.3409086
1.796,8.645446,0.9998181,2.282141,-0.84107614,3.978524,-0.34905702
1.798,8.65287,0.9925482,2.2669082,-0.85785586,3.995578,-0.35782176
1.8,8.660727,0.98529816,2.2519972,-0.87475973,4.0119944,-0.36713344
1.802,8.669228,0.97804594,2.2373788,-0.8917217,4.0277696,-0.37689483
1.804,8.678143,0.970875,2.222995,-0.90867406,4.0429335,-0.38701785
1.806,8.687427,0.9637282,2.2088552,-0.92553794,4.0574937,-0.3974113
1.808,8.697153,0.9566388,2.1949625,-0.9422351,4.0714626,-0.40800118
1.81,8.707147,0.9496348,2.1813395,-0.95867956,4.0848784,-0.41872782
1.812,8.717518,0.9426935,2.1677787,-0.97480905,4.0977607,-0.42955232
1.814,8.728163,0.9359219,2.1544144,-0.9905446,4.1101522,-0.44043738
1.816,8.739074,0.9291284,2.1411219,-1.0058222,4.122106,-0.4513775
1.818,8.750305,0.92241263,2.1277866,-1.0205669,4.1336646,-0.46238726
1.82,8.761699,0.9157226,2.1144621,-1.0347385,4.144876,-0.4734879
1.822,8.773267,0.9090576,2.101129,-1.048285,4.155798,-0.48468828
1.824,8.785016,0.90235686,2.0877512,-1.0611764,4.166471,-0.49600303
1.826,8.796974,0.8955116,2.0742033,-1.0733787,4.176945,-0.5074378
1.828,8.809254,0.8885205,2.060551,-1.0848639,4.187256,-0.5189879
1.83,8.821686,0.8812988,2.0466294,-1.0956185,4.1974363,-0.5306213
1.832,8.834259,0.87387896,2.0325139,-1.1056288,4.207521,-0.5423024
1.834,8.8470955,0.86600995,2.0180745,-1.114891,4.217528,-0.5539619
1.836,8.860097,0.85777044,2.003286,-1.1234109,4.227485,-0.56552666
1.838,8.873325,0.84904194,1.9881144,-1.1311877,4.237431,-0.5769095
1.84,8.886808,0.839803,1.9724829,-1.1382345,4.247393,-0.5880245
1.842,8.900435,0.8298845,1.9564657,-1.1445632,4.257415,-0.59878325
1.844,8.914284,0.8191762,1.9399686,-1.1501902,4.267543,-0.6091275
1.846,8.928247,0.80778193,1.9230125,-1.155111,4.2778096,-0.6189952
1.848,8.942375,0.7954836,1.9056039,-1.1593318,4.2882643,-0.6283551
1.85,8.956643,0.78233147,1.8876894,-1.1628315,4.2989306,-0.63720155
1.852,8.970918,0.768379,1.869328,-1.1655693,4.3098497,-0.6455603
1.854,8.985039,0.75353265,1.8504457,-1.1675129,4.3210278,-0.65345097
1.856,8.999048,0.73775434,1.8310828,-1.1686258,4.3324785,-0.6609402
1.858,9.012921,0.7209139,1.8111839,-1.1688536,4.344194,-0.66809046
1.86,9.0264635,0.70300436,1.7907996,-1.1681521,4.3561854,-0.6749795
1.862,9.039486,0.6841674,1.7700334,-1.16649,4.368432,-0.68165433
1.864,9.05196,0.6643524,1.7489109,-1.1638471,4.380922,-0.6881526
1.866,9.063889,0.64358974,1.7274618,-1.1601952,4.3936396,-0.6944831
1.868,9.075024,0.62194085,1.705673,-1.1555334,4.4065666,-0.7006187
1.87,9.085257,0.59950614,1.6835752,-1.1498787,4.4196978,-0.70649314
1.872,9.094651,0.57638526,1.6611772,-1.1432552,4.433028,-0.7120133
1.874,9.102874,0.5526465,1.6385589,-1.1356875,4.4465466,-0.7170599
1.876,9.109924,0.5284414,1.6156411,-1.1272218,4.4602404,-0.7214921
1.878,9.11559,0.5038934,1.5924773,-1.1178931,4.474103,-0.72518265
1.88,9.119835,0.4790994,1.5691504,-1.1077448,4.48811,-0.72801006
1.882,9.122522,0.45419955,1.5455809,-1.0968192,4.5022297,-0.7298777
1.884,9.12371,0.429309,1.5216804,-1.0851467,4.516433,-0.7307196
1.886,9.123102,0.4045347,1.4974749,-1.0727575,4.5306845,-0.73050463
1.888,9.12074,0.38006246,1.4728642,-1.0596635,4.54493,-0.7292301
1.89,9.116467,0.35595083,1.4479415,-1.0458826,4.5590954,-0.726917
1.892,9.110221,0.3323053,1.4226098,-1.0314331,4.5731163,-0.7236085
1.894,9.101774,0.30918372,1.3969388,-1.016321,4.5869093,-0.7193897
1.896,9.091171,0.28653133,1.3707187,-1.00057,4.600388,-0.7143486
1.898,9.078376,0.26438057,1.3440225,-0.9842088,4.613469,-0.7085848
1.9,9.063242,0.24277306,1.3168228,-0.9672761,4.626055,-0.70221347
1.902,9.04583,0.22165668,1.2890828,-0.9498193,4.638057,-0.69532776
1.904,9.026038,0.20086372,1.2607319,-0.9319249,4.6493883,-0.688028
1.906,9.003794,0.18038774,1.2318115,-0.9136739,4.659953,-0.6803722
1.908,8.979197,0.16009474,1.2023218,-0.8951714,4.669679,-0.6724051
1.91,8.952224,0.13988376,1.1722281,-0.8765211,4.6784873,-0.6641118
1.912,8.922653,0.11965275,1.1415439,-0.85784405,4.6863008,-0.6554666
1.914,8.8907175,0.09917033,1.1103637,-0.8392539,4.6930375,-0.6464123
1.916,8.856469,0.07839334,1.0786531,-0.8208574,4.698627,-0.6368921
1.918,8.819876,0.05712664,1.0464895,-0.80274796,4.7029896,-0.62681484
1.92,8.781118,0.035285115,1.0139182,-0.7850065,4.706058,-0.6161277
1.922,8.740178,0.012755156,0.9810319,-0.76769435,4.7077675,-0.60480165
1.924,8.697177,-0.010600567,0.94773304,-0.7508597,4.708042,-0.59282744
1.926,8.652097,-0.034697413,0.9142351,-0.734542,4.7068243,-0.58020175
1.928,8.605148,-0.059640646,0.88058305,-0.7187686,4.7040496,-0.56693554
1.93,8.556345,-0.08554423,0.84677863,-0.70356786,4.6996946,-0.55304754
1.932,8.505863,-0.11239159,0.8129885,-0.6889545,4.693716,-0.53853345
1.934,8.453794,-0.14009082,0.7792208,-0.6749329,4.6860814,-0.5233946
1.936,8.400213,-0.168652,0.7456131,-0.66151786,4.6767864,-0.50760317
1.938,8.345223,-0.19803154,0.71222043,-0.6487145,4.665812,-0.49112856
1.94,8.288991,-0.22812116,0.6791152,-0.63653684,4.653156,-0.47393382
1.942,8.23168,-0.25893778,0.6463218,-0.6249926,4.6388264,-0.4559983
1.944,8.1733885,-0.29031795,0.61401725,-0.61409223,4.62286,-0.43729806
1.946,8.114006,-0.3221478,0.58213556,-0.6038369,4.605257,-0.41781998
1.948,8.0538225,-0.35442376,0.55079675,-0.59423333,4.5860543,-0.39755368
1.95,7.9928102,-0.387024,0.51995325,-0.58527017,4.5652804,-0.37648594
1.952,7.9312,-0.41970134,0.48953938,-0.5769568,4.542961,-0.3546238
1.954,7.8689675,-0.45246458,0.45969337,-0.56928724,4.5191293,-0.3319683
1.956,7.8063693,-0.4852104,0.43035853,-0.5622564,4.4938,-0.30852318
1.958,7.7434,-0.5177777,0.40156347,-0.5558371,4.4669857,-0.28429258
1.96,7.6800585,-0.5501712,0.37326652,-0.5500294,4.43869,-0.2593075
1.962,7.6164007,-0.5822646,0.34538072,-0.5448152,4.4089146,-0.23359442
1.964,7.5526404,-0.61398757,0.31798184,-0.5402074,4.377649,-0.20720363
1.966,7.4887595,-0.6451914,0.29096484,-0.5362167,4.3448715,-0.18018687
1.968,7.4248466,-0.6757678,0.26429945,-0.5328628,4.3105664,-0.1526103
1.97,7.361001,-0.70562714,0.23801538,-0.53017604,4.274727,-0.12454331
1.972,7.297299,-0.7347828,0.21192542,-0.52820885,4.237336,-0.09606099
1.974,7.233717,-0.76321,0.18602633,-0.5270077,4.198376,-0.06720543
1.976,7.170247,-0.7907653,0.16027248,-0.5266245,4.1578264,-0.03800845
1.978,7.107146,-0.8174672,0.13468347,-0.52711123,4.1156797,-0.008494616
1.98,7.0443807,-0.84327656,0.109158084,-0.52850926,4.0719194,0.02130425
1.982,6.9819236,-0.8681416,0.083602324,-0.5308524,4.026534,0.051374197
1.984,6.920092,-0.8920352,0.058009423,-0.5341633,3.9795067,0.08171296
1.986,6.8586245,-0.9149704,0.032373786,-0.53845847,3.9308345,0.11230898
1.988,6.79783,-0.9368834,0.0064720362,-0.5437424,3.8805156,0.14315796
1.99,6.7376328,-0.9578233,-0.019675493,-0.5499936,3.828535,0.1742456
1.992,6.6780524,-0.97775745,-0.046092868,-0.5572036,3.7748861,0.20556045
1.994,6.619218,-0.99671733,-0.07277292,-0.5653438,3.7195585,0.23706996
1.996,6.561222,-1.014795,-0.09983438,-0.57440233,3.6625533,0.26874566
1.998,6.504064,-1.0318872,-0.12727585,-0.5843502,3.6038682,0.3005464
2,6.447861,-1.0480886,-0.15523636,-0.5951764,3.5435162,0.33242393
2.002,6.392586,-1.0634633,-0.18373543,-0.60685986,3.4815116,0.36432862
2.004,6.3383613,-1.0780048,-0.21278107,-0.6193878,3.4178772,0.39620435
2.006,6.285096,-1.0916684,-0.24228287,-0.6327347,3.3526525,0.4279983
2.008,6.2329288,-1.1045254,-0.27237755,-0.64688504,3.285882,0.45965874
2.01,6.1818094,-1.1165515,-0.30305076,-0.66181904,3.2176135,0.4911418
2.012,6.131685,-1.1277721,-0.3342244,-0.6775201,3.147902,0.5224211
2.014,6.0826197,-1.1381667,-0.36587262,-0.6939619,3.0768049,0.55347157
2.016,6.03475,-1.1477275,-0.3980615,-0.7111219,3.0043807,0.5842722
2.018,5.98784,-1.1564791,-0.43063164,-0.7289735,2.9306967,0.614817
2.02,5.9419456,-1.1642797,-0.4634968,-0.7475003,2.8558178,0.6450943
2.022,5.8970714,-1.1712514,-0.49662864,-0.76667607,2.779812,0.6750914
2.024,5.85313,-1.1772342,-0.52997327,-0.78647476,2.702732,0.7047846
2.026,5.8099427,-1.1822408,-0.56329954,-0.80687,2.6246395,0.73413193
2.028,5.767618,-1.186167,-0.59663033,-0.82784283,2.5456076,0.763078
2.03,5.725912,-1.1890163,-0.6298137,-0.8493566,2.4657006,0.7915552
2.032,5.6847773,-1.1906981,-0.66260684,-0.8713701,2.3849835,0.8194971
2.034,5.6440105,-1.1911546,-0.69494486,-0.8938454,2.303539,0.84683913
2.036,5.6035976,-1.1904974,-0.72677964,-0.91673636,2.2214487,0.8735053
2.038,5.563274,-1.1885363,-0.757916,-0.9399912,2.1388047,0.89943564
2.04,5.523002,-1.1852524,-0.7882033,-0.9635531,2.0557065,0.92459685
2.042,5.482547,-1.1806386,-0.81756395,-0.9873707,1.9722784,0.94896317
2.044,5.4417644,-1.1746931,-0.84586906,-1.0113871,1.8886607,0.9725317
2.046,5.400553,-1.1673651,-0.8730811,-1.0355297,1.8050036,0.9953359
2.048,5.358641,-1.1586065,-0.8990904,-1.0597346,1.7214658,1.0174203
2.05,5.3159723,-1.1484184,-0.9238007,-1.0839344,1.6382065,1.0388418
2.052,5.2724032,-1.1366565,-0.94716,-1.1080704,1.5553975,1.0596797
2.054,5.2277994,-1.1233442,-0.96920955,-1.132069,1.4732145,1.0800037
2.056,5.182234,-1.1085302,-0.98982084,-1.1558758,1.3918053,1.0998974
2.058,5.1353,-1.0920061,-1.0091264,-1.1794155,1.3113049,1.119438
2.06,5.087106,-1.0738494,-1.0270822,-1.2026316,1.2318304,1.1387085
2.062,5.0374165,-1.0539813,-1.0437076,-1.2254562,1.153486,1.1577879
2.064,4.9861856,-1.0322909,-1.0592036,-1.2478455,1.0763445,1.1767349
2.066,4.933348,-1.00882,-1.0735219,-1.26976,1.0004419,1.195616
2.068,4.878868,-0.9834899,-1.0867771,-1.2911537,0.9257952,1.2144878
2.07,4.8226805,-0.95613796,-1.0990577,-1.3120085,0.852389,1.2333977
2.072,4.764907,-0.9268932,-1.1103169,-1.3322959,0.7801963,1.2523832
2.074,4.7054386,-0.89573085,-1.1207218,-1.3520052,0.70918137,1.2714659
2.076,4.644238,-0.8625269,-1.13023,-1.3711249,0.63930696,1.290658
2.078,4.58135,-0.8273283,-1.1388968,-1.3896396,0.57053494,1.3099618
2.08,4.5168734,-0.7901447,-1.1467261,-1.4075274,0.502849,1.329361
2.082,4.4508796,-0.7510354,-1.1536497,-1.4247636,0.43622956,1.3488379
2.084,4.3834553,-0.71005034,-1.1596196,-1.441326,0.37068185,1.3683786
2.086,4.31479,-0.667216,-1.1646218,-1.4571847,0.30623978,1.3879706
2.088,4.244845,-0.622682,-1.1685464,-1.4723125,0.24294531,1.4076089
2.09,4.173978,-0.57652605,-1.1713272,-1.4866794,0.18086585,1.4273115
2.092,4.1022773,-0.5290376,-1.1727679,-1.5002478,0.12009397,1.4471053
2.094,4.029944,-0.48023707,-1.1729281,-1.512982,0.060742468,1.4670187
2.096,3.9573739,-0.43043202,-1.1715977,-1.5248443,0.002947867,1.4870819
2.098,3.8845246,-0.37987348,-1.1687199,-1.5357882,-0.05313456,1.5072953
2.1,3.811767,-0.32877678,-1.1642376,-1.545762,-0.10734713,1.5276465
2.102,3.7390451,-0.27736756,-1.1580304,-1.5547131,-0.15952775,1.548091
2.104,3.666547,-0.22594932,-1.1499915,-1.5625706,-0.20950517,1.568551
2.106,3.5944428,-0.17477557,-1.1401732,-1.569272,-0.25713408,1.5889186
2.108,3.5229416,-0.12432617,-1.1285329,-1.574758,-0.3022694,1.6090902
2.11,3.4523015,-0.074786395,-1.115137,-1.5789495,-0.34479046,1.6289315
2.112,3.3826568,-0.026505023,-1.0999887,-1.5817902,-0.38459846,1.6483341
2.114,3.3136723,0.020424664,-1.0831815,-1.5832239,-0.4216102,1.6672069
2.116,3.2455997,0.065775335,-1.064699,-1.5831951,-0.45577493,1.6854817
2.118,3.1783628,0.10930914,-1.0447633,-1.5816499,-0.48704562,1.7031286
2.12,3.1119592,0.15083516,-1.0235645,-1.5785564,-0.51538074,1.7201449
2.122,3.0463476,0.19033459,-1.0012517,-1.5738958,-0.5407563,1.7365713
2.124,2.9814172,0.22783604,-0.9779825,-1.567641,-0.5631485,1.7524674
2.126,2.9170406,0.26332608,-0.9539845,-1.5597907,-0.5825577,1.7679367
2.128,2.8530605,0.29700458,-0.9294763,-1.550335,-0.59897435,1.7831242
2.13,2.7894225,0.32883394,-0.9046555,-1.5392998,-0.6124215,1.7981735
2.132,2.725975,0.35926548,-0.87971485,-1.526711,-0.6228996,1.8132606
2.134,2.6625855,0.3884674,-0.8549431,-1.5125854,-0.6303723,1.828578
2.136,2.599133,0.41674078,-0.83059686,-1.4969423,-0.6347958,1.8442985
2.138,2.5353472,0.4443738,-0.80680084,-1.4798151,-0.6361369,1.8605984
2.14,2.4713037,0.47171897,-0.7838681,-1.4612223,-0.6343651,1.8776473
2.142,2.406785,0.49912795,-0.7621731,-1.4411573,-0.6294307,1.8955882
2.144,2.3419068,0.52697474,-0.74181634,-1.4195921,-0.6212291,1.9144932
2.146,2.276585,0.555654,-0.7230678,-1.3965222,-0.6096524,1.9343795
2.148,2.210811,0.58541244,-0.7063312,-1.3719535,-0.59462476,1.9552062
2.15,2.1445904,0.61668986,-0.69183314,-1.3459228,-0.5761021,1.9769037
2.152,2.0779533,0.64969075,-0.6798737,-1.3184806,-0.55404717,1.9993646
2.154,2.0110266,0.6846901,-0.670761,-1.2896984,-0.5284647,2.0224502
2.156,1.9437559,0.721979,-0.6647549,-1.2597002,-0.49943084,2.045993
2.158,1.8762709,0.76171046,-0.6621349,-1.2286322,-0.467094,2.0698152
2.16,1.8087358,0.80410016,-0.6630657,-1.196676,-0.431664,2.0937643
2.162,1.7411729,0.8493074,-0.6679073,-1.164036,-0.39343295,2.1176708
2.164,1.6737632,0.8974532,-0.6766424,-1.1309427,-0.35274965,2.1414006
2.166,1.6066222,0.94867224,-0.6894947,-1.097626,-0.31002918,2.164852
2.168,1.539918,1.0030309,-0.7065024,-1.0642853,-0.26572585,2.187976
2.17,1.4736562,1.0605812,-0.727578,-1.0311282,-0.22031683,2.2107592
2.172,1.4081426,1.121355,-0.7528507,-0.99831915,-0.17430303,2.2332406
2.174,1.3432237,1.1854432,-0.78219837,-0.9659777,-0.12817934,2.255488
2.176,1.2790015,1.2528249,-0.81559336,-0.93418175,-0.0824109,2.2775943
2.178,1.2155429,1.3235093,-0.8527698,-0.9029796,-0.037423313,2.2996504
2.18,1.1529149,1.3974106,-0.8936283,-0.87238824,0.0064044893,2.3217244
2.182,1.091081,1.4745193,-0.93795264,-0.8424096,0.04875183,2.3438406
2.184,1.0301683,1.5547438,-0.9854032,-0.813024,0.08936435,2.3659916
2.186,0.97023857,1.6378503,-1.0357056,-0.7842166,0.12802136,2.388111
2.188,0.91131335,1.7237769,-1.0886042,-0.7560077,0.1645222,2.4100747
2.19,0.8533814,1.8123097,-1.1438023,-0.72842646,0.1987383,2.4317248
2.192,0.79628646,1.9032172,-1.2010499,-0.7015281,0.23056984,2.4528654
2.194,0.7400316,1.996322,-1.2602491,-0.6753874,0.2599268,2.4732862
2.196,0.6844581,2.0913088,-1.3210658,-0.65012455,0.28668085,2.4927921
2.198,0.629523,2.188028,-1.3833177,-0.6258616,0.31067574,2.5112183
2.2,0.5748186,2.28623,-1.446909,-0.60269356,0.33176118,2.5284383
2.202,0.520249,2.3856711,-1.5116673,-0.58070344,0.34980386,2.544341
2.204,0.46539992,2.4861202,-1.5774378,-0.55996627,0.36464757,2.5588408
2.206,0.40979165,2.587351,-1.6439936,-0.54054606,0.37613916,2.5718915
2.208,0.35292566,2.6892817,-1.7109531,-0.52249485,0.38411587,2.5834816
2.21,0.29439288,2.7919421,-1.7781875,-0.50583375,0.38845,2.5936477
2.212,0.23353106,2.895442,-1.8454082,-0.4905786,0.3890342,2.6024365
2.214,0.16832861,3.0004556,-1.9115148,-0.47670868,0.38578442,2.6099057
2.216,0.096447475,3.1079807,-1.9765564,-0.46419537,0.378663,2.6161478
2.218,0.01725988,3.218246,-2.0398738,-0.45297205,0.36768228,2.6212418
2.22,-0.06922901,3.3313239,-2.100666,-0.4429587,0.35290137,2.6252651
2.222,-0.16358246,3.4475183,-2.1578364,-0.43408126,0.33441496,2.628266
2.224,-0.26736024,3.5669954,-2.2101989,-0.42622334,0.31236687,2.630294
2.226,-0.38452828,3.6911147,-2.2565598,-0.4192717,0.2869437,2.6313848
2.228,-0.5195547,3.8220077,-2.2950063,-0.41310483,0.25835544,2.6315415
2.23,-0.67550194,3.9612942,-2.3235807,-0.4075995,0.22682425,2.6307569
2.232,-0.85471547,4.1098347,-2.3403506,-0.4026351,0.19255662,2.6290085
2.234,-1.059276,4.2684674,-2.3431828,-0.39810464,0.15574586,2.6262624
2.236,-1.291737,4.4382815,-2.330144,-0.39393145,0.11655277,2.6225398
2.238,-1.5546223,4.6206346,-2.2995393,-0.39005348,0.07511762,2.6179433
2.24,-1.8509325,4.816979,-2.2486825,-0.3864147,0.031561464,2.6126375
2.242,-2.18406,5.029105,-2.1748326,-0.3829474,-0.0140251815,2.6068482
2.244,-2.5558548,5.258329,-2.076388,-0.37957594,-0.061705887,2.6008418
2.246,-2.9681156,5.5060854,-1.9520135,-0.37611172,-0.111819655,2.5950072
2.248,-3.4231741,5.7740455,-1.8004994,-0.37228584,-0.16448006,2.5898752
2.25,-3.9221177,6.062748,-1.6206064,-0.36754832,-0.21929932,2.5860007
2.252,-4.4653525,6.372193,-1.4106357,-0.36107448,-0.27560082,2.5837765
2.254,-5.0529957,6.7022886,-1.1695135,-0.3519842,-0.3326357,2.5834763
2.256,-5.683888,7.052302,-0.8971889,-0.33927858,-0.38935015,2.5853152
2.258,-6.355938,7.4212213,-0.5944791,-0.3216628,-0.44408777,2.5891898
2.26,-7.066123,7.807655,-0.26368558,-0.29754582,-0.49448553,2.594504
2.262,-7.810383,8.209896,0.09244239,-0.26508862,-0.53738123,2.6002154
2.264,-8.583127,8.6255,0.47040296,-0.22235492,-0.5688725,2.604892
2.266,-9.377533,9.051417,0.8656943,-0.16748935,-0.58434206,2.606788
2.268,-10.186171,9.484169,1.2728407,-0.098901734,-0.57863474,2.604063
2.27,-11.000479,9.919778,1.6852276,-0.01551877,-0.54647374,2.594978
2.272,-11.810778,10.353806,2.095381,0.083073676,-0.48282045,2.5780318
2.274,-12.606443,10.781483,2.494733,0.19665034,-0.383264,2.5522568
2.276,-13.37656,11.197915,2.874195,0.32420683,-0.2445449,2.517483
2.278,-14.110222,11.598162,3.2242763,0.46396273,-0.06492719,2.474303
2.28,-14.796648,11.977324,3.535532,0.61359155,0.15537408,2.424138
2.282,-15.42549,12.330509,3.7986991,0.7703968,0.41406792,2.3692586
2.284,-15.986889,12.65293,4.0052304,0.93158484,0.70694256,2.31255
2.286,-16.472208,12.940231,4.147594,1.0945009,1.02825,2.257257
2.288,-16.873941,13.188433,4.219685,1.2567453,1.3709987,2.2065864
2.29,-17.186356,13.394091,4.217038,1.416069,1.7270737,2.1631331
2.292,-17.40535,13.554408,4.137038,1.5702631,2.0874326,2.128357
2.294,-17.528475,13.667168,3.9789557,1.716999,2.4424486,2.1023278
2.296,-17.555588,13.730748,3.7443302,1.8536274,2.7821255,2.0834785
2.298,-17.488115,13.74432,3.4369397,1.9770784,3.0964084,2.0686586
2.3,-17.329361,13.707613,3.0624804,2.083836,3.3754692,2.0533323
2.302,-17.08428,13.621022,2.6287413,2.17014,3.6097145,2.0320914
2.304,-16.759249,13.4855995,2.1447926,2.2321868,3.7903295,1.9993416
2.306,-16.362383,13.303024,1.6213608,2.2665591,3.9101136,1.9499881
2.308,-15.902733,13.075424,1.0703549,2.2707617,3.964099,1.8798053
2.31,-15.389217,12.805469,0.5036211,2.2433326,3.9495993,1.7858453
2.312,-14.83196,12.496351,-0.06637287,2.1838768,3.866261,1.6668503
2.314,-14.241143,12.151818,-0.6276095,2.0932155,3.7162135,1.5233434
2.316,-13.626458,11.776019,-1.1687946,1.9733609,3.5040329,1.3573287
2.318,-12.997144,11.373308,-1.6798499,1.8274636,3.2364688,1.1720188
2.32,-12.362242,10.94823,-2.1516047,1.6595548,2.9220119,0.9715079
2.322,-11.729404,10.505584,-2.5767932,1.4742994,2.5703967,0.76041764
2.324,-11.104626,10.050021,-2.9504251,1.2767519,2.1920877,0.54361403
2.326,-10.493423,9.586147,-3.268042,1.0720122,1.7976431,0.32603645
2.328,-9.901701,9.1192875,-3.5279381,0.86491615,1.3971435,0.11236702
2.33,-9.334535,8.654408,-3.7300975,0.65996736,0.99983704,-0.09314823
2.332,-8.794678,8.196072,-3.87655,0.46116877,0.61377853,-0.28672928
2.334,-8.283077,7.748406,-3.9701455,0.2717671,0.2456688,-0.46524483
2.336,-7.7987747,7.3144865,-4.01478,0.09418525,-0.09932168,-0.62642646
2.338,-7.340473,6.8964405,-4.0157585,-0.07015728,-0.41765875,-0.76899606
2.34,-6.908339,6.4968834,-3.9787388,-0.22082111,-0.7075572,-0.8926437
2.342,-6.502827,6.1185956,-3.909471,-0.35816652,-0.9686534,-0.997963
2.344,-6.123755,5.763578,-3.8136144,-0.48313147,-1.2015426,-1.086336
2.346,-5.770255,5.4327536,-3.6965885,-0.5970571,-1.4075857,-1.1597943
2.348,-5.4409814,5.126334,-3.5633156,-0.70146096,-1.5888119,-1.2209226
2.35,-5.134074,4.843708,-3.4190278,-0.7978162,-1.7476168,-1.2726343
2.352,-4.84745,4.5834575,-3.2682428,-0.88737756,-1.8865687,-1.3179737
2.354,-4.5804844,4.344196,-3.1138885,-0.97110474,-2.0083036,-1.3598981
2.356,-4.331844,4.123992,-2.9582567,-1.0496061,-2.1154232,-1.4010513
2.358,-4.0997715,3.9203253,-2.803584,-1.1231711,-2.2103279,-1.4435267
2.36,-3.8833277,3.7312186,-2.6516423,-1.1917436,-2.2950785,-1.4887263
2.362,-3.6817524,3.5547693,-2.504518,-1.2549778,-2.3713822,-1.5372455
2.364,-3.4939606,3.388517,-2.3634613,-1.3123366,-2.4405143,-1.5890237
2.366,-3.319276,3.2302089,-2.2285285,-1.3632641,-2.5032675,-1.6434767
2.368,-3.1570485,3.0775309,-2.099456,-1.4072614,-2.560011,-1.6995931
2.37,-3.0067594,2.9283512,-1.9754612,-1.4439102,-2.6107225,-1.756077
2.372,-2.8678048,2.780782,-1.8561656,-1.4729784,-2.6549926,-1.8115364
2.374,-2.7399914,2.6336474,-1.741355,-1.4944307,-2.6921167,-1.8645967
2.376,-2.6229959,2.4860508,-1.6306593,-1.5084125,-2.7211714,-1.9140087
2.378,-2.5160115,2.3376837,-1.5238104,-1.5152202,-2.7411127,-1.9586908
2.38,-2.4188797,2.1885788,-1.4203118,-1.5152208,-2.750846,-1.997705
2.382,-2.331107,2.0391145,-1.3195796,-1.508816,-2.749353,-2.030266
2.384,-2.2525208,1.8901613,-1.2210827,-1.4964076,-2.7357848,-2.055725
2.386,-2.1827056,1.7424673,-1.1242828,-1.4783914,-2.7095594,-2.073568
2.388,-2.1208808,1.5970504,-1.0287207,-1.4550965,-2.670387,-2.0834272
2.39,-2.0663562,1.4550098,-0.9342314,-1.4268421,-2.618324,-2.0850832
2.392,-2.0183446,1.3176597,-0.84057224,-1.3938665,-2.5538025,-2.0784752
2.394,-1.9762536,1.186285,-0.7477765,-1.3564141,-2.4774919,-2.0638354
2.396,-1.9395517,1.0620272,-0.65592957,-1.3148148,-2.3903344,-2.0417218
2.398,-1.907564,0.94585776,-0.56542945,-1.2694254,-2.293518,-2.0129619
2.4,-1.8795841,0.8386791,-0.4765425,-1.2206436,-2.188347,-1.9786217
2.402,-1.8550391,0.7409501,-0.3896122,-1.1689186,-2.0761747,-1.9399562
2.404,-1.8336177,0.6530574,-0.30479616,-1.1147006,-1.9583745,-1.8983083
2.406,-1.8144433,0.5750749,-0.22260222,-1.0584229,-1.8362688,-1.8550141
2.408,-1.7971362,0.50693583,-0.14337093,-1.0004765,-1.7110605,-1.8112829
2.41,-1.7812763,0.44841743,-0.067481354,-0.94118994,-1.583835,-1.7681259
2.412,-1.7663819,0.39921728,0.004704118,-0.88082445,-1.4555607,-1.7263163
2.414,-1.752198,0.35876474,0.07307367,-0.81961566,-1.3270869,-1.6863719
2.416,-1.7381165,0.3263886,0.13706535,-0.75775355,-1.1991297,-1.6485626
2.418,-1.7237219,0.30157626,0.19611317,-0.6953627,-1.0723047,-1.6128664
2.42,-1.7091445,0.28350925,0.25038496,-0.632493,-0.9471246,-1.5790508
2.422,-1.6937627,0.27146122,0.2993191,-0.5691925,-0.82397485,-1.5468228
2.424,-1.677187,0.26457042,0.342798,-0.50552946,-0.70316637,-1.5158694
2.426,-1.6593293,0.2620613,0.38057163,-0.4415924,-0.5849619,-1.4858862
2.428,-1.639948,0.2631186,0.41270927,-0.3774817,-0.46958768,-1.4566257
2.43,-1.6186751,0.2671119,0.4390114,-0.31334117,-0.3572429,-1.4278892
2.432,-1.5953509,0.27337828,0.4595597,-0.24930629,-0.2481088,-1.3995337
2.434,-1.569892,0.28136337,0.47447512,-0.18553007,-0.14235383,-1.3714964
2.436,-1.5419365,0.29065514,0.48396766,-0.12213469,-0.040130585,-1.3437517
2.438,-1.511535,0.30096883,0.4882679,-0.059209697,0.058441386,-1.3163036
2.44,-1.4787605,0.31228173,0.48771232,0.003190551,0.15329373,-1.2891724
2.442,-1.4437157,0.32412595,0.482768,0.06505875,0.24441372,-1.2623968
2.444,-1.4062699,0.33628488,0.47356996,0.12645365,0.33184814,-1.2360473
2.446,-1.3663094,0.3483063,0.46019253,0.18746066,0.41571724,-1.2101692
2.448,-1.3242328,0.3600237,0.44322097,0.24819902,0.49620736,-1.1848251
2.45,-1.2799567,0.3711514,0.42288613,0.3088311,0.57356256,-1.1600518
2.452,-1.2339141,0.38141227,0.39940506,0.36949345,0.64805156,-1.1358771
2.454,-1.1862836,0.39054167,0.37296367,0.43031162,0.7199658,-1.112297
2.456,-1.1372889,0.39837575,0.3439297,0.4914027,0.7895927,-1.089261
2.458,-1.0871788,0.40460366,0.31246504,0.55284303,0.85720176,-1.0666754
2.46,-1.0363525,0.40920562,0.27875474,0.6146565,0.92303306,-1.0443931
2.462,-0.98505914,0.4120701,0.24300939,0.676824,0.98729587,-1.0222309
2.464,-0.9335723,0.41323197,0.20555916,0.739295,1.0501573,-0.9999695
2.466,-0.88225746,0.41272694,0.16640943,0.8019778,1.1117362,-0.97735167
2.468,-0.83123475,0.41057056,0.12575404,0.864749,1.1721218,-0.9540965
2.47,-0.78090256,0.40694615,0.083655104,0.9274519,1.2313741,-0.92994463
2.472,-0.73140115,0.4019264,0.0402465,0.98991853,1.2895005,-0.9046366
2.474,-0.6828537,0.3956583,-0.004363045,1.0519737,1.3464667,-0.8779445
2.476,-0.6354405,0.38834924,-0.050262295,1.1134284,1.4021868,-0.8496863
2.478,-0.5893469,0.3801729,-0.09745636,1.1740828,1.4565325,-0.8197276
2.48,-0.54435027,0.37122318,-0.145891,1.2337469,1.5093261,-0.78799593
2.482,-0.50050926,0.36167714,-0.19555688,1.2922354,1.5603458,-0.75447357
2.484,-0.45791897,0.35160914,-0.2464278,1.3493607,1.6093205,-0.7192304
2.486,-0.4163901,0.34127656,-0.2985798,1.4049317,1.6559517,-0.68240106
2.488,-0.37588188,0.33064577,-0.3518385,1.4587713,1.6999091,-0.6441852
2.49,-0.3360772,0.31978476,-0.40627146,1.5106895,1.7408514,-0.6048379
2.492,-0.29705602,0.30888575,-0.4618057,1.5605025,1.7783979,-0.5646698
2.494,-0.25858057,0.29778585,-0.5181973,1.6080266,1.8121756,-0.5240254
2.496,-0.22051832,0.2866911,-0.57542175,1.6530669,1.8418002,-0.4832584
2.498,-0.18266258,0.27538538,-0.6332603,1.6954343,1.8669027,-0.4427001
2.5,-0.14485702,0.26391327,-0.69157743,1.7349498,1.8871458,-0.40268612
2.502,-0.10708052,0.25204718,-0.75009626,1.7714514,1.9021935,-0.36349273
2.504,-0.069198444,0.23976722,-0.80853546,1.8047811,1.9117615,-0.32536685
2.506,-0.03099928,0.22697876,-0.86669075,1.8348149,1.9156317,-0.2884937
2.508,0.007536307,0.21348624,-0.924159,1.8614488,1.9136121,-0.2530183
2.51,0.046441503,0.1991689,-0.9806071,1.8845985,1.9055741,-0.21904163
2.512,0.08579167,0.18402219,-1.0356987,1.904205,1.8914715,-0.1866247
2.514,0.12554595,0.16804965,-1.0891864,1.920238,1.8713236,-0.1558016
2.516,0.1656197,0.15118438,-1.1406089,1.9326911,1.845217,-0.12658533
2.518,0.2059589,0.133558,-1.1896883,1.9415886,1.8133086,-0.09897295
2.52,0.24639854,0.11505997,-1.2360598,1.9469763,1.7758224,-0.07297253
2.522,0.28694367,0.095884115,-1.279525,1.9489226,1.7330184,-0.048577785
2.524,0.3273363,0.076103896,-1.3198024,1.9475325,1.685197,-0.02576916
2.526,0.36756024,0.05597338,-1.3566134,1.9429199,1.6326932,-0.004527673
2.528,0.40745097,0.03551376,-1.3898767,1.9352249,1.57586,0.015182003
2.53,0.44666326,0.015159726,-1.4193946,1.9246078,1.5150466,0.0333952
2.532,0.4851545,-0.0050043464,-1.4450493,1.911251,1.4506061,0.05016482
2.534,0.522704,-0.02468741,-1.4667954,1.8953228,1.3828743,0.065552965
2.536,0.55918,-0.043666124,-1.4846798,1.8770161,1.312169,0.07962048
2.538,0.5944527,-0.061580718,-1.4986509,1.8565167,1.2388,0.09245658
2.54,0.6282107,-0.07819238,-1.508793,1.8340086,1.1630437,0.10412249
2.542,0.66037816,-0.09329462,-1.5151653,1.8096586,1.0851346,0.11469051
2.544,0.6908693,-0.1066255,-1.517722,1.7836277,1.0053093,0.12424143
2.546,0.71953934,-0.11789766,-1.5165797,1.7560776,0.9237841,0.13283324
2.548,0.74628,-0.12702739,-1.5117933,1.7271466,0.840744,0.14053126
2.55,0.77098995,-0.13385388,-1.5034828,1.6969748,0.75636566,0.14738047
2.552,0.7936161,-0.13818014,-1.4916699,1.6656828,0.6708141,0.153425
2.554,0.81408703,-0.1399531,-1.4764854,1.6333905,0.5842465,0.15870759
2.556,0.83240175,-0.13908294,-1.4578918,1.6002117,0.49681103,0.16324942
2.558,0.84873855,-0.13550067,-1.436024,1.5662473,0.40864778,0.16708778
2.56,0.86283565,-0.12914968,-1.4109147,1.5316079,0.31989408,0.17025274
2.562,0.8750074,-0.12011096,-1.382653,1.4964004,0.23070756,0.17279276
2.564,0.8851111,-0.108398706,-1.3511695,1.4607254,0.14123073,0.17474519
2.566,0.8932497,-0.09404829,-1.3165578,1.4246899,0.05160957,0.17616081
2.568,0.89955205,-0.07723054,-1.2788255,1.3883998,-0.037995666,0.17710188
2.57,0.9040082,-0.058084816,-1.2380677,1.3519614,-0.12742987,0.17763612
2.572,0.90670264,-0.03672141,-1.1942638,1.3154765,-0.21652491,0.17781782
2.574,0.9077819,-0.013350636,-1.1474124,1.2790515,-0.3051049,0.17772281
2.576,0.90737766,0.011745393,-1.0976152,1.2427905,-0.3929905,0.1774036
2.578,0.9055152,0.038415015,-1.0448421,1.2067833,-0.47999492,0.17690839
2.58,0.90240365,0.06626806,-0.9892319,1.1711484,-0.565929,0.17627741
2.582,0.89808464,0.09512019,-0.9309053,1.135988,-0.6505995,0.17553283
2.584,0.892594,0.124691755,-0.86985344,1.1014048,-0.7338023,0.17469667
2.586,0.8860812,0.15456861,-0.80620754,1.0674988,-0.81534934,0.17376372
2.588,0.8787024,0.18453541,-0.7400974,1.0343913,-0.8950636,0.17271861
2.59,0.87040013,0.21430118,-0.6716229,1.0021678,-0.9727825,0.17154258
2.592,0.8612483,0.24357647,-0.60103637,0.97092605,-1.0483785,0.1702083
2.594,0.85142845,0.27213898,-0.5284645,0.9407402,-1.1217252,0.16870609
2.596,0.8409373,0.29963267,-0.4541476,0.9116833,-1.1927533,0.1670286
2.598,0.8298025,0.3259114,-0.3782723,0.8837972,-1.2614331,0.16518608
2.6,0.81806844,0.35081434,-0.30095154,0.8570928,-1.3277409,0.16324109
2.602,0.80592877,0.37413767,-0.22244264,0.8315689,-1.3916945,0.16126364
2.604,0.7932614,0.39584866,-0.1430765,0.8072066,-1.4533098,0.15934646
2.606,0.7802254,0.41586223,-0.06291122,0.78397644,-1.5126086,0.1576184
2.608,0.7667922,0.4341444,0.017739393,0.7618309,-1.5696195,0.15620562
2.61,0.7530918,0.450696,0.09874238,0.7407191,-1.6243448,0.15524131
2.612,0.7391125,0.46565306,0.17980307,0.7205989,-1.6768034,0.15483409
2.614,0.72488904,0.47905844,0.26072818,0.7014301,-1.7269894,0.15508384
2.616,0.71048224,0.491022,0.34144157,0.6831758,-1.7748976,0.15605634
2.618,0.6958709,0.50177884,0.42172697,0.66581845,-1.8205116,0.15779978
2.62,0.6810554,0.51141405,0.5014094,0.64935374,-1.8638223,0.16034788
2.622,0.6660838,0.5201727,0.58038116,0.63378054,-1.9048289,0.16368854
2.624,0.6512329,0.52815163,0.65856355,0.619117,-1.9435241,0.16779506
2.626,0.63621277,0.535663,0.73580635,0.6053749,-1.9799196,0.17263359
2.628,0.62125903,0.54276717,0.8119609,0.5925802,-2.0140274,0.17815894
2.63,0.6063935,0.5498217,0.88708293,0.5807523,-2.045858,0.18432242
2.632,0.59151363,0.5568765,0.96098816,0.56991965,-2.075441,0.19107133
2.634,0.5767133,0.5641877,1.0337292,0.56009334,-2.1028044,0.19834095
2.636,0.56201035,0.5718043,1.1051829,0.55129194,-2.1279862,0.20609051
2.638,0.54748183,0.5800135,1.1753815,0.5435172,-2.1510358,0.21426034
2.64,0.5332168,0.5887492,1.244324,0.536769,-2.171996,0.22280645
2.642,0.5190845,0.5982699,1.3119798,0.5310326,-2.1909218,0.23169398
2.644,0.5052941,0.60857254,1.3782665,0.5263015,-2.2078717,0.24088252
2.646,0.49177676,0.61976373,1.4432914,0.5225618,-2.2229013,0.25033432
2.648,0.47842383,0.6319285,1.5070151,0.51979256,-2.236091,0.26002342
2.65,0.46541312,0.6450412,1.5694258,0.5179569,-2.2474947,0.2699229
2.652,0.4526742,0.65925145,1.6305896,0.5170371,-2.2571695,0.27999073
2.654,0.44015953,0.67457116,1.6905665,0.5170107,-2.2651796,0.29019874
2.656,0.42794058,0.690983,1.749345,0.5178509,-2.2715814,0.30051976
2.658,0.41595274,0.7086353,1.8069584,0.5195144,-2.276443,0.31093872
2.66,0.4042204,0.7274646,1.863491,0.5219768,-2.2798178,0.32141614
2.662,0.39278308,0.7474978,1.9189601,0.525199,-2.2817652,0.33194703
2.664,0.38163245,0.76881367,1.973456,0.52913886,-2.2823539,0.34251374
2.666,0.37067953,0.79139745,2.0269952,0.53375673,-2.281636,0.35312206
2.668,0.3598883,0.8152287,2.079667,0.5390007,-2.2796855,0.3637793
2.67,0.3494559,0.8402682,2.131479,0.5448254,-2.2765505,0.3744874
2.672,0.3392425,0.86650115,2.1825495,0.5511774,-2.272294,0.38526607
2.674,0.3293296,0.89393896,2.232852,0.5580049,-2.2669826,0.39610922
2.676,0.3196427,0.92246795,2.2824306,0.5652661,-2.2606559,0.40703794
2.678,0.3102663,0.9520986,2.3313622,0.5729066,-2.253372,0.41805664
2.68,0.3012384,0.982694,2.3797247,0.58088845,-2.2451758,0.42914453
2.682,0.29258636,1.0141965,2.427436,0.58917826,-2.236109,0.44027692
2.684,0.28429133,1.0465027,2.4744847,0.5977606,-2.2262185,0.4514101
2.686,0.27617937,1.0794696,2.5210345,0.6066114,-2.2155328,0.4624871
2.688,0.26850942,1.1129282,2.567055,0.6157254,-2.2041063,0.47345394
2.69,0.2611172,1.146855,2.6125853,0.6251127,-2.1919818,0.48423827
2.692,0.2541025,1.1809655,2.65777,0.63478273,-2.179198,0.4947704
2.694,0.24741924,1.2151157,2.7024837,0.6447417,-2.1658113,0.504985
2.696,0.24103114,1.2492164,2.7468014,0.6550025,-2.151864,0.5148344
2.698,0.23492414,1.2830616,2.7908056,0.66556334,-2.1373966,0.5242882
2.7,0.22910312,1.3164616,2.8343709,0.67641455,-2.1224446,0.5333386
2.702,0.22367369,1.3492361,2.8776357,0.68755144,-2.1070287,0.5419891
2.704,0.21852086,1.381239,2.9205995,0.69896007,-2.0911567,0.55026424
2.706,0.21359988,1.4124511,2.9632766,0.7106043,-2.074852,0.55820906
2.708,0.20881355,1.4427012,3.0056229,0.7224541,-2.0581045,0.56585115
2.71,0.20440246,1.4717281,3.0475807,0.73447573,-2.0409064,0.57323045
2.712,0.20007208,1.4995184,3.0891962,0.7466462,-2.0232472,0.58037126
2.714,0.19608179,1.5259013,3.1305487,0.7589266,-2.0051262,0.58730537
2.716,0.19220695,1.5507617,3.1714969,0.7713014,-1.9865327,0.5940354
2.718,0.18861935,1.5741694,3.212095,0.78374785,-1.9674683,0.6005714
2.72,0.18520273,1.5960398,3.25221,0.7962574,-1.9479505,0.60691583
2.722,0.18197109,1.6162522,3.2919397,0.8088349,-1.9279842,0.6130564
2.724,0.17891103,1.6348646,3.331255,0.821482,-1.9076055,0.6189928
2.726,0.17598908,1.6518402,3.3699877,0.83420545,-1.8868247,0.62472343
2.728,0.17324468,1.6671896,3.4082625,0.8470033,-1.8656707,0.63025105
2.73,0.17075041,1.6808909,3.4459548,0.85988176,-1.8441782,0.6355732
2.732,0.16822603,1.6930404,3.4829853,0.8728389,-1.8223644,0.6407106
2.734,0.16571876,1.7037125,3.5193958,0.8858628,-1.8002548,0.6456729
2.736,0.16338915,1.7129502,3.5552714,0.8989386,-1.7778751,0.650472
2.738,0.16095245,1.7209449,3.5904503,0.9120402,-1.7552364,0.6551244
2.74,0.15847325,1.7276322,3.6248608,0.9251368,-1.7323647,0.65964687
2.742,0.15580702,1.7332757,3.658556,0.9382016,-1.7092656,0.6640441
2.744,0.15300965,1.737914,3.6914992,0.9511876,-1.6859542,0.6683335
2.746,0.15007824,1.741782,3.7236123,0.96405995,-1.662456,0.6725259
2.748,0.14672509,1.7450497,3.7548609,0.97678673,-1.638783,0.6766373
2.75,0.14300942,1.747914,3.7851815,0.9893332,-1.6149604,0.68067753
2.752,0.13881814,1.7505283,3.814589,1.0016679,-1.5910156,0.68465656
2.754,0.13407862,1.7531086,3.8431866,1.0137568,-1.5669756,0.6885969
2.756,0.12887055,1.7559069,3.8708055,1.0255615,-1.542879,0.6925205
2.758,0.12313557,1.7590729,3.8974452,1.0370556,-1.5187671,0.69645643
2.76,0.116817415,1.7629169,3.9231374,1.0482146,-1.4946806,0.7004239
2.762,0.10994083,1.7675283,3.9478898,1.0590105,-1.4706854,0.7044478
2.764,0.10243672,1.7732537,3.971558,1.0694202,-1.4468317,0.70856774
2.766,0.09421438,1.7800909,3.994259,1.0794108,-1.4231858,0.71281916
2.768,0.085336566,1.7883208,4.0159388,1.0889635,-1.3998142,0.71723336
2.77,0.07588196,1.7981005,4.0366783,1.0980525,-1.3767914,0.72185224
2.772,0.06574917,1.8095938,4.0565143,1.1066589,-1.3541924,0.7267144
2.774,0.055037677,1.8227731,4.0754437,1.1147444,-1.3320932,0.7318333
2.776,0.04378283,1.8377923,4.0935287,1.1222752,-1.3105763,0.7372443
2.778,0.032051146,1.8545777,4.110756,1.1292194,-1.2897097,0.7429438
2.78,0.019815981,1.87322,4.127289,1.1355433,-1.2695675,0.74891317
2.782,0.0071772337,1.8936654,4.1430883,1.1412059,-1.2502099,0.7551117
2.784,-0.0058428645,1.9157501,4.1581774,1.1461823,-1.2316984,0.7614746
2.786,-0.019104183,1.9394556,4.1727424,1.1504539,-1.2140869,0.76790404
2.788,-0.032739103,1.9645646,4.186753,1.1540096,-1.1974189,0.7742971
2.79,-0.046656787,1.9909396,4.2003713,1.1568426,-1.1817324,0.78052306
2.792,-0.06083888,2.0183609,4.213635,1.158959,-1.1670626,0.78645325
2.794,-0.07537395,2.0466259,4.226595,1.1603875,-1.1534389,0.79195905
2.796,-0.0900172,2.0755146,4.239274,1.1611543,-1.1408854,0.79693204
2.798,-0.10496628,2.104869,4.2518616,1.1612923,-1.1294203,0.8012782
2.8,-0.120152354,2.1344857,4.264394,1.1608391,-1.1190522,0.8049588
2.802,-0.13551569,2.1641765,4.2768836,1.159827,-1.1097971,0.80794847
2.804,-0.15113664,2.19375,4.2894654,1.1582763,-1.1016594,0.8102623
2.806,-0.16699147,2.2230105,4.302141,1.1562082,-1.0946305,0.81196785
2.808,-0.18302834,2.2518718,4.315004,1.1536381,-1.0887135,0.8131454
2.81,-0.199417,2.2802322,4.3281345,1.1505649,-1.0838896,0.81390584
2.812,-0.21609008,2.30807,4.341524,1.1469798,-1.0801454,0.814376
2.814,-0.23303616,2.3352976,4.3552265,1.1428688,-1.0774395,0.81468165
2.816,-0.25036085,2.361854,4.3692985,1.1382222,-1.075735,0.8149358
2.818,-0.26797605,2.3877897,4.383741,1.1330235,-1.0749924,0.8152268
2.82,-0.28593314,2.4131231,4.39863,1.1272602,-1.0751623,0.81562865
2.822,-0.30420184,2.437849,4.4139824,1.1209326,-1.0761931,0.81619644
2.824,-0.3228073,2.4621105,4.4297476,1.1140412,-1.0780288,0.8169316
2.826,-0.34171593,2.485806,4.4459944,1.1065863,-1.080608,0.81781816
2.828,-0.36101615,2.5090737,4.462633,1.0985867,-1.0838898,0.81882197
2.83,-0.38059163,2.5317981,4.479887,1.0900555,-1.0878268,0.8198743
2.832,-0.4003681,2.554109,4.497577,1.0810153,-1.0923953,0.8209058
2.834,-0.4202683,2.5759087,4.515768,1.071488,-1.0975673,0.82183313
2.836,-0.4402907,2.5972476,4.5345507,1.061509,-1.1033306,0.82258236
2.838,-0.46047473,2.6181443,4.553814,1.0511044,-1.1096727,0.82308483
2.84,-0.48065388,2.6386554,4.573727,1.0402997,-1.1165866,0.82329303
2.842,-0.500713,2.65863,4.594187,1.0348488,-1.1257592,0.8231755
2.844,-0.52058446,2.6779573,4.6152606,1.0270417,-1.1348703,0.822718
2.846,-0.54034734,2.6967158,4.636853,1.0207129,-1.1450119,0.82192636
2.848,-0.5598817,2.7148135,4.659087,1.0163728,-1.1562716,0.8208097
2.85,-0.5790068,2.7323012,4.6818905,1.0144576,-1.1687138,0.819381
2.852,-0.5977012,2.7490592,4.705357,1.0152347,-1.182319,0.8176614
2.854,-0.61585283,2.7651544,4.729371,1.0186385,-1.1969693,0.8156647
2.856,-0.6334797,2.7804759,4.7540455,1.0242049,-1.212409,0.81341004
2.858,-0.65033746,2.7950315,4.7793646,1.0309886,-1.2282565,0.8109126
2.86,-0.6663077,2.8086805,4.8043375,1.0375932,-1.2439923,0.8081796
2.862,-0.6814735,2.8215718,4.829666,1.0423187,-1.2590102,0.80522823
2.864,-0.695783,2.8337047,4.8551607,1.0434052,-1.2727045,0.8020785
2.866,-0.7092581,2.8450842,4.880873,1.039294,-1.2845546,0.79873943
2.868,-0.72183824,2.8557627,4.9066734,1.0289344,-1.2941853,0.7952349
2.87,-0.73356307,2.8657274,4.932473,1.0119618,-1.3014475,0.7915843
2.872,-0.7444066,2.87505,4.9581175,0.98878884,-1.3064344,0.78780216
2.874,-0.7543237,2.883652,4.983582,0.96053106,-1.3094466,0.78389955
2.876,-0.76333547,2.8917336,5.008749,0.9287912,-1.3109424,0.77989084
2.878,-0.771454,2.899203,5.0335655,0.8953873,-1.3114517,0.77580214
2.88,-0.7788321,2.9061067,5.0578775,0.8620649,-1.3114882,0.771643
2.882,-0.7854817,2.9124603,5.081595,0.8302663,-1.3114566,0.7674145
2.884,-0.79145694,2.918349,5.104674,0.80098057,-1.311639,0.7631313
2.886,-0.7967851,2.9237323,5.12704,0.7747121,-1.312172,0.7587869
2.888,-0.8015008,2.9287632,5.148679,0.7520242,-1.3130722,0.75455993
2.89,-0.8056983,2.9333398,5.169466,0.73240906,-1.3142732,0.7503658
2.892,-0.8094195,2.9375587,5.1895,0.7155215,-1.3156643,0.7462314
2.894,-0.8126997,2.9414563,5.208729,0.70096517,-1.3171167,0.7421847
2.896,-0.81559074,2.94499,5.2270813,0.68486893,-1.3174851,0.7382648
2.898,-0.81807125,2.948286,5.2446065,0.67534155,-1.3191948,0.7345066
2.9,-0.82022166,2.9513307,5.261232,0.666559,-1.3205428,0.7309388
2.902,-0.8221036,2.954119,5.277073,0.65854126,-1.3215749,0.7275924
2.904,-0.8236079,2.956693,5.2921176,0.65129507,-1.3223348,0.7244901
2.906,-0.8249785,2.959138,5.3064337,0.64479536,-1.3228732,0.72164226
2.908,-0.82616735,2.961403,5.3199124,0.6390054,-1.3232296,0.7190452
2.91,-0.8270985,2.9634132,5.332658,0.63385713,-1.3234438,0.7166936
