Time_s_,Acc_x_m_s_2_,Acc_y_m_s_2_,Acc_z_m_s_2_,Gyro_x_1_s_,Gyro_y_1_s_,Gyro_z_1_s_
0,0.36460513,-0.09264567,-1.0102724,0.2155115,0.11591359,0.54327184
0.002,0.3314013,-0.06561172,-1.0242226,0.21122491,0.12938048,0.5452933
0.004,0.2924061,-0.034147978,-1.0436823,0.20694901,0.1458249,0.54761636
0.006,0.24727842,0.0023233127,-1.0706626,0.20290837,0.16593224,0.55024606
0.008,0.1953825,0.044100292,-1.1066326,0.19942191,0.19045337,0.5531597
0.01,0.1362507,0.09162341,-1.1521839,0.196903,0.2201876,0.5563235
0.012,0.06985636,0.14474067,-1.2077225,0.19579649,0.25582254,0.55968136
0.014,-0.00448665,0.20384955,-1.2728716,0.1965048,0.29774123,0.56315106
0.016,-0.08702117,0.26937872,-1.3466806,0.19930913,0.34582067,0.5666108
0.018,-0.17806715,0.3413617,-1.4284651,0.2042904,0.39934796,0.56997573
0.02,-0.27742895,0.41977403,-1.5175754,0.21125677,0.45695424,0.57321787
0.022,-0.3848012,0.5046226,-1.6130769,0.21972463,0.51653767,0.5763185
0.024,-0.49954635,0.5958106,-1.713083,0.22892097,0.5752905,0.57925415
0.026,-0.620568,0.6929211,-1.8162117,0.23778206,0.629786,0.5820116
0.028,-0.7465752,0.7955067,-1.9214141,0.24500537,0.6772448,0.58463013
0.03,-0.876222,0.90292054,-2.0270147,0.24904561,0.7121136,0.58697313
0.032,-1.0078026,1.0144256,-2.1311812,0.24843955,0.73066336,0.58899546
0.034,-1.1398102,1.1293547,-2.2320507,0.24190745,0.7296305,0.59067607
0.036,-1.27076,1.2466134,-2.327369,0.22853512,0.7066751,0.5920176
0.038,-1.3989613,1.3647466,-2.41518,0.20796412,0.6608033,0.59305227
0.04,-1.5230623,1.4824705,-2.4934676,0.18050256,0.59273255,0.5938087
0.042,-1.6421342,1.5985129,-2.5597882,0.14718586,0.5050545,0.5943099
0.044,-1.7549593,1.7117144,-2.6123638,0.10975611,0.4021272,0.5945151
0.046,-1.8600256,1.8209854,-2.650341,0.07047719,0.2897335,0.59425217
0.048,-1.9565139,1.925658,-2.6727428,0.03188534,0.17448509,0.5932244
0.05,-2.0433676,2.0246494,-2.6801887,-0.0034677684,0.0631006,0.5910936
0.052,-2.1198041,2.117188,-2.6736033,-0.033323817,-0.03837167,0.5875245
0.054,-2.1853478,2.2028363,-2.6540864,-0.055950254,-0.1252458,0.58222294
0.056,-2.2409163,2.2826805,-2.6246219,-0.0702781,-0.1945311,0.5750112
0.058,-2.2856252,2.356135,-2.5847766,-0.075967446,-0.24517109,0.56591797
0.06,-2.3197103,2.4237669,-2.5366707,-0.07332903,-0.2778797,0.5552431
0.062,-2.3437614,2.486466,-2.482687,-0.06314679,-0.29471675,0.54357433
0.064,-2.358498,2.5452604,-2.4250073,-0.04650932,-0.29856288,0.5317104
0.066,-2.3644352,2.6009083,-2.3658106,-0.024544012,-0.2924698,0.5205957
0.068,-2.3624315,2.6543615,-2.3070052,0.0017417967,-0.27915764,0.5112264
0.07,-2.3533378,2.7065082,-2.2502573,0.031546116,-0.26068744,0.50455946
0.072,-2.33812,2.758174,-2.1966817,0.06429313,-0.238442,0.50133926
0.074,-2.317902,2.8101397,-2.1472104,0.09956757,-0.21312203,0.5020273
0.076,-2.2935925,2.8628888,-2.102323,0.1369467,-0.18500727,0.5067848
0.078,-2.2662835,2.9169893,-2.0622492,0.17589888,-0.15420207,0.5153152
0.08,-2.2366567,2.9725246,-2.0269234,0.21576312,-0.12082807,0.52684975
0.082,-2.2056262,3.0293045,-1.9963212,0.2557046,-0.085294686,0.5402583
0.084,-2.1736848,3.0867703,-1.9699187,0.294775,-0.04828106,0.5542034
0.086,-2.1414928,3.1442869,-1.9473182,0.3319092,-0.010783777,0.56723535
0.088,-2.1090696,3.201037,-1.9274719,0.3660385,0.025984943,0.57790995
0.09,-2.0767028,3.2561893,-1.909205,0.3962698,0.06073612,0.58498937
0.092,-2.0444415,3.3089356,-1.8916664,0.42201272,0.09224054,0.5876103
0.094,-2.0120544,3.3582458,-1.873471,0.44301584,0.11944066,0.5853041
0.096,-1.9790113,3.403205,-1.8534377,0.45939946,0.14156017,0.57803667
0.098,-1.9456443,3.443354,-1.8313937,0.4715809,0.15818034,0.5662171
0.1,-1.911945,3.4781303,-1.8083677,0.48024103,0.16924602,0.5506116
0.102,-1.8775333,3.5067759,-1.7859267,0.48622924,0.17502992,0.5322517
0.104,-1.8419904,3.5289106,-1.7656372,0.4904214,0.17609093,0.51225686
0.106,-1.8050293,3.5446675,-1.7487307,0.49363336,0.17321084,0.49172705
0.108,-1.7662051,3.5543413,-1.7347825,0.49652386,0.16728723,0.47166073
0.11,-1.7248416,3.55836,-1.7229404,0.49953997,0.15922195,0.452874
0.112,-1.6807836,3.5574243,-1.7120838,0.50295246,0.14994775,0.4359148
0.114,-1.634165,3.5522428,-1.7016482,0.5068537,0.14037596,0.42108455
0.116,-1.5851387,3.543585,-1.69155,0.51120293,0.13133112,0.408478
0.118,-1.5339617,3.53232,-1.6820774,0.5158739,0.12352724,0.39801508
0.12,-1.4810512,3.5194361,-1.6736724,0.5206435,0.117543615,0.38947052
0.122,-1.4278488,3.5063937,-1.666909,0.52524877,0.11383362,0.38252932
0.124,-1.3755587,3.494249,-1.6629473,0.5294015,0.112669975,0.37682524
0.126,-1.3233439,3.4825525,-1.661763,0.5328047,0.11416443,0.37203446
0.128,-1.2714232,3.47085,-1.6624868,0.53517175,0.11817149,0.36784256
0.13,-1.222501,3.4599843,-1.6646162,0.5363004,0.12446749,0.36397138
0.132,-1.1786584,3.4515033,-1.6694045,0.5360752,0.13274127,0.36025146
0.134,-1.1397712,3.4455566,-1.6781865,0.5344562,0.14258367,0.35658538
0.136,-1.1063163,3.4418297,-1.6904286,0.531521,0.15359725,0.3528533
0.138,-1.0808225,3.4405417,-1.7038558,0.5274325,0.16534813,0.3488633
0.14,-1.0639178,3.4418473,-1.7162642,0.52244824,0.17741004,0.34438926
0.142,-1.0554869,3.445303,-1.7267303,0.51689017,0.18933348,0.33924717
0.144,-1.0555747,3.4504128,-1.7364372,0.51112354,0.20062594,0.33331805
0.146,-1.0633854,3.4565403,-1.7464541,0.50554276,0.21077156,0.32656258
0.148,-1.0785286,3.4638882,-1.7566206,0.500548,0.21919855,0.3190806
0.15,-1.1003635,3.4726057,-1.7667491,0.49647936,0.22531095,0.31103984
0.152,-1.1276786,3.4827323,-1.777961,0.49358118,0.22845033,0.30263263
0.154,-1.1594074,3.493808,-1.7904271,0.4919363,0.22790158,0.2940815
0.156,-1.1948701,3.5053926,-1.8035033,0.4914967,0.22295593,0.28567362
0.158,-1.2327623,3.5169647,-1.8172919,0.4922147,0.21299295,0.27760485
0.16,-1.2721543,3.528544,-1.8305467,0.49395192,0.19757292,0.2699694
0.162,-1.3121133,3.5400512,-1.8423786,0.49638873,0.17634015,0.26284704
0.164,-1.3513597,3.5510936,-1.8522372,0.49911523,0.14900357,0.256244
0.166,-1.38869,3.5612774,-1.859392,0.5017115,0.11550407,0.25002435
0.168,-1.4228194,3.5701582,-1.8637058,0.5037541,0.076045655,0.2439436
0.17,-1.4521977,3.57731,-1.8650731,0.5048283,0.031112775,0.23778296
0.172,-1.4767661,3.582674,-1.8640476,0.5046972,-0.018441185,0.2313763
0.174,-1.49581,3.5852144,-1.8600667,0.5032327,-0.07154766,0.22454171
0.176,-1.508472,3.5843642,-1.8507831,0.5003856,-0.12701266,0.21722046
0.178,-1.5146263,3.5806994,-1.8346152,0.4962305,-0.18351355,0.20952287
0.18,-1.5144672,3.5746298,-1.8111608,0.49090254,-0.23972589,0.20155463
0.182,-1.507987,3.5660791,-1.7805681,0.4845435,-0.29440403,0.19341117
0.184,-1.4952915,3.5546823,-1.7425885,0.4772861,-0.34646475,0.18519899
0.186,-1.4768748,3.5402374,-1.6967998,0.46926987,-0.3949838,0.17703503
0.188,-1.453453,3.522427,-1.6424828,0.46064198,-0.4392144,0.1689489
0.19,-1.4259133,3.5014436,-1.5792086,0.4515686,-0.47862375,0.16096997
0.192,-1.3945789,3.477441,-1.5067662,0.4422177,-0.51284903,0.1531555
0.194,-1.3602965,3.4504511,-1.4256685,0.43273592,-0.54166526,0.14558232
0.196,-1.3237417,3.4207358,-1.3362352,0.42327005,-0.5649583,0.13835731
0.198,-1.286036,3.3886542,-1.2392261,0.41393057,-0.5827196,0.13163674
0.2,-1.2478242,3.3544183,-1.1351101,0.40474865,-0.5950495,0.12558554
0.202,-1.209958,3.3186226,-1.0244541,0.3957101,-0.6021941,0.12025061
0.204,-1.1729882,3.2816477,-0.9081437,0.386774,-0.6045449,0.115694776
0.206,-1.1378118,3.244253,-0.78706694,0.3778354,-0.6024485,0.11216794
0.208,-1.1047478,3.2070649,-0.6623511,0.36876053,-0.5961683,0.10984869
0.21,-1.0742437,3.1706748,-0.535223,0.35937616,-0.58595234,0.10864211
0.212,-1.0467869,3.1359112,-0.40691322,0.34951103,-0.5720796,0.10844875
0.214,-1.0224931,3.103079,-0.27887893,0.33916128,-0.55484086,0.1091273
0.216,-1.0017015,3.072742,-0.15238091,0.32851693,-0.5343595,0.11047006
0.218,-0.9847574,3.0451808,-0.028854795,0.3178087,-0.5106397,0.112266645
0.22,-0.97199994,3.0207174,0.09058929,0.30725628,-0.4836894,0.11439915
0.222,-0.9636012,2.9997685,0.20484263,0.29712266,-0.45352077,0.11673862
0.224,-0.95971507,2.9825265,0.31281456,0.28766492,-0.42010295,0.11907482
0.226,-0.96071535,2.9690046,0.41330737,0.27901036,-0.38342112,0.12120905
0.228,-0.96660656,2.959475,0.5051308,0.27122557,-0.34336096,0.122963354
0.23,-0.9776615,2.9538631,0.5865304,0.26429668,-0.29974806,0.124042496
0.232,-0.99381346,2.9520853,0.65558857,0.25812012,-0.25241902,0.12409964
0.234,-1.0147471,2.9538794,0.7109606,0.25258556,-0.2012237,0.122879356
0.236,-1.0418004,2.9599073,0.7509901,0.24764857,-0.14604971,0.12023686
0.238,-1.074671,2.97064,0.7749552,0.24331199,-0.086859,0.116042
0.24,-1.111128,2.9852421,0.78327626,0.23964135,-0.023712218,0.110213384
0.242,-1.1501431,3.002071,0.77764714,0.23680322,0.043287583,0.10281547
0.244,-1.1927509,3.021031,0.7585482,0.23504329,0.11402269,0.09402149
0.246,-1.238636,3.0421996,0.7248141,0.23470579,0.18836072,0.08410884
0.248,-1.2852571,3.0649385,0.6742525,0.23616667,0.26613805,0.073419906
0.25,-1.3325571,3.0888705,0.60497683,0.23974241,0.3471376,0.062323302
0.252,-1.3799883,3.1136289,0.5173379,0.2456509,0.43107128,0.051130157
0.254,-1.426963,3.1389678,0.41367933,0.25396827,0.51752687,0.04013459
0.256,-1.4739109,3.1650348,0.29537588,0.2645709,0.6059575,0.029627614
0.258,-1.519065,3.1906662,0.16371545,0.27709413,0.6955622,0.019714393
0.26,-1.5617845,3.2154882,0.019789591,0.29094207,0.78515106,0.010238282
0.262,-1.6024183,3.2396111,-0.13408718,0.3052985,0.8731698,0.0010319203
0.264,-1.6411678,3.2632213,-0.29600853,0.319156,0.957821,-0.00801757
0.266,-1.6796358,3.2875054,-0.4636099,0.33136985,1.0371795,-0.017059878
0.268,-1.7183564,3.3116684,-0.63255477,0.34076053,1.1092594,-0.026270643
0.27,-1.7573974,3.3340669,-0.7995755,0.34620544,1.1720119,-0.03583379
0.272,-1.7963687,3.353641,-0.96036375,0.34668073,1.2234398,-0.04584913
0.274,-1.8358679,3.3704147,-1.1118219,0.34128365,1.2616589,-0.05634296
0.276,-1.875,3.385038,-1.2517345,0.3292935,1.2850422,-0.06720452
0.278,-1.9147749,3.3999748,-1.3787124,0.31025982,1.2923052,-0.07817747
0.28,-1.9564292,3.4170465,-1.4920983,0.28401604,1.2825726,-0.08894658
0.282,-2.0001152,3.436955,-1.5902034,0.25076616,1.255613,-0.09914492
0.284,-2.047276,3.4604192,-1.6713676,0.21112046,1.2119421,-0.10840073
0.286,-2.0994215,3.4873972,-1.7343166,0.1660899,1.1528692,-0.116447404
0.288,-2.1570199,3.516706,-1.7764337,0.11706197,1.0806341,-0.12305135
0.29,-2.2202406,3.5477018,-1.7945505,0.06576608,0.9983582,-0.12816618
0.292,-2.2892585,3.580187,-1.7871466,0.014140487,0.9097939,-0.13203758
0.294,-2.3639429,3.614488,-1.7547891,-0.03581263,0.8190403,-0.13512681
0.296,-2.4434748,3.6506035,-1.6998953,-0.08219067,0.73013693,-0.13813871
0.298,-2.5264125,3.6885524,-1.62607,-0.12339438,0.6467949,-0.14197117
0.3,-2.611448,3.7280135,-1.5369626,-0.15815675,0.5721148,-0.14748809
0.302,-2.697096,3.7689266,-1.4362085,-0.18558288,0.5083564,-0.1553044
0.304,-2.781774,3.8113356,-1.3273273,-0.20510146,0.4569851,-0.16577566
0.306,-2.863545,3.8550754,-1.2138374,-0.21647346,0.41865423,-0.17879777
0.308,-2.9407458,3.9001935,-1.099247,-0.21976815,0.393276,-0.19409093
0.31,-3.0117412,3.9470983,-0.9873363,-0.21526566,0.38020065,-0.21131471
0.312,-3.0752044,3.9960694,-0.8812461,-0.20330058,0.37847796,-0.22989279
0.314,-3.1300662,4.0472813,-0.7837064,-0.1841721,0.38712022,-0.24889547
0.316,-3.1751935,4.1005363,-0.6971227,-0.15815382,0.40525696,-0.26701248
0.318,-3.210668,4.1558137,-0.623686,-0.12555069,0.43213633,-0.2827304
0.32,-3.2367737,4.2129374,-0.564581,-0.08682386,0.46692824,-0.29460856
0.322,-3.253833,4.271497,-0.5201748,-0.042754773,0.5085386,-0.30150217
0.324,-3.262638,4.3311477,-0.49052984,0.0054178163,0.5554408,-0.30285272
0.326,-3.264172,4.3911905,-0.47516125,0.05591044,0.6054887,-0.29898372
0.328,-3.2596712,4.450735,-0.47287285,0.10638471,0.6559754,-0.2911741
0.33,-3.249927,4.508369,-0.4818415,0.15402725,0.7038039,-0.28167674
0.332,-3.2360547,4.562692,-0.50040805,0.19580255,0.7458718,-0.27351242
0.334,-3.219162,4.6123033,-0.52661794,0.22885522,0.7795245,-0.27003005
0.336,-3.2001758,4.65565,-0.55820054,0.25089964,0.80291414,-0.27441913
0.338,-3.1799018,4.6911316,-0.59256893,0.26057762,0.81540275,-0.28921014
0.34,-3.1589522,4.717382,-0.6270678,0.2577128,0.8177433,-0.31584665
0.342,-3.1374447,4.73335,-0.6595977,0.24341144,0.81191975,-0.35452986
0.344,-3.116013,4.7386403,-0.6888373,0.21991666,0.80091006,-0.40409705
0.346,-3.094789,4.73301,-0.71453524,0.1903673,0.7883098,-0.46213984
0.348,-3.0730784,4.7161036,-0.7373954,0.15836911,0.777787,-0.525525
0.35,-3.0498447,4.6877127,-0.7581516,0.12749639,0.7725228,-0.59075636
0.352,-3.023394,4.6480484,-0.77740073,0.10050911,0.7735321,-0.6551735
0.354,-2.9919257,4.5977035,-0.79542816,0.08013174,0.7835855,-0.71489936
0.356,-2.9538517,4.5374584,-0.812781,0.0673085,0.8018375,-0.76842356
0.358,-2.9079523,4.4684014,-0.83008814,0.062146954,0.8271012,-0.81458086
0.36,-2.8524327,4.3919272,-0.8478644,0.06388168,0.8575195,-0.85295147
0.362,-2.7868927,4.31007,-0.86652136,0.07115699,0.89096224,-0.88351625
0.364,-2.7105093,4.2246785,-0.88623595,0.08224286,0.92529,-0.90656334
0.366,-2.6229625,4.1378174,-0.9069834,0.09520422,0.9584974,-0.92277646
0.368,-2.5260715,4.0517726,-0.92913294,0.10811494,0.9888324,-0.93311226
0.37,-2.4209077,3.9682841,-0.95200783,0.11922763,1.0148393,-0.9386771
0.372,-2.3084073,3.888812,-0.9744834,0.1270721,1.0354015,-0.9405012
0.374,-2.1908069,3.8154905,-0.9946681,0.13050237,1.0497544,-0.93945456
0.376,-2.0694704,3.7491848,-1.0106705,0.12873359,1.0574878,-0.9362401
0.378,-1.9471688,3.6922274,-1.0214568,0.12133666,1.0585103,-0.9313915
0.38,-1.8276591,3.6468706,-1.0250103,0.10819654,1.0530859,-0.92534685
0.382,-1.7139709,3.6137426,-1.0205679,0.089530885,1.0417761,-0.9185577
0.384,-1.608461,3.591599,-1.0062797,0.065905035,1.025458,-0.9115037
0.386,-1.5137693,3.5788105,-0.98039037,0.03818736,1.0053562,-0.9046877
0.388,-1.4303546,3.5724425,-0.941227,0.0075452337,0.98301774,-0.89863497
0.39,-1.3576927,3.5709329,-0.88811207,-0.024629513,0.9602905,-0.8938529
0.392,-1.296805,3.5745609,-0.82292515,-0.05673847,0.93925005,-0.89081883
0.394,-1.2472196,3.5834289,-0.74796474,-0.087116584,0.92207164,-0.8899524
0.396,-1.2092266,3.5976262,-0.665863,-0.1141504,0.9108403,-0.8915664
0.398,-1.1824703,3.6170967,-0.58026624,-0.13641162,0.90731955,-0.89579463
0.4,-1.1665848,3.6416383,-0.49397498,-0.15281576,0.912704,-0.9025729
0.402,-1.1606083,3.670697,-0.40906486,-0.16270606,0.9275005,-0.9115761
0.404,-1.1637851,3.7032876,-0.3270701,-0.1659134,0.95150805,-0.9223071
0.406,-1.1752452,3.738413,-0.24877435,-0.1625279,0.9845102,-0.93367344
0.408,-1.1939466,3.7748628,-0.17473799,-0.15377356,1.0231984,-0.94595206
0.41,-1.2188271,3.81176,-0.10495825,-0.14032805,1.0667442,-0.9575744
0.412,-1.2487528,3.8483968,-0.03978213,-0.12345754,1.1129165,-0.96782947
0.414,-1.282535,3.8845294,0.019467272,-0.10442873,1.1595396,-0.97622603
0.416,-1.3195515,3.9200644,0.07141914,-0.08447866,1.2047241,-0.982429
0.418,-1.3573477,3.9543812,0.11426261,-0.06464792,1.2470441,-0.9863799
0.42,-1.3948945,3.9872959,0.14722681,-0.045737647,1.2856383,-0.98825055
0.422,-1.432198,4.0193815,0.17041804,-0.0282479,1.3203335,-0.98846936
0.424,-1.4696327,4.05147,0.18374354,-0.012415022,1.3515792,-0.9876707
0.426,-1.5069418,4.084342,0.18812516,0.0017018169,1.38028,-0.98655015
0.428,-1.5430082,4.1184273,0.18552366,0.01421988,1.4075776,-0.9857117
0.43,-1.5775247,4.153901,0.17649356,0.02533254,1.4345485,-0.98564
0.432,-1.6106039,4.190682,0.16084397,0.03523293,1.4620394,-0.98668987
0.434,-1.6416037,4.2281694,0.138744,0.044060886,1.4905217,-0.9890471
0.436,-1.6693286,4.265527,0.110837325,0.05185215,1.5199912,-0.992736
0.438,-1.6933892,4.302672,0.077896595,0.05855009,1.5500165,-0.9976281
0.44,-1.7149292,4.340197,0.040873066,0.06405763,1.5797865,-1.0035045
0.442,-1.7337346,4.3784356,0.0009022206,0.06826331,1.608255,-1.0101092
0.444,-1.7488971,4.4174113,-0.04081419,0.071126774,1.634196,-1.017198
0.446,-1.7594897,4.4570827,-0.0837686,0.07269655,1.6563286,-1.0245488
0.448,-1.765367,4.4970913,-0.12829562,0.07312335,1.6734604,-1.0319053
0.45,-1.7659379,4.5367723,-0.17480049,0.07267329,1.6846431,-1.0390357
0.452,-1.7603427,4.575254,-0.22236502,0.07168867,1.689251,-1.0458065
0.454,-1.7474424,4.6118674,-0.26970032,0.07055563,1.6870161,-1.0520957
0.456,-1.7267548,4.6466656,-0.315931,0.069674715,1.6780291,-1.0577214
0.458,-1.6981897,4.6799326,-0.36038104,0.06944163,1.6628414,-1.0624661
0.46,-1.661515,4.711815,-0.40285647,0.07017897,1.6423988,-1.0661762
0.462,-1.61702,4.7424703,-0.4433493,0.07209273,1.6178962,-1.0687588
0.464,-1.5648056,4.7718835,-0.4816664,0.07531251,1.5906886,-1.070105
0.466,-1.5050292,4.7999783,-0.51705927,0.079925,1.5621924,-1.0700974
0.468,-1.4377775,4.826604,-0.54903865,0.08593078,1.533842,-1.0687177
0.47,-1.363373,4.851414,-0.57742983,0.093367115,1.5069733,-1.0661012
0.472,-1.2819564,4.874052,-0.6029636,0.102293625,1.4827842,-1.062321
0.474,-1.1936876,4.8941574,-0.62693596,0.11289455,1.4623843,-1.0574238
0.476,-1.098362,4.9110966,-0.65060306,0.12539707,1.4467357,-1.0514158
0.478,-0.99604034,4.924493,-0.67554957,0.14006782,1.4367397,-1.0442913
0.48,-0.88671666,4.9336934,-0.70320463,0.15719652,1.4331948,-1.0360404
0.482,-0.770706,4.9384,-0.7349119,0.17702481,1.4368035,-1.026563
0.484,-0.64822376,4.9382434,-0.77179223,0.19976573,1.4481604,-1.0156219
0.486,-0.5196251,4.9331946,-0.81499994,0.2255705,1.467641,-1.002891
0.488,-0.38551164,4.923084,-0.86559767,0.25450468,1.4952657,-0.988046
0.49,-0.24591291,4.9077272,-0.9243142,0.28652057,1.5306599,-0.9708617
0.492,-0.10150576,4.88692,-0.9914313,0.32139808,1.573,-0.9512585
0.494,0.047616363,4.860956,-1.0672551,0.35874847,1.6209984,-0.92928433
0.496,0.20071256,4.8299093,-1.1519039,0.398019,1.6729774,-0.90516806
0.498,0.35732841,4.7938643,-1.2455614,0.43851787,1.7269539,-0.87930334
0.5,0.5166874,4.7526784,-1.3477689,0.4794476,1.7807308,-0.85223687
0.502,0.67944753,4.70581,-1.4572858,0.51996815,1.8319231,-0.824625
0.504,0.84632707,4.6528726,-1.575476,0.55916154,1.8780304,-0.79715466
0.506,1.0166869,4.594245,-1.7057726,0.59605765,1.916531,-0.7704506
0.508,1.1889035,4.5302253,-1.8444474,0.6296378,1.9450563,-0.7451173
0.51,1.3638163,4.4596457,-1.9833279,0.65889966,1.9615271,-0.72169185
0.512,1.540386,4.382864,-2.1194663,0.6829497,1.9642446,-0.7005201
0.514,1.717607,4.3007207,-2.2540693,0.70111287,1.9521136,-0.6817387
0.516,1.8946909,4.2141957,-2.391004,0.7129949,1.924792,-0.66538495
0.518,2.0675144,4.1256557,-2.5302954,0.71848446,1.8826534,-0.6514457
0.52,2.2356212,4.0356565,-2.659933,0.7177292,1.8266618,-0.63980055
0.522,2.399025,3.9441068,-2.7676673,0.711113,1.7582576,-0.6301378
0.524,2.5535789,3.853841,-2.8538241,0.69916415,1.6792445,-0.6220108
0.526,2.6957426,3.7682261,-2.9247198,0.68248665,1.5916129,-0.6150025
0.528,2.8244596,3.6884856,-2.9849546,0.6617118,1.497391,-0.60867345
0.53,2.9392219,3.614633,-3.0377092,0.6375073,1.3985318,-0.6025418
0.532,3.0367503,3.5479674,-3.083268,0.6105602,1.2969251,-0.5961267
0.534,3.1178088,3.4878182,-3.116106,0.5815425,1.1944139,-0.58905613
0.536,3.1866126,3.431511,-3.1228137,0.55110705,1.092639,-0.5811484
0.538,3.2395678,3.3812816,-3.0973291,0.51974356,0.99276966,-0.57236826
0.54,3.2723536,3.3415554,-3.045199,0.48779768,0.89584583,-0.5626091
0.542,3.2822695,3.3155065,-2.9745903,0.45554665,0.80307305,-0.5518304
0.544,3.2689962,3.3047528,-2.8896956,0.4231556,0.7152501,-0.54006606
0.546,3.2308316,3.3110251,-2.7894394,0.3907022,0.6326657,-0.52737993
0.548,3.1656508,3.3362136,-2.6702695,0.35814127,0.5552108,-0.5139306
0.55,3.0728838,3.380666,-2.5290883,0.3249606,0.4825883,-0.49977976
0.552,2.9527826,3.443944,-2.3654785,0.29026705,0.41488785,-0.48499858
0.554,2.805652,3.525805,-2.1820898,0.25330582,0.35275185,-0.4699629
0.556,2.6318288,3.626167,-1.9830546,0.21375084,0.29692078,-0.45534754
0.558,2.43299,3.7445526,-1.7723311,0.17170443,0.2479238,-0.44178805
0.56,2.21082,3.8803627,-1.5543272,0.12761226,0.20652375,-0.42984232
0.562,1.9675658,4.0327435,-1.3338948,0.08218911,0.17390244,-0.4201061
0.564,1.7058443,4.2002707,-1.1155472,0.036636204,0.15174702,-0.41313344
0.566,1.4286294,4.381057,-0.90297353,-0.0071538165,0.14229587,-0.40915066
0.568,1.1403041,4.5725203,-0.700361,-0.04665903,0.14797053,-0.4085474
0.57,0.8457152,4.7714443,-0.51222634,-0.07880112,0.1704528,-0.41220167
0.572,0.5501299,4.973959,-0.3438455,-0.10037085,0.20989025,-0.42074868
0.574,0.2587192,5.1759024,-0.20024383,-0.108654425,0.2648443,-0.43410778
0.576,-0.023073316,5.3730383,-0.08590567,-0.10190799,0.33264402,-0.45181718
0.578,-0.29027164,5.560982,-0.0043685436,-0.07958822,0.40978158,-0.47360307
0.58,-0.53826106,5.7354813,0.042245865,-0.042362276,0.49231693,-0.49932376
0.582,-0.76289594,5.8925214,0.05346203,0.008023889,0.5763222,-0.5287235
0.584,-0.9605248,6.0287375,0.03060615,0.06895165,0.65823686,-0.56141245
0.586,-1.1286165,6.1416316,-0.02386868,0.13723914,0.7350651,-0.5970394
0.588,-1.2650232,6.2294006,-0.106607676,0.20941818,0.80450505,-0.63537514
0.59,-1.3684956,6.2907,-0.21413898,0.28207254,0.8650178,-0.67620337
0.592,-1.4384074,6.32484,-0.34254408,0.35226458,0.9158047,-0.7192777
0.594,-1.4747063,6.33177,-0.48797256,0.41767883,0.9563379,-0.7643959
0.596,-1.4780506,6.3120513,-0.64573777,0.4766513,0.98623353,-0.81122506
0.598,-1.4492836,6.2671313,-0.8103626,0.5282312,1.0056622,-0.8593689
0.6,-1.3900715,6.199014,-0.97619915,0.57203215,1.0151933,-0.90839434
0.602,-1.302224,6.1101055,-1.1378396,0.60812914,1.015535,-0.95770764
0.604,-1.1876664,6.003039,-1.2904961,0.63714933,1.0073993,-1.0066065
0.606,-1.0483841,5.880489,-1.4302711,0.659943,0.99131626,-1.0541697
0.608,-0.88621324,5.7450876,-1.5541983,0.6771991,0.96789944,-1.099177
0.61,-0.7030577,5.5998163,-1.6603127,0.6895108,0.938348,-1.1404488
0.612,-0.50070065,5.4473305,-1.7476304,0.6976447,0.9042748,-1.1771605
0.614,-0.28197443,5.2908664,-1.8145013,0.70262194,0.8669672,-1.2088189
0.616,-0.047605276,5.132217,-1.8589327,0.70563173,0.8271947,-1.2351749
0.618,0.20158392,4.973003,-1.8850102,0.7075963,0.78529996,-1.2563679
0.62,0.46254218,4.815954,-1.8991746,0.70899516,0.74131745,-1.2730432
0.622,0.73371154,4.6622853,-1.9011755,0.7099406,0.69538385,-1.2857754
0.624,1.0139698,4.512655,-1.88844,0.7102358,0.64824957,-1.2949902
0.626,1.3011024,4.3678136,-1.8593276,0.7096001,0.6012472,-1.3016
0.628,1.5953213,4.22743,-1.8181547,0.7078901,0.5556673,-1.306892
0.63,1.8926915,4.092986,-1.7784166,0.7050493,0.5123451,-1.311738
0.632,2.189262,3.965904,-1.747368,0.7009483,0.47166097,-1.3161879
0.634,2.4843106,3.844817,-1.7182235,0.6953284,0.43370816,-1.3198681
0.636,2.7750683,3.7292295,-1.6819098,0.687875,0.39845425,-1.3224374
0.638,3.0550625,3.621633,-1.6347111,0.6783612,0.36589617,-1.3235784
0.64,3.3195467,3.5243874,-1.5771874,0.6667729,0.33614242,-1.3229007
0.642,3.5670376,3.4376485,-1.5136886,0.65340793,0.30941302,-1.3200737
0.644,3.7914836,3.3636332,-1.4517912,0.63878673,0.28595313,-1.314953
0.646,3.9844484,3.3054621,-1.4025508,0.62351286,0.26599535,-1.3076129
0.648,4.145886,3.2610612,-1.3656255,0.6082016,0.24973531,-1.2983094
0.65,4.2759023,3.2276552,-1.3291211,0.59341013,0.23736039,-1.2874113
0.652,4.3725805,3.2046936,-1.2833314,0.57960904,0.22915387,-1.2753837
0.654,4.43143,3.1934536,-1.2269087,0.5672266,0.22544408,-1.2628143
0.656,4.450282,3.19446,-1.1651049,0.55665064,0.22669414,-1.2503847
0.658,4.428919,3.2073174,-1.1040154,0.5482347,0.23344037,-1.2388493
0.66,4.366395,3.2325456,-1.0472534,0.5422791,0.24616504,-1.2288971
0.662,4.2610083,3.270885,-0.9945698,0.53902113,0.2652598,-1.2210908
0.664,4.110571,3.3226256,-0.94335294,0.53866696,0.29103118,-1.2158096
0.666,3.920658,3.3843894,-0.8891671,0.5414319,0.3236387,-1.2132574
0.668,3.693733,3.4547055,-0.8300128,0.54752135,0.36305764,-1.213422
0.67,3.4320378,3.5332665,-0.7700865,0.55711895,0.40907678,-1.2160352
0.672,3.1384752,3.618928,-0.7130629,0.5703749,0.46124187,-1.2206333
0.674,2.8173704,3.7094548,-0.6608434,0.5874084,0.518818,-1.2266115
0.676,2.4737732,3.8029714,-0.615383,0.6082454,0.5807542,-1.2333356
0.678,2.1119614,3.898358,-0.57554674,0.6327772,0.6456228,-1.2402219
0.68,1.736892,3.9940224,-0.53940976,0.6607652,0.71172076,-1.2468108
0.682,1.3548067,4.088204,-0.5057771,0.69182837,0.77714455,-1.2527971
0.684,0.97225296,4.178527,-0.4751866,0.7254602,0.83987457,-1.2580805
0.686,0.5957018,4.262863,-0.44856226,0.76109886,0.8979797,-1.2627445
0.688,0.23128772,4.3394475,-0.42674613,0.798128,0.9497745,-1.2670557
0.69,-0.11484563,4.407098,-0.4104582,0.83591247,0.9939347,-1.2713546
0.692,-0.43761444,4.4649177,-0.40025628,0.87386775,1.0296527,-1.276002
0.694,-0.7322978,4.511874,-0.39655554,0.9115199,1.0567874,-1.2812912
0.696,-0.99463177,4.547149,-0.39921188,0.9484887,1.0758992,-1.2872162
0.698,-1.2212592,4.5699186,-0.4077239,0.9845133,1.0880301,-1.2935743
0.7,-1.4094797,4.5799904,-0.42167586,1.019521,1.0944809,-1.300115
0.702,-1.5574965,4.577223,-0.44072688,1.0535543,1.0966142,-1.3064101
0.704,-1.6644055,4.561714,-0.46468437,1.086659,1.0959812,-1.3118215
0.706,-1.7301037,4.5338106,-0.4938246,1.1189044,1.0941957,-1.3155482
0.708,-1.7555355,4.494145,-0.52913326,1.1503536,1.092639,-1.3168435
0.71,-1.7420866,4.4437237,-0.5706269,1.1810392,1.0923842,-1.3152009
0.712,-1.6921669,4.384034,-0.61808914,1.210968,1.0940878,-1.3102958
0.714,-1.6085455,4.31694,-0.6708381,1.2400615,1.0978565,-1.3020123
0.716,-1.4943237,4.243829,-0.728827,1.2681046,1.1030642,-1.2904232
0.718,-1.3529963,4.1660023,-0.7920368,1.2947203,1.1083617,-1.2758046
0.72,-1.1883037,4.0847597,-0.85999954,1.3194244,1.1119528,-1.2586559
0.722,-1.0038126,4.001094,-0.93176824,1.3416967,1.1118405,-1.2396703
0.724,-0.80326337,3.9161377,-1.006593,1.3610317,1.106074,-1.2196585
0.726,-0.590168,3.8310902,-1.0832839,1.3770673,1.0931046,-1.1994274
0.728,-0.36827677,3.7471852,-1.1609402,1.389641,1.0720809,-1.1796713
0.73,-0.14095789,3.6654506,-1.2385373,1.3988676,1.0429379,-1.1608924
0.732,0.08923936,3.5865593,-1.3148078,1.405111,1.0063441,-1.1433394
0.734,0.31936967,3.5111122,-1.3880912,1.4089214,0.963479,-1.1270151
0.736,0.5474463,3.439416,-1.4565755,1.4109448,0.915817,-1.1116955
0.738,0.7717123,3.37176,-1.5185022,1.4118004,0.86483943,-1.0970051
0.74,0.9906094,3.3081307,-1.5727856,1.4120106,0.81182265,-1.0824609
0.742,1.2027396,3.248691,-1.618656,1.4119549,0.7577427,-1.0676117
0.744,1.4070094,3.193358,-1.6553919,1.4118342,0.70326114,-1.0521909
0.746,1.6031475,3.1416824,-1.6827174,1.4116886,0.6487285,-1.0361739
0.748,1.7904478,3.093505,-1.7004246,1.4114166,0.5941941,-1.019739
0.75,1.9683933,3.0488667,-1.7086372,1.4108549,0.5395663,-1.0032467
0.752,2.1365185,3.0079007,-1.7076006,1.4098386,0.48494905,-0.9870624
0.754,2.2947123,2.9705167,-1.6975037,1.4082086,0.43065658,-0.9713762
0.756,2.4427166,2.9364944,-1.6784981,1.4059441,0.37716174,-0.95635056
0.758,2.580705,2.9055839,-1.6511989,1.403218,0.32483602,-0.94213283
0.76,2.7088685,2.8774712,-1.6170298,1.4002875,0.27402127,-0.9287605
0.762,2.827038,2.8518133,-1.5775576,1.3974379,0.22513989,-0.916052
0.764,2.9350815,2.828229,-1.534122,1.3949605,0.17859447,-0.9036711
0.766,3.0330558,2.806384,-1.4875265,1.3931049,0.13483399,-0.8913288
0.768,3.1207912,2.785932,-1.4389036,1.392139,0.094379574,-0.87880635
0.77,3.198464,2.7665129,-1.3897014,1.3923501,0.05783236,-0.8659747
0.772,3.266262,2.747764,-1.3416001,1.3940105,0.025763273,-0.8527881
0.774,3.325716,2.729166,-1.2964978,1.3972871,-0.001455903,-0.8392289
0.776,3.373025,2.7123876,-1.2571813,1.4022664,-0.023662955,-0.8252894
0.778,3.4107828,2.6954894,-1.2255045,1.4089489,-0.04088673,-0.81096387
0.78,3.4397259,2.677152,-1.1990792,1.4172175,-0.053412244,-0.7963131
0.782,3.458309,2.6573882,-1.1733508,1.4268643,-0.061763063,-0.7814713
0.784,3.468668,2.6367147,-1.1495601,1.43761,-0.066614285,-0.7666116
0.786,3.4733877,2.6148405,-1.1302367,1.4491601,-0.068722606,-0.7519276
0.788,3.4734812,2.5903888,-1.120887,1.461221,-0.0688535,-0.737646
0.79,3.4678373,2.563183,-1.1229366,1.4734869,-0.06775862,-0.72401357
0.792,3.456963,2.533342,-1.1340357,1.4856756,-0.066087425,-0.71124554
0.794,3.442225,2.5019944,-1.1506085,1.4975182,-0.06439358,-0.69955236
0.796,3.4241095,2.4694624,-1.170473,1.5087639,-0.063146144,-0.68906194
0.798,3.4028258,2.435267,-1.192938,1.5191804,-0.06267527,-0.6798147
0.8,3.3789563,2.3981314,-1.2177141,1.5285482,-0.063155085,-0.6717624
0.802,3.3538942,2.3573751,-1.2437413,1.5367006,-0.064584166,-0.6648448
0.804,3.3285527,2.3129025,-1.2697468,1.5435389,-0.06680301,-0.6590227
0.806,3.303156,2.2650433,-1.2950006,1.5489894,-0.069578916,-0.65422887
0.808,3.2780385,2.2143106,-1.3187099,1.5529901,-0.07262185,-0.6503582
0.81,3.2534056,2.1611204,-1.3398818,1.5555264,-0.075672805,-0.64733696
0.812,3.2292428,2.1062062,-1.3576881,1.5565138,-0.07835987,-0.64505225
0.814,3.2054808,2.050359,-1.3712,1.5559487,-0.08025518,-0.64320266
0.816,3.1825204,1.9939995,-1.3797739,1.5540909,-0.08105379,-0.6414207
0.818,3.161953,1.9364915,-1.3860732,1.5512415,-0.08046469,-0.6395721
0.82,3.1401696,1.8806891,-1.3942003,1.5474876,-0.078413665,-0.6374562
0.822,3.1176996,1.8263428,-1.3936602,1.5428642,-0.0749132,-0.63458145
0.824,3.0926666,1.7738597,-1.3776112,1.5374881,-0.07000443,-0.6303248
0.826,3.0631547,1.7250535,-1.3476062,1.5316007,-0.06361014,-0.6242746
0.828,3.02857,1.6809304,-1.3091787,1.5255047,-0.055515915,-0.6162592
0.83,2.987987,1.6413388,-1.2702923,1.5195084,-0.04548356,-0.6061914
0.832,2.9413164,1.605434,-1.2344718,1.5139737,-0.033272177,-0.59401
0.834,2.8885293,1.5727983,-1.1994951,1.5092981,-0.018583328,-0.5797224
0.836,2.8294497,1.54387,-1.161454,1.5058517,-0.001127094,-0.56349957
0.838,2.7641826,1.518468,-1.1182024,1.5039339,0.019241303,-0.54559255
0.84,2.6913762,1.4965621,-1.0716467,1.503739,0.042432517,-0.5263245
0.842,2.6098175,1.4779601,-1.0238733,1.5053005,0.06804356,-0.5059625
0.844,2.518059,1.4628892,-0.9752758,1.5085071,0.09539473,-0.48474625
0.846,2.4135404,1.452258,-0.9251546,1.5130587,0.12350547,-0.46286815
0.848,2.2935514,1.4466726,-0.8735367,1.5185455,0.15120625,-0.4404475
0.85,2.1601667,1.4446115,-0.81950945,1.5245606,0.17703876,-0.41766393
0.852,2.0137935,1.4451709,-0.759846,1.5304661,0.19939393,-0.39459977
0.854,1.8508891,1.4496214,-0.6980139,1.5356036,0.21737117,-0.37133458
0.856,1.6723402,1.4574313,-0.6382806,1.5394409,0.23043728,-0.34819204
0.858,1.4804924,1.4673128,-0.58096105,1.5416409,0.23801106,-0.3256743
0.86,1.2753465,1.4790564,-0.5245891,1.5420892,0.23951149,-0.30440432
0.862,1.0578079,1.492041,-0.46692228,1.5407686,0.23452073,-0.28492233
0.864,0.82980967,1.5056863,-0.40681255,1.5376861,0.2230646,-0.26759756
0.866,0.5935905,1.5197845,-0.34541702,1.5330272,0.20558575,-0.25302908
0.868,0.3512485,1.5338318,-0.2844635,1.5271249,0.18301389,-0.24231297
0.87,0.10555416,1.5468478,-0.22457391,1.5205377,0.15668696,-0.23663369
0.872,-0.14044946,1.5576952,-0.16531941,1.5143001,0.12785792,-0.23679763
0.874,-0.38295767,1.5652254,-0.10584718,1.5099337,0.09774268,-0.24343845
0.876,-0.6182076,1.5682206,-0.04640639,1.508978,0.06724954,-0.25711313
0.878,-0.842206,1.5655692,0.011969835,1.5127436,0.036843896,-0.2779777
0.88,-1.0510181,1.5560849,0.06849083,1.5221025,0.006404221,-0.3054378
0.882,-1.2413008,1.5390052,0.12302069,1.5373746,-0.024381042,-0.33841485
0.884,-1.4099739,1.5137807,0.17572372,1.5581734,-0.055927366,-0.37596875
0.886,-1.554213,1.4801335,0.22704667,1.5833732,-0.089092195,-0.4170978
0.888,-1.6727155,1.4385108,0.27768216,1.6112376,-0.12464681,-0.46049565
0.89,-1.7620394,1.3879052,0.3278572,1.6396828,-0.16286018,-0.50497913
0.892,-1.8185098,1.3276169,0.37332126,1.6665839,-0.20346105,-0.5497463
0.894,-1.8438798,1.2580532,0.4145581,1.6901705,-0.24560478,-0.59421813
0.896,-1.839737,1.180131,0.45386654,1.7094343,-0.28803244,-0.6380711
0.898,-1.8056645,1.0954132,0.4941093,1.7241912,-0.3293753,-0.6811157
0.9,-1.7409238,1.0051594,0.5341362,1.7349815,-0.36835933,-0.7231676
0.902,-1.6473868,0.9101518,0.5714566,1.7427381,-0.40401432,-0.7639676
0.904,-1.5274078,0.8103294,0.604518,1.7484915,-0.43565214,-0.8031126
0.906,-1.3827273,0.70622104,0.63288903,1.7533295,-0.4630922,-0.8402462
0.908,-1.2144798,0.5988054,0.6567258,1.7579178,-0.48710573,-0.8749798
0.91,-1.0251261,0.4897401,0.67552215,1.7623553,-0.50861293,-0.90677625
0.912,-0.8174462,0.3798758,0.6880091,1.7662902,-0.5282586,-0.9352076
0.914,-0.5940197,0.26987392,0.6927023,1.7691032,-0.54652375,-0.9600712
0.916,-0.3568765,0.16024968,0.68887967,1.7702097,-0.5638378,-0.9815283
0.918,-0.10839105,0.05161386,0.6761238,1.7692057,-0.58069,-0.9999109
0.92,0.14921573,-0.05545965,0.6538998,1.7659128,-0.59753394,-1.0153404
0.922,0.41365203,-0.16050032,0.62180007,1.7603197,-0.6146634,-1.0277588
0.924,0.68281144,-0.2631514,0.5794788,1.7525036,-0.6321535,-1.0371865
0.926,0.9544086,-0.36272258,0.5267523,1.7426295,-0.6498758,-1.0438617
0.928,1.2254671,-0.45799416,0.4660807,1.7308888,-0.6677624,-1.048101
0.93,1.4976892,-0.5510521,0.39918008,1.7174379,-0.6859335,-1.0501368
0.932,1.768296,-0.64048594,0.3156327,1.7023414,-0.7047018,-1.0500827
0.934,2.0364525,-0.7258305,0.21322203,1.6856065,-0.7244407,-1.048101
0.936,2.3013008,-0.80736804,0.09938039,1.6672258,-0.7456577,-1.0443653
0.938,2.560523,-0.8842647,-0.01739914,1.6472349,-0.7686716,-1.0388819
0.94,2.812919,-0.9553503,-0.13030386,1.6257238,-0.79328656,-1.0318836
0.942,3.0564315,-1.0193396,-0.23926252,1.6029073,-0.8192955,-1.0238309
0.944,3.2899032,-1.0762918,-0.3488938,1.5791254,-0.8465322,-1.0150099
0.946,3.5126152,-1.1271601,-0.46277264,1.5548178,-0.8746572,-1.0055833
0.948,3.7240143,-1.1720946,-0.5803201,1.5304173,-0.90324324,-0.9957614
0.95,3.9250038,-1.2114291,-0.69712967,1.5062534,-0.93176305,-0.9857499
0.952,4.115749,-1.2453403,-0.8097711,1.4826121,-0.9596584,-0.97571766
0.954,4.2970586,-1.274287,-0.91696525,1.4597625,-0.9864472,-0.9658503
0.956,4.4698515,-1.2992465,-1.0183697,1.4379463,-1.011817,-0.9563381
0.958,4.634576,-1.320621,-1.1122173,1.4173143,-1.0356585,-0.9473258
0.96,4.7874684,-1.3368653,-1.197707,1.3978853,-1.058006,-0.9389436
0.962,4.9274883,-1.3477523,-1.275683,1.3795598,-1.0789962,-0.9313254
0.964,5.057215,-1.3547127,-1.340569,1.3621659,-1.0988207,-0.92463166
0.966,5.173736,-1.3568525,-1.3888807,1.3454784,-1.1177576,-0.91900665
0.968,5.2745295,-1.3533604,-1.4221361,1.3292574,-1.1361756,-0.9145699
0.97,5.3599787,-1.3445754,-1.4426953,1.3132492,-1.1545149,-0.91137457
0.972,5.4293995,-1.3304906,-1.4525223,1.2972035,-1.173188,-0.9094256
0.974,5.481411,-1.3110623,-1.4520104,1.2808928,-1.1925876,-0.9086699
0.976,5.514938,-1.286416,-1.4397057,1.2641722,-1.2130752,-0.9089878
0.978,5.5288715,-1.2566245,-1.4140965,1.2470034,-1.2349494,-0.910232
0.98,5.5220723,-1.2215321,-1.3754365,1.2294171,-1.2584642,-0.9122562
0.982,5.4927583,-1.1802747,-1.3253729,1.2115444,-1.2838216,-0.914941
0.984,5.4394097,-1.1325392,-1.2649329,1.1935973,-1.311153,-0.918215
0.986,5.3608894,-1.0781728,-1.1943198,1.1758256,-1.3405464,-0.9220857
0.988,5.256194,-1.0171448,-1.1131718,1.1584928,-1.37205,-0.9266407
0.99,5.1245084,-0.949402,-1.0225053,1.1418481,-1.4056898,-0.9320493
0.992,4.9659,-0.87530625,-0.92392206,1.126118,-1.4414274,-0.93855196
0.994,4.780088,-0.7952322,-0.81883293,1.1114902,-1.4791892,-0.94641393
0.996,4.5674562,-0.70972764,-0.7090553,1.0981039,-1.5188739,-0.95594203
0.998,4.32888,-0.61936367,-0.59567606,1.086077,-1.5603179,-0.9673954
1,4.0654907,-0.52479863,-0.47956988,1.0754848,-1.6033024,-0.98093235
1.002,3.778493,-0.42667556,-0.3614982,1.0663922,-1.6475354,-0.99663156
1.004,3.4702961,-0.32586443,-0.24258527,1.0588275,-1.6927078,-1.0145012
1.006,3.1430326,-0.22323096,-0.124305576,1.0527747,-1.7385085,-1.0345463
1.008,2.7992594,-0.119715095,-0.0079972595,1.0482392,-1.7845483,-1.0567709
1.01,2.4418728,-0.016612351,0.10505672,1.0452332,-1.8303716,-1.0810957
1.012,2.0737498,0.085128665,0.21393779,1.0437016,-1.8756466,-1.1074991
1.014,1.6981506,0.18428272,0.31710467,1.0435624,-1.9200891,-1.1360211
1.016,1.3187871,0.27976504,0.41369435,1.0447569,-1.9633849,-1.1667527
1.018,0.93911195,0.3702984,0.50296,1.0472198,-2.0051765,-1.1997936
1.02,0.5629304,0.454599,0.58385646,1.0509362,-2.0450413,-1.235179
1.022,0.1939027,0.5316089,0.6554111,1.0559374,-2.0824857,-1.2727686
1.024,-0.16441594,0.6002475,0.7165769,1.0623128,-2.116889,-1.3123114
1.026,-0.5086026,0.6594902,0.7663175,1.0702225,-2.1475265,-1.3533607
1.028,-0.8354404,0.7085459,0.80408156,1.0799241,-2.1736045,-1.395268
1.03,-1.1420414,0.74680066,0.8295453,1.0917215,-2.194317,-1.4372233
1.032,-1.4255207,0.77366924,0.84229666,1.1059409,-2.2089698,-1.4783304
1.034,-1.6833999,0.78877145,0.8421016,1.1228967,-2.217058,-1.5176797
1.036,-1.9134787,0.7917975,0.8289503,1.1427797,-2.2183752,-1.5544679
1.038,-2.113961,0.78242815,0.8031828,1.1656625,-2.2130795,-1.588024
1.04,-2.2835052,0.76068133,0.7651253,1.191461,-2.2017002,-1.6179049
1.042,-2.4210896,0.7266569,0.7152933,1.2199384,-2.1851294,-1.6438932
1.044,-2.5261734,0.6807102,0.6545352,1.2507226,-2.164504,-1.6659725
1.046,-2.598652,0.62350285,0.5840488,1.2833351,-2.141147,-1.6842929
1.048,-2.638845,0.55584383,0.5052511,1.3172472,-2.1163905,-1.6991482
1.05,-2.6474519,0.47872454,0.4196142,1.3519156,-2.0914838,-1.7108927
1.052,-2.6248868,0.3931178,0.3289186,1.3868455,-2.0675423,-1.7198987
1.054,-2.5722077,0.30007195,0.23489171,1.4216156,-2.0454698,-1.7265332
1.056,-2.490588,0.2006073,0.13924351,1.455894,-2.0259387,-1.7311118
1.058,-2.3811755,0.09556365,0.043713175,1.4894588,-2.0093663,-1.7338598
1.06,-2.2455096,-0.013997912,-0.049991596,1.5221854,-1.9959083,-1.734943
1.062,-2.084868,-0.12709409,-0.14016683,1.5539957,-1.9856178,-1.7345022
1.064,-1.900989,-0.24279511,-0.2254172,1.5848893,-1.9784355,-1.7327788
1.066,-1.6953028,-0.3601982,-0.30426311,1.6149523,-1.9740709,-1.7299681
1.068,-1.469284,-0.47863284,-0.3756085,1.6442821,-1.9721901,-1.7262754
1.07,-1.2243869,-0.5974994,-0.43850726,1.6729424,-1.9724953,-1.7219759
1.072,-0.96227586,-0.71615183,-0.49216813,1.7010145,-1.9747223,-1.7173704
1.074,-0.68450904,-0.8342047,-0.5362718,1.7285522,-1.9786537,-1.7128236
1.076,-0.39257655,-0.9512472,-0.57039917,1.7555846,-1.9841347,-1.7087427
1.078,-0.08840111,-1.0667658,-0.5947267,1.7821221,-1.9911166,-1.7054745
1.08,0.2259739,-1.1804088,-0.6097003,1.8081185,-1.9996477,-1.703332
1.082,0.5487603,-1.2915971,-0.6163414,1.8334787,-2.0097933,-1.7025921
1.084,0.87804353,-1.3999696,-0.6159083,1.8580666,-2.0216465,-1.703426
1.086,1.2120893,-1.5050814,-0.60979027,1.8817304,-2.0352519,-1.7058743
1.088,1.5492392,-1.6063794,-0.59972525,1.9043419,-2.0505702,-1.7098486
1.09,1.8875573,-1.7033328,-0.5874874,1.9258214,-2.067458,-1.7151594
1.092,2.225535,-1.7961118,-0.57472026,1.9461256,-2.0856361,-1.7215247
1.094,2.5610418,-1.8843412,-0.5638705,1.9652922,-2.1047382,-1.7285691
1.096,2.8917975,-1.9675918,-0.5572733,1.9834137,-2.1243176,-1.7358639
1.098,3.2155812,-2.0453875,-0.55690956,2.0006166,-2.1439016,-1.7429345
1.1,3.5298986,-2.1173425,-0.5643044,2.017096,-2.1630125,-1.7492847
1.102,3.832347,-2.1829019,-0.5815664,2.0330646,-2.1812313,-1.7544167
1.104,4.1210012,-2.2417054,-0.61116666,2.0487542,-2.1981852,-1.7578602
1.106,4.3936334,-2.2930536,-0.6548492,2.0643778,-2.2135663,-1.759203
1.108,4.647625,-2.3361778,-0.71489704,2.0801308,-2.2271662,-1.7580982
1.11,4.8809648,-2.370203,-0.7928152,2.096168,-2.2388399,-1.7542434
1.112,5.092128,-2.3947244,-0.88784385,2.1126375,-2.2484882,-1.7473769
1.114,5.2768116,-2.408174,-0.99957603,2.1296973,-2.2560883,-1.7372818
1.116,5.432285,-2.4081385,-1.133766,2.1475267,-2.2616506,-1.723802
1.118,5.5593243,-2.3944633,-1.2928373,2.1663263,-2.2652183,-1.7068187
1.12,5.657012,-2.3682077,-1.4752867,2.186352,-2.2669,-1.6863031
1.122,5.7247934,-2.3301144,-1.6789836,2.2079077,-2.2668643,-1.6622736
1.124,5.761988,-2.2789316,-1.9021472,2.231339,-2.265374,-1.6347926
1.126,5.767119,-2.2132154,-2.1435063,2.2569897,-2.2628357,-1.6040124
1.128,5.7390404,-2.132276,-2.401328,2.2851686,-2.2598262,-1.5701369
1.13,5.676702,-2.037169,-2.6740987,2.3161345,-2.2571607,-1.5334332
1.132,5.5864697,-1.9315495,-2.9607964,2.3500152,-2.2559237,-1.4941907
1.134,5.4674444,-1.814524,-3.2590315,2.3868012,-2.257498,-1.4527531
1.136,5.317214,-1.6837952,-3.5640695,2.4263291,-2.2635093,-1.4094977
1.138,5.139645,-1.5398479,-3.8699942,2.4682918,-2.2757716,-1.3648444
1.14,4.9380116,-1.3842278,-4.1677675,2.5122325,-2.296294,-1.319265
1.142,4.7108717,-1.2174959,-4.4523234,2.5575469,-2.3270798,-1.2732638
1.144,4.465893,-1.0426388,-4.7222834,2.6035728,-2.3698375,-1.2273529
1.146,4.205247,-0.86116874,-4.975661,2.649735,-2.426059,-1.1820571
1.148,3.9316576,-0.6748066,-5.2121563,2.6956282,-2.4970055,-1.1378804
1.15,3.6502595,-0.48608923,-5.4290385,2.7408934,-2.5833225,-1.095305
1.152,3.3669906,-0.2980175,-5.6193786,2.7852116,-2.6849122,-1.0547004
1.154,3.0858302,-0.11236358,-5.7776036,2.828445,-2.8010516,-1.0163131
1.156,2.8107283,0.06979799,-5.899104,2.8707855,-2.9303098,-0.980348
1.158,2.5465467,0.24669135,-5.979651,2.9126987,-3.0704503,-0.94697773
1.16,2.2982776,0.41582465,-6.017039,2.9548025,-3.218504,-0.9162434
1.162,2.0707295,0.57514787,-6.010749,2.9978805,-3.3707929,-0.88783
1.164,1.8681612,0.72298455,-5.960139,3.0426664,-3.523509,-0.8613245
1.166,1.6954618,0.85747135,-5.864235,3.0897434,-3.67282,-0.8363193
1.168,1.5569715,0.97729087,-5.726731,3.139528,-3.8147283,-0.81209403
1.17,1.4561453,1.0821168,-5.5550704,3.1921554,-3.9453752,-0.78773594
1.172,1.3957005,1.1723051,-5.3549156,3.247662,-4.060905,-0.762293
1.174,1.3781971,1.2479265,-5.130291,3.3060932,-4.157982,-0.73471355
1.176,1.4057595,1.3092977,-4.8866835,3.3675156,-4.234235,-0.70401204
1.178,1.4790673,1.3579835,-4.6312246,3.4320295,-4.28794,-0.6693141
1.18,1.5970266,1.3965266,-4.371049,3.499727,-4.3182817,-0.6297623
1.182,1.7583613,1.4274296,-4.1138735,3.5707788,-4.3253126,-0.5845424
1.184,1.960456,1.4533795,-3.8680596,3.645597,-4.3096347,-0.53308487
1.186,2.1993308,1.4772723,-3.6413918,3.7248092,-4.2727137,-0.47519612
1.188,2.4696193,1.5026155,-3.440259,3.809146,-4.2167006,-0.41098225
1.19,2.7652314,1.5332049,-3.269976,3.8993077,-4.1442723,-0.3408215
1.192,3.0790682,1.5731125,-3.134674,3.9957473,-4.058599,-0.26539254
1.194,3.4030595,1.62637,-3.0372324,4.098522,-3.9631927,-0.18568778
1.196,3.7284608,1.6966403,-2.9791567,4.2072077,-3.86172,-0.10301685
1.198,4.046072,1.7876325,-2.960434,4.3208222,-3.7576113,-0.018942237
1.2,4.346465,1.9028847,-2.9794192,4.4378166,-3.653852,0.06478202
1.202,4.6202784,2.0456834,-3.0330796,4.5562825,-3.5527077,0.14625108
1.204,4.858636,2.2187343,-3.1171227,4.6742506,-3.4555843,0.22352433
1.206,5.053136,2.4243631,-3.2264223,4.789791,-3.3628194,0.29475462
1.208,5.196329,2.6643527,-3.3550267,4.9010754,-3.2737262,0.35833192
1.21,5.2819057,2.9399874,-3.4962187,5.0065966,-3.1870189,0.4129809
1.212,5.3047085,3.2518814,-3.6431055,5.1053944,-3.1011834,0.45777142
1.214,5.2609606,3.6000667,-3.7888913,5.197126,-3.0148132,0.49205995
1.216,5.14834,3.9839158,-3.9270449,5.2819347,-2.9270945,0.5154414
1.218,4.966487,4.402235,-4.0511465,5.360418,-2.837788,0.52801716
1.22,4.7161617,4.8531814,-4.1559744,5.4334273,-2.7475743,0.5303335
1.222,4.39936,5.3348546,-4.238514,5.5018554,-2.658214,0.52299726
1.224,4.021773,5.8438807,-4.295163,5.566546,-2.572116,0.50677603
1.226,3.5887256,6.376151,-4.3179603,5.628104,-2.492175,0.482606
1.228,3.1036017,6.929717,-4.3045845,5.686882,-2.420936,0.4514119
1.23,2.5734932,7.5026927,-4.256949,5.7431483,-2.3602433,0.41415608
1.232,2.006153,8.091809,-4.1770844,5.797171,-2.311535,0.3717429
1.234,1.4101124,8.691934,-4.0657,5.849285,-2.2754707,0.32489306
1.236,0.79490983,9.297981,-3.9235435,5.899802,-2.2521026,0.27419972
1.238,0.16949886,9.906151,-3.751828,5.948883,-2.2410915,0.22026545
1.24,-0.45763433,10.513933,-3.5516782,5.996641,-2.241458,0.16369337
1.242,-1.0840575,11.120326,-3.324214,6.043162,-2.251917,0.10494214
1.244,-1.6996453,11.71943,-3.0717056,6.08855,-2.2710629,0.04429418
1.246,-2.2946153,12.305342,-2.7983174,6.1329126,-2.297373,-0.01805216
1.248,-2.8662045,12.875655,-2.5084257,6.176322,-2.3292828,-0.081968725
1.25,-3.4104648,13.428743,-2.207243,6.2187867,-2.3653593,-0.1473962
1.252,-3.9199018,13.9622135,-1.894783,6.260225,-2.404449,-0.21435875
1.254,-4.3965545,14.475952,-1.5685291,6.3004837,-2.4454122,-0.28293902
1.256,-4.8360715,14.967918,-1.2282052,6.339342,-2.4872835,-0.3532352
1.258,-5.2355323,15.436651,-0.8735347,6.3765783,-2.5295033,-0.42537332
1.26,-5.5946684,15.88142,-0.5073571,6.412028,-2.5718403,-0.49958146
1.262,-5.9140134,16.301739,-0.13580179,6.4455132,-2.6142268,-0.5761205
1.264,-6.19208,16.696291,0.23769093,6.476834,-2.6567335,-0.6552136
1.266,-6.4285893,17.063852,0.61106396,6.5057645,-2.699653,-0.73706627
1.268,-6.6242194,17.404419,0.9828186,6.5320964,-2.7434723,-0.82189006
1.27,-6.7803483,17.718988,1.353056,6.555667,-2.7887597,-0.90988517
1.272,-6.8981724,18.008442,1.7223501,6.576297,-2.8361602,-1.0012169
1.274,-6.978818,18.273512,2.090084,6.5938354,-2.8864005,-1.0960082
1.276,-7.0244193,18.515394,2.4547987,6.6081448,-2.9402418,-1.1942763
1.278,-7.036844,18.735138,2.8186564,6.619108,-2.9983656,-1.2959483
1.28,-7.017688,18.933136,3.1850233,6.626638,-3.0613177,-1.4008338
1.282,-6.968685,19.1098,3.5532966,6.630665,-3.129521,-1.5087035
1.284,-6.891952,19.266531,3.9210587,6.6311126,-3.2031894,-1.6192813
1.286,-6.78983,19.404724,4.2871847,6.627932,-3.282329,-1.7322772
1.288,-6.6641083,19.525335,4.652109,6.6210666,-3.3667293,-1.8474265
1.29,-6.5157247,19.62883,5.0160728,6.610451,-3.4559898,-1.9644804
1.292,-6.3464246,19.716251,5.38021,6.5960226,-3.5495563,-2.0832512
1.294,-6.1565433,19.786438,5.7461815,6.5777173,-3.6467547,-2.2035897
1.296,-5.9499035,19.842052,6.1132956,6.5554776,-3.746868,-2.3253815
1.298,-5.727203,19.883411,6.483265,6.5292325,-3.8491902,-2.44853
1.3,-5.4890194,19.910095,6.855405,6.4989104,-3.953042,-2.5729203
1.302,-5.237398,19.9226,7.230093,6.464458,-4.0578065,-2.6984189
1.304,-4.9734006,19.921135,7.6081953,6.42582,-4.1629457,-2.8248599
1.306,-4.697919,19.905758,7.9903793,6.382947,-4.267985,-2.9520154
1.308,-4.411963,19.876472,8.377124,6.3358192,-4.372507,-3.0796232
1.31,-4.116645,19.833105,8.768769,6.2844267,-4.4760995,-3.2073781
1.312,-3.8127027,19.775423,9.165391,6.2287908,-4.578363,-3.3349535
1.314,-3.5010965,19.702936,9.566968,6.1689672,-4.6788564,-3.461994
1.316,-3.1821373,19.615213,9.973296,6.1050434,-4.777124,-3.5881166
1.318,-2.8565521,19.511742,10.383853,6.0371766,-4.8726516,-3.7129805
1.32,-2.5247917,19.392204,10.798202,5.965544,-4.964936,-3.8363342
1.322,-2.1871035,19.256271,11.215798,5.8903008,-5.0534725,-3.9579797
1.324,-1.843703,19.10368,11.636045,5.81163,-5.1375456,-4.0775056
1.326,-1.4947097,18.934172,12.05803,5.729709,-5.2168236,-4.1946807
1.328,-1.1402516,18.747345,12.480917,5.644728,-5.2908707,-4.309483
1.33,-0.7803185,18.543137,12.903585,5.556831,-5.3592243,-4.42177
1.332,-0.41460347,18.321415,13.324874,5.4661326,-5.421587,-4.531422
1.334,-0.043088675,18.082382,13.743565,5.372765,-5.477632,-4.6383495
1.336,0.33426094,17.826197,14.158352,5.276877,-5.527019,-4.742415
1.338,0.71775794,17.553286,14.5678425,5.1786456,-5.569435,-4.8434057
1.34,1.1068268,17.264168,14.970567,5.0782595,-5.60457,-4.941044
1.342,1.502547,16.958838,15.365244,4.9759502,-5.6321244,-5.034968
1.344,1.9043279,16.638172,15.75038,4.871988,-5.651834,-5.124797
1.346,2.312115,16.303005,16.125034,4.766673,-5.663472,-5.2101226
1.348,2.7261014,15.954174,16.48774,4.660329,-5.66691,-5.29056
1.35,3.146114,15.592599,16.837473,4.5532904,-5.662031,-5.3657665
1.352,3.5719533,15.219188,17.172834,4.4458914,-5.6487966,-5.4354925
1.354,4.0033846,14.834938,17.492502,4.338424,-5.6272173,-5.499597
1.356,4.4398203,14.440844,17.79564,4.231136,-5.5973897,-5.5580254
1.358,4.880966,14.03801,18.08142,4.124192,-5.559459,-5.610807
1.36,5.3261337,13.627574,18.349125,4.017687,-5.513674,-5.6580305
1.362,5.7746134,13.21051,18.598106,3.9116573,-5.4603653,-5.6998067
1.364,6.225852,12.787697,18.827768,3.806083,-5.3999543,-5.7362576
1.366,6.678727,12.360167,19.03766,3.700882,-5.3329353,-5.767473
1.368,7.1320963,11.928701,19.227509,3.595984,-5.259919,-5.7935467
1.37,7.584774,11.494131,19.396942,3.491286,-5.1815114,-5.814575
1.372,8.03553,11.057363,19.545645,3.3867111,-5.0982666,-5.830558
1.374,8.483128,10.6190405,19.673338,3.2822216,-5.010765,-5.841482
1.376,8.926336,10.179679,19.779873,3.1778457,-4.9195046,-5.847372
1.378,9.363504,9.739942,19.865078,3.0735822,-4.825045,-5.8484764
1.38,9.793169,9.3004875,19.929085,2.969462,-4.7275143,-5.844816
1.382,10.213654,8.861757,19.972204,2.865504,-4.6271935,-5.8363037
1.384,10.623284,8.424348,19.99474,2.761797,-4.524363,-5.823082
1.386,11.02068,7.988762,19.99687,2.6584387,-4.419154,-5.805229
1.388,11.404071,7.555448,19.978735,2.555511,-4.311776,-5.7827625
1.39,11.7721,7.124915,19.940784,2.4530873,-4.20247,-5.7557073
1.392,12.123367,6.697836,19.88349,2.351272,-4.0915036,-5.7240925
1.394,12.456631,6.2746844,19.807283,2.2501743,-3.9791877,-5.6879454
1.396,12.770624,5.8562174,19.712833,2.149878,-3.8658752,-5.647304
1.398,13.064483,5.442696,19.600574,2.0505068,-3.7519464,-5.6022167
1.4,13.337295,5.034618,19.471045,1.9521792,-3.6378202,-5.5527573
1.402,13.588285,4.632614,19.324768,1.8550029,-3.5239131,-5.499039
1.404,13.815879,4.239231,19.162676,1.7590892,-3.410648,-5.4412055
1.406,14.022532,3.8528404,18.987001,1.6645689,-3.2984178,-5.3794193
1.408,14.207061,3.4743538,18.79699,1.5715797,-3.1875653,-5.3138943
1.41,14.368813,3.1049426,18.594202,1.4802709,-3.0783315,-5.2448654
1.412,14.508674,2.7445314,18.379427,1.3908036,-2.9708946,-5.172592
1.414,14.627105,2.393393,18.153257,1.3033326,-2.8653126,-5.0973735
1.416,14.724605,2.0521803,17.91639,1.2179892,-2.7615936,-5.019515
1.418,14.802143,1.7211666,17.669643,1.1348879,-2.6597006,-4.9393344
1.42,14.86075,1.4006181,17.413803,1.0541322,-2.5595493,-4.857142
1.422,14.901337,1.0908499,17.149683,0.97577524,-2.4610243,-4.773242
1.424,14.925126,0.7920728,16.877987,0.8998945,-2.3640792,-4.687902
1.426,14.932868,0.5042968,16.599564,0.8265197,-2.2687325,-4.6014414
1.428,14.925834,0.22753549,16.315155,0.7556584,-2.174927,-4.514145
1.43,14.905269,-0.03837943,16.025023,0.6873119,-2.0826368,-4.4262633
1.432,14.872363,-0.29376602,15.729592,0.6214845,-1.9918764,-4.33805
1.434,14.828256,-0.5388403,15.429186,0.55818677,-1.9026599,-4.249758
1.436,14.774086,-0.77397203,15.12421,0.4974239,-1.8150275,-4.1616426
1.438,14.710955,-0.9992814,14.81506,0.4391787,-1.7290592,-4.0739207
1.44,14.639985,-1.2151976,14.502413,0.38343692,-1.6448722,-3.9868135
1.442,14.561888,-1.4220204,14.186797,0.3301636,-1.5626371,-3.900522
1.444,14.477671,-1.6201844,13.868593,0.27931058,-1.4825696,-3.8152223
1.446,14.388069,-1.8099852,13.548479,0.2307961,-1.4049504,-3.7310638
1.448,14.293455,-1.9919796,13.22687,0.18451464,-1.3300767,-3.6481915
1.45,14.194963,-2.1664753,12.904271,0.14034736,-1.2582328,-3.5667233
1.452,14.091911,-2.3334923,12.581232,0.09815037,-1.1896913,-3.4867928
1.454,13.985252,-2.4937582,12.258415,0.057769537,-1.1246512,-3.4085388
1.456,13.874987,-2.6476226,11.936363,0.01905787,-1.06325,-3.332086
1.458,13.760974,-2.795259,11.615983,-0.01813078,-1.0055692,-3.2575595
1.46,13.643207,-2.9368935,11.298037,-0.05392456,-0.9516148,-3.1850848
1.462,13.521452,-3.0726237,10.98342,-0.088434696,-0.9013437,-3.1147585
1.464,13.395535,-3.2025976,10.672924,-0.12176466,-0.8546794,-3.0467114
1.466,13.265295,-3.3269262,10.367048,-0.15399683,-0.81149167,-2.9810545
1.468,13.130177,-3.4456391,10.066677,-0.18517268,-0.77162,-2.9178824
1.47,12.98983,-3.5587225,9.772414,-0.21531951,-0.73484945,-2.8572845
1.472,12.843756,-3.6660962,9.484957,-0.2444514,-0.7009243,-2.7993479
1.474,12.691612,-3.7676554,9.205004,-0.2725544,-0.6695643,-2.7441487
1.476,12.533051,-3.8632028,8.933113,-0.29960942,-0.64044935,-2.6917357
1.478,12.367596,-3.952449,8.669914,-0.32560623,-0.6132377,-2.642159
1.48,12.195185,-4.035363,8.415767,-0.35051966,-0.58757335,-2.5954366
1.482,12.015431,-4.111659,8.170996,-0.37430608,-0.5631299,-2.5515637
1.484,11.828214,-4.181163,7.9358582,-0.39695144,-0.53962857,-2.510511
1.486,11.633167,-4.2436543,7.7105207,-0.4184566,-0.5168416,-2.4722366
1.488,11.430334,-4.2989836,7.495245,-0.43887353,-0.49459082,-2.4366817
1.49,11.219742,-4.347252,7.2898455,-0.45826787,-0.47274774,-2.4037552
1.492,11.001466,-4.388406,7.0938587,-0.47672653,-0.4512254,-2.3733735
1.494,10.776009,-4.4224844,6.906818,-0.49434423,-0.42999774,-2.3454263
1.496,10.543414,-4.4494476,6.7281203,-0.5112484,-0.40905353,-2.3198075
1.498,10.304398,-4.469613,6.557252,-0.5275537,-0.38838303,-2.2964153
1.5,10.059349,-4.4831867,6.393668,-0.54337865,-0.36798587,-2.275145
1.502,9.808834,-4.4905796,6.2368264,-0.55880934,-0.34784356,-2.2558882
1.504,9.553594,-4.4923015,6.0859756,-0.57391757,-0.3279312,-2.238563
1.506,9.294361,-4.489052,5.94032,-0.5887674,-0.30821744,-2.2230651
1.508,9.032108,-4.48139,5.799191,-0.60337925,-0.28866622,-2.209295
1.51,8.76762,-4.4698205,5.6617503,-0.61775637,-0.26922366,-2.1971467
1.512,8.501912,-4.4551673,5.5269537,-0.6318925,-0.24982944,-2.1864939
1.514,8.236073,-4.438262,5.3938785,-0.64575326,-0.2304376,-2.1772037
1.516,7.9709044,-4.419762,5.2619076,-0.6592896,-0.21101004,-2.1691432
1.518,7.7077436,-4.4005327,5.1305103,-0.67245764,-0.19151434,-2.1621523
1.52,7.4473314,-4.381198,4.9994164,-0.6852118,-0.17194241,-2.1560824
1.522,7.190982,-4.3624754,4.8684006,-0.6975076,-0.15230191,-2.150786
1.524,6.9395466,-4.3447313,4.737447,-0.70928,-0.13262558,-2.1461196
1.526,6.69391,-4.328579,4.606618,-0.72046083,-0.11298317,-2.1419477
1.528,6.455023,-4.3142676,4.47614,-0.73098326,-0.093470156,-2.1381648
1.53,6.2237988,-4.302019,4.346316,-0.7407917,-0.07420689,-2.1346912
1.532,6.0011215,-4.2919817,4.217765,-0.74984866,-0.055353045,-2.1314683
1.534,5.787462,-4.283946,4.0912833,-0.7581402,-0.03712797,-2.128452
1.536,5.583415,-4.2776012,3.9677274,-0.7656868,-0.019815266,-2.1256158
1.538,5.389467,-4.272694,3.8479986,-0.77252114,-0.003770709,-2.1229382
1.54,5.2057724,-4.268684,3.7332277,-0.7787088,0.010579109,-2.1203835
1.542,5.0324316,-4.264997,3.6245947,-0.7843231,0.022747934,-2.1179085
1.544,4.8695164,-4.2609816,3.5233045,-0.7894582,0.032209396,-2.1154795
1.546,4.7168,-4.255766,3.4304879,-0.7942063,0.038462758,-2.113028
1.548,4.5738654,-4.2486115,3.3473,-0.7986604,0.04107666,-2.1104894
1.55,4.440279,-4.238797,3.2749255,-0.80288273,0.03972727,-2.107796
1.552,4.315365,-4.2254696,3.214556,-0.8069473,0.03423512,-2.1048741
1.554,4.19831,-4.207903,3.167177,-0.8109112,0.024594426,-2.101675
1.556,4.088093,-4.185385,3.1336145,-0.814857,0.010944486,-2.0981488
1.558,3.9837642,-4.157182,3.1145668,-0.8188574,-0.0064017177,-2.0942361
1.56,3.883992,-4.122761,3.1107652,-0.8230105,-0.026987433,-2.089873
1.562,3.7872622,-4.0815253,3.1226711,-0.8274115,-0.050265074,-2.08498
1.564,3.6920114,-4.033146,3.150694,-0.83213603,-0.07560027,-2.07947
1.566,3.5966237,-3.977254,3.1948557,-0.83723557,-0.10227716,-2.073242
1.568,3.499453,-3.913818,3.2551188,-0.8427368,-0.12951434,-2.0661852
1.57,3.3985982,-3.8426566,3.3310897,-0.8486161,-0.15646154,-2.0581713
1.572,3.292582,-3.763896,3.422459,-0.8547832,-0.18223488,-2.0490775
1.574,3.1796827,-3.677433,3.5286727,-0.861132,-0.2059148,-2.0387907
1.576,3.0582693,-3.5833945,3.6491466,-0.8675115,-0.2265718,-2.0272007
1.578,2.9268556,-3.4820004,3.7828379,-0.87375075,-0.2432729,-2.0142238
1.58,2.783957,-3.3735192,3.928835,-0.87968224,-0.25513452,-1.9997947
1.582,2.6282241,-3.2581987,4.0860376,-0.8851454,-0.26134795,-1.9838618
1.584,2.4585798,-3.136367,4.253386,-0.8899837,-0.2612372,-1.9663942
1.586,2.2739687,-3.0082684,4.429779,-0.8940872,-0.2542504,-1.9473813
1.588,2.0739074,-2.874043,4.6139092,-0.897372,-0.23997778,-1.9268787
1.59,1.8576376,-2.7337284,4.8045444,-0.89980006,-0.21814442,-1.9049714
1.592,1.6247976,-2.587584,5.0003934,-0.9013721,-0.18859911,-1.881798
1.594,1.3750615,-2.4356022,5.200056,-0.90212333,-0.15131646,-1.8575461
1.596,1.108397,-2.2778056,5.402221,-0.90213966,-0.10639268,-1.8324292
1.598,0.8246987,-2.113947,5.6054873,-0.9015326,-0.05403465,-1.8066673
1.6,0.5240519,-1.943924,5.8087063,-0.9004332,0.0054569244,-1.7804824
1.602,0.2068007,-1.7676024,6.0110064,-0.8989929,0.07174325,-1.7540894
1.604,-0.12697577,-1.5847611,6.2113447,-0.89737654,0.1444382,-1.7276795
1.606,-0.47671127,-1.3951824,6.408849,-0.8957245,0.2231558,-1.701422
1.608,-0.8420696,-1.1983173,6.602545,-0.89418197,0.30752742,-1.6754317
1.61,-1.2223856,-0.9938214,6.7915425,-0.89283764,0.39722568,-1.6498343
1.612,-1.6166778,-0.78136754,6.974992,-0.8917577,0.491948,-1.6247565
1.614,-2.024206,-0.56065047,7.152486,-0.89096487,0.591428,-1.6003274
1.616,-2.4439394,-0.33145666,7.3236294,-0.89046323,0.6953964,-1.5767181
1.618,-2.8749847,-0.09355199,7.4881306,-0.8902492,0.8035779,-1.554151
1.62,-3.31612,0.15321684,7.6460333,-0.8903277,0.9156242,-1.5329216
1.622,-3.7660837,0.40909088,7.7971783,-0.89070517,1.0311251,-1.5133848
1.624,-4.223421,0.67432415,7.9413753,-0.8914064,1.1495845,-1.4959877
1.626,-4.6867847,0.9488615,8.078271,-0.89248306,1.2704298,-1.4812338
1.628,-5.154634,1.2325987,8.207783,-0.89399606,1.3930142,-1.4696925
1.63,-5.6251574,1.5252529,8.329498,-0.89603573,1.516645,-1.4619765
1.632,-6.096958,1.8266894,8.443063,-0.8986864,1.6405822,-1.4587173
1.634,-6.568019,2.1363704,8.547764,-0.9020227,1.7640749,-1.4605646
1.636,-7.036337,2.4537709,8.643181,-0.9061096,1.8863595,-1.468159
1.638,-7.5001135,2.778253,8.728769,-0.910993,2.0066605,-1.4821111
1.64,-7.9572783,3.1090302,8.804189,-0.91670907,2.1241848,-1.5030181
1.642,-8.405776,3.4453557,8.868924,-0.92330563,2.2380984,-1.5314362
1.644,-8.84361,3.7862892,8.922289,-0.930827,2.3475118,-1.5678816
1.646,-9.26878,4.1306868,8.963597,-0.93933046,2.4514737,-1.612813
1.648,-9.679388,4.4775105,8.992173,-0.9488768,2.5489433,-1.6666392
1.65,-10.073624,4.825361,9.007328,-0.9595299,2.638816,-1.7297008
1.652,-10.449787,5.172928,9.008399,-0.97137463,2.7199092,-1.8022846
1.654,-10.806234,5.51885,8.994954,-0.98448646,2.7909608,-1.8845911
1.656,-11.141572,5.861475,8.966679,-0.998971,2.8506625,-1.976718
1.658,-11.454489,6.1991596,8.923357,-1.0149543,2.8976743,-2.078687
1.66,-11.744049,6.530424,8.864867,-1.0325786,2.9307194,-2.190403
1.662,-12.009289,6.853513,8.7914715,-1.05201,2.948581,-2.3116946
1.664,-12.249471,7.1668916,8.703526,-1.0734599,2.950143,-2.4422772
1.666,-12.463882,7.4688077,8.601488,-1.0971533,2.9344366,-2.581789
1.668,-12.65213,7.7576056,8.486118,-1.1233184,2.9006367,-2.7297752
1.67,-12.813717,8.031591,8.358177,-1.1521804,2.8481228,-2.885683
1.672,-12.948305,8.289058,8.218851,-1.1839467,2.7764373,-3.0488899
1.674,-13.055587,8.528373,8.069404,-1.218782,2.6853287,-3.2187223
1.676,-13.13557,8.747906,7.911689,-1.2568579,2.5747263,-3.3944843
1.678,-13.188296,8.946348,7.74761,-1.2983145,2.444748,-3.5754597
1.68,-13.213627,9.122296,7.579265,-1.3432506,2.295692,-3.7609322
1.682,-13.211985,9.274674,7.40864,-1.3917315,2.1280687,-3.9501987
1.684,-13.183404,9.40239,7.237835,-1.4437983,1.9426068,-4.1425853
1.686,-13.128277,9.5045805,7.06897,-1.4994507,1.7402923,-4.3374615
1.688,-13.046369,9.580534,6.9040537,-1.5586305,1.5223768,-4.5342026
1.69,-12.9374895,9.62952,6.7451677,-1.6212369,1.290403,-4.732223
1.692,-12.802524,9.651123,6.594387,-1.6871245,1.046191,-4.930973
1.694,-12.641766,9.645231,6.453373,-1.7560807,0.79181886,-5.1298885
1.696,-12.455009,9.61174,6.323682,-1.8278433,0.52958417,-5.328429
1.698,-12.242779,9.55095,6.2070074,-1.9021114,0.26197982,-5.5260844
1.7,-12.005004,9.4632845,6.104837,-1.978569,-0.008372784,-5.722378
1.702,-11.741708,9.349592,6.018244,-2.0568852,-0.2787614,-5.916844
1.704,-11.452716,9.210884,5.94831,-2.1367126,-0.5464337,-6.1090746
1.706,-11.137774,9.048735,5.8957434,-2.217684,-0.8086257,-6.2986774
1.708,-10.796626,8.864729,5.861226,-2.2994213,-1.0626097,-6.4853153
1.71,-10.428839,8.661036,5.845177,-2.3814962,-1.3057672,-6.6686883
1.712,-10.034007,8.440077,5.84768,-2.4634247,-1.5355829,-6.8485346
1.714,-9.611543,8.20427,5.869004,-2.544706,-1.7497529,-7.024645
1.716,-9.160716,7.9561987,5.909318,-2.6247983,-1.9461256,-7.196856
1.718,-8.681126,7.6988525,5.9686365,-2.7031,-2.1228006,-7.365055
1.72,-8.172118,7.435259,6.0470066,-2.778978,-2.278117,-7.529167
1.722,-7.6333313,7.168825,6.144353,-2.851788,-2.4106665,-7.689196
1.724,-7.0641212,6.902952,6.2602916,-2.9208336,-2.5193372,-7.845167
1.726,-6.4641094,6.640931,6.3943214,-2.9854038,-2.603356,-7.997162
1.728,-5.8331404,6.3861537,6.5455103,-3.0448005,-2.6623087,-8.145294
1.73,-5.1705723,6.1413403,6.7134647,-3.0983148,-2.6961484,-8.289724
1.732,-4.476634,5.9084177,6.8964562,-3.1452906,-2.7052188,-8.430683
1.734,-3.7526562,5.691475,7.0945234,-3.1851575,-2.690259,-8.568473
1.736,-2.998146,5.4923687,7.306449,-3.217413,-2.6524348,-8.7034445
1.738,-2.2142558,5.3133097,7.5306263,-3.2416532,-2.5933156,-8.836036
1.74,-1.4018972,5.156555,7.7656713,-3.2575815,-2.5148335,-8.966721
1.742,-0.5621886,5.0237603,8.009874,-3.2650232,-2.4192429,-9.096048
1.744,0.3034649,4.916525,8.2617035,-3.263883,-2.3090885,-9.224592
1.746,1.193743,4.8361144,8.51926,-3.2541676,-2.1871202,-9.352934
1.748,2.1073477,4.783578,8.780569,-3.2359657,-2.0562422,-9.481639
1.75,3.0425954,4.7595673,9.043555,-3.2094421,-1.9194415,-9.611218
1.752,3.9980264,4.764386,9.306022,-3.1748092,-1.7797744,-9.742153
1.754,4.972386,4.798362,9.565944,-3.1323493,-1.6403251,-9.874849
1.756,5.964008,4.8617687,9.82154,-3.0824025,-1.5040886,-10.009656
1.758,6.971925,4.9547234,10.07136,-3.0253975,-1.3739824,-10.146855
1.76,7.9957314,5.0771565,10.314558,-2.9618268,-1.2527144,-10.2866535
1.762,9.034503,5.2289276,10.550188,-2.8922715,-1.1429434,-10.428998
1.764,10.088057,5.4099226,10.777482,-2.8173566,-1.0470672,-10.57385
1.766,11.156417,5.620112,10.996085,-2.7377734,-0.96714187,-10.72109
1.768,12.239618,5.8594255,11.205077,-2.6542878,-0.90504384,-10.870377
1.77,13.337638,6.1275673,11.403519,-2.567686,-0.86243033,-11.021231
1.772,14.454095,6.4209824,11.591893,-2.478809,-0.84072757,-11.173087
1.774,15.582171,6.7448087,11.77458,-2.388535,-0.8411679,-11.325248
1.776,16.725298,7.096794,11.958326,-2.2977455,-0.86481,-11.476917
1.778,17.893248,7.4729743,12.140618,-2.2073543,-0.9125705,-11.627329
1.78,19.07977,7.8791265,12.3224125,-2.1182418,-0.98515224,-11.775709
1.782,20.288534,8.312986,12.509546,-2.0312352,-1.0830762,-11.921348
1.784,21.524616,8.773558,12.703919,-1.947116,-1.206706,-12.063643
1.786,22.790535,9.259303,12.906702,-1.8665671,-1.3561902,-12.202104
1.788,24.085857,9.771536,13.120319,-1.7901603,-1.5315144,-12.336397
1.79,25.413082,10.308733,13.351102,-1.7183709,-1.7324421,-12.466333
1.792,26.775269,10.869475,13.602724,-1.6515535,-1.9585283,-12.591792
1.794,28.173603,11.453593,13.877024,-1.5899734,-2.2092414,-12.712728
1.796,29.609503,12.060602,14.176456,-1.5338029,-2.483934,-12.829061
1.798,31.084072,12.689094,14.503726,-1.4832059,-2.7819488,-12.940698
1.8,32.597614,13.337531,14.861388,-1.4382579,-3.102495,-13.047364
1.802,34.149776,14.004687,15.251328,-1.3989424,-3.444624,-13.148509
1.804,35.73975,14.688352,15.674709,-1.3653774,-3.8078122,-13.243849
1.806,37.36594,15.38634,16.131916,-1.3374906,-4.1911645,-13.332716
1.808,39.02595,16.09642,16.622637,-1.3151641,-4.5931387,-13.413865
1.81,40.71659,16.816261,17.146214,-1.2984312,-5.012793,-13.486359
1.812,42.434483,17.542938,17.70122,-1.2871029,-5.448861,-13.549033
1.814,44.175217,18.273232,18.285553,-1.2810767,-5.899533,-13.600502
1.816,45.93442,19.003462,18.896639,-1.2802398,-6.3626676,-13.639469
1.818,47.707012,19.73007,19.53164,-1.2843969,-6.835952,-13.664582
1.82,49.487602,20.449047,20.186975,-1.2931795,-7.316888,-13.67457
1.822,51.271206,21.155869,20.858494,-1.3060915,-7.802394,-13.668254
1.824,53.051712,21.846535,21.541786,-1.3225979,-8.289289,-13.644506
1.826,54.823166,22.516869,22.231804,-1.3420595,-8.77429,-13.602358
1.828,56.580063,23.16243,22.924095,-1.3638151,-9.25407,-13.541032
1.83,58.31678,23.779022,23.61427,-1.3872756,-9.725315,-13.459922
1.832,60.028545,24.361881,24.29804,-1.411863,-10.184811,-13.358582
1.834,61.710377,24.907162,24.971575,-1.436979,-10.629534,-13.236649
1.836,63.35766,25.411299,25.631292,-1.4619979,-11.05677,-13.09384
1.838,64.9667,25.870646,26.274178,-1.4862298,-11.46413,-12.929892
1.84,66.53363,26.282333,26.896671,-1.5089334,-11.849602,-12.744583
1.842,68.05562,26.644342,27.496948,-1.5292618,-12.211519,-12.537697
1.844,69.53093,26.952892,28.07179,-1.5462565,-12.548647,-12.309029
1.846,70.956665,27.207119,28.619877,-1.5588361,-12.860206,-12.058508
1.848,72.33152,27.4062,29.140228,-1.5658388,-13.145712,-11.786137
1.85,73.6545,27.549631,29.632072,-1.5660422,-13.405085,-11.492154
1.852,74.92503,27.63797,30.095217,-1.5581923,-13.63859,-11.176909
1.854,76.14246,27.67286,30.52984,-1.5410686,-13.846858,-10.841024
1.856,77.30694,27.65678,30.936623,-1.5134733,-14.030851,-10.485355
1.858,78.418945,27.593178,31.316559,-1.4740372,-14.191347,-10.110575
1.86,79.47957,27.48724,31.670752,-1.421505,-14.329723,-9.717762
1.862,80.49043,27.344986,32.00158,-1.354476,-14.447729,-9.308291
1.864,81.45317,27.173546,32.311928,-1.2713056,-14.546385,-8.883005
1.866,82.37054,26.981544,32.603985,-1.1704581,-14.627117,-8.442947
1.868,83.24504,26.778944,32.880554,-1.0502305,-14.691656,-7.989277
1.87,84.07999,26.576889,33.145035,-0.9089265,-14.741528,-7.5230384
1.872,84.87914,26.388016,33.40178,-0.74500704,-14.778225,-7.04513
1.874,85.64595,26.226006,33.65558,-0.5571065,-14.8032465,-6.5563974
1.876,86.384125,26.105825,33.911903,-0.34402132,-14.818298,-6.0577126
1.878,87.097336,26.043446,34.17745,-0.10477495,-14.824905,-5.549773
1.88,87.79011,26.056065,34.458496,0.16131926,-14.824585,-5.0330954
1.882,88.46289,26.164024,34.759815,0.4546528,-14.818937,-4.508051
1.884,89.12573,26.379726,35.083565,0.7753358,-14.809582,-3.9748921
1.886,89.77786,26.725077,35.431656,1.1231146,-14.798102,-3.4337606
1.888,90.41695,27.220358,35.817787,1.4974046,-14.785968,-2.8847382
1.89,91.055984,27.878069,36.249542,1.8973536,-14.774487,-2.3278933
1.892,91.69062,28.723698,36.72715,2.3219008,-14.76491,-1.7632942
1.894,92.323204,29.776058,37.2563,2.769874,-14.758166,-1.1909704
1.896,92.95384,31.05539,37.843082,3.2400246,-14.754864,-0.6109307
1.898,93.58497,32.575386,38.492874,3.7310832,-14.755283,-0.023076773
1.9,94.25377,34.32476,39.21395,4.241806,-14.759237,0.57283163
1.902,94.94939,36.340214,40.005943,4.771074,-14.766018,1.1772647
1.904,95.67523,38.645622,40.864227,5.3179126,-14.774483,1.7909766
1.906,96.45979,41.23797,41.78344,5.8815017,-14.783052,2.4151402
1.908,97.3038,44.14636,42.763508,6.461234,-14.789789,3.051356
1.91,98.21493,47.407726,43.811615,7.0566196,-14.792385,3.701796
1.912,99.20769,50.99549,44.90831,7.6672554,-14.788155,4.369195
1.914,100.295296,54.91126,46.05506,8.292815,-14.773932,5.0567126
1.916,101.467705,59.16609,47.244453,8.932953,-14.746217,5.768085
1.918,102.741714,63.759842,48.469746,9.587184,-14.701068,6.507636
1.92,104.12164,68.70785,49.700012,10.254959,-14.634208,7.2800474
1.922,105.612,74.00695,50.930378,10.935779,-14.540351,8.090012
1.924,107.158295,79.65121,52.183395,11.628796,-14.413727,8.942169
1.926,108.72695,85.61195,53.50309,12.332645,-14.248552,9.84072
1.928,110.37454,91.83603,54.923416,13.045542,-14.037633,10.789548
1.93,112.17718,98.27181,56.461357,13.765838,-13.771758,11.794022
1.932,114.2198,104.90861,58.057137,14.492395,-13.440881,12.8595705
1.934,116.53912,111.76274,59.595856,15.224548,-13.032848,13.990047
1.936,119.06747,118.80287,61.0367,15.96077,-12.534085,15.189826
1.938,121.79015,126.001526,62.371166,16.698862,-11.928606,16.462826
1.94,124.683914,133.29103,63.67044,17.436033,-11.19699,17.811462
1.942,127.738205,140.5934,64.98607,18.169474,-10.317702,19.237722
1.944,131.00807,147.81291,66.32358,18.896704,-9.268241,20.740307
1.946,134.4791,154.94215,67.6797,19.615088,-8.024034,22.312391
1.948,138.17032,161.96423,69.06684,20.318806,-6.5612583,23.946072
1.95,142.08499,168.802,70.46667,20.997238,-4.8578243,25.632076
1.952,146.22069,175.35307,71.86563,21.634727,-2.8944247,27.3538
1.954,150.56892,181.48915,73.250725,22.20967,-0.6589153,29.081545
1.956,155.1279,187.14256,74.592064,22.699696,1.855155,30.78039
1.958,159.86401,192.27316,75.86676,23.086039,4.6497235,32.4167
1.96,164.79019,196.78423,77.096565,23.343504,7.706759,33.938656
1.962,169.90697,200.63127,78.26473,23.443619,11.006843,35.298855
1.964,175.19075,203.80814,79.305885,23.364374,14.512724,36.468033
1.966,180.6785,206.24757,80.143585,23.093771,18.178408,37.424843
1.968,186.35541,207.9046,80.70016,22.626057,21.951765,38.152554
1.97,192.19588,208.74896,80.92863,21.949102,25.742908,38.62002
1.972,198.1502,208.80289,80.76496,21.071846,29.472649,38.833065
1.974,204.1983,208.09067,80.145706,20.023245,33.05485,38.821884
1.976,210.31013,206.66544,79.01295,18.843586,36.392765,38.615902
1.978,216.43927,204.57674,77.30011,17.583015,39.390636,38.22745
1.98,222.51399,201.87186,74.938324,16.293646,41.961353,37.647472
1.982,228.45416,198.6035,71.864,15.022771,44.024982,36.84904
1.984,234.16805,194.8322,68.03208,13.810355,45.51545,35.799213
1.986,239.55545,190.62897,63.41745,12.688172,46.394466,34.467537
1.988,244.51485,186.06259,58.030605,11.675585,46.657356,32.826355
1.99,248.93388,181.19861,51.904377,10.778534,46.337433,30.854134
1.992,252.70547,176.10352,45.06433,9.99415,45.50428,28.538586
1.994,255.75464,170.83212,37.546883,9.317059,44.26042,25.876106
1.996,258.00595,165.42813,29.429428,8.734165,42.72633,22.873573
1.998,259.38907,159.92989,20.829353,8.224086,41.02523,19.555035
2,259.852,154.3729,11.900612,7.754093,39.26474,15.964813
2.002,259.36884,148.79205,2.8222198,7.2829747,37.52327,12.166147
2.004,257.92752,143.21841,-6.2220078,6.763071,35.84008,8.244637
2.006,255.53824,137.66556,-15.04393,6.1389666,34.20908,4.307831
2.008,252.23158,132.14511,-23.450653,5.3485823,32.582375,0.48074818
2.01,248.03378,126.7012,-31.261406,4.3247747,30.876099,-3.1060848
2.012,243.04385,121.34076,-38.29749,3.0045528,28.983917,-6.3246627
2.014,237.36008,116.097305,-44.392242,1.347372,26.804926,-9.044529
2.016,231.0732,111.031296,-49.401455,-0.66327286,24.242878,-11.168131
2.018,224.31334,106.170685,-53.217022,-3.0206785,21.239832,-12.640036
2.02,217.20705,101.5448,-55.773205,-5.6904573,17.78137,-13.434457
2.022,209.87521,97.238365,-57.020046,-8.607246,13.907467,-13.560292
2.024,202.4357,93.29151,-56.970108,-11.674267,9.726954,-13.055058
2.026,195.01674,89.72541,-55.662643,-14.793559,5.362687,-12.023784
2.028,187.70483,86.56425,-53.17407,-17.860073,0.9763179,-10.597269
2.03,180.58603,83.81339,-49.59471,-20.760244,-3.2447605,-8.900702
2.032,173.73291,81.49658,-45.07206,-23.381634,-7.1128607,-7.045916
2.034,167.24814,79.63438,-39.793945,-25.618574,-10.456892,-5.1368227
2.036,161.17809,78.25556,-33.965107,-27.382042,-13.132833,-3.2730982
2.038,155.47546,77.38789,-27.772343,-28.610695,-15.038379,-1.5469643
2.04,150.09465,77.0287,-21.381748,-29.27689,-16.125978,-0.031191587
2.042,145.00142,77.12117,-14.898715,-29.38463,-16.404442,1.2297361
2.044,140.21414,77.58742,-8.410849,-28.96777,-15.934123,2.2168217
2.046,135.82297,78.396385,-2.0946884,-28.090189,-14.817206,2.9358087
2.048,131.82552,79.50425,3.8656502,-26.840523,-13.186457,3.4151998
2.05,128.20822,80.89618,9.258055,-25.316156,-11.1862335,3.6983485
2.052,124.93576,82.54526,13.952713,-23.615005,-8.960677,3.8347297
2.054,121.919235,84.422874,17.904325,-21.826883,-6.64305,3.8744712
2.056,119.147385,86.41911,21.095398,-20.031523,-4.3469105,3.8650799
2.058,116.57694,88.45802,23.510864,-18.296455,-2.1612897,3.850912
2.06,114.18679,90.52767,25.18512,-16.67252,-0.14657307,3.8740158
2.062,111.957245,92.63072,26.156837,-15.1926775,1.6645699,3.969155
2.064,109.875015,94.774086,26.469048,-13.874524,3.2627351,4.155514
2.066,107.91926,96.899704,26.181667,-12.725071,4.656778,4.4343414
2.068,106.09274,98.94173,25.345634,-11.743703,5.8668795,4.791355
2.07,104.35053,100.900345,23.979885,-10.925299,6.9176316,5.200239
2.072,102.66697,102.73063,22.152935,-10.261904,7.8324833,5.6266627
2.074,101.03685,104.3781,19.969055,-9.742705,8.627496,6.0334735
2.076,99.39981,105.86542,17.518543,-9.353679,9.310087,6.388831
2.078,97.75395,107.19463,14.872078,-9.07859,9.886642,6.670844
2.08,96.09859,108.36028,12.062397,-8.901998,10.36164,6.8677187
2.082,94.44076,109.32528,9.137104,-8.810228,10.733508,6.9777017
2.084,92.74955,110.07579,6.140381,-8.7906475,10.998203,7.007929
2.086,91.00383,110.592545,3.1123962,-8.832144,11.151574,6.9714894
2.088,89.19427,110.88004,0.10192108,-8.924888,11.191636,6.885295
2.09,87.32686,110.955666,-2.8406487,-9.059412,11.120291,6.7656417
2.092,85.40442,110.83528,-5.6700478,-9.226084,10.94334,6.621585
2.094,83.430786,110.53055,-8.353584,-9.415415,10.670122,6.455014
2.096,81.40954,110.04721,-10.867016,-9.61915,10.31272,6.2652445
2.098,79.3409,109.396164,-13.201321,-9.830867,9.884455,6.051762
2.1,77.23245,108.591095,-15.34446,-10.045595,9.398188,5.815212
2.102,75.088165,107.643105,-17.2598,-10.25944,8.8656435,5.557725
2.104,72.89023,106.57167,-18.91372,-10.469131,8.297853,5.2834525
2.106,70.63884,105.399895,-20.302872,-10.672018,7.705532,4.9993362
2.108,68.34447,104.14891,-21.445461,-10.865731,7.099327,4.7145452
2.11,66.016685,102.83441,-22.36896,-11.047685,6.489777,4.4382415
2.112,63.66417,101.46638,-23.098434,-11.215124,5.88706,4.1773024
2.114,61.296185,100.0609,-23.64888,-11.365295,5.3008943,3.9357333
2.116,58.92649,98.643745,-24.032255,-11.495766,4.740451,3.7154555
2.118,56.566654,97.23754,-24.264757,-11.604644,4.21418,3.5171642
2.12,54.22341,95.84841,-24.359505,-11.6905155,3.7291768,3.3408306
2.122,51.90294,94.47311,-24.328669,-11.752365,3.2908282,3.185985
2.124,49.611717,93.10867,-24.190086,-11.7895565,2.9028099,3.0517035
2.126,47.357346,91.75644,-23.965582,-11.801817,2.567164,2.9366024
2.128,45.14829,90.4222,-23.67402,-11.789234,2.2843513,2.8391383
2.13,42.992706,89.1132,-23.328411,-11.752086,2.053465,2.7577155
2.132,40.89909,87.83768,-22.938263,-11.690795,1.8724492,2.6907845
2.134,38.87701,86.6049,-22.512428,-11.606231,1.7381707,2.6370778
2.136,36.93593,85.42587,-22.061537,-11.499467,1.6469018,2.5953066
2.138,35.084435,84.31003,-21.596157,-11.371778,1.5943599,2.563929
2.14,33.329548,83.260414,-21.126675,-11.224741,1.5758837,2.5412183
2.142,31.67308,82.27212,-20.662369,-11.060315,1.5867208,2.5252016
2.144,30.113926,81.33501,-20.210732,-10.880556,1.6223221,2.513667
2.146,28.6497,80.438934,-19.778414,-10.687796,1.6779904,2.5046246
2.148,27.27822,79.575966,-19.370234,-10.484646,1.7490145,2.496397
2.15,25.997097,78.74252,-18.988745,-10.273636,1.8312793,2.4877298
2.152,24.803616,77.93848,-18.634289,-10.056976,1.9213599,2.4779058
2.154,23.694881,77.16476,-18.305742,-9.836546,2.0167077,2.4665432
2.156,22.665184,76.4231,-18.002254,-9.613749,2.1156714,2.453513
2.158,21.708714,75.71394,-17.725216,-9.389571,2.2174926,2.4389262
2.16,20.820995,75.0335,-17.47448,-9.164582,2.3223846,2.4231048
2.162,19.994518,74.37888,-17.250603,-8.93894,2.4315257,2.406427
2.164,19.2225,73.74535,-17.05532,-8.712411,2.5469873,2.3891442
2.166,18.49968,73.12626,-16.890022,-8.48447,2.67155,2.3713043
2.168,17.819313,72.51666,-16.754599,-8.254489,2.808486,2.3527195
2.17,17.175037,71.91276,-16.653343,-8.021799,2.961316,2.3329935
2.172,16.565353,71.30737,-16.5924,-7.7858415,3.1335473,2.3116078
2.174,15.986342,70.69493,-16.57515,-7.546209,3.3283863,2.288039
2.176,15.43508,70.07025,-16.603233,-7.3027277,3.5485425,2.2618237
2.178,14.910559,69.42832,-16.678694,-7.055477,3.7960453,2.232663
2.18,14.41239,68.76515,-16.805054,-6.8048134,4.072053,2.200463
2.182,13.940648,68.07657,-16.98726,-6.5513477,4.3767953,2.1653252
2.184,13.496217,67.35759,-17.229933,-6.295933,4.7094746,2.127515
2.186,13.080188,66.60303,-17.536976,-6.03965,5.0682416,2.087325
2.188,12.693441,65.80797,-17.911142,-5.7838564,5.4501095,2.0450046
2.19,12.336653,64.968666,-18.35416,-5.530202,5.8509703,2.0006664
2.192,12.010914,64.08194,-18.866285,-5.2805777,6.2656536,1.9542456
2.194,11.71649,63.145515,-19.446287,-5.037044,6.687987,1.9055095
2.196,11.453348,62.15796,-20.091393,-4.8017807,7.111011,1.8540525
2.198,11.221284,61.118427,-20.797487,-4.5769854,7.5271463,1.7993019
2.2,11.019375,60.026936,-21.55937,-4.364798,7.9284487,1.7406058
2.202,10.846178,58.88433,-22.370483,-4.1671524,8.30693,1.6773419
2.204,10.699601,57.6924,-23.222824,-3.9856625,8.654879,1.6090248
2.206,10.577339,56.453026,-24.10741,-3.8214846,8.965121,1.535373
2.208,10.476524,55.169262,-25.01465,-3.675277,9.231313,1.456336
2.21,10.394033,53.844574,-25.934238,-3.5472107,9.4482,1.3720379
2.212,10.325779,52.483143,-26.855972,-3.4369571,9.611788,1.2827559
2.214,10.26833,51.089172,-27.769665,-3.3437593,9.719441,1.1888795
2.216,10.217955,49.66677,-28.665611,-3.2665071,9.769936,1.0908623
2.218,10.170675,48.220463,-29.534609,-3.2038739,9.763391,0.9891958
2.22,10.122616,46.754715,-30.367916,-3.154368,9.70109,0.8843632
2.222,10.070097,45.27446,-31.15757,-3.1163728,9.585336,0.776845
2.224,10.009727,43.784622,-31.895914,-3.088252,9.419243,0.6671066
2.226,9.938797,42.289963,-32.576694,-3.0683599,9.206514,0.5556412
2.228,9.854664,40.794796,-33.19475,-3.0550425,8.9512615,0.44296122
2.23,9.755216,39.303463,-33.745834,-3.0466666,8.6578245,0.32964087
2.232,9.638374,37.82028,-34.226772,-3.041638,8.3306265,0.21631718
2.234,9.502727,36.349384,-34.63558,-3.0383925,7.974062,0.10368729
2.236,9.347059,34.89485,-34.971115,-3.0354416,7.5924253,-0.0074892044
2.238,9.171152,33.460167,-35.23298,-3.031376,7.1898627,-0.11643696
2.24,8.975087,32.048534,-35.421528,-3.0248647,6.77034,-0.22233963
2.242,8.759608,30.662642,-35.53784,-3.014676,6.337616,-0.32439852
2.244,8.525671,29.304995,-35.583683,-2.9996786,5.895262,-0.42186975
2.246,8.274459,27.977837,-35.561222,-2.9788342,5.4466343,-0.5140517
2.248,8.007739,26.682962,-35.47313,-2.9512222,4.9948654,-0.6003518
2.25,7.7271633,25.42209,-35.322426,-2.9160593,4.542822,-0.6803266
2.252,7.434639,24.196531,-35.112183,-2.8726983,4.0931573,-0.75367653
2.254,7.132144,23.007568,-34.84578,-2.8206332,3.6482832,-0.82023287
2.256,6.821992,21.856205,-34.526756,-2.7594967,3.2103336,-0.8799776
2.258,6.5066147,20.743353,-34.15886,-2.6890929,2.781169,-0.93304336
2.26,6.188465,19.669722,-33.7463,-2.6093676,2.362424,-0.97970974
2.262,5.8706703,18.635723,-33.29338,-2.5204093,1.9554833,-1.0203717
2.264,5.555952,17.641464,-32.80481,-2.4224539,1.5614824,-1.0554762
2.266,5.246908,16.686901,-32.28533,-2.315861,1.1813184,-1.0855174
2.268,4.9462967,15.771729,-31.73961,-2.2010875,0.815662,-1.1110141
2.27,4.656255,14.895512,-31.172318,-2.0786414,0.46495074,-1.1324975
2.272,4.378846,14.057882,-30.588287,-1.9490589,0.1294215,-1.1504581
2.274,4.115835,13.258429,-29.992046,-1.8129431,-0.19085738,-1.1653517
2.276,3.8687341,12.49651,-29.387629,-1.6709206,-0.49599445,-1.1775792
2.278,3.6389127,11.771421,-28.779102,-1.5236062,-0.7862472,-1.1874647
2.28,3.4272459,11.082482,-28.170189,-1.3716189,-1.0619988,-1.1952776
2.282,3.2346063,10.429142,-27.564312,-1.2156,-1.3237693,-1.2012062
2.284,3.0616074,9.81063,-26.964108,-1.056172,-1.5721809,-1.2053956
2.286,2.9087067,9.226237,-26.37178,-0.8939644,-1.8079185,-1.2079911
2.288,2.7760506,8.675333,-25.789177,-0.7296074,-2.031715,-1.2091606
2.29,2.6634822,8.157286,-25.217884,-0.5637408,-2.2443378,-1.2091124
2.292,2.5707564,7.671526,-24.658962,-0.3969943,-2.4465573,-1.2081294
2.294,2.4971108,7.217602,-24.113544,-0.22998059,-2.6391654,-1.2065909
2.296,2.4419339,6.7950573,-23.581902,-0.063270435,-2.8229284,-1.2049551
2.298,2.4045317,6.40341,-23.063904,0.10261054,-2.9985917,-1.203737
2.3,2.384203,6.042122,-22.558899,0.267214,-3.1668906,-1.2035018
2.302,2.3797557,5.710848,-22.065624,0.4301733,-3.328539,-1.2047945
2.304,2.3904479,5.409175,-21.582531,0.5912285,-3.4842184,-1.2080951
2.306,2.4152527,5.1367598,-21.107647,0.75021017,-3.6345782,-1.2137891
2.308,2.4529932,4.8933887,-20.638699,0.9070535,-3.780192,-1.2221427
2.31,2.502626,4.6786942,-20.17315,1.0617756,-3.9215395,-1.2332939
2.312,2.5630484,4.4924192,-19.708271,1.214486,-4.058957,-1.2472416
2.314,2.633372,4.333942,-19.241474,1.3653711,-4.192591,-1.2638676
2.316,2.7126768,4.2029085,-18.770275,1.514697,-4.3223968,-1.2829475
2.318,2.799975,4.0987554,-18.292034,1.6628042,-4.448076,-1.3042028
2.32,2.8944747,4.0206757,-17.804295,1.8100972,-4.5690784,-1.3273275
2.322,2.9953258,3.9679914,-17.304657,1.9570502,-4.6845684,-1.3520248
2.324,3.1016722,3.9397526,-16.791233,2.1041956,-4.79344,-1.378033
2.326,3.2127535,3.934929,-16.262463,2.252122,-4.894318,-1.4051473
2.328,3.3278542,3.9521952,-15.7173815,2.401517,-4.985559,-1.4331956
2.33,3.446487,3.9902997,-15.155665,2.5531235,-5.065325,-1.4620407
2.332,3.5682096,4.0476937,-14.577402,2.707769,-5.131654,-1.4915853
2.334,3.692677,4.1227794,-13.983276,2.8663325,-5.182535,-1.5217729
2.336,3.8194542,4.213835,-13.374477,3.0297248,-5.216021,-1.5526047
2.338,3.9483209,4.319063,-12.752681,3.198813,-5.2303505,-1.5841534
2.34,4.079044,4.436455,-12.120108,3.3743863,-5.2240667,-1.6165342
2.342,4.211549,4.5639725,-11.479509,3.5571103,-5.1960926,-1.6499155
2.344,4.3457613,4.699739,-10.8339405,3.74749,-5.1458187,-1.6844797
2.346,4.4818296,4.841773,-10.186733,3.9458501,-5.073154,-1.7204001
2.348,4.6196594,4.9881897,-9.541591,4.152333,-4.9784994,-1.7578125
2.35,4.7595267,5.1372633,-8.902365,4.3668885,-4.8627605,-1.7967842
2.352,4.9014716,5.287419,-8.272882,4.5893207,-4.727292,-1.8372755
2.354,5.045691,5.4372487,-7.6568737,4.8192916,-4.573797,-1.8791075
2.356,5.1923566,5.5856056,-7.058073,5.0562925,-4.40424,-1.9219804
2.358,5.3418536,5.7315254,-6.479975,5.299714,-4.2208037,-1.9654518
2.36,5.4942856,5.874454,-5.9255505,5.5488105,-4.0258102,-2.0089626
2.362,5.6501102,6.0141263,-5.3976617,5.802728,-3.8216414,-2.0518582
2.364,5.8092823,6.150751,-4.898686,6.060525,-3.6106868,-2.0934083
2.366,5.9719563,6.2848988,-4.430635,6.321157,-3.3953626,-2.132842
2.368,6.138237,6.4174023,-3.995087,6.583499,-3.1780252,-2.1693814
2.37,6.30822,6.549467,-3.593056,6.846372,-2.9609675,-2.2022867
2.372,6.481765,6.6824765,-3.2253692,7.1085505,-2.7464235,-2.2308607
2.374,6.659134,6.818061,-2.8922803,7.3687983,-2.5365653,-2.2544625
2.376,6.840378,6.9581366,-2.5935535,7.6258974,-2.3335278,-2.2725248
2.378,7.025547,7.104639,-2.328623,7.8786507,-2.1393833,-2.2846084
2.38,7.2146306,7.2598677,-2.0965445,8.125869,-1.9561832,-2.2904248
2.382,7.4076347,7.426058,-1.8958825,8.36638,-1.785949,-2.2898545
2.384,7.604705,7.60543,-1.7248707,8.599034,-1.6306527,-2.2829242
2.386,7.8059034,7.8002777,-1.5817035,8.822712,-1.4921689,-2.2698116
2.388,8.011216,8.012867,-1.4642243,9.036329,-1.3722949,-2.2508135
2.39,8.221132,8.245339,-1.3703352,9.238865,-1.2726954,-2.2263207
2.392,8.435675,8.499652,-1.2976278,9.429374,-1.194852,-2.1968122
2.394,8.655173,8.777776,-1.2438436,9.607017,-1.1400521,-2.162823
2.396,8.880056,9.081491,-1.2066627,9.771061,-1.109348,-2.1249743
2.398,9.110945,9.412138,-1.1837114,9.920874,-1.103566,-2.083978
2.4,9.34875,9.770843,-1.1723297,10.055934,-1.1232655,-2.0405908
2.402,9.594133,10.158326,-1.169775,10.175837,-1.168761,-1.9956036
2.404,9.847968,10.575096,-1.1733785,10.280346,-1.2401307,-1.9498252
2.406,10.111148,11.021396,-1.1803946,10.369328,-1.3371944,-1.904084
2.408,10.384609,11.497033,-1.1883986,10.442807,-1.4595759,-1.8592343
2.41,10.669406,12.001674,-1.1950846,10.500953,-1.6067224,-1.8161376
2.412,10.967006,12.534096,-1.1983165,10.544063,-1.7778902,-1.775682
2.414,11.278468,13.092831,-1.1960449,10.572532,-1.9721786,-1.7388034
2.416,11.605024,13.676025,-1.1863443,10.586844,-2.1885734,-1.7064798
2.418,11.947823,14.281326,-1.1675763,10.587524,-2.425961,-1.6797733
2.42,12.308269,14.905916,-1.1378044,10.575102,-2.6831403,-1.659812
2.422,12.687601,15.546555,-1.0955911,10.550076,-2.9588828,-1.6477649
2.424,13.086765,16.199614,-1.0393596,10.512867,-3.2519379,-1.6448226
2.426,13.506713,16.861032,-0.96773267,10.463809,-3.5610833,-1.6521642
2.428,13.947886,17.526585,-0.8793776,10.40311,-3.8851638,-1.6709104
2.43,14.410965,18.19157,-0.773422,10.3308,-4.223125,-1.7020895
2.432,14.896462,18.851051,-0.64892435,10.246757,-4.574037,-1.7465479
2.434,15.40454,19.499931,-0.5050297,10.150709,-4.9370837,-1.8049407
2.436,15.934941,20.133175,-0.3409977,10.042225,-5.3115883,-1.8777332
2.438,16.487453,20.745516,-0.15605736,9.920776,-5.696987,-1.9651716
2.44,17.061409,21.331612,0.05028248,9.785767,-6.0927844,-2.0673213
2.442,17.655682,21.886478,0.27851105,9.636588,-6.4984946,-2.1840296
2.444,18.268822,22.405472,0.52932453,9.472664,-6.9136496,-2.3149579
2.446,18.899342,22.883764,0.80261326,9.293513,-7.3377733,-2.4595842
2.448,19.545366,23.31694,1.0983572,9.098761,-7.7702804,-2.6172419
2.45,20.204992,23.701117,1.4161787,8.888218,-8.210506,-2.787098
2.452,20.875816,24.032831,1.7559328,8.661846,-8.657675,-2.96822
2.454,21.55526,24.308804,2.1170292,8.419781,-9.110902,-3.1596122
2.456,22.240656,24.526167,2.4984818,8.162305,-9.569138,-3.360277
2.458,22.92916,24.682274,2.8991756,7.8898377,-10.03124,-3.5692348
2.46,23.617977,24.775038,3.3179855,7.6029134,-10.495952,-3.7855835
2.462,24.303684,24.802797,3.753973,7.302173,-10.961902,-4.0085006
2.464,24.983162,24.764668,4.206052,6.9883695,-11.427602,-4.2372484
2.466,25.652895,24.660168,4.672989,6.6623178,-11.891469,-4.47118
2.468,26.309223,24.489262,5.1534567,6.3249164,-12.351817,-4.7096524
2.47,26.94865,24.251867,5.645733,5.977096,-12.806914,-4.952003
2.472,27.56725,23.94831,6.1481266,5.619854,-13.25497,-5.1975327
2.474,28.161398,23.579357,6.6585655,5.2542977,-13.693889,-5.4455223
2.476,28.727087,23.146063,7.174899,4.8816137,-14.121389,-5.695198
2.478,29.260221,22.650146,7.6946144,4.502984,-14.535096,-5.945655
2.48,29.756603,22.093681,8.215088,4.119657,-14.932397,-6.195878
2.482,30.212254,21.479256,8.733694,3.7328892,-15.31043,-6.4448104
2.484,30.622547,20.809849,9.247519,3.3440018,-15.666028,-6.6913776
2.486,30.983479,20.089003,9.753229,2.9543738,-15.995853,-6.9344826
2.488,31.29065,19.320938,10.247717,2.5654006,-16.296413,-7.172982
2.49,31.539856,18.510021,10.7274475,2.178514,-16.564213,-7.4056787
2.492,31.727009,17.661013,11.189007,1.7951202,-16.795742,-7.631324
2.494,31.848272,16.779434,11.628687,1.4166269,-16.98768,-7.8486233
2.496,31.90043,15.871064,12.04281,1.0443611,-17.136955,-8.056236
2.498,31.880512,14.942141,12.427915,0.6796055,-17.24089,-8.252768
2.5,31.786047,13.999078,12.780608,0.32355213,-17.297417,-8.436657
2.502,31.61533,13.048601,13.0976,-0.02264309,-17.305208,-8.60613
2.504,31.367062,12.097658,13.375707,-0.35787773,-17.263887,-8.759222
2.506,31.041,11.1531515,13.612221,-0.6809559,-17.173977,-8.8937645
2.508,30.637508,10.222054,13.804691,-0.9906702,-17.037033,-9.007532
2.51,30.15781,9.31136,13.951138,-1.2857361,-16.855505,-9.098297
2.512,29.604082,8.427606,14.049923,-1.5648308,-16.63253,-9.164019
2.514,28.97935,7.5771646,14.100119,-1.8266296,-16.37181,-9.202965
2.516,28.287617,6.7656116,14.101246,-2.0698915,-16.077354,-9.213825
2.518,27.533604,5.9984846,14.053536,-2.2935839,-15.753259,-9.195915
2.52,26.72258,5.280072,13.957691,-2.496955,-15.403368,-9.149153
2.522,25.860727,4.614436,13.814995,-2.6795573,-15.031176,-9.074046
2.524,24.954842,4.004799,13.62718,-2.8412414,-14.639584,-8.971593
2.526,24.012222,3.4533005,13.396307,-2.9821687,-14.230957,-8.843192
2.528,23.040615,2.9612875,13.12499,-3.1027164,-13.807219,-8.690517
2.53,22.047688,2.5293503,12.815765,-3.2033324,-13.369664,-8.515446
2.532,21.041504,2.1572428,12.47161,-3.2844453,-12.919035,-8.319998
2.534,20.030302,1.8438158,12.095333,-3.3464546,-12.455729,-8.106235
2.536,19.021858,1.587287,11.690006,-3.38968,-11.979976,-7.8762097
2.538,18.0242,1.384942,11.258472,-3.4144163,-11.491941,-7.6319327
2.54,17.044418,1.2337279,10.80373,-3.4209616,-10.991749,-7.3754077
2.542,16.089504,1.1298532,10.328407,-3.4096684,-10.4796505,-7.1086397
2.544,15.16584,1.0691648,9.8353195,-3.3810406,-9.956079,-6.833543
2.546,14.279458,1.047081,9.326849,-3.3357434,-9.421818,-6.551912
2.548,13.435446,1.0592213,8.805453,-3.2746844,-8.878042,-6.265361
2.55,12.638422,1.1008158,8.273487,-3.1989827,-8.326332,-5.9753575
2.552,11.892353,1.1669526,7.7331443,-3.1099687,-7.768685,-5.683221
2.554,11.200558,1.2529335,7.186154,-3.009173,-7.207425,-5.3901587
2.556,10.565324,1.3543966,6.634993,-2.8982906,-6.645192,-5.09734
2.558,9.988526,1.4671583,6.0817857,-2.7791243,-6.0848374,-4.8058224
2.56,9.470885,1.5872664,5.528505,-2.6535487,-5.5293355,-4.516582
2.562,9.012857,1.7110028,4.9770494,-2.5234487,-4.9817123,-4.230532
2.564,8.614124,1.8352895,4.4293256,-2.3906608,-4.444936,-3.9485214
2.566,8.273712,1.9575968,3.8873868,-2.2568965,-3.9217992,-3.6713383
2.568,7.9900303,2.075817,3.3532171,-2.1237094,-3.4148088,-3.3997145
2.57,7.760983,2.1880386,2.8285336,-1.9924315,-2.926051,-3.134334
2.572,7.5844436,2.292665,2.3146768,-1.8641317,-2.4572048,-2.8757663
2.574,7.457652,2.3883152,1.8130026,-1.7396045,-2.0095162,-2.6245048
2.576,7.377452,2.47403,1.3247721,-1.6194,-1.5837827,-2.3810067
2.578,7.3405166,2.549246,0.85134137,-1.5038633,-1.1803524,-2.1456537
2.58,7.343239,2.6139472,0.39390564,-1.3931595,-0.79918635,-1.9187434
2.582,7.381867,2.6683073,-0.046450377,-1.28733,-0.43992826,-1.700505
2.584,7.452611,2.7125454,-0.4688033,-1.186328,-0.10198408,-1.4911051
2.586,7.5517426,2.746891,-0.8724564,-1.0900527,0.21538538,-1.2906722
2.588,7.6754875,2.771681,-1.2569132,-0.9983908,0.5129919,-1.0992888
2.59,7.820175,2.787344,-1.6220226,-0.9112732,0.7916467,-0.91700786
2.592,7.9821386,2.7944303,-1.9679501,-0.8286314,1.0521097,-0.7438224
2.594,8.158186,2.7934813,-2.2948823,-0.750429,1.2950257,-0.5796801
2.596,8.34501,2.7849493,-2.6032934,-0.6766522,1.5209284,-0.42450574
2.598,8.539701,2.7693336,-2.893744,-0.60727113,1.7302561,-0.27819508
2.6,8.739689,2.7472663,-3.1668177,-0.5422257,1.9233711,-0.14061466
2.602,8.942648,2.7194455,-3.4232318,-0.48144794,2.1006274,-0.01159893
2.604,9.1462145,2.6863246,-3.6637034,-0.42480135,2.2623763,0.109056726
2.606,9.3482685,2.6483815,-3.8886154,-0.37209457,2.4090307,0.22160049
2.608,9.54714,2.6059668,-4.0986867,-0.32307988,2.5411024,0.32630277
2.61,9.741171,2.5595727,-4.2943907,-0.2774408,2.6591911,0.4234514
2.612,9.928925,2.5096617,-4.4762797,-0.23482215,2.7639937,0.5133285
2.614,10.10959,2.4564948,-4.644766,-0.19481301,2.8562791,0.59619164
2.616,10.28198,2.400342,-4.800279,-0.15698123,2.9368832,0.6723058
2.618,10.4454365,2.3414502,-4.943251,-0.12087941,3.006662,0.74190897
2.62,10.599252,2.2799153,-5.0741568,-0.08609533,3.0664847,0.8052198
2.622,10.743101,2.2161036,-5.193329,-0.05223787,3.1172082,0.8624516
2.624,10.876534,2.1500535,-5.3012705,-0.018986702,3.1596594,0.9138231
2.626,10.999222,2.081925,-5.398405,0.0139119625,3.1946492,0.959532
2.628,11.110954,2.0117064,-5.4852257,0.046619892,3.2229824,0.9998044
2.63,11.211857,1.9394398,-5.562209,0.079202056,3.2454324,1.0348927
2.632,11.301773,1.8652749,-5.629867,0.111649394,3.2627425,1.0650862
2.634,11.380672,1.7889953,-5.6886926,0.14387858,3.275613,1.0907168
2.636,11.448528,1.7107477,-5.7393036,0.17576122,3.2846751,1.1121476
2.638,11.505332,1.6306553,-5.7822046,0.20713603,3.2904825,1.1297455
2.64,11.551254,1.5488219,-5.8179646,0.2378354,3.2934718,1.1438739
2.642,11.586435,1.4653015,-5.84714,0.2676952,3.2939703,1.1548882
2.644,11.610966,1.3803129,-5.870197,0.29659998,3.292175,1.1631206
2.646,11.625181,1.2938895,-5.8877378,0.32445085,3.2881088,1.1688787
2.648,11.629211,1.206233,-5.900337,0.3511958,3.2816472,1.1724265
2.65,11.623376,1.1177354,-5.9083743,0.37682772,3.2725346,1.1740105
2.652,11.607972,1.0285606,-5.912415,0.4013691,3.260383,1.1738645
2.654,11.583192,0.93914795,-5.912938,0.4248773,3.2446876,1.1722093
2.656,11.549472,0.8497853,-5.910296,0.4474523,3.2248902,1.1692486
2.658,11.5071945,0.76068544,-5.9049363,0.4691944,3.200393,1.1651683
2.66,11.456669,0.67247486,-5.8972087,0.49020386,3.1705914,1.16014
2.662,11.398327,0.58550787,-5.887576,0.5105828,3.1348982,1.1543084
2.664,11.332574,0.49999714,-5.8761315,0.5304005,3.0927963,1.1478066
2.666,11.260013,0.4163475,-5.863211,0.54971564,3.0438583,1.1407387
2.668,11.180895,0.33491087,-5.8490105,0.56857306,2.9877493,1.1331916
2.67,11.095999,0.25601482,-5.8335223,0.58699644,2.924249,1.125212
2.672,11.005712,0.17991924,-5.8168993,0.6050126,2.853262,1.1168349
2.674,10.910577,0.10682869,-5.799195,0.62264854,2.77482,1.1080832
2.676,10.811085,0.036949635,-5.780527,0.63993365,2.689081,1.0989555
2.678,10.7080145,-0.029610634,-5.760959,0.6569132,2.5963206,1.0894608
2.68,10.601717,-0.09272146,-5.740618,0.6736364,2.4969323,1.0796233
2.682,10.492772,-0.15222454,-5.719601,0.6901832,2.3914104,1.0694761
2.684,10.38149,-0.20801878,-5.698031,0.70665693,2.2803278,1.0590723
2.686,10.268667,-0.26020002,-5.675959,0.72315884,2.164354,1.0484716
2.688,10.154692,-0.3086319,-5.653604,0.73980534,2.044199,1.0377483
2.69,10.040106,-0.35330725,-5.631081,0.7567072,1.9206122,1.026996
2.692,9.925492,-0.39429188,-5.6084876,0.7739915,1.7943424,1.0162984
2.694,9.81126,-0.43156242,-5.5860205,0.79176366,1.6661515,1.0057449
2.696,9.697875,-0.46518993,-5.563908,0.81012833,1.5367677,0.9954109
2.698,9.585667,-0.4951296,-5.542367,0.82914144,1.406882,0.9853785
2.7,9.475124,-0.5214853,-5.5215096,0.8488456,1.2771468,0.97569585
2.702,9.366578,-0.5442877,-5.501432,0.86925566,1.1481439,0.96640706
2.704,9.260277,-0.56357574,-5.4823747,0.8903525,1.0203851,0.95752066
2.706,9.156599,-0.5793605,-5.464299,0.9120945,0.89429915,0.9490274
2.708,9.055756,-0.5917187,-5.447563,0.934412,0.7702397,0.9408918
2.71,8.958048,-0.60064864,-5.432157,0.9572174,0.64847934,0.9330629
2.712,8.863605,-0.6061189,-5.418139,0.98040676,0.5292057,0.9254866
2.714,8.772642,-0.608166,-5.40542,1.0038688,0.41254288,0.9180836
2.716,8.685382,-0.6068001,-5.3941636,1.0274878,0.29855463,0.91079783
2.718,8.601828,-0.60205674,-5.384132,1.0511535,0.18726292,0.9035728
2.72,8.522142,-0.5939064,-5.3753366,1.0747705,0.07861602,0.89636904
2.722,8.446407,-0.58249044,-5.367623,1.098242,-0.027445465,0.8891634
2.724,8.374443,-0.5677388,-5.360761,1.1215075,-0.13099808,0.8819394
2.726,8.3063965,-0.5495832,-5.354686,1.1444992,-0.23212835,0.87469935
2.728,8.242223,-0.52817655,-5.3491836,1.1671708,-0.3309291,0.8674562
2.73,8.181914,-0.5034838,-5.344046,1.1894988,-0.42748114,0.8602114
2.732,8.125328,-0.47563195,-5.3390307,1.2114692,-0.5218412,0.85296375
2.734,8.072366,-0.44467878,-5.3340297,1.2330813,-0.6140586,0.84570485
2.736,8.022896,-0.41063738,-5.328869,1.254318,-0.70415545,0.8384241
2.738,7.976782,-0.3735273,-5.323482,1.2751608,-0.7921216,0.83109605
2.74,7.933824,-0.33335567,-5.3176603,1.2956109,-0.87794966,0.8236941
2.742,7.8937736,-0.2902503,-5.311342,1.3156555,-0.9615985,0.81618476
2.744,7.8564234,-0.24407363,-5.304533,1.3352966,-1.0430363,0.80852574
2.746,7.8217125,-0.19493103,-5.297041,1.3545156,-1.1222252,0.8007009
2.748,7.7893515,-0.1428299,-5.2890244,1.3733151,-1.19915,0.7926922
2.75,7.759031,-0.08780432,-5.280378,1.3916928,-1.2738351,0.784498
2.752,7.7305837,-0.029856205,-5.2711673,1.4096696,-1.3463169,0.7761157
2.754,7.7038727,0.03113556,-5.261381,1.4272563,-1.4166741,0.7675771
2.756,7.6785445,0.09511757,-5.2510433,1.4444742,-1.4850171,0.75892705
2.758,7.654631,0.1622374,-5.240167,1.4613473,-1.551477,0.7502387
2.76,7.631744,0.23236537,-5.228789,1.477905,-1.6162058,0.741592
2.762,7.609704,0.30564857,-5.216859,1.4941778,-1.6793585,0.7330663
2.764,7.5885754,0.38206673,-5.2043676,1.510203,-1.7410874,0.7247582
2.766,7.5679417,0.46157956,-5.1911783,1.5260189,-1.8015432,0.7167435
2.768,7.547817,0.5441396,-5.1773505,1.5416648,-1.8608469,0.70909905
2.77,7.5281076,0.6295593,-5.1627393,1.5571666,-1.9191226,0.7018629
2.772,7.5087547,0.71780753,-5.1472583,1.5725564,-1.9764619,0.695066
2.774,7.489642,0.8088503,-5.1308937,1.5878489,-2.0329134,0.68869495
2.776,7.470726,0.9025028,-5.1134048,1.6030545,-2.0885236,0.682717
2.778,7.4521093,0.99854016,-5.0947747,1.6181705,-2.1433158,0.67708224
2.78,7.4337482,1.0966613,-5.0748377,1.6331971,-2.197289,0.6717181
2.782,7.4156227,1.1967144,-5.053552,1.6481131,-2.2504182,0.66654795
2.784,7.397846,1.2983491,-5.030745,1.6629066,-2.3026776,0.66150355
2.786,7.3804555,1.4012372,-5.006357,1.6775664,-2.3540292,0.65650725
2.788,7.363518,1.5049644,-4.980378,1.6920725,-2.4044428,0.65148115
2.79,7.3471937,1.6091957,-4.9527855,1.7064257,-2.4539056,0.6463616
2.792,7.331606,1.7135904,-4.9236298,1.7206249,-2.5024104,0.6410954
2.794,7.3168364,1.817699,-4.8927956,1.7346716,-2.549978,0.6356435
2.796,7.3030605,1.9212265,-4.860449,1.7485726,-2.5966437,0.62995666
2.798,7.290476,2.0236564,-4.826545,1.7623272,-2.6424577,0.6240002
2.8,7.2791595,2.1246305,-4.7912526,1.7759445,-2.6874838,0.6177337
2.802,7.2692957,2.223776,-4.7546725,1.789426,-2.7318118,0.6111194
2.804,7.260989,2.3207166,-4.7169123,1.8027661,-2.7755187,0.6041162
2.806,7.254465,2.415181,-4.6779385,1.8159566,-2.8187003,0.59669316
2.808,7.2499075,2.5067756,-4.6380186,1.8289909,-2.8614607,0.5888108
2.81,7.24743,2.5953565,-4.597266,1.8418365,-2.9038963,0.5804404
2.812,7.2470202,2.6806552,-4.555856,1.85447,-2.9461014,0.5715584
2.814,7.2490215,2.762455,-4.5139694,1.8668487,-2.9881728,0.56214684
2.816,7.253354,2.8406436,-4.471713,1.8789322,-3.0302083,0.5522116
2.818,7.2601833,2.9150374,-4.429126,1.8906703,-3.072319,0.54174864
2.82,7.269556,2.9856794,-4.386406,1.902018,-3.1145992,0.5307804
2.822,7.2814236,3.0525103,-4.3436737,1.9129288,-3.1571481,0.5193403
2.824,7.2958527,3.115572,-4.301001,1.9233525,-3.2000616,0.5074707
2.826,7.3129473,3.174903,-4.2583537,1.9332478,-3.243428,0.49522832
2.828,7.332572,3.2305973,-4.215966,1.9425795,-3.2873378,0.4826781
2.83,7.3545866,3.2827375,-4.1737747,1.9513063,-3.331872,0.4698864
2.832,7.378978,3.331566,-4.1317363,1.959409,-3.3771043,0.4569212
2.834,7.4056516,3.3772388,-4.089885,1.9668701,-3.4230857,0.44383875
2.836,7.4344554,3.419929,-4.0482078,1.9736865,-3.4698646,0.43070737
2.838,7.4652414,3.4599917,-4.0066385,1.9798305,-3.5174568,0.41759294
2.84,7.4975233,3.497533,-3.9651136,1.9853041,-3.5658753,0.4045674
2.842,7.531194,3.5330007,-3.9236646,1.990109,-3.6150851,0.3917151
2.844,7.566058,3.5666132,-3.8820362,1.9942596,-3.6650372,0.37911665
2.846,7.601646,3.5985968,-3.8401628,1.9977539,-3.7156668,0.36686218
2.848,7.6376123,3.629179,-3.7979217,2.000602,-3.766887,0.3550402
2.85,7.6736517,3.6586297,-3.7551675,2.0028205,-3.8185945,0.3437426
2.852,7.7094116,3.6871173,-3.711915,2.0044284,-3.8706841,0.33305126
2.854,7.744413,3.7148848,-3.667881,2.0054524,-3.923048,0.32303673
2.856,7.778308,3.7420979,-3.623145,2.0059185,-3.975566,0.31374276
2.858,7.81069,3.7688794,-3.5774465,2.0058627,-4.028139,0.3051867
2.86,7.841249,3.7953615,-3.5307503,2.0053065,-4.0806584,0.29737622
2.862,7.869299,3.8217616,-3.4829702,2.0042915,-4.1330414,0.2902813
2.864,7.89447,3.8479812,-3.433968,2.0028768,-4.185213,0.28383917
2.866,7.91664,3.8740597,-3.3836613,2.0010867,-4.2371025,0.277983
2.868,7.935066,3.9000876,-3.331932,1.9989581,-4.2886524,0.27262503
2.87,7.949611,3.9260166,-3.278769,1.9965142,-4.339807,0.26767576
2.872,7.9598575,3.9519386,-3.2239695,1.9937773,-4.3905087,0.26305234
2.874,7.965277,3.9777813,-3.1675003,1.9907659,-4.4407105,0.25870198
2.876,7.9657717,4.0036073,-3.1092765,1.9874983,-4.4903517,0.2545914
2.878,7.960846,4.029567,-3.0489473,1.9840003,-4.539368,0.25071543
2.88,7.9502764,4.055547,-2.9865336,1.9802926,-4.5876846,0.24712527
2.882,7.933688,4.0816526,-2.921752,1.9764088,-4.635209,0.24390161
2.884,7.910827,4.1079617,-2.854402,1.9724101,-4.6818476,0.24113846
2.886,7.8813663,4.1345882,-2.7843919,1.9683554,-4.7274923,0.23897421
2.888,7.8449526,4.1617627,-2.7112656,1.9643178,-4.7720165,0.23756611
2.89,7.8012276,4.189621,-2.6349669,1.9603803,-4.8152924,0.23706198
2.892,7.7501793,4.2182584,-2.5550847,1.9566474,-4.857175,0.23762429
2.894,7.6911163,4.247987,-2.4713974,1.953209,-4.8974953,0.23940551
2.896,7.623928,4.2791023,-2.3835886,1.9501672,-4.936098,0.2425493
2.898,7.5482197,4.3120437,-2.2914858,1.9476244,-4.972796,0.24718761
2.9,7.463607,4.346976,-2.194672,1.9456892,-5.0073805,0.25345552
2.902,7.369868,4.3843126,-2.0928724,1.9444604,-5.039631,0.26147473
2.904,7.2666993,4.424312,-1.9858685,1.9440517,-5.0693073,0.27135468
2.906,7.1536803,4.4673557,-1.873266,1.9445742,-5.096155,0.28318667
2.908,7.030669,4.51363,-1.7549491,1.9461339,-5.1198997,0.29705596
2.91,6.8973346,4.563466,-1.6306787,1.9488455,-5.1402664,0.3130437
2.912,6.7535024,4.6170626,-1.5002875,1.9528365,-5.156972,0.3312055
2.914,6.5990715,4.674521,-1.3635204,1.9582375,-5.1697145,0.35157144
2.916,6.433691,4.7359943,-1.220391,1.965181,-5.1781716,0.37417424
2.918,6.257326,4.8015122,-1.0707092,1.9738145,-5.1820316,0.39901042
2.92,6.069933,4.8709183,-0.91457105,1.9842874,-5.180969,0.4260614
2.922,5.8716583,4.9441986,-0.751982,1.9967616,-5.174628,0.45529997
2.924,5.662486,5.021209,-0.58303094,2.0113811,-5.162663,0.48668933
2.926,5.4426084,5.1017466,-0.407979,2.0283115,-5.144683,0.5201787
2.928,5.21245,5.1855116,-0.22705579,2.047717,-5.1203027,0.55569756
2.93,4.972331,5.27201,-0.040614605,2.0697563,-5.0891123,0.5931891
2.932,4.722885,5.3608084,0.15085411,2.0945854,-5.0506787,0.6326035
2.934,4.4647675,5.4513493,0.34698582,2.1223674,-5.0045595,0.67388797
2.936,4.198556,5.5431166,0.5470681,2.1532583,-4.950289,0.7170378
2.938,3.9254112,5.635506,0.7506988,2.1874046,-4.8874073,0.76208353
2.94,3.6462467,5.7277393,0.9570749,2.2249525,-4.815484,0.8090807
2.942,3.3621757,5.819373,1.1654332,2.2660494,-4.734126,0.858124
2.944,3.0744324,5.909787,1.3749862,2.3108299,-4.6429696,0.90931535
2.946,2.7844167,5.9982643,1.5848243,2.3594048,-4.5417476,0.9627789
2.948,2.4935322,6.084234,1.794075,2.411868,-4.430261,1.0186334
2.95,2.2034316,6.167226,2.001716,2.4682815,-4.308402,1.0769916
2.952,1.9156044,6.246522,2.2067819,2.5286684,-4.1761594,1.1379427
2.954,1.6317244,6.3216343,2.4081507,2.593011,-4.033648,1.2015293
2.956,1.3534143,6.3921895,2.604876,2.6612267,-3.881093,1.2677628
2.958,1.0823298,6.457705,2.7960443,2.7331676,-3.7188356,1.3366045
2.96,0.8199333,6.5178766,2.980526,2.8086195,-3.5473087,1.4079682
2.962,0.567773,6.5725126,3.1575847,2.8873103,-3.3670595,1.4817281
2.964,0.32740662,6.6212425,3.3264575,2.9688866,-3.1787155,1.557713
2.966,0.099902585,6.6639915,3.4864779,3.0529137,-2.9830334,1.6357105
2.968,-0.1132815,6.700574,3.6370347,3.1388903,-2.7808635,1.7154801
2.97,-0.31117272,6.731022,3.777604,3.226275,-2.573116,1.7967544
2.972,-0.4929135,6.7552633,3.9078128,3.3144975,-2.3607206,1.8792491
2.974,-0.6578077,6.7734127,4.027412,3.402998,-2.144587,1.9626758
2.976,-0.80542874,6.7857537,4.136314,3.4912527,-1.92555,2.0467463
2.978,-0.9353888,6.792325,4.2344875,3.5787983,-1.7042964,2.1312327
2.98,-1.0475912,6.7934046,4.322101,3.665239,-1.481375,2.2159612
2.982,-1.142183,6.7892623,4.3992224,3.7502906,-1.2571528,2.3008223
2.984,-1.2193834,6.780254,4.466334,3.833751,-1.0318304,2.3857741
2.986,-1.2798524,6.7666802,4.5240264,3.9155092,-0.8054857,2.4708047
2.988,-1.3240918,6.748764,4.5726132,3.9954967,-0.5781076,2.5559325
2.99,-1.3528646,6.7269545,4.6128154,4.0736704,-0.34965286,2.6411357
2.992,-1.3672056,6.7015243,4.6451354,4.1499853,-0.120099545,2.7263281
2.994,-1.36811,6.6727667,4.6702566,4.2243567,0.110535234,2.8113592
2.996,-1.3567494,6.6409764,4.688776,4.2966313,0.3421282,2.895979
2.998,-1.334323,6.6065416,4.7010994,4.3665953,0.5744705,2.9798498
3,-1.3022764,6.5697966,4.7077913,4.433959,0.8072914,3.0625634
3.002,-1.2620798,6.5310993,4.7090487,4.4983726,1.0402372,3.1436613
3.004,-1.2149882,6.4908414,4.7051706,4.5594335,1.2729082,3.2226603
3.006,-1.1624541,6.449295,4.696401,4.616707,1.5048589,3.2991288
3.008,-1.1061984,6.4067984,4.682829,4.6697564,1.7356434,3.3727016
3.01,-1.0475755,6.3638663,4.6644187,4.7181525,1.9647733,3.443088
3.012,-0.9880231,6.320803,4.6410913,4.761491,2.1917074,3.5101264
3.014,-0.9290836,6.278085,4.6127224,4.799401,2.4158459,3.5737362
3.016,-0.87223864,6.2361717,4.579193,4.831565,2.6365075,3.6339238
3.018,-0.8187443,6.195444,4.540358,4.857732,2.8529375,3.6907673
3.02,-0.7700503,6.156285,4.496138,4.877727,3.0643322,3.7443748
3.022,-0.727366,6.1191287,4.446224,4.8914657,3.2698135,3.7948537
3.024,-0.69186306,6.0844154,4.390401,4.8989296,3.4684393,3.8422916
3.026,-0.6645833,6.052462,4.328522,4.9001627,3.659224,3.886738
3.028,-0.6464884,6.023585,4.26035,4.8952804,3.8411431,3.9281678
3.03,-0.638494,5.998055,4.185714,4.884432,4.0132146,3.9665132
3.032,-0.64143836,5.976104,4.104442,4.8677998,4.1744814,4.001605
3.034,-0.65592223,5.9578013,4.016316,4.8455863,4.324084,4.033231
3.036,-0.68260515,5.9431906,3.9212983,4.8179717,4.4612575,4.0611453
3.038,-0.7218609,5.9323,3.819184,4.785133,4.5853605,4.0851107
3.04,-0.77398205,5.925102,3.7099433,4.74722,4.6958556,4.1049137
3.042,-0.83917284,5.92151,3.5935993,4.7043295,4.7922807,4.1203814
3.044,-0.9174217,5.921362,3.4699605,4.656537,4.874236,4.1313977
3.046,-1.0087041,5.924372,3.339201,4.6038575,4.941389,4.1378937
3.048,-1.1129292,5.9303565,3.2014122,4.5462904,4.9934044,4.139826
3.05,-1.2295959,5.9389796,3.0568993,4.4837976,5.029956,4.1372094
3.052,-1.3582957,5.949723,2.9058542,4.41634,5.050708,4.130083
3.054,-1.4984087,5.9623556,2.7488813,4.3438625,5.0553207,4.118487
3.056,-1.6493865,5.976461,2.5864997,4.2663345,5.043497,4.1024914
3.058,-1.8104872,5.9919143,2.4193077,4.1837363,5.014984,4.082181
3.06,-1.980824,6.008316,2.2480927,4.0960975,4.969613,4.057665
3.062,-2.1594677,6.0255036,2.0738158,4.0034876,4.9073296,4.0290895
3.064,-2.3456054,6.043271,1.8973806,3.9060454,4.8282747,3.9966748
3.066,-2.538034,6.0614333,1.7197243,3.8039706,4.7327633,3.9606864
3.068,-2.735712,6.0798497,1.541952,3.6975386,4.6213083,3.9214654
3.07,-2.9374542,6.098418,1.3653259,3.5870962,4.4946613,3.8794003
3.072,-3.1422496,6.1171346,1.1909753,3.4730618,4.35375,3.8349261
3.074,-3.3490248,6.1359296,1.019899,3.3558943,4.199671,3.788497
3.076,-3.5566168,6.154864,0.85329175,3.236093,4.0336857,3.7405674
3.078,-3.7641387,6.1740394,0.6921747,3.1141725,3.8571637,3.691578
3.08,-3.9704347,6.193356,0.53757226,2.990665,3.671541,3.6419394
3.082,-4.1744547,6.212837,0.3904655,2.8660784,3.4782815,3.592028
3.084,-4.37541,6.2324743,0.2516358,2.740901,3.2788162,3.542146
3.086,-4.57236,6.2521276,0.12190318,2.6155837,3.0745256,3.4925547
3.088,-4.7645383,6.271703,0.0019619465,2.490546,2.866706,3.443445
3.09,-4.951336,6.2911673,-0.10770106,2.3661819,2.6565466,3.3949287
3.092,-5.1320505,6.3102584,-0.20641065,2.2428312,2.445125,3.3470366
3.094,-5.3062067,6.3286753,-0.29398274,2.1207993,2.2334104,3.2997365
3.096,-5.47345,6.3462453,-0.37030172,2.0003657,2.0222876,3.2529192
3.098,-5.6334705,6.3626237,-0.4350145,1.8817838,1.8125337,3.2064197
3.1,-5.786166,6.377498,-0.48801088,1.765271,1.6048348,3.1600337
3.102,-5.931491,6.390566,-0.5292101,1.6510088,1.3998258,3.1135163
3.104,-6.0695095,6.4013896,-0.5586641,1.5391606,1.1981071,3.066581
3.106,-6.2004356,6.4095073,-0.57633734,1.4298542,1.0002487,3.0189588
3.108,-6.324461,6.414551,-0.5822761,1.3232038,0.8068048,2.970406
3.11,-6.4418626,6.416134,-0.57657075,1.2193172,0.6183234,2.9207222
3.112,-6.553155,6.4139047,-0.5592396,1.1182978,0.43534198,2.8697405
3.114,-6.6588545,6.4074087,-0.53046584,1.0202551,0.25839388,2.8173738
3.116,-6.7596354,6.396483,-0.49047542,0.9252775,0.0879457,2.7635803
3.118,-6.8558817,6.380881,-0.43944383,0.8334516,-0.075570196,2.708388
3.12,-6.948358,6.3604255,-0.3777299,0.7448705,-0.2317957,2.651875
3.122,-7.0378203,6.335062,-0.3055358,0.659597,-0.3804503,2.5941596
3.124,-7.1246834,6.3049045,-0.22337055,0.57768387,-0.52132446,2.5354128
3.126,-7.2096443,6.269846,-0.13164043,0.49916047,-0.65429974,2.4758193
3.128,-7.2934093,6.2302437,-0.030797482,0.4240479,-0.7793385,2.4155827
3.13,-7.376277,6.1861906,0.078476906,0.35234684,-0.89644486,2.354926
3.132,-7.458905,6.13796,0.19588995,0.28406054,-1.005675,2.2940626
3.134,-7.5416403,6.0858803,0.32071257,0.21918947,-1.107108,2.2332034
3.136,-7.6248546,6.0301704,0.45248985,0.15774041,-1.2008333,2.172551
3.138,-7.70866,5.971322,0.5906782,0.099728644,-1.2869382,2.1123118
3.14,-7.7932796,5.909652,0.7346115,0.045185685,-1.3654993,2.0526602
3.142,-7.878757,5.8454337,0.88372755,-0.005877793,-1.4365935,1.9937711
3.144,-7.9651246,5.779165,1.037386,-0.053441465,-1.5002903,1.9357796
3.146,-8.05223,5.7111454,1.1949139,-0.09748286,-1.5566527,1.878792
3.148,-8.139896,5.641758,1.3556752,-0.1380009,-1.6057601,1.8228823
3.15,-8.228014,5.571199,1.519084,-0.17501473,-1.6477153,1.7680898
3.152,-8.316264,5.4997473,1.684413,-0.20858377,-1.6826267,1.7144325
3.154,-8.404437,5.4277306,1.8510847,-0.2387675,-1.7106227,1.6619006
3.156,-8.492039,5.355289,2.0183449,-0.26566666,-1.7318647,1.610488
3.158,-8.578747,5.282599,2.185457,-0.28939408,-1.7465376,1.5601597
3.16,-8.66428,5.2099223,2.3517833,-0.31008792,-1.7548618,1.5108736
3.162,-8.748344,5.13738,2.5167115,-0.32788795,-1.7570608,1.4625955
3.164,-8.830514,5.0650153,2.6793835,-0.34295744,-1.7533816,1.4152846
3.166,-8.910416,4.993001,2.8392704,-0.3554652,-1.7440699,1.3689055
3.168,-8.987814,4.9213686,2.9957712,-0.36558595,-1.7293916,1.3234093
3.17,-9.062374,4.850196,3.148238,-0.3734804,-1.7095859,1.2787542
3.172,-9.133859,4.779634,3.2960434,-0.37932953,-1.6849113,1.2348908
3.174,-9.20201,4.70969,3.4386027,-0.3832978,-1.6556138,1.1917696
3.176,-9.266588,4.6403556,3.5753562,-0.38554698,-1.6219498,1.1493402
3.178,-9.327587,4.5717697,3.705756,-0.38622388,-1.5841826,1.1075283
3.18,-9.384724,4.5039167,3.8292384,-0.38547784,-1.5425739,1.06627
3.182,-9.437908,4.43681,3.9453235,-0.38343057,-1.497379,1.0255032
3.184,-9.487075,4.37053,4.053611,-0.38020507,-1.4488935,0.98516214
3.186,-9.532138,4.3050365,4.1537848,-0.37591153,-1.3973894,0.94519144
3.188,-9.572939,4.24039,4.245427,-0.3706568,-1.343155,0.90555584
3.19,-9.609585,4.176675,4.328294,-0.36455002,-1.2864785,0.86622214
3.192,-9.6421995,4.1139903,4.402183,-0.35770246,-1.2276554,0.8271634
3.194,-9.67067,4.052368,4.4668655,-0.3502229,-1.1669762,0.7883637
3.196,-9.695234,3.9919515,4.5222025,-0.34222022,-1.1047423,0.7498121
3.198,-9.715832,3.932834,4.568119,-0.33380878,-1.0412661,0.7115141
3.2,-9.732523,3.874983,4.604692,-0.32511538,-0.976862,0.6734694
3.202,-9.745517,3.818697,4.6318073,-0.316262,-0.91183895,0.6356814
3.204,-9.754922,3.7641,4.6496572,-0.3073792,-0.8465134,0.5981442
3.206,-9.760748,3.7112403,4.6585736,-0.29857397,-0.781209,0.56084776
3.208,-9.763165,3.6603577,4.658696,-0.2899712,-0.7162547,0.52378005
3.21,-9.762303,3.6114893,4.650383,-0.28168294,-0.6519738,0.48692125
3.212,-9.758215,3.564806,4.6339703,-0.2738198,-0.5886869,0.45026246
3.214,-9.7510395,3.520525,4.6099825,-0.266485,-0.52668935,0.4137783
3.216,-9.740845,3.4788313,4.578889,-0.2597785,-0.46628577,0.37743738
3.218,-9.727837,3.4396615,4.5410995,-0.2537855,-0.40774128,0.34122154
3.22,-9.712183,3.403232,4.4972057,-0.24858217,-0.35129791,0.30512047
3.222,-9.693846,3.369639,4.4477654,-0.24423319,-0.29715586,0.26913264
3.224,-9.672821,3.339006,4.393403,-0.24079412,-0.24549133,0.23325892
3.226,-9.649277,3.311344,4.334669,-0.23829761,-0.19642857,0.19751367
3.228,-9.623346,3.2867093,4.272148,-0.23677227,-0.15005179,0.161923
3.23,-9.594923,3.2650783,4.2064548,-0.23622486,-0.10640149,0.12651755
3.232,-9.5641365,3.2465537,4.138119,-0.23666498,-0.0654937,0.09133227
3.234,-9.531022,3.2309554,4.067754,-0.2380853,-0.027309678,0.056399792
3.236,-9.495633,3.2184277,3.9959219,-0.2404798,0.008191295,0.021741092
3.238,-9.457973,3.2087533,3.923118,-0.24384058,0.041085456,-0.012629256
3.24,-9.418135,3.2020345,3.8497894,-0.24816257,0.07143837,-0.046704367
3.242,-9.375996,3.1980734,3.776461,-0.2534456,0.099339545,-0.08047583
3.244,-9.331566,3.196768,3.703582,-0.25967553,0.12487373,-0.11395663
3.246,-9.284754,3.1980834,3.6313887,-0.26684275,0.14812928,-0.14715542
3.248,-9.235804,3.2017477,3.560289,-0.27495036,0.16919467,-0.18009105
3.25,-9.184477,3.2076612,3.4906445,-0.28399283,0.18814328,-0.21279083
3.252,-9.130819,3.2156518,3.422529,-0.2939774,0.20505598,-0.2452873
3.254,-9.074791,3.2255464,3.3563023,-0.3048941,0.21999332,-0.27761436
3.256,-9.016304,3.2371473,3.2920904,-0.31674203,0.23301612,-0.30981913
3.258,-8.955662,3.2502608,3.2301211,-0.32951725,0.24418892,-0.34195352
3.26,-8.892441,3.2647605,3.1703732,-0.34321845,0.25358263,-0.37405783
3.262,-8.826813,3.2804043,3.1130188,-0.35783267,0.26127982,-0.40619096
3.264,-8.7587185,3.2969563,3.058089,-0.37334862,0.26735792,-0.43841025
3.266,-8.688346,3.3143127,3.005596,-0.38974395,0.27191034,-0.47075117
3.268,-8.615568,3.332286,2.955585,-0.40697616,0.2750414,-0.5032421
3.27,-8.540463,3.3507228,2.90797,-0.42500335,0.2768732,-0.535892
3.272,-8.463071,3.3694496,2.8627825,-0.44376823,0.27751768,-0.5686977
3.274,-8.383445,3.388422,2.819987,-0.46320382,0.27711394,-0.6016497
3.276,-8.301809,3.4075966,2.7794673,-0.48322222,0.2758057,-0.6347149
3.278,-8.218004,3.42682,2.7410352,-0.50372994,0.27373838,-0.66784585
3.28,-8.132344,3.4460547,2.7046285,-0.5246321,0.27106562,-0.70098203
3.282,-8.044809,3.465244,2.6701186,-0.545828,0.2679335,-0.7340593
3.284,-7.9555387,3.4845052,2.6373837,-0.5672188,0.2644829,-0.76701784
3.286,-7.864687,3.5038817,2.6063516,-0.588709,0.26084554,-0.7997932
3.288,-7.7722445,3.523275,2.576733,-0.61021626,0.2571492,-0.8323376
3.29,-7.6784143,3.5427978,2.5484138,-0.6316846,0.25349492,-0.86460596
3.292,-7.583177,3.5624366,2.5212379,-0.65306544,0.24996991,-0.8965706
3.294,-7.4866743,3.582305,2.4949954,-0.67433745,0.24664521,-0.92821646
3.296,-7.3890247,3.6024265,2.4695036,-0.6954942,0.24355401,-0.9595466
3.298,-7.290389,3.6228676,2.4446495,-0.71656245,0.24071816,-0.99057895
3.3,-7.190756,3.6436687,2.4202218,-0.73756313,0.2381326,-1.0213437
3.302,-7.090115,3.664815,2.3960924,-0.75851935,0.23578197,-1.0518669
3.304,-6.988616,3.6864572,2.3720782,-0.77946997,0.23363188,-1.0822036
3.306,-6.886318,3.708526,2.3480382,-0.8004438,0.23163071,-1.1124033
3.308,-6.783267,3.7311053,2.3238838,-0.8214594,0.22972211,-1.1425151
3.31,-6.6795425,3.7542086,2.299476,-0.8425364,0.22784208,-1.1725788
3.312,-6.575137,3.777797,2.2748182,-0.8636847,0.22593495,-1.2026255
3.314,-6.470141,3.8018756,2.249832,-0.8849271,0.22393842,-1.2327055
3.316,-6.3645477,3.8264477,2.2243202,-0.9062802,0.2218022,-1.2628332
3.318,-6.2585726,3.8515568,2.1983237,-0.92775774,0.2194897,-1.2930048
3.32,-6.1521606,3.8772287,2.1717722,-0.9493778,0.21696757,-1.3232132
3.322,-6.045452,3.9034224,2.144686,-0.97116566,0.21421078,-1.3534287
3.324,-5.9384394,3.9301386,2.1169555,-0.99312663,0.2112021,-1.3836112
3.326,-5.831311,3.9574733,2.0885992,-1.0152888,0.20794612,-1.4137067
3.328,-5.724041,3.9854102,2.059669,-1.0376524,0.20444562,-1.443653
3.33,-5.616707,4.014057,2.0300884,-1.0602177,0.20069277,-1.4733913
3.332,-5.509467,4.043371,1.9998803,-1.0829821,0.19670312,-1.5028623
3.334,-5.402381,4.0734444,1.9690375,-1.1059359,0.19249593,-1.5320206
3.336,-5.2954817,4.1042347,1.9375436,-1.1290603,0.18808278,-1.5608238
3.338,-5.188736,4.1359377,1.905431,-1.1523474,0.18348011,-1.5892284
3.34,-5.0823627,4.1685066,1.872704,-1.175796,0.1787051,-1.6172159
3.342,-4.976182,4.2019463,1.8393586,-1.199393,0.17376453,-1.64477
3.344,-4.870375,4.23641,1.8053625,-1.2231358,0.16866192,-1.6718833
3.346,-4.7648287,4.2717695,1.7707357,-1.2470273,0.16340011,-1.6985544
3.348,-4.6594677,4.3080773,1.7355022,-1.2710611,0.15797836,-1.724795
3.35,-4.55424,4.3451967,1.6997116,-1.2952405,0.15238902,-1.7506254
3.352,-4.4492865,4.3832955,1.6631265,-1.3195536,0.14661634,-1.7760549
3.354,-4.344425,4.422188,1.6259806,-1.344005,0.1406438,-1.8011026
3.356,-4.2396054,4.4618692,1.5881871,-1.3685987,0.13444161,-1.8258115
3.358,-4.134586,4.5022383,1.5497605,-1.3933253,0.12798846,-1.8502071
3.36,-4.0294213,4.543197,1.5107231,-1.4181902,0.1212606,-1.8743138
3.362,-3.9238765,4.584656,1.4711574,-1.4431992,0.11422036,-1.8981658
3.364,-3.8179004,4.626396,1.4310484,-1.4683523,0.10684812,-1.9217943
3.366,-3.7114422,4.6683874,1.3904049,-1.493663,0.0991222,-1.94522
3.368,-3.604164,4.710301,1.3492227,-1.5191255,0.09101878,-1.9684488
3.37,-3.496204,4.752063,1.3075335,-1.5447474,0.08252205,-1.9914963
3.372,-3.387287,4.7935205,1.2653742,-1.5705509,0.07361896,-2.014379
3.374,-3.277266,4.834423,1.2227235,-1.5965444,0.064301565,-2.0370996
3.376,-3.1660547,4.87468,1.1796908,-1.6227384,0.054563772,-2.05967
3.378,-3.0536828,4.9139843,1.1362878,-1.649156,0.044400796,-2.0820878
3.38,-2.9399095,4.9522896,1.0926247,-1.6758039,0.033798374,-2.1043503
3.382,-2.8246694,4.9894013,1.0486846,-1.7027013,0.022763714,-2.126458
3.384,-2.7079687,5.025096,1.0045594,-1.7298642,0.011304952,-2.1484084
3.386,-2.589569,5.0591846,0.9601822,-1.757297,-0.00059417635,-2.1701968
3.388,-2.4696226,5.091553,0.91567254,-1.7850139,-0.012932723,-2.1918077
3.39,-2.3480473,5.122093,0.8711834,-1.8130152,-0.025711343,-2.2132359
3.392,-2.2248888,5.1505857,0.82670975,-1.8412981,-0.038926043,-2.2344785
3.394,-2.1001472,5.17688,0.78232276,-1.8698547,-0.052571952,-2.2555146
3.396,-1.9738557,5.200851,0.737993,-1.8986852,-0.06666262,-2.276329
3.398,-1.8461528,5.222397,0.69388855,-1.9277787,-0.081208706,-2.2969184
3.4,-1.7172525,5.2414804,0.65006626,-1.957124,-0.09623064,-2.3172786
3.402,-1.5871651,5.257966,0.6065681,-1.9867306,-0.111756146,-2.3373935
3.404,-1.4561126,5.271802,0.5635226,-2.0165973,-0.12780172,-2.3572588
3.406,-1.3242314,5.282943,0.52092856,-2.0467274,-0.14439635,-2.3768804
3.408,-1.191859,5.2912617,0.47881484,-2.0771291,-0.1615773,-2.3962533
3.41,-1.0592372,5.296768,0.43736202,-2.1078084,-0.17934948,-2.415362
3.412,-0.9264657,5.2994647,0.39645928,-2.1387799,-0.19772108,-2.4342003
3.414,-0.79395145,5.2992234,0.35639435,-2.1700659,-0.2166942,-2.452757
3.416,-0.6619454,5.2961073,0.31711724,-2.2016778,-0.23622778,-2.4710035
3.418,-0.53091586,5.290141,0.27861992,-2.2336276,-0.25628668,-2.4889135
3.42,-0.40104353,5.281318,0.24104851,-2.2658968,-0.2768144,-2.506445
3.422,-0.27267134,5.269606,0.20437643,-2.2984874,-0.29773894,-2.523561
3.424,-0.14606941,5.255133,0.16866702,-2.3313785,-0.31896034,-2.5402133
3.426,-0.021609098,5.237972,0.1338616,-2.3645372,-0.34036902,-2.5563538
3.428,0.10029963,5.2180686,0.10003734,-2.397922,-0.3618537,-2.5719423
3.43,0.21958604,5.195564,0.067153275,-2.4314814,-0.38328728,-2.586923
3.432,0.33591872,5.1704082,0.03519839,-2.4651597,-0.4045307,-2.6012647
3.434,0.44884747,5.142758,0.004198551,-2.4988923,-0.4254324,-2.6149278
3.436,0.5582693,5.112607,-0.025983334,-2.5326295,-0.44585982,-2.6278646
3.438,0.6638727,5.0800757,-0.055414677,-2.5663095,-0.4656644,-2.640038
3.44,0.7655634,5.0450826,-0.084116936,-2.5998688,-0.48469076,-2.6514108
3.442,0.8628959,5.007849,-0.112246454,-2.633252,-0.5027949,-2.6619525
3.444,0.9559211,4.968352,-0.13985473,-2.6663954,-0.5198399,-2.6716053
3.446,1.0444454,4.9267516,-0.16704571,-2.6992486,-0.5356949,-2.680321
3.448,1.1283273,4.8829236,-0.19393563,-2.7317584,-0.5502353,-2.6880467
3.45,1.2074718,4.837002,-0.22063386,-2.7638757,-0.56333804,-2.6947308
3.452,1.2817593,4.7890115,-0.24735856,-2.7955563,-0.5748902,-2.7003126
3.454,1.3513005,4.738921,-0.27413058,-2.8267536,-0.5847957,-2.70473
3.456,1.4160419,4.6868935,-0.30118394,-2.8574238,-0.5929615,-2.7079368
3.458,1.4758251,4.632985,-0.3285712,-2.8875256,-0.5993044,-2.709882
3.46,1.5308418,4.5772033,-0.35639822,-2.9170115,-0.6037554,-2.710509
3.462,1.5811408,4.5195856,-0.38484156,-2.945833,-0.606244,-2.7097745
3.464,1.6268114,4.460253,-0.41406953,-2.9739408,-0.60671693,-2.707623
3.466,1.6679673,4.399283,-0.4440074,-3.001279,-0.6051287,-2.7040017
3.468,1.7046243,4.336804,-0.4748912,-3.0277758,-0.6014451,-2.6988645
3.47,1.7370912,4.272895,-0.5068401,-3.0533633,-0.5956306,-2.6921425
3.472,1.765465,4.2077622,-0.5398855,-3.077967,-0.58766574,-2.6837718
