Time_s_,Acc_x_m_s_2_,Acc_y_m_s_2_,Acc_z_m_s_2_,Gyro_x_1_s_,Gyro_y_1_s_,Gyro_z_1_s_
0,0.6278908,0.22677362,-1.318847,0.5310218,0.6021168,0.15244167
0.002,0.5866516,0.25113362,-1.3190815,0.5284588,0.59201133,0.16520011
0.004,0.54362446,0.27505976,-1.3191707,0.52584803,0.58117753,0.17890193
0.006,0.49898848,0.29819095,-1.3191622,0.5232479,0.56965387,0.19353926
0.008,0.45304874,0.32037154,-1.319363,0.5207268,0.55750346,0.20903623
0.01,0.40589905,0.34122947,-1.3199799,0.5183655,0.54482734,0.2252548
0.012,0.3574586,0.36059767,-1.3215957,0.5162463,0.5317581,0.24202898
0.014,0.3068615,0.37859467,-1.3236061,0.5144828,0.5184622,0.2591624
0.016,0.25565067,0.39438325,-1.3256079,0.5131596,0.5051018,0.2764016
0.018,0.20525306,0.40750533,-1.3277968,0.5123579,0.49181715,0.29346487
0.02,0.15477881,0.41870624,-1.330097,0.51214564,0.47874364,0.31008828
0.022,0.1043886,0.428928,-1.3315471,0.5125483,0.46597347,0.32605425
0.024,0.055496708,0.43852118,-1.3324062,0.51353675,0.45355338,0.34119323
0.026,0.008565024,0.4468128,-1.3336489,0.515067,0.44147405,0.35538456
0.028,-0.035983607,0.45252925,-1.3354046,0.517004,0.42921177,0.3691381
0.03,-0.07803334,0.45528272,-1.3390671,0.51942575,0.4173317,0.38165808
0.032,-0.11735055,0.4549191,-1.344983,0.52224994,0.40565565,0.39316505
0.034,-0.15326749,0.4510204,-1.3526367,0.52544177,0.39403865,0.40392944
0.036,-0.18604648,0.44285956,-1.3623446,0.5290227,0.38239652,0.4142938
0.038,-0.21267293,0.43027383,-1.3737404,0.53307235,0.37072283,0.42460608
0.04,-0.23243687,0.41722322,-1.3869171,0.5377387,0.35910094,0.43520766
0.042,-0.24587578,0.40676114,-1.4033433,0.54320353,0.34766698,0.4463984
0.044,-0.2536224,0.39875102,-1.4244457,0.54961294,0.33648735,0.4584579
0.046,-0.2558369,0.39185628,-1.4510508,0.55708265,0.32565355,0.47172132
0.048,-0.2523611,0.38571602,-1.4833524,0.56578344,0.3153613,0.4865171
0.05,-0.24332976,0.38088343,-1.5210484,0.57584953,0.30581743,0.503105
0.052,-0.2290034,0.3783148,-1.564013,0.58727777,0.2970557,0.52170175
0.054,-0.20966133,0.3789188,-1.6124458,0.5999561,0.28906918,0.5424433
0.056,-0.18726063,0.3843872,-1.6668104,0.613796,0.2818453,0.56518644
0.058,-0.16041854,0.39391282,-1.7270631,0.6287145,0.2753893,0.58966875
0.06,-0.1298674,0.4076728,-1.7930453,0.6445118,0.26961783,0.61561567
0.062,-0.09659973,0.42546454,-1.8642571,0.66080385,0.26424834,0.6425938
0.064,-0.06150806,0.44692227,-1.9395473,0.67713165,0.2590219,0.6699006
0.066,-0.025325626,0.47110596,-2.0173316,0.69306636,0.25378242,0.6965678
0.068,0.011283517,0.49700168,-2.0959501,0.7081078,0.24850851,0.72185135
0.07,0.047585577,0.5233563,-2.1734643,0.72162455,0.24336389,0.7450798
0.072,0.08317298,0.5491675,-2.247975,0.73300123,0.23850733,0.76497775
0.074,0.11793378,0.5735691,-2.3177404,0.7417493,0.2339387,0.7800257
0.076,0.15159869,0.5954788,-2.3809307,0.7474587,0.22949329,0.78931344
0.078,0.18394865,0.6138836,-2.435789,0.7497254,0.22488204,0.79267955
0.08,0.21499552,0.62771523,-2.480741,0.7481446,0.21973005,0.7905532
0.082,0.24479793,0.6360627,-2.514295,0.7424082,0.21356866,0.7838992
0.084,0.27358788,0.6381563,-2.535034,0.73230994,0.20583123,0.7740593
0.086,0.30144316,0.6335517,-2.5418437,0.7177701,0.1958768,0.7625484
0.088,0.32876676,0.62214875,-2.5337627,0.6988131,0.18301585,0.75085425
0.09,0.35579425,0.6040734,-2.510161,0.6755982,0.16663006,0.7402004
0.092,0.3825119,0.5797485,-2.4707751,0.6484853,0.14625037,0.7313957
0.094,0.40935802,0.54944515,-2.4161344,0.6180539,0.12159902,0.7248113
0.096,0.43686897,0.5136199,-2.3468018,0.5851554,0.09267753,0.72046065
0.098,0.4652375,0.47339833,-2.2640142,0.5509028,0.05984187,0.71811724
0.1,0.49409944,0.430071,-2.1701021,0.5165304,0.023698002,0.71742046
0.102,0.52310914,0.3843072,-2.067634,0.48325813,-0.014937431,0.718085
0.104,0.5522796,0.33623254,-1.958469,0.45225835,-0.05491528,0.7199974
0.106,0.5818245,0.28638646,-1.8436165,0.4245993,-0.094727546,0.72312325
0.108,0.61180884,0.23609082,-1.7241315,0.40107158,-0.1327677,0.7274899
0.11,0.6422825,0.18626735,-1.6014602,0.38207704,-0.1674226,0.7331908
0.112,0.6734029,0.13775899,-1.4774697,0.36772445,-0.19713002,0.74011946
0.114,0.7049359,0.091276586,-1.354212,0.3579446,-0.22036487,0.7479038
0.116,0.7367943,0.047267906,-1.2339427,0.35257688,-0.23565558,0.75615
0.118,0.76922625,0.005495675,-1.1189294,0.3512901,-0.24186538,0.7644973
0.12,0.8006975,-0.03512022,-1.0109792,0.35364345,-0.23819654,0.7725963
0.122,0.8293532,-0.07376814,-0.91106147,0.3592903,-0.22415888,0.7798754
0.124,0.85562634,-0.11195961,-0.8220401,0.36805695,-0.19951832,0.7859984
0.126,0.8779065,-0.1501543,-0.7445173,0.3797394,-0.16417912,0.79131985
0.128,0.8942896,-0.18739912,-0.67748356,0.39406395,-0.11822614,0.7961714
0.13,0.9055888,-0.22343928,-0.6202964,0.41077316,-0.062118888,0.80023694
0.132,0.91168606,-0.25789243,-0.57492316,0.42959696,0.0031362176,0.8029573
0.134,0.9112436,-0.28980124,-0.54234624,0.45012343,0.07600358,0.8039902
0.136,0.9039422,-0.31843114,-0.52237064,0.4717002,0.15450665,0.8032054
0.138,0.8901529,-0.34386992,-0.5147686,0.49346507,0.23631272,0.80061376
0.14,0.87000334,-0.3668945,-0.5172982,0.51437813,0.31873626,0.7963256
0.142,0.8429163,-0.38758126,-0.5276619,0.5332967,0.39878464,0.79051995
0.144,0.80790174,-0.40525883,-0.5436081,0.5489669,0.47315812,0.78346264
0.146,0.76493996,-0.4190257,-0.56177235,0.56004,0.5383478,0.77550304
0.148,0.7116603,-0.4287185,-0.5795871,0.5652086,0.59088194,0.767009
0.15,0.64878,-0.437099,-0.59416175,0.56333256,0.6275622,0.7582961
0.152,0.5780311,-0.44437256,-0.6016994,0.5534463,0.6457417,0.7498822
0.154,0.5008108,-0.44715446,-0.5995664,0.5350422,0.6436586,0.74222386
0.156,0.4179163,-0.44180906,-0.5862001,0.50823927,0.6207919,0.7358997
0.158,0.3301393,-0.4266837,-0.5609399,0.47376597,0.57812285,0.7316055
0.16,0.23863201,-0.40133035,-0.52364695,0.4330092,0.5181967,0.72991633
0.162,0.14483611,-0.36559182,-0.47416145,0.38793588,0.44493252,0.7311778
0.164,0.049976245,-0.3193989,-0.41253573,0.3409742,0.36322153,0.7354347
0.166,-0.04415576,-0.26262015,-0.33908615,0.29477876,0.27852327,0.74251014
0.168,-0.1359851,-0.19474533,-0.25496635,0.25203973,0.19642192,0.75226605
0.17,-0.2238252,-0.11561535,-0.16243054,0.21526922,0.122166574,0.76477915
0.172,-0.30563286,-0.025249988,-0.064278714,0.18661933,0.06031823,0.78034353
0.174,-0.37994865,0.07623603,0.03645595,0.16773346,0.01455313,0.7993001
0.176,-0.44526535,0.18808368,0.1365202,0.15961862,-0.012510538,0.821873
0.178,-0.50032485,0.30905464,0.23299444,0.16262369,-0.019477338,0.84799933
0.18,-0.54414535,0.43733326,0.3226518,0.1763995,-0.0062265694,0.87719923
0.182,-0.5761195,0.5705188,0.40292925,0.19989508,0.026079416,0.9085078
0.184,-0.59609145,0.7057307,0.47183773,0.23135929,0.07515177,0.940452
0.186,-0.6039902,0.84031767,0.52799237,0.2684684,0.13771942,0.9710334
0.188,-0.600201,0.9717699,0.5705592,0.30849755,0.2097502,0.9979335
0.19,-0.5853201,1.0975361,0.5988237,0.3485778,0.28677773,1.018884
0.192,-0.5603285,1.215409,0.6125499,0.38593984,0.3643188,1.0320703
0.194,-0.52647316,1.3232982,0.6118758,0.41815212,0.43836752,1.0363884
0.196,-0.48511684,1.4193456,0.5975822,0.4433543,0.50575256,1.031605
0.198,-0.4380771,1.5021969,0.57045424,0.46042502,0.56440836,1.0183165
0.2,-0.38690603,1.5709659,0.531764,0.46900332,0.6134529,0.9978171
0.202,-0.3332414,1.625191,0.48288685,0.46937823,0.6530155,0.9718696
0.204,-0.27915055,1.6652288,0.42508054,0.46234706,0.68399906,0.9425002
0.206,-0.22615689,1.6915505,0.35930774,0.4491285,0.7077705,0.9114972
0.208,-0.17575496,1.7048185,0.28669333,0.4310025,0.7257991,0.88053244
0.21,-0.12878221,1.7063423,0.2085906,0.40912858,0.7393051,0.85086304
0.212,-0.086268246,1.6984488,0.125702,0.38458005,0.74911463,0.823349
0.214,-0.049307525,1.6837239,0.037732452,0.3582453,0.7556503,0.79870987
0.216,-0.018979728,1.664357,-0.05629623,0.3308234,0.7590752,0.7775369
0.218,0.00396055,1.6421927,-0.15716031,0.3028906,0.7594614,0.7602675
0.22,0.01922685,1.6190114,-0.26522022,0.27492926,0.75682145,0.74708873
0.222,0.02692002,1.5966057,-0.3803383,0.24740392,0.75112617,0.737845
0.224,0.027534902,1.5764678,-0.50216025,0.2207095,0.7423525,0.7321079
0.226,0.021215618,1.5601988,-0.6299511,0.19518816,0.73048276,0.7293091
0.228,0.008565754,1.549092,-0.7631027,0.17108029,0.71543026,0.72886854
0.23,-0.007878542,1.5443884,-0.9014503,0.14853138,0.6970433,0.7302077
0.232,-0.025905252,1.5449824,-1.0458262,0.1275498,0.6751196,0.73271096
0.234,-0.045651913,1.5517488,-1.1952598,0.10805234,0.6494395,0.7357052
0.236,-0.06622404,1.5641924,-1.3486758,0.089891315,0.6197483,0.73854625
0.238,-0.08651772,1.5802474,-1.5057652,0.07289976,0.58574724,0.74073356
0.24,-0.106261015,1.5980531,-1.6656036,0.05686021,0.54714775,0.7419888
0.242,-0.12533918,1.6162814,-1.8249565,0.041528314,0.5037228,0.7421838
0.244,-0.14317161,1.6342568,-1.9807898,0.02661553,0.45536202,0.74132526
0.246,-0.15896875,1.6520963,-2.1313143,0.011818498,0.40212753,0.73956764
0.248,-0.17250392,1.6703595,-2.275466,-0.003147304,0.34426412,0.7371512
0.25,-0.18321577,1.6886905,-2.4134488,-0.01855132,0.28222835,0.73437583
0.252,-0.18868998,1.7051966,-2.5465927,-0.034610063,0.21668287,0.73157585
0.254,-0.18936837,1.7194053,-2.678058,-0.05145748,0.14845765,0.7291336
0.256,-0.1849316,1.7302704,-2.8026226,-0.069126174,0.0785669,0.72745156
0.258,-0.17511797,1.7365106,-2.9127932,-0.08752248,0.0081504285,0.72690713
0.26,-0.16112265,1.737585,-3.0102491,-0.1064142,-0.061583452,0.72789294
0.262,-0.14250329,1.7329495,-3.096302,-0.12542494,-0.12941238,0.7307553
0.264,-0.12064397,1.723382,-3.1700866,-0.14406747,-0.19419205,0.73572665
0.266,-0.09854655,1.7105209,-3.233365,-0.16180392,-0.2549003,0.7429334
0.268,-0.07616624,1.6943948,-3.28692,-0.17805165,-0.31056833,0.75229776
0.27,-0.051480696,1.6736304,-3.3262787,-0.19224451,-0.36041138,0.7635602
0.272,-0.02641876,1.6488247,-3.3470051,-0.20389408,-0.40391356,0.77639437
0.274,-0.0044985116,1.6214345,-3.3481863,-0.21263407,-0.44084582,0.7903995
0.276,0.01232034,1.5924221,-3.3320591,-0.21830982,-0.47130796,0.80509496
0.278,0.023951247,1.5626178,-3.301301,-0.2209883,-0.49574065,0.8199635
0.28,0.029125541,1.5332696,-3.257948,-0.22095174,-0.5149405,0.834522
0.282,0.025885865,1.5055209,-3.202786,-0.21869212,-0.5300032,0.84838545
0.284,0.01275298,1.4795195,-3.1353784,-0.21481705,-0.54223907,0.861248
0.286,-0.0115903765,1.4553134,-3.0545747,-0.21008924,-0.5532078,0.87284875
0.288,-0.048385307,1.4333568,-2.9592094,-0.20533256,-0.56425446,0.8830069
0.29,-0.098426744,1.4146445,-2.8488307,-0.20121178,-0.576244,0.89158386
0.292,-0.16235952,1.4005888,-2.7246554,-0.19824436,-0.59004396,0.8987356
0.294,-0.2407695,1.3927307,-2.5879002,-0.19671358,-0.6062942,0.90480125
0.296,-0.3337245,1.3923652,-2.4394846,-0.19674438,-0.6253627,0.9099668
0.298,-0.44098645,1.4004186,-2.280266,-0.19839056,-0.6474248,0.9145651
0.3,-0.56188565,1.4176078,-2.1113796,-0.2016599,-0.6722813,0.91919374
0.302,-0.69565356,1.4444822,-1.9351044,-0.20646647,-0.6992986,0.92427135
0.304,-0.8412708,1.481281,-1.754209,-0.21257725,-0.7275412,0.92989933
0.306,-0.99737525,1.52816,-1.5716684,-0.21945685,-0.7558905,0.9362182
0.308,-1.1621969,1.5847678,-1.3903476,-0.22625814,-0.7831108,0.943437
0.31,-1.3340845,1.6505233,-1.2135131,-0.23196568,-0.80789495,0.95154095
0.312,-1.5108902,1.7244368,-1.0443419,-0.23547395,-0.82884955,0.96016556
0.314,-1.6899669,1.8049221,-0.8854836,-0.23556447,-0.8445177,0.9686857
0.316,-1.8689125,1.8906456,-0.73944455,-0.2309122,-0.8534095,0.9763993
0.318,-2.044984,1.9797643,-0.60853475,-0.22017598,-0.8540436,0.98259985
0.32,-2.2155902,2.0702968,-0.49519986,-0.2021638,-0.84506893,0.98651576
0.322,-2.3779812,2.1598768,-0.401653,-0.17601404,-0.82551,0.9873594
0.324,-2.5290735,2.2460966,-0.32999712,-0.14129476,-0.79491675,0.984355
0.326,-2.6662061,2.3265712,-0.28171343,-0.098136395,-0.75350547,0.9767817
0.328,-2.7868977,2.3992,-0.25736782,-0.047262676,-0.7022382,0.96414095
0.33,-2.8890035,2.462117,-0.25668868,0.009996751,-0.64279777,0.94624245
0.332,-2.9707935,2.5135217,-0.27850035,0.07184895,-0.57752997,0.92328566
0.334,-3.0306537,2.5520918,-0.3208716,0.13618766,-0.5092003,0.89591086
0.336,-3.0673137,2.57683,-0.38167122,0.20078209,-0.44071805,0.86513364
0.338,-3.0804884,2.587206,-0.45828262,0.26340142,-0.37481982,0.8323383
0.34,-3.0702238,2.583431,-0.5479686,0.32212302,-0.3136869,0.79915774
0.342,-3.0367692,2.5658588,-0.64721406,0.37542456,-0.25908566,0.7672395
0.344,-2.9807885,2.5351715,-0.7531341,0.4222007,-0.21212777,0.73810625
0.346,-2.9036188,2.4927254,-0.8639266,0.46189457,-0.17283651,0.7128084
0.348,-2.806866,2.440014,-0.97671974,0.49443394,-0.14065942,0.6920068
0.35,-2.6925006,2.378849,-1.0881577,0.5201824,-0.11473924,0.6761224
0.352,-2.562482,2.3111477,-1.1953919,0.5398256,-0.09408781,0.664974
0.354,-2.4193554,2.2389,-1.2960563,0.5541545,-0.07795146,0.6578103
0.356,-2.2658992,2.164201,-1.3880298,0.563843,-0.06585178,0.6539073
0.358,-2.104956,2.0892725,-1.4699765,0.5693916,-0.057438165,0.6525495
0.36,-1.9391506,2.0161736,-1.5404365,0.57104135,-0.052404612,0.6527965
0.362,-1.7723045,1.9472239,-1.5980172,0.5689226,-0.05042237,0.65372694
0.364,-1.605401,1.8828789,-1.6404424,0.56325495,-0.05113575,0.6548203
0.366,-1.4405093,1.8244691,-1.6730552,0.55436623,-0.054160357,0.6559355
0.368,-1.2800832,1.7735095,-1.7003918,0.5426059,-0.059067607,0.6570549
0.37,-1.1250076,1.7302864,-1.7176532,0.5283177,-0.065411806,0.65815526
0.372,-0.9774976,1.6948373,-1.7226782,0.51188874,-0.07273826,0.65918523
0.374,-0.83780175,1.6659138,-1.7160455,0.49376285,-0.08066031,0.66011256
0.376,-0.7048996,1.6418991,-1.6970788,0.47442287,-0.088783264,0.6608769
0.378,-0.5809666,1.6233848,-1.6671276,0.45433548,-0.09668994,0.6613585
0.38,-0.4689247,1.6115615,-1.631996,0.43391594,-0.103972286,0.6613461
0.382,-0.3673267,1.605291,-1.595359,0.41350296,-0.11032498,0.6605583
0.384,-0.27373165,1.6030005,-1.5564893,0.3933388,-0.11552751,0.6586698
0.386,-0.18832189,1.603942,-1.5124383,0.3735224,-0.11941421,0.65535307
0.388,-0.112912714,1.6075684,-1.4608837,0.3540292,-0.12190436,0.6502906
0.39,-0.047694147,1.6132052,-1.4014802,0.33475345,-0.12301986,0.64326406
0.392,0.0075190365,1.6207334,-1.3356072,0.31555858,-0.12289247,0.6341516
0.394,0.052503526,1.6308316,-1.265417,0.29625863,-0.12176542,0.62295824
0.396,0.08665416,1.6442227,-1.1929598,0.27664575,-0.11997144,0.60981053
0.398,0.109665185,1.6609871,-1.1196463,0.25649628,-0.117932215,0.5949077
0.4,0.120606154,1.6811281,-1.045377,0.2356055,-0.11609851,0.5784975
0.402,0.11832875,1.7044574,-0.9689101,0.21380785,-0.11492558,0.5608749
0.404,0.10271585,1.7303746,-0.8895651,0.19099684,-0.11481461,0.54236054
0.406,0.07274252,1.7593622,-0.8074521,0.16714224,-0.11604844,0.5232127
0.408,0.026732147,1.7924156,-0.7225332,0.14231475,-0.11881154,0.5036337
0.41,-0.035664678,1.8295968,-0.633638,0.11669107,-0.12320792,0.48368022
0.412,-0.1135391,1.8706276,-0.5402003,0.09050193,-0.12929386,0.46330795
0.414,-0.206671,1.9155756,-0.4411129,0.064037465,-0.13709846,0.4423862
0.416,-0.31461132,1.9644269,-0.33678168,0.037579104,-0.14664206,0.42069346
0.418,-0.4371071,2.0177627,-0.22836083,0.011395276,-0.15793025,0.39796466
0.42,-0.57375944,2.0760949,-0.11725202,-0.014256804,-0.17091338,0.3739129
0.422,-0.7237991,2.1397316,-0.005135998,-0.03912834,-0.18547589,0.34832048
0.424,-0.8863471,2.2085338,0.10761981,-0.06298275,-0.20146608,0.3210451
0.426,-1.0602213,2.2817187,0.22128564,-0.085552946,-0.21862526,0.2920436
0.428,-1.2442901,2.35822,0.33642823,-0.10654961,-0.23655751,0.26139233
0.43,-1.4371989,2.43687,0.45329687,-0.12568665,-0.2548052,0.22922778
0.432,-1.6371135,2.5163019,0.5713755,-0.14269406,-0.27287272,0.19571719
0.434,-1.8421496,2.5952735,0.6897547,-0.15729068,-0.29022008,0.16107464
0.436,-2.050104,2.6729505,0.8068253,-0.16919678,-0.30625474,0.12554663
0.438,-2.258688,2.7482429,0.92047584,-0.17818461,-0.32039338,0.0893305
0.44,-2.4652884,2.8202646,1.0283101,-0.18409404,-0.33199704,0.052580647
0.442,-2.6681972,2.8887317,1.1278812,-0.1868234,-0.34035558,0.0155110285
0.444,-2.8652406,2.9531796,1.2174705,-0.18624268,-0.34480923,-0.02162955
0.446,-3.0542903,3.0130465,1.2953748,-0.18221486,-0.34472448,-0.058563054
0.448,-3.2334561,3.0680282,1.3603549,-0.17463952,-0.3396294,-0.09499094
0.45,-3.4013858,3.1175752,1.4115608,-0.16349718,-0.329199,-0.13059106
0.452,-3.556793,3.161408,1.4481075,-0.14882672,-0.31331003,-0.16498284
0.454,-3.698464,3.199197,1.4691728,-0.13073714,-0.29202205,-0.19773227
0.456,-3.8255222,3.230835,1.4739462,-0.10939143,-0.26554403,-0.22837076
0.458,-3.9372764,3.2560804,1.462182,-0.08501828,-0.23427537,-0.2564846
0.46,-4.0334435,3.2749722,1.4338021,-0.05797741,-0.19886068,-0.28174144
0.462,-4.113939,3.2872615,1.3889608,-0.02876848,-0.16022156,-0.30397272
0.464,-4.1786613,3.2930007,1.3282098,0.0019319057,-0.1195984,-0.32315144
0.466,-4.2279797,3.2923906,1.2526786,0.033243775,-0.07853952,-0.33947924
0.468,-4.2622967,3.285617,1.1638925,0.06412312,-0.038784478,-0.35342446
0.47,-4.2820015,3.2729487,1.0632211,0.09343967,-0.002097996,-0.3656444
0.472,-4.287667,3.2546563,0.95219266,0.12008283,0.029990576,-0.3769384
0.474,-4.280055,3.2310421,0.8325499,0.14307718,0.056398034,-0.38813087
0.476,-4.259788,3.2025275,0.7063341,0.16178983,0.07671498,-0.3999485
0.478,-4.2271996,3.1693234,0.57541203,0.17604578,0.0913189,-0.41290525
0.48,-4.182818,3.1318438,0.44192442,0.18615456,0.101282775,-0.4272298
0.482,-4.1272182,3.090429,0.3078081,0.19290787,0.1082093,-0.4428436
0.484,-4.060799,3.0456176,0.17483056,0.1974869,0.1140421,-0.4593003
0.486,-3.9842842,2.9979675,0.044884473,0.20126328,0.12072649,-0.475936
0.488,-3.8984823,2.9480705,-0.08023262,0.20555678,0.1298685,-0.49202347
0.49,-3.8036485,2.8962529,-0.19879752,0.21143582,0.14252055,-0.50689477
0.492,-3.700191,2.8427863,-0.30946773,0.21960294,0.15905795,-0.51996166
0.494,-3.5884185,2.7879524,-0.41142094,0.23032561,0.17914811,-0.53085697
0.496,-3.468877,2.732242,-0.5039711,0.2433837,0.20194621,-0.5395305
0.498,-3.3421094,2.6761136,-0.58664745,0.25815073,0.22642574,-0.5461933
0.5,-3.2090008,2.6201003,-0.65867066,0.27377313,0.25150728,-0.55120325
0.502,-3.070372,2.5647244,-0.7189557,0.28938174,0.27634436,-0.5549715
0.504,-2.9269214,2.510239,-0.76710653,0.30419993,0.3003591,-0.5579081
0.506,-2.7797713,2.4573226,-0.8027638,0.31756985,0.32326072,-0.5603443
0.508,-2.630211,2.4066958,-0.8253744,0.329004,0.34494597,-0.5624606
0.51,-2.4791293,2.3586888,-0.834651,0.33813965,0.36539584,-0.5642932
0.512,-2.3278184,2.3138115,-0.8301314,0.34471577,0.38452458,-0.56567335
0.514,-2.1782987,2.2731926,-0.81142044,0.34855196,0.40214616,-0.56628174
0.516,-2.031959,2.2370045,-0.7784488,0.34947032,0.4179631,-0.5657208
0.518,-1.8897696,2.205638,-0.73124117,0.34731328,0.43153065,-0.56364274
0.52,-1.754077,2.180489,-0.6704046,0.34192187,0.44230473,-0.5597378
0.522,-1.6275129,2.1627154,-0.5956662,0.33313084,0.4496645,-0.5537525
0.524,-1.5111482,2.1528172,-0.50761956,0.32079297,0.4530242,-0.5455866
0.526,-1.4060287,2.150962,-0.40610325,0.30481416,0.4519054,-0.53532165
0.528,-1.3128812,2.1569567,-0.2912427,0.28520718,0.4460679,-0.5232213
0.53,-1.2319392,2.1703594,-0.16366017,0.26210594,0.4355806,-0.5097404
0.532,-1.163311,2.1912181,-0.024646625,0.23582843,0.42089406,-0.49546036
0.534,-1.1071639,2.219624,0.12265268,0.20688593,0.40281352,-0.48100615
0.536,-1.0631182,2.2555718,0.27495557,0.17599152,0.38248628,-0.46702003
0.538,-1.0303409,2.2989998,0.42929918,0.14404106,0.36131066,-0.45417935
0.54,-1.0079195,2.3493905,0.5835251,0.112032324,0.3407507,-0.4431025
0.542,-0.994907,2.4059494,0.7363931,0.08099891,0.3222312,-0.43427026
0.544,-0.99020094,2.467341,0.88668954,0.05193332,0.3070189,-0.42801267
0.546,-0.99251705,2.5321212,1.0329839,0.025726836,0.29614183,-0.42452714
0.548,-1.000357,2.5985816,1.1737194,0.0030724294,0.29027137,-0.42385924
0.55,-1.012235,2.665079,1.3071259,-0.015555124,0.28968337,-0.42592713
0.552,-1.0259359,2.729896,1.4313953,-0.029941604,0.2942971,-0.4304959
0.554,-1.0402884,2.7916574,1.5442739,-0.040123656,0.3037425,-0.4372527
0.556,-1.0536014,2.849119,1.6439681,-0.046381492,0.3174503,-0.44583476
0.558,-1.0644175,2.9012697,1.7288034,-0.049182896,0.3347417,-0.455827
0.56,-1.0714698,2.9475496,1.7975299,-0.04911003,0.3549081,-0.46681145
0.562,-1.0740156,2.9872959,1.8493922,-0.046823226,0.37728813,-0.4783733
0.564,-1.0714173,3.020256,1.884062,-0.042997256,0.40128765,-0.4901078
0.566,-1.0635662,3.0463352,1.9015796,-0.0382681,0.42645746,-0.5016543
0.568,-1.0504124,3.0656931,1.9020221,-0.033167347,0.4524607,-0.5126944
0.57,-1.0326076,3.0787935,1.8859262,-0.028089836,0.47902954,-0.5229471
0.572,-1.0107887,3.0863698,1.8540349,-0.023305923,0.5059738,-0.5321727
0.574,-0.98579097,3.088852,1.8072939,-0.018954605,0.5331208,-0.5401965
0.576,-0.95838106,3.0868812,1.7465279,-0.015080154,0.56031114,-0.5469128
0.578,-0.9295744,3.0812602,1.6730686,-0.011635236,0.5873608,-0.5522372
0.58,-0.9008498,3.073029,1.5882864,-0.008526146,0.6140552,-0.55610454
0.582,-0.87298644,3.0630016,1.4939232,-0.005638495,0.640124,-0.55848294
0.584,-0.84678566,3.0521183,1.3915586,-0.0028529614,0.6652667,-0.5593699
0.586,-0.8234167,3.0411594,1.2824488,-6.41644e-05,0.68916154,-0.5588088
0.588,-0.803625,3.0310225,1.1681216,0.0028379261,0.7114983,-0.5569051
0.59,-0.7879524,3.0222092,1.0499861,0.0059199184,0.7319719,-0.5538137
0.592,-0.77702963,3.0153174,0.92995936,0.009214535,0.7503027,-0.5496985
0.594,-0.7712016,3.0106356,0.809539,0.012752473,0.76630604,-0.5447362
0.596,-0.77067864,3.0086143,0.69034207,0.016555369,0.7798339,-0.5391419
0.598,-0.7748319,3.0087662,0.574181,0.020614699,0.790768,-0.5331381
0.6,-0.7840327,3.0116751,0.46261823,0.024897575,0.79902565,-0.5269337
0.602,-0.7977065,3.0173464,0.35721067,0.029365852,0.8045941,-0.5207026
0.604,-0.8155938,3.0254953,0.25984374,0.033978462,0.80750114,-0.51457125
0.606,-0.8370041,3.0356796,0.1720441,0.038671732,0.8078223,-0.50865704
0.608,-0.8612115,3.047698,0.095013976,0.04340945,0.80572784,-0.5030424
0.61,-0.8873535,3.0611458,0.029685915,0.048172385,0.8014715,-0.4978263
0.612,-0.91460377,3.0756013,-0.023278505,0.05297959,0.79540867,-0.4930857
0.614,-0.9423069,3.090817,-0.06312001,0.057882756,0.7880068,-0.4888914
0.616,-0.96921474,3.1061845,-0.089468956,0.06296061,0.779841,-0.48530516
0.618,-0.9937269,3.1205652,-0.10240859,0.068335235,0.77155346,-0.48237598
0.62,-1.0138147,3.1328912,-0.10382384,0.07414201,0.7638136,-0.48012573
0.622,-1.0295753,3.1422954,-0.09468514,0.08051759,0.7572725,-0.47855148
0.624,-1.0412879,3.1478298,-0.07273096,0.08760479,0.75254506,-0.47764426
0.626,-1.0475285,3.1497493,-0.036819637,0.09553781,0.75012904,-0.4773596
0.628,-1.046629,3.1489024,0.011873871,0.10443893,0.7504107,-0.47761267
0.63,-1.0375453,3.144852,0.070296526,0.11440016,0.75363576,-0.4783038
0.632,-1.0195873,3.13613,0.1350714,0.12544248,0.7598525,-0.4793749
0.634,-0.99251014,3.121089,0.20401701,0.13752642,0.76897115,-0.48074734
0.636,-0.9556021,3.0988228,0.2767377,0.15057652,0.7807704,-0.48227206
0.638,-0.9077198,3.069263,0.3529833,0.16445439,0.7949034,-0.48377013
0.64,-0.84861887,3.0331106,0.43182677,0.17899096,0.81092834,-0.48506773
0.642,-0.778296,2.9903533,0.5113653,0.19398485,0.8283776,-0.48595303
0.644,-0.69642603,2.9409723,0.5893257,0.20925128,0.8467674,-0.48615843
0.646,-0.60322785,2.884775,0.66341794,0.2246179,0.8655958,-0.48541313
0.648,-0.4990605,2.8217978,0.73204654,0.23986045,0.88434064,-0.48345295
0.65,-0.38405144,2.7525344,0.7942061,0.25473672,0.90245104,-0.48006487
0.652,-0.25879586,2.6780705,0.8489004,0.268972,0.9194149,-0.47517195
0.654,-0.12388611,2.5994256,0.8951466,0.2821777,0.93477523,-0.46876353
0.656,0.01991129,2.517395,0.93194354,0.29402643,0.9481282,-0.4607532
0.658,0.17157364,2.43288,0.9581596,0.30430424,0.9590019,-0.45105064
0.66,0.330135,2.3465455,0.9732008,0.31275588,0.9669486,-0.43982625
0.662,0.49439847,2.259438,0.97657037,0.31897855,0.97159094,-0.4274351
0.664,0.6630789,2.1729305,0.9679133,0.32253283,0.9726002,-0.4141928
0.666,0.83460367,2.0884736,0.9472663,0.32301134,0.9697543,-0.4003418
0.668,1.0073793,2.0073862,0.91454226,0.32019544,0.9630125,-0.38602898
0.67,1.1800838,1.9307642,0.8694291,0.31408086,0.95259726,-0.37140444
0.672,1.3512827,1.8597213,0.811512,0.30487,0.93898404,-0.3566197
0.674,1.5195295,1.7950214,0.740847,0.29295838,0.922849,-0.34173864
0.676,1.6834579,1.7374158,0.65770173,0.27887905,0.9049678,-0.32665813
0.678,1.8414558,1.687649,0.5626479,0.2632389,0.88617516,-0.31112218
0.68,1.9922054,1.6462411,0.4564523,0.24668512,0.86732495,-0.29474372
0.682,2.1340802,1.6136801,0.3401391,0.2298074,0.8491504,-0.2771324
0.684,2.2654977,1.5902486,0.21453118,0.213072,0.8323182,-0.25794286
0.686,2.384858,1.5761551,0.080530286,0.1968002,0.8174001,-0.23692152
0.688,2.491249,1.5711937,-0.061505437,0.18111616,0.8047762,-0.21399625
0.69,2.5844247,1.5748177,-0.21166527,0.16599968,0.7946781,-0.18925114
0.692,2.664076,1.5862262,-0.3706833,0.15133232,0.78718036,-0.16289015
0.694,2.7310016,1.6036875,-0.5397439,0.13697124,0.782237,-0.13519761
0.696,2.7840896,1.6270913,-0.7194725,0.122794375,0.77967393,-0.106594935
0.698,2.8226323,1.6563355,-0.90379477,0.108744144,0.77923465,-0.07758361
0.7,2.8473291,1.6903486,-1.0849473,0.09483451,0.7806475,-0.04868269
0.702,2.8582144,1.7290921,-1.2613944,0.08120209,0.78359777,-0.020416737
0.704,2.8550813,1.7722054,-1.434657,0.068033606,0.7877579,0.0067530423
0.706,2.841155,1.8168807,-1.6098418,0.05559486,0.7928,0.032496676
0.708,2.8131635,1.8643383,-1.7923698,0.04423186,0.7984348,0.056511
0.71,2.7745728,1.9113683,-1.9702098,0.03421986,0.8044226,0.078447744
0.712,2.7275825,1.9566543,-2.1315343,0.025778055,0.8107097,0.09808925
0.714,2.6708922,2.002605,-2.2758527,0.019215286,0.8172734,0.11548243
0.716,2.605352,2.0493817,-2.405895,0.014902055,0.82411057,0.13079837
0.718,2.5334334,2.09513,-2.524525,0.0131210685,0.831246,0.1441553
0.72,2.4557304,2.1391463,-2.6336951,0.013975352,0.83862567,0.15560405
0.722,2.3724232,2.1814182,-2.7325237,0.017294765,0.84607553,0.165225
0.724,2.285252,2.2218676,-2.8147964,0.022746503,0.8533498,0.17329909
0.726,2.1944032,2.2609189,-2.8729439,0.029904932,0.86022085,0.18015434
0.728,2.0969214,2.300774,-2.9066224,0.03824088,0.86644197,0.18596664
0.73,1.9987049,2.3384657,-2.9132915,0.047200292,0.8722365,0.19085468
0.732,1.9063276,2.3699355,-2.8865924,0.056297988,0.8781798,0.19483915
0.734,1.8139999,2.3994195,-2.833443,0.06508541,0.88467413,0.19781727
0.736,1.7137535,2.4315088,-2.7630966,0.07312372,0.89173794,0.1997602
0.738,1.6052146,2.46453,-2.673942,0.079954326,0.89888036,0.20054336
0.74,1.4943422,2.4964175,-2.5593994,0.084742606,0.9051757,0.2002476
0.742,1.3768799,2.5305655,-2.4175081,0.08654994,0.91018623,0.19919151
0.744,1.25097,2.5699694,-2.2510397,0.084677905,0.9139277,0.1973493
0.746,1.1161798,2.6152625,-2.0646315,0.07874864,0.9162986,0.19448315
0.748,0.9725323,2.665595,-1.8636513,0.068737805,0.9171742,0.19051743
0.75,0.819709,2.719864,-1.6520879,0.055003017,0.9166305,0.18554924
0.752,0.6570845,2.778151,-1.4326932,0.038183868,0.9149835,0.17976122
0.754,0.48442662,2.841378,-1.2079301,0.01918602,0.912766,0.17341325
0.756,0.30256426,2.910314,-0.98050386,-0.00080394745,0.91077405,0.16674076
0.758,0.11219674,2.9852448,-0.75342464,-0.020270973,0.9098292,0.15981878
0.76,-0.08674073,3.0660987,-0.53094393,-0.0375233,0.9104863,0.15274155
0.762,-0.29297984,3.1522584,-0.31819528,-0.051044017,0.91323704,0.14592184
0.764,-0.5049782,3.2428799,-0.11919838,-0.05953628,0.9184878,0.1395024
0.766,-0.72072375,3.3365645,0.062394142,-0.06202364,0.92561185,0.13311976
0.768,-0.93857265,3.432389,0.22385383,-0.05806926,0.9334055,0.12670769
0.77,-1.15681,3.5294147,0.36315042,-0.047801614,0.9413811,0.12043621
0.772,-1.3732709,3.6262734,0.47898644,-0.03191924,0.9497607,0.1140417
0.774,-1.5859467,3.7215104,0.57079196,-0.011518776,0.9590013,0.1068756
0.776,-1.7931137,3.8137734,0.6381919,0.012248963,0.9698056,0.098249584
0.778,-1.9930356,3.9018445,0.68155265,0.038258195,0.9831137,0.08745776
0.78,-2.184425,3.984819,0.70190656,0.06545994,0.9997507,0.07388346
0.782,-2.3660254,4.062045,0.7004555,0.09298909,1.0201435,0.057156652
0.784,-2.5366118,4.1327496,0.67866236,0.12018752,1.0437726,0.037098557
0.786,-2.6951442,4.196264,0.63824314,0.14661369,1.0694216,0.013792992
0.788,-2.8402295,4.2518406,0.5809219,0.17203414,1.0957339,-0.012501061
0.79,-2.970224,4.298754,0.5086906,0.19643229,1.1212733,-0.041520983
0.792,-3.0838814,4.33642,0.42423275,0.21988833,1.1443892,-0.07288423
0.794,-3.180767,4.3647,0.3308942,0.24265325,1.1634073,-0.10643083
0.796,-3.2607005,4.38398,0.23142526,0.2646823,1.1764274,-0.14209792
0.798,-3.323345,4.3946366,0.1289967,0.2854919,1.1820805,-0.17945158
0.8,-3.367913,4.3970423,0.027389467,0.304492,1.1802125,-0.21800882
0.802,-3.3941658,4.3917966,-0.070752114,0.3212011,1.1714549,-0.25755262
0.804,-3.4025126,4.379861,-0.16401887,0.33541435,1.1568391,-0.29788664
0.806,-3.3908038,4.3602147,-0.25181496,0.34725463,1.1375792,-0.3387089
0.808,-3.3578475,4.332296,-0.33818007,0.35709962,1.1149108,-0.37960017
0.81,-3.3042302,4.297073,-0.42557624,0.36540613,1.0899396,-0.4200301
0.812,-3.229801,4.25436,-0.5100031,0.37255764,1.063693,-0.45940337
0.814,-3.1343706,4.204563,-0.5859693,0.3788827,1.0371885,-0.49731115
0.816,-3.0204473,4.149861,-0.64789075,0.38475123,1.0111896,-0.53368413
0.818,-2.8851328,4.0889497,-0.6937798,0.3903638,0.9863351,-0.5682093
0.82,-2.7322655,4.0243464,-0.73727775,0.39577383,0.96368957,-0.6004442
0.822,-2.5641792,3.956594,-0.78617185,0.40095472,0.9440187,-0.6305847
0.824,-2.3797264,3.8833685,-0.8360713,0.40575394,0.9270582,-0.65899545
0.826,-2.1810794,3.805319,-0.88087505,0.4099825,0.9122664,-0.6854829
0.828,-1.9723567,3.7248259,-0.9161836,0.41342983,0.89936805,-0.7096594
0.83,-1.756743,3.6437154,-0.941113,0.4158127,0.8881252,-0.73141766
0.832,-1.5371232,3.5636787,-0.9577976,0.4168917,0.87818426,-0.7508555
0.834,-1.3173018,3.48597,-0.97208023,0.41648903,0.8691499,-0.7681429
0.836,-1.0993834,3.4108806,-0.9902325,0.4145023,0.86054695,-0.7834779
0.838,-0.88404953,3.337368,-1.0118455,0.41085222,0.85190785,-0.7970436
0.84,-0.68004674,3.2691603,-1.0370646,0.4054984,0.8428651,-0.8089695
0.842,-0.49274296,3.209615,-1.068269,0.39846337,0.8331204,-0.81932247
0.844,-0.31674385,3.1548276,-1.09693,0.3898152,0.82255304,-0.8281409
0.846,-0.14998245,3.1023257,-1.1150024,0.37975526,0.81136906,-0.8354334
0.848,0.0015705824,3.0558345,-1.1264368,0.3686335,0.7999772,-0.84116995
0.85,0.1293273,3.0188422,-1.1383986,0.35693777,0.7888179,-0.8453169
0.852,0.23652887,2.9892788,-1.1527634,0.34521514,0.7783108,-0.8478502
0.854,0.32290006,2.9660208,-1.168121,0.33398706,0.768789,-0.84874487
0.856,0.3865785,2.9497495,-1.1829665,0.32371378,0.7605016,-0.8480126
0.858,0.42607075,2.941358,-1.1951497,0.31472033,0.75366926,-0.84571517
0.86,0.44193518,2.9412417,-1.2038188,0.30730432,0.7484814,-0.8418976
0.862,0.43543565,2.9487398,-1.2091126,0.30175066,0.7449945,-0.83662546
0.864,0.407708,2.9625683,-1.2118576,0.29832965,0.7432238,-0.83004516
0.866,0.3601036,2.9814026,-1.212877,0.29721057,0.7431143,-0.822428
0.868,0.29466635,3.0041285,-1.2128389,0.2983327,0.7443404,-0.8141129
0.87,0.21395689,3.0296314,-1.2107067,0.30145705,0.7462884,-0.8053538
0.872,0.119944274,3.0570774,-1.2045376,0.3062585,0.7482734,-0.796334
0.874,0.014606476,3.08609,-1.1934469,0.31240124,0.74977297,-0.7872073
0.876,-0.099946916,3.1164184,-1.1766726,0.3195967,0.7503863,-0.77814925
0.878,-0.22092116,3.147283,-1.1540167,0.3275991,0.74982727,-0.7694546
0.88,-0.3459487,3.177909,-1.125895,0.33618295,0.7480011,-0.76149833
0.882,-0.47319847,3.2077003,-1.0925634,0.34510934,0.7449741,-0.7545623
0.884,-0.6014253,3.236446,-1.0543633,0.35415798,0.7408476,-0.74874926
0.886,-0.7258718,3.261919,-1.0104342,0.36320403,0.7357539,-0.7440975
0.888,-0.84354335,3.2832403,-0.9600377,0.37220514,0.7299149,-0.7406798
0.89,-0.956543,3.302635,-0.90282714,0.38108903,0.7235683,-0.7385999
0.892,-1.0644681,3.321342,-0.83785695,0.389696,0.71679413,-0.7379531
0.894,-1.1650027,3.3383286,-0.7655744,0.3977449,0.70950437,-0.738774
0.896,-1.2551961,3.3510506,-0.6863579,0.4049334,0.7015725,-0.74104214
0.898,-1.3363935,3.3602476,-0.60031086,0.4109977,0.69292235,-0.74470496
0.9,-1.4108233,3.3674152,-0.50718075,0.4157033,0.6836058,-0.7497503
0.902,-1.4781797,3.3729055,-0.40799975,0.4189202,0.67382246,-0.7561574
0.904,-1.5369387,3.3763342,-0.30378705,0.42064893,0.66390735,-0.76389194
0.906,-1.587878,3.3778765,-0.1943354,0.42098927,0.65427697,-0.7728652
0.908,-1.633162,3.378306,-0.08056784,0.42014754,0.6453649,-0.7829009
0.91,-1.6744409,3.3781931,0.036386013,0.41841167,0.6375319,-0.7937079
0.912,-1.7123213,3.377662,0.15637141,0.41613716,0.63097966,-0.8049437
0.914,-1.7479124,3.3773046,0.27984238,0.41365772,0.6258155,-0.81628937
0.916,-1.7833085,3.377945,0.4063403,0.4112267,0.62213576,-0.8273802
0.918,-1.8201782,3.3800213,0.534065,0.40908623,0.6200026,-0.83777606
0.92,-1.8585892,3.3829203,0.6611196,0.40751278,0.6193494,-0.84704304
0.922,-1.8987615,3.3864143,0.7869563,0.40688044,0.62010056,-0.8549081
0.924,-1.9416647,3.3909373,0.9111985,0.4074729,0.62228227,-0.8613191
0.926,-1.9880861,3.39677,1.0335147,0.40937313,0.62580585,-0.8661684
0.928,-2.0379758,3.4036765,1.1538054,0.41252035,0.63032955,-0.8693737
0.93,-2.090685,3.4111621,1.2719349,0.41680568,0.6354794,-0.8710198
0.932,-2.1458762,3.4189382,1.3875697,0.42218214,0.6410979,-0.871222
0.934,-2.202869,3.4267359,1.5001636,0.42865354,0.6472582,-0.87014353
0.936,-2.2603607,3.4341364,1.6081219,0.43627968,0.6542165,-0.86816436
0.938,-2.3163872,3.4404984,1.7097459,0.44510567,0.6623035,-0.865867
0.94,-2.3682814,3.444715,1.8042549,0.45510796,0.67181075,-0.86381006
0.942,-2.4141235,3.445529,1.8904145,0.4662373,0.68298936,-0.86241966
0.944,-2.452676,3.4426522,1.9674165,0.47844827,0.69603664,-0.86206305
0.946,-2.4822981,3.4362705,2.0362837,0.49165344,0.711045,-0.8630867
0.948,-2.5009832,3.4267502,2.0983305,0.50571996,0.72795737,-0.86579734
0.95,-2.506866,3.4141555,2.1526322,0.5204477,0.7465651,-0.87035245
0.952,-2.4974504,3.3976839,2.1961877,0.5355559,0.7665148,-0.8767472
0.954,-2.4709854,3.3762317,2.2262678,0.55070734,0.78727627,-0.8848757
0.956,-2.4259071,3.3491416,2.2419596,0.5655041,0.80819994,-0.89463735
0.958,-2.3614664,3.3168502,2.2435293,0.57949185,0.8285718,-0.9058986
0.96,-2.2771745,3.2805433,2.2318814,0.5922191,0.8476721,-0.91849416
0.962,-2.1729445,3.241304,2.2075734,0.60323656,0.86481667,-0.9322848
0.964,-2.0489376,3.1997852,2.170179,0.61214304,0.8794085,-0.9471845
0.966,-1.9054447,3.156267,2.119031,0.61860025,0.8909508,-0.96312064
0.968,-1.7432477,3.1112766,2.0536861,0.6223471,0.8991101,-0.9799919
0.97,-1.5638008,3.0654254,1.974251,0.6232549,0.903689,-0.9976855
0.972,-1.368791,3.0196977,1.8816565,0.621313,0.9045788,-1.0160576
0.974,-1.1603467,2.9749875,1.7774788,0.61662346,0.9018935,-1.0348586
0.976,-0.94084,2.9323797,1.6633618,0.6093831,0.8958962,-1.0537193
0.978,-0.71284664,2.8926768,1.5409439,0.5999332,0.88682973,-1.0721967
0.98,-0.4788463,2.85676,1.4114401,0.58874226,0.87504494,-1.0899507
0.982,-0.24145532,2.8252213,1.2763393,0.5763414,0.8610929,-1.1065537
0.984,-0.0034924746,2.7985368,1.137357,0.5632968,0.84557104,-1.1214393
0.986,0.23249781,2.77706,0.9964033,0.5501688,0.8290138,-1.1341704
0.988,0.4638533,2.7610276,0.8553568,0.5375025,0.8119267,-1.1444358
0.99,0.6881504,2.7504525,0.7161507,0.5258026,0.794829,-1.1519225
0.992,0.90314037,2.7451305,0.5804063,0.51551133,0.7782651,-1.1563523
0.994,1.1075064,2.744648,0.4499576,0.50694513,0.7627593,-1.1575885
0.996,1.2969055,2.7503,0.32580328,0.50028366,0.7487571,-1.1556668
0.998,1.4695339,2.7615771,0.20919716,0.49555725,0.7366611,-1.1506897
1,1.6280408,2.7753892,0.10148585,0.4927287,0.7268531,-1.1427668
1.002,1.7713233,2.7908385,0.003439188,0.4916986,0.7196698,-1.1320568
1.004,1.8965567,2.809168,-0.083645344,0.49229357,0.71537554,-1.1188319
1.006,2.0017076,2.8320823,-0.15909553,0.49431425,0.7141517,-1.1034492
1.008,2.0888042,2.857621,-0.22279358,0.49753517,0.7161143,-1.0862737
1.01,2.1597009,2.8836823,-0.2753861,0.501737,0.72128975,-1.0676737
1.012,2.2141037,2.9095707,-0.31683958,0.5067244,0.7296155,-1.0480769
1.014,2.251754,2.9350502,-0.34739947,0.51230854,0.7409152,-1.0279912
1.016,2.2746162,2.9590597,-0.36808634,0.51835376,0.75487465,-1.0079297
1.018,2.2849493,2.9806476,-0.37886238,0.52472246,0.77108353,-0.9883708
1.02,2.2839265,2.9994123,-0.38002264,0.53130984,0.78903663,-0.9697557
1.022,2.272698,3.015275,-0.3724084,0.5380254,0.8081111,-0.9524661
1.024,2.2532983,3.0276191,-0.35710752,0.5447936,0.82765496,-0.9368198
1.026,2.2282355,3.035745,-0.33499742,0.551529,0.8470235,-0.92302626
1.028,2.1994998,3.0393443,-0.30681705,0.5581496,0.86560774,-0.91123617
1.03,2.167956,3.0388258,-0.2731526,0.56457907,0.88288677,-0.9015109
1.032,2.134945,3.0342216,-0.23490691,0.57075745,0.8984287,-0.89381975
1.034,2.1025376,3.025189,-0.19290793,0.5766244,0.91194046,-0.88804233
1.036,2.0722241,3.0118005,-0.14778078,0.58214563,0.9232666,-0.8839768
1.038,2.0448532,2.9944534,-0.10035813,0.58730024,0.9323976,-0.8813666
1.04,2.0211754,2.9737294,-0.05158329,0.59209394,0.93945396,-0.87991035
1.042,2.0019298,2.9499547,-0.0024238825,0.59659153,0.9446863,-0.8792685
1.044,1.9873149,2.9236953,0.0467602,0.6008905,0.94843704,-0.87908864
1.046,1.9771601,2.8955324,0.095739484,0.6051199,0.9511019,-0.87900054
1.048,1.9713222,2.8661273,0.14401889,0.60943735,0.95310485,-0.8786588
1.05,1.969161,2.8362365,0.1913327,0.6139903,0.9548669,-0.87775797
1.052,1.9698887,2.806484,0.2376262,0.6189024,0.9567567,-0.8760933
1.054,1.9726827,2.7777574,0.28270483,0.62425286,0.959036,-0.87355864
1.056,1.9761417,2.750744,0.32630265,0.6300434,0.9618463,-0.87011755
1.058,1.979182,2.7260804,0.3681302,0.6361896,0.9651835,-0.86579067
1.06,1.9807146,2.7043998,0.4082017,0.64252627,0.9689369,-0.86064076
1.062,1.9793357,2.686083,0.4465518,0.6488621,0.97293866,-0.8547802
1.064,1.97369,2.6716993,0.48331207,0.65494883,0.9769938,-0.8483317
1.066,1.9625063,2.6617045,0.51861143,0.66051877,0.98091006,-0.8414506
1.068,1.9447294,2.656246,0.5525232,0.66532624,0.9845562,-0.8342813
1.07,1.9194617,2.6552646,0.58499944,0.6691539,0.987867,-0.8269508
1.072,1.8857931,2.658811,0.61588657,0.671867,0.9908494,-0.8195828
1.074,1.8432232,2.6667929,0.64537126,0.6734121,0.99360394,-0.8123137
1.076,1.791498,2.679032,0.67342806,0.67381006,0.99631095,-0.80530417
1.078,1.730542,2.695155,0.700014,0.6731559,0.9991595,-0.79870754
1.08,1.6606274,2.7147474,0.72510755,0.6715913,1.0022919,-0.7927021
1.082,1.5820827,2.7372239,0.7484821,0.6692959,1.0057557,-0.7874603
1.084,1.4956727,2.7619789,0.7698404,0.6664155,1.0094723,-0.78317153
1.086,1.4022444,2.7883117,0.78877443,0.6630678,1.0132453,-0.7800191
1.088,1.3030453,2.8156185,0.8048489,0.6593485,1.0167596,-0.77816033
1.09,1.1994978,2.8429275,0.81769717,0.65530777,1.0196323,-0.7777173
1.092,1.093072,2.869584,0.8268677,0.6509966,1.0214646,-0.77878344
1.094,0.985548,2.894732,0.831884,0.6464491,1.0218534,-0.78139234
1.096,0.8785435,2.9178739,0.8323309,0.64170456,1.0204598,-0.7855331
1.098,0.7736886,2.9383562,0.82784766,0.6368014,1.0170032,-0.7911342
1.1,0.6726705,2.9556358,0.81824416,0.6317816,1.0112661,-0.7980877
1.102,0.5771647,2.9692497,0.8034324,0.62667,1.0030967,-0.80622685
1.104,0.48838085,2.9788198,0.7833045,0.6214796,0.9923637,-0.81535035
1.106,0.4076112,2.9840708,0.7576651,0.616186,0.97896284,-0.82522935
1.108,0.33615077,2.9847991,0.726587,0.61072,0.9628279,-0.8356189
1.11,0.2746628,2.9811592,0.69030666,0.6049759,0.9438609,-0.8463011
1.112,0.22362727,2.9731164,0.64928794,0.598814,0.9219705,-0.8570763
1.114,0.1834073,2.9609282,0.6040051,0.5920614,0.89705634,-0.86776215
1.116,0.15405184,2.9447057,0.554942,0.58451694,0.8690662,-0.87819755
1.118,0.13534641,2.924888,0.5027163,0.5760317,0.8380407,-0.88826996
1.12,0.12669629,2.9018025,0.44792384,0.5665324,0.8041438,-0.8978793
1.122,0.12739879,2.8759818,0.3910374,0.55602443,0.7676822,-0.90696406
1.124,0.13651824,2.8477416,0.3322385,0.54460984,0.7291183,-0.9154732
1.126,0.15316135,2.8174217,0.27218527,0.5324846,0.6890147,-0.92334586
1.128,0.17623961,2.7853253,0.2113148,0.5199064,0.6480047,-0.9305059
1.13,0.20451462,2.7519615,0.1500063,0.5071801,0.60673213,-0.9368794
1.132,0.2367549,2.717728,0.08874786,0.4946124,0.56582785,-0.9423991
1.134,0.2714672,2.6829772,0.028230429,0.4824953,0.5258442,-0.9470086
1.136,0.30748478,2.6480253,-0.03122902,0.47106516,0.4871917,-0.95069164
1.138,0.34346548,2.6130285,-0.08958644,0.46049705,0.4500985,-0.9534741
1.14,0.37821943,2.5782468,-0.14689302,0.4508735,0.41462183,-0.9554232
1.142,0.4107813,2.5438094,-0.20321661,0.4421972,0.38064817,-0.95664597
1.144,0.44000715,2.509834,-0.2583391,0.4343987,0.3479223,-0.9572648
1.146,0.46505368,2.476655,-0.3120041,0.42736498,0.31611887,-0.9574009
1.148,0.4854825,2.4443908,-0.36409885,0.4209828,0.28491154,-0.95720077
1.15,0.5010552,2.4129672,-0.41460562,0.41513997,0.25398967,-0.95681876
1.152,0.51162595,2.382324,-0.4637292,0.40977043,0.22315092,-0.9564032
1.154,0.5173465,2.352333,-0.5120425,0.40485922,0.19229987,-0.9560878
1.156,0.5185272,2.3230128,-0.5597038,0.40043655,0.16146007,-0.9560139
1.158,0.51558125,2.2942543,-0.60673875,0.39658225,0.13075583,-0.9563331
1.16,0.50946754,2.265588,-0.65317404,0.3934275,0.10038926,-0.95720834
1.162,0.50103164,2.2369483,-0.6989845,0.39111167,0.070593804,-0.9588432
1.164,0.49121544,2.2079988,-0.74417645,0.38978863,0.041653663,-0.9614453
1.166,0.4812086,2.1786633,-0.78852284,0.38962778,0.013831884,-0.9652197
1.168,0.4722486,2.148735,-0.8317229,0.3907907,-0.012665182,-0.9703259
1.17,0.46554118,2.1178346,-0.87360966,0.3934126,-0.03774357,-0.9768734
1.172,0.4624639,2.0858192,-0.9139311,0.39757475,-0.06140411,-0.9848951
1.174,0.46426743,2.0524182,-0.95239764,0.4033134,-0.08377592,-0.99435544
1.176,0.4720694,2.0173912,-0.9887276,0.41059634,-0.10509519,-1.0051627
1.178,0.48711687,1.9805689,-1.0223941,0.41932365,-0.12569927,-1.0171763
1.18,0.5099677,1.9420547,-1.0531448,0.42930868,-0.14598806,-1.0302048
1.182,0.54124355,1.9017675,-1.0803895,0.44029787,-0.16639796,-1.0440304
1.184,0.5813414,1.8599269,-1.1037889,0.45199034,-0.18735215,-1.0583931
1.186,0.63018787,1.8167093,-1.122776,0.4640564,-0.2092271,-1.0730282
1.188,0.6877862,1.7724438,-1.1369234,0.47616872,-0.23228185,-1.087676
1.19,0.753501,1.72754,-1.1457549,0.48801723,-0.2566142,-1.1020844
1.192,0.82662594,1.6824298,-1.1490921,0.49934578,-0.28215358,-1.115984
1.194,0.9061438,1.6374742,-1.146806,0.5099763,-0.3086499,-1.1291213
1.196,0.9908503,1.593168,-1.1388971,0.5198171,-0.3356593,-1.1412637
1.198,1.0791368,1.5499593,-1.1252533,0.5288757,-0.3625363,-1.1522071
1.2,1.1693119,1.5086689,-1.1059494,0.53723645,-0.38848692,-1.1617558
1.202,1.2598035,1.4698731,-1.0811505,0.5450672,-0.41260326,-1.1697328
1.204,1.3488374,1.4342886,-1.0511526,0.55258167,-0.4339304,-1.1759875
1.206,1.4347682,1.4022138,-1.0166758,0.5600306,-0.4515608,-1.1803784
1.208,1.5158606,1.3742028,-0.9785321,0.5676674,-0.4647044,-1.1827909
1.21,1.5906723,1.350718,-0.9375322,0.5757286,-0.4727481,-1.1831284
1.212,1.6577828,1.3320297,-0.89447784,0.58440566,-0.4752966,-1.1812979
1.214,1.7160388,1.3183271,-0.8501116,0.59383845,-0.47222692,-1.1772687
1.216,1.764377,1.3098185,-0.80502355,0.60412025,-0.46368116,-1.1710578
1.218,1.8019135,1.3067487,-0.7599841,0.6152834,-0.4500429,-1.1627494
1.22,1.828582,1.3088493,-0.71581495,0.62729394,-0.43192795,-1.152521
1.222,1.8443153,1.3158016,-0.67324436,0.6400839,-0.4101116,-1.1406417
1.224,1.8493278,1.3273667,-0.63282603,0.6535586,-0.38548282,-1.1274562
1.226,1.8440669,1.343048,-0.59505016,0.6675949,-0.35901898,-1.1133795
1.228,1.8294597,1.3621552,-0.5603915,0.68203807,-0.33169264,-1.0988473
1.23,1.806793,1.3841416,-0.5290785,0.6967499,-0.3044396,-1.0842972
1.232,1.7773658,1.4082354,-0.5011873,0.71158564,-0.27810556,-1.070168
1.234,1.7429155,1.4337691,-0.47654808,0.72642577,-0.2533946,-1.0568787
1.236,1.7050664,1.4599046,-0.45508456,0.74116635,-0.23084955,-1.0447983
1.238,1.6653892,1.486,-0.436684,0.75572324,-0.21085633,-1.0342559
1.24,1.625663,1.5111604,-0.42103642,0.77004206,-0.19362514,-1.0254946
1.242,1.5875121,1.5347509,-0.40772438,0.7840781,-0.17921472,-1.0186685
1.244,1.5528629,1.5561395,-0.39655745,0.7978131,-0.16754964,-1.0138202
1.246,1.5231661,1.5747024,-0.38696605,0.8112563,-0.158458,-1.010939
1.248,1.4997892,1.590093,-0.37828922,0.8243961,-0.15170558,-1.0099214
1.25,1.4836645,1.6017671,-0.3701313,0.8372265,-0.14701611,-1.010579
1.252,1.4757009,1.609562,-0.36204892,0.84972847,-0.1441069,-1.012662
1.254,1.4764472,1.6133107,-0.35354775,0.86186224,-0.14268965,-1.0158775
1.256,1.4862286,1.6128688,-0.34430724,0.8735745,-0.14247699,-1.0199237
1.258,1.5047679,1.6084145,-0.3341875,0.8848083,-0.14317562,-1.0245006
1.26,1.5316173,1.600084,-0.323178,0.8955045,-0.14446947,-1.0293607
1.262,1.5661254,1.5881705,-0.31113917,0.9056131,-0.14603785,-1.0343112
1.264,1.607289,1.5730745,-0.29800045,0.9150908,-0.14754874,-1.0392126
1.266,1.6537253,1.5552326,-0.283902,0.92389977,-0.14865142,-1.0439677
1.268,1.703872,1.535202,-0.26902676,0.93203217,-0.14900774,-1.0484978
1.27,1.7558794,1.5137122,-0.25360012,0.9394853,-0.14832912,-1.0527799
1.272,1.8080258,1.4912391,-0.23789114,0.9462534,-0.14641832,-1.0568211
1.274,1.8584768,1.4684752,-0.22225934,0.95232743,-0.14315484,-1.0606321
1.276,1.9054763,1.445817,-0.20733106,0.95769876,-0.13852839,-1.0642225
1.278,1.9469166,1.4239658,-0.19362104,0.9623381,-0.1326426,-1.0675997
1.28,1.9811653,1.4034376,-0.18161076,0.96622527,-0.12567554,-1.0707647
1.282,2.0067334,1.3848063,-0.17176741,0.96935385,-0.117883906,-1.073726
1.284,2.022124,1.3685731,-0.16449404,0.97172964,-0.109565645,-1.0764983
1.286,2.0261629,1.3552451,-0.16017222,0.973412,-0.10099684,-1.0791032
1.288,2.0178504,1.3452969,-0.15920568,0.9745008,-0.09242813,-1.0815785
1.29,1.996805,1.3390173,-0.16182178,0.97513187,-0.08407959,-1.0839608
1.292,1.9627858,1.3366485,-0.1684922,0.9754783,-0.07610558,-1.0862688
1.294,1.9158063,1.3382431,-0.17951858,0.9757401,-0.068614185,-1.0885305
1.296,1.8564217,1.3438828,-0.19509324,0.97613794,-0.061657056,-1.0907788
1.298,1.7853328,1.3535845,-0.21531087,0.97690487,-0.055238947,-1.0930536
1.3,1.7037627,1.367226,-0.24024883,0.978259,-0.049318,-1.0953904
1.302,1.6129575,1.3845552,-0.26973787,0.98041016,-0.04383093,-1.0978441
1.304,1.5144868,1.4054052,-0.3036936,0.9835359,-0.03870219,-1.1004952
1.306,1.4099791,1.4295223,-0.3419233,0.9877918,-0.03384696,-1.1034589
1.308,1.3014491,1.456466,-0.38443196,0.99331206,-0.029182076,-1.1068769
1.31,1.190885,1.4857157,-0.4308904,1.0001874,-0.024654925,-1.1108848
1.312,1.0800858,1.5167633,-0.4811174,1.0084817,-0.020253256,-1.1156291
1.314,0.97129935,1.5489944,-0.53479874,1.0182095,-0.016045943,-1.1212243
1.316,0.8664861,1.5819042,-0.5914277,1.0293609,-0.012124032,-1.1277411
1.318,0.767715,1.6147561,-0.65050894,1.0419014,-0.008676887,-1.1352164
1.32,0.67697597,1.6467935,-0.7118665,1.0557773,-0.005946055,-1.1436622
1.322,0.5960609,1.6773734,-0.7751672,1.0709082,-0.004190609,-1.153047
1.324,0.5267598,1.7057705,-0.8403417,1.0872229,-0.0036561936,-1.1632931
1.326,0.47059232,1.7310894,-0.90697056,1.1046689,-0.004560083,-1.1743112
1.328,0.4288763,1.7526317,-0.9746715,1.1232096,-0.0070708394,-1.1860182
1.33,0.4025381,1.7698591,-1.0430286,1.1428238,-0.011291355,-1.1983354
1.332,0.39245588,1.7823552,-1.1116605,1.1635145,-0.017245024,-1.211181
1.334,0.39923334,1.7895563,-1.1804707,1.1852889,-0.024879858,-1.2244749
1.336,0.42320117,1.7912089,-1.2493426,1.2081397,-0.034069225,-1.2381328
1.338,0.464548,1.7870835,-1.318169,1.2320385,-0.044625,-1.2520487
1.34,0.5231551,1.7769288,-1.3870193,1.2569183,-0.05633077,-1.2661009
1.342,0.59878093,1.7607245,-1.4559712,1.2826961,-0.06893751,-1.2801317
1.344,0.6908637,1.7386262,-1.5253718,1.3092581,-0.0821802,-1.2939732
1.346,0.7987471,1.710866,-1.5958098,1.3364475,-0.09581889,-1.3074182
1.348,0.9217871,1.677784,-1.6678101,1.3640941,-0.109650984,-1.3202306
1.35,1.0588989,1.6400278,-1.7419841,1.3920282,-0.12351614,-1.3321445
1.352,1.2090302,1.5983524,-1.818983,1.4200861,-0.13730271,-1.342911
1.354,1.3707842,1.5536151,-1.8994896,1.4481286,-0.1509309,-1.3522681
1.356,1.5431176,1.5068141,-1.9843539,1.4760727,-0.16435774,-1.3599951
1.358,1.724717,1.4589224,-2.0746891,1.5038805,-0.17757665,-1.3659275
1.36,1.914705,1.4110155,-2.1715045,1.5315335,-0.19063316,-1.3699534
1.362,2.1116354,1.3641813,-2.2762172,1.5590751,-0.20360567,-1.3720249
1.364,2.3144627,1.3195629,-2.3898187,1.5865744,-0.21662472,-1.372164
1.366,2.5220327,1.2781917,-2.5134726,1.6141112,-0.22985873,-1.3704388
1.368,2.7334707,1.2410662,-2.6479957,1.6417873,-0.2435203,-1.3669585
1.37,2.947993,1.2092534,-2.7942736,1.6697181,-0.25787544,-1.3618517
1.372,3.1650083,1.1836071,-2.9531248,1.6980299,-0.27320367,-1.3552372
1.374,3.3838189,1.1648655,-3.125176,1.7268482,-0.28980067,-1.34721
1.376,3.604154,1.1536613,-3.3113189,1.756315,-0.3079673,-1.3378423
1.378,3.825761,1.1505431,-3.5121043,1.7865703,-0.32799125,-1.327166
1.38,4.0483146,1.1558057,-3.7279096,1.8177745,-0.3501383,-1.315166
1.382,4.2717943,1.1697538,-3.959059,1.8501022,-0.37461597,-1.3017975
1.384,4.4961114,1.192522,-4.2055883,1.883731,-0.40158248,-1.286988
1.386,4.7213073,1.2243153,-4.4673967,1.9188527,-0.4311379,-1.2706666
1.388,4.9474697,1.265037,-4.744425,1.9556154,-0.4633424,-1.2527546
1.39,5.1748657,1.3144753,-5.0363655,1.9941612,-0.49822474,-1.233162
1.392,5.4034443,1.3723717,-5.342506,2.0345697,-0.535818,-1.2118126
1.394,5.633316,1.4383411,-5.6621337,2.0768764,-0.5761614,-1.1886649
1.396,5.8647666,1.5119436,-5.9942274,2.1210604,-0.61934036,-1.1637007
1.398,6.098218,1.5925745,-6.336474,2.1670246,-0.6655061,-1.1369352
1.4,6.3318715,1.6807201,-6.686417,2.2146218,-0.71487486,-1.1084175
1.402,6.564164,1.7773325,-7.0457325,2.2636635,-0.76773334,-1.0782381
1.404,6.796331,1.8817391,-7.4149246,2.3139133,-0.8244468,-1.046516
1.406,7.028766,1.9919618,-7.7907243,2.3650992,-0.8854586,-1.0134076
1.408,7.261882,2.1061535,-8.16867,2.4169445,-0.95125544,-0.97910297
1.41,7.4947,2.2246404,-8.545471,2.4691658,-1.0223418,-0.9437861
1.412,7.7261834,2.348127,-8.917087,2.5215135,-1.0992024,-0.90763843
1.414,7.957227,2.475976,-9.276678,2.573804,-1.1822293,-0.8708277
1.416,8.179566,2.6113498,-9.624732,2.6258826,-1.2717242,-0.8335099
1.418,8.393098,2.7551188,-9.963737,2.6776612,-1.3678654,-0.7958042
1.42,8.599828,2.9048867,-10.294686,2.7291038,-1.4707197,-0.75782144
1.422,8.799811,3.0587993,-10.6129875,2.780199,-1.5802253,-0.7196401
1.424,8.991693,3.2167966,-10.909746,2.8309398,-1.6962541,-0.68133336
1.426,9.173448,3.3806667,-11.180178,2.8813384,-1.8185921,-0.6429474
1.428,9.341242,3.5521863,-11.4182,2.9313898,-1.9470049,-0.6045528
1.43,9.497888,3.7271144,-11.614239,2.9810758,-2.0811684,-0.5662633
1.432,9.644376,3.9051394,-11.773117,3.0304427,-2.2207818,-0.528224
1.434,9.7748995,4.090401,-11.900799,3.0796185,-2.3656354,-0.4905902
1.436,9.887341,4.283292,-11.997375,3.1286948,-2.5154579,-0.4535027
1.438,9.983342,4.481935,-12.059123,3.177737,-2.669789,-0.41706514
1.44,10.062568,4.6854568,-12.078539,3.2267911,-2.8281398,-0.38139313
1.442,10.124864,4.8938236,-12.051262,3.2759922,-2.9899778,-0.3466764
1.444,10.171358,5.107129,-11.975848,3.3255696,-3.1544554,-0.31317762
1.446,10.2026205,5.3246284,-11.851452,3.3758047,-3.3207061,-0.28122625
1.448,10.220678,5.5440845,-11.680543,3.4270618,-3.488113,-0.2510763
1.45,10.227821,5.763086,-11.466224,3.4798687,-3.655842,-0.22278337
1.452,10.225604,5.9797063,-11.210422,3.5345633,-3.8232305,-0.19631836
1.454,10.216105,6.1924624,-10.914736,3.5913458,-3.9896178,-0.17160663
1.456,10.202052,6.3999505,-10.581539,3.6504374,-4.154382,-0.14852087
1.458,10.18604,6.6006794,-10.214378,3.7121065,-4.3171644,-0.12699807
1.46,10.170904,6.793255,-9.817932,3.776814,-4.4770722,-0.10677001
1.462,10.158607,6.976321,-9.397593,3.8452728,-4.6331925,-0.0874051
1.464,10.150971,7.148688,-8.959094,3.9182706,-4.78572,-0.06878124
1.466,10.149858,7.3089495,-8.507315,3.9967625,-4.9346156,-0.050821453
1.468,10.156245,7.456307,-8.046309,4.081509,-5.07936,-0.03302613
1.47,10.170467,7.5903864,-7.5804615,4.173012,-5.2189827,-0.0146612525
1.472,10.192342,7.7111154,-7.113947,4.2717624,-5.351424,0.004949063
1.474,10.220907,7.819051,-6.6515813,4.3781457,-5.4740515,0.02623406
1.476,10.254539,7.9152546,-6.1973886,4.4923654,-5.5836096,0.049363136
1.478,10.290963,8.001292,-5.7550797,4.6143923,-5.6761413,0.07433528
1.48,10.327153,8.079112,-5.3273897,4.7438817,-5.7475114,0.10106373
1.482,10.359675,8.151246,-4.9164824,4.8802767,-5.793612,0.12941968
1.484,10.385015,8.220614,-4.5239553,5.0228696,-5.810492,0.15927649
1.486,10.3993435,8.290386,-4.1508102,5.1708164,-5.7944894,0.190543
1.488,10.398745,8.36382,-3.7979586,5.323224,-5.7422647,0.22323138
1.49,10.379402,8.444591,-3.4662218,5.47928,-5.651075,0.25751656
1.492,10.33773,8.536323,-3.1561108,5.63816,-5.5189214,0.29373044
1.494,10.270208,8.642496,-2.8678403,5.7990117,-5.3443923,0.3324113
1.496,10.174157,8.766523,-2.6014304,5.9608636,-5.1269755,0.37427008
1.498,10.047169,8.911673,-2.356991,6.1226006,-4.8675733,0.4199525
1.5,9.887231,9.081031,-2.1344426,6.283068,-4.568487,0.469907
1.502,9.693186,9.277097,-1.9340296,6.4409633,-4.233628,0.5241832
1.504,9.464634,9.502067,-1.7559106,6.5948195,-3.8691556,0.58238083
1.506,9.2013035,9.75768,-1.6003566,6.7433167,-3.4828954,0.64383286
1.508,8.903742,10.045136,-1.4684947,6.885089,-3.0842893,0.70759577
1.51,8.574519,10.364061,-1.360537,7.0186324,-2.6837585,0.77248657
1.512,8.215646,10.713805,-1.2727132,7.1425266,-2.2918506,0.8371574
1.514,7.8269053,11.09469,-1.2034638,7.2554393,-1.9191606,0.89996105
1.516,7.4097834,11.507217,-1.1543131,7.356279,-1.5749785,0.95919144
1.518,6.966398,11.950286,-1.1261895,7.4444175,-1.2661986,1.0134999
1.52,6.500503,12.420229,-1.1174872,7.519552,-0.99862206,1.0615654
1.522,6.015867,12.913175,-1.1262479,7.5819263,-0.77660096,1.1018991
1.524,5.514416,13.42643,-1.1515856,7.632109,-0.60268885,1.1333034
1.526,5.0059414,13.953887,-1.1850791,7.670676,-0.4780804,1.1551253
1.528,4.490546,14.4926,-1.2184563,7.698327,-0.40222946,1.167187
1.53,3.9678721,15.042025,-1.2467704,7.7159505,-0.37333652,1.1695507
1.532,3.4406307,15.599681,-1.2699294,7.724603,-0.3887925,1.1623735
1.534,2.912948,16.16118,-1.2897258,7.725512,-0.4451716,1.1458646
1.536,2.389542,16.72076,-1.3018222,7.7199025,-0.53856426,1.1203227
1.538,1.8760865,17.273737,-1.3026538,7.708931,-0.66486406,1.0861435
1.54,1.3719167,17.820747,-1.290637,7.6936646,-0.8198511,1.0437932
1.542,0.87996656,18.357634,-1.2519255,7.675029,-0.9993358,0.993763
1.544,0.40869397,18.877174,-1.1765594,7.6538568,-1.1992438,0.9365054
1.546,-0.038578033,19.377436,-1.0638094,7.630872,-1.4156711,0.87241995
1.548,-0.46190894,19.858166,-0.9165716,7.606649,-1.6450783,0.80182725
1.55,-0.8587729,20.317904,-0.7396507,7.5816274,-1.8842607,0.7249497
1.552,-1.2267234,20.754532,-0.5334892,7.5561457,-2.1303694,0.6420188
1.554,-1.5646218,21.166187,-0.29606342,7.5303874,-2.3808918,0.5532212
1.556,-1.8703493,21.552177,-0.026263237,7.5044575,-2.6336346,0.45873487
1.558,-2.1433277,21.91321,0.2782135,7.478352,-2.8866491,0.3586893
1.56,-2.3828626,22.24965,0.61765766,7.451991,-3.1382456,0.25320315
1.562,-2.5876951,22.561083,0.98972416,7.4252353,-3.3868885,0.14238024
1.564,-2.75751,22.846958,1.3913155,7.39793,-3.6312132,0.026349902
1.566,-2.892887,23.10699,1.8193579,7.369888,-3.8699832,-0.094729185
1.568,-2.9944983,23.341198,2.2713795,7.3409495,-4.10204,-0.22065711
1.57,-3.0634809,23.550064,2.7450113,7.310989,-4.3263245,-0.35117674
1.572,-3.100429,23.734165,3.237709,7.279917,-4.5418463,-0.48598576
1.574,-3.106566,23.894411,3.7467327,7.247667,-4.747678,-0.624722
1.576,-3.083788,24.032059,4.268385,7.2141943,-4.9429083,-0.76699185
1.578,-3.0334682,24.147898,4.798621,7.1794763,-5.126731,-0.91235995
1.58,-2.957347,24.24273,5.3343525,7.143483,-5.298404,-1.060386
1.582,-2.8571703,24.317154,5.8728905,7.106187,-5.457284,-1.2106087
1.584,-2.734866,24.371792,6.412307,7.0675507,-5.60285,-1.3625717
1.586,-2.5921507,24.407072,6.9506826,7.027482,-5.7346935,-1.5158436
1.588,-2.4308612,24.423355,7.486282,6.9858556,-5.852551,-1.6700346
1.59,-2.2528086,24.42091,8.01716,6.9425178,-5.956347,-1.8248076
1.592,-2.059644,24.399927,8.541597,6.897299,-6.046192,-1.9798684
1.594,-1.8531065,24.360542,9.058109,6.8500285,-6.1223936,-2.1349251
1.596,-1.6348047,24.30296,9.565548,6.800542,-6.1854568,-2.2897205
1.598,-1.4061198,24.22722,10.063108,6.748693,-6.2360506,-2.4439673
1.6,-1.168278,24.13336,10.550358,6.6943626,-6.274982,-2.5973308
1.602,-0.92259306,24.021276,11.026871,6.637465,-6.3031187,-2.7494633
1.604,-0.6701606,23.890902,11.491994,6.5779605,-6.3214183,-2.8999815
1.606,-0.41212362,23.74223,11.9452,6.5158176,-6.3308644,-3.0484996
1.608,-0.14918172,23.575191,12.386265,6.4510145,-6.332464,-3.1945977
1.61,0.117795974,23.389746,12.814612,6.383538,-6.3272133,-3.3379076
1.612,0.3882521,23.186096,13.2299385,6.313357,-6.3161173,-3.4780717
1.614,0.66146183,22.964245,13.631943,6.2404265,-6.300175,-3.6147947
1.616,0.93710953,22.72427,14.020564,6.164672,-6.28036,-3.7478132
1.618,1.2144662,22.466568,14.395789,6.086012,-6.257594,-3.876913
1.62,1.4934437,22.191374,14.757626,6.0043592,-6.2327557,-4.0019126
1.622,1.7739348,21.898996,15.1058855,5.919628,-6.2066183,-4.12264
1.624,2.055932,21.59002,15.440786,5.831785,-6.1798363,-4.2389455
1.626,2.339548,21.26488,15.762342,5.740816,-6.1529536,-4.35071
1.628,2.6249166,20.924189,16.070635,5.64675,-6.126357,-4.4578285
1.63,2.9121773,20.568624,16.36583,5.5496655,-6.1003222,-4.560234
1.632,3.2016053,20.198755,16.648144,5.449657,-6.07495,-4.6578937
1.634,3.4938197,19.81517,16.917852,5.346879,-6.050243,-4.7508054
1.636,3.7894814,19.418446,17.175232,5.241526,-6.0260763,-4.838991
1.638,4.089344,19.00901,17.42083,5.1338453,-6.002215,-4.9225063
1.64,4.394239,18.587341,17.65489,5.024143,-5.978362,-5.00139
1.642,4.7051682,18.153883,17.87738,4.912761,-5.9541473,-5.0756865
1.644,5.0230203,17.708902,18.088432,4.8000417,-5.929117,-5.1453967
1.646,5.3484864,17.252802,18.288313,4.6863446,-5.9027677,-5.2105174
1.648,5.6823235,16.785803,18.477173,4.5720096,-5.874543,-5.2710524
1.65,6.025161,16.308231,18.655212,4.457352,-5.8438325,-5.3269653
1.652,6.377459,15.8201885,18.822517,4.3426514,-5.810035,-5.378244
1.654,6.7395296,15.322013,18.97894,4.228134,-5.7726083,-5.4248657
1.656,7.1116166,14.813799,19.12443,4.1139593,-5.731096,-5.466807
1.658,7.4935584,14.295715,19.258823,4.0002384,-5.6851506,-5.50403
1.66,7.885089,13.767859,19.3819,3.887033,-5.6345115,-5.536502
1.662,8.2856655,13.2304125,19.493446,3.7743676,-5.5790386,-5.564216
1.664,8.694035,12.683914,19.593254,3.662235,-5.518674,-5.5871897
1.666,9.109014,12.128783,19.681221,3.5506344,-5.453389,-5.605423
1.668,9.5288925,11.565472,19.756992,3.4395545,-5.3831787,-5.6189456
1.67,9.952093,10.99465,19.82062,3.3290129,-5.308023,-5.627771
1.672,10.376541,10.4172535,19.871763,3.2190578,-5.227853,-5.6319046
1.674,10.800401,9.834047,19.910057,3.109783,-5.142569,-5.6313467
1.676,11.221484,9.246217,19.935402,3.0013378,-5.0520473,-5.6260724
1.678,11.6374655,8.654917,19.947598,2.8939157,-4.9561725,-5.6160407
1.68,12.046186,8.061264,19.946815,2.787755,-4.8548837,-5.6012044
1.682,12.444908,7.4667196,19.933117,2.6831045,-4.748181,-5.5815144
1.684,12.831533,6.872737,19.906414,2.5802298,-4.6361313,-5.556924
1.686,13.203508,6.2808566,19.866468,2.4793873,-4.5189266,-5.5274143
1.688,13.55882,5.692872,19.813284,2.3808231,-4.396812,-5.492976
1.69,13.895522,5.1104217,19.746828,2.2847602,-4.2701283,-5.4535875
1.692,14.21196,4.5353065,19.667252,2.1913965,-4.13929,-5.409234
1.694,14.506556,3.968949,19.574594,2.100925,-4.0047636,-5.3599296
1.696,14.77783,3.413142,19.468845,2.013513,-3.86706,-5.3056912
1.698,15.024875,2.869432,19.349693,1.9293168,-3.7267408,-5.246545
1.7,15.246757,2.339451,19.217287,1.8484608,-3.5843813,-5.1825414
1.702,15.4429,1.8245511,19.07134,1.7710525,-3.4405975,-5.1137686
1.704,15.612944,1.326019,18.911926,1.6971518,-3.2960033,-5.04037
1.706,15.756936,0.84502065,18.73906,1.6267859,-3.1511874,-4.962522
1.708,15.875043,0.38270956,18.552633,1.5599324,-3.0066993,-4.880481
1.71,15.967784,-0.06013751,18.352648,1.4965152,-2.8630989,-4.794569
1.712,16.035963,-0.48281813,18.139042,1.436392,-2.720869,-4.705139
1.714,16.080677,-0.8846648,17.912079,1.3793573,-2.5805123,-4.6125946
1.716,16.102934,-1.2654326,17.67189,1.3251876,-2.4424984,-4.517341
1.718,16.104218,-1.6250024,17.418652,1.2736093,-2.3072727,-4.4198112
1.72,16.085938,-1.9633741,17.152943,1.2243441,-2.1752186,-4.320472
1.722,16.04965,-2.280682,16.875257,1.1771117,-2.0466764,-4.219766
1.724,15.996977,-2.577238,16.586315,1.1316326,-1.9219201,-4.118147
1.726,15.929569,-2.8535314,16.286673,1.0876524,-1.8011578,-4.016037
1.728,15.849098,-3.1102946,15.977043,1.044939,-1.6845407,-3.9138455
1.73,15.75696,-3.348021,15.658081,1.003269,-1.5721778,-3.8119788
1.732,15.6546755,-3.5675588,15.330804,0.9624429,-1.4641343,-3.7108145
1.734,15.543418,-3.770035,14.9962015,0.9222802,-1.3604612,-3.610715
1.736,15.424221,-3.9562016,14.655686,0.8825965,-1.2612548,-3.512024
1.738,15.298059,-4.1271524,14.310446,0.8432133,-1.16665,-3.415044
1.74,15.1656685,-4.2838945,13.961756,0.8039323,-1.0768054,-3.3200479
1.742,15.027354,-4.4274716,13.610804,0.76456094,-0.9919529,-3.227308
1.744,14.883563,-4.5589314,13.258691,0.7249094,-0.91235065,-3.1370711
1.746,14.734345,-4.679349,12.906491,0.68478084,-0.83827454,-3.0495582
1.748,14.579625,-4.789529,12.555256,0.6440035,-0.7699937,-2.9649537
1.75,14.419384,-4.8905635,12.206087,0.6024368,-0.70773834,-2.88343
1.752,14.253266,-4.9831696,11.860171,0.55997705,-0.6516701,-2.8051422
1.754,14.080849,-5.0682054,11.518558,0.51656497,-0.60189027,-2.7302284
1.756,13.901772,-5.146536,11.182068,0.4721775,-0.55839396,-2.6587877
1.758,13.715458,-5.2188263,10.85154,0.42683816,-0.52110654,-2.590904
1.76,13.521404,-5.285716,10.527597,0.38062263,-0.4898731,-2.5266304
1.762,13.31913,-5.3476143,10.210962,0.33365607,-0.4644688,-2.4659681
1.764,13.108444,-5.405032,9.902405,0.28609383,-0.44461122,-2.4089036
1.766,12.888891,-5.4582253,9.602356,0.2381351,-0.43000403,-2.355404
1.768,12.660416,-5.5075884,9.311173,0.18999445,-0.42031536,-2.3054092
1.77,12.422964,-5.553275,9.029142,0.14187431,-0.41521308,-2.258836
1.772,12.176594,-5.5954537,8.756416,0.093995094,-0.41438946,-2.2155743
1.774,11.921971,-5.6344028,8.493484,0.04656136,-0.41754577,-2.1755176
1.776,11.659322,-5.6701107,8.240664,-0.00023889542,-0.42438784,-2.138547
1.778,11.389536,-5.702594,7.9985695,-0.046220303,-0.434607,-2.1045587
1.78,11.113157,-5.7317195,7.7674656,-0.09121466,-0.44787562,-2.073453
1.782,10.831228,-5.757477,7.54748,-0.13504374,-0.46379462,-2.0451362
1.784,10.544816,-5.779848,7.3386374,-0.17754471,-0.48192185,-2.0195286
1.786,10.254917,-5.7987123,7.141094,-0.21854198,-0.5017795,-1.9965754
1.788,9.962717,-5.813952,6.9548864,-0.25786012,-0.5228586,-1.9762397
1.79,9.669349,-5.8253555,6.7798586,-0.29531485,-0.5446013,-1.9584953
1.792,9.37608,-5.8329053,6.6158247,-0.33070755,-0.5664314,-1.9433298
1.794,9.083918,-5.8364544,6.46268,-0.363846,-0.58779037,-1.9307147
1.796,8.794218,-5.835911,6.3199725,-0.39454937,-0.6081126,-1.9205985
1.798,8.507986,-5.8312616,6.1871643,-0.42266107,-0.6268488,-1.9129082
1.8,8.226273,-5.8223553,6.063649,-0.44804054,-0.6435089,-1.9075379
1.802,7.949897,-5.809207,5.9487205,-0.47059733,-0.6576513,-1.9043446
1.804,7.679913,-5.7915907,5.841459,-0.49027562,-0.6689289,-1.9031556
1.806,7.4171124,-5.7695856,5.741089,-0.5070569,-0.67706704,-1.9037765
1.808,7.1622014,-5.743285,5.6467257,-0.5209723,-0.6818894,-1.9060043
1.81,6.9158897,-5.712755,5.5572557,-0.53208745,-0.68333864,-1.9096558
1.812,6.6787744,-5.678035,5.471957,-0.54052293,-0.68146914,-1.9145796
1.814,6.45119,-5.6391973,5.3897285,-0.546447,-0.6764606,-1.920635
1.816,6.2333136,-5.5963607,5.3096514,-0.5500835,-0.6686131,-1.9277163
1.818,6.025263,-5.549674,5.2308636,-0.5516947,-0.6583215,-1.9357268
1.82,5.827067,-5.4992514,5.1525583,-0.55158186,-0.64603984,-1.9445696
1.822,5.638649,-5.445277,5.0741177,-0.55006623,-0.6322806,-1.9541314
1.824,5.459779,-5.3881216,4.9950495,-0.54750067,-0.61755735,-1.964278
1.826,5.2899833,-5.3279295,4.915125,-0.5442602,-0.6023423,-1.9748231
1.828,5.128681,-5.264946,4.834281,-0.54071033,-0.587052,-1.9855254
1.83,4.9753866,-5.199522,4.752428,-0.53719836,-0.57201767,-1.9961302
1.832,4.829308,-5.1321545,4.669594,-0.53406525,-0.55745685,-2.006342
1.834,4.6897593,-5.06311,4.585994,-0.53163165,-0.5434674,-2.015873
1.836,4.555858,-4.992811,4.5021353,-0.5301682,-0.53007,-2.0244453
1.838,4.4268246,-4.9216566,4.4186687,-0.5298831,-0.51719826,-2.0318162
1.84,4.301759,-4.850093,4.3363867,-0.5309282,-0.50469303,-2.0377922
1.842,4.1798835,-4.778545,4.2562366,-0.53339124,-0.49235994,-2.0422373
1.844,4.0602183,-4.7073264,4.179197,-0.53726965,-0.4799657,-2.0450869
1.846,3.9420943,-4.637023,4.106173,-0.54250103,-0.46726996,-2.046321
1.848,3.8246667,-4.567957,4.038363,-0.54895777,-0.45407093,-2.04598
1.85,3.7071104,-4.5006094,3.9768896,-0.556457,-0.44018638,-2.0441155
1.852,3.5889218,-4.4352183,3.9228642,-0.56475705,-0.425466,-2.0407782
1.854,3.469333,-4.3719378,3.877481,-0.5736021,-0.40979457,-2.0360053
1.856,3.3480144,-4.3109465,3.84182,-0.58273023,-0.39309096,-2.0298371
1.858,3.224688,-4.2524676,3.816573,-0.591909,-0.3753042,-2.0222902
1.86,3.0989017,-4.1965427,3.8025308,-0.60092175,-0.35642573,-2.013348
1.862,2.9704053,-4.143159,3.800115,-0.6095975,-0.33645168,-2.0029879
1.864,2.8390248,-4.092198,3.8097448,-0.61780596,-0.315366,-1.991158
1.866,2.7045248,-4.0433993,3.8317108,-0.62543124,-0.29316208,-1.9777977
1.868,2.566728,-3.99653,3.8663592,-0.6324,-0.26981857,-1.9628555
1.87,2.4254808,-3.9511123,3.9137735,-0.63867444,-0.24529362,-1.9462839
1.872,2.2803867,-3.9068694,3.973825,-0.64423215,-0.2195451,-1.9280416
1.874,2.1311789,-3.8632357,4.0461373,-0.64909303,-0.1925092,-1.9080875
1.876,1.9773853,-3.8196607,4.1303887,-0.65329635,-0.16410741,-1.886392
1.878,1.818506,-3.7754402,4.2260447,-0.65688753,-0.13424093,-1.8629315
1.88,1.6539655,-3.729878,4.332548,-0.6599299,-0.102798104,-1.8377111
1.882,1.4829261,-3.682229,4.4494534,-0.6624941,-0.069637775,-1.8107194
1.884,1.3046358,-3.6316457,4.5759745,-0.6646378,-0.034567833,-1.7819414
1.886,1.1182797,-3.5772426,4.71138,-0.6664065,0.0026346445,-1.7513876
1.888,0.92282355,-3.5181031,4.854758,-0.6678062,0.042268395,-1.7190857
1.89,0.7173764,-3.4533331,5.005225,-0.6688436,0.08469385,-1.6850528
1.892,0.500865,-3.3818915,5.161974,-0.66949713,0.13032258,-1.6493279
1.894,0.27207172,-3.3026705,5.324121,-0.6697364,0.1795972,-1.6119776
1.896,0.030086517,-3.2148497,5.490642,-0.669518,0.23297781,-1.5730906
1.898,-0.2262317,-3.1173768,5.660511,-0.6688039,0.2909161,-1.5327852
1.9,-0.49780953,-3.009393,5.832717,-0.66756165,0.35386175,-1.4912307
1.902,-0.78551686,-2.889872,6.006102,-0.6657447,0.42224392,-1.4486127
1.904,-1.090051,-2.7580605,6.1795363,-0.6633457,0.49640343,-1.4051893
1.906,-1.4120551,-2.6130803,6.3518105,-0.6603683,0.57662904,-1.3612678
1.908,-1.7520702,-2.4542842,6.521636,-0.65679175,0.66314423,-1.3171725
1.91,-2.1103559,-2.2811627,6.6874943,-0.6525838,0.7561083,-1.273246
1.912,-2.4868324,-2.0932398,6.847907,-0.64768237,0.8556104,-1.2298473
1.914,-2.8816338,-1.8900714,7.0015936,-0.6420116,0.9616904,-1.1873457
1.916,-3.294522,-1.670588,7.1470747,-0.6354448,1.0743083,-1.1461177
1.918,-3.7236254,-1.4364796,7.283289,-0.62785596,1.193346,-1.1065325
1.92,-4.169813,-1.1873491,7.408555,-0.6191172,1.3185927,-1.0689738
1.922,-4.6315045,-0.9228771,7.522117,-0.6091129,1.4496999,-1.0338347
1.924,-5.107154,-0.6434044,7.6230583,-0.59777194,1.5861751,-1.0015231
1.926,-5.595412,-0.34927118,7.710749,-0.58510846,1.7273468,-0.97245896
1.928,-6.094622,-0.04090056,7.7846594,-0.57121915,1.8723615,-0.94708157
1.93,-6.603057,0.28106877,7.844566,-0.5563026,2.0201774,-0.92582905
1.932,-7.1192408,0.61624634,7.8905225,-0.54063463,2.1695817,-0.90912884
1.934,-7.6413956,0.9641521,7.9226894,-0.52458805,2.3192215,-0.89739734
1.936,-8.167217,1.3240173,7.9418693,-0.5085758,2.467635,-0.89103484
1.938,-8.695454,1.6950753,7.9477663,-0.49306104,2.6132982,-0.8904012
1.94,-9.224227,2.0775087,7.9424567,-0.4785012,2.7546575,-0.89583015
1.942,-9.75135,2.4705672,7.92678,-0.46534234,2.890181,-0.9076264
1.944,-10.275412,2.8737233,7.90218,-0.45400116,3.0184093,-0.9261211
1.946,-10.794111,3.2863321,7.870287,-0.44485444,3.1379843,-0.9517263
1.948,-11.305959,3.7078516,7.8320765,-0.4381995,3.2477062,-0.98483247
1.95,-11.809388,4.137633,7.7890697,-0.4342816,3.3464563,-1.0257648
1.952,-12.302662,4.5748267,7.742603,-0.4332822,3.4332097,-1.0749701
1.954,-12.784074,5.018633,7.6942635,-0.4353333,3.5070643,-1.1329262
1.956,-13.25213,5.468159,7.6452947,-0.4405185,3.5672247,-1.2001207
1.958,-13.705293,5.9223566,7.597028,-0.4488448,3.6130161,-1.2769959
1.96,-14.1418915,6.3798523,7.55066,-0.4602781,3.6438308,-1.3639461
1.962,-14.560598,6.839064,7.507232,-0.4747598,3.659136,-1.4613069
1.964,-14.960009,7.2982755,7.4674954,-0.4921969,3.6584861,-1.5693239
1.966,-15.339097,7.75575,7.4320555,-0.51245534,3.6416051,-1.6881305
1.968,-15.696659,8.209396,7.401594,-0.535458,3.6080418,-1.8176619
1.97,-16.031656,8.657085,7.3765845,-0.56114006,3.557506,-1.9577566
1.972,-16.343302,9.096517,7.3575287,-0.5894562,3.4898114,-2.1082027
1.974,-16.630539,9.525113,7.3447304,-0.6204443,3.4047575,-2.2686343
1.976,-16.89288,9.940457,7.3384023,-0.6541921,3.302239,-2.4385827
1.978,-17.129875,10.3401785,7.338379,-0.69087875,3.1822057,-2.6174994
1.98,-17.341198,10.721671,7.344925,-0.7307285,3.0446527,-2.8047674
1.982,-17.526579,11.082705,7.3581104,-0.77403265,2.8896675,-2.9997134
1.984,-17.68605,11.420794,7.37816,-0.821121,2.717466,-3.2016168
1.986,-17.81945,11.733855,7.4052215,-0.872343,2.5284224,-3.4097345
1.988,-17.926964,12.02006,7.439694,-0.9280209,2.3230803,-3.6233044
1.99,-18.008598,12.277504,7.4821243,-0.9884469,2.1021996,-3.8415704
1.992,-18.064526,12.504717,7.5326834,-1.0538361,1.8667737,-4.063794
1.994,-18.094963,12.7002945,7.591762,-1.1243325,1.6180452,-4.2892284
1.996,-18.099947,12.863035,7.65979,-1.1999726,1.3575039,-4.51715
1.998,-18.079203,12.991632,7.7374334,-1.2806695,1.0868564,-4.7468386
2,-18.033003,13.086596,7.825094,-1.3662257,0.80804515,-4.9775352
2.002,-17.960392,13.146301,7.922608,-1.4563489,0.52319014,-5.20858
2.004,-17.861748,13.170225,8.030945,-1.5506098,0.23465204,-5.439373
2.006,-17.736246,13.159025,8.149992,-1.6484889,-0.055066347,-5.669219
2.008,-17.58312,13.112933,8.279865,-1.7493596,-0.34335113,-5.89746
2.01,-17.40187,13.032384,8.420652,-1.8525357,-0.62751174,-6.123522
2.012,-17.191761,12.918287,8.572228,-1.9572905,-0.90482414,-6.3468924
2.014,-16.952206,12.771719,8.73459,-2.0628965,-1.1725526,-6.5671287
2.016,-16.68198,12.59397,8.907486,-2.1686215,-1.4279903,-6.783839
2.018,-16.380053,12.386551,9.090181,-2.2737603,-1.668549,-6.996675
2.02,-16.045986,12.151416,9.282152,-2.377645,-1.8918667,-7.205348
2.022,-15.679348,11.890876,9.482712,-2.479599,-2.0955796,-7.409646
2.024,-15.279027,11.607063,9.69038,-2.5790234,-2.2777498,-7.6093383
2.026,-14.844714,11.302073,9.903946,-2.675365,-2.4367628,-7.8041887
2.028,-14.376968,10.980507,10.121977,-2.7680657,-2.5711546,-7.9940023
2.03,-13.873524,10.644649,10.343538,-2.8566222,-2.6798372,-8.178681
2.032,-13.335072,10.297206,10.56723,-2.940536,-2.7621627,-8.358273
2.034,-12.761708,9.941654,10.7917185,-3.0193074,-2.8176994,-8.532733
2.036,-12.153245,9.581583,11.015652,-3.0924222,-2.8462715,-8.702091
2.038,-11.509593,9.220581,11.237645,-3.1593964,-2.8480964,-8.866541
2.04,-10.830797,8.862586,11.456261,-3.219755,-2.823677,-9.026327
2.042,-10.116912,8.511055,11.670169,-3.2730138,-2.7738671,-9.18178
2.044,-9.367872,8.169657,11.878599,-3.3187392,-2.699847,-9.333362
2.046,-8.584202,7.8422236,12.080515,-3.3565235,-2.603152,-9.481632
2.048,-7.7648945,7.531699,12.2762985,-3.3860104,-2.4856305,-9.627252
2.05,-6.9105387,7.241491,12.464081,-3.4069562,-2.349539,-9.770972
2.052,-6.0210977,6.975049,12.643824,-3.4191644,-2.1974123,-9.913586
2.054,-5.096098,6.735469,12.815179,-3.4225626,-2.0321093,-10.055954
2.056,-4.1357546,6.5259976,12.978025,-3.4172046,-1.8567472,-10.198925
2.058,-3.1391027,6.349307,13.133028,-3.4032366,-1.6746337,-10.343341
2.06,-2.1055846,6.208224,13.280443,-3.3809166,-1.489207,-10.49003
2.062,-1.0348907,6.105478,13.421051,-3.3506129,-1.3039727,-10.639747
2.064,0.073905945,6.0433383,13.555468,-3.3128157,-1.1224694,-10.793148
2.066,1.2211003,6.0245395,13.6849785,-3.2681189,-0.9482484,-10.950808
2.068,2.4079587,6.051317,13.810952,-3.2171872,-0.7848644,-11.113196
2.07,3.634529,6.126374,13.934877,-3.1607907,-0.6358552,-11.280678
2.072,4.901761,6.251782,14.057896,-3.0997746,-0.5046773,-11.453496
2.074,6.2099543,6.4294257,14.180095,-3.0350397,-0.39466333,-11.631751
2.076,7.562089,6.659293,14.303293,-2.9675505,-0.30902433,-11.815451
2.078,8.954003,6.9449773,14.430232,-2.8982952,-0.25070906,-12.004356
2.08,10.3859415,7.287737,14.567573,-2.8282802,-0.22234154,-12.198122
2.082,11.8638935,7.684806,14.714411,-2.7584925,-0.22618103,-12.396327
2.084,13.383047,8.141334,14.871423,-2.6898685,-0.2639885,-12.598349
2.086,14.944536,8.654297,15.044835,-2.6232913,-0.33691072,-12.803399
2.088,16.54917,9.223963,15.236378,-2.5595934,-0.44566154,-13.01079
2.09,18.196775,9.848526,15.445985,-2.4994984,-0.5904417,-13.219677
2.092,19.887255,10.524855,15.674108,-2.4435906,-0.7708373,-13.429058
2.094,21.617327,11.2524185,15.924494,-2.392337,-0.98595476,-13.637923
2.096,23.386393,12.027316,16.200949,-2.3460846,-1.2344832,-13.845231
2.098,25.193785,12.845876,16.504332,-2.3050287,-1.5147853,-14.049892
2.1,27.03737,13.704736,16.8357,-2.2692761,-1.8249688,-14.25083
2.102,28.915552,14.600125,17.196268,-2.238826,-2.1630077,-14.446951
2.104,30.826878,15.526407,17.587423,-2.213537,-2.5266056,-14.637044
2.106,32.76761,16.478777,18.010468,-2.1932511,-2.913608,-14.8199
2.108,34.733906,17.452469,18.466488,-2.1777983,-3.3221211,-14.9944315
2.11,36.723244,18.440197,18.955347,-2.1669428,-3.7502477,-15.159581
2.112,38.731133,19.437809,19.477081,-2.160308,-4.1953764,-15.3139105
2.114,40.75362,20.43995,20.030361,-2.1576746,-4.65585,-15.45623
2.116,42.78566,21.439499,20.61407,-2.1586208,-5.130036,-15.585156
2.118,44.82208,22.430357,21.226162,-2.162795,-5.6159925,-15.69923
2.12,46.856976,23.406813,21.864738,-2.1698685,-6.1120105,-15.796991
2.122,48.884678,24.36237,22.526922,-2.1794999,-6.616338,-15.876798
2.124,50.899067,25.290823,23.208637,-2.1913528,-7.1273828,-15.937134
2.126,52.89341,26.186237,23.905565,-2.204993,-7.6432405,-15.976465
2.128,54.86147,27.042856,24.613499,-2.2199607,-8.161958,-15.993231
2.13,56.796738,27.855251,25.327751,-2.2357273,-8.681534,-15.985884
2.132,58.69338,28.617388,26.042992,-2.2516928,-9.199849,-15.953109
2.134,60.545082,29.32465,26.754368,-2.2673113,-9.71472,-15.893694
2.136,62.346897,29.971878,27.456394,-2.2820604,-10.223896,-15.806639
2.138,64.09377,30.554499,28.143663,-2.2953608,-10.725086,-15.691149
2.14,65.78164,31.068241,28.810244,-2.3065372,-11.215966,-15.546623
2.142,67.407326,31.509613,29.45022,-2.3148208,-11.694365,-15.372667
2.144,68.968506,31.875385,30.05852,-2.3193321,-12.158206,-15.169161
2.146,70.462906,32.163906,30.630257,-2.3190362,-12.605537,-14.936165
2.148,71.89044,32.37317,31.161364,-2.3127909,-13.034456,-14.673906
2.15,73.250984,32.50229,31.64853,-2.2992463,-13.443186,-14.382789
2.152,74.544876,32.552277,32.08861,-2.2769606,-13.830084,-14.063308
2.154,75.77394,32.524574,32.478745,-2.2443511,-14.193632,-13.716057
2.156,76.94061,32.422104,32.81742,-2.1997805,-14.532434,-13.3416815
2.158,78.04738,32.25016,33.103313,-2.1415927,-14.8454075,-12.940927
2.16,79.098305,32.014023,33.336784,-2.0681767,-15.131523,-12.514605
2.162,80.09673,31.721798,33.519775,-1.9778761,-15.389832,-12.063399
2.164,81.04706,31.382923,33.655098,-1.8691453,-15.619857,-11.58815
2.166,81.95387,31.008204,33.74637,-1.7405274,-15.821833,-11.090085
2.168,82.82239,30.610096,33.798103,-1.5904119,-15.995222,-10.570171
2.17,83.65836,30.202744,33.815716,-1.4174161,-16.140062,-10.029737
2.172,84.46655,29.802113,33.806202,-1.2201085,-16.256939,-9.470238
2.174,85.25171,29.425661,33.777557,-0.997138,-16.346287,-8.8931465
2.176,86.01783,29.092157,33.73927,-0.7473612,-16.408869,-8.300161
2.178,86.76785,28.82184,33.701233,-0.46982288,-16.445553,-7.6928196
2.18,87.505615,28.635426,33.673912,-0.16394329,-16.457714,-7.072602
2.182,88.23433,28.554558,33.668907,0.17065668,-16.446817,-6.4409404
2.184,88.956055,28.602587,33.69821,0.53402185,-16.41459,-5.7989745
2.186,89.670044,28.804192,33.77105,0.9258785,-16.36309,-5.147469
2.188,90.383575,29.178034,33.89688,1.3457303,-16.294579,-4.4868836
2.19,91.09831,29.748035,34.081,1.7928109,-16.211567,-3.817339
2.192,91.8027,30.550915,34.32998,2.2660546,-16.116793,-3.1387055
2.194,92.500946,31.59832,34.651855,2.7641897,-16.013119,-2.4507194
2.196,93.20835,32.8975,35.077118,3.285813,-15.903389,-1.752938
2.198,93.92986,34.475166,35.619026,3.8295245,-15.790494,-1.0447354
2.2,94.66417,36.36914,36.269413,4.3939676,-15.677176,-0.3254857
2.202,95.42377,38.591774,37.009136,4.977888,-15.565852,0.4054718
2.204,96.21831,41.152565,37.810883,5.5802064,-15.458557,1.1489043
2.206,97.06107,44.063004,38.67994,6.2000146,-15.35681,1.9058316
2.208,97.95873,47.357983,39.63901,6.8366704,-15.261501,2.6776266
2.21,98.92341,51.028385,40.688446,7.4898143,-15.172689,3.4661598
2.212,99.96976,55.05678,41.825294,8.159252,-15.08955,4.2738233
2.214,101.0977,59.458916,43.025036,8.845022,-15.010264,5.1036634
2.216,102.3046,64.26778,44.229576,9.547254,-14.931669,5.9593024
2.218,103.637764,69.463974,45.436035,10.266066,-14.849554,6.844942
2.22,105.037415,75.03537,46.6778,11.001463,-14.758884,7.765313
2.222,106.435036,80.97201,47.981224,11.753274,-14.653742,8.724528
2.224,107.87011,87.204155,49.412235,12.519989,-14.527899,9.726231
2.226,109.4227,93.660736,51.01477,13.299448,-14.372994,10.775516
2.228,111.22781,100.34652,52.664177,14.090953,-14.177877,11.878492
2.23,113.31114,107.22251,54.195377,14.895227,-13.929351,13.040756
2.232,115.60685,114.28676,55.634933,15.712631,-13.612266,14.266497
2.234,118.108795,121.51448,56.985214,16.541,-13.21165,15.557817
2.236,120.82175,128.83109,58.31299,17.375034,-12.711448,16.91733
2.238,123.74817,136.15225,59.66826,18.210112,-12.09045,18.349031
2.24,126.89499,143.40291,61.10059,19.042152,-11.324966,19.857153
2.242,130.28268,150.55298,62.616722,19.866352,-10.390966,21.445978
2.244,133.92026,157.53015,64.18901,20.677639,-9.262669,23.114933
2.246,137.80609,164.22417,65.76955,21.469027,-7.916675,24.857685
2.248,141.9356,170.51358,67.355484,22.22387,-6.3362017,26.664434
2.25,146.31633,176.31744,68.936516,22.918941,-4.509068,28.518194
2.252,150.94055,181.56311,70.52983,23.53141,-2.4254098,30.395506
2.254,155.80261,186.2087,72.120346,24.03634,-0.08866811,32.27131
2.256,160.878,190.24545,73.65853,24.407692,2.4930415,34.110676
2.258,166.21399,193.57149,75.15122,24.617891,5.307746,35.872627
2.26,171.75235,196.1672,76.5639,24.643465,8.31337,37.51135
2.262,177.47226,197.99695,77.790085,24.472715,11.471704,38.987713
2.264,183.388,198.98825,78.732315,24.098125,14.731079,40.250237
2.266,189.4469,199.11641,79.289116,23.511183,18.026506,41.23938
2.268,195.6103,198.40698,79.36581,22.723438,21.296043,41.934654
2.27,201.85934,196.9634,78.91063,21.763905,24.473743,42.343132
2.272,208.1564,194.86041,77.93004,20.667679,27.489986,42.47777
2.274,214.44923,192.1585,76.318596,19.475243,30.271788,42.34479
2.276,220.65941,188.91873,73.97961,18.229052,32.740158,41.94415
2.278,226.70145,185.2122,70.84407,16.970524,34.815857,41.273304
2.28,232.47856,181.12823,66.863884,15.739224,36.43405,40.323387
2.282,237.89095,176.76009,62.020683,14.564399,37.55518,39.07718
2.284,242.82974,172.2028,56.326992,13.464699,38.173256,37.511932
2.286,247.17378,167.5339,49.792446,12.455931,38.320755,35.601936
2.288,250.84494,162.8172,42.42505,11.546284,38.06549,33.327145
2.29,253.75854,158.10725,34.273674,10.742527,37.50922,30.67588
2.292,255.82518,153.44165,25.44065,10.046246,36.77413,27.649075
2.294,256.97543,148.84415,16.062225,9.447306,35.973263,24.27404
2.296,257.16263,144.33536,6.3030243,8.924822,35.19605,20.607906
2.298,256.3637,139.93484,-3.6512833,8.438206,34.491722,16.73698
2.3,254.57,135.65662,-13.596962,7.93346,33.864864,12.769588
2.302,251.79941,131.49205,-23.324814,7.3600206,33.284313,8.814872
2.304,248.09,127.43458,-32.641533,6.6604977,32.673576,4.9810753
2.306,243.48901,123.486496,-41.377808,5.7696457,31.917946,1.3783464
2.308,238.08127,119.63502,-49.34434,4.62761,30.891956,-1.8875942
2.31,231.97672,115.87367,-56.3519,3.1886644,29.468212,-4.713192
2.312,225.2872,112.23176,-62.23702,1.4302197,27.53918,-7.0076194
2.314,218.14413,108.7345,-66.87641,-0.6442137,25.0517,-8.698135
2.316,210.67905,105.40261,-70.21762,-3.0066957,21.990257,-9.7427025
2.318,203.02982,102.239914,-72.250755,-5.601907,18.401726,-10.11865
2.32,195.32413,99.293755,-72.97537,-8.345688,14.384226,-9.836384
2.322,187.67831,96.60361,-72.424255,-11.146278,10.075462,-8.971273
2.324,180.20819,94.16737,-70.65011,-13.900261,5.6557584,-7.6294003
2.326,173.01245,91.9653,-67.72206,-16.490059,1.3319378,-5.9252596
2.328,166.12909,90.02972,-63.80001,-18.798529,-2.682117,-3.9795585
2.33,159.67845,88.38057,-59.083443,-20.720213,-6.1841846,-1.9246392
2.332,153.73947,87.03106,-53.760468,-22.171303,-9.007475,0.09844303
2.334,148.26526,86.032936,-48.043797,-23.100906,-11.044258,1.9589765
2.336,143.18611,85.40627,-42.104465,-23.491955,-12.25238,3.5546849
2.338,138.41267,85.086655,-35.97114,-23.363781,-12.653175,4.8201313
2.34,133.97632,85.05411,-29.696665,-22.773901,-12.324194,5.72925
2.342,129.9582,85.25282,-23.529049,-21.803825,-11.383932,6.2892303
2.344,126.34046,85.65415,-17.647213,-20.555393,-9.981737,6.537241
2.346,123.08344,86.2667,-12.2438,-19.136248,-8.277512,6.5349326
2.348,120.14451,87.08737,-7.4388466,-17.642601,-6.4125056,6.3532777
2.35,117.47539,88.09045,-3.309185,-16.154911,-4.507173,6.0652714
2.352,115.01955,89.21105,0.13671589,-14.729726,-2.6566515,5.742081
2.354,112.737656,90.433136,2.927806,-13.406625,-0.929338,5.448291
2.356,110.60193,91.76812,5.105091,-12.215612,0.6276274,5.2451854
2.358,108.58819,93.21852,6.665024,-11.168489,1.998209,5.1786222
2.36,106.66135,94.74199,7.623004,-10.262548,3.1910555,5.266449
2.362,104.80369,96.29763,7.9795732,-9.4871,4.2277308,5.501363
2.364,102.99399,97.831856,7.776144,-8.829333,5.135249,5.856806
2.366,101.230644,99.283714,7.079977,-8.278086,5.940323,6.292282
2.368,99.44382,100.69777,5.901331,-7.825381,6.6653404,6.759292
2.37,97.671936,102.035675,4.296015,-7.463849,7.322762,7.208614
2.372,95.89947,103.2897,2.3701363,-7.1829777,7.922021,7.5967135
2.374,94.07932,104.487,0.19047165,-6.975451,8.4729395,7.888041
2.376,92.22957,105.60451,-2.1908417,-6.837431,8.977163,8.058717
2.378,90.33942,106.58835,-4.7374535,-6.766236,9.429246,8.099922
2.38,88.377464,107.350174,-7.448452,-6.7601814,9.819396,8.017904
2.382,86.332146,107.86998,-10.347481,-6.8177996,10.135486,7.8311553
2.384,84.20224,108.15799,-13.330566,-6.9373245,10.364725,7.5662193
2.386,82.00253,108.228546,-16.313953,-7.1165366,10.495236,7.251452
2.388,79.74103,108.08896,-19.241451,-7.351938,10.518169,6.9103394
2.39,77.42764,107.732956,-22.067074,-7.6386495,10.428722,6.558098
2.392,75.06894,107.15811,-24.756565,-7.9710946,10.226152,6.2028975
2.394,72.67603,106.36549,-27.280159,-8.343212,9.913374,5.849184
2.396,70.267395,105.37393,-29.583725,-8.748497,9.496378,5.5005255
2.398,67.82454,104.20871,-31.60242,-9.179443,8.984185,5.160293
2.4,65.3521,102.89438,-33.304432,-9.627079,8.388938,4.831399
2.402,62.87007,101.460434,-34.690586,-10.08144,7.725477,4.517684
2.404,60.39159,99.93533,-35.76906,-10.532041,7.010876,4.22521
2.406,57.92501,98.33996,-36.54998,-10.968412,6.2634525,3.9615026
2.408,55.475685,96.690796,-37.045376,-11.380446,5.501781,3.7335005
2.41,53.058136,95.00335,-37.268528,-11.758789,4.7441206,3.5456364
2.412,50.688248,93.303925,-37.2271,-12.095337,4.00809,3.3995998
2.414,48.374718,91.6254,-36.924183,-12.383626,3.3100498,3.2953367
2.416,46.124897,89.989975,-36.37307,-12.619054,2.6644025,3.2313695
2.418,43.943375,88.407364,-35.59562,-12.79874,2.0831752,3.2047176
2.42,41.835243,86.88122,-34.619244,-12.92144,1.5757571,3.2108855
2.422,39.800568,85.41563,-33.474453,-12.987479,1.1487098,3.2442064
2.424,37.84078,84.01874,-32.188522,-12.998487,0.8059309,3.298489
2.426,35.958546,82.70418,-30.788292,-12.9570675,0.549003,3.3675518
2.428,34.157936,81.48259,-29.30098,-12.866514,0.37762448,3.4455962
2.43,32.444054,80.36209,-27.755577,-12.730524,0.29001063,3.527473
2.432,30.821184,79.35206,-26.182678,-12.552964,0.2833724,3.6088214
2.434,29.293,78.46214,-24.611822,-12.337597,0.3542425,3.6860757
2.436,27.861717,77.70161,-23.069738,-12.088008,0.49868765,3.756384
2.438,26.527576,77.0693,-21.580477,-11.807565,0.7124431,3.8175874
2.44,25.287603,76.552124,-20.166933,-11.4994955,0.9908146,3.868187
2.442,24.13754,76.13162,-18.850117,-11.167034,1.3286083,3.9072025
2.444,23.072786,75.79094,-17.648901,-10.813509,1.7199614,3.9341967
2.446,22.090004,75.51613,-16.579191,-10.442573,2.158214,3.9491618
2.448,21.18627,75.2958,-15.654379,-10.058348,2.6359296,3.9522834
2.45,20.358976,75.120026,-14.884884,-9.6653385,3.144975,3.9437568
2.452,19.605837,74.97885,-14.278531,-9.26849,3.6767259,3.9239292
2.454,18.92409,74.862015,-13.8400135,-8.873012,4.2220182,3.8932602
2.456,18.310768,74.75763,-13.571602,-8.484394,4.771509,3.85181
2.458,17.760998,74.65292,-13.472815,-8.108173,5.316026,3.7992482
2.46,17.269716,74.53412,-13.540084,-7.7497244,5.846816,3.7349777
2.462,16.830225,74.387535,-13.767344,-7.4139833,6.355751,3.6583903
2.464,16.436708,74.19916,-14.146837,-7.1052613,6.8355527,3.569049
2.466,16.082806,73.95595,-14.669739,-6.8270493,7.2798767,3.4667883
2.468,15.76045,73.64734,-15.325621,-6.58185,7.6835575,3.3518834
2.47,15.463068,73.26377,-16.103386,-6.371123,8.042724,3.2251532
2.472,15.18454,72.79751,-16.990105,-6.195323,8.354791,3.0880036
2.474,14.918537,72.24304,-17.971184,-6.0538692,8.618457,2.942414
2.476,14.655273,71.59889,-19.031227,-5.9452076,8.833696,2.790825
2.478,14.390997,70.86184,-20.154802,-5.866886,9.001568,2.635966
2.48,14.119387,70.03248,-21.326519,-5.815759,9.124055,2.4806976
2.482,13.834833,69.11373,-22.531254,-5.7881413,9.203833,2.3278008
2.484,13.532948,68.10915,-23.75437,-5.7799683,9.244047,2.1796877
2.486,13.209719,67.023544,-24.981997,-5.7869062,9.248112,2.0382528
2.488,12.862186,65.861786,-26.201332,-5.8045397,9.219503,1.9048495
2.49,12.488152,64.629585,-27.400139,-5.8285913,9.161467,1.7801113
2.492,12.086508,63.333366,-28.56674,-5.855088,9.076878,1.6639552
2.494,11.656393,61.980522,-29.690704,-5.8805084,8.968035,1.5556335
2.496,11.197748,60.578583,-30.762379,-5.901924,8.83657,1.4539156
2.498,10.711941,59.135082,-31.772913,-5.9170074,8.683468,1.3573003
2.5,10.200861,57.657597,-32.71417,-5.9240522,8.509131,1.2642341
2.502,9.666428,56.153526,-33.578903,-5.9218764,8.313506,1.1733556
2.504,9.111172,54.629974,-34.36184,-5.909734,8.096312,1.0835948
2.506,8.538303,53.093464,-35.059227,-5.8871655,7.8572235,0.99436235
2.508,7.9512596,51.550034,-35.668545,-5.853916,7.596384,0.90548944
2.51,7.353302,50.00541,-36.1887,-5.8095994,7.3144646,0.81738997
2.512,6.74786,48.46503,-36.619865,-5.753709,7.012735,0.7308943
2.514,6.1383324,46.934048,-36.963562,-5.6855536,6.6932955,0.6470175
2.516,5.5284014,45.41716,-37.222515,-5.604205,6.3590674,0.56687737
2.518,4.92212,43.91868,-37.400684,-5.508528,6.013734,0.4916258
2.52,4.3229313,42.442738,-37.503227,-5.3971663,5.661634,0.42234087
2.522,3.7343616,40.99314,-37.536377,-5.268584,5.3076153,0.35996723
2.524,3.159894,39.573338,-37.50704,-5.1211486,4.95689,0.30509496
2.526,2.6026516,38.186203,-37.422573,-4.953327,4.6145124,0.2583952
2.528,2.066224,36.834164,-37.29057,-4.7638144,4.285578,0.21985745
2.53,1.5519981,35.519577,-37.118805,-4.551787,3.9746876,0.189183
2.532,1.0652733,34.242287,-36.91395,-4.317069,3.6857662,0.16570449
2.534,0.6077404,33.00339,-36.68428,-4.060242,3.421774,0.14836502
2.536,0.18115139,31.802544,-36.435932,-3.7827597,3.1845527,0.13573647
2.538,-0.21207142,30.638649,-36.174572,-3.4869425,2.9747198,0.12610912
2.54,-0.57023335,29.511108,-35.90523,-3.1759682,2.79155,0.11759615
2.542,-0.89137936,28.417904,-35.631653,-2.8537297,2.6329856,0.108195186
2.544,-1.1743021,27.356916,-35.356598,-2.524577,2.4958365,0.09604776
2.546,-1.418375,26.32575,-35.08213,-2.1931055,2.3759222,0.07957089
2.548,-1.6236124,25.322432,-34.809147,-1.8638833,2.2684052,0.057491302
2.55,-1.7904949,24.345123,-34.536953,-1.5411787,2.168087,0.028959394
2.552,-1.9198213,23.392288,-34.264084,-1.2287755,2.0696807,-0.0064677
2.554,-2.0125303,22.46281,-33.988335,-0.92983794,1.9680958,-0.04885292
2.556,-2.070191,21.556007,-33.707054,-0.6468229,1.8586911,-0.09795481
2.558,-2.0942569,20.671013,-33.4171,-0.38141647,1.7375274,-0.15328878
2.56,-2.0866728,19.807682,-33.115105,-0.13456793,1.6014411,-0.21424812
2.562,-2.0498304,18.966372,-32.797558,0.09343198,1.4481323,-0.28012133
2.564,-1.9859157,18.147274,-32.46152,0.30287957,1.276246,-0.35016412
2.566,-1.8981338,17.351635,-32.104107,0.4945883,1.0853742,-0.4236356
2.568,-1.7887936,16.580606,-31.722591,0.66978973,0.87597406,-0.49979812
2.57,-1.6603231,15.835056,-31.314991,0.83002317,0.6493038,-0.57796395
2.572,-1.5149097,15.1160145,-30.879787,0.97707087,0.40734452,-0.65750134
2.574,-1.3553095,14.425047,-30.415905,1.1128315,0.15261626,-0.7378354
2.576,-1.1833076,13.763232,-29.922743,1.2392608,-0.11196409,-0.81849235
2.578,-1.0008717,13.1319275,-29.40046,1.3582903,-0.38324925,-0.89897674
2.58,-0.8098202,12.532278,-28.849697,1.4718109,-0.65779245,-0.979223
2.582,-0.6117854,11.965383,-28.27165,1.5815103,-0.93240356,-1.0588648
2.584,-0.4080634,11.432219,-27.668169,1.6888895,-1.2039509,-1.137783
2.586,-0.200284,10.933908,-27.041908,1.795237,-1.4695969,-1.2159271
2.588,0.010265827,10.471052,-26.3951,1.9016033,-1.7268887,-1.2933078
2.59,0.22268534,10.044183,-25.7303,2.0087755,-1.9738772,-1.369982
2.592,0.43605185,9.653418,-25.050125,2.1172972,-2.2091255,-1.4460473
2.594,0.64968204,9.298943,-24.3569,2.227494,-2.431715,-1.5216815
2.596,0.86264944,8.980561,-23.653084,2.3395083,-2.641244,-1.5971084
2.598,1.074491,8.698099,-22.941002,2.453372,-2.8377767,-1.6726043
2.6,1.2847662,8.450927,-22.223053,2.5690475,-3.0217571,-1.7485201
2.602,1.493072,8.2382145,-21.501516,2.6864371,-3.193913,-1.8252373
2.604,1.6991935,8.059141,-20.778214,2.8054307,-3.3551412,-1.903174
2.606,1.9030514,7.9123244,-20.054909,2.9259608,-3.5063448,-1.9827211
2.608,2.1045337,7.796411,-19.333065,3.0480561,-3.6483176,-2.0642014
2.61,2.3038235,7.709651,-18.613777,3.1718209,-3.7816615,-2.1478317
2.612,2.5008273,7.6503096,-17.898071,3.297467,-3.9067116,-2.2337198
2.614,2.6954618,7.616623,-17.186752,3.4253154,-4.0234523,-2.3218384
2.616,2.88793,7.606449,-16.480787,3.55579,-4.1315575,-2.4120524
2.618,3.078485,7.6179314,-15.780979,3.6893783,-4.230405,-2.504118
2.62,3.2672696,7.649413,-15.088161,3.826621,-4.3191686,-2.5976982
2.622,3.4544692,7.699156,-14.403074,3.9680352,-4.3968973,-2.692389
2.624,3.6405692,7.7654676,-13.726389,4.1141014,-4.462634,-2.7877321
2.626,3.825768,7.8468904,-13.058948,4.2652435,-4.515531,-2.8832278
2.628,4.01036,7.9422336,-12.401501,4.421785,-4.5549345,-2.9783773
2.63,4.1947174,8.050245,-11.754867,4.583927,-4.5804734,-3.0726614
2.632,4.379144,8.17008,-11.119822,4.7517357,-4.5921297,-3.1655557
2.634,4.5638914,8.300817,-10.497278,4.9251223,-4.5902567,-3.256527
2.636,4.7492843,8.44191,-9.888097,5.103868,-4.575584,-3.3450842
2.638,4.935508,8.593012,-9.293207,5.2876234,-4.549181,-3.430764
2.64,5.123004,8.75395,-8.713366,5.4758806,-4.5124145,-3.5131536
2.642,5.311817,8.924914,-8.149274,5.6680436,-4.466902,-3.591871
2.644,5.5024614,9.106047,-7.6013927,5.8634176,-4.414403,-3.6666002
2.646,5.6951227,9.297686,-7.070214,6.06122,-4.3567734,-3.737073
2.648,5.890127,9.500338,-6.5560503,6.2605953,-4.2958775,-3.8030393
2.65,6.0880737,9.714512,-6.059106,6.4606996,-4.2334986,-3.8642924
2.652,6.289229,9.9408245,-5.579583,6.660665,-4.171248,-3.9206367
2.654,6.4939785,10.179981,-5.1174536,6.8597107,-4.110563,-3.9718623
2.656,6.7027283,10.432739,-4.672694,7.0571423,-4.052652,-4.017773
2.658,6.9161453,10.699857,-4.2452264,7.252347,-3.9985142,-4.058162
2.66,7.134921,10.981933,-3.834982,7.4447937,-3.9489841,-4.0928245
2.662,7.3599105,11.279651,-3.4418263,7.6340003,-3.9047415,-4.121579
2.664,7.59168,11.593554,-3.0654714,7.8195314,-3.866393,-4.1442833
2.666,7.831154,11.924187,-2.7057745,8.000947,-3.8345375,-4.160831
2.668,8.079208,12.272203,-2.3625362,8.177792,-3.8098485,-4.1712074
2.67,8.336921,12.63795,-2.0355494,8.349586,-3.7931159,-4.17552
2.672,8.605165,13.021556,-1.7245646,8.515813,-3.7852743,-4.17403
2.674,8.8853655,13.422958,-1.4294343,8.67589,-3.7874243,-4.1671524
2.676,9.17853,13.842245,-1.1499658,8.829256,-3.8007693,-4.1554585
2.678,9.486025,14.279007,-0.88616896,8.975291,-3.82659,-4.1396494
2.68,9.809058,14.732857,-0.6377399,9.113342,-3.8662512,-4.120541
2.682,10.149111,15.2033,-0.40425277,9.242763,-3.9210942,-4.099024
2.684,10.507495,15.689514,-0.18500447,9.362873,-3.992385,-4.0760593
2.686,10.885412,16.190718,0.020689487,9.473013,-4.0812545,-4.0526624
2.688,11.284122,16.705732,0.21373034,9.572528,-4.1886673,-4.029867
2.69,11.704754,17.233381,0.3951707,9.660743,-4.315395,-4.0087223
2.692,12.148466,17.771948,0.5659323,9.737002,-4.4620204,-3.9903111
2.694,12.615995,18.319965,0.72712517,9.800707,-4.6289105,-3.975755
2.696,13.108454,18.87547,0.8801794,9.8513,-4.81619,-3.9662056
2.698,13.626279,19.43641,1.026403,9.888332,-5.023742,-3.962864
2.7,14.169911,20.00032,1.1671686,9.911488,-5.251231,-3.9669824
2.702,14.740007,20.564734,1.3043594,9.920507,-5.4980936,-3.9798312
2.704,15.336425,21.126833,1.4397316,9.915226,-5.7635403,-4.002637
2.706,15.958944,21.683691,1.5747747,9.895561,-6.0465784,-4.0365124
2.708,16.607298,22.232143,1.711381,9.861496,-6.3460054,-4.08245
2.71,17.280708,22.769125,1.8513412,9.813076,-6.6604724,-4.141217
2.712,17.97792,23.29116,1.9962292,9.750402,-6.9884653,-4.2133665
2.714,18.69778,23.794523,2.147318,9.673634,-7.3284116,-4.299192
2.716,19.438223,24.275787,2.3058062,9.58295,-7.6786523,-4.398736
2.718,20.19866,24.73072,2.4724627,9.478576,-8.03747,-4.5117993
2.72,20.975828,25.156137,2.6492147,9.360769,-8.403082,-4.637967
2.722,21.76726,25.548435,2.8367891,9.229776,-8.773719,-4.7766294
2.724,22.5703,25.903797,3.0357676,9.085819,-9.147654,-4.9270024
2.726,23.381645,26.218943,3.2469435,8.929101,-9.523247,-5.088202
2.728,24.197712,26.49037,3.4706821,8.759771,-9.898995,-5.259243
2.73,25.014954,26.714756,3.7070694,8.577881,-10.273667,-5.4390526
2.732,25.829432,26.88911,3.9558392,8.383388,-10.646162,-5.6265283
2.734,26.63688,27.010626,4.2166414,8.176224,-11.015521,-5.8206024
2.736,27.432598,27.076706,4.489004,7.9562144,-11.381056,-6.020236
2.738,28.21181,27.085049,4.7721195,7.7231183,-11.742257,-6.224451
2.74,28.969906,27.033762,5.065156,7.4766283,-12.098677,-6.4323525
2.742,29.701874,26.921238,5.367152,7.2164536,-12.449869,-6.6431932
2.744,30.402678,26.746597,5.6769695,6.9423056,-12.795269,-6.856305
2.746,31.067177,26.509148,5.9935074,6.653919,-13.134153,-7.071093
2.748,31.690477,26.208738,6.3155303,6.3509874,-13.465805,-7.286985
2.75,32.267685,25.845772,6.641619,6.033274,-13.789162,-7.5034018
2.752,32.79429,25.421097,6.9702153,5.700695,-14.102661,-7.719756
2.754,33.265488,24.936241,7.2993093,5.3533025,-14.404423,-7.935358
2.756,33.676754,24.393274,7.626938,4.9913993,-14.692222,-8.149444
2.758,34.024105,23.794777,7.9509864,4.615629,-14.963479,-8.361108
2.76,34.303707,23.14378,8.269385,4.227029,-15.215295,-8.569313
2.762,34.512276,22.443905,8.579899,3.8270464,-15.444507,-8.772837
2.764,34.647263,21.699358,8.880123,3.4175844,-15.647734,-8.970356
2.766,34.706635,20.91463,9.167446,3.0009203,-15.821431,-9.160416
2.768,34.68859,20.0949,9.439389,2.5796976,-15.962046,-9.341503
2.77,34.592136,19.24567,9.693336,2.15689,-16.066216,-9.512015
2.772,34.41688,18.372608,9.926475,1.7356405,-16.130913,-9.670337
2.774,34.16344,17.481874,10.135978,1.3191872,-16.153584,-9.814859
2.776,33.832897,16.579674,10.319176,0.9107437,-16.132328,-9.944012
2.778,33.427032,15.6722145,10.473484,0.5134139,-16.066034,-10.05628
2.78,32.948418,14.765801,10.596353,0.13004398,-15.954559,-10.1501665
2.782,32.400352,13.866623,10.68566,-0.23679638,-15.7987585,-10.2242365
2.784,31.78656,12.98074,10.739531,-0.5848632,-15.600516,-10.277124
2.786,31.11158,12.113865,10.756374,-0.9123764,-15.362761,-10.307539
2.788,30.380508,11.27163,10.735323,-1.2180214,-15.089302,-10.314285
2.79,29.598907,10.459167,10.675645,-1.5009284,-14.784534,-10.296365
2.792,28.772564,9.681114,10.577171,-1.7606993,-14.453276,-10.253045
2.794,27.907955,8.941729,10.440084,-1.9974124,-14.100552,-10.183917
2.796,27.011436,8.244452,10.264994,-2.2116022,-13.731314,-10.089006
2.798,26.089935,7.5924177,10.053147,-2.404183,-13.350176,-9.968748
2.8,25.15034,6.9877143,9.80596,-2.5763655,-12.961206,-9.824064
2.802,24.199154,6.432352,9.525505,-2.729476,-12.5676155,-9.656276
2.804,23.243298,5.927065,9.214259,-2.8650193,-12.172044,-9.467053
2.806,22.289165,5.472287,8.874729,-2.9844708,-11.776485,-9.2583275
2.808,21.342995,5.0676665,8.509697,-3.0891225,-11.381955,-9.032199
2.81,20.410696,4.7124987,8.12211,-3.1800494,-10.988712,-8.7908745
2.812,19.497488,4.4052944,7.714684,-3.2580752,-10.5963955,-8.536561
2.814,18.60852,4.1441307,7.2903395,-3.3237362,-10.204167,-8.271355
2.816,17.748558,3.9264383,6.852104,-3.3772469,-9.81085,-7.9971933
2.818,16.921583,3.7494383,6.4026613,-3.4185944,-9.415192,-7.7158375
2.82,16.131199,3.6097968,5.944657,-3.4475894,-9.016022,-7.428855
2.822,15.380708,3.5041218,5.4804997,-3.4640126,-8.612323,-7.1376433
2.824,14.672375,3.428878,5.012786,-3.4676943,-8.20344,-6.843442
2.826,14.0084305,3.3801897,4.543635,-3.458578,-7.78911,-6.54733
2.828,13.389032,3.3547442,4.075241,-3.4368036,-7.3695946,-6.2502646
2.83,12.816187,3.3484223,3.6084328,-3.4027348,-6.945615,-5.9530807
2.832,12.290372,3.3575044,3.145,-3.3569603,-6.5183606,-5.656567
2.834,11.811392,3.3786943,2.6867049,-3.3003097,-6.0894036,-5.3614664
2.836,11.379041,3.4088192,2.234826,-3.2338285,-5.6605654,-5.0684876
2.838,10.992367,3.445141,1.7907592,-3.1586864,-5.233857,-4.7783537
2.84,10.650222,3.4851484,1.3559138,-3.0761578,-4.8113914,-4.4917707
2.842,10.351108,3.526672,0.93146753,-2.9875612,-4.3952475,-4.2094593
2.844,10.093378,3.5678313,0.5185287,-2.8942049,-3.9874287,-3.9321423
2.846,9.875339,3.6072369,0.118008494,-2.797364,-3.5897539,-3.660509
2.848,9.694965,3.643683,-0.26901257,-2.6981685,-3.2037728,-3.395175
2.85,9.549976,3.6762133,-0.64173806,-2.5976367,-2.83074,-3.1366663
2.852,9.43808,3.704092,-0.99946094,-2.4966166,-2.471546,-2.8854322
2.854,9.357038,3.7266996,-1.3415204,-2.395779,-2.1267464,-2.641833
2.856,9.304541,3.7438931,-1.6672913,-2.2956414,-1.7965277,-2.406126
2.858,9.278003,3.7555866,-1.9764079,-2.196544,-1.4807711,-2.178496
2.86,9.274944,3.762016,-2.2686167,-2.098705,-1.1790764,-1.9590538
2.862,9.292899,3.7633643,-2.5437746,-2.002217,-0.8908635,-1.7478664
2.864,9.329678,3.7599974,-2.8016324,-1.9071006,-0.6154343,-1.5449882
2.866,9.3833475,3.7523491,-3.042294,-1.81329,-0.3520214,-1.3504639
2.868,9.451705,3.7407494,-3.2662601,-1.7207144,-0.09982937,-1.1643735
2.87,9.532759,3.7259274,-3.4740396,-1.6292961,0.14188834,-0.986769
2.872,9.624621,3.7082605,-3.666421,-1.5389802,0.37383547,-0.81770414
2.874,9.725203,3.688219,-3.844218,-1.449728,0.59664047,-0.6572142
2.876,9.832843,3.6662247,-4.0082893,-1.361513,0.8108128,-0.50533265
2.878,9.946019,3.6425612,-4.159724,-1.274339,1.0167918,-0.3620919
2.88,10.063209,3.617486,-4.2994366,-1.1882195,1.2149416,-0.22750548
2.882,10.183105,3.5913887,-4.428287,-1.1031547,1.405534,-0.10156253
2.884,10.304461,3.5642812,-4.5471764,-1.0191331,1.5887734,0.015758336
2.886,10.426143,3.536315,-4.657004,-0.93614525,1.7647974,0.12450135
2.888,10.5471735,3.5075223,-4.7584934,-0.85413885,1.933676,0.22470632
2.89,10.66661,3.4778974,-4.8523455,-0.7730655,2.095373,0.3164468
2.892,10.783615,3.4475484,-4.9392977,-0.69286734,2.2497928,0.39984658
2.894,10.89747,3.4163814,-5.019882,-0.613488,2.3968213,0.4750897
2.896,11.007442,3.3843677,-5.094542,-0.53487366,2.536285,0.54244846
2.898,11.113121,3.351126,-5.1638746,-0.45699656,2.6680107,0.60228467
2.9,11.213883,3.3165493,-5.2280655,-0.37983787,2.791841,0.65505755
2.902,11.309472,3.2803464,-5.2874756,-0.30340528,2.9076548,0.70130605
2.904,11.399335,3.2423918,-5.342351,-0.22771214,3.0154119,0.74166
2.906,11.483403,3.2025487,-5.392784,-0.15278445,3.1151326,0.77679205
2.908,11.561309,3.1605616,-5.438961,-0.078661636,3.2069383,0.8073735
2.91,11.633052,3.1163802,-5.4809027,-0.0053763986,3.2910352,0.83405
2.912,11.6984825,3.0696843,-5.5186715,0.06704214,3.3677251,0.8573874
2.914,11.75742,3.0203595,-5.5522757,0.13857204,3.4373708,0.8778579
2.916,11.809951,2.9682505,-5.581828,0.2091947,3.500387,0.8958012
2.918,11.856162,2.9133153,-5.607244,0.27889988,3.5572188,0.91142094
2.92,11.896029,2.8554115,-5.6285615,0.3476466,3.6082835,0.9248324
2.922,11.929691,2.7944045,-5.6459646,0.41541022,3.6539836,0.9360654
2.924,11.957324,2.7302575,-5.6596847,0.482157,3.6946821,0.9451086
2.926,11.978997,2.6630569,-5.669775,0.5478601,3.7306702,0.9519345
2.928,11.994831,2.5928235,-5.676477,0.6124774,3.7621617,0.9565342
2.93,12.005084,2.519824,-5.680159,0.6759702,3.789303,0.95892125
2.932,12.009957,2.444161,-5.6809826,0.73831713,3.8121266,0.95916
2.934,12.009682,2.3660765,-5.6794553,0.7995061,3.83059,0.95735073
2.936,12.0045185,2.2857246,-5.675823,0.8595375,3.8445957,0.9536781
2.938,11.994802,2.203467,-5.670603,0.9184091,3.8539546,0.9483777
2.94,11.980749,2.1195438,-5.664231,0.97613263,3.858426,0.9417321
2.942,11.962532,2.0345042,-5.6571436,1.0327132,3.8577185,0.934061
2.944,11.940314,1.9486578,-5.649715,1.0881715,3.851522,0.92568195
2.946,11.914415,1.8624673,-5.6425033,1.1425071,3.8394926,0.9169095
2.948,11.885249,1.7761226,-5.6357365,1.1957163,3.821269,0.90801346
2.95,11.852966,1.6900797,-5.629851,1.2477734,3.7965105,0.89922774
2.952,11.817864,1.6046813,-5.6251516,1.2986517,3.7648692,0.8907391
2.954,11.78016,1.5202091,-5.621939,1.348295,3.7260423,0.88268673
2.956,11.740228,1.437051,-5.6204796,1.396653,3.6797678,0.87516505
2.958,11.698056,1.3556993,-5.6210456,1.4436629,3.6258376,0.86819476
2.96,11.65392,1.2764335,-5.6237216,1.4892609,3.564124,0.8617707
2.962,11.60813,1.1994174,-5.628811,1.533385,3.4945743,0.85587144
2.964,11.560704,1.1249733,-5.636358,1.5759885,3.4172254,0.8504431
2.966,11.512065,1.0530772,-5.6464567,1.6170368,3.3322232,0.84542924
2.968,11.462361,0.9838958,-5.659098,1.656507,3.239791,0.84076357
2.97,11.411655,0.9174082,-5.674286,1.6943853,3.1402545,0.8363846
2.972,11.360253,0.8537047,-5.6918907,1.7306817,3.034007,0.8322535
2.974,11.3082485,0.79274154,-5.711974,1.7654353,2.9215252,0.8283278
2.976,11.255666,0.7344327,-5.73445,1.7986743,2.8033152,0.8245691
2.978,11.202717,0.6788697,-5.759165,1.8304272,2.679921,0.82096684
2.98,11.149553,0.62576795,-5.785951,1.8607229,2.5519044,0.81752324
2.982,11.096376,0.5751393,-5.814491,1.8895925,2.4198265,0.8142254
2.984,11.043407,0.52679586,-5.8446665,1.9170313,2.2842054,0.8110743
2.986,10.990627,0.48074627,-5.87629,1.9430361,2.1455283,0.80807436
2.988,10.938108,0.43692565,-5.9090242,1.9675863,2.004219,0.8052196
2.99,10.886205,0.39534903,-5.9426355,1.9906594,1.8606424,0.8024746
2.992,10.834903,0.35593724,-5.9768395,2.0122333,1.7151084,0.7997929
2.994,10.784269,0.3187337,-6.011257,2.0322838,1.5678606,0.7971251
2.996,10.734461,0.2836883,-6.0455117,2.0507922,1.4190973,0.7944207
2.998,10.685606,0.2509446,-6.0792966,2.0677435,1.2689513,0.7916126
3,10.637831,0.22059345,-6.1122427,2.0831387,1.1175493,0.78862154
3.002,10.591134,0.19260311,-6.143917,2.09699,0.9649946,0.7854053
3.004,10.545766,0.16721964,-6.173851,2.109309,0.8113827,0.78191495
3.006,10.501764,0.14450121,-6.201708,2.1201193,0.65683335,0.7780994
3.008,10.459083,0.12466073,-6.2271204,2.1294525,0.501488,0.77393895
3.01,10.417972,0.10772991,-6.249811,2.1373436,0.34553277,0.769415
3.012,10.378376,0.093997,-6.269412,2.143848,0.18920462,0.76454586
3.014,10.340451,0.08359194,-6.285633,2.1490264,0.032775924,0.7593422
3.016,10.304145,0.07671189,-6.2983456,2.1529596,-0.12343819,0.75382125
3.018,10.269679,0.073559046,-6.3073115,2.1557372,-0.2790902,0.74801165
3.02,10.236776,0.074312925,-6.3124576,2.1574845,-0.43379986,0.74194497
3.022,10.205653,0.07916331,-6.313802,2.1583385,-0.5871697,0.7356652
3.024,10.176281,0.08839679,-6.3113585,2.1584706,-0.7387959,0.7292305
3.026,10.148621,0.10206056,-6.305066,2.1580594,-0.8882651,0.72269547
3.028,10.122693,0.12028813,-6.2951746,2.157291,-1.0352027,0.71615916
3.03,10.098339,0.14326549,-6.28174,2.1563623,-1.1792557,0.7097137
3.032,10.075449,0.17105103,-6.2649336,2.1554844,-1.3201214,0.70346105
3.034,10.054002,0.20382667,-6.2449136,2.1548438,-1.4575531,0.697503
3.036,10.033906,0.24168515,-6.221968,2.154618,-1.5913582,0.69194007
3.038,10.015091,0.2845118,-6.196186,2.1549711,-1.7214147,0.6868453
3.04,9.997344,0.33223653,-6.167832,2.1560383,-1.8476628,0.68225646
3.042,9.980634,0.38490343,-6.136978,2.1579282,-1.9701136,0.67818105
3.044,9.964772,0.4424069,-6.1037736,2.160726,-2.0888307,0.6746024
3.046,9.949775,0.5045967,-6.0684166,2.1644876,-2.2039108,0.67145514
3.048,9.935421,0.5712824,-6.030939,2.1692502,-2.3154821,0.6686496
3.05,9.921585,0.64218354,-5.9914255,2.1750145,-2.4236984,0.66606474
3.052,9.908327,0.71695924,-5.9496994,2.1817675,-2.5287166,0.66358435
3.054,9.895511,0.79539585,-5.9060254,2.1894739,-2.6306946,0.66109836
3.056,9.882892,0.8770859,-5.8601418,2.1980927,-2.7297802,0.65848845
3.058,9.870386,0.9618125,-5.812128,2.20757,-2.8261015,0.65566176
3.06,9.857997,1.0490892,-5.761816,2.2178392,-2.9197707,0.6525577
3.062,9.845545,1.1386013,-5.7090774,2.2288346,-3.010874,0.6491041
3.064,9.83305,1.2300973,-5.653743,2.2404966,-3.0994763,0.64527404
3.066,9.82032,1.3231933,-5.5957527,2.252779,-3.1856198,0.6410314
3.068,9.807293,1.4175475,-5.534935,2.2656314,-3.2693095,0.6363784
3.07,9.793945,1.5129225,-5.4712057,2.2790086,-3.3505232,0.63132966
3.072,9.780158,1.6092234,-5.404374,2.292894,-3.4292262,0.62591946
3.074,9.7659645,1.7062297,-5.334339,2.307272,-3.5053792,0.62019277
3.076,9.751186,1.8037605,-5.2610846,2.3221455,-3.5789087,0.61421776
3.078,9.735833,1.9017608,-5.184662,2.3375304,-3.6497405,0.6080626
3.08,9.720004,2.0001836,-5.1049166,2.353467,-3.7177873,0.601823
3.082,9.703587,2.0990129,-5.0218797,2.3700032,-3.7829528,0.5955693
3.084,9.68644,2.1983361,-4.935568,2.387214,-3.8451557,0.5893916
3.086,9.66874,2.2981973,-4.8460245,2.4051824,-3.9042907,0.5833612
3.088,9.650364,2.3985612,-4.753257,2.4240184,-3.960266,0.5775548
3.09,9.631403,2.499559,-4.657551,2.4438527,-4.0129676,0.5720483
3.092,9.611707,2.6012328,-4.5590963,2.4648275,-4.0622597,0.56691766
3.094,9.591358,2.7036467,-4.458023,2.4870787,-4.108005,0.56225634
3.096,9.570264,2.8068805,-4.354494,2.5107493,-4.150042,0.55816865
3.098,9.548579,2.9109495,-4.2488327,2.5359805,-4.188208,0.5547329
3.1,9.526112,3.015801,-4.141253,2.5628924,-4.222342,0.5520445
3.102,9.502852,3.1214166,-4.0320735,2.5915847,-4.2522745,0.55019295
3.104,9.479013,3.2277517,-3.921523,2.6221392,-4.27786,0.5492538
3.106,9.454407,3.3347704,-3.8100066,2.6545913,-4.298972,0.5492883
3.108,9.42899,3.4422982,-3.6976795,2.688952,-4.3155694,0.55032384
3.11,9.402726,3.5502367,-3.5849206,2.7251823,-4.327674,0.55236673
3.112,9.37581,3.6584334,-3.4719193,2.7632084,-4.335397,0.5553998
3.114,9.347995,3.766768,-3.358951,2.8029337,-4.338893,0.5593711
3.116,9.31938,3.8749619,-3.2462907,2.8442378,-4.338396,0.56420434
3.118,9.289767,3.9831047,-3.1340475,2.886975,-4.334189,0.5698098
3.12,9.259215,4.0909767,-3.0223632,2.9309983,-4.326601,0.5761118
3.122,9.227751,4.198544,-2.9114628,2.976157,-4.316009,0.58302474
3.124,9.195239,4.305745,-2.801408,3.0223262,-4.3027763,0.5904577
3.126,9.161618,4.4124823,-2.6923044,3.0693653,-4.287239,0.5983372
3.128,9.126781,4.5187926,-2.5842426,3.1171558,-4.2696934,0.60659814
3.13,9.09083,4.6246023,-2.4770803,3.1656024,-4.2503605,0.6151881
3.132,9.053694,4.729954,-2.3707094,3.2146297,-4.2293925,0.62407756
3.134,9.015181,4.834792,-2.265142,3.2641337,-4.206854,0.63325226
3.136,8.97515,4.9393415,-2.1603308,3.3140438,-4.182739,0.6427169
3.138,8.933562,5.0437465,-2.0561028,3.364263,-4.156966,0.6524949
3.14,8.890403,5.148055,-1.9523723,3.4147139,-4.1293983,0.66261935
3.142,8.845572,5.2524667,-1.8489093,3.4653258,-4.0998607,0.6731379
3.144,8.798906,5.3570833,-1.7456048,3.5160193,-4.068186,0.6841068
3.146,8.750273,5.4620924,-1.6422606,3.5667555,-4.0341954,0.6955937
3.148,8.699582,5.567719,-1.5386934,3.617543,-3.997692,0.707657
3.15,8.646666,5.674189,-1.4346526,3.6684086,-3.9584832,0.7203665
3.152,8.591361,5.7816887,-1.3300226,3.7194147,-3.9163747,0.7338091
3.154,8.533585,5.890426,-1.2245615,3.770654,-3.871157,0.7480805
3.156,8.473145,6.000709,-1.1180756,3.8222444,-3.8226595,0.7632799
3.158,8.409934,6.1127005,-1.0102768,3.8742976,-3.7707338,0.77952933
3.16,8.34391,6.2266726,-0.90097,3.92691,-3.7152984,0.79695797
3.162,8.274861,6.3427,-0.7900865,3.9801345,-3.6563003,0.8157017
3.164,8.202774,6.460993,-0.6772678,4.033975,-3.5938067,0.8359153
3.166,8.127436,6.5816946,-0.5623865,4.0883775,-3.5279756,0.85773516
3.168,8.048916,6.7049093,-0.44532752,4.1432,-3.4591126,0.88127553
3.17,7.966997,6.830703,-0.32607913,4.1982546,-3.387614,0.9066396
3.172,7.881694,6.9590135,-0.20441365,4.2533026,-3.313922,0.933872
3.174,7.7929897,7.089813,-0.080311775,4.308089,-3.2384722,0.9629719
3.176,7.7007623,7.2229614,0.04638815,4.362369,-3.161676,0.99392724
3.178,7.605203,7.3581614,0.17565918,4.4158754,-3.0838962,1.0267155
3.18,7.506121,7.4953785,0.30741858,4.4683733,-3.0054567,1.0612746
3.182,7.4035196,7.6341987,0.4416957,4.519653,-2.926588,1.0975376
3.184,7.297445,7.77426,0.5783179,4.569527,-2.8474503,1.1354373
3.186,7.1879187,7.9152308,0.71716785,4.617837,-2.768126,1.1748812
3.188,7.0749855,8.0566,0.8580003,4.6644754,-2.6886263,1.2157981
3.19,6.958761,8.197725,1.0005913,4.7093606,-2.6089032,1.2581307
3.192,6.8392363,8.338265,1.1445539,4.7524424,-2.528845,1.3018107
3.194,6.716632,8.47764,1.289716,4.793694,-2.4483018,1.3468084
3.196,6.590815,8.615311,1.4357176,4.833115,-2.3670883,1.3930883
3.198,6.4619017,8.750623,1.5822186,4.8707385,-2.2850137,1.4406186
3.2,6.3300314,8.88296,1.7289524,4.9066057,-2.201888,1.4893844
3.202,6.1953773,9.011669,1.8755395,4.9407506,-2.1175857,1.5393685
3.204,6.0578523,9.136162,2.0216508,4.9732113,-2.032023,1.5905515
3.206,5.9176526,9.255794,2.1670213,5.003973,-1.9452012,1.6428874
3.208,5.7748623,9.370038,2.3112388,5.032998,-1.8572204,1.6963068
3.21,5.629507,9.478393,2.4540646,5.060183,-1.7682726,1.7506981
3.212,5.4818645,9.580343,2.5952442,5.0853686,-1.6786202,1.8059287
3.214,5.3318334,9.675387,2.734419,5.1083546,-1.5885942,1.8618269
3.216,5.1797323,9.76298,2.8715525,5.128906,-1.498568,1.9182191
3.218,5.0255384,9.842814,3.0063314,5.146765,-1.4089189,1.9749167
3.22,4.8691845,9.914457,3.1383708,5.1616874,-1.320046,2.03174
3.222,4.7109737,9.9777,3.267952,5.1734595,-1.2322837,2.088518
3.224,4.5511813,10.03224,3.395298,5.181924,-1.1458995,2.145087
3.226,4.3902674,10.077774,3.5198407,5.1869864,-1.0610511,2.201305
3.228,4.2281265,10.113836,3.642044,5.1886344,-0.9778313,2.2570355
3.23,4.064764,10.140409,3.761889,5.186919,-0.8962133,2.3121598
3.232,3.9003067,10.157137,3.8793545,5.181975,-0.8160708,2.3665805
3.234,3.7350352,10.163861,3.9945664,5.173988,-0.7371825,2.4202204
3.236,3.5689514,10.160565,4.107915,5.1631727,-0.6592666,2.4730146
3.238,3.402017,10.147126,4.2195377,5.149765,-0.5819804,2.5249026
3.24,3.2343748,10.123792,4.32966,5.1340017,-0.50494206,2.5758462
3.242,3.0659459,10.090549,4.4383373,5.1160674,-0.42776197,2.625795
3.244,2.8969646,10.047421,4.545611,5.096106,-0.3500272,2.6747262
3.246,2.72756,9.994534,4.651803,5.0741987,-0.27136123,2.7226257
3.248,2.5576239,9.932059,4.7567,5.050364,-0.19139433,2.7694857
3.25,2.387268,9.860484,4.8604927,5.024514,-0.10978544,2.815324
3.252,2.2165017,9.780042,4.962968,4.996521,-0.026277184,2.8601391
3.254,2.0453093,9.691244,5.06407,4.9662504,0.05926144,2.9039881
3.256,1.8739742,9.594573,5.1634893,4.9334874,0.14682811,2.9469135
3.258,1.7023259,9.490621,5.2609158,4.897995,0.23626113,2.9889412
3.26,1.5304811,9.380106,5.356162,4.859584,0.32730353,3.0301406
3.262,1.3586272,9.263529,5.4487705,4.8180633,0.41952664,3.07053
3.264,1.1867735,9.141648,5.5383587,4.7733245,0.5123344,3.1101255
3.266,1.0149658,9.015165,5.6245313,4.7253385,0.6050035,3.1489117
3.268,0.8432952,8.8849325,5.7066927,4.674111,0.69672316,3.1868184
3.27,0.67162925,8.751683,5.7844715,4.619692,0.78662175,3.2237005
3.272,0.5000517,8.616318,5.857275,4.562164,0.8738029,3.259346
3.274,0.32863018,8.479545,5.9246645,4.501629,0.95739514,3.2934968
3.276,0.15716198,8.342344,5.986125,4.4381824,1.036581,3.325888
3.278,-0.014497913,8.205422,6.0411806,4.371897,1.1106141,3.3562372
3.28,-0.18629761,8.069719,6.0894556,4.302857,1.1788819,3.3842778
3.282,-0.35839373,7.936103,6.1303053,4.2311044,1.2409644,3.4097555
3.284,-0.5310223,7.805339,6.163334,4.1566887,1.296638,3.4324493
3.286,-0.7041625,7.6781397,6.1881566,4.0796413,1.3458743,3.4521892
3.288,-0.8782768,7.555443,6.20431,4.0000005,1.3888266,3.4688838
3.29,-1.0533442,7.437744,6.211421,3.9178128,1.4257672,3.4824934
3.292,-1.2295111,7.325864,6.2092237,3.8331156,1.4570384,3.4930317
3.294,-1.4070868,7.220504,6.1974397,3.7459989,1.4830189,3.5005827
3.296,-1.5863267,7.122349,6.176015,3.656558,1.5040717,3.505264
3.298,-1.7673428,7.0319834,6.144948,3.5649247,1.5204858,3.5072231
3.3,-1.9503523,6.94985,6.104154,3.471253,1.5324937,3.5066614
3.302,-2.135341,6.876164,6.0537605,3.3757463,1.5402153,3.5037782
3.304,-2.322485,6.811273,5.993907,3.2786536,1.5436969,3.49879
3.306,-2.5117748,6.755493,5.9248657,3.180234,1.5429327,3.4919343
3.308,-2.7032237,6.708987,5.847069,3.0807498,1.5378758,3.483382
3.31,-2.8971047,6.671796,5.7610474,2.9805486,1.5284891,3.4733195
3.312,-3.0932412,6.6438656,5.6673646,2.8799806,1.5147356,3.461896
3.314,-3.2915206,6.625069,5.566673,2.7793622,1.4965813,3.449223
3.316,-3.4919038,6.615141,5.4597793,2.6789956,1.4740888,3.4354193
3.318,-3.694256,6.6136417,5.3475575,2.5791435,1.4474009,3.4205632
3.32,-3.898419,6.620198,5.2309623,2.480038,1.4166907,3.404731
3.322,-4.104421,6.634332,5.111024,2.3818843,1.3821309,3.387986
3.324,-4.311947,6.655333,4.9889326,2.2848783,1.3439219,3.3703911
3.326,-4.520892,6.6825676,4.8656116,2.189189,1.3023088,3.3519688
3.328,-4.7309613,6.715133,4.742188,2.0949616,1.2575388,3.332704
3.33,-4.941863,6.7521725,4.620024,2.0023317,1.2098726,3.3125496
3.332,-5.153658,6.79277,4.4996586,1.9114327,1.159568,3.2914448
3.334,-5.3660407,6.8359303,4.382012,1.8224041,1.1068609,3.2693155
3.336,-5.579019,6.8807464,4.268572,1.7353826,1.0519795,3.2460842
3.338,-5.792055,6.926403,4.1597543,1.6505142,0.99518126,3.2216437
3.34,-6.004769,6.9717913,4.056417,1.5679259,0.9367225,3.1958466
3.342,-6.216919,7.016033,3.9593735,1.4877326,0.87691206,3.1685295
3.344,-6.4283476,7.058212,3.8690836,1.4100196,0.8161012,3.1395245
3.346,-6.638711,7.097332,3.7858157,1.3348649,0.75468665,3.1086555
3.348,-6.8475,7.132463,3.7099533,1.2623029,0.6930973,3.0757453
3.35,-7.0546203,7.162795,3.641623,1.1923573,0.6317768,3.0406394
3.352,-7.2596116,7.187687,3.5810227,1.1250108,0.57117015,3.003218
3.354,-7.462524,7.2064905,3.5282264,1.0602269,0.5116849,2.9633896
3.356,-7.662858,7.2186728,3.483008,0.99793863,0.45368636,2.921137
3.358,-7.860437,7.2236795,3.4454615,0.93807733,0.3974429,2.8765187
3.36,-8.054958,7.2211723,3.4150844,0.8805667,0.34313363,2.8296363
3.362,-8.246219,7.210926,3.391656,0.82531744,0.29083198,2.7806456
3.364,-8.433793,7.1927276,3.3747373,0.7722527,0.24050757,2.72974
3.366,-8.617757,7.166435,3.3639505,0.7213093,0.1920788,2.6771445
3.368,-8.797737,7.132139,3.358779,0.67242205,0.14541395,2.6230798
3.37,-8.973517,7.089885,3.358684,0.62553596,0.10035817,2.5677469
3.372,-9.145092,7.0399446,3.363139,0.58058715,0.056778174,2.5113695
3.374,-9.312267,6.9825573,3.371633,0.5375087,0.014576419,2.4541445
3.376,-9.47498,6.9180965,3.3836389,0.4962461,-0.026288513,2.3962727
3.378,-9.633057,6.846837,3.398647,0.45671773,-0.06582296,2.3379545
3.38,-9.786337,6.769296,3.4161744,0.4188613,-0.104004234,2.2794058
3.382,-9.934772,6.685913,3.435844,0.3826224,-0.14076304,2.2208362
3.384,-10.07847,6.5971236,3.457259,0.34795594,-0.17599666,2.1624434
3.386,-10.21718,6.5033727,3.4800687,0.31484315,-0.20955107,2.104423
3.388,-10.350971,6.405241,3.5039988,0.28328258,-0.24123296,2.0469437
3.39,-10.479882,6.303144,3.5287924,0.25330293,-0.27083093,1.9901637
3.392,-10.604124,6.1975865,3.5543149,0.22494543,-0.29813465,1.9342386
3.394,-10.723494,6.089076,3.5803273,0.1982691,-0.32288206,1.8792943
3.396,-10.838115,5.978171,3.6067054,0.17334032,-0.34481463,1.8254306
3.398,-10.948046,5.865165,3.6334195,0.15022093,-0.36364418,1.7727214
3.4,-11.053376,5.75063,3.6604657,0.12895748,-0.37908316,1.7212257
3.402,-11.15417,5.6349216,3.6876197,0.10959865,-0.39083412,1.6709974
3.404,-11.25049,5.5183945,3.7149544,0.09219174,-0.39861527,1.6220893
3.406,-11.342294,5.4014025,3.7424564,0.0767616,-0.40215814,1.574531
3.408,-11.429758,5.2842875,3.770082,0.063328326,-0.40124184,1.5283681
3.41,-11.512958,5.167581,3.7979484,0.05189979,-0.39566675,1.483626
3.412,-11.591955,5.0515604,3.8259807,0.042464167,-0.3852838,1.4403149
3.414,-11.666763,4.9364276,3.854114,0.034997568,-0.3699918,1.398447
3.416,-11.7373905,4.8225255,3.8823495,0.029462859,-0.34974855,1.3580204
3.418,-11.80403,4.7101107,3.9106843,0.025801912,-0.32456595,1.3190345
3.42,-11.866495,4.5994487,3.939024,0.02395174,-0.29450154,1.28148
3.422,-11.924929,4.490698,3.9673176,0.023833513,-0.2596862,1.2453378
3.424,-11.9793415,4.383992,3.9954891,0.025368914,-0.22028354,1.2105967
3.426,-12.029729,4.279467,4.023317,0.02848649,-0.17649125,1.1772304
3.428,-12.076226,4.1774125,4.050757,0.033104077,-0.12855351,1.1452105
3.43,-12.118596,4.077837,4.077441,0.039134935,-0.07673614,1.1145058
3.432,-12.156904,3.9808118,4.1032786,0.04650204,-0.021315757,1.0850662
3.434,-12.191103,3.886509,4.1279144,0.05511856,0.037400264,1.0568473
3.436,-12.22115,3.7950692,4.1511345,0.06488967,0.09909847,1.0297831
3.438,-12.2470665,3.7065318,4.1727815,0.07573335,0.16347067,1.0037936
3.44,-12.268644,3.6209552,4.1925526,0.087548986,0.23020089,0.97879773
3.442,-12.285992,3.5383224,4.2101884,0.10023165,0.2989711,0.95471394
3.444,-12.299088,3.4587026,4.225487,0.113681346,0.3694721,0.9314594
3.446,-12.3078575,3.3820956,4.238338,0.12780523,0.44139263,0.9089436
3.448,-12.312199,3.308538,4.2484684,0.14248554,0.51441157,0.8870956
3.45,-12.312214,3.2379477,4.255755,0.1575905,0.588194,0.86584026
3.452,-12.307884,3.1703305,4.26007,0.17298873,0.6624237,0.8451115
3.454,-12.299149,3.1058104,4.261386,0.18853024,0.736782,0.82485574
3.456,-12.286091,3.0443478,4.259567,0.20405376,0.81096023,0.80502605
3.458,-12.268636,2.9860172,4.254607,0.21938324,0.88464975,0.78558165
3.46,-12.246878,2.9306142,4.246549,0.2343728,0.95755064,0.7665094
3.462,-12.220923,2.8782518,4.2354608,0.24886668,1.0293852,0.74779487
3.464,-12.190559,2.8289914,4.221396,0.26272804,1.0998647,0.7294172
3.466,-12.156013,2.782793,4.2044315,0.27583718,1.1687382,0.7113701
3.468,-12.117255,2.7396266,4.1846437,0.2880922,1.2357737,0.6936434
