Time_s_,Acc_x_m_s_2_,Acc_y_m_s_2_,Acc_z_m_s_2_,Gyro_x_1_s_,Gyro_y_1_s_,Gyro_z_1_s_
0,-0.41823152,-0.18829702,-1.6942574,-2.7232065,-6.3101196,-3.5425842
0.002,-0.31113127,-0.29509908,-1.6114748,-2.7595444,-6.3592424,-3.5315013
0.004,-0.20211019,-0.40626884,-1.5237683,-2.8004062,-6.413494,-3.5178566
0.006,-0.09160441,-0.521713,-1.4308408,-2.8462172,-6.473101,-3.5011044
0.008,0.019608326,-0.6413565,-1.3327583,-2.8973637,-6.5381465,-3.4806628
0.01,0.13114914,-0.7650053,-1.2294147,-2.9541295,-6.60851,-3.4558969
0.012,0.24243522,-0.8923144,-1.1210369,-3.016654,-6.683821,-3.4261734
0.014,0.35257548,-1.0228901,-1.0079571,-3.084921,-6.7634597,-3.3908932
0.016,0.46061957,-1.1560795,-0.8907499,-3.158743,-6.8465886,-3.3495216
0.018,0.56542826,-1.291217,-0.7701352,-3.2377584,-6.9322095,-3.30163
0.02,0.6657716,-1.4275501,-0.6470427,-3.3214653,-7.019229,-3.2469416
0.022,0.760756,-1.5642602,-0.522374,-3.409258,-7.1065407,-3.1853662
0.024,0.84889704,-1.7003758,-0.3973741,-3.5004363,-7.1930857,-3.116994
0.026,0.9292598,-1.8349857,-0.27326947,-3.594267,-7.2779026,-3.0420618
0.028,1.0006654,-1.9670559,-0.15160273,-3.6920428,-7.362535,-2.9599037
0.03,1.0618808,-2.0955966,-0.034011528,-3.7902508,-7.4428334,-2.8721309
0.032,1.1118615,-2.2195024,0.077621944,-3.8885007,-7.5186367,-2.7790887
0.034,1.1495001,-2.337611,0.18147588,-3.9864006,-7.589825,-2.6810784
0.036,1.1742699,-2.4488115,0.27570942,-4.0836077,-7.6563373,-2.578375
0.038,1.1854839,-2.5521088,0.3581065,-4.179802,-7.7182446,-2.4711843
0.04,1.1829112,-2.6466684,0.42690974,-4.2747355,-7.775736,-2.3596787
0.042,1.1664124,-2.7318206,0.4803622,-4.3681974,-7.8291645,-2.2439628
0.044,1.1359882,-2.8069293,0.5167706,-4.4600263,-7.8790483,-2.1240728
0.046,1.0920544,-2.8714943,0.5348168,-4.5500937,-7.9259634,-2.0000339
0.048,1.0354564,-2.925331,0.53336227,-4.6382732,-7.9705515,-1.8718928
0.05,0.96717936,-2.968223,0.5117874,-4.724434,-8.013469,-1.7397279
0.052,0.88828653,-3.0002446,0.4688772,-4.8084583,-8.055362,-1.6036423
0.054,0.80014044,-3.0215473,0.40335923,-4.8902073,-8.096757,-1.4637516
0.056,0.70669866,-3.0356805,0.31716102,-4.9695187,-8.138098,-1.3202155
0.058,0.6065903,-3.0388129,0.20819429,-5.046281,-8.179764,-1.1732183
0.06,0.50151134,-3.031579,0.07760343,-5.1204033,-8.222083,-1.022927
0.062,0.39329916,-3.0145676,-0.073586285,-5.1918354,-8.26532,-0.86949396
0.064,0.28408742,-2.988494,-0.24457757,-5.2605658,-8.3096895,-0.71308994
0.066,0.17565924,-2.9536703,-0.43461764,-5.3266172,-8.355398,-0.5538858
0.068,0.06999189,-2.910463,-0.64297044,-5.390049,-8.402658,-0.3920672
0.07,-0.031077862,-2.8594115,-0.86831284,-5.450903,-8.451604,-0.22784913
0.072,-0.12618661,-2.8007398,-1.1089935,-5.5092106,-8.502269,-0.061451435
0.074,-0.21422839,-2.7345483,-1.3629391,-5.564955,-8.554579,0.10695994
0.076,-0.29403543,-2.6610212,-1.6281803,-5.618072,-8.608329,0.2772205
0.078,-0.36440426,-2.5799797,-1.9031303,-5.6684504,-8.6631565,0.4491644
0.08,-0.4244752,-2.4913523,-2.1867433,-5.715912,-8.718537,0.62259305
0.082,-0.47389966,-2.394845,-2.4778833,-5.7601967,-8.773792,0.79728746
0.084,-0.51259154,-2.2898953,-2.7754629,-5.8010254,-8.828173,0.97297776
0.086,-0.5407615,-2.1759977,-3.0784302,-5.8380637,-8.8808565,1.1493309
0.088,-0.559115,-2.052342,-3.3857698,-5.870958,-8.930982,1.3259482
0.09,-0.56840956,-1.918356,-3.6965024,-5.8993683,-8.97772,1.502382
0.092,-0.5695615,-1.7732941,-4.00998,-5.9230356,-9.020352,1.6781318
0.094,-0.56387854,-1.6163328,-4.3254766,-5.9417334,-9.058309,1.8527262
0.096,-0.5528619,-1.4466441,-4.642209,-5.9552937,-9.091223,2.0257204
0.098,-0.5385145,-1.2634412,-4.95937,-5.963617,-9.1189165,2.1966984
0.1,-0.5229032,-1.0661356,-5.276065,-5.9666767,-9.1414795,2.3652968
0.102,-0.508505,-0.85407233,-5.5912952,-5.9645452,-9.159255,2.5312362
0.104,-0.4980375,-0.6266811,-5.904406,-5.9573555,-9.172785,2.6943312
0.106,-0.49444434,-0.3833902,-6.2147245,-5.94528,-9.182736,2.8544815
0.108,-0.5006517,-0.12386823,-6.521777,-5.928513,-9.189892,3.0116174
0.11,-0.51947546,0.15205097,-6.824978,-5.9072585,-9.195125,3.1657147
0.112,-0.5539891,0.44470954,-7.123746,-5.8816767,-9.199276,3.3167624
0.114,-0.6067294,0.75378156,-7.4173884,-5.851921,-9.203089,3.464657
0.116,-0.6802191,1.0791113,-7.705223,-5.8181024,-9.207161,3.6092472
0.118,-0.77673745,1.4202425,-7.9865465,-5.7803226,-9.211945,3.750309
0.12,-0.8987306,1.7765212,-8.260906,-5.738678,-9.217675,3.887528
0.122,-1.0477991,2.1469853,-8.527644,-5.6932597,-9.224375,4.020528
0.124,-1.2254468,2.5305347,-8.786439,-5.6441855,-9.231922,4.1488657
0.126,-1.4326905,2.9259198,-9.036756,-5.5916047,-9.24007,4.2720366
0.128,-1.6698235,3.331867,-9.278236,-5.535723,-9.248481,4.3895125
0.13,-1.9369912,3.7469282,-9.510671,-5.476774,-9.256765,4.500786
0.132,-2.2342026,4.169385,-9.733818,-5.4150653,-9.264544,4.605424
0.134,-2.5606756,4.597447,-9.947608,-5.350933,-9.271487,4.703104
0.136,-2.9153936,5.029102,-10.152062,-5.2847815,-9.277329,4.7936087
0.138,-3.2967455,5.462342,-10.347059,-5.2169952,-9.281824,4.8768635
0.14,-3.7027364,5.8952694,-10.532569,-5.147971,-9.284788,4.952915
0.142,-4.131165,6.3256016,-10.708375,-5.0781183,-9.286088,5.021861
0.144,-4.5798883,6.751234,-10.874427,-5.007771,-9.285572,5.083809
0.146,-5.0462666,7.169633,-11.030569,-4.937251,-9.283009,5.138829
0.148,-5.5267053,7.5784006,-11.175799,-4.8668203,-9.278059,5.186906
0.15,-6.0185456,7.9755487,-11.309618,-4.79669,-9.270304,5.2279596
0.152,-6.5193686,8.359566,-11.431309,-4.726967,-9.259178,5.2619066
0.154,-7.0257583,8.728624,-11.540245,-4.657653,-9.24395,5.288644
0.156,-7.5346556,9.081207,-11.636168,-4.5886407,-9.223742,5.30805
0.158,-8.043596,9.41598,-11.718679,-4.5198054,-9.197634,5.3199916
0.16,-8.550111,9.731796,-11.787492,-4.450983,-9.16465,5.3243737
0.162,-9.051487,10.027727,-11.84141,-4.382016,-9.123777,5.3212323
0.164,-9.545419,10.303236,-11.879571,-4.3127728,-9.073995,5.310705
0.166,-10.030093,10.557984,-11.901772,-4.243138,-9.014344,5.2930756
0.168,-10.503699,10.792049,-11.908463,-4.173056,-8.943995,5.268748
0.17,-10.964415,11.005707,-11.900022,-4.1025133,-8.862256,5.238228
0.172,-11.4110565,11.199543,-11.876415,-4.031564,-8.768615,5.202053
0.174,-11.84293,11.3743,-11.837406,-3.9603343,-8.662751,5.1607842
0.176,-12.259164,11.53095,-11.783342,-3.888972,-8.544469,5.1149497
0.178,-12.659481,11.670613,-11.714835,-3.8176682,-8.413776,5.06507
0.18,-13.043909,11.794992,-11.632869,-3.7466586,-8.270893,5.0115795
0.182,-13.412346,11.90563,-11.539066,-3.6761897,-8.116135,4.954839
0.184,-13.765078,12.004173,-11.435055,-3.6065185,-7.949905,4.895099
0.186,-14.102747,12.09257,-11.322409,-3.5378914,-7.772747,4.832449
0.188,-14.426632,12.172789,-11.202305,-3.4705338,-7.585268,4.766881
0.19,-14.73763,12.246953,-11.076174,-3.4046571,-7.3880973,4.6983366
0.192,-15.036469,12.3169155,-10.94578,-3.3404512,-7.1818295,4.626723
0.194,-15.32407,12.384392,-10.813246,-3.2780752,-6.967045,4.551974
0.196,-15.601195,12.451188,-10.681054,-3.2176602,-6.7442617,4.474065
0.198,-15.869106,12.519079,-10.551992,-3.1593432,-6.513957,4.393018
0.2,-16.12841,12.589644,-10.428951,-3.1032667,-6.276577,4.3088613
0.202,-16.37962,12.664064,-10.314653,-3.049602,-6.0325327,4.22162
0.204,-16.623283,12.743541,-10.211309,-2.9985437,-5.78224,4.1312923
0.206,-16.860006,12.829241,-10.121378,-2.9503584,-5.5261726,4.0378084
0.208,-17.08958,12.921854,-10.047762,-2.9053125,-5.2648706,3.9410033
0.21,-17.311747,13.021883,-9.993059,-2.8636918,-4.998929,3.840642
0.212,-17.526022,13.129833,-9.959793,-2.8257313,-4.729007,3.7364292
0.214,-17.731615,13.245767,-9.95026,-2.7916403,-4.455828,3.6280208
0.216,-17.927448,13.369428,-9.965883,-2.7615275,-4.1801414,3.5150385
0.218,-18.112406,13.500517,-10.007765,-2.7354183,-3.9026902,3.3970685
0.22,-18.285484,13.638683,-10.077223,-2.7132497,-3.6242352,3.2737064
0.222,-18.445215,13.783146,-10.175789,-2.6948333,-3.345527,3.1445634
0.224,-18.589989,13.93323,-10.304459,-2.6798785,-3.0672889,3.0092978
0.226,-18.717945,14.08796,-10.463657,-2.6679893,-2.7902093,2.8676283
0.228,-18.827396,14.246422,-10.6535015,-2.6587067,-2.5149667,2.7192984
0.23,-18.916628,14.407696,-10.873386,-2.6515489,-2.2422342,2.564081
0.232,-18.983929,14.570665,-11.122252,-2.646007,-1.9726121,2.401773
0.234,-19.027416,14.734222,-11.398674,-2.6415434,-1.7066371,2.2322288
0.236,-19.045483,14.897045,-11.701239,-2.6376514,-1.4448088,2.055364
0.238,-19.036526,15.057987,-12.028286,-2.633889,-1.1875849,1.8711841
0.24,-18.999472,15.216219,-12.378256,-2.6298697,-0.9353434,1.6797738
0.242,-18.932976,15.370924,-12.749569,-2.6252446,-0.6883978,1.48126
0.244,-18.835648,15.521185,-13.140051,-2.6197233,-0.44708496,1.2758279
0.246,-18.706928,15.666513,-13.547455,-2.6130867,-0.21180877,1.0637617
0.248,-18.546227,15.806158,-13.969666,-2.605173,0.017005503,0.84544134
0.25,-18.352802,15.939542,-14.4042015,-2.5958333,0.23892689,0.6213025
0.252,-18.1262,16.065857,-14.849271,-2.5849476,0.45347464,0.39183128
0.254,-17.86558,16.18474,-15.302478,-2.572402,0.6601322,0.15752888
0.256,-17.571404,16.296661,-15.761882,-2.5580857,0.858395,-0.08116019
0.258,-17.243444,16.401405,-16.226421,-2.5418844,1.0478439,-0.3238309
0.26,-16.880608,16.498383,-16.695171,-2.5236812,1.2281036,-0.5701504
0.262,-16.482319,16.587097,-17.16681,-2.503397,1.3988531,-0.81984013
0.264,-16.049133,16.667439,-17.639614,-2.4809399,1.5599153,-1.0726743
0.266,-15.580958,16.739075,-18.112152,-2.456256,1.7111759,-1.3284636
0.268,-15.077664,16.80194,-18.583149,-2.4293132,1.8525541,-1.5870321
0.27,-14.539257,16.855717,-19.051785,-2.400082,1.9840281,-1.848226
0.272,-13.965963,16.900219,-19.51759,-2.3685284,2.1055388,-2.111864
0.274,-13.35781,16.935154,-19.979853,-2.334612,2.2169704,-2.3777385
0.276,-12.714991,16.960289,-20.438328,-2.2983005,2.3182118,-2.6456518
0.278,-12.038096,16.975441,-20.892387,-2.2595437,2.4091294,-2.9154081
0.28,-11.327757,16.980574,-21.341269,-2.2182763,2.489557,-3.186814
0.282,-10.584854,16.975527,-21.78421,-2.1744473,2.5592484,-3.4595935
0.284,-9.810262,16.960287,-22.220308,-2.1280289,2.6178687,-3.7333956
0.286,-9.005091,16.934597,-22.648335,-2.0789862,2.665172,-4.0078883
0.288,-8.170435,16.898348,-23.067116,-2.0273285,2.7009413,-4.282731
0.29,-7.3076773,16.851368,-23.475225,-1.9731008,2.7248335,-4.5575457
0.292,-6.4188957,16.793953,-23.871231,-1.9163727,2.736485,-4.831919
0.294,-5.5061126,16.72632,-24.25373,-1.8572694,2.735663,-5.1054068
0.296,-4.5714936,16.648546,-24.621328,-1.7959603,2.7222247,-5.377528
0.298,-3.6171508,16.56086,-24.97286,-1.7326185,2.6961641,-5.647813
0.3,-2.6461406,16.463844,-25.306889,-1.667365,2.657668,-5.915822
0.302,-1.6614194,16.358398,-25.621597,-1.6002566,2.6071696,-6.1811304
0.304,-0.6658025,16.245613,-25.915215,-1.5312399,2.5452833,-6.443346
0.306,0.33770323,16.126293,-26.186035,-1.4601519,2.4728227,-6.70216
0.308,1.346077,16.001648,-26.432148,-1.3867245,2.3907425,-6.957362
0.31,2.3561249,15.87313,-26.65162,-1.310615,2.3000455,-7.2088327
0.312,3.364447,15.742382,-26.842918,-1.2314194,2.2017043,-7.456543
0.314,4.367715,15.611309,-27.004984,-1.148724,2.0966046,-7.700507
0.316,5.3629303,15.481962,-27.13691,-1.0621055,1.9855182,-7.9407396
0.318,6.3471813,15.3565,-27.237234,-0.9712589,1.8689826,-8.177231
0.32,7.317685,15.237538,-27.30528,-0.8759875,1.7473462,-8.409928
0.322,8.272318,15.127564,-27.340328,-0.7762492,1.6208279,-8.638704
0.324,9.209392,15.02931,-27.34181,-0.6721859,1.4894695,-8.863339
0.326,10.127733,14.945525,-27.309992,-0.5640936,1.3532224,-9.08354
0.328,11.026255,14.878847,-27.244776,-0.45234704,1.2121012,-9.298998
0.33,11.905001,14.831481,-27.146336,-0.33740187,1.0660887,-9.509408
0.332,12.764365,14.805411,-27.014877,-0.21981001,0.9151974,-9.714548
0.334,13.60525,14.802355,-26.85112,-0.10018015,0.75953555,-9.914236
0.336,14.428227,14.823772,-26.657251,0.020869732,0.5993812,-10.108442
0.338,15.234622,14.871366,-26.435097,0.14273787,0.43515587,-10.297173
0.34,16.02676,14.945771,-26.186338,0.26479363,0.2672739,-10.480389
0.342,16.808456,15.046876,-25.912582,0.38641644,0.096191645,-10.658097
0.344,17.58302,15.174596,-25.6143,0.50705314,-0.077539444,-10.830313
0.346,18.35393,15.328606,-25.292992,0.6261575,-0.25334835,-10.997065
0.348,19.12502,15.507889,-24.950417,0.7432203,-0.43087626,-11.158371
0.35,19.899204,15.71129,-24.58852,0.8577869,-0.60986567,-11.314281
0.352,20.679987,15.937184,-24.20852,0.9694576,-0.7901273,-11.464876
0.354,21.47063,16.183203,-23.81197,1.077867,-0.97160673,-11.610255
0.356,22.274706,16.446577,-23.400106,1.1826804,-1.1543846,-11.750583
0.358,23.094671,16.7248,-22.973387,1.2835736,-1.338593,-11.8860855
0.36,23.933043,17.014894,-22.532547,1.3802757,-1.524365,-12.01701
0.362,24.792221,17.314476,-22.077932,1.4725351,-1.711885,-12.143589
0.364,25.673534,17.620588,-21.610065,1.5600586,-1.9013891,-12.266083
0.366,26.579086,17.929834,-21.129122,1.6425803,-2.0930085,-12.384787
0.368,27.509602,18.239426,-20.634163,1.7198639,-2.2866993,-12.49999
0.37,28.465809,18.547127,-20.12417,1.7915888,-2.4825897,-12.6119
0.372,29.448708,18.850767,-19.598892,1.8574002,-2.6808138,-12.720598
0.374,30.459074,19.148159,-19.05839,1.9169335,-2.8812928,-12.826092
0.376,31.497414,19.437225,-18.50201,1.9699128,-3.0837708,-12.928412
0.378,32.563953,19.715998,-17.929106,2.0160406,-3.2879982,-13.02763
0.38,33.658825,19.982681,-17.338675,2.0550463,-3.4936514,-13.123909
0.382,34.78133,20.23563,-16.729485,2.0867076,-3.7002916,-13.217356
0.384,35.93086,20.473248,-16.100895,2.1107404,-3.9075341,-13.307989
0.386,37.106766,20.693779,-15.452238,2.1269302,-4.114886,-13.395767
0.388,38.308372,20.895395,-14.783555,2.1350677,-4.321648,-13.480677
0.39,39.535336,21.075882,-14.094835,2.1349902,-4.5269365,-13.562706
0.392,40.7865,21.233158,-13.3865595,2.1265783,-4.7298145,-13.641982
0.394,42.060547,21.365213,-12.659437,2.1098263,-4.929146,-13.718853
0.396,43.355778,21.469822,-11.914431,2.0848007,-5.1236176,-13.793949
0.398,44.669987,21.544687,-11.152578,2.051573,-5.311858,-13.868063
0.4,46.000877,21.587273,-10.375223,2.0102713,-5.4923797,-13.942125
0.402,47.345943,21.594807,-9.583874,1.9610194,-5.663617,-14.017204
0.404,48.702415,21.564257,-8.780457,1.9039307,-5.8239837,-14.0943775
0.406,50.066875,21.492805,-7.966802,1.8390906,-5.971948,-14.174587
0.408,51.435112,21.377926,-7.144886,1.7666264,-6.1059127,-14.258493
0.41,52.803703,21.216738,-6.317315,1.6866431,-6.2242975,-14.3464155
0.412,54.16876,21.006699,-5.4871697,1.5993295,-6.325507,-14.43828
0.414,55.52592,20.745655,-4.6573915,1.5049138,-6.407952,-14.533639
0.416,56.870632,20.432186,-3.8310938,1.4037553,-6.4700384,-14.631832
0.418,58.198887,20.065155,-3.011683,1.2963839,-6.510215,-14.731977
0.42,59.506634,19.643766,-2.2024286,1.1833913,-6.527142,-14.832987
0.422,60.79055,19.167984,-1.4063079,1.0654316,-6.519712,-14.933706
0.424,62.047157,18.638466,-0.6269076,0.9433203,-6.4867916,-15.032984
0.426,63.273247,18.056484,0.13239896,0.81786776,-6.4275746,-15.129559
0.428,64.46557,17.424067,0.8685243,0.68980956,-6.3417206,-15.22197
0.43,65.62188,16.743546,1.5784945,0.5597534,-6.229289,-15.308492
0.432,66.740074,16.017698,2.2592363,0.4282179,-6.0905232,-15.387135
0.434,67.8183,15.250313,2.9075823,0.2955749,-5.9260893,-15.455712
0.436,68.855255,14.445401,3.5204546,0.16203308,-5.7371073,-15.511965
0.438,69.85084,13.607241,4.0947742,0.027735472,-5.524945,-15.553648
0.44,70.804596,12.740844,4.6284447,-0.10729313,-5.2913256,-15.578638
0.442,71.71655,11.8516865,5.119338,-0.24314785,-5.0383935,-15.585005
0.444,72.5871,10.94523,5.5650377,-0.3799777,-4.7684126,-15.571083
0.446,73.417915,10.02677,5.9641104,-0.51790476,-4.483564,-15.535592
0.448,74.210236,9.101207,6.314892,-0.6570239,-4.185969,-15.477631
0.45,74.96497,8.174071,6.615679,-0.7972951,-3.8775315,-15.396668
0.452,75.68191,7.2509546,6.864807,-0.93858385,-3.559884,-15.292604
0.454,76.362625,6.336752,7.06067,-1.0806684,-3.2343383,-15.1657
0.456,77.00843,5.435669,7.2031546,-1.2232456,-2.9018712,-15.016432
0.458,77.621086,4.5519695,7.2926445,-1.366013,-2.5631847,-14.845358
0.46,78.20314,3.689314,7.3301086,-1.5086617,-2.2187417,-14.653061
0.462,78.75568,2.851534,7.3158855,-1.6509986,-1.8689098,-14.440222
0.464,79.28,2.0421581,7.2512054,-1.7929368,-1.5139897,-14.207649
0.466,79.77774,1.2636948,7.137947,-1.9345174,-1.154253,-13.956208
0.468,80.25119,0.5176449,6.9779434,-2.0759306,-0.7900779,-13.6869
0.47,80.7019,-0.19474983,6.773031,-2.2175422,-0.42186236,-13.4008465
0.472,81.13092,-0.8725376,6.5254936,-2.3598685,-0.050092936,-13.099414
0.474,81.53972,-1.5148487,6.23752,-2.5034797,0.32474947,-12.7842245
0.476,81.92904,-2.1212769,5.911804,-2.6490345,0.70214796,-12.457048
0.478,82.29969,-2.6920605,5.5509624,-2.7972245,1.0815432,-12.119742
0.48,82.65248,-3.2283344,5.157711,-2.9487095,1.462513,-11.774214
0.482,82.988396,-3.7314682,4.735092,-3.1041503,1.8446661,-11.42235
0.484,83.308365,-4.2031193,4.2863426,-3.264199,2.2277255,-11.065912
0.486,83.61331,-4.644932,3.813881,-3.429466,2.6115007,-10.706495
0.488,83.90423,-5.0584087,3.3196907,-3.600584,2.9958477,-10.345556
0.49,84.18176,-5.4447117,2.8054733,-3.7781935,3.3806534,-9.984472
0.492,84.44752,-5.8054905,2.2725868,-3.9630404,3.7657406,-9.624529
0.494,84.703064,-6.1425743,1.7227173,-4.1559196,4.1509194,-9.266954
0.496,84.95026,-6.4575586,1.1579247,-4.3576355,4.5360193,-8.9130125
0.498,85.189835,-6.7515135,0.58015823,-4.5690928,4.9207625,-8.563955
0.5,85.42198,-7.0245314,-0.009334564,-4.791253,5.304838,-8.220942
0.502,85.64816,-7.2770176,-0.6093445,-5.025184,5.687849,-7.885034
0.504,85.87017,-7.5093794,-1.2189751,-5.2719717,6.069355,-7.5572724
0.506,86.09041,-7.7216835,-1.8376045,-5.5326166,6.448963,-7.2385955
0.508,86.31156,-7.913562,-2.4645653,-5.808058,6.826297,-6.929707
0.51,86.53653,-8.084258,-3.0993881,-6.099077,7.201179,-6.6310697
0.512,86.76821,-8.232615,-3.7414284,-6.4061565,7.573672,-6.343047
0.514,87.01036,-8.35698,-4.3898163,-6.7295065,7.944037,-6.0659246
0.516,87.26723,-8.455552,-5.043827,-7.069002,8.3128395,-5.799695
0.518,87.544136,-8.526651,-5.7023506,-7.424234,8.680729,-5.544179
0.52,87.84702,-8.568607,-6.3637924,-7.7946205,9.048324,-5.2991734
0.522,88.1826,-8.5795,-7.026333,-8.179405,9.416143,-5.0644994
0.524,88.558815,-8.557327,-7.68853,-8.577731,9.784535,-4.8399734
0.526,88.983826,-8.499977,-8.348228,-8.988783,10.15342,-4.6252546
0.528,89.46647,-8.404894,-9.002674,-9.411928,10.522186,-4.4198546
0.53,90.015144,-8.267815,-9.648642,-9.846683,10.88977,-4.2231956
0.532,90.63762,-8.082974,-10.282753,-10.292747,11.254554,-4.0345774
0.534,91.34332,-7.843902,-10.902336,-10.750109,11.614343,-3.853041
0.536,92.13997,-7.540983,-11.50699,-11.218942,11.966571,-3.6773515
0.538,93.035736,-7.1621466,-12.094479,-11.699528,12.308352,-3.5059705
0.54,94.03313,-6.688104,-12.667753,-12.1922455,12.636694,-3.3369308
0.542,95.138145,-6.1055098,-13.219166,-12.697496,12.948587,-3.1677916
0.544,96.363495,-5.4150615,-13.745069,-13.21564,13.241107,-2.995558
0.546,97.72506,-4.617023,-14.243557,-13.747009,13.511457,-2.8166497
0.548,99.22894,-3.693306,-14.714817,-14.29192,13.756998,-2.6267846
0.55,100.87595,-2.616438,-15.154594,-14.850679,13.975311,-2.4209466
0.552,102.666245,-1.3644009,-15.556552,-15.423587,14.164328,-2.1933568
0.554,104.60269,0.084319115,-15.904322,-16.010813,14.322191,-1.9375746
0.556,106.69996,1.7480688,-16.20969,-16.61249,14.447463,-1.6463312
0.558,108.96794,3.6481848,-16.453415,-17.22858,14.539177,-1.3116024
0.56,111.39513,5.815277,-16.635939,-17.858765,14.596971,-0.9249356
0.562,113.979385,8.27176,-16.739876,-18.502344,14.62122,-0.4777977
0.564,116.71408,11.055684,-16.747013,-19.15801,14.613459,0.03808242
0.566,119.59287,14.213737,-16.67234,-19.823915,14.576222,0.6303462
0.568,122.66924,17.717,-16.506374,-20.497894,14.512551,1.3055122
0.57,125.906136,21.63899,-16.328133,-21.1763,14.426759,2.0680225
0.572,129.33061,25.956026,-16.17491,-21.853785,14.323459,2.9197059
0.574,132.91072,30.711742,-15.992611,-22.524555,14.207007,3.8594623
0.576,136.73001,35.84189,-15.785545,-23.18297,14.0817175,4.8841624
0.578,140.74834,41.36369,-15.56218,-23.82323,13.950644,5.9875293
0.58,144.95013,47.25859,-15.346596,-24.439507,13.813798,7.159237
0.582,149.3455,53.519077,-15.0569,-25.026423,13.668236,8.385602
0.584,153.93713,60.100704,-14.606823,-25.580381,13.507647,9.650804
0.586,158.72163,66.92842,-14.075172,-26.097748,13.322847,10.938902
0.588,163.7087,73.96159,-13.568417,-26.577095,13.098965,12.234626
0.59,168.90385,81.13731,-13.015778,-27.018673,12.815459,13.523019
0.592,174.3165,88.39931,-12.383625,-27.423822,12.450609,14.792637
0.594,179.95448,95.683105,-11.647884,-27.797567,11.980007,16.038347
0.596,185.83887,102.96875,-10.828522,-28.142933,11.3778105,17.259323
0.598,191.92328,110.21791,-9.939373,-28.461655,10.614322,18.46469
0.6,198.23627,117.25572,-8.985714,-28.75087,9.661873,19.671799
0.602,204.69522,124.02539,-7.9781914,-29.004852,8.496266,20.907206
0.604,211.2796,130.40268,-6.845524,-29.218933,7.107728,22.191614
0.606,217.9478,136.19904,-5.578784,-29.408546,5.501279,23.545069
0.608,224.6338,141.34666,-4.158803,-29.593342,3.6781435,24.992836
0.61,231.26662,145.77461,-2.5637393,-29.777218,1.6344395,26.555317
0.612,237.78897,149.40018,-0.73029006,-29.969227,-0.6225023,28.250786
0.614,244.11256,152.15218,1.4121939,-30.194674,-3.071331,30.09136
0.616,250.16653,153.97768,3.9056287,-30.474419,-5.668963,32.04983
0.618,255.85658,154.86874,6.7829523,-30.828167,-8.38138,34.089436
0.62,261.07544,154.82018,10.080465,-31.291746,-11.17415,36.156902
0.622,265.73346,153.82031,13.841002,-31.90828,-14.012972,38.17023
0.624,269.71182,151.88602,18.10537,-32.7088,-16.873922,40.020073
0.626,272.88684,149.06874,22.887007,-33.69054,-19.734964,41.575348
0.628,275.17487,145.42863,28.176907,-34.80691,-22.569094,42.693295
0.63,276.50027,141.05066,33.94896,-35.979164,-25.349836,43.24904
0.632,276.77902,136.05072,40.15785,-37.097076,-28.05358,43.13924
0.634,275.95068,130.54631,46.75007,-38.02332,-30.646175,42.29494
0.636,273.97714,124.656296,53.648087,-38.61629,-33.07892,40.707516
0.638,270.8418,118.50373,60.735798,-38.74626,-35.288246,38.418617
0.64,266.53876,112.212944,67.88758,-38.310677,-37.19895,35.505745
0.642,261.08804,105.90368,74.96788,-37.24881,-38.73059,32.075367
0.644,254.53459,99.68705,81.836876,-35.550957,-39.80042,28.253132
0.646,246.95609,93.66984,88.34157,-33.251472,-40.331,24.165194
0.648,238.44623,87.95294,94.32721,-30.420584,-40.26506,19.925457
0.65,229.12862,82.613014,99.65515,-27.1587,-39.574104,15.639563
0.652,219.13959,77.71861,104.193726,-23.579296,-38.259468,11.408341
0.654,208.62865,73.33018,107.8362,-19.798592,-36.356827,7.337268
0.656,197.75491,69.48644,110.49361,-15.923426,-33.93043,3.5408478
0.658,186.69455,66.19175,112.105896,-12.045197,-31.07545,0.15272522
0.66,175.63051,63.430466,112.63959,-8.232106,-27.90321,-2.6956773
0.662,164.7373,61.182774,112.09172,-4.5537577,-24.517052,-4.895918
0.664,154.17812,59.41461,110.491844,-1.0922794,-21.01611,-6.369096
0.666,144.09279,58.081154,107.92012,2.0850668,-17.504854,-7.0841756
0.668,134.61476,57.126778,104.442856,4.9310703,-14.085568,-7.0633283
0.67,125.875114,56.484203,100.177246,7.401369,-10.856616,-6.3654075
0.672,117.9571,56.09397,95.24921,9.470804,-7.8841696,-5.115324
0.674,110.925316,55.87475,89.798004,11.15036,-5.2221365,-3.4744818
0.676,104.82848,55.728863,83.99749,12.474329,-2.913279,-1.6126379
0.678,99.63697,55.62195,77.9853,13.48703,-0.9824102,0.30414665
0.68,95.38705,55.425503,71.95216,14.237092,0.5564234,2.1260707
0.682,92.02082,55.115784,66.00833,14.781793,1.7019298,3.7290246
0.684,89.518875,54.60134,60.167732,15.196036,2.4775853,5.0087576
0.686,87.741684,53.89136,54.50049,15.557361,2.934654,5.898795
0.688,86.66886,52.91436,49.054897,15.934891,3.1397083,6.3669386
0.69,86.22715,51.654423,43.868477,16.391369,3.1717308,6.401009
0.692,86.31344,50.095802,38.872242,16.975016,3.1191406,6.02453
0.694,86.834755,48.26951,34.01573,17.71377,3.0731747,5.2980576
0.696,87.70336,46.23486,29.38801,18.618515,3.1223407,4.308632
0.698,88.82268,44.02036,25.041433,19.684265,3.3407335,3.1648273
0.7,90.1086,41.685062,20.842503,20.886602,3.7793584,1.9951593
0.702,91.48273,39.28609,16.725113,22.187838,4.469169,0.9370254
0.704,92.87798,36.894424,12.647104,23.541494,5.418041,0.12010336
0.706,94.22673,34.5488,8.612459,24.892408,6.608759,-0.3444854
0.708,95.52736,32.320965,4.6162276,26.17838,7.9978,-0.37087744
0.71,96.70535,30.391018,0.650933,27.332922,9.518148,0.09494251
0.712,97.79202,28.793428,-3.2761059,28.290388,11.08834,1.0704916
0.714,98.742,27.61774,-7.2113967,28.992205,12.618147,2.5380807
0.716,99.532,26.97334,-11.111506,29.390661,14.014436,4.4473033
0.718,100.15644,26.825472,-14.934203,29.452917,15.189418,6.715418
0.72,100.60228,27.15057,-18.630857,29.16315,16.066715,9.229379
0.722,100.83869,27.936506,-22.179039,28.522192,16.589296,11.853054
0.724,100.86185,29.155283,-25.543861,27.546629,16.724205,14.4390545
0.726,100.64754,30.762512,-28.656742,26.266594,16.462587,16.840755
0.728,100.194885,32.682056,-31.450115,24.72347,15.819283,18.925514
0.73,99.51111,34.853558,-33.87438,22.966118,14.830805,20.588068
0.732,98.58693,37.23414,-35.899876,21.046358,13.550445,21.760895
0.734,97.442894,39.762897,-37.509018,19.015388,12.042406,22.417845
0.736,96.10063,42.364708,-38.67793,16.920479,10.375153,22.573055
0.738,94.55063,44.979015,-39.390305,14.802801,8.615187,22.277374
0.74,92.79404,47.543617,-39.645912,12.6965475,6.8222275,21.610537
0.742,90.85811,49.992043,-39.457977,10.629247,5.0462885,20.670008
0.744,88.762146,52.282745,-38.859806,8.622604,3.3266497,19.558903
0.746,86.52443,54.39096,-37.88664,6.693611,1.6918669,18.375164
0.748,84.166595,56.299583,-36.56321,4.856294,0.16109037,17.203363
0.75,81.72272,57.997974,-34.930786,3.122668,-1.2552104,16.108637
0.752,79.22194,59.48468,-33.037018,1.5023041,-2.554136,15.132964
0.754,76.68947,60.766655,-30.932587,0.0027222633,-3.7361255,14.296241
0.756,74.14249,61.85079,-28.65746,-1.370431,-4.8025346,13.602258
0.758,71.60408,62.745445,-26.2515,-2.6135664,-5.7578225,13.042127
0.76,69.089806,63.470894,-23.757393,-3.723846,-6.6089454,12.596604
0.762,66.61509,64.05031,-21.216278,-4.698721,-7.3621097,12.241568
0.764,64.190506,64.50798,-18.66324,-5.5370593,-8.022278,11.952921
0.766,61.827003,64.865005,-16.122143,-6.240202,-8.594023,11.709535
0.768,59.533783,65.13892,-13.615764,-6.8125215,-9.082282,11.494285
0.77,57.31679,65.345375,-11.164797,-7.2606525,-9.492635,11.294633
0.772,55.18215,65.49675,-8.787098,-7.5930605,-9.831002,11.103118
0.774,53.132397,65.605,-6.503713,-7.820202,-10.103887,10.917201
0.776,51.170277,65.679344,-4.325603,-7.9536963,-10.318735,10.737507
0.778,49.295,65.72278,-2.2552261,-8.005353,-10.483738,10.565646
0.78,47.50497,65.73366,-0.30172333,-7.986768,-10.607449,10.403058
0.782,45.805794,65.70755,1.522354,-7.909115,-10.698325,10.250482
0.784,44.194576,65.646095,3.212025,-7.782799,-10.76446,10.107401
0.786,42.65718,65.56135,4.766781,-7.617066,-10.813261,9.97177
0.788,41.187664,65.46183,6.193803,-7.419746,-10.851238,9.840207
0.79,39.782997,65.346275,7.5089674,-7.1972675,-10.883806,9.708475
0.792,38.44224,65.211685,8.726642,-6.9547434,-10.915094,9.571927
0.794,37.16108,65.05729,9.860748,-6.696162,-10.947977,9.4260845
0.796,35.934387,64.88435,10.924477,-6.4245176,-10.984136,9.267078
0.798,34.756126,64.688385,11.933471,-6.142028,-11.024197,9.09211
0.8,33.62023,64.46106,12.900299,-5.850293,-11.067931,8.899613
0.802,32.51861,64.19545,13.833799,-5.5504446,-11.114288,8.689213
0.804,31.442808,63.885094,14.741383,-5.243283,-11.161561,8.461544
0.806,30.386518,63.52362,15.631072,-4.929398,-11.207506,8.21806
0.808,29.345036,63.10614,16.509388,-4.60925,-11.2495,7.9607015
0.81,28.31419,62.629898,17.380527,-4.2832446,-11.284695,7.6916347
0.812,27.290785,62.093872,18.24701,-3.9517858,-11.3101425,7.413001
0.814,26.271912,61.498352,19.111282,-3.6154053,-11.322941,7.126847
0.816,25.255388,60.84523,19.976044,-3.2747443,-11.320301,6.8349943
0.818,24.239523,60.13731,20.843317,-2.930619,-11.299675,6.539048
0.82,23.223354,59.37765,21.713806,-2.584063,-11.25887,6.2403846
0.822,22.205696,58.569813,22.58766,-2.2362845,-11.196112,5.9402523
0.824,21.18618,57.716866,23.464573,-1.8886445,-11.110052,5.639786
0.826,20.164373,56.82182,24.34384,-1.5425775,-10.999914,5.340007
0.828,19.139849,55.887157,25.224545,-1.1995053,-10.8654175,5.041836
0.83,18.112799,54.9149,26.105103,-0.8607347,-10.70672,4.7461233
0.832,17.08339,53.906715,26.983627,-0.52734137,-10.524366,4.453541
0.834,16.051754,52.86454,27.857435,-0.20007372,-10.319267,4.164571
0.836,15.018258,51.789925,28.723415,0.1207329,-10.092464,3.8794837
0.838,13.983476,50.684338,29.577816,0.43520522,-9.845034,3.5983648
0.84,12.948193,49.54907,30.41669,0.74395144,-9.577955,3.3212306
0.842,11.913083,48.38575,31.235569,1.0480132,-9.2920475,3.0481818
0.844,10.879282,47.196236,32.029682,1.3487881,-8.987861,2.7795339
0.846,9.848174,45.982594,32.79392,1.6478678,-8.6657095,2.5159173
0.848,8.821453,44.747353,33.52283,1.9468155,-8.325702,2.2582903
0.85,7.800824,43.49361,34.2106,2.2469778,-7.967823,2.0080204
0.852,6.7879105,42.224888,34.851128,2.5492787,-7.59197,1.7668028
0.854,5.7851315,40.944588,35.438446,2.85405,-7.198089,1.5366077
0.856,4.7954426,39.65614,35.966454,3.1608932,-6.7863016,1.3195364
0.858,3.8213453,38.363537,36.42865,3.4686215,-6.356987,1.117672
0.86,2.8657956,37.071117,36.818798,3.7752104,-5.9109626,0.9328449
0.862,1.931663,35.78306,37.130836,4.077886,-5.449504,0.76654863
0.864,1.0219326,34.503654,37.359,4.3733015,-4.9742293,0.619794
0.866,0.13962555,33.237267,37.498463,4.657716,-4.487076,0.49294782
0.868,-0.7127609,31.988293,37.545216,4.927242,-3.9902425,0.38568044
0.87,-1.5319653,30.761185,37.49602,5.1779804,-3.4861765,0.2969867
0.872,-2.3153214,29.560184,37.348557,5.4062247,-2.9775069,0.22523868
0.874,-3.0599244,28.389635,37.101772,5.608657,-2.4670262,0.16831821
0.876,-3.763359,27.253695,36.7559,5.7824388,-1.9576478,0.12375796
0.878,-4.4231443,26.156395,36.312523,5.9252462,-1.452393,0.08896905
0.88,-5.0374546,25.101501,35.774242,6.035319,-0.9543673,0.061390698
0.882,-5.6045227,24.09225,35.144848,6.1114435,-0.46676016,0.0386813
0.884,-6.122756,23.13177,34.429615,6.1528745,0.0072000623,0.018936872
0.886,-6.5912714,22.222427,33.63457,6.159282,0.46430922,0.00078769214
0.888,-7.009597,21.366219,32.76705,6.13069,0.9014375,-0.016561806
0.89,-7.377454,20.56445,31.835367,6.067402,1.3155328,-0.033331573
0.892,-7.694766,19.818161,30.848438,5.9699583,1.7036626,-0.049238652
0.894,-7.9616323,19.12778,29.815575,5.8390794,2.0631084,-0.06367418
0.896,-8.178555,18.493303,28.746439,5.6756945,2.3914237,-0.075936705
0.898,-8.346596,17.914074,27.650837,5.4809346,2.68648,-0.08544472
0.9,-8.466714,17.38902,26.538568,5.2561874,2.9465113,-0.091926455
0.902,-8.540414,16.91625,25.41923,5.0031447,3.1701605,-0.09558308
0.904,-8.56925,16.493425,24.302496,4.723828,3.3565385,-0.09725833
0.906,-8.5551,16.117588,23.197794,4.420616,3.505228,-0.09847188
0.908,-8.500396,15.785332,22.113758,4.0962377,3.6163175,-0.101386726
0.91,-8.406873,15.492395,21.058533,3.7537289,3.6904082,-0.108704686
0.912,-8.277543,15.234558,20.039396,3.396356,3.7285585,-0.12349677
0.914,-8.114916,15.007139,19.062588,3.027519,3.7323153,-0.14895153
0.916,-7.9219203,14.805174,18.13334,2.6506324,3.703606,-0.18817401
0.918,-7.7013593,14.623426,17.256107,2.2689757,3.644578,-0.24398321
0.92,-7.4560556,14.456779,16.434208,1.8855882,3.5575855,-0.31869155
0.922,-7.1890683,14.300326,15.670153,1.5031993,3.4451299,-0.41396797
0.924,-6.903039,14.149466,14.9654255,1.1242017,3.3098817,-0.53070104
0.926,-6.6004844,13.999607,14.320602,0.75063634,3.1546206,-0.6689597
0.928,-6.284033,13.846591,13.735146,0.38417974,2.9821978,-0.82797986
0.93,-5.956304,13.686862,13.208082,0.026151031,2.795506,-1.0062255
0.932,-5.6196313,13.517337,12.73772,-0.32240593,2.5974693,-1.201484
0.934,-5.2768326,13.335766,12.32218,-0.6607277,2.3910358,-1.4109823
0.936,-4.9301624,13.1405115,11.959463,-0.9883125,2.179143,-1.6315504
0.938,-4.581504,12.93051,11.646699,-1.3048755,1.9646676,-1.8598506
0.94,-4.232988,12.705275,11.380678,-1.6103362,1.7504184,-2.0925064
0.942,-3.886279,12.465081,11.157583,-1.9047897,1.5390887,-2.326253
0.944,-3.542722,12.210642,10.9734535,-2.188459,1.3331906,-2.5580854
0.946,-3.2037053,11.943208,10.824165,-2.4616807,1.1350403,-2.785336
0.948,-2.8706865,11.664696,10.70544,-2.7248333,0.9466644,-3.0057318
0.95,-2.5447865,11.377361,10.612924,-2.9783227,0.7697772,-3.2173905
0.952,-2.2267766,11.083675,10.542477,-3.2225266,0.60574806,-3.4188395
0.954,-1.917623,10.786138,10.490212,-3.4577909,0.4555966,-3.608955
0.956,-1.6181498,10.487661,10.452274,-3.684372,0.32001138,-3.7869365
0.958,-1.3290198,10.190958,10.42506,-3.9024627,0.1993669,-3.952244
0.96,-1.0506277,9.898598,10.40503,-4.112205,0.09374548,-4.1045747
0.962,-0.7833731,9.613214,10.389097,-4.3136563,0.003012193,-4.2437587
0.964,-0.5276363,9.337515,10.374157,-4.506798,-0.0731563,-4.369783
0.966,-0.2837422,9.073786,10.35763,-4.691522,-0.13508083,-4.482854
0.968,-0.051786184,8.824127,10.337202,-4.8677363,-0.18321095,-4.583293
0.97,0.1680417,8.590379,10.310657,-5.035324,-0.21811911,-4.67153
0.972,0.3756404,8.374369,10.276251,-5.1941614,-0.24038535,-4.7480507
0.974,0.5711136,8.17762,10.232306,-5.3441014,-0.25060236,-4.8133984
0.976,0.7548213,8.001259,10.17739,-5.48502,-0.2493726,-4.868181
0.978,0.9272771,7.84614,10.1103115,-5.616824,-0.23733865,-4.91308
0.98,1.0888493,7.7128115,10.030107,-5.739507,-0.2151807,-4.948814
0.982,1.240411,7.6016297,9.936189,-5.853201,-0.18360156,-4.9761276
0.984,1.3825579,7.5127797,9.828195,-5.9581285,-0.14338487,-4.9957724
0.986,1.5162404,7.446025,9.705971,-6.05466,-0.09536119,-5.0084915
0.988,1.642251,7.401053,9.569598,-6.143288,-0.040442094,-5.014975
0.99,1.7617061,7.3773584,9.419243,-6.224594,0.020383805,-5.0158772
0.992,1.875709,7.374157,9.255324,-6.299238,0.086058676,-5.0117855
0.994,1.9853094,7.3905296,9.078133,-6.367954,0.15544152,-5.0032225
0.996,2.091777,7.425394,8.888089,-6.431512,0.22735369,-4.990668
0.998,2.1965275,7.477626,8.685691,-6.490724,0.30064374,-4.9745665
1,2.300787,7.5459023,8.471654,-6.5464063,0.3742115,-4.9553123
1.002,2.4057338,7.629007,8.246663,-6.599419,0.44705802,-4.9332743
1.004,2.512365,7.725564,8.011677,-6.65059,0.51837313,-4.908774
1.006,2.621778,7.8342648,7.767537,-6.7007575,0.5875466,-4.88208
1.008,2.7351472,7.9537606,7.515153,-6.750696,0.65419126,-4.853382
1.01,2.853362,8.08276,7.255208,-6.8011384,0.7181104,-4.8228197
1.012,2.9770725,8.220059,6.988575,-6.8527093,0.7792768,-4.790444
1.014,3.1069136,8.364503,6.7161164,-6.9058647,0.83785796,-4.756211
1.016,3.2434072,8.515215,6.4384885,-6.960914,0.894124,-4.720009
1.018,3.387181,8.671163,6.1565,-7.017971,0.94840604,-4.681615
1.02,3.5382247,8.831474,5.8710327,-7.076911,1.0010068,-4.6407
1.022,3.6969461,8.995262,5.5829372,-7.1373305,1.0523177,-4.5969596
1.024,3.8631563,9.161593,5.293057,-7.19865,1.102814,-4.5501533
1.026,4.0371056,9.329622,5.002207,-7.260129,1.1529408,-4.500072
1.028,4.218477,9.498596,4.7112923,-7.320918,1.2031752,-4.446586
1.03,4.4070797,9.667589,4.4212265,-7.380126,1.2540249,-4.3896904
1.032,4.6024556,9.835945,4.13282,-7.4368515,1.3060461,-4.329499
1.034,4.804244,10.002742,3.8470926,-7.490226,1.3598486,-4.266248
1.036,5.0118694,10.167319,3.5647376,-7.5394773,1.4160856,-4.200344
1.038,5.2248917,10.328853,3.2865934,-7.583946,1.4754682,-4.1323333
1.04,5.442664,10.486671,3.013222,-7.6231346,1.538658,-4.0628624
1.042,5.6644597,10.639985,2.7454607,-7.6567054,1.6062444,-3.992686
1.044,5.889845,10.788023,2.4839349,-7.6844783,1.6787469,-3.9225535
1.046,6.118144,10.93016,2.2290206,-7.7064004,1.756561,-3.8532157
1.048,6.34818,11.065717,1.9815633,-7.722505,1.8399224,-3.7854176
1.05,6.5793962,11.194285,1.7420056,-7.7329483,1.9288452,-3.7198002
1.052,6.8109684,11.315303,1.5108566,-7.7379794,2.0231066,-3.6568766
1.054,7.0419445,11.428274,1.2884407,-7.737883,2.1222608,-3.5970438
1.056,7.271468,11.532816,1.0751199,-7.733028,2.2256575,-3.5405314
1.058,7.49886,11.628549,0.8710668,-7.723778,2.3324575,-3.4874353
1.06,7.7232175,11.71521,0.6764564,-7.7105227,2.4417286,-3.4376955
1.062,7.9436517,11.7925825,0.49131733,-7.693593,2.552507,-3.3911645
1.064,8.159366,11.860723,0.31561047,-7.673221,2.6639009,-3.3476288
1.066,8.369611,11.919583,0.14937031,-7.6495285,2.7751622,-3.3068495
1.068,8.573443,11.969371,-0.0073382705,-7.622473,2.8856664,-3.2686183
1.07,8.770299,12.010311,-0.15470284,-7.591837,2.995017,-3.2327409
1.072,8.959379,12.042508,-0.2928179,-7.557239,3.103031,-3.1991231
1.074,9.139892,12.065908,-0.42167115,-7.518173,3.2097287,-3.167682
1.076,9.311291,12.080833,-0.54147196,-7.474044,3.3153095,-3.1383536
1.078,9.472972,12.087577,-0.6525054,-7.4241743,3.4200754,-3.1110725
1.08,9.6242285,12.086505,-0.7551631,-7.3679304,3.5243893,-3.085737
1.082,9.76479,12.077925,-0.8501694,-7.3047523,3.628604,-3.0621421
1.084,9.89421,12.062313,-0.9379306,-7.234211,3.7330413,-3.0399654
1.086,10.012238,12.040208,-1.0191622,-7.156039,3.8379574,-3.018804
1.088,10.1186,12.012043,-1.0946162,-7.070175,3.9434977,-2.9981673
1.09,10.213361,11.978314,-1.165175,-6.9767437,4.0496683,-2.9775164
1.092,10.296545,11.939564,-1.231806,-6.876043,4.156368,-2.9562778
1.094,10.368486,11.896342,-1.2956891,-6.7685046,4.263416,-2.9338942
1.096,10.429575,11.849214,-1.3578753,-6.6561356,4.365639,-2.9128776
1.098,10.480212,11.798687,-1.4194443,-6.5375733,4.4693365,-2.8887227
1.1,10.520964,11.745208,-1.4815097,-6.4144588,4.570799,-2.8631096
1.102,10.552496,11.689346,-1.5450044,-6.287613,4.669123,-2.836023
1.104,10.575537,11.631449,-1.6109753,-6.157811,4.763455,-2.807481
1.106,10.590845,11.572034,-1.6801353,-6.0257645,4.853107,-2.7775
1.108,10.59951,11.5112705,-1.7530966,-5.892069,4.937677,-2.7460089
1.11,10.60256,11.449359,-1.8305373,-5.757121,5.0172005,-2.712812
1.112,10.601129,11.386286,-1.912807,-5.621166,5.0922065,-2.6775424
1.114,10.596591,11.322026,-2.000348,-5.484256,5.163694,-2.6397002
1.116,10.590131,11.256387,-2.0931435,-5.3462887,5.2330556,-2.5987506
1.118,10.583065,11.189192,-2.1914175,-5.2070656,5.3018413,-2.5542235
1.12,10.57646,11.119922,-2.295012,-5.066374,5.3715215,-2.505865
1.122,10.571734,11.048233,-2.4037666,-4.9240646,5.443242,-2.4537601
1.124,10.569879,10.973554,-2.5177917,-4.7801294,5.5175714,-2.3983915
1.126,10.571937,10.895246,-2.6367843,-4.6347256,5.5944543,-2.3406289
1.128,10.578831,10.812667,-2.7606251,-4.4881916,5.673228,-2.281679
1.13,10.591191,10.725376,-2.8892927,-4.341011,5.752793,-2.2229223
1.132,10.609429,10.632807,-3.0226183,-4.193785,5.831825,-2.1657734
1.134,10.63382,10.534657,-3.1605341,-4.047123,5.9090605,-2.111565
1.136,10.664378,10.430575,-3.3029106,-3.9016297,5.9834456,-2.0614066
1.138,10.7009325,10.320361,-3.4497569,-3.757851,6.054243,-2.0161104
1.14,10.743125,10.203917,-3.600942,-3.6162646,6.1210346,-1.9761862
1.142,10.790361,10.081183,-3.756439,-3.4772737,6.183681,-1.9418843
1.144,10.841782,9.952359,-3.916256,-3.3412418,6.2422,-1.913238
1.146,10.896394,9.817832,-4.080229,-3.2085009,6.296632,-1.8901181
1.148,10.953059,9.677887,-4.2482157,-3.0793514,6.3469305,-1.8722706
1.15,11.01066,9.533007,-4.420041,-2.9532464,6.395807,-1.8575772
1.152,11.0678835,9.383747,-4.5956635,-2.8325443,6.435959,-1.8499303
1.154,11.123459,9.230717,-4.7749577,-2.7161398,6.4716444,-1.8459895
1.156,11.176115,9.07441,-4.957534,-2.6043372,6.502223,-1.8454177
1.158,11.224586,8.915599,-5.143085,-2.4973998,6.5271177,-1.8478231
1.16,11.26758,8.754911,-5.3310957,-2.3955417,6.5458508,-1.8527801
1.162,11.304121,8.592861,-5.5211296,-2.2989516,6.5580974,-1.8598665
1.164,11.333105,8.429929,-5.7124906,-2.2077765,6.563678,-1.8686529
1.166,11.353974,8.266471,-5.904608,-2.122124,6.562571,-1.8787687
1.168,11.36618,8.102779,-6.0967016,-2.0420456,6.5549197,-1.88988
1.17,11.369259,7.9390597,-6.2880955,-1.9675305,6.540992,-1.9017018
1.172,11.36304,7.7755303,-6.477834,-1.8985026,6.5211916,-1.9140458
1.174,11.347539,7.6120024,-6.6651173,-1.8347933,6.4960036,-1.9268135
1.176,11.32278,7.4484344,-6.8490195,-1.7761793,6.465984,-1.9400024
1.178,11.288843,7.2847004,-7.028659,-1.7223418,6.4317656,-1.9536889
1.18,11.246544,7.1202607,-7.2030168,-1.6728976,6.394024,-1.9679787
1.182,11.196347,6.9548874,-7.3712015,-1.6274049,6.353439,-1.9829938
1.184,11.138882,6.7884316,-7.532467,-1.5853794,6.310692,-1.9988619
1.186,11.075041,6.620403,-7.6858363,-1.5462992,6.266459,-2.0156446
1.188,11.0056715,6.4503613,-7.830685,-1.5096422,6.2213826,-2.0333054
1.19,10.931708,6.2778997,-7.966128,-1.4748799,6.1760736,-2.0517352
1.192,10.854066,6.102683,-8.09143,-1.4414752,6.1310744,-2.0707436
1.194,10.773781,5.9240823,-8.206323,-1.4089181,6.0868726,-2.0900717
1.196,10.691641,5.7419777,-8.310104,-1.3767364,6.0438905,-2.1094294
1.198,10.608567,5.5561943,-8.402525,-1.3444757,6.0024724,-2.1284962
1.2,10.52527,5.3666096,-8.483139,-1.3117223,5.9629126,-2.146979
1.202,10.442526,5.173287,-8.551789,-1.2781159,5.9254336,-2.1646328
1.204,10.360795,4.976152,-8.608055,-1.2433332,5.890179,-2.1812692
1.206,10.280926,4.7752657,-8.652066,-1.2071042,5.8572392,-2.196779
1.208,10.204009,4.570706,-8.684061,-1.1692071,5.826669,-2.2111368
1.21,10.130297,4.3628016,-8.704088,-1.1294643,5.7984753,-2.2243197
1.212,10.059948,4.152051,-8.712277,-1.0877422,5.7725782,-2.236343
1.214,9.9932375,3.9389842,-8.708986,-1.0439394,5.748881,-2.2472327
1.216,9.930477,3.7240238,-8.694744,-0.99799836,5.727237,-2.2570343
1.218,9.871712,3.507841,-8.670069,-0.9498966,5.707427,-2.2657933
1.22,9.817046,3.291029,-8.635405,-0.8996777,5.689168,-2.2735326
1.222,9.766521,3.074244,-8.591351,-0.8474558,5.6720953,-2.280269
1.224,9.720032,2.858019,-8.538524,-0.7933965,5.6557636,-2.2859752
1.226,9.677433,2.6430948,-8.477649,-0.7377465,5.639615,-2.2906091
1.228,9.638577,2.429984,-8.409162,-0.68079865,5.62303,-2.2941046
1.23,9.603334,2.219313,-8.333703,-0.6228821,5.605306,-2.2963479
1.232,9.571355,2.0114698,-8.25193,-0.5643734,5.58569,-2.297213
1.234,9.542618,1.8069904,-8.16416,-0.50562924,5.56345,-2.2965508
1.236,9.516751,1.6062434,-8.07103,-0.44705576,5.537855,-2.2942336
1.238,9.493378,1.4096237,-7.9730415,-0.38903195,5.5081844,-2.2901273
1.24,9.472416,1.2173779,-7.8705797,-0.3318674,5.473871,-2.2841022
1.242,9.453646,1.0296743,-7.7641907,-0.27578223,5.434566,-2.2760985
1.244,9.436819,0.84674656,-7.65417,-0.22092783,5.390083,-2.2661257
1.246,9.421541,0.66862476,-7.5409145,-0.16740227,5.340432,-2.2542799
1.248,9.407791,0.49523258,-7.4247837,-0.11523193,5.285774,-2.240733
1.25,9.395418,0.32652557,-7.3060684,-0.06439108,5.226404,-2.2257004
1.252,9.384116,0.16237593,-7.1851473,-0.014807165,5.1627107,-2.2094517
1.254,9.373773,0.002535224,-7.062272,0.03361422,5.095124,-2.1922174
1.256,9.364108,-0.15326798,-6.9377227,0.08098537,5.024103,-2.1741915
1.258,9.355029,-0.30529332,-6.812001,0.1274494,4.95012,-2.1555254
1.26,9.346359,-0.4538256,-6.68526,0.17313218,4.873652,-2.1363056
1.262,9.337923,-0.5991734,-6.5577874,0.21817374,4.795167,-2.116578
1.264,9.329573,-0.7417402,-6.429956,0.26270127,4.715156,-2.0963845
1.266,9.321208,-0.88158226,-6.3018503,0.30681545,4.6341524,-2.0757587
1.268,9.313124,-1.0190681,-6.174024,0.3505789,4.5526752,-2.0547194
1.27,9.304483,-1.1542783,-6.0466833,0.39402115,4.4712305,-2.0332694
1.272,9.294538,-1.2870876,-5.9195695,0.4371481,4.39032,-2.01141
1.274,9.284017,-1.4178983,-5.7934265,0.4799413,4.3104,-1.9891343
1.276,9.272711,-1.5467879,-5.668472,0.522371,4.2318425,-1.9664279
1.278,9.260457,-1.6737261,-5.544792,0.5643977,4.1549754,-1.9432514
1.28,9.247307,-1.7985728,-5.4224777,0.60596937,4.0800514,-1.919485
1.282,9.233194,-1.9213219,-5.301842,0.64705586,4.0072503,-1.8949771
1.284,9.218109,-2.0415006,-5.182885,0.6876603,3.9367218,-1.8695432
1.286,9.201939,-2.158769,-5.0658603,0.7277893,3.8685954,-1.8429797
1.288,9.184348,-2.272697,-4.9503946,0.7674707,3.8029647,-1.8150752
1.29,9.165449,-2.3827043,-4.8366694,0.8067691,3.739975,-1.7856071
1.292,9.145523,-2.4886203,-4.7248354,0.8457187,3.6798341,-1.7544137
1.294,9.12473,-2.5900106,-4.6147847,0.8843125,3.6226852,-1.721384
1.296,9.103066,-2.686449,-4.506647,0.92254287,3.5685835,-1.6863734
1.298,9.080811,-2.7774634,-4.400243,0.960334,3.5175805,-1.649273
1.3,9.058173,-2.8625844,-4.2955914,0.9976659,3.4697802,-1.6100917
1.302,9.035067,-2.9413018,-4.1926894,1.0345433,3.4254117,-1.5688844
1.304,9.011829,-3.0132146,-4.091386,1.0708729,3.3845332,-1.5257461
1.306,8.988581,-3.0781178,-3.9917533,1.1065068,3.3470244,-1.4807816
1.308,8.965744,-3.135725,-3.8937445,1.1412895,3.3127801,-1.4341683
1.31,8.943381,-3.185761,-3.797348,1.1750804,3.2816749,-1.3861142
1.312,8.921607,-3.22816,-3.702508,1.207729,3.2535372,-1.3368583
1.314,8.901049,-3.2627888,-3.6093252,1.2390614,3.2281344,-1.2866302
1.316,8.881262,-3.28936,-3.5175495,1.2689002,3.2052577,-1.2357124
1.318,8.862154,-3.3077931,-3.4270377,1.2971054,3.1848187,-1.1844283
1.32,8.844297,-3.318386,-3.3378823,1.3235222,3.166747,-1.1330612
1.322,8.827848,-3.3213096,-3.2502122,1.3479962,3.1509244,-1.0818033
1.324,8.813095,-3.3168383,-3.1639209,1.3704035,3.1372495,-1.030765
1.326,8.799767,-3.3051195,-3.0790505,1.3906705,3.1256533,-0.97997
1.328,8.787872,-3.2864275,-2.9955313,1.4088066,3.116082,-0.9293384
1.33,8.777415,-3.2610254,-2.913463,1.4248452,3.1084528,-0.878722
1.332,8.768351,-3.2291722,-2.8328266,1.4388771,3.1026926,-0.8279422
1.334,8.760614,-3.1911764,-2.753618,1.4510698,3.0987668,-0.7768552
1.336,8.754145,-3.1474836,-2.6758661,1.4615883,3.0966692,-0.7253314
1.338,8.748932,-3.0985315,-2.5994728,1.4706005,3.0964117,-0.673288
1.34,8.744815,-3.0446758,-2.5245476,1.4782715,3.098027,-0.6207156
1.342,8.741763,-2.9864256,-2.4510887,1.4847329,3.1015792,-0.5676438
1.344,8.739527,-2.9243407,-2.3793023,1.4901018,3.1070824,-0.5141377
1.346,8.737969,-2.8589153,-2.3092542,1.4944758,3.114505,-0.46025896
1.348,8.7369995,-2.790742,-2.2408826,1.4979284,3.123767,-0.40606284
1.35,8.736263,-2.7204456,-2.1743228,1.5005122,3.1347659,-0.35163236
1.352,8.735527,-2.6484973,-2.1096108,1.5023344,3.147357,-0.29702485
1.354,8.734617,-2.5757532,-2.046932,1.5034258,3.161253,-0.24226153
1.356,8.733284,-2.5027506,-1.9862261,1.5037901,3.1760702,-0.18743765
1.358,8.731014,-2.430053,-1.9274478,1.5034833,3.1915734,-0.1327374
1.36,8.7275715,-2.3583171,-1.8707011,1.5025063,3.2075903,-0.078398705
1.362,8.722746,-2.2880783,-1.815835,1.500748,3.2237952,-0.024681926
1.364,8.71614,-2.2199779,-1.7628248,1.4980192,3.239808,0.028165221
1.366,8.707602,-2.1545415,-1.7116332,1.4940896,3.2552748,0.07989502
1.368,8.696707,-2.0921056,-1.6619742,1.488708,3.2698483,0.1302886
1.37,8.683242,-2.0331342,-1.613869,1.4816074,3.2831476,0.179227
1.372,8.666812,-1.9780052,-1.5671642,1.4725184,3.2947516,0.22669089
1.374,8.64729,-1.9267964,-1.5216055,1.4612396,3.3043318,0.2726915
1.376,8.624489,-1.8799474,-1.4772084,1.4476247,3.3116546,0.31726903
1.378,8.597929,-1.8373802,-1.4335749,1.4315531,3.3165176,0.36052066
1.38,8.568174,-1.7992487,-1.3906431,1.4129307,3.3187468,0.4025817
1.382,8.535413,-1.7656386,-1.3487468,1.3917289,3.318263,0.4436025
1.384,8.498796,-1.7361834,-1.3072789,1.3679765,3.3150587,0.48375607
1.386,8.458351,-1.710717,-1.2661722,1.3417292,3.3091753,0.5231961
1.388,8.414149,-1.689039,-1.2253246,1.3130633,3.3007004,0.5620595
1.39,8.36639,-1.6710277,-1.1848962,1.2820885,3.289755,0.6004409
1.392,8.315176,-1.6564116,-1.1447582,1.2489336,3.2765028,0.6383789
1.394,8.260712,-1.6449924,-1.1049671,1.2137432,3.2611065,0.67589283
1.396,8.203133,-1.636547,-1.0654731,1.1766602,3.2437289,0.7129401
1.398,8.143122,-1.6308911,-1.0268042,1.1378303,3.2245362,0.74944776
1.4,8.080344,-1.6275678,-0.9887197,1.0974026,3.2036731,0.7853213
1.402,8.014931,-1.6260923,-0.9512906,1.0555292,3.1812775,0.820429
1.404,7.947298,-1.6263958,-0.91470385,1.0123526,3.1574383,0.8546309
1.406,7.8777065,-1.628264,-0.87913847,0.9679976,3.1322267,0.88778424
1.408,7.8062735,-1.6315019,-0.84467554,0.9225824,3.105683,0.919741
1.41,7.733229,-1.6359491,-0.81161976,0.8762122,3.0778332,0.9503597
1.412,7.659026,-1.6416073,-0.77999544,0.82898027,3.0486841,0.97950786
1.414,7.583603,-1.6482092,-0.7498994,0.7809578,3.0182068,1.0070748
1.416,7.507437,-1.6557165,-0.7215543,0.73221374,2.9863687,1.032974
1.418,7.4303913,-1.6639918,-0.69489,0.6828018,2.953138,1.0571209
1.42,7.3527927,-1.6730694,-0.6700189,0.63277096,2.9184747,1.0794555
1.422,7.2747993,-1.6828201,-0.6469612,0.5821649,2.8823225,1.0999441
1.424,7.1963277,-1.6932178,-0.62571454,0.5310488,2.8446422,1.1185555
1.426,7.11777,-1.7041824,-0.6063063,0.4794886,2.8054302,1.1352564
1.428,7.039072,-1.7157902,-0.5885346,0.42754388,2.7646892,1.1500394
1.43,6.960209,-1.7278708,-0.5724275,0.37528467,2.722456,1.1629109
1.432,6.8815513,-1.740537,-0.55781865,0.32279456,2.6787872,1.1739103
1.434,6.802946,-1.7536763,-0.54462934,0.27018225,2.633786,1.1831062
1.436,6.724783,-1.7672989,-0.532717,0.21755993,2.5875764,1.1905667
1.438,6.6470723,-1.7812941,-0.52205086,0.16504455,2.5403225,1.1963624
1.44,6.5698724,-1.7956011,-0.5123675,0.11276615,2.4922066,1.2005694
1.442,6.4933615,-1.8102643,-0.50362206,0.060840726,2.4434237,1.2032619
1.444,6.4177837,-1.825121,-0.495641,0.009378791,2.3942,1.2044894
1.446,6.343236,-1.8401918,-0.48825145,-0.041510105,2.344751,1.2043128
1.448,6.2699156,-1.8553759,-0.481385,-0.09174645,2.2952883,1.2027965
1.45,6.198163,-1.870683,-0.4748845,-0.14123785,2.2460113,1.2000121
1.452,6.1281114,-1.8860254,-0.4685074,-0.18989748,2.1970937,1.1960526
1.454,6.059984,-1.9013821,-0.4620993,-0.23763275,2.1487052,1.1910381
1.456,5.994126,-1.9167174,-0.4555056,-0.28434622,2.1009529,1.1850985
1.458,5.9305773,-1.9319582,-0.44863057,-0.32993186,2.0539722,1.1783534
1.46,5.869713,-1.9471731,-0.44133782,-0.3742813,2.0078502,1.1709197
1.462,5.8117027,-1.9623055,-0.4334072,-0.41729158,1.9626566,1.1628761
1.464,5.7567043,-1.9772578,-0.4246714,-0.45885855,1.9184456,1.1542735
1.466,5.7047215,-1.9920095,-0.41507196,-0.4989065,1.8752884,1.145102
1.468,5.656001,-2.006627,-0.40450764,-0.5373513,1.8332503,1.1353141
1.47,5.610678,-2.0211124,-0.3928846,-0.57415515,1.7923986,1.12483
1.472,5.5687194,-2.035429,-0.38008416,-0.60930735,1.7527913,1.1135414
1.474,5.5302124,-2.049545,-0.36612415,-0.6428166,1.7145052,1.1013603
1.476,5.4949803,-2.063404,-0.35088623,-0.67471045,1.6776326,1.088216
1.478,5.4630265,-2.0769901,-0.33454132,-0.7050491,1.6422552,1.0740871
1.48,5.434275,-2.0901556,-0.31701744,-0.733881,1.6084402,1.0590198
1.482,5.4085674,-2.102786,-0.29835248,-0.76125646,1.5762901,1.0431083
1.484,5.385743,-2.1149378,-0.27873325,-0.78722274,1.5458877,1.0264978
1.486,5.3655033,-2.1262999,-0.25822413,-0.8118123,1.5173028,1.0093834
1.488,5.347705,-2.1367698,-0.23696649,-0.8350675,1.4905927,0.9919722
1.49,5.3320713,-2.1462262,-0.21518195,-0.8570112,1.4658166,0.9745075
1.492,5.3184395,-2.1544082,-0.19297945,-0.87765527,1.4430238,0.9572236
1.494,5.3064733,-2.1610494,-0.17061329,-0.8970158,1.4222363,0.9403294
1.496,5.295959,-2.166007,-0.14822233,-0.91510487,1.4034722,0.9239973
1.498,5.2867866,-2.1690922,-0.12616551,-0.9319395,1.3867098,0.9083593
1.5,5.2785254,-2.1700768,-0.10444927,-0.9475603,1.3719205,0.89348257
1.502,5.2709455,-2.168632,-0.08338773,-0.9620104,1.3590574,0.87939656
1.504,5.263961,-2.1647398,-0.06305754,-0.97536236,1.3480434,0.86608756
1.506,5.257603,-2.1582246,-0.043679,-0.98768973,1.3388036,0.85350466
1.508,5.2515535,-2.1488,-0.025321484,-0.999085,1.3312466,0.8415689
1.51,5.2456326,-2.1363997,-0.008117914,-1.0096375,1.3253001,0.83020335
1.512,5.239765,-2.1209083,0.007895708,-1.0194213,1.3208752,0.8193393
1.514,5.2338037,-2.1022165,0.02271998,-1.0285114,1.317931,0.80889595
1.516,5.2276826,-2.0803213,0.036292315,-1.0369524,1.3164583,0.79878765
1.518,5.221422,-2.0552917,0.048592687,-1.044789,1.3164448,0.7889235
1.52,5.215091,-2.0271668,0.059742093,-1.052039,1.3178896,0.77921546
1.522,5.2085004,-1.9959989,0.0696553,-1.0587274,1.3208166,0.76955765
1.524,5.2017417,-1.9619801,0.07843351,-1.064846,1.3252432,0.7598381
1.526,5.194755,-1.9251783,0.08620846,-1.0703956,1.3311797,0.74996936
1.528,5.187584,-1.8858904,0.092999935,-1.0753586,1.3386317,0.7398522
1.53,5.1802435,-1.8441715,0.0989511,-1.0797094,1.3475847,0.72941816
1.532,5.17262,-1.8003323,0.10415685,-1.0834328,1.3580304,0.71863914
1.534,5.1647778,-1.7544625,0.10872102,-1.0864974,1.3699586,0.7075281
1.536,5.156696,-1.7069216,0.1128248,-1.0888672,1.383358,0.69614524
1.538,5.1484623,-1.6578377,0.11648607,-1.0905105,1.3982322,0.6845851
1.54,5.140028,-1.607419,0.11980581,-1.0913924,1.4145886,0.6729884
1.542,5.1312923,-1.5558633,0.12283242,-1.0914588,1.4324397,0.66151714
1.544,5.122245,-1.503411,0.1256907,-1.0906821,1.4517955,0.6503468
1.546,5.112699,-1.4501653,0.12838244,-1.0890217,1.4726784,0.6396269
1.548,5.1027555,-1.3964744,0.13097417,-1.0864518,1.495109,0.62947035
1.55,5.092326,-1.3424728,0.13340783,-1.0829674,1.5190897,0.6199541
1.552,5.0813527,-1.288223,0.13579631,-1.078558,1.5446393,0.61112595
1.554,5.0698566,-1.2340375,0.13801694,-1.0732267,1.5717497,0.60299
1.556,5.0578003,-1.1798575,0.14003181,-1.0669795,1.6004103,0.59550834
1.558,5.0450397,-1.1259854,0.14174485,-1.0598356,1.6306067,0.5886177
1.56,5.0315247,-1.0723633,0.14310646,-1.051815,1.6623037,0.5822445
1.562,5.017284,-1.0191561,0.1439867,-1.0429354,1.6954503,0.5763012
1.564,5.0022264,-0.9664645,0.14430141,-1.0332321,1.7299865,0.57070655
1.566,4.9862003,-0.91436166,0.14390993,-1.0227442,1.7658546,0.5653868
1.568,4.96939,-0.86291736,0.14263988,-1.0115,1.8029834,0.5602876
1.57,4.951657,-0.8121845,0.14042139,-0.99954224,1.8412873,0.55539
1.572,4.93299,-0.7622606,0.13701892,-0.98692733,1.8806823,0.55069494
1.574,4.9133096,-0.71309096,0.13230157,-0.97370446,1.921068,0.54623586
1.576,4.892941,-0.66486084,0.12619138,-0.9599299,1.9623374,0.54206276
1.578,4.8716135,-0.61756384,0.11859894,-0.94565177,2.0043693,0.5382452
1.58,4.849325,-0.5711577,0.10942531,-0.93093795,2.0470426,0.53485096
1.582,4.8262153,-0.5257917,0.09850764,-0.9158698,2.09021,0.5319524
1.584,4.802334,-0.4813528,0.08582616,-0.9005225,2.1337407,0.5296103
1.586,4.7778325,-0.43805635,0.071264505,-0.8849627,2.1774821,0.5278689
1.588,4.7527857,-0.39586747,0.054932356,-0.8692817,2.2212818,0.5267559
1.59,4.7272606,-0.3548664,0.03663397,-0.8535361,2.2650018,0.52628994
1.592,4.701399,-0.31505817,0.016373873,-0.83780414,2.3085086,0.52646977
1.594,4.675399,-0.27646637,-0.00583148,-0.8221419,2.3516815,0.52727145
1.596,4.649281,-0.23914033,-0.030015826,-0.806602,2.394414,0.52868193
1.598,4.623227,-0.20308265,-0.056182146,-0.7912252,2.436615,0.53065944
1.6,4.5973983,-0.16840112,-0.08423102,-0.776042,2.4782212,0.53318346
1.602,4.5718346,-0.13503778,-0.114234805,-0.76108956,2.5191655,0.53623354
1.604,4.5466914,-0.10309994,-0.14613521,-0.7463916,2.5593805,0.5397739
1.606,4.5221596,-0.07252133,-0.17986679,-0.731986,2.598803,0.54376256
1.608,4.4981556,-0.043364763,-0.21544492,-0.7179117,2.6373732,0.54816425
1.61,4.4749885,-0.015610099,-0.25278115,-0.70421296,2.6749983,0.5529426
1.612,4.452699,0.010690182,-0.29185724,-0.69093454,2.7115874,0.5580566
1.614,4.43119,0.035739243,-0.3326875,-0.67813116,2.7470233,0.5634576
1.616,4.410616,0.05948153,-0.37518156,-0.66585696,2.7811818,0.5690981
1.618,4.3910437,0.08197963,-0.41930175,-0.65416265,2.8139353,0.5749168
1.62,4.372512,0.10329911,-0.4649843,-0.64308655,2.8451493,0.58085084
1.622,4.3549323,0.12350455,-0.512179,-0.6326815,2.8747222,0.5868277
1.624,4.338301,0.14274369,-0.5608252,-0.62299156,2.902554,0.5927875
1.626,4.3226347,0.16107267,-0.61085105,-0.614045,2.9285696,0.59864444
1.628,4.3080087,0.17861046,-0.6621443,-0.6058862,2.9527042,0.6043147
1.63,4.2942314,0.19550638,-0.7147167,-0.5985411,2.974906,0.6097399
1.632,4.281406,0.21185464,-0.7684386,-0.5920573,2.995145,0.61485505
1.634,4.269445,0.2278421,-0.8232013,-0.5864719,3.0133772,0.61960655
1.636,4.2582045,0.24350008,-0.87893665,-0.58181053,3.0295734,0.62396246
1.638,4.247793,0.25903472,-0.93556684,-0.57812035,3.0437036,0.6278869
1.64,4.2380815,0.27446735,-0.9929874,-0.57543933,3.0557413,0.6313595
1.642,4.229188,0.28994343,-1.0510756,-0.5737808,3.0656667,0.63437736
1.644,4.2209415,0.30556744,-1.1098404,-0.5731885,3.0734503,0.636942
1.646,4.2133794,0.321375,-1.1691515,-0.573681,3.0790856,0.63905877
1.648,4.2062607,0.33752605,-1.2289579,-0.57528996,3.0825462,0.6407284
1.65,4.1998134,0.3541088,-1.2891742,-0.5780319,3.0838022,0.6419445
1.652,4.1938305,0.3712333,-1.349756,-0.58192,3.082849,0.6427196
1.654,4.1883016,0.38896865,-1.4106989,-0.5869781,3.0796652,0.6430526
1.656,4.1832705,0.40734786,-1.4718739,-0.59321165,3.0742388,0.64295006
1.658,4.1786046,0.42654854,-1.5333548,-0.6006318,3.0665846,0.64240944
1.66,4.174375,0.44664356,-1.5950291,-0.60923636,3.0566912,0.6414354
1.662,4.17036,0.46770045,-1.6569216,-0.61901593,3.0445647,0.6400459
1.664,4.1665463,0.4897516,-1.7188128,-0.6299573,3.0302246,0.63825554
1.666,4.1629725,0.51279664,-1.7807828,-0.642041,3.0136738,0.6360875
1.668,4.1595316,0.53710276,-1.8427845,-0.6552367,2.9949307,0.63355947
1.67,4.1562223,0.5624965,-1.9045885,-0.669503,2.9740052,0.63070405
1.672,4.1530423,0.58907056,-1.9662856,-0.6848048,2.950899,0.6275337
1.674,4.149889,0.616814,-2.0277762,-0.7011045,2.9256077,0.62406427
1.676,4.1468472,0.6457637,-2.0888941,-0.7183595,2.8981252,0.62031746
1.678,4.1437197,0.6758368,-2.1495466,-0.7365206,2.8684728,0.616282
1.68,4.140542,0.7070171,-2.2096481,-0.75554293,2.8366725,0.61196154
1.682,4.137348,0.73921525,-2.2689776,-0.7753791,2.8027616,0.6073402
1.684,4.134198,0.7722524,-2.327452,-0.7959878,2.7667992,0.6023774
1.686,4.130913,0.806103,-2.3850129,-0.81731296,2.7288654,0.5970447
1.688,4.1276474,0.84058136,-2.4414577,-0.83929366,2.6890693,0.5913232
1.69,4.1243415,0.87552094,-2.4967632,-0.86187845,2.6475232,0.5851758
1.692,4.121083,0.9107152,-2.5507674,-0.8849844,2.604346,0.5785861
1.694,4.1176863,0.945974,-2.603342,-0.90853804,2.5596771,0.5715451
1.696,4.114254,0.9812008,-2.6544132,-0.9324692,2.5136447,0.56404555
1.698,4.1107984,1.0161054,-2.7039304,-0.9566871,2.4663873,0.5560899
1.7,4.107207,1.0505469,-2.751782,-0.9811014,2.4180362,0.5477093
1.702,4.103681,1.0842463,-2.7978787,-1.0056288,2.3687372,0.53893954
1.704,4.0999794,1.1171252,-2.8422112,-1.0301969,2.3186233,0.52982044
1.706,4.0962853,1.1488527,-2.8847885,-1.0547203,2.2678223,0.5203986
1.708,4.0924935,1.1792042,-2.925505,-1.0791111,2.2164795,0.51072055
1.71,4.0885034,1.2081218,-2.964539,-1.1032996,2.1647406,0.5008248
1.712,4.084255,1.2353444,-3.0017776,-1.1271986,2.1127439,0.4907477
1.714,4.0796595,1.2607553,-3.0373774,-1.1507225,2.0606484,0.48052096
1.716,4.0745597,1.2842264,-3.07142,-1.1737914,2.00861,0.4701559
1.718,4.068934,1.3055996,-3.1039639,-1.1963135,1.9567626,0.45967084
1.72,4.0625696,1.3248489,-3.1351323,-1.2182083,1.905233,0.4490714
1.722,4.0554953,1.341778,-3.1649978,-1.239398,1.8541526,0.43837354
1.724,4.0475674,1.3563911,-3.1936688,-1.259811,1.8036233,0.4275832
1.726,4.038518,1.3687603,-3.2212543,-1.2793767,1.7537525,0.41674685
1.728,4.0283017,1.378738,-3.2479682,-1.2980447,1.7046338,0.40589276
1.73,4.016751,1.3863537,-3.2738824,-1.3157597,1.6563511,0.3950755
1.732,4.0038342,1.3917332,-3.2990787,-1.3324852,1.6089686,0.3843829
1.734,3.9893231,1.3947285,-3.3237455,-1.3481928,1.5625452,0.373911
1.736,3.9731727,1.3956208,-3.3479466,-1.3628589,1.5171337,0.36376745
1.738,3.9551766,1.3943338,-3.3717864,-1.3764614,1.47276,0.3540621
1.74,3.9353328,1.3909969,-3.3952088,-1.3889802,1.4294407,0.34489185
1.742,3.9135056,1.3857135,-3.4183693,-1.4004039,1.3871622,0.33633938
1.744,3.8897438,1.3785558,-3.4412465,-1.4107249,1.345906,0.32848412
1.746,3.863789,1.3696882,-3.463883,-1.4199375,1.3056477,0.32135862
1.748,3.8358777,1.3591282,-3.4861333,-1.4280375,1.2663409,0.31498653
1.75,3.8058476,1.3470776,-3.508068,-1.4350122,1.2279518,0.30935514
1.752,3.7737231,1.3336278,-3.529578,-1.4408554,1.1904571,0.30443534
1.754,3.7396674,1.3188167,-3.550533,-1.445562,1.153831,0.30018738
1.756,3.7036395,1.3027694,-3.5708234,-1.4491261,1.1180874,0.29656982
1.758,3.6659298,1.2855275,-3.59037,-1.451532,1.0832394,0.2935312
1.76,3.6265173,1.2671165,-3.6089957,-1.4527549,1.0493224,0.2910514
1.762,3.58566,1.2475297,-3.6266336,-1.4527726,1.016381,0.28909278
1.764,3.5435257,1.2268424,-3.6431649,-1.4515492,0.9844925,0.28762677
1.766,3.5002856,1.2049899,-3.6585228,-1.4490515,0.9537308,0.28662792
1.768,3.456107,1.1819831,-3.6725478,-1.4452424,0.9241914,0.2860518
1.77,3.4111657,1.1577959,-3.685295,-1.4400765,0.89597726,0.2858509
1.772,3.3657627,1.1324018,-3.6966088,-1.4335272,0.8692059,0.285963
1.774,3.3199599,1.1058431,-3.706548,-1.4255635,0.84398496,0.28632855
1.776,3.2739983,1.0780461,-3.7150688,-1.4161597,0.8204021,0.28688246
1.778,3.2280443,1.0489225,-3.7221906,-1.4053113,0.7985241,0.2875565
1.78,3.1822922,1.0184875,-3.7279747,-1.393013,0.77839065,0.28828913
1.782,3.13679,0.9868009,-3.7324448,-1.3792732,0.760006,0.28905368
1.784,3.091661,0.9539071,-3.7356596,-1.3641196,0.7433464,0.28981945
1.786,3.0470476,0.91967344,-3.737856,-1.3475711,0.728366,0.29058474
1.788,3.0031052,0.88430244,-3.7391224,-1.32966,0.7150135,0.29136017
1.79,2.9597898,0.847791,-3.7395656,-1.3104395,0.703215,0.2921619
1.792,2.9172316,0.81021523,-3.7394629,-1.2899673,0.69288373,0.29302162
1.794,2.8753738,0.7716923,-3.73894,-1.2683144,0.68393576,0.29396963
1.796,2.8342557,0.7323936,-3.7382257,-1.2455571,0.676287,0.295026
1.798,2.7939563,0.69241655,-3.7375977,-1.2217654,0.6698622,0.2962148
1.8,2.7544074,0.6519192,-3.7371001,-1.1970271,0.6645932,0.29755363
1.802,2.715645,0.61111313,-3.7370524,-1.1714115,0.6604209,0.29903644
1.804,2.6777778,0.5700828,-3.7376933,-1.1449801,0.65729684,0.3006949
1.806,2.6407397,0.5290379,-3.7391725,-1.1177949,0.6551666,0.30255616
1.808,2.604472,0.48815036,-3.7417378,-1.08991,0.65400374,0.30465317
1.81,2.5690722,0.44755366,-3.7455223,-1.0613735,0.65375847,0.30703497
1.812,2.5344207,0.40758038,-3.750807,-1.0322466,0.65438384,0.30975392
1.814,2.500601,0.36821455,-3.7576132,-1.0025992,0.65581656,0.31285435
1.816,2.4676218,0.3297398,-3.7659984,-0.972503,0.65798175,0.31639713
1.818,2.4354932,0.29222143,-3.7761421,-0.9420346,0.660774,0.3204062
1.82,2.4042664,0.25585306,-3.7880201,-0.91128045,0.6640735,0.32487828
1.822,2.374053,0.2206372,-3.8017073,-0.8803297,0.6677531,0.32978445
1.824,2.3447437,0.18669212,-3.817204,-0.84928256,0.67166686,0.3350703
1.826,2.3164148,0.15412797,-3.8344772,-0.81821644,0.6756857,0.3406487
1.828,2.289251,0.122999296,-3.8534708,-0.7872148,0.67967707,0.3464141
1.83,2.2631233,0.09326001,-3.8740847,-0.7563419,0.6835239,0.35224545
1.832,2.2379997,0.06501127,-3.8962727,-0.7256386,0.68714094,0.35802972
1.834,2.2139628,0.03816414,-3.9199479,-0.69514334,0.6904508,0.36364833
1.836,2.1911678,0.012678266,-3.9449954,-0.6648837,0.69339687,0.36899602
1.838,2.169624,-0.011468604,-3.9712381,-0.6348749,0.6959245,0.3739905
1.84,2.1494129,-0.034329563,-3.998589,-0.6051373,0.6979893,0.3785505
1.842,2.1304803,-0.055967122,-4.02699,-0.5756956,0.6995394,0.38261667
1.844,2.1130009,-0.07644273,-4.056211,-0.54656,0.70053446,0.3861487
1.846,2.096945,-0.09594545,-4.086152,-0.5177567,0.70092154,0.3891105
1.848,2.0823793,-0.11451039,-4.1167974,-0.48931563,0.7006463,0.39148027
1.85,2.0692427,-0.13220325,-4.1479616,-0.46128482,0.6996493,0.3932413
1.852,2.0577428,-0.14916348,-4.179545,-0.43370688,0.6978591,0.3943811
1.854,2.0477962,-0.16541037,-4.2113466,-0.40662843,0.6951988,0.39491332
1.856,2.039629,-0.18106434,-4.243318,-0.3801065,0.691608,0.39485115
1.858,2.0328674,-0.19622236,-4.2754226,-0.35419977,0.6870171,0.39419234
1.86,2.0276515,-0.21095899,-4.307354,-0.32893404,0.68135595,0.39294472
1.862,2.0239878,-0.22530547,-4.3390975,-0.30434868,0.67457163,0.39111322
1.864,2.0217943,-0.23946834,-4.3705053,-0.2804758,0.66662264,0.3886948
1.866,2.021041,-0.25336996,-4.4015517,-0.2573374,0.65747464,0.3857075
1.868,2.0215065,-0.26707736,-4.4320393,-0.23495024,0.647101,0.38215497
1.87,2.0232127,-0.28063402,-4.4617786,-0.21331935,0.6354707,0.3780276
1.872,2.0260367,-0.2940954,-4.490705,-0.19245929,0.62257445,0.3733304
1.874,2.0299196,-0.30748302,-4.5186157,-0.17236826,0.6084318,0.36806828
1.876,2.0347068,-0.32083678,-4.5454693,-0.15305407,0.5930477,0.36223936
1.878,2.0403683,-0.3341668,-4.5710564,-0.13449377,0.57644755,0.35584027
1.88,2.0467958,-0.34748253,-4.5952926,-0.11668495,0.55866706,0.3488788
1.882,2.0537982,-0.36089504,-4.618128,-0.099606454,0.5397578,0.34136668
1.884,2.0613213,-0.37422675,-4.639485,-0.0832452,0.519766,0.33333132
1.886,2.0692182,-0.38755375,-4.6592026,-0.06757724,0.49875125,0.3248021
1.888,2.0773785,-0.4008509,-4.677212,-0.052582785,0.47675398,0.31582507
1.89,2.085647,-0.4140562,-4.693558,-0.03823598,0.4538325,0.3064545
1.892,2.0939856,-0.42721516,-4.708129,-0.024518194,0.4300335,0.29674634
1.894,2.1024144,-0.44026366,-4.720793,-0.011408489,0.40540507,0.28677043
1.896,2.1105962,-0.45303315,-4.731575,0.0011213552,0.37998646,0.27659017
1.898,2.1184897,-0.46563643,-4.7404346,0.013086377,0.35381413,0.26624134
1.9,2.1260505,-0.4779305,-4.7473702,0.02450897,0.32692823,0.25576064
1.902,2.1332664,-0.48992273,-4.752299,0.035416916,0.29937404,0.2451692
1.904,2.1400247,-0.5015771,-4.755142,0.045857847,0.27120107,0.23448086
1.906,2.1463273,-0.512824,-4.755928,0.055862956,0.24246868,0.22368784
1.908,2.1520252,-0.5235785,-4.75464,0.06548071,0.21323611,0.21278451
1.91,2.1572304,-0.5338739,-4.751364,0.074771665,0.1835643,0.20175423
1.912,2.1618228,-0.54368997,-4.745905,0.083779484,0.1535387,0.19058932
1.914,2.1658633,-0.5529593,-4.7384024,0.09255672,0.12325598,0.1792952
1.916,2.169372,-0.5618007,-4.7288218,0.10115607,0.09280245,0.16787484
1.918,2.1723254,-0.57006335,-4.717212,0.10964316,0.06227625,0.1563429
1.92,2.174753,-0.57782733,-4.7035847,0.11806806,0.031790353,0.14472096
1.922,2.1766973,-0.58514535,-4.6878376,0.1264859,0.0014479514,0.13303733
1.924,2.1781366,-0.5918964,-4.67016,0.13494751,-0.02863719,0.121366024
1.926,2.1791577,-0.59822583,-4.650529,0.14350341,-0.058362875,0.109759234
1.928,2.1798468,-0.60404205,-4.628967,0.15219426,-0.087652296,0.09827416
1.93,2.180161,-0.60951114,-4.6054735,0.16107996,-0.11642948,0.0869934
1.932,2.1802316,-0.6145607,-4.5801854,0.17018893,-0.1446311,0.075986415
1.934,2.1802464,-0.6192969,-4.553027,0.1795707,-0.17220968,0.065309435
1.936,2.1799917,-0.6238189,-4.524162,0.18925717,-0.19913243,0.05501543
1.938,2.1794877,-0.6281049,-4.493614,0.19928384,-0.22536743,0.04514031
1.94,2.1789834,-0.63225347,-4.4614873,0.2096879,-0.2508936,0.0357071
1.942,2.1783812,-0.6362312,-4.427884,0.22049427,-0.27567434,0.026723742
1.944,2.1777344,-0.64013386,-4.3928123,0.23173891,-0.29969543,0.018182367
1.946,2.1770313,-0.6440221,-4.3564467,0.24343883,-0.32291928,0.0100636035
1.948,2.1763697,-0.6479037,-4.3188586,0.25561774,-0.3453179,0.0023337975
1.95,2.1757934,-0.6518933,-4.2801433,0.2682875,-0.36684984,-0.005031023
1.952,2.175309,-0.6561376,-4.240409,0.28145942,-0.38748595,-0.012048617
1.954,2.1749115,-0.6604701,-4.1998663,0.29514146,-0.4071976,-0.018751163
1.956,2.1745572,-0.66505265,-4.1585846,0.30932394,-0.42596674,-0.025154043
1.958,2.1743896,-0.66991067,-4.1166797,0.32399663,-0.44377762,-0.031253293
1.96,2.1744702,-0.67517793,-4.0744348,0.3391453,-0.46062425,-0.037048027
1.962,2.174637,-0.6807531,-4.03182,0.35476023,-0.47648725,-0.04253228
1.964,2.1750834,-0.68672526,-3.9891925,0.37082374,-0.4913699,-0.04768304
1.966,2.1757777,-0.69314057,-3.9464412,0.38733062,-0.5052837,-0.052481808
1.968,2.1769009,-0.6999934,-3.9038289,0.40426114,-0.5182478,-0.056906532
1.97,2.1784225,-0.7073498,-3.8615577,0.42160097,-0.53027666,-0.060939938
1.972,2.1803846,-0.7152024,-3.819662,0.43932945,-0.5414027,-0.06457015
1.974,2.182771,-0.7234261,-3.778232,0.4574373,-0.5516685,-0.06779522
1.976,2.1856995,-0.73207384,-3.7374132,0.47588995,-0.56110495,-0.0706106
1.978,2.189292,-0.74112666,-3.6972365,0.49466297,-0.5697667,-0.073027074
1.98,2.1933951,-0.75055677,-3.657829,0.5137347,-0.57770735,-0.075036004
1.982,2.198213,-0.76028514,-3.6191535,0.5330683,-0.58497864,-0.07663435
1.984,2.203574,-0.7702655,-3.5812936,0.55261725,-0.5916478,-0.077838205
1.986,2.2097645,-0.78045243,-3.544149,0.5723438,-0.59779054,-0.07863372
1.988,2.2165349,-0.79070795,-3.5077896,0.5921995,-0.6034854,-0.079024985
1.99,2.2241154,-0.8010649,-3.4721112,0.6121423,-0.608815,-0.07902504
1.992,2.2324584,-0.8113112,-3.4370642,0.6321223,-0.61386913,-0.07865357
1.994,2.24157,-0.8214757,-3.4026034,0.65209025,-0.61872864,-0.07792491
1.996,2.2515166,-0.8313727,-3.3686452,0.6720052,-0.6234687,-0.07686894
1.998,2.2623472,-0.8409649,-3.3351347,0.6918229,-0.6281568,-0.075515725
2,2.2739065,-0.85011303,-3.30201,0.7115096,-0.63285166,-0.07390452
2.002,2.286363,-0.8586755,-3.2691865,0.7310269,-0.63759696,-0.07207366
2.004,2.2996535,-0.8665656,-3.2366714,0.75035447,-0.6424211,-0.07007813
2.006,2.3138592,-0.8737872,-3.2043042,0.7694813,-0.6473335,-0.06795728
2.008,2.3290112,-0.8800851,-3.172028,0.7883928,-0.65232515,-0.065741375
2.01,2.345195,-0.88533115,-3.139786,0.8070877,-0.6573956,-0.06347126
2.012,2.3621974,-0.88947177,-3.1075387,0.82555175,-0.66252124,-0.06117013
2.014,2.3801599,-0.8923419,-3.0752478,0.8437824,-0.6677014,-0.05883506
2.016,2.3991437,-0.8938389,-3.0427766,0.8617636,-0.6729225,-0.056452624
2.018,2.4191709,-0.89383996,-3.0100708,0.8794818,-0.6781755,-0.053993084
2.02,2.4401696,-0.8922243,-2.9771173,0.89693105,-0.68348074,-0.05141329
2.022,2.4622486,-0.888828,-2.9438279,0.91409135,-0.6888543,-0.048656434
2.024,2.4853415,-0.88363147,-2.9101675,0.93094933,-0.69435036,-0.045651183
2.026,2.5094852,-0.8763349,-2.8760724,0.9474766,-0.70001996,-0.042330682
2.028,2.534755,-0.86703736,-2.841414,0.9636508,-0.70592415,-0.03864734
2.03,2.5610995,-0.8555473,-2.806155,0.9794587,-0.712139,-0.03455484
2.032,2.5885026,-0.84189725,-2.7703362,0.99487334,-0.71872604,-0.030042917
2.034,2.617042,-0.8260039,-2.733721,1.0098679,-0.7257455,-0.02512084
2.036,2.646591,-0.8078563,-2.6964178,1.0244218,-0.7332421,-0.019824475
2.038,2.6771474,-0.7873872,-2.6582627,1.0385176,-0.7412398,-0.014206395
2.04,2.7087803,-0.7647131,-2.6193793,1.0521446,-0.74975365,-0.008347675
2.042,2.7412562,-0.7398416,-2.5795333,1.0652887,-0.7587841,-0.0023267716
2.044,2.7746623,-0.71282303,-2.5388265,1.0779414,-0.7683075,0.0037582219
2.046,2.8090358,-0.68372864,-2.4972386,1.0900987,-0.7783013,0.009821251
2.048,2.844295,-0.6527646,-2.4546707,1.1017587,-0.7887386,0.015770555
2.05,2.8803697,-0.6198655,-2.4112349,1.1129266,-0.79959005,0.0215154
2.052,2.9171307,-0.58529025,-2.366864,1.123599,-0.81081927,0.026985481
2.054,2.954454,-0.54910654,-2.321611,1.1337835,-0.8223963,0.032139838
2.056,2.9923973,-0.5114396,-2.2754872,1.1434792,-0.83428913,0.036932796
2.058,3.0308795,-0.47246644,-2.2285676,1.1526738,-0.84647906,0.04136096
2.06,3.0696719,-0.43223718,-2.1809556,1.1613556,-0.8589399,0.045439422
2.062,3.108851,-0.390872,-2.132573,1.1695223,-0.87166315,0.04919696
2.064,3.1482773,-0.34854236,-2.0835056,1.1771617,-0.8846326,0.052695483
2.066,3.1879787,-0.30532217,-2.0338883,1.1842586,-0.8978417,0.056008622
2.068,3.2276683,-0.26123402,-1.9837574,1.1907905,-0.9112727,0.059221506
2.07,3.2674391,-0.21637098,-1.9331294,1.1967474,-0.9249233,0.06241271
2.072,3.3071036,-0.17084165,-1.8821727,1.2021174,-0.93877876,0.065671444
2.074,3.3465128,-0.12470125,-1.8309114,1.2068837,-0.9528015,0.06906913
2.076,3.3856833,-0.07786527,-1.7795095,1.2110347,-0.9669669,0.07265499
2.078,3.4244823,-0.030394033,-1.7278936,1.2145702,-0.9812233,0.07647619
2.08,3.4628758,0.017597228,-1.6761861,1.2174853,-0.99553144,0.08054611
2.082,3.500649,0.066001,-1.6245492,1.2197748,-1.0098479,0.08487734
2.084,3.5376906,0.114831164,-1.5730064,1.2214407,-1.0241272,0.08944954
2.086,3.5740108,0.16393837,-1.5216123,1.2224855,-1.0383444,0.094243556
2.088,3.609463,0.21325767,-1.4705184,1.222911,-1.052478,0.09921585
2.09,3.6439166,0.26274562,-1.4197077,1.2227235,-1.0665259,0.10432975
2.092,3.6772366,0.31233704,-1.369356,1.2219222,-1.0804919,0.10953052
2.094,3.7094617,0.36176807,-1.3194332,1.2205106,-1.0943911,0.11476974
2.096,3.7403078,0.41103455,-1.2701054,1.2184893,-1.1082469,0.119998455
2.098,3.769908,0.45984372,-1.2213657,1.2158542,-1.1220816,0.12517376
2.1,3.797902,0.508136,-1.1732666,1.2126019,-1.1359159,0.13025193
2.102,3.824417,0.555689,-1.1258595,1.2087219,-1.1497519,0.13520941
2.104,3.849287,0.6023678,-1.0791515,1.2042134,-1.1635872,0.1400284
2.106,3.872417,0.64795685,-1.0332091,1.1990722,-1.1774143,0.14468847
2.108,3.8937242,0.6922971,-0.9880529,1.1932896,-1.1912049,0.1491776
2.11,3.9134016,0.7352423,-0.9436318,1.1868831,-1.2049146,0.15350285
2.112,3.931158,0.7765326,-0.89998853,1.1798642,-1.2184899,0.15766285
2.114,3.9470327,0.8160689,-0.85716885,1.1722615,-1.2318842,0.16165912
2.116,3.9611123,0.8536998,-0.81515664,1.1640964,-1.2450315,0.1655088
2.118,3.9732714,0.88924545,-0.7740391,1.1554097,-1.2578748,0.16922738
2.12,3.983549,0.9225296,-0.73371,1.1462506,-1.2703508,0.17282858
2.122,3.9920208,0.9535606,-0.6941395,1.1366607,-1.2824045,0.17634194
2.124,3.998746,0.98216146,-0.65543425,1.126692,-1.2939795,0.17980893
2.126,4.003641,1.0082718,-0.6174611,1.1163838,-1.3050237,0.18326142
2.128,4.006896,1.0318763,-0.58029675,1.1057736,-1.3155004,0.18675931
2.13,4.0085077,1.0530405,-0.5437646,1.0949101,-1.3253733,0.1903584
2.132,4.0084143,1.0716912,-0.5079993,1.0838058,-1.3346076,0.19412372
2.134,4.0067863,1.0879548,-0.4728145,1.0724866,-1.3431746,0.19812249
2.136,4.0037584,1.101699,-0.4382316,1.0609775,-1.3510666,0.20241843
2.138,3.9993997,1.1131356,-0.4042161,1.0492859,-1.3582892,0.20707877
2.14,3.993709,1.122243,-0.37066966,1.0374227,-1.3648396,0.21215375
2.142,3.9868414,1.1292807,-0.33755827,1.0253898,-1.3707188,0.21769065
2.144,3.9787853,1.1343459,-0.30483574,1.013194,-1.3759475,0.22370952
2.146,3.9696913,1.1376212,-0.27237123,1.0008451,-1.3805293,0.23024437
2.148,3.9596643,1.1391599,-0.24013948,0.98835063,-1.3844669,0.23729593
2.15,3.948703,1.1392596,-0.20796168,0.97573173,-1.3877591,0.24487498
2.152,3.9370482,1.1380827,-0.17594266,0.96301734,-1.3903984,0.25298077
2.154,3.924682,1.13576,-0.14390624,0.950224,-1.3923632,0.2615959
2.156,3.9116824,1.1325772,-0.11183345,0.9373794,-1.3936406,0.27069718
2.158,3.898168,1.1286447,-0.079793215,0.92449766,-1.394216,0.28027272
2.16,3.884257,1.12406,-0.0476501,0.91158116,-1.3940885,0.29028577
2.162,3.870229,1.1191345,-0.015495062,0.8986336,-1.3932709,0.30069333
2.164,3.8560328,1.1139097,0.016608596,0.88563097,-1.3917762,0.31145254
2.166,3.8417947,1.1084841,0.048768878,0.87256044,-1.3896149,0.32250592
2.168,3.8274932,1.1030694,0.08086419,0.8593905,-1.3868223,0.33378148
2.17,3.8134727,1.0976326,0.11284411,0.84609604,-1.383448,0.34520292
2.172,3.7995143,1.0923703,0.14439106,0.8326364,-1.379546,0.35668504
2.174,3.78584,1.0872607,0.17556441,0.8189822,-1.3751756,0.368138
2.176,3.7724261,1.0823612,0.20623755,0.8051263,-1.370363,0.37946993
2.178,3.7592964,1.0776983,0.23627591,0.7910642,-1.3651295,0.39060235
2.18,3.7464797,1.073236,0.26545835,0.7768287,-1.3594631,0.4014874
2.182,3.734013,1.0690006,0.29366934,0.76247954,-1.3533312,0.412104
2.184,3.7218544,1.0648798,0.3207338,0.74808246,-1.3466827,0.42247874
2.186,3.7098505,1.0608848,0.34661627,0.73375463,-1.3394622,0.43267888
2.188,3.6979904,1.0569882,0.37100816,0.7196032,-1.3316196,0.44283426
2.19,3.6861985,1.053211,0.39390254,0.7057369,-1.3231082,0.45308188
2.192,3.6744022,1.0495002,0.41528988,0.6922532,-1.3139274,0.46359038
2.194,3.6625378,1.0457404,0.43494678,0.67922467,-1.3041202,0.4745247
2.196,3.650416,1.0418613,0.45289564,0.6667003,-1.2937717,0.48601818
2.198,3.6379414,1.0378838,0.4691168,0.65467,-1.2829958,0.49816528
2.2,3.62495,1.0336568,0.4834814,0.64309955,-1.2719461,0.5110014
2.202,3.6114736,1.029062,0.4961456,0.6319063,-1.2607936,0.5245146
2.204,3.597233,1.0241885,0.5070205,0.6209855,-1.2497114,0.53862727
2.206,3.5821633,1.0187268,0.5161443,0.6102135,-1.2388774,0.5532239
2.208,3.566206,1.0126832,0.5236685,0.5994761,-1.2284513,0.5681653
2.21,3.5495348,1.0058353,0.52976656,0.58865,-1.2185748,0.58329535
2.212,3.5319479,0.9981557,0.5345336,0.5776461,-1.2093567,0.598434
2.214,3.513308,0.9894451,0.5381563,0.5663819,-1.2008834,0.6134388
2.216,3.4935293,0.9796308,0.5407741,0.55479854,-1.193233,0.62817115
2.218,3.4726999,0.9685855,0.5425482,0.54285836,-1.1864668,0.64248854
2.22,3.4508286,0.95615435,0.5436182,0.5305383,-1.180647,0.65629387
2.222,3.4281535,0.94213617,0.54410803,0.5178373,-1.1757958,0.66950476
2.224,3.404635,0.9264499,0.54428387,0.50476897,-1.1719273,0.68203723
2.226,3.380187,0.90898824,0.54421556,0.49136448,-1.1690538,0.6938226
2.228,3.3549144,0.88962126,0.5440999,0.4776543,-1.1671782,0.70480585
2.23,3.3287408,0.8682864,0.5440651,0.4636736,-1.1663156,0.714929
2.232,3.3018315,0.8447784,0.54408896,0.4494692,-1.1664588,0.72415495
2.234,3.2742586,0.8191132,0.54446316,0.4350857,-1.1676177,0.7324394
2.236,3.2461693,0.79117197,0.5451069,0.4205702,-1.1697633,0.7397618
2.238,3.2176118,0.76085097,0.54612374,0.40598696,-1.1728383,0.7461029
2.24,3.1886697,0.7282037,0.54754317,0.39141244,-1.1767567,0.7514542
2.242,3.159458,0.6933223,0.5493295,0.3769574,-1.1814308,0.7558114
2.244,3.129981,0.6563827,0.5514885,0.3627023,-1.1867659,0.7592206
2.246,3.100202,0.61756456,0.55390775,0.34873712,-1.1926279,0.7617706
2.248,3.0702357,0.57705915,0.5565717,0.3351672,-1.198847,0.76358783
2.25,3.0403755,0.5352464,0.5593115,0.3221038,-1.2052387,0.76482415
2.252,3.0106606,0.49225998,0.56203246,0.30967197,-1.2116412,0.7656412
2.254,2.981183,0.44836795,0.5646173,0.29794282,-1.2179167,0.7662165
2.256,2.9520078,0.40409705,0.5668789,0.286964,-1.2239622,0.76672655
2.258,2.9231517,0.35970172,0.5686852,0.27672428,-1.2297097,0.7673422
2.26,2.8947523,0.3154775,0.56993496,0.26715767,-1.2351226,0.76823837
2.262,2.8667023,0.27185714,0.57037294,0.258149,-1.2402045,0.7695672
2.264,2.8389456,0.2292209,0.5699146,0.24954754,-1.2449845,0.77145827
2.266,2.8116634,0.1878267,0.56841964,0.2411717,-1.2495359,0.7740214
2.268,2.7846665,0.14812446,0.56585395,0.23285805,-1.25395,0.777296
2.27,2.757896,0.11030108,0.5620738,0.2244566,-1.2583677,0.7812825
2.272,2.731328,0.0744279,0.55706775,0.21586342,-1.2629584,0.78592235
2.274,2.7048335,0.040857926,0.55092734,0.20700324,-1.2679052,0.79107475
2.276,2.6782784,0.00963597,0.5435159,0.19785842,-1.2734249,0.79655457
2.278,2.651584,-0.0192568,0.53502434,0.18845475,-1.2797505,0.80214214
2.28,2.6245656,-0.045712456,0.52559847,0.17882699,-1.2871007,0.80757624
2.282,2.597265,-0.069907606,0.5154118,0.1690034,-1.2956901,0.8126179
2.284,2.5692773,-0.091934234,0.504609,0.15901461,-1.305689,0.8170662
2.286,2.5405226,-0.11182885,0.49349064,0.14887318,-1.317246,0.8207773
2.288,2.5109518,-0.1298233,0.48223472,0.13857202,-1.330457,0.8236834
2.29,2.4802399,-0.14597902,0.4712149,0.12808554,-1.3453904,0.8257892
2.292,2.4482727,-0.16056965,0.46070468,0.117379665,-1.3620843,0.82717955
2.294,2.415044,-0.1736151,0.45102686,0.106419325,-1.3805138,0.8279827
2.296,2.3804061,-0.18542188,0.44234538,0.09519428,-1.4005884,0.8283635
2.298,2.3441825,-0.19610885,0.43509758,0.08373785,-1.4221945,0.82847553
2.3,2.306334,-0.20588537,0.42944032,0.07209259,-1.4452087,0.8284604
2.302,2.2668076,-0.21480364,0.42557132,0.060291782,-1.4694973,0.8284568
2.304,2.2256174,-0.22309433,0.42377388,0.04837805,-1.4948786,0.8286108
2.306,2.1825275,-0.23072383,0.42403138,0.03641759,-1.5211146,0.82904255
2.308,2.137667,-0.2379369,0.426547,0.024491072,-1.5479568,0.82983446
2.31,2.0911283,-0.2447292,0.4313435,0.012662336,-1.5751425,0.8310567
2.312,2.0427806,-0.25123268,0.4383821,0.0009923875,-1.6024148,0.8327341
2.314,1.992726,-0.25747877,0.4476223,-0.010470003,-1.6295211,0.83486813
2.316,1.9409895,-0.26343253,0.45891827,-0.021700367,-1.6562387,0.837423
2.318,1.8875496,-0.26914388,0.47202837,-0.032693118,-1.6823697,0.8403326
2.32,1.8322301,-0.27453,0.48665535,-0.043446496,-1.7077327,0.843534
2.322,1.7752392,-0.27970856,0.5026157,-0.053973883,-1.7321827,0.8469651
2.324,1.7167797,-0.2847244,0.51962584,-0.06428906,-1.7556084,0.8505503
2.326,1.6567426,-0.2894639,0.53735423,-0.07440597,-1.7779322,0.854269
2.328,1.595033,-0.29389626,0.555515,-0.084324524,-1.7991319,0.85812026
2.33,1.5316223,-0.29797822,0.57371515,-0.09404445,-1.8192269,0.862168
2.332,1.466388,-0.30146146,0.5916574,-0.10355313,-1.8382632,0.866518
2.334,1.3994571,-0.30433053,0.6089727,-0.11282425,-1.8563163,0.87133324
2.336,1.3308828,-0.30640692,0.62527907,-0.12181026,-1.8734987,0.8767953
2.338,1.2606293,-0.3074792,0.64032376,-0.13046636,-1.889919,0.8831142
2.34,1.1887493,-0.3072877,0.65358776,-0.13875477,-1.9056828,0.8904805
2.342,1.1149992,-0.30553478,0.6649008,-0.14663634,-1.920885,0.8990782
2.344,1.039393,-0.3019282,0.6737957,-0.15409324,-1.9356209,0.90905064
2.346,0.961789,-0.2961899,0.68001115,-0.16114025,-1.9499696,0.92051446
2.348,0.8822106,-0.28781682,0.6833588,-0.16782033,-1.9640175,0.9335367
2.35,0.80070275,-0.27658233,0.68345314,-0.17422648,-1.9778512,0.9481437
2.352,0.7170402,-0.26208153,0.6802147,-0.18046632,-1.9915581,0.96433884
2.354,0.6312443,-0.24406143,0.6733533,-0.18668047,-2.005253,0.982096
2.356,0.54322505,-0.22223666,0.6627823,-0.1930371,-2.0190804,1.0013807
2.358,0.45293507,-0.19623637,0.64831364,-0.19970638,-2.0332277,1.0221468
2.36,0.3603239,-0.16583696,0.62974286,-0.20686686,-2.047914,1.0443397
2.362,0.2652985,-0.1306274,0.6070022,-0.21467006,-2.0633938,1.0679007
2.364,0.1679238,-0.09043844,0.5797911,-0.22324657,-2.079944,1.0927334
2.366,0.06821951,-0.04510728,0.54810244,-0.23269653,-2.0978713,1.1187291
2.368,-0.03393641,0.0055415407,0.5118681,-0.2430917,-2.117484,1.1457336
2.37,-0.13832337,0.06158023,0.47102463,-0.2544748,-2.1390724,1.1736014
2.372,-0.24496147,0.1229381,0.42571777,-0.26685938,-2.1629133,1.2021701
2.374,-0.35363752,0.18966442,0.37590063,-0.28023946,-2.189253,1.2312714
2.376,-0.46450922,0.26165333,0.32175577,-0.29459718,-2.2183225,1.2607574
2.378,-0.5772724,0.33875075,0.26338643,-0.30990395,-2.2503006,1.2904959
2.38,-0.69169086,0.42084977,0.20107755,-0.32613757,-2.2853403,1.3203549
2.382,-0.80759656,0.5077989,0.13510096,-0.34327984,-2.3235648,1.350235
2.384,-0.92457724,0.5993132,0.06563705,-0.36135307,-2.3650742,1.3800387
2.386,-1.0423392,0.69514775,-0.0068496466,-0.3803901,-2.4099858,1.4096663
2.388,-1.1605101,0.7949413,-0.08193582,-0.40048558,-2.4584305,1.4389957
2.39,-1.2785428,0.8983171,-0.15927666,-0.42179227,-2.5105808,1.467874
2.392,-1.3959568,1.0048118,-0.2382291,-0.44454095,-2.5667226,1.4960836
2.394,-1.511997,1.1139772,-0.318174,-0.4690426,-2.627246,1.5233601
2.396,-1.6262783,1.2250144,-0.39818472,-0.4957348,-2.6926672,1.5493536
2.398,-1.7375398,1.3372318,-0.47738755,-0.5251441,-2.7636213,1.5736495
2.4,-1.8454344,1.4501383,-0.5551809,-0.5579079,-2.840861,1.5957701
2.402,-1.9491982,1.5629523,-0.6297426,-0.5947492,-2.925211,1.6152133
2.404,-2.0478878,1.6746373,-0.7000016,-0.63641,-3.0175517,1.6314685
2.406,-2.1408517,1.7842702,-0.7644365,-0.68363297,-3.118732,1.6440165
2.408,-2.227337,1.8908764,-0.8216647,-0.7370702,-3.2295027,1.6524024
2.41,-2.3066306,1.9936166,-0.8703084,-0.79721224,-3.3504848,1.656257
2.412,-2.3779006,2.0914593,-0.9087919,-0.8643213,-3.4820614,1.6553224
2.414,-2.440607,2.1835852,-0.9357195,-0.93833977,-3.624331,1.6494766
2.416,-2.4940262,2.2690337,-0.949533,-1.0188788,-3.7770517,1.6387448
2.418,-2.537935,2.3471255,-0.9491224,-1.105178,-3.9395864,1.6233575
2.42,-2.572009,2.4171832,-0.93328905,-1.1961313,-4.110863,1.6037337
2.422,-2.5960674,2.478749,-0.9012026,-1.2903188,-4.289358,1.5804582
2.424,-2.6100187,2.5311575,-0.8521402,-1.3861016,-4.4731336,1.554236
2.426,-2.6139464,2.574158,-0.7857311,-1.4817075,-4.6598363,1.5258782
2.428,-2.607968,2.6073945,-0.7019345,-1.5753356,-4.846788,1.4963226
2.43,-2.5924408,2.6307514,-0.6009464,-1.6651412,-5.031051,1.4665387
2.432,-2.5676775,2.6442084,-0.48325467,-1.7494655,-5.209554,1.4373093
2.434,-2.534441,2.6479342,-0.34964168,-1.826981,-5.3793263,1.409229
2.436,-2.4931626,2.6420412,-0.20110214,-1.8965693,-5.5375705,1.3827933
2.438,-2.444628,2.6267695,-0.038771868,-1.9573625,-5.6817846,1.3583019
2.44,-2.389589,2.6025329,0.13598228,-2.0088096,-5.8099103,1.3358066
2.442,-2.3290317,2.5697699,0.32163954,-2.0506408,-5.9204216,1.3150988
2.444,-2.2637138,2.5288434,0.516485,-2.0828485,-6.0123177,1.2957473
2.446,-2.1946445,2.4803286,0.7190939,-2.105664,-6.085091,1.2771821
2.448,-2.1226885,2.4246533,0.9276234,-2.1195052,-6.138664,1.2587388
2.45,-2.0486884,2.3622673,1.1405296,-2.1249213,-6.173336,1.2397513
2.452,-1.9733524,2.293704,1.3561938,-2.1225996,-6.189698,1.2195483
2.454,-1.8975257,2.219397,1.5732465,-2.1132834,-6.1885138,1.1975855
2.456,-1.821914,2.139843,1.7901564,-2.097712,-6.170626,1.1735375
2.458,-1.7471751,2.0554245,2.0055296,-2.0765746,-6.136916,1.1472901
2.46,-1.6739944,1.966619,2.2181587,-2.0504572,-6.0882397,1.1189793
2.462,-1.6027294,1.8739107,2.4269156,-2.0198514,-6.0254116,1.088916
2.464,-1.5339189,1.7777942,2.6307805,-1.9851341,-5.9491568,1.0575446
2.466,-1.4679347,1.6788349,2.8287663,-1.94659,-5.8601327,1.025384
2.468,-1.4050868,1.5774362,3.020099,-1.904439,-5.758921,0.99298227
2.47,-1.3457228,1.474227,3.2040334,-1.8588643,-5.6460414,0.9608134
2.472,-1.2898619,1.3697616,3.379814,-1.8100576,-5.5219684,0.9292463
2.474,-1.2375962,1.2645628,3.54695,-1.7582519,-5.3871713,0.8985152
2.476,-1.1890566,1.1593032,3.7047298,-1.7037065,-5.2421217,0.86879796
2.478,-1.1441054,1.0545439,3.852508,-1.6467006,-5.087289,0.84021044
2.48,-1.102962,0.9510378,3.9897947,-1.5875416,-4.923219,0.8128087
2.482,-1.0654016,0.8493984,4.1161876,-1.5265546,-4.750531,0.78658223
2.484,-1.0314331,0.7502829,4.2312655,-1.4641181,-4.569933,0.7615578
2.486,-1.0008221,0.6543262,4.3346467,-1.4005357,-4.382234,0.7378693
2.488,-0.9735928,0.5621845,4.42618,-1.3359997,-4.188253,0.7156099
2.49,-0.9496524,0.4744102,4.505762,-1.2707837,-3.9888856,0.6947085
2.492,-0.92889214,0.39160016,4.5734596,-1.2051953,-3.7851212,0.6750654
2.494,-0.9110815,0.3141373,4.6294007,-1.139492,-3.5779202,0.6565925
2.496,-0.89616525,0.24258035,4.6739116,-1.073919,-3.368244,0.6391656
2.498,-0.88369673,0.17728166,4.707348,-1.0087154,-3.1570518,0.6226327
2.5,-0.8737974,0.118563205,4.7303214,-0.9441022,-2.9452999,0.6068077
2.502,-0.8662311,0.06669267,4.743412,-0.8802975,-2.7339325,0.5914945
2.504,-0.8607995,0.0218397,4.747145,-0.81750774,-2.5238373,0.57652164
2.506,-0.85714597,-0.015772626,4.7421703,-0.7558983,-2.3158443,0.5617957
2.508,-0.855501,-0.046203658,4.7294016,-0.6956128,-2.1107118,0.5472211
2.51,-0.8551455,-0.06986212,4.709848,-0.63681406,-1.9091151,0.5326704
2.512,-0.8558419,-0.08690272,4.68354,-0.57964265,-1.7116184,0.518012
2.514,-0.8575831,-0.0975361,4.6516223,-0.5242274,-1.5186613,0.5031034
2.516,-0.85991156,-0.10190014,4.616116,-0.4706595,-1.330562,0.48775977
2.518,-0.8625952,-0.10064053,4.5768385,-0.4189997,-1.1475013,0.47176048
2.52,-0.8654383,-0.09441074,4.5346246,-0.3692737,-0.9695593,0.45484975
2.522,-0.8683242,-0.083841905,4.4901,-0.32148287,-0.79672015,0.4367447
2.524,-0.8710207,-0.069641456,4.4439487,-0.2755701,-0.6288851,0.41717613
2.526,-0.8733587,-0.052506715,4.3966947,-0.23143768,-0.46591237,0.39590308
2.528,-0.8751062,-0.03323748,4.3489337,-0.18893348,-0.3076226,0.37276068
2.53,-0.87617844,-0.012561262,4.3011227,-0.14788647,-0.1538169,0.34764376
2.532,-0.8765117,0.00881853,4.253727,-0.10807984,-0.0043113986,0.32052362
2.534,-0.8759875,0.030376032,4.207084,-0.0692808,0.14110634,0.2914866
2.536,-0.8746363,0.051511206,4.16158,-0.031234546,0.28265056,0.26068854
2.538,-0.8725859,0.07181975,4.1174564,0.00631213,0.42053136,0.22835483
2.54,-0.8697621,0.09087492,4.0749764,0.04360817,0.5549636,0.19476898
2.542,-0.8663975,0.10837066,4.0342283,0.08087617,0.6861765,0.16025421
2.544,-0.86238927,0.124056704,3.9953523,0.11684556,0.8102731,0.12626506
2.546,-0.8579509,0.13775003,3.9584322,0.15232083,0.92949444,0.09256044
2.548,-0.8531518,0.1494258,3.923415,0.18712291,1.043346,0.059612922
2.55,-0.84814674,0.15893471,3.8903115,0.22100566,1.151264,0.027885124
2.552,-0.84283733,0.16626525,3.859088,0.2536741,1.2526921,-0.0022113863
2.554,-0.83749694,0.17160165,3.8297486,0.28482977,1.3471488,-0.030341098
2.556,-0.8320414,0.17493421,3.8021095,0.3142086,1.4342872,-0.056259908
2.558,-0.8265755,0.17643338,3.7761831,0.34160608,1.513943,-0.079835154
2.56,-0.8212987,0.17626283,3.7519205,0.36688554,1.5861522,-0.1010482
2.562,-0.81623,0.17461959,3.7292187,0.38999766,1.6511391,-0.11995912
2.564,-0.811463,0.1716322,3.707854,0.41098183,1.7092913,-0.13669601
2.566,-0.8069768,0.16749695,3.6879258,0.42991787,1.7611154,-0.15142624
