Time_s_,Acc_x_m_s_2_,Acc_y_m_s_2_,Acc_z_m_s_2_,Gyro_x_1_s_,Gyro_y_1_s_,Gyro_z_1_s_
0,-0.543978,-0.16531247,-0.8844266,0.040937014,-0.31320328,-0.057108894
0.002,-0.5611006,-0.14000228,-0.89709955,0.049981236,-0.29466274,-0.058426037
0.004,-0.57950896,-0.11351138,-0.90964836,0.060108364,-0.2741629,-0.060589135
0.006,-0.59914935,-0.08547653,-0.922273,0.07134196,-0.2517732,-0.06381971
0.008,-0.62025833,-0.055873655,-0.934487,0.08361256,-0.22772749,-0.068374366
0.01,-0.64280164,-0.024707444,-0.9458157,0.09673536,-0.20245415,-0.07461235
0.012,-0.6667897,0.0080662295,-0.9557891,0.11040851,-0.1765691,-0.08293846
0.014,-0.6919184,0.042280756,-0.9642382,0.124175176,-0.1509032,-0.09382278
0.016,-0.718348,0.07776889,-0.97127694,0.13747913,-0.12648684,-0.10774772
0.018,-0.74588674,0.11431225,-0.9767261,0.14967713,-0.10445434,-0.12515818
0.02,-0.7741967,0.15139751,-0.98041755,0.16010834,-0.08594162,-0.14637452
0.022,-0.8032689,0.1886766,-0.98209566,0.16814777,-0.07194845,-0.1715793
0.024,-0.8329308,0.22581224,-0.98169917,0.17328168,-0.06319407,-0.20077978
0.026,-0.8627976,0.262289,-0.9794103,0.17513889,-0.060017884,-0.23382476
0.028,-0.89248496,0.2975909,-0.9755033,0.17384873,-0.06170819,-0.27073804
0.03,-0.9214794,0.3311336,-0.9703199,0.16907474,-0.06860344,-0.3107393
0.032,-0.94934213,0.36235654,-0.9639266,0.16111177,-0.07967788,-0.35327885
0.034,-0.975394,0.39070877,-0.9567858,0.15046614,-0.09363811,-0.39772558
0.036,-0.9991332,0.41557378,-0.9494936,0.1378206,-0.10906212,-0.44347757
0.038,-1.0198803,0.43647057,-0.942859,0.12395978,-0.12453638,-0.48999327
0.04,-1.0372585,0.45289916,-0.93761235,0.109679,-0.13883512,-0.5367735
0.042,-1.0508435,0.4645342,-0.9343183,0.0957247,-0.15100946,-0.5833917
0.044,-1.0602486,0.4711061,-0.93345463,0.0827307,-0.16043277,-0.62948525
0.046,-1.0652845,0.4724804,-0.9354863,0.071169026,-0.16690664,-0.67476726
0.048,-1.065716,0.4684623,-0.94071686,0.061289884,-0.17067997,-0.71895146
0.05,-1.0615654,0.45908222,-0.9492483,0.05309452,-0.17230973,-0.7617209
0.052,-1.0529735,0.4444366,-0.9609386,0.046391703,-0.17254336,-0.8027568
0.054,-1.0402001,0.4248877,-0.9756122,0.040741153,-0.17257862,-0.8418059
0.056,-1.0240204,0.40141433,-0.9926437,0.035520405,-0.17367166,-0.87862164
0.058,-1.004047,0.3736171,-1.0116049,0.029994443,-0.17701013,-0.91301703
0.06,-0.98084265,0.34203637,-1.0315799,0.023358554,-0.18385382,-0.9449341
0.062,-0.9549676,0.30743724,-1.0515715,0.014860153,-0.1953133,-0.97441375
0.064,-0.92694646,0.2704939,-1.0706077,0.003873974,-0.21226642,-1.0015428
0.066,-0.8975341,0.23200315,-1.0880398,-0.0100656,-0.23530114,-1.0264957
0.068,-0.8673345,0.19257975,-1.103158,-0.027184144,-0.2646169,-1.0494498
0.07,-0.83675426,0.15286936,-1.1150831,-0.047473326,-0.30000556,-1.0705779
0.072,-0.80617666,0.11341146,-1.1227193,-0.07068064,-0.3408501,-1.090023
0.074,-0.77605826,0.07484698,-1.1250813,-0.096329875,-0.3861195,-1.1078752
0.076,-0.74647605,0.037337303,-1.1213374,-0.12374207,-0.43445283,-1.1241261
0.078,-0.7171155,0.0010422766,-1.1125579,-0.15208754,-0.48426723,-1.1386713
0.08,-0.6878276,-0.033657536,-1.0984877,-0.180444,-0.5338606,-1.1513435
0.082,-0.6586048,-0.066861,-1.0780722,-0.20791085,-0.5815725,-1.1619539
0.084,-0.628561,-0.09831673,-1.0515909,-0.23362695,-0.62589025,-1.1703744
0.086,-0.59730214,-0.12794349,-1.0195026,-0.25685933,-0.6655544,-1.176589
0.088,-0.5642781,-0.15674002,-0.98201376,-0.27707216,-0.6996683,-1.180698
0.09,-0.52876294,-0.1851165,-0.9395481,-0.29392305,-0.72772473,-1.1828399
0.092,-0.48996168,-0.21363923,-0.89269423,-0.30725574,-0.74958897,-1.1831962
0.094,-0.44723734,-0.24296412,-0.8416346,-0.3171241,-0.7655127,-1.1820167
0.096,-0.39973336,-0.27347574,-0.7865094,-0.32377216,-0.7760476,-1.1795319
0.098,-0.34681433,-0.30553746,-0.72751784,-0.32761383,-0.7819656,-1.1759506
0.1,-0.2879423,-0.33966357,-0.6650576,-0.3291552,-0.7840926,-1.1714468
0.102,-0.22256936,-0.37638298,-0.599595,-0.3289257,-0.7831964,-1.1661699
0.104,-0.15046419,-0.4161418,-0.53164196,-0.3274081,-0.77994305,-1.1602436
0.106,-0.07110902,-0.45935607,-0.46197426,-0.32499966,-0.7748032,-1.1537468
0.108,0.0155663565,-0.5062957,-0.39145508,-0.32197124,-0.76804197,-1.1467175
0.11,0.10976584,-0.5569804,-0.32110217,-0.3184363,-0.7597361,-1.1391838
0.112,0.21128081,-0.6112896,-0.25170332,-0.314359,-0.74976397,-1.1312014
0.114,0.31926394,-0.6687969,-0.18460044,-0.3095703,-0.73784596,-1.1228963
0.116,0.4329639,-0.72929215,-0.12092477,-0.30377823,-0.72364885,-1.114419
0.118,0.55170935,-0.7922662,-0.06225227,-0.29664156,-0.7068217,-1.1058149
0.12,0.67435163,-0.8569734,-0.010327324,-0.28781086,-0.68702817,-1.0971129
0.122,0.7998065,-0.92277426,0.033343688,-0.27694008,-0.66400844,-1.0884404
0.124,0.9267468,-0.98867524,0.06752233,-0.26371673,-0.6375744,-1.0798548
0.126,1.0539116,-1.0535728,0.091270804,-0.2479181,-0.6076673,-1.0713347
0.128,1.17987,-1.1162142,0.1035444,-0.22946326,-0.5744069,-1.0628281
0.13,1.3029826,-1.1752337,0.10344684,-0.20839077,-0.53809553,-1.0542232
0.132,1.421617,-1.2293028,0.090642065,-0.18486722,-0.49924403,-1.0453601
0.134,1.5338362,-1.2773091,0.06492819,-0.15917827,-0.45859176,-1.0360214
0.136,1.6379209,-1.3181453,0.026983514,-0.1317075,-0.4171004,-1.0259916
0.138,1.7324799,-1.350627,-0.022383824,-0.10295534,-0.3759765,-1.0151007
0.14,1.8167222,-1.3740132,-0.08265804,-0.07349758,-0.33660078,-1.0032496
0.142,1.8903767,-1.3877652,-0.153408,-0.043987684,-0.30051935,-0.99045
0.144,1.9526815,-1.3918105,-0.233482,-0.015133344,-0.26935044,-0.97687167
0.146,2.0031238,-1.3863546,-0.3205989,0.012336612,-0.2447114,-0.96287125
0.148,2.0410256,-1.3718554,-0.41159543,0.037730522,-0.22811379,-0.94894266
0.15,2.066198,-1.3488343,-0.5029646,0.06041021,-0.22090119,-0.9357074
0.152,2.078615,-1.318032,-0.5915645,0.07981128,-0.22419058,-0.9238522
0.154,2.0787847,-1.2802016,-0.6744592,0.095467225,-0.23880917,-0.91408634
0.156,2.0675867,-1.2362902,-0.74878377,0.10703107,-0.26524442,-0.907068
0.158,2.046216,-1.1874921,-0.8119583,0.114307016,-0.30360508,-0.90334874
0.16,2.0161872,-1.1352148,-0.8614008,0.11725715,-0.3535993,-0.9033385
0.162,1.9793143,-1.0812051,-0.894826,0.115979195,-0.4145161,-0.9072701
0.164,1.9375286,-1.0274283,-0.9101489,0.1107493,-0.48513758,-0.91515297
0.166,1.8926415,-0.97570646,-0.90616304,0.10206425,-0.56378657,-0.9267329
0.168,1.8471059,-0.92790866,-0.8823787,0.09063581,-0.6483334,-0.94149137
0.17,1.8030133,-0.88558424,-0.838457,0.07736107,-0.7362342,-0.9587514
0.172,1.7624415,-0.8503333,-0.77467954,0.06327775,-0.8246506,-0.9777911
0.174,1.7276083,-0.82344013,-0.6917014,0.049551845,-0.91051245,-0.9977674
0.176,1.7003648,-0.8061221,-0.59067965,0.037406668,-0.99059415,-1.0176609
0.178,1.6828308,-0.7992657,-0.4734953,0.028130189,-1.0616477,-1.0364984
0.18,1.6761849,-0.8033629,-0.34273106,0.02309724,-1.1205177,-1.0533555
0.182,1.680931,-0.8180755,-0.20217437,0.023655742,-1.1643769,-1.0673919
0.184,1.6973732,-0.84278816,-0.05613087,0.030970052,-1.1909622,-1.0779436
0.186,1.7254479,-0.87636673,0.09000367,0.04592499,-1.1988021,-1.0845686
0.188,1.7637023,-0.9169785,0.23272195,0.069017194,-1.1873815,-1.0870601
0.19,1.8117117,-0.9640696,0.36998528,0.1002834,-1.157201,-1.085424
0.192,1.8690594,-1.0170655,0.50130737,0.1393159,-1.1097443,-1.0798185
0.194,1.9329059,-1.0740608,0.62392455,0.18528458,-1.0473684,-1.0705044
0.196,2.000531,-1.1327033,0.7341244,0.23707253,-0.9730239,-1.0577967
0.198,2.0690815,-1.1898679,0.82819796,0.29337198,-0.89002717,-1.041999
0.2,2.1350868,-1.2428762,0.9029659,0.35283655,-0.80175203,-1.0233864
0.202,2.1951203,-1.2889681,0.9559629,0.41419286,-0.7113792,-1.0022262
0.204,2.2461598,-1.3259604,0.98502386,0.4763633,-0.62169546,-0.97884375
0.206,2.2854521,-1.3521283,0.9894719,0.5385003,-0.53499687,-0.95362425
0.208,2.310475,-1.3658719,0.9702018,0.6000023,-0.45308155,-0.9270444
0.21,2.3193407,-1.3658223,0.9290782,0.6604582,-0.37731105,-0.89973843
0.212,2.3102033,-1.3508679,0.86798996,0.7195749,-0.3087101,-0.8724596
0.214,2.2823548,-1.3207661,0.78902334,0.7771046,-0.24806067,-0.8460599
0.216,2.2354898,-1.2756641,0.69510853,0.83270025,-0.1960949,-0.8214605
0.218,2.1702495,-1.2165633,0.5898002,0.885826,-0.15372235,-0.799631
0.22,2.0877066,-1.1450872,0.4768215,0.93584037,-0.12179342,-0.7814928
0.222,1.9896584,-1.0634485,0.36014768,0.9821071,-0.100931615,-0.76781774
0.224,1.8786272,-0.9743103,0.24436031,1.0241417,-0.091487736,-0.7592628
0.226,1.7575748,-0.8807608,0.13389526,1.0616127,-0.09361461,-0.75638914
0.228,1.6298369,-0.78614175,0.033027917,1.0942124,-0.10732818,-0.7595853
0.23,1.4990815,-0.6942058,-0.054031678,1.1216199,-0.13258547,-0.7691574
0.232,1.3688293,-0.60830337,-0.12411918,1.1435835,-0.16919062,-0.78532493
0.234,1.2427845,-0.53212446,-0.17483743,1.1600548,-0.21669191,-0.8081333
0.236,1.1245207,-0.46909395,-0.20377386,1.1713371,-0.2741647,-0.837342
0.238,1.0170703,-0.422287,-0.20877706,1.1781718,-0.34005037,-0.87237597
0.24,0.9233203,-0.39440095,-0.18845971,1.1817474,-0.41202295,-0.9123405
0.242,0.84590507,-0.38787743,-0.14301099,1.1836026,-0.4870813,-0.956115
0.244,0.78692424,-0.40433198,-0.07364107,1.1854864,-0.5617622,-1.0023994
0.246,0.7473395,-0.4445811,0.016750313,1.1891612,-0.6324203,-1.0497724
0.248,0.72712153,-0.50886583,0.12544937,1.1962006,-0.6956339,-1.0968032
0.25,0.7254381,-0.5961698,0.24994035,1.2077955,-0.74854624,-1.1421044
0.252,0.7405596,-0.70490706,0.38710102,1.22464,-0.78915864,-1.1844393
0.254,0.77107406,-0.8329612,0.53334075,1.246899,-0.81649506,-1.2227145
0.256,0.81532896,-0.9778218,0.6842466,1.2742429,-0.83060133,-1.2560695
0.258,0.8719256,-1.1368265,0.83466613,1.3059545,-0.8324498,-1.283877
0.26,0.93840873,-1.3069947,0.9800552,1.3410609,-0.82373905,-1.3057995
0.262,1.0120907,-1.4849885,1.1166991,1.3785014,-0.80659914,-1.3217485
0.264,1.0897769,-1.6676058,1.2413158,1.4172438,-0.7833125,-1.3318378
0.266,1.1685753,-1.8516324,1.3512859,1.4563282,-0.756145,-1.3363607
0.268,1.2451454,-2.0335708,1.4444685,1.4949446,-0.72717047,-1.335757
0.27,1.3169065,-2.2103577,1.5190642,1.5324178,-0.6981356,-1.3305671
0.272,1.3815356,-2.378895,1.5740986,1.5681287,-0.670483,-1.3213673
0.274,1.4367054,-2.5365899,1.6093428,1.6013627,-0.64567494,-1.3087621
0.276,1.4808652,-2.68137,1.625334,1.631243,-0.6252668,-1.2933671
0.278,1.5124439,-2.8116884,1.6232029,1.6568118,-0.61073494,-1.2756896
0.28,1.5300442,-2.9261427,1.6048954,1.6772163,-0.60322684,-1.2562472
0.282,1.5360789,-3.0261483,1.5707793,1.6918919,-0.6035204,-1.2356913
0.284,1.5277941,-3.1107445,1.5232555,1.7005682,-0.61192584,-1.2147096
0.286,1.5053966,-3.1798117,1.4644797,1.7031453,-0.6283783,-1.1939605
0.288,1.4694138,-3.233893,1.3963177,1.6996064,-0.652585,-1.1740873
0.29,1.4210882,-3.2740984,1.3211375,1.6900551,-0.6840333,-1.1557229
0.292,1.3616359,-3.301919,1.2417538,1.6747046,-0.72205794,-1.1394473
0.294,1.292243,-3.3187184,1.1609071,1.653868,-0.7659824,-1.1257355
0.296,1.2142928,-3.3260412,1.0817046,1.6279274,-0.81514,-1.1148653
0.298,1.1295904,-3.3254821,1.0048547,1.5972859,-0.86888474,-1.1069292
0.3,1.0389117,-3.317501,0.9298775,1.5623533,-0.92662305,-1.1018827
0.302,0.94256926,-3.3020935,0.85538393,1.5235279,-0.98779124,-1.0995706
0.304,0.84259045,-3.280943,0.7836362,1.48121,-1.0518513,-1.0997716
0.306,0.74162626,-3.256781,0.71802783,1.4358001,-1.1182737,-1.102242
0.308,0.6404067,-3.2306674,0.6608211,1.3877307,-1.1864964,-1.1067756
0.31,0.54001665,-3.2032723,0.61345136,1.3375025,-1.2558033,-1.1132586
0.312,0.4416658,-3.1752279,0.5765085,1.2853684,-1.3259013,-1.1215032
0.314,0.3459707,-3.1465569,0.55006254,1.2316098,-1.3964908,-1.1313154
0.316,0.25350428,-3.1172945,0.53337526,1.176571,-1.4670588,-1.1426185
0.318,0.16454375,-3.0874588,0.5250684,1.1205487,-1.5372124,-1.1554189
0.32,0.07925689,-3.056919,0.5238347,1.0637467,-1.6066782,-1.1697495
0.322,-0.0017288923,-3.0257893,0.5292617,1.0062777,-1.6752982,-1.1856041
0.324,-0.07850462,-2.9935598,0.5412439,0.94825435,-1.7429448,-1.2029371
0.326,-0.15082255,-2.959767,0.55927956,0.8897747,-1.8094995,-1.2216495
0.328,-0.2187661,-2.923668,0.5825826,0.8309216,-1.8748155,-1.2415693
0.33,-0.28203982,-2.8846118,0.610368,0.77179796,-1.9386821,-1.2624488
0.332,-0.3407418,-2.8417373,0.64169645,0.71246505,-2.0008612,-1.2840469
0.334,-0.39474523,-2.7944405,0.67533433,0.6529435,-2.061234,-1.3061777
0.336,-0.44385064,-2.7422457,0.7099061,0.5931632,-2.119744,-1.3285127
0.338,-0.48835105,-2.6844897,0.7444997,0.5330668,-2.1762347,-1.350687
0.34,-0.52869445,-2.6204436,0.778462,0.47264662,-2.230487,-1.3726486
0.342,-0.5644722,-2.5499792,0.8108851,0.41194063,-2.2822258,-1.3946012
0.344,-0.59552383,-2.4728582,0.8410615,0.35100073,-2.3311527,-1.4168677
0.346,-0.62197995,-2.3889363,0.8678802,0.28987783,-2.3769944,-1.4398289
0.348,-0.64407134,-2.297983,0.89004856,0.22866476,-2.4195044,-1.4638541
0.35,-0.6618383,-2.1999547,0.90642726,0.16754307,-2.458438,-1.4892639
0.352,-0.67548233,-2.094638,0.91676927,0.10674275,-2.4936044,-1.516285
0.354,-0.6851228,-1.982341,0.92144054,0.04652763,-2.5248766,-1.5450116
0.356,-0.6910059,-1.8634756,0.92082804,-0.012806848,-2.5521486,-1.5753708
0.358,-0.6926775,-1.7386849,0.9146459,-0.070961036,-2.5753696,-1.6071639
0.36,-0.6900454,-1.6086814,0.90214837,-0.12764734,-2.5945258,-1.6400847
0.362,-0.68395454,-1.4736713,0.8831233,-0.18262051,-2.6096535,-1.6738257
0.364,-0.67557603,-1.3337687,0.8573703,-0.23567554,-2.62085,-1.7081256
0.366,-0.66491795,-1.1896516,0.8245409,-0.2864808,-2.6278584,-1.7429396
0.368,-0.6525276,-1.0423152,0.7851863,-0.33486345,-2.6306255,-1.7782843
0.37,-0.6388754,-0.89269197,0.7395532,-0.38079515,-2.629349,-1.8141387
0.372,-0.62467146,-0.74151754,0.6878004,-0.42422256,-2.6241267,-1.8504664
0.374,-0.6106771,-0.58926404,0.63023436,-0.46510434,-2.6150699,-1.8872052
0.376,-0.59746265,-0.43638813,0.5671023,-0.5034335,-2.602403,-1.9242587
0.378,-0.5852243,-0.28365138,0.49846828,-0.53927135,-2.5864573,-1.9614203
0.38,-0.5747292,-0.1314834,0.4244209,-0.57274836,-2.567678,-1.9984331
0.382,-0.56623054,0.019668177,0.34469324,-0.6040275,-2.5466409,-2.0350192
0.384,-0.55981654,0.16967037,0.25904235,-0.63331604,-2.5240335,-2.0708864
0.386,-0.5563529,0.31851798,0.1677052,-0.6608531,-2.500667,-2.1057267
0.388,-0.5562646,0.4661534,0.071250394,-0.6868789,-2.4773378,-2.139216
0.39,-0.5592238,0.6120107,-0.030002922,-0.71160924,-2.4548597,-2.1712613
0.392,-0.5676732,0.7577764,-0.13482043,-0.735278,-2.434147,-2.201873
0.394,-0.57899296,0.90212077,-0.24445885,-0.7580813,-2.4159775,-2.2309556
0.396,-0.5937656,1.044938,-0.35897392,-0.78013474,-2.4010034,-2.2584882
0.398,-0.61231375,1.1865454,-0.47786644,-0.8015345,-2.3898396,-2.2845275
0.4,-0.63422775,1.326763,-0.60120654,-0.82230926,-2.382895,-2.3091164
0.402,-0.65904915,1.4654738,-0.72860813,-0.8424872,-2.3804092,-2.3323271
0.404,-0.6866504,1.6025962,-0.85941046,-0.8620955,-2.382535,-2.3543513
0.406,-0.7165421,1.738126,-0.9933963,-0.88114494,-2.3893561,-2.3755069
0.408,-0.74815917,1.8719565,-1.1301925,-0.8996294,-2.4008863,-2.3961463
0.41,-0.7811463,2.0038943,-1.2696621,-0.91752505,-2.4170573,-2.4166338
0.412,-0.8144504,2.133391,-1.411023,-0.93483216,-2.4377623,-2.4373507
0.414,-0.8474076,2.2604792,-1.5545143,-0.9515497,-2.462816,-2.4586568
0.416,-0.8803203,2.3858664,-1.7008344,-0.9677349,-2.4920206,-2.4808362
0.418,-0.9119849,2.5090172,-1.8497362,-0.98349303,-2.5252347,-2.504042
0.42,-0.94182545,2.62919,-2.0010624,-0.99895805,-2.5623302,-2.528332
0.422,-0.96958536,2.7461662,-2.1548026,-1.0142895,-2.6031277,-2.5536163
0.424,-0.9950745,2.8599489,-2.3109236,-1.02973,-2.6475747,-2.5796325
0.426,-1.0183654,2.9707415,-2.4697309,-1.0455785,-2.6957567,-2.6060665
0.428,-1.0390468,3.078588,-2.6315644,-1.0620592,-2.7477484,-2.632672
0.43,-1.0570134,3.1833973,-2.7965128,-1.0794022,-2.8036916,-2.6592605
0.432,-1.0725186,3.2853518,-2.9646468,-1.0978215,-2.8638647,-2.6857316
0.434,-1.085812,3.384355,-3.1360447,-1.1174307,-2.928492,-2.7121127
0.436,-1.0974686,3.4806483,-3.3104403,-1.1382339,-2.9977245,-2.7385488
0.438,-1.1076111,3.5742908,-3.4874191,-1.1601696,-3.0717418,-2.7653432
0.44,-1.1167195,3.6652806,-3.6659508,-1.1831021,-3.1506464,-2.7929125
0.442,-1.1249952,3.753522,-3.8452756,-1.2068326,-3.2344456,-2.8217354
0.444,-1.1326513,3.8388782,-4.023991,-1.2311323,-3.323048,-2.8522573
0.446,-1.1400559,3.9215112,-4.2004666,-1.2557808,-3.4162786,-2.8848567
0.448,-1.1470945,4.0012097,-4.373225,-1.2806046,-3.513906,-2.919811
0.45,-1.15336,4.077636,-4.5409374,-1.3054986,-3.6155407,-2.9572585
0.452,-1.1592107,4.1507664,-4.701443,-1.3303964,-3.7206688,-2.9972944
0.454,-1.1647882,4.220291,-4.852503,-1.3553052,-3.8287463,-3.039938
0.456,-1.1693803,4.2856035,-4.9922733,-1.3802773,-3.939142,-3.0850437
0.458,-1.1721569,4.3459306,-5.118765,-1.4054134,-4.0511436,-3.1323009
0.46,-1.1728983,4.4007683,-5.2297716,-1.4308589,-4.1639895,-3.1812923
0.462,-1.1708533,4.4493704,-5.323634,-1.4568105,-4.2769647,-3.2315953
0.464,-1.1653783,4.491226,-5.3989215,-1.4834837,-4.389417,-3.2827983
0.466,-1.1555586,4.5256467,-5.45421,-1.5111029,-4.500812,-3.3345008
0.468,-1.1410685,4.551734,-5.488494,-1.5399286,-4.61079,-3.386384
0.47,-1.1213194,4.5686383,-5.5007586,-1.5702211,-4.7191463,-3.4381778
0.472,-1.0947403,4.5750427,-5.4907236,-1.6022733,-4.8258204,-3.4896855
0.474,-1.0602815,4.5698166,-5.4583015,-1.6364189,-4.9309745,-3.5407593
0.476,-1.018271,4.552485,-5.4034557,-1.6730218,-5.0350013,-3.591342
0.478,-0.9687854,4.5226583,-5.3269157,-1.7123749,-5.1383123,-3.6414218
0.48,-0.91136074,4.4795203,-5.2294555,-1.7547542,-5.2413564,-3.6909394
0.482,-0.8457662,4.4220953,-5.111804,-1.800447,-5.34473,-3.7397633
0.484,-0.77211726,4.3494906,-4.974952,-1.84968,-5.449049,-3.7877314
0.486,-0.69100547,4.261007,-4.820136,-1.90265,-5.5549293,-3.8346527
0.488,-0.6029484,4.156186,-4.648406,-1.9595587,-5.6630545,-3.8802526
0.49,-0.50843143,4.034732,-4.4610004,-2.020614,-5.774055,-3.9242117
0.492,-0.40851998,3.8963459,-4.259264,-2.085962,-5.88839,-3.9661481
0.494,-0.30394697,3.7406156,-4.044622,-2.1557043,-6.0064116,-4.0056453
0.496,-0.19481659,3.5673008,-3.8188198,-2.2298987,-6.1283484,-4.0423064
0.498,-0.081539154,3.3762307,-3.5838623,-2.3085275,-6.2543063,-4.0756946
0.5,0.034523726,3.167631,-3.3413286,-2.3914964,-6.3841944,-4.105339
0.502,0.1521399,2.9418263,-3.0919228,-2.478646,-6.5177464,-4.130738
0.504,0.27060652,2.6992455,-2.836029,-2.5697684,-6.6545496,-4.1513953
0.506,0.3896036,2.4400666,-2.5751524,-2.664608,-6.794039,-4.166791
0.508,0.5082233,2.1648922,-2.310962,-2.7628856,-6.935563,-4.176404
0.51,0.6251429,1.8747689,-2.0450444,-2.864316,-7.078353,-4.179734
0.512,0.7394906,1.5706756,-1.7791679,-2.968616,-7.2215495,-4.176318
0.514,0.85070765,1.2535708,-1.5152577,-3.07549,-7.3642397,-4.1657753
0.516,0.9579345,0.9245597,-1.2548262,-3.1846242,-7.505487,-4.147795
0.518,1.0603603,0.58491254,-0.9993564,-3.295733,-7.6444283,-4.122135
0.52,1.1575296,0.23594534,-0.7500902,-3.4085112,-7.780227,-4.088594
0.522,1.2485499,-0.120927095,-0.5084834,-3.5226226,-7.9120927,-4.0469785
0.524,1.3329492,-0.48435614,-0.27564242,-3.6377332,-8.039389,-3.997145
0.526,1.4100635,-0.8529731,-0.052414715,-3.7534778,-8.16161,-3.9389064
0.528,1.4789006,-1.2251849,0.16041978,-3.869451,-8.278448,-3.872016
0.53,1.5387268,-1.5990502,0.36154723,-3.985245,-8.38981,-3.7961512
0.532,1.5886006,-1.9726096,0.54972255,-4.1004443,-8.495826,-3.7108812
0.534,1.6280674,-2.3440166,0.7242286,-4.2146206,-8.596765,-3.6156962
0.536,1.6565187,-2.711216,0.88441145,-4.3273687,-8.693066,-3.510106
0.538,1.6728736,-3.0718524,1.0299139,-4.438309,-8.785332,-3.3936558
0.54,1.6761315,-3.4231994,1.1603177,-4.547043,-8.874208,-3.2659576
0.542,1.6653388,-3.7627227,1.2752936,-4.653127,-8.960322,-3.1266587
0.544,1.6401908,-4.0880976,1.3745042,-4.7561502,-9.044321,-2.9754796
0.546,1.6001918,-4.3970275,1.4580961,-4.855698,-9.126847,-2.812212
0.548,1.5448899,-4.68696,1.5263283,-4.951397,-9.208508,-2.6367393
0.55,1.4739105,-4.9554462,1.5790495,-5.0546265,-9.329261,-2.4732776
0.552,1.3863747,-5.199735,1.6152937,-5.1492815,-9.436361,-2.289174
0.554,1.2820675,-5.4176035,1.6334438,-5.2429323,-9.556587,-2.1008184
0.556,1.1616256,-5.6071854,1.6336417,-5.3364654,-9.693889,-1.9106661
0.558,1.0254982,-5.766454,1.6168956,-5.430717,-9.851822,-1.7210212
0.56,0.8741615,-5.8935356,1.5834713,-5.526247,-10.032729,-1.533616
0.562,0.70844007,-5.987014,1.5325569,-5.623031,-10.236813,-1.349031
0.564,0.52903533,-6.045212,1.4628859,-5.7201967,-10.461401,-1.1662388
0.566,0.33689547,-6.0670414,1.3737166,-5.815901,-10.700483,-0.9822752
0.568,0.13357401,-6.052249,1.2642574,-5.9073277,-10.944949,-0.79239273
0.57,-0.079322815,-6.0008554,1.1337987,-5.9909983,-11.1834545,-0.59063554
0.572,-0.30078626,-5.9128094,0.9816216,-6.0631447,-11.404005,-0.3707726
0.574,-0.5295954,-5.788244,0.80733365,-6.1204166,-11.596058,-0.12744755
0.576,-0.7646849,-5.627823,0.6102756,-6.1604023,-11.752413,0.14268762
0.578,-1.0046401,-5.4324207,0.39019752,-6.182062,-11.870576,0.44015592
0.58,-1.248364,-5.2031746,0.14731342,-6.18591,-11.953329,0.7623327
0.582,-1.4953535,-4.941219,-0.11806548,-6.173852,-12.008093,1.1038227
0.584,-1.7445925,-4.6473145,-0.40554255,-6.148817,-12.045661,1.4573517
0.586,-1.9962581,-4.3231955,-0.71470773,-6.114184,-12.07834,1.8148717
0.588,-2.2504573,-3.9709983,-1.044092,-6.073113,-12.117693,2.1688237
0.59,-2.5071344,-3.5927532,-1.3920128,-6.028126,-12.172851,2.5131545
0.592,-2.766938,-3.1899996,-1.7569118,-5.980809,-12.24967,2.843815
0.594,-3.030262,-2.764167,-2.1367266,-5.931764,-12.350549,3.1587632
0.596,-3.2980597,-2.3168936,-2.5293214,-5.8807445,-12.474824,3.45764
0.598,-3.5714679,-1.8498313,-2.9324274,-5.826827,-12.619444,3.741331
0.6,-3.8518727,-1.3646734,-3.343657,-5.768754,-12.779841,4.0114284
0.602,-4.1406393,-0.8629289,-3.7605517,-5.7051606,-12.950814,4.269758
0.604,-4.4390354,-0.34586418,-4.1805706,-5.62794,-13.104233,4.5320864
0.606,-4.74844,0.18501368,-4.601106,-5.552709,-13.29138,4.765155
0.608,-5.07028,0.7283394,-5.0190673,-5.467641,-13.47088,4.992708
0.61,-5.4049487,1.2830784,-5.431654,-5.3727207,-13.64081,5.2141967
0.612,-5.753269,1.846885,-5.835817,-5.268036,-13.7993355,5.4290857
0.614,-6.116841,2.418524,-6.2294707,-5.1537657,-13.944751,5.6368246
0.616,-6.495843,2.9962478,-6.6098647,-5.0302787,-14.075742,5.836851
0.618,-6.889976,3.578327,-6.97437,-4.8980656,-14.191246,6.0287213
0.62,-7.299203,4.163367,-7.321235,-4.757738,-14.290447,6.2121196
0.622,-7.723081,4.749787,-7.648701,-4.6100216,-14.372741,6.386759
0.624,-8.160897,5.3359113,-7.9544525,-4.4557157,-14.437771,6.5523844
0.626,-8.611779,5.919741,-8.23677,-4.2957034,-14.485364,6.708742
0.628,-9.074728,6.4989877,-8.494379,-4.1308627,-14.515359,6.855525
0.63,-9.548901,7.0718374,-8.726259,-3.9620948,-14.527685,6.992408
0.632,-10.032583,7.6362815,-8.93189,-3.7902424,-14.522295,7.1190295
0.634,-10.524492,8.190638,-9.110808,-3.6160972,-14.499211,7.2349486
0.636,-11.023098,8.733021,-9.262853,-3.4404345,-14.458556,7.3396845
0.638,-11.526629,9.261298,-9.388044,-3.2639277,-14.400475,7.432721
0.64,-12.033604,9.773516,-9.486222,-3.0872838,-14.325241,7.513599
0.642,-12.542255,10.2680435,-9.55696,-2.9112678,-14.233491,7.5819254
0.644,-13.051291,10.7431965,-9.601189,-2.7366679,-14.126063,7.637432
0.646,-13.55996,11.197445,-9.619283,-2.564324,-14.003972,7.6799164
0.648,-14.066907,11.62907,-9.612555,-2.3951929,-13.868347,7.7093472
0.65,-14.570704,12.03641,-9.582635,-2.230315,-13.720387,7.725853
0.652,-15.070368,12.418638,-9.531034,-2.0707703,-13.561402,7.7297025
0.654,-15.56573,12.775238,-9.459068,-1.9176263,-13.392674,7.7212596
0.656,-16.056171,13.105633,-9.368822,-1.7718788,-13.215355,7.7009525
0.658,-16.541605,13.4093685,-9.262272,-1.6344435,-13.030387,7.6693277
0.66,-17.02167,13.686542,-9.141313,-1.5060694,-12.838475,7.627032
0.662,-17.495472,13.936907,-9.007278,-1.3872938,-12.640062,7.5747256
0.664,-17.963442,14.161047,-8.861557,-1.2785114,-12.435456,7.513022
0.666,-18.42619,14.359753,-8.70718,-1.179938,-12.2248125,7.442481
0.668,-18.883835,14.533704,-8.547929,-1.0916411,-12.008196,7.36371
0.67,-19.336472,14.683916,-8.386074,-1.0135363,-11.785499,7.2772503
0.672,-19.784382,14.811528,-8.222933,-0.9454767,-11.556641,7.183475
0.674,-20.227108,14.917428,-8.060033,-0.88733083,-11.321683,7.082643
0.676,-20.665012,15.003185,-7.899395,-0.8389474,-11.080723,6.9750443
0.678,-21.098362,15.070701,-7.7430706,-0.8001584,-10.833774,6.8610554
0.68,-21.526823,15.121581,-7.5932484,-0.7708055,-10.580892,6.7410946
0.682,-21.949984,15.1573925,-7.451678,-0.7507162,-10.322182,6.615548
0.684,-22.367142,15.179291,-7.320524,-0.73971665,-10.057689,6.484839
0.686,-22.777504,15.18915,-7.201373,-0.73761636,-9.787414,6.3494287
0.688,-23.18078,15.189493,-7.095881,-0.7441877,-9.511251,6.2098136
0.69,-23.574848,15.181118,-7.005737,-0.7591365,-9.229076,6.0665097
0.692,-23.95868,15.165348,-6.9320583,-0.7821414,-8.940691,5.9200006
0.694,-24.331543,15.143681,-6.8755856,-0.81281054,-8.64587,5.770733
0.696,-24.690546,15.117813,-6.8374085,-0.8507172,-8.344375,5.619072
0.698,-25.034657,15.089849,-6.818443,-0.8954324,-8.036041,5.4653487
0.7,-25.363064,15.061516,-6.8194346,-0.9465145,-7.720706,5.30986
0.702,-25.673313,15.033398,-6.8404922,-1.0035145,-7.398295,5.1528707
0.704,-25.9631,15.006723,-6.8818393,-1.0659487,-7.0688534,4.9946003
0.706,-26.229015,14.982035,-6.9452558,-1.1333973,-6.7325635,4.8351626
0.708,-26.470697,14.961092,-7.031373,-1.2054992,-6.389753,4.674618
0.71,-26.687267,14.94595,-7.139257,-1.2819492,-6.040884,4.512902
0.712,-26.87356,14.936295,-7.2703176,-1.362515,-5.6865644,4.349825
0.714,-27.027908,14.933288,-7.425205,-1.447045,-5.3275633,4.1850777
0.716,-27.14899,14.938207,-7.6031547,-1.5354402,-4.964747,4.018218
0.718,-27.233267,14.951229,-7.805179,-1.6275983,-4.598934,3.8486214
0.72,-27.278782,14.972997,-8.033165,-1.7234721,-4.2310476,3.6754675
0.722,-27.282755,15.0047455,-8.287937,-1.8230178,-3.8620021,3.4978788
0.724,-27.241524,15.046679,-8.569102,-1.9260912,-3.4925478,3.3149567
0.726,-27.1535,15.099495,-8.877584,-2.032495,-3.1233947,3.1257834
0.728,-27.015976,15.163084,-9.214665,-2.1418915,-2.7551548,2.9294586
0.73,-26.826326,15.237611,-9.580149,-2.2538292,-2.388294,2.725103
0.732,-26.58242,15.323587,-9.973694,-2.367738,-2.0231812,2.5119588
0.734,-26.281643,15.421007,-10.395893,-2.4828696,-1.660029,2.2893875
0.736,-25.922316,15.530272,-10.846172,-2.5983448,-1.2988964,2.0569448
0.738,-25.502834,15.651997,-11.323772,-2.7131567,-0.94010216,1.814339
0.74,-25.021555,15.786276,-11.827692,-2.8261466,-0.58370376,1.561347
0.742,-24.478172,15.933319,-12.3562155,-2.9360476,-0.22964653,1.2979736
0.744,-23.872282,16.092869,-12.907697,-3.0416098,0.12183595,1.0243002
0.746,-23.203987,16.264553,-13.480254,-3.1415648,0.47051218,0.7404176
0.748,-22.47377,16.448631,-14.071167,-3.2346773,0.8162886,0.4466157
0.75,-21.683369,16.645836,-14.676943,-3.319787,1.1588914,0.1432662
0.752,-20.833706,16.856112,-15.295234,-3.3958979,1.497711,-0.16921866
0.754,-19.92646,17.079683,-15.922648,-3.4621158,1.8320626,-0.49037635
0.756,-18.964035,17.316887,-16.555498,-3.5176427,2.1612456,-0.8197389
0.758,-17.94837,17.567442,-17.189732,-3.5618997,2.484281,-1.1567973
0.76,-16.882677,17.831278,-17.821556,-3.5944104,2.7999623,-1.5009427
0.762,-15.770111,18.108187,-18.446468,-3.6147637,3.107037,-1.8515508
0.764,-14.61346,18.39792,-19.060793,-3.622683,3.4041514,-2.2079506
0.766,-13.415686,18.699911,-19.661312,-3.6179924,3.689858,-2.5693848
0.768,-12.179613,19.013918,-20.244705,-3.6005857,3.9627264,-2.935092
0.77,-10.908728,19.339369,-20.808174,-3.5704458,4.2213287,-3.3042555
0.772,-9.606392,19.675747,-21.34856,-3.5276275,4.4642334,-3.675988
0.774,-8.274743,20.022043,-21.864025,-3.4722397,4.690007,-4.0494237
0.776,-6.916311,20.377039,-22.352762,-3.404488,4.89711,-4.423728
0.778,-5.532882,20.738361,-22.812954,-3.3246636,5.083974,-4.7979755
0.78,-4.130989,21.106655,-23.249952,-3.2330227,5.2492404,-5.171305
0.782,-2.711276,21.479988,-23.658573,-3.1298528,5.391672,-5.542885
0.784,-1.273427,21.856106,-24.037378,-3.0155158,5.509892,-5.911956
0.786,0.18237972,22.232044,-24.384686,-2.8903713,5.6026125,-6.277844
0.788,1.6519423,22.607193,-24.7008,-2.754888,5.66868,-6.6397743
0.79,3.134768,22.979328,-24.988266,-2.6096108,5.706972,-6.996812
0.792,4.629912,23.345871,-25.247253,-2.4552603,5.7166395,-7.347924
0.794,6.1332264,23.705788,-25.47592,-2.292749,5.696751,-7.691925
0.796,7.6432285,24.056417,-25.674946,-2.1231427,5.646596,-8.027645
0.798,9.159708,24.39381,-25.846199,-1.9476233,5.5658817,-8.353857
0.8,10.679733,24.716354,-25.989563,-1.76752,5.4544067,-8.669447
0.802,12.201741,25.022167,-26.104042,-1.5842648,5.312198,-8.973719
0.804,13.724213,25.308714,-26.189291,-1.3992879,5.1397543,-9.266242
0.806,15.244756,25.574144,-26.244526,-1.2139769,4.9379644,-9.546946
0.808,16.762808,25.8162,-26.26892,-1.0297966,4.707839,-9.816212
0.81,18.276962,26.033419,-26.26078,-0.8476567,4.451331,-10.07468
0.812,19.784685,26.225199,-26.218336,-0.6686635,4.1702814,-10.322857
0.814,21.283464,26.390858,-26.139956,-0.4939618,3.866456,-10.5615635
0.816,22.770947,26.530571,-26.022577,-0.32454324,3.5418708,-10.791452
0.818,24.247673,26.643654,-25.86473,-0.16118288,3.1992376,-11.013002
0.82,25.713291,26.729395,-25.665401,-0.0044169426,2.8415105,-11.22665
0.822,27.163708,26.789566,-25.421137,0.14510965,2.4709451,-11.432585
0.824,28.59913,26.824432,-25.129677,0.28668356,2.0897744,-11.630841
0.826,30.019424,26.834805,-24.789984,0.41971827,1.7006943,-11.821146
0.828,31.422966,26.822403,-24.399456,0.5436411,1.3062565,-12.0030575
0.83,32.809776,26.788084,-23.955032,0.6579604,0.9087062,-12.176222
0.832,34.179295,26.733154,-23.455437,0.7623348,0.51020646,-12.340434
0.834,35.531265,26.65854,-22.90001,0.8565664,0.11287427,-12.495577
0.836,36.865906,26.565338,-22.28777,0.9406524,-0.28125048,-12.642052
0.838,38.18292,26.454752,-21.617815,1.0148435,-0.6700609,-12.7808
0.84,39.482624,26.327303,-20.89043,1.0794559,-1.0515904,-12.913334
0.842,40.76565,26.18334,-20.10664,1.1348829,-1.423954,-13.0416565
0.844,42.03159,26.023438,-19.267685,1.1814761,-1.7852652,-13.168068
0.846,43.280838,25.847654,-18.375635,1.2194743,-2.1338038,-13.294828
0.848,44.51421,25.655052,-17.432808,1.2489023,-2.4680595,-13.423831
0.85,45.731754,25.44489,-16.441307,1.2695379,-2.7866094,-13.556379
0.852,46.93389,25.215946,-15.404276,1.2827377,-3.0821848,-13.703325
0.854,48.120907,24.967216,-14.324979,1.2857504,-3.3611417,-13.850571
0.856,49.293053,24.69754,-13.2069645,1.2793269,-3.6181324,-14.004214
0.858,50.450672,24.404919,-12.054832,1.263391,-3.8510666,-14.164059
0.86,51.594555,24.086811,-10.873886,1.2380667,-4.0578876,-14.329676
0.862,52.724487,23.74153,-9.668913,1.2037253,-4.236746,-14.500364
0.864,53.84107,23.367498,-8.445356,1.160574,-4.3867617,-14.675196
0.866,54.945873,22.962894,-7.2092476,1.1093445,-4.5069942,-14.852964
0.868,56.039356,22.526802,-5.9664326,1.0507202,-4.597251,-15.031406
0.87,57.12284,22.058285,-4.7226887,0.9850621,-4.658654,-15.20758
0.872,58.198074,21.55627,-3.485302,0.91250324,-4.6934667,-15.377844
0.874,59.266674,21.020283,-2.260849,0.8330262,-4.7041564,-15.53804
0.876,60.330757,20.450056,-1.0555859,0.74682236,-4.692645,-15.684093
0.878,61.39276,19.845182,0.12404251,0.6541703,-4.6609826,-15.812471
0.88,62.455444,19.205854,1.2719288,0.55538416,-4.6111317,-15.920588
0.882,63.52121,18.532854,2.3815594,0.4510069,-4.5440307,-16.00703
0.884,64.59181,17.82771,3.4473228,0.34173322,-4.4597464,-16.071472
0.886,65.66944,17.092073,4.463335,0.22832108,-4.358053,-16.11455
0.888,66.756165,16.328299,5.424032,0.11155462,-4.2385874,-16.137547
0.89,67.857315,15.536297,6.3296185,-0.007829189,-4.1009345,-16.141954
0.892,68.971245,14.719248,7.1697626,-0.12919307,-3.9449563,-16.129066
0.894,70.096344,13.880364,7.9401007,-0.25204873,-3.7710223,-16.099983
0.896,71.23236,13.022834,8.63684,-0.37603593,-3.5799494,-16.055515
0.898,72.3819,12.14772,9.25878,-0.50093985,-3.3729563,-15.99617
0.9,73.54284,11.258146,9.806818,-0.6266347,-3.1514006,-15.922302
0.902,74.71341,10.357163,10.279343,-0.7530485,-2.9167042,-15.834274
0.904,75.89341,9.446879,10.674556,-0.88014406,-2.670372,-15.732572
0.906,77.07872,8.530546,10.994119,-1.0089908,-2.417223,-15.611745
0.908,78.26418,7.6118946,11.241016,-1.137292,-2.1504078,-15.48697
0.91,79.445786,6.693356,11.416346,-1.2669613,-1.876749,-15.34897
0.912,80.61929,5.7769136,11.521248,-1.3983302,-1.5973034,-15.198527
0.914,81.779205,4.864843,11.558538,-1.5318717,-1.3131413,-15.036169
0.916,82.91968,3.9595454,11.53175,-1.6681702,-1.0254073,-14.862211
0.918,84.03484,3.063128,11.444762,-1.807856,-0.73523855,-14.676792
0.92,85.119446,2.1769137,11.301762,-1.9515567,-0.44366312,-14.479927
0.922,86.168846,1.3018167,11.107487,-2.099833,-0.1515212,-14.2715225
0.924,87.17921,0.4384005,10.867256,-2.253119,0.14062262,-14.051418
0.926,88.1463,-0.4120674,10.585877,-2.4117024,0.43251753,-13.819427
0.928,89.065956,-1.2482424,10.267628,-2.5757122,0.7242117,-13.575394
0.93,89.933525,-2.0684586,9.916078,-2.745141,1.0161109,-13.31918
0.932,90.74514,-2.8707943,9.535616,-2.919834,1.30899,-13.050756
0.934,91.49819,-3.6539297,9.13009,-3.0995257,1.6039009,-12.770262
0.936,92.191505,-4.416938,8.703843,-3.2838979,1.9020782,-12.477974
0.938,92.82452,-5.158595,8.261011,-3.472609,2.204897,-12.174303
0.94,93.39688,-5.877534,7.8045692,-3.6653943,2.5138125,-11.859739
0.942,93.908936,-6.5721664,7.3376904,-3.8620806,2.8301988,-11.534899
0.944,94.3608,-7.2403145,6.8629055,-4.0626326,3.1552458,-11.200563
0.946,94.75397,-7.8803883,6.3821163,-4.267194,3.489995,-10.857692
0.948,95.09098,-8.4902935,5.8968067,-4.476036,3.835324,-10.507429
0.95,95.37475,-9.067633,5.4077263,-4.689531,4.1919312,-10.151096
0.952,95.608604,-9.609957,4.9154243,-4.908189,4.560274,-9.790173
0.954,95.79675,-10.114531,4.4202843,-5.1326637,4.9405828,-9.426199
0.956,95.94341,-10.5779915,3.9220543,-5.363742,5.332878,-9.060777
0.958,96.05333,-10.996738,3.4201012,-5.6023374,5.7369494,-8.695597
0.96,96.13232,-11.36776,2.9128914,-5.8494515,6.152254,-8.3324175
0.962,96.18674,-11.687752,2.3999557,-6.1061616,6.5780478,-7.9728956
0.964,96.22376,-11.953951,1.8803368,-6.3736367,7.013249,-7.618621
0.966,96.251335,-12.163456,1.3529129,-6.653065,7.4565,-7.271042
0.968,96.27774,-12.313616,0.81723404,-6.9455857,7.9063616,-6.931436
0.97,96.31153,-12.401827,0.27368164,-7.2522597,8.36125,-6.6009474
0.972,96.36139,-12.425146,-0.27695465,-7.5741477,8.819398,-6.280507
0.974,96.43727,-12.381273,-0.8333473,-7.912201,9.278994,-5.9708056
0.976,96.54889,-12.267393,-1.3944168,-8.267218,9.738203,-5.6723504
0.978,96.70687,-12.08062,-1.9582901,-8.639934,10.195119,-5.38536
0.98,96.92171,-11.817724,-2.5227509,-9.030936,10.647786,-5.109797
0.982,97.203354,-11.4738035,-3.0841713,-9.440662,11.094192,-4.8454704
0.984,97.56178,-11.043469,-3.6382828,-9.869392,11.532248,-4.5918994
0.986,98.007324,-10.520542,-4.180767,-10.317313,11.959774,-4.3483534
0.988,98.55083,-9.898444,-4.7090797,-10.784544,12.374388,-4.1137767
0.99,99.204346,-9.169869,-5.2189217,-11.2711525,12.773443,-3.8866062
0.992,99.97576,-8.319578,-5.705452,-11.777201,13.154149,-3.6646452
0.994,100.87584,-7.331279,-6.1685677,-12.302813,13.513503,-3.4450068
0.996,101.91371,-6.1932116,-6.5921516,-12.848217,13.848265,-3.2239184
0.998,103.09868,-4.894901,-6.971092,-13.413747,14.155088,-2.9968348
1,104.443184,-3.4263263,-7.3061523,-13.999762,14.430594,-2.7584882
1.002,105.960724,-1.7695341,-7.6008873,-14.606663,14.671652,-2.5030951
1.004,107.65667,0.108121276,-7.853443,-15.234683,14.875613,-2.2246857
1.006,109.540276,2.2528338,-8.060402,-15.883791,15.040439,-1.9173183
1.008,111.61943,4.702259,-8.222679,-16.55351,15.165116,-1.5754471
1.01,113.88716,7.466071,-8.338249,-17.242779,15.249719,-1.1941566
1.012,116.35763,10.5051155,-8.41547,-17.949888,15.295559,-0.7692723
1.014,118.99968,13.920303,-8.428421,-18.67244,15.305354,-0.29749298
1.016,121.77985,17.741522,-8.372129,-19.407303,15.283048,0.22353649
1.018,124.683716,22.002026,-8.283287,-20.150543,15.233854,0.795547
1.02,127.70413,26.768503,-8.225977,-20.897856,15.163955,1.4196038
1.022,130.81076,32.060776,-8.181778,-21.645142,15.079168,2.095436
1.024,133.91788,37.80211,-8.204681,-22.387434,14.9854765,2.821772
1.026,137.17592,43.850426,-8.376503,-23.11877,14.8893795,3.59728
1.028,140.7404,50.21296,-8.693501,-23.83275,14.797272,4.4200153
1.03,144.41418,57.011078,-9.145542,-24.523275,14.71526,5.287842
1.032,148.17337,64.27102,-9.69322,-25.185352,14.647077,6.1980495
1.034,151.9907,71.938866,-10.208269,-25.815258,14.592925,7.147323
1.036,155.83763,79.94351,-10.770081,-26.410694,14.549281,8.1318
1.038,159.7009,88.24736,-11.480295,-26.970236,14.507767,9.145479
1.04,163.56471,96.78405,-12.3602295,-27.4942,14.454082,10.18
1.042,167.3773,105.49343,-13.391878,-27.986103,14.368174,11.230517
1.044,171.17467,114.19255,-14.632877,-28.45483,14.221714,12.294101
1.046,174.9302,122.82339,-16.096397,-28.91178,13.982048,13.3636055
1.048,178.63535,131.2488,-17.770136,-29.364891,13.615198,14.429087
1.05,182.28891,139.32513,-19.617828,-29.817455,13.080155,15.4766035
1.052,185.90678,146.93784,-21.60866,-30.271019,12.325878,16.48858
1.054,189.51048,153.96556,-23.68975,-30.726278,11.303023,17.461554
1.056,193.1016,160.28375,-25.778704,-31.201948,9.96349,18.4326
1.058,196.715,165.7625,-27.79681,-31.716274,8.28467,19.389328
1.06,200.37671,170.30765,-29.71933,-32.264503,6.2425485,20.327484
1.062,204.1217,173.84198,-31.521969,-32.83586,3.8133183,21.258413
1.064,207.97362,176.2988,-33.084442,-33.423355,1.0023136,22.207966
1.066,211.95522,177.6281,-34.266037,-34.004272,-2.1474934,23.211618
1.068,216.06943,177.81888,-34.967052,-34.53794,-5.5749645,24.279188
1.07,220.31955,176.89198,-35.130795,-35.000435,-9.210922,25.430912
1.072,224.69637,174.89526,-34.68982,-35.405197,-12.975013,26.666779
1.074,229.17345,171.89723,-33.56632,-35.779778,-16.79292,27.96389
1.076,233.71591,167.97818,-31.688738,-36.117264,-20.570822,29.253225
1.078,238.27892,163.2385,-29.00576,-36.393543,-24.223572,30.438572
1.08,242.8069,157.80078,-25.482405,-36.581436,-27.672752,31.413319
1.082,247.23859,151.80974,-21.110281,-36.63907,-30.840343,32.06206
1.084,251.49435,145.42406,-15.918297,-36.51174,-33.656475,32.270744
1.086,255.47444,138.80405,-9.9683,-36.14108,-36.0623,31.949642
1.088,259.07495,132.09749,-3.3315907,-35.480747,-38.011997,31.047112
1.09,262.19247,125.452194,3.9002495,-34.506435,-39.48068,29.552303
1.092,264.71472,119.006805,11.633316,-33.222923,-40.473835,27.499105
1.094,266.5321,112.887375,19.761017,-31.672798,-41.027443,24.963299
1.096,267.555,107.20073,28.16755,-29.929848,-41.197586,22.043644
1.098,267.70978,102.017715,36.75199,-28.084448,-41.051903,18.845325
1.1,266.94308,97.38588,45.388786,-26.229942,-40.671196,15.471568
1.102,265.22424,93.32276,53.948235,-24.45068,-40.142223,12.01459
1.104,262.54114,89.823105,62.32138,-22.806244,-39.53819,8.552916
1.106,258.90936,86.8723,70.385765,-21.317984,-38.908928,5.1523285
1.108,254.36826,84.4428,78.02657,-19.967438,-38.28534,1.8599625
1.11,248.97818,82.48978,85.137344,-18.692175,-37.67007,-1.2961102
1.112,242.82016,80.948555,91.6205,-17.420273,-37.05083,-4.2309895
1.114,235.99936,79.7384,97.38081,-16.090591,-36.373497,-6.884239
1.116,228.63281,78.76922,102.335236,-14.637913,-35.560246,-9.209995
1.118,220.84857,77.96758,106.41853,-13.000095,-34.54196,-11.162794
1.12,212.78957,77.287895,109.57841,-11.1403885,-33.258125,-12.693658
1.122,204.58127,76.71575,111.787384,-9.042119,-31.644474,-13.740035
1.124,196.3878,76.11203,113.002846,-6.683614,-29.642632,-14.276578
1.126,188.35075,75.4396,113.232185,-4.042674,-27.222336,-14.288005
1.128,180.57364,74.66405,112.52923,-1.1314611,-24.380714,-13.781457
1.13,173.14044,73.73253,110.96155,1.9854136,-21.167322,-12.778596
1.132,166.13797,72.65079,108.52186,5.23953,-17.656164,-11.3396
1.134,159.66997,71.49687,105.28774,8.57154,-13.953026,-9.561239
1.136,153.61235,70.35898,101.3524,11.914417,-10.191123,-7.554597
1.138,147.89696,69.15846,96.73221,15.195653,-6.5120525,-5.4380236
1.14,142.76991,67.75786,91.467995,18.34206,-3.0548592,-3.3362927
1.142,138.22919,66.16623,85.60492,21.285873,0.054049015,-1.367389
1.144,134.25789,64.47043,79.15343,23.966488,2.7152934,0.372658
1.146,130.82567,62.74936,72.34258,26.334106,4.8680596,1.8148814
1.148,127.88,61.034386,65.37315,28.359457,6.4894743,2.9207778
1.15,125.36955,59.377686,58.338326,30.03196,7.5879283,3.6892052
1.152,123.26873,57.815075,51.298058,31.356936,8.204249,4.157871
1.154,121.472565,56.47153,44.382107,32.353714,8.411432,4.392604
1.156,119.951805,55.32469,37.659943,33.05405,8.304273,4.472802
1.158,118.66094,54.426697,31.17784,33.496338,7.9836073,4.482191
1.16,117.55691,53.81396,24.968805,33.717663,7.5439105,4.5011687
1.162,116.592834,53.48494,19.078003,33.748074,7.064628,4.6007576
1.164,115.731926,53.444794,13.53492,33.608288,6.6030245,4.83875
1.166,114.96459,53.70123,8.352354,33.309467,6.1922092,5.257445
1.168,114.25598,54.26454,3.558167,32.854347,5.8416853,5.88081
1.17,113.59162,55.114082,-0.7756758,32.24005,5.540409,6.708801
1.172,112.953606,56.22708,-4.602207,31.462276,5.262668,7.7150674
1.174,112.3366,57.586136,-7.9698133,30.51659,4.973989,8.852867
1.176,111.73341,59.172,-10.922674,29.402473,4.6387043,10.064616
1.178,111.14654,60.946808,-13.454193,28.12746,4.224741,11.287633
1.18,110.56561,62.868614,-15.530263,26.706823,3.709053,12.458579
1.182,109.98032,64.897804,-17.150017,25.162691,3.0794082,13.5204735
1.184,109.38152,66.9999,-18.33475,23.518414,2.3317878,14.42853
1.186,108.75375,69.14867,-19.113544,21.795595,1.4715286,15.153285
1.188,108.07838,71.3156,-19.50558,20.016964,0.51248753,15.681795
1.19,107.336235,73.466225,-19.529922,18.205969,-0.5274693,16.017368
1.192,106.50789,75.559555,-19.20178,16.38494,-1.6279145,16.178274
1.194,105.58512,77.55667,-18.526415,14.574742,-2.766372,16.192928
1.196,104.57141,79.427536,-17.508253,12.795054,-3.9200206,16.093283
1.198,103.46706,81.15606,-16.172733,11.064649,-5.0671782,15.909666
1.2,102.27104,82.7225,-14.548973,9.401651,-6.1881723,15.667332
1.202,100.99273,84.109604,-12.682009,7.8231797,-7.2655444,15.384722
1.204,99.64058,85.30437,-10.615253,6.344533,-8.284505,15.073392
1.206,98.21247,86.30158,-8.390188,4.978482,-9.233627,14.73903
1.208,96.706566,87.11246,-6.0605106,3.734709,-10.104617,14.383587
1.21,95.12154,87.74702,-3.6539593,2.6194274,-10.892249,14.007824
1.212,93.46016,88.2155,-1.1935921,1.6354983,-11.594894,13.612747
1.214,91.72738,88.52885,1.2867966,0.78294754,-12.213504,13.199916
1.216,89.92636,88.69192,3.7647676,0.059028327,-12.750926,12.771815
1.218,88.06125,88.70652,6.2322025,-0.5417863,-13.211952,12.332091
1.22,86.137054,88.576294,8.68369,-1.0273108,-13.6025305,11.884701
1.222,84.15993,88.30649,11.112499,-1.4068053,-13.929486,11.432806
1.224,82.1366,87.901115,13.512604,-1.690079,-14.200128,10.978407
1.226,80.07098,87.366196,15.876516,-1.8868227,-14.421599,10.522868
1.228,77.967964,86.707085,18.197157,-2.00615,-14.60037,10.067073
1.23,75.83354,85.928406,20.465885,-2.0562825,-14.741954,9.611308
1.232,73.66962,85.03638,22.674664,-2.0443156,-14.850643,9.155381
1.234,71.47625,84.03542,24.81721,-1.9761821,-14.9293,8.699041
1.236,69.25617,82.93012,26.883438,-1.85675,-14.979473,8.242313
1.238,67.01241,81.72905,28.86731,-1.6899896,-15.001524,7.785841
1.24,64.747574,80.443634,30.769245,-1.479186,-14.994775,7.3311024
1.242,62.465736,79.08581,32.590454,-1.2270799,-14.957777,6.880328
1.244,60.171505,77.66731,34.331066,-0.9359677,-14.888393,6.4363184
1.246,57.870766,76.199356,35.989143,-0.607898,-14.784029,6.0022564
1.248,55.56909,74.69209,37.560246,-0.24469161,-14.641781,5.581531
1.25,53.269997,73.152374,39.037857,0.15191269,-14.458684,5.1776
1.252,50.975494,71.583755,40.41388,0.5800872,-14.232028,4.793966
1.254,48.689133,69.98924,41.679684,1.0376885,-13.959524,4.4341435
1.256,46.41533,68.373764,42.82681,1.5220187,-13.639591,4.101575
1.258,44.159348,66.74421,43.848434,2.0296335,-13.271674,3.7995582
1.26,41.927715,65.10953,44.739296,2.5562878,-12.856416,3.5310926
1.262,39.727966,63.479767,45.49447,3.0968297,-12.395764,3.2986188
1.264,37.56691,61.86586,46.110073,3.6452703,-11.893075,3.1038694
1.266,35.452522,60.277557,46.583435,4.194968,-11.353085,2.9476519
1.268,33.39218,58.72408,46.91339,4.7388945,-10.781811,2.8298101
1.27,31.391907,57.213524,47.100975,5.2699738,-10.186119,2.7490911
1.272,29.457073,55.75248,47.14997,5.7813487,-9.573303,2.7029996
1.274,27.592068,54.34565,47.06624,6.266584,-8.9512615,2.688034
1.276,25.799656,52.99676,46.85732,6.719977,-8.327873,2.699894
1.278,24.081541,51.707134,46.533073,7.1366925,-7.710539,2.7336173
1.28,22.438099,50.477074,46.10497,7.5128217,-7.106188,2.7837503
1.282,20.86895,49.305634,45.58659,7.8454313,-6.521141,2.84464
1.284,19.372772,48.190613,44.992146,8.132552,-5.960938,2.910615
1.286,17.947168,47.129097,44.336845,8.373134,-5.4303827,2.9762762
1.288,16.589048,46.11732,43.636414,8.567,-4.9334574,3.036707
1.29,15.294485,45.150627,42.906532,8.714761,-4.473278,3.087665
1.292,14.0588,44.223263,42.16238,8.81779,-4.0520782,3.1256685
1.294,12.877277,43.32969,41.418076,8.878138,-3.6712189,3.1481233
1.296,11.743912,42.464657,40.69061,8.898396,-3.3312075,3.1533804
1.298,10.653241,41.621063,39.991074,8.8817215,-3.031684,3.1407032
1.3,9.600588,40.791893,39.32845,8.831775,-2.7713976,3.1102324
1.302,8.580208,39.970657,38.711548,8.752658,-2.5481744,3.06279
1.304,7.587549,39.151512,38.146225,8.64888,-2.3588223,2.9997096
1.306,6.6195774,38.329147,37.63543,8.525274,-2.199163,2.92258
1.308,5.67381,37.499474,37.179832,8.386838,-2.0640802,2.8331325
1.31,4.7484937,36.659622,36.778316,8.238588,-1.9476204,2.733033
1.312,3.8425794,35.807655,36.42799,8.08532,-1.8431836,2.6238618
1.314,2.9560184,34.942696,36.124577,7.9313602,-1.7438264,2.5070925
1.316,2.0899796,34.064575,35.86238,7.780373,-1.642587,2.3841112
1.318,1.2460444,33.17433,35.63407,7.635064,-1.5328305,2.2562199
1.32,0.4262159,32.27384,35.43109,7.4970846,-1.408603,2.1247084
1.322,-0.3669684,31.3654,35.244244,7.3669734,-1.2649827,1.991008
1.324,-1.1306319,30.452116,35.064247,7.244174,-1.0984211,1.8567625
1.326,-1.8616681,29.537842,34.881947,7.127123,-0.9068696,1.723902
1.328,-2.5566382,28.626637,34.68873,7.013474,-0.68983144,1.5946155
1.33,-3.2122142,27.72335,34.476707,6.9003115,-0.44835976,1.4712509
1.332,-3.8251762,26.832886,34.239258,6.78447,-0.18485299,1.3561908
1.334,-4.3926516,25.960127,33.970764,6.6628065,0.097162716,1.2517216
1.336,-4.9121714,25.109709,33.667038,6.532402,0.3933008,1.1598444
1.338,-5.381778,24.285934,33.325165,6.390798,0.69862264,1.0821338
1.34,-5.8001366,23.4928,32.94369,6.236175,1.007967,1.019587
1.342,-6.166259,22.7336,32.52253,6.067423,1.3162062,0.9724808
1.344,-6.480149,22.01135,32.063004,5.8841133,1.6184863,0.9403782
1.346,-6.742367,21.328457,31.567204,5.6864724,1.9104543,0.922119
1.348,-6.9540277,20.68679,31.03779,5.4752483,2.1884103,0.9158515
1.35,-7.116539,20.087437,30.4782,5.251585,2.4494147,0.9191269
1.352,-7.2317176,19.530735,29.892342,5.016807,2.6913497,0.92905045
1.354,-7.301925,19.016315,29.284489,4.772293,2.9128637,0.94240636
1.356,-7.3297014,18.543266,28.659184,4.519337,3.113297,0.9559046
1.358,-7.3176565,18.109846,28.020966,4.2590027,3.2925467,0.9663561
1.36,-7.2690396,17.714249,27.374386,3.9921315,3.4509747,0.97081107
1.362,-7.1869555,17.354143,26.723625,3.71937,3.5893002,0.9666445
1.364,-7.0745363,17.02687,26.072361,3.4412577,3.7084947,0.9516694
1.366,-6.9345098,16.729513,25.423508,3.1583097,3.8096902,0.92415106
1.368,-6.769682,16.458937,24.779789,2.871138,3.8941581,0.8828534
1.37,-6.5829773,16.212034,24.143536,2.5805328,3.9632359,0.82706666
1.372,-6.3773556,15.985918,23.516996,2.2875376,4.018306,0.7565676
1.374,-6.155631,15.777495,22.90233,1.9934253,4.0607734,0.67157114
1.376,-5.9202647,15.583942,22.301697,1.6996542,4.0920267,0.5726378
1.378,-5.6736355,15.4027405,21.71654,1.4078186,4.1134663,0.46061948
1.38,-5.417884,15.231744,21.147722,1.1195351,4.1264887,0.33653784
1.382,-5.1549826,15.0689945,20.5955,0.83634275,4.1324778,0.20152092
1.384,-4.886508,14.912608,20.059633,0.5595865,4.1328053,0.056767464
1.386,-4.6138577,14.760982,19.539713,0.29033548,4.128784,-0.09657234
1.388,-4.3380322,14.6128235,19.034832,0.02931711,4.1216736,-0.2574314
1.39,-4.059918,14.466956,18.544195,-0.22307335,4.112619,-0.4248572
1.392,-3.7803254,14.3227215,18.066887,-0.46679384,4.102628,-0.5979337
1.394,-3.4995646,14.179474,17.60212,-0.70218503,4.09248,-0.7757564
1.396,-3.2179973,14.037047,17.148972,-0.9298852,4.0827394,-0.9573687
1.398,-2.9358044,13.895366,16.706732,-1.1507424,4.07374,-1.1417568
1.4,-2.652807,13.75449,16.274715,-1.3657783,4.0656185,-1.3278184
1.402,-2.368948,13.614955,15.852305,-1.5760982,4.058337,-1.5143532
1.404,-2.0841184,13.477402,15.439106,-1.7827985,4.0517244,-1.7000976
1.406,-1.7981466,13.342833,15.034936,-1.9869094,4.0455422,-1.8837795
1.408,-1.5110843,13.212273,14.639761,-2.1893413,4.0395145,-2.064153
1.41,-1.2231426,13.086854,14.25376,-2.390817,4.0333853,-2.240065
1.412,-0.93417287,12.968114,13.877149,-2.5918245,4.0269074,-2.4104736
1.414,-0.6442977,12.85751,13.510246,-2.7926342,4.019906,-2.574482
1.416,-0.35393357,12.756673,13.15325,-2.9933033,4.012259,-2.731337
1.418,-0.0633291,12.666989,12.806415,-3.193686,4.0038905,-2.8805037
1.42,0.22706628,12.589826,12.469763,-3.3934953,3.9947655,-3.0216413
1.422,0.5168996,12.526615,12.143311,-3.5923316,3.9848819,-3.1546445
1.424,0.8057766,12.478643,11.826741,-3.7897382,3.9742584,-3.2796395
1.426,1.0927889,12.446961,11.519866,-3.9852715,3.9629543,-3.3969681
1.428,1.3774867,12.432501,11.221981,-4.1785045,3.9510407,-3.5072148
1.43,1.6593268,12.436285,10.932337,-4.369102,3.9386375,-3.6111434
1.432,1.9379163,12.458889,10.649806,-4.55682,3.925882,-3.7096486
1.434,2.2125635,12.500978,10.372963,-4.741528,3.9129443,-3.8037124
1.436,2.483044,12.563087,10.100197,-4.923166,3.9000118,-3.8943577
1.438,2.7490158,12.645392,9.829727,-5.101747,3.887314,-3.9825559
1.44,3.0102556,12.747966,9.559668,-5.2773476,3.8750837,-4.069112
1.442,3.2665393,12.870806,9.287895,-5.450035,3.8635821,-4.154671
1.444,3.5181062,13.013603,9.012415,-5.6198688,3.8530827,-4.2396836
1.446,3.7653954,13.175787,8.731098,-5.786867,3.8438497,-4.3243904
1.448,4.0086813,13.356887,8.441797,-5.9509745,3.8361802,-4.4088583
1.45,4.2485433,13.556288,8.142467,-6.112068,3.8303716,-4.49297
1.452,4.4857445,13.773217,7.8308387,-6.2699375,3.8266969,-4.5765095
1.454,4.7212887,14.006639,7.5049496,-6.4242773,3.8254056,-4.6591377
1.456,4.9563475,14.255469,7.162898,-6.574691,3.8267112,-4.740463
1.458,5.1918344,14.518674,6.8027945,-6.720739,3.8307762,-4.820039
1.46,5.4287553,14.79537,6.4230413,-6.861971,3.8376784,-4.897394
1.462,5.668432,15.084366,6.0226164,-6.997958,3.8474183,-4.9720573
1.464,5.9121175,15.384516,5.600887,-7.1283627,3.8598776,-5.0435133
1.466,6.1612434,15.694548,5.157608,-7.2530084,3.8748455,-5.111232
1.468,6.416723,16.013285,4.693026,-7.3718824,3.8919969,-5.174704
1.47,6.6795645,16.339201,4.207563,-7.485187,3.910911,-5.233453
1.472,6.950171,16.671005,3.7024593,-7.5933714,3.9310782,-5.2870593
1.474,7.2287345,17.007246,3.1792183,-7.6970644,3.9519277,-5.3351717
1.476,7.515353,17.346308,2.640017,-7.79707,3.972859,-5.3774915
1.478,7.8097024,17.68658,2.0872774,-7.8942986,3.9932604,-5.413851
1.48,8.111124,18.02634,1.5237632,-7.989729,4.0125036,-5.4442215
1.482,8.418924,18.363548,0.95273256,-8.084298,4.0300317,-5.4687877
1.484,8.731991,18.696129,0.37758684,-8.178797,4.0453343,-5.4879656
1.486,9.048666,19.02215,-0.19810915,-8.27387,4.057948,-5.5024476
1.488,9.367405,19.339413,-0.7705436,-8.369973,4.0674314,-5.513189
1.49,9.686501,19.645739,-1.335649,-8.467393,4.073327,-5.521405
1.492,10.0041065,19.93896,-1.8896928,-8.566299,4.075153,-5.528481
1.494,10.318087,20.216879,-2.4289024,-8.666773,4.0723987,-5.5358973
1.496,10.626758,20.477365,-2.9497645,-8.768961,4.064484,-5.545102
1.498,10.928224,20.718493,-3.4489393,-8.873069,4.050775,-5.5573835
1.5,11.220813,20.938276,-3.9230487,-8.979442,4.030612,-5.5737247
1.502,11.502909,21.134718,-4.369408,-9.088484,4.0033417,-5.594699
1.504,11.772887,21.306286,-4.7853694,-9.200661,3.9683685,-5.620429
1.506,12.029639,21.45145,-5.16866,-9.316362,3.92524,-5.6505976
1.508,12.272063,21.569355,-5.517295,-9.435837,3.8736956,-5.6845074
1.51,12.499179,21.659388,-5.8296804,-9.559067,3.813715,-5.7211943
1.512,12.710472,21.721249,-6.1043234,-9.685671,3.7455769,-5.759515
1.514,12.905241,21.75528,-6.3403287,-9.814861,3.6698613,-5.798257
1.516,13.083047,21.762217,-6.536819,-9.945454,3.587442,-5.836231
1.518,13.2438965,21.7423,-6.693095,-10.075911,3.4994855,-5.8723626
1.52,13.387715,21.696487,-6.809223,-10.204388,3.4074574,-5.9057198
1.522,13.514174,21.626108,-6.8851943,-10.328821,3.313058,-5.9354815
1.524,13.623551,21.532831,-6.921595,-10.447075,3.218173,-5.9609013
1.526,13.7158785,21.418886,-6.919114,-10.556948,3.1248126,-5.9812694
1.528,13.7913,21.286562,-6.878721,-10.656379,3.0350504,-5.995886
1.53,13.850006,21.138323,-6.8018055,-10.743466,2.9509172,-6.0040197
1.532,13.892308,20.976633,-6.690071,-10.816512,2.8743982,-6.004809
1.534,13.918145,20.804192,-6.545261,-10.874068,2.8073688,-5.997284
1.536,13.927945,20.623756,-6.3696957,-10.914956,2.7515435,-5.9804173
1.538,13.922199,20.437939,-6.1656756,-10.93825,2.7084467,-5.9531903
1.54,13.901506,20.249203,-5.9359584,-10.943255,2.679402,-5.9146357
1.542,13.866318,20.06017,-5.683797,-10.929442,2.6654768,-5.863904
1.544,13.817751,19.872967,-5.4122868,-10.896414,2.6675787,-5.800333
1.546,13.756544,19.689507,-5.124984,-10.843858,2.6863616,-5.723563
1.548,13.683577,19.511827,-4.8254466,-10.771624,2.7220767,-5.6334624
1.55,13.599997,19.341436,-4.517602,-10.679544,2.7747898,-5.530035
1.552,13.507149,19.179867,-4.2054567,-10.567461,2.8445072,-5.4135714
1.554,13.406399,19.028366,-3.8930953,-10.435306,2.9310384,-5.2847395
1.556,13.298901,18.88811,-3.5846186,-10.283115,3.0340762,-5.144541
1.558,13.186331,18.759699,-3.283959,-10.111074,3.153288,-4.99428
1.56,13.07019,18.643545,-2.9949744,-9.919493,3.2883015,-4.8355064
1.562,12.951815,18.539927,-2.7212582,-9.708873,3.4386723,-4.6699095
1.564,12.832617,18.449049,-2.4662461,-9.479925,3.603857,-4.4992113
1.566,12.7138195,18.370811,-2.233141,-9.233583,3.7831674,-4.325056
1.568,12.596996,18.304405,-2.0246663,-8.97097,3.9756873,-4.148946
1.57,12.483301,18.248985,-1.8434081,-8.693454,4.180257,-3.972145
1.572,12.373646,18.203556,-1.6915941,-8.402576,4.395379,-3.795642
1.574,12.268875,18.166876,-1.5710616,-8.100065,4.619223,-3.620167
1.576,12.169597,18.137444,-1.4829993,-7.7877913,4.84965,-3.4462414
1.578,12.076723,18.113697,-1.4280567,-7.4676995,5.084329,-3.2743235
1.58,11.99073,18.093979,-1.40621,-7.1417828,5.320799,-3.1048646
1.582,11.912564,18.076254,-1.4171028,-6.8120213,5.5565825,-2.9383802
1.584,11.842723,18.058548,-1.4596739,-6.4803524,5.7893004,-2.7754984
1.586,11.781522,18.038754,-1.5326681,-6.1486063,6.0167546,-2.617021
1.588,11.72956,18.014542,-1.6343327,-5.818456,6.237028,-2.463819
1.59,11.687292,17.983593,-1.7622929,-5.4914,6.4485626,-2.3167515
1.592,11.655005,17.94363,-1.9140277,-5.168707,6.650203,-2.1766276
1.594,11.632984,17.892365,-2.0867257,-4.851425,6.8411894,-2.0441551
1.596,11.621693,17.827448,-2.2773356,-4.5403357,7.0211687,-1.9198645
1.598,11.621255,17.746733,-2.482597,-4.236018,7.19008,-1.8040973
1.6,11.631949,17.648016,-2.6993546,-3.9388113,7.3482018,-1.6969857
1.602,11.653989,17.52925,-2.9241734,-3.648807,7.4961314,-1.5985438
1.604,11.687447,17.388916,-3.1537428,-3.3659928,7.634506,-1.5087279
1.606,11.732145,17.225561,-3.3845828,-3.090256,7.7639523,-1.4272988
1.608,11.787859,17.038065,-3.6136382,-2.8213353,7.885224,-1.3538985
1.61,11.854379,16.825706,-3.838051,-2.5588703,7.999075,-1.2881219
1.612,11.931383,16.58819,-4.054806,-2.3024611,8.106182,-1.2295561
1.614,12.018463,16.325321,-4.2616897,-2.0516872,8.207215,-1.1778216
1.616,12.114968,16.037271,-4.456479,-1.806133,8.302787,-1.1325912
1.618,12.220242,15.724468,-4.637491,-1.5654154,8.393501,-1.0936003
1.62,12.333433,15.3876915,-4.8032193,-1.3292153,8.479888,-1.0605894
1.622,12.453673,15.028011,-4.9527955,-1.0972898,8.56247,-1.0332628
1.624,12.580111,14.646706,-5.0852203,-0.8694719,8.6417,-1.0113175
1.626,12.711756,14.245377,-5.2004,-0.6457037,8.718004,-0.99440527
1.628,12.847427,13.826548,-5.2981806,-0.42601,8.79177,-0.9821702
1.63,12.985931,13.392353,-5.378473,-0.21051717,8.863312,-0.9742501
1.632,13.126581,12.944744,-5.441751,0.00058841705,8.932836,-0.9702529
1.634,13.26812,12.4859495,-5.488632,0.2070744,9.000449,-0.96978354
1.636,13.409826,12.01794,-5.5200615,0.4087031,9.066182,-0.97251195
1.638,13.550743,11.542822,-5.537171,0.6052537,9.129929,-0.978153
1.64,13.690111,11.062798,-5.5410333,0.7964995,9.19149,-0.98645717
1.642,13.826958,10.580067,-5.533031,0.98224735,9.250524,-0.9972271
1.644,13.960723,10.096674,-5.514635,1.162354,9.306591,-1.0102955
1.646,14.090805,9.614544,-5.4870667,1.3367224,9.359192,-1.0254778
1.648,14.2163925,9.13546,-5.4519224,1.5052733,9.407749,-1.0425754
1.65,14.336893,8.661111,-5.410564,1.6679587,9.451651,-1.0614078
1.652,14.451783,8.193155,-5.3640814,1.824755,9.490311,-1.0817648
1.654,14.560564,7.732971,-5.3138404,1.9756653,9.523188,-1.1034186
1.656,14.662861,7.2817726,-5.260791,2.1207025,9.549839,-1.1261444
1.658,14.75849,6.8405285,-5.2059455,2.2599316,9.569932,-1.149679
1.66,14.847029,6.41041,-5.150035,2.3934429,9.583245,-1.1737871
1.662,14.928362,5.992022,-5.0935993,2.5213847,9.589687,-1.1981993
1.664,15.002229,5.585925,-5.03727,2.6439633,9.589281,-1.2226458
1.666,15.068578,5.192654,-4.9813733,2.7614272,9.582137,-1.2468532
1.668,15.127266,4.8127117,-4.92616,2.8741066,9.568448,-1.2705724
1.67,15.178533,4.4461794,-4.8717794,2.9823542,9.548417,-1.293561
1.672,15.222619,4.0931683,-4.8184757,3.0865333,9.522263,-1.3156089
1.674,15.259621,3.753657,-4.766344,3.187004,9.490164,-1.3365332
1.676,15.2901,3.4274359,-4.715355,3.284053,9.452232,-1.3562051
1.678,15.314247,3.1145165,-4.6656446,3.3778872,9.408523,-1.3745052
1.68,15.332654,2.8145835,-4.6170945,3.4686077,9.358965,-1.3913461
1.682,15.345858,2.5273354,-4.569777,3.5561812,9.303432,-1.4066912
1.684,15.354258,2.2524579,-4.52369,3.6404548,9.241727,-1.4205109
1.686,15.358557,1.9894872,-4.4787893,3.7211785,9.173672,-1.4328494
1.688,15.359282,1.7379711,-4.435066,3.7980254,9.099073,-1.4437726
1.69,15.357099,1.497407,-4.392499,3.870616,9.0177555,-1.4533699
1.692,15.352208,1.2672944,-4.3508654,3.9385412,8.929577,-1.4617916
1.694,15.34528,1.0469518,-4.310224,4.001384,8.834376,-1.4692678
1.696,15.336904,0.83582544,-4.270567,4.0587535,8.732052,-1.4760547
1.698,15.327059,0.63343954,-4.2314696,4.1103325,8.622569,-1.4824314
1.7,15.316063,0.43923283,-4.1928563,4.1558137,8.5059,-1.4887207
1.702,15.304349,0.2526493,-4.15463,4.194974,8.382059,-1.4952476
1.704,15.2918825,0.0732255,-4.1163564,4.2276874,8.251152,-1.5023036
1.706,15.278816,-0.09964037,-4.077804,4.2538843,8.113375,-1.51019
1.708,15.265221,-0.26647615,-4.038699,4.273604,7.9690204,-1.5191536
1.71,15.250946,-0.4276724,-3.9987679,4.2869897,7.8185053,-1.5294249
1.712,15.235935,-0.5836024,-3.957704,4.294311,7.66241,-1.5411904
1.714,15.220001,-0.7346673,-3.91504,4.2959332,7.5014133,-1.5545821
1.716,15.20288,-0.8813524,-3.8706527,4.292297,7.336297,-1.5697088
1.718,15.184454,-1.0239968,-3.8241596,4.283907,7.1678944,-1.5866206
1.72,15.164461,-1.1628399,-3.7751484,4.2713175,6.997058,-1.6053278
1.722,15.142511,-1.298151,-3.7233334,4.2550845,6.8246183,-1.6257694
1.724,15.118427,-1.4301529,-3.6682587,4.235748,6.651369,-1.6478374
1.726,15.091955,-1.5590138,-3.6097846,4.213834,6.477968,-1.6713486
1.728,15.062953,-1.6848807,-3.5476336,4.189809,6.304991,-1.6960862
1.73,15.031202,-1.8078558,-3.4815092,4.1641045,6.132903,-1.7217956
1.732,14.996369,-1.9279554,-3.4110475,4.137088,5.962053,-1.7481728
1.734,14.958292,-2.0451474,-3.3364086,4.1090803,5.7927046,-1.7748992
1.736,14.917028,-2.159547,-3.2574177,4.080372,5.6250205,-1.8016605
1.738,14.87236,-2.271155,-3.1741242,4.0511894,5.4591007,-1.8281922
1.74,14.824316,-2.3798497,-3.086598,4.0216866,5.294945,-1.8542438
1.742,14.772871,-2.4856772,-2.994806,3.9919653,5.1324944,-1.8796086
1.744,14.717937,-2.5885518,-2.8989089,3.9620354,4.971656,-1.9041543
1.746,14.659782,-2.688548,-2.7991087,3.9318626,4.812307,-1.9277904
1.748,14.598309,-2.7855544,-2.6954408,3.9013615,4.6543245,-1.9505026
1.75,14.533499,-2.8795516,-2.588121,3.8703642,4.4975586,-1.9723504
1.752,14.465652,-2.970577,-2.4772768,3.8386378,4.3418703,-1.9934108
1.754,14.394814,-3.0585105,-2.3631504,3.8059556,4.187173,-2.0137854
1.756,14.321125,-3.143384,-2.246104,3.7720437,4.0334353,-2.0335717
1.758,14.244664,-3.2250876,-2.1261747,3.7366173,3.880638,-2.052852
1.76,14.165588,-3.3036184,-2.0036929,3.699419,3.7288108,-2.0716536
1.762,14.0841255,-3.378964,-1.8788772,3.6602015,3.5780544,-2.0899386
1.764,14.00043,-3.450964,-1.7520328,3.6187558,3.4284964,-2.107602
1.766,13.914491,-3.5196648,-1.6235363,3.5748878,3.280282,-2.1244903
1.768,13.826495,-3.5850132,-1.4934683,3.5284631,3.1335893,-2.1403894
1.77,13.7367,-3.6471143,-1.362232,3.479393,2.988604,-2.1550815
1.772,13.645311,-3.705867,-1.2301707,3.4276052,2.8455389,-2.168322
1.774,13.552536,-3.7611482,-1.0975294,3.3730698,2.704618,-2.1799006
1.776,13.45859,-3.8129022,-0.9648516,3.3158216,2.5660799,-2.1896563
1.778,13.363676,-3.8612428,-0.8322773,3.2559488,2.4301476,-2.1974947
1.78,13.26785,-3.906008,-0.70027256,3.193591,2.297099,-2.2034123
1.782,13.171297,-3.9472494,-0.5689342,3.1289515,2.1671877,-2.207467
1.784,13.0743885,-3.9851506,-0.4385736,3.0622873,2.0406547,-2.2097783
1.786,12.977038,-4.019492,-0.30948496,2.9939404,1.9177208,-2.2105386
1.788,12.879665,-4.050372,-0.1818428,2.9242907,1.79858,-2.2099528
1.79,12.782451,-4.077958,-0.05577445,2.8537586,1.6833858,-2.2082105
1.792,12.685415,-4.1021843,0.06863904,2.782812,1.5722599,-2.2054937
1.794,12.588866,-4.1231203,0.19139338,2.7119327,1.4653027,-2.201972
1.796,12.492926,-4.1408625,0.31242943,2.6415627,1.362586,-2.197771
1.798,12.397785,-4.1554465,0.43195271,2.5721219,1.264138,-2.1929488
1.8,12.303957,-4.1670775,0.5501144,2.5039637,1.1699932,-2.1875005
1.802,12.211532,-4.1756306,0.6669297,2.437407,1.0801691,-2.181362
1.804,12.12055,-4.1809316,0.7827494,2.372663,0.9946487,-2.1744223
1.806,12.03123,-4.182926,0.89799595,2.3098688,0.9134182,-2.1665027
1.808,11.944057,-4.1816015,1.0126224,2.2490468,0.8364654,-2.1573458
1.81,11.859169,-4.1767282,1.1269234,2.1901402,0.76378053,-2.1466072
1.812,11.776592,-4.168222,1.2413434,2.133001,0.69531953,-2.1338694
1.814,11.696686,-4.155739,1.3560318,2.077424,0.6310458,-2.1187003
1.816,11.619555,-4.138982,1.4711759,2.0231612,0.57092404,-2.1006758
1.818,11.545304,-4.1175776,1.5869572,1.9699571,0.5149151,-2.079359
1.82,11.474077,-4.0912476,1.7036351,1.9175613,0.46299097,-2.0543787
1.822,11.405884,-4.0596213,1.8213716,1.8657829,0.41515797,-2.025476
1.824,11.340993,-4.022442,1.9402462,1.8144941,0.3714195,-1.9925164
1.826,11.279368,-3.9792717,2.060402,1.7636518,0.331824,-1.9555229
1.828,11.221049,-3.9298475,2.1819386,1.7132778,0.296432,-1.9146286
1.83,11.166018,-3.8738472,2.304708,1.6634383,0.26532596,-1.8700572
1.832,11.114323,-3.8111238,2.4286246,1.6142752,0.23862773,-1.8220923
1.834,11.0658865,-3.7414074,2.553636,1.5659835,0.21644373,-1.7710567
1.836,11.020637,-3.664684,2.6798027,1.5187792,0.19887203,-1.7172548
1.838,10.978347,-3.5808764,2.8067589,1.4728724,0.18597956,-1.6609577
1.84,10.938986,-3.4900525,2.9342422,1.4284676,0.17782047,-1.6023892
1.842,10.90246,-3.3922462,3.061893,1.3857546,0.17439389,-1.5416803
1.844,10.868657,-3.2878652,3.18955,1.3448839,0.17565191,-1.4788933
1.846,10.83704,-3.1769698,3.3168893,1.3059633,0.18149588,-1.4140382
1.848,10.807574,-3.0600576,3.443503,1.2690785,0.19180828,-1.3470937
1.85,10.780071,-2.937592,3.5690258,1.2342733,0.20641983,-1.2780504
1.852,10.754091,-2.8100228,3.6929157,1.2015485,0.2251509,-1.2069271
1.854,10.729656,-2.6780963,3.8147821,1.1708374,0.24778287,-1.1337854
1.856,10.706288,-2.5423765,3.9341736,1.1420152,0.27408513,-1.0587401
1.858,10.683867,-2.4037468,4.0506124,1.1149398,0.30380264,-0.9819647
1.86,10.6622715,-2.2630663,4.1636705,1.0894277,0.33663312,-0.90372694
1.862,10.641086,-2.1212194,4.2728486,1.0652773,0.37226447,-0.824322
1.864,10.620157,-1.9790573,4.3778524,1.0422593,0.41034678,-0.74407613
1.866,10.599373,-1.8374691,4.4782143,1.0201119,0.45050776,-0.66330636
1.868,10.57858,-1.6974158,4.57364,0.9985696,0.49234658,-0.5822855
1.87,10.557742,-1.5597372,4.663886,0.97736895,0.5354409,-0.5012293
1.872,10.536661,-1.4253168,4.7486305,0.9562516,0.5793812,-0.42029452
1.874,10.5154085,-1.2950411,4.827832,0.93498385,0.6237644,-0.3395608
1.876,10.49398,-1.1693726,4.901416,0.9133217,0.6682243,-0.25902042
1.878,10.472234,-1.049109,4.9690824,0.8910516,0.71244687,-0.17860708
1.88,10.450192,-0.9347415,5.030961,0.8679825,0.75613964,-0.09823495
1.882,10.427886,-0.8267765,5.087105,0.8439543,0.79909235,-0.017811924
1.884,10.405342,-0.7255769,5.1376743,0.81884205,0.84115857,0.06270522
1.886,10.38283,-0.6314664,5.1827884,0.7925272,0.8822456,0.14334145
1.888,10.360365,-0.5445266,5.222601,0.7649099,0.92230994,0.22407103
1.89,10.338109,-0.46474218,5.2574067,0.7359343,0.9613761,0.30481178
1.892,10.316149,-0.39197493,5.2873106,0.70557684,0.9995156,0.38544437
1.894,10.294706,-0.32602644,5.312628,0.6738318,1.0368314,0.46580285
1.896,10.273954,-0.2667842,5.3336067,0.6407223,1.073452,0.54569006
1.898,10.253844,-0.21370745,5.350623,0.6062938,1.1095284,0.6249019
1.9,10.234634,-0.1662612,5.3638268,0.5706186,1.145207,0.7032541
1.902,10.216383,-0.12401581,5.373502,0.53376544,1.1806146,0.78061175
1.904,10.199349,-0.08649969,5.3799405,0.4958263,1.2158669,0.8568771
1.906,10.183316,-0.053007126,5.383327,0.45689157,1.2510377,0.93199295
1.908,10.168555,-0.022969246,5.383892,0.41706735,1.2861695,1.0059562
1.91,10.154849,0.0043301582,5.3817816,0.37643972,1.3212689,1.0788044
1.912,10.142398,0.02925539,5.37718,0.3350918,1.3563068,1.1505945
1.914,10.131135,0.052443504,5.3702707,0.29307812,1.3912078,1.2214093
1.916,10.121079,0.07436228,5.3611536,0.25043565,1.4258405,1.2912982
1.918,10.111955,0.095664024,5.350112,0.20718884,1.4600551,1.3602915
1.92,10.103666,0.116696835,5.3372364,0.16333967,1.4936792,1.4283707
1.922,10.096081,0.1379652,5.3225203,0.11886203,1.5265057,1.4954553
1.924,10.089062,0.15967178,5.30604,0.07371098,1.5583189,1.5614123
1.926,10.082374,0.18218517,5.287941,0.027829707,1.5889006,1.626071
1.928,10.075841,0.2056036,5.2682333,-0.018844068,1.6180266,1.6892256
1.93,10.069347,0.2303195,5.2469096,-0.06638163,1.645483,1.7506611
1.932,10.062529,0.25626802,5.22406,-0.11485213,1.6710571,1.8101718
1.934,10.055183,0.283576,5.1995397,-0.16431576,1.6945701,1.8675796
1.936,10.047142,0.31220245,5.1734757,-0.21484047,1.7158421,1.9227377
1.938,10.037987,0.34213114,5.1457214,-0.26646823,1.7347143,1.9755602
1.94,10.027525,0.37318516,5.1162653,-0.3192231,1.7510616,2.0259848
1.942,10.015549,0.40531254,5.085158,-0.37311298,1.7647821,2.0740118
1.944,10.001818,0.43819094,5.052253,-0.42814118,1.7757744,2.1196706
1.946,9.985929,0.4716916,5.017378,-0.48426998,1.7839777,2.1630101
1.948,9.967819,0.505558,4.980551,-0.54146576,1.7893575,2.2040982
1.95,9.9470415,0.53953075,4.941609,-0.59966946,1.7919056,2.2430134
1.952,9.923414,0.57325315,4.9004765,-0.6588056,1.7916303,2.2798357
1.954,9.896622,0.60674524,4.8570995,-0.7187874,1.7885725,2.3146384
1.956,9.8666,0.6396508,4.811325,-0.77950794,1.7827919,2.3474722
1.958,9.832943,0.67172956,4.7629156,-0.8408634,1.7743654,2.3783746
1.96,9.795521,0.70278835,4.711824,-0.90274954,1.7633874,2.4073803
1.962,9.754136,0.73267365,4.657986,-0.96505874,1.7499473,2.4344969
1.964,9.708453,0.761271,4.601203,-1.02768,1.7341526,2.459747
1.966,9.65835,0.7884102,4.5413594,-1.0905252,1.716109,2.483151
1.968,9.603682,0.8140483,4.478225,-1.153516,1.6959033,2.5047355
1.97,9.544144,0.8381238,4.4115686,-1.2165821,1.6736087,2.5245485
1.972,9.479641,0.86070967,4.3412437,-1.2796946,1.6492732,2.542639
1.974,9.409762,0.88177633,4.267091,-1.3428217,1.6229104,2.559064
1.976,9.33414,0.90133953,4.189059,-1.4059589,1.594509,2.5738997
1.978,9.2526865,0.9195771,4.10684,-1.4691266,1.5640148,2.587212
1.98,9.1651535,0.9365802,4.020483,-1.5323632,1.5313361,2.5990567
1.982,9.071173,0.95246744,3.9299147,-1.5957185,1.4963576,2.6095014
1.984,8.970524,0.9675555,3.8350027,-1.6592447,1.4589411,2.6185985
1.986,8.863199,0.981719,3.7358203,-1.7230117,1.41894,2.6263976
1.988,8.749008,0.9952278,3.6325128,-1.7870803,1.3761845,2.632957
1.99,8.627891,1.0081601,3.5250773,-1.8515102,1.330527,2.6383376
1.992,8.499718,1.0206153,3.413647,-1.9163458,1.2818216,2.6425977
1.994,8.364392,1.0327015,3.2984428,-1.9816203,1.2299464,2.6458325
1.996,8.222213,1.044411,3.1797354,-2.0473406,1.174811,2.6481376
1.998,8.0733,1.05582,3.0575848,-2.1134758,1.1163657,2.6496184
2,7.917184,1.0667984,2.9326797,-2.1799746,1.054582,2.6503963
2.002,7.7544403,1.0772572,2.8053107,-2.2467575,0.98944324,2.6505919
2.004,7.585288,1.0871027,2.6757293,-2.3137126,0.92097855,2.6503322
2.006,7.4101605,1.0961573,2.5444481,-2.3807154,0.8492341,2.649727
2.008,7.229636,1.1040537,2.4119298,-2.4476318,0.7742573,2.6488833
2.01,7.0439615,1.1104472,2.2786164,-2.514312,0.6961075,2.6478913
2.012,6.854133,1.1149147,2.1451325,-2.580621,0.61482894,2.6468284
2.014,6.6603475,1.11725,2.0119157,-2.6464436,0.5304603,2.6457639
2.016,6.4638014,1.1169083,1.8796223,-2.7116885,0.44304544,2.6447425
2.018,6.2651033,1.1135311,1.748673,-2.7762861,0.35262316,2.6437805
2.02,6.065149,1.1067011,1.6198864,-2.840195,0.2592449,2.6428933
2.022,5.8649826,1.0961167,1.4938511,-2.903404,0.16301194,2.6420527
2.024,5.6656914,1.0810819,1.3710382,-2.9659286,0.06407188,2.6411939
2.026,5.468159,1.0613344,1.2519944,-3.0278168,-0.037383776,2.6402118
2.028,5.273569,1.0364331,1.1372584,-3.089091,-0.14108452,2.6389592
2.03,5.0826454,1.0060488,1.02729,-3.1497629,-0.24658513,2.637198
2.032,4.8962197,0.9700264,0.9225104,-3.209829,-0.35333544,2.6346085
2.034,4.714917,0.9282613,0.82308424,-3.2692802,-0.4607915,2.630851
2.036,4.539197,0.8807676,0.7293688,-3.3280635,-0.5683549,2.6255426
2.038,4.369563,0.8276955,0.6416848,-3.3860567,-0.6753979,2.618329
2.04,4.20617,0.7691191,0.5601764,-3.4430654,-0.781306,2.6089048
2.042,4.0492687,0.70546246,0.48477852,-3.4988596,-0.885574,2.5970664
2.044,3.8985357,0.63719684,0.41549754,-3.5531652,-0.98780143,2.5827525
2.046,3.7535536,0.5649632,0.35230088,-3.6056957,-1.087712,2.5660834
2.048,3.6140518,0.48945653,0.29508793,-3.6561456,-1.1851816,2.5473719
2.05,3.4794855,0.4116391,0.24357593,-3.704221,-1.280208,2.5271225
2.052,3.3490033,0.33256167,0.19741285,-3.749681,-1.3728919,2.5060198
2.054,3.2216375,0.25339592,0.15646875,-3.792354,-1.4634521,2.4849045
2.056,3.0967088,0.17526186,0.120524764,-3.8321319,-1.5521554,2.4647527
2.058,2.9731536,0.09940541,0.0892365,-3.8689687,-1.6392853,2.446615
2.06,2.850144,0.027075708,0.062432528,-3.9028683,-1.7250605,2.431531
2.062,2.7266169,-0.04051,0.03965795,-3.9339075,-1.8095932,2.4204915
2.064,2.6019015,-0.10224122,0.020593047,-3.9621916,-1.8928875,2.4143682
2.066,2.475078,-0.15701127,0.0049841404,-3.9878612,-1.9747605,2.4138231
2.068,2.3456116,-0.20366335,-0.00728029,-4.0110674,-2.0548496,2.419232
2.07,2.212796,-0.24134904,-0.016396344,-4.03201,-2.1326754,2.4307034
2.072,2.0763378,-0.26939198,-0.022595048,-4.0509167,-2.2076817,2.4480665
2.074,1.9358135,-0.28695002,-0.025784254,-4.0679655,-2.2792692,2.4708831
2.076,1.7911818,-0.29372102,-0.026118994,-4.0833254,-2.3468447,2.4985023
2.078,1.6424037,-0.2893621,-0.023582876,-4.097127,-2.4098628,2.5301235
2.08,1.4897494,-0.27367347,-0.01821512,-4.1094356,-2.4678538,2.564879
2.082,1.3335414,-0.24669227,-0.009794354,-4.1202455,-2.5204358,2.601844
2.084,1.1742988,-0.20868792,0.0016839206,-4.1295123,-2.5673776,2.6400871
2.086,1.0126071,-0.15971483,0.01638022,-4.13714,-2.6085505,2.6787567
2.088,0.8489742,-0.1002107,0.03448829,-4.142989,-2.6438243,2.7171154
2.09,0.68412155,-0.030494407,0.056196004,-4.14693,-2.673128,2.75457
2.092,0.51896906,0.048965886,0.08175506,-4.1488495,-2.6964629,2.790677
2.094,0.35421506,0.13779491,0.11141873,-4.1486435,-2.7138171,2.8251717
2.096,0.19061929,0.23554039,0.14542836,-4.146173,-2.7251203,2.8579085
2.098,0.029227987,0.3417777,0.18399116,-4.1413274,-2.7302659,2.888868
2.1,-0.12915006,0.45591876,0.22747725,-4.134019,-2.729105,2.918129
2.102,-0.2835697,0.5776059,0.27609128,-4.124156,-2.7214255,2.945848
2.104,-0.4329225,0.7063468,0.33003935,-4.111596,-2.7069504,2.9722047
2.106,-0.5766238,0.84182113,0.38962424,-4.096174,-2.6853423,2.9973745
2.108,-0.7137177,0.9836106,0.45499247,-4.0776806,-2.6562145,3.0214796
2.11,-0.84293664,1.1314455,0.5258116,-4.0558977,-2.6191702,3.0445757
2.112,-0.9639643,1.2850306,0.6023309,-4.030619,-2.5738442,3.0666492
2.114,-1.0761867,1.4441134,0.68454564,-4.0016394,-2.519896,3.087636
2.116,-1.1789428,1.6083585,0.7722448,-3.9687717,-2.4570394,3.1074343
2.118,-1.271722,1.777559,0.8650884,-3.9318666,-2.3850367,3.1258652
2.12,-1.3542032,1.9515237,0.9628489,-3.8908114,-2.3037682,3.142754
2.122,-1.4262561,2.129977,1.0650449,-3.8455706,-2.2132,3.157917
2.124,-1.4872212,2.3125253,1.1711107,-3.796153,-2.1133502,3.171134
2.126,-1.5373398,2.4989622,1.2805009,-3.7426383,-2.0043528,3.1821744
2.128,-1.5764753,2.688811,1.3924985,-3.685214,-1.8864523,3.1908307
2.13,-1.6046392,2.8818233,1.5061822,-3.6241305,-1.7600256,3.1969442
2.132,-1.6221527,3.0775402,1.620821,-3.5597107,-1.6255659,3.2003908
2.134,-1.6293632,3.2757533,1.735555,-3.4923477,-1.4836665,3.201098
2.136,-1.6265187,3.4759934,1.8495164,-3.4224777,-1.335013,3.1990814
2.138,-1.6140163,3.677787,1.9617928,-3.3505092,-1.1803538,3.1944296
2.14,-1.592027,3.8806276,2.071445,-3.2768545,-1.0204308,3.1871853
2.142,-1.5611987,4.0840516,2.1775522,-3.2019076,-0.8559949,3.177342
2.144,-1.5219187,4.287469,2.279312,-3.1260362,-0.6878178,3.1649
2.146,-1.4746189,4.4902487,2.375669,-3.0495684,-0.5166248,3.1498327
2.148,-1.4200099,4.6918855,2.4656801,-2.972796,-0.34308016,3.132081
2.15,-1.358698,4.8917785,2.5484922,-2.8959563,-0.16781352,3.11159
2.152,-1.291111,5.0893764,2.6233585,-2.8191996,0.008618979,3.0883002
2.154,-1.2177422,5.2840676,2.6894739,-2.7426248,0.18573278,3.062138
2.156,-1.1391945,5.4750133,2.7460964,-2.666289,0.36309984,3.0330095
2.158,-1.0559783,5.661672,2.7925568,-2.5902293,0.5403097,3.000847
2.16,-0.9687399,5.8432293,2.8283246,-2.5144382,0.7169993,2.9655895
2.162,-0.87786365,6.018918,2.8529315,-2.4388921,0.8928645,2.9271698
2.164,-0.7837115,6.1879973,2.8658178,-2.3635604,1.0675976,2.885529
2.166,-0.68693644,6.3498545,2.8665876,-2.2883925,1.2409242,2.8406076
2.168,-0.5878539,6.503762,2.8549988,-2.2133515,1.4125735,2.7923527
2.17,-0.48678166,6.6491094,2.8307173,-2.138412,1.5822895,2.7407017
2.172,-0.3841225,6.78519,2.7936993,-2.063558,1.7498249,2.6856263
2.174,-0.2803036,6.9113545,2.7438674,-1.9887952,1.91497,2.627107
2.176,-0.1755898,7.0271406,2.6812816,-1.9141155,2.0774999,2.5651624
2.178,-0.07015288,7.1319556,2.6058383,-1.839521,2.2371862,2.4998271
2.18,0.03564924,7.2253313,2.5176938,-1.7650295,2.3938115,2.4311574
2.182,0.14137447,7.3070626,2.417254,-1.6906475,2.5471191,2.3592293
2.184,0.24704736,7.3766108,2.3046727,-1.6163839,2.6968384,2.2841423
2.186,0.35218537,7.433995,2.1804373,-1.5422437,2.842691,2.2060452
2.188,0.45653486,7.479054,2.0450723,-1.4682424,2.9843576,2.125114
2.19,0.5596888,7.511825,1.8991264,-1.3943993,3.1215093,2.04158
2.192,0.66128033,7.532284,1.7430665,-1.3207428,3.2538044,1.9557277
2.194,0.76111317,7.5407324,1.5776538,-1.2472953,3.3809283,1.8678887
2.196,0.858811,7.537373,1.4035288,-1.1740837,3.5025628,1.7784271
2.198,0.9540528,7.5225844,1.2215471,-1.1011168,3.6184464,1.6877073
2.2,1.0464871,7.4968066,1.0324371,-1.0283959,3.728376,1.5961052
2.202,1.1357977,7.460682,0.83710384,-0.95593584,3.832172,1.503996
2.204,1.2217071,7.4145756,0.6364727,-0.883757,3.9297128,1.4117442
2.206,1.3039265,7.3594503,0.43140823,-0.8118787,4.020926,1.3197087
2.208,1.3822206,7.2959414,0.22291347,-0.74033034,4.1057973,1.2282348
2.21,1.4562473,7.2250724,0.011871517,-0.6691851,4.1843553,1.1376615
2.212,1.5259393,7.147603,-0.20072116,-0.5985166,4.256689,1.0483111
2.214,1.591099,7.064449,-0.41390818,-0.52841824,4.32292,0.960474
2.216,1.6518055,6.9764686,-0.6267452,-0.45897365,4.38319,0.874426
2.218,1.7079124,6.8845162,-0.8382933,-0.39030266,4.4376726,0.7903793
2.22,1.7595723,6.7893667,-1.047555,-0.32251734,4.4865417,0.70851576
2.222,1.8068725,6.691831,-1.2536869,-0.2557102,4.529965,0.6289643
2.224,1.8500543,6.592607,-1.455859,-0.18995568,4.5681024,0.55179536
2.226,1.8892231,6.4924235,-1.6531825,-0.12530652,4.601111,0.47702557
2.228,1.9246169,6.3917327,-1.8448913,-0.061770797,4.629121,0.40462384
2.23,1.9566281,6.290986,-2.0302181,0.0006762147,4.6522713,0.33448926
2.232,1.9855931,6.190624,-2.2084293,0.062113643,4.6706915,0.26648548
2.234,2.0117433,6.090782,-2.3788104,0.12265247,4.6845326,0.20043513
2.236,2.0355306,5.991552,-2.540845,0.18243769,4.6939573,0.13609993
2.238,2.0572414,5.893003,-2.6938524,0.24164197,4.6991506,0.07321772
2.24,2.0772576,5.7950354,-2.8372493,0.3004536,4.7003117,0.011510968
2.242,2.096015,5.6974845,-2.9707985,0.35907665,4.6976614,-0.049315214
2.244,2.1138496,5.6001067,-3.0939202,0.41769576,4.6914434,-0.109558016
2.246,2.1311255,5.5024953,-3.2063804,0.47649434,4.681922,-0.16950166
2.248,2.1480951,5.404369,-3.3079743,0.53564054,4.6693707,-0.22938463
2.25,2.1649923,5.30544,-3.3984814,0.59527683,4.6540823,-0.28941354
2.252,2.1822371,5.2051597,-3.4778056,0.6554956,4.636339,-0.34973508
2.254,2.1999755,5.103197,-3.5459776,0.7163756,4.6164346,-0.41044027
2.256,2.2184207,4.999272,-3.6030686,0.7779728,4.5946774,-0.4715384
2.258,2.237863,4.8929825,-3.649348,0.8403033,4.5713806,-0.53300023
2.26,2.2584317,4.7840276,-3.6849077,0.90333796,4.546829,-0.59473884
2.262,2.2799642,4.672257,-3.7101593,0.96702695,4.5213184,-0.65661156
2.264,2.3028245,4.5575633,-3.7254436,1.0313199,4.495139,-0.718425
2.266,2.3270297,4.440081,-3.7313132,1.0961142,4.46855,-0.7799581
2.268,2.352646,4.3196573,-3.7282896,1.1612821,4.441794,-0.8409528
2.27,2.379709,4.1965346,-3.716939,1.2266784,4.415099,-0.9011513
2.272,2.4081903,4.0709114,-3.6978922,1.2921478,4.3886743,-0.96026194
2.274,2.438165,3.9431465,-3.6717834,1.3575085,4.362694,-1.0180213
2.276,2.4696279,3.8135724,-3.6392608,1.4225734,4.337341,-1.0741673
2.278,2.5025864,3.6825497,-3.6010184,1.487156,4.312755,-1.1284531
2.28,2.537057,3.5506778,-3.5578065,1.5510615,4.289075,-1.1806662
2.282,2.573073,3.4184196,-3.510165,1.6141154,4.2664204,-1.2306206
2.284,2.6106503,3.2863326,-3.4588184,1.676158,4.2448783,-1.2781554
2.286,2.6498575,3.154891,-3.4043877,1.737045,4.2245407,-1.3231366
2.288,2.690503,3.0246916,-3.3474417,1.7966812,4.205458,-1.3654761
2.29,2.7327647,2.8962417,-3.2886405,1.8550084,4.187668,-1.4051127
2.292,2.7765865,2.770006,-3.2285554,1.9120206,4.17119,-1.4420269
2.294,2.821938,2.6464076,-3.1675687,1.967746,4.1560454,-1.4762598
2.296,2.868751,2.5259538,-3.106234,2.0222492,4.142251,-1.5078955
2.298,2.9170184,2.4088993,-3.0450053,2.0756416,4.129807,-1.5370793
2.3,2.9668345,2.2955127,-2.9841485,2.1280437,4.11873,-1.5640097
2.302,3.0180917,2.1862216,-2.9241686,2.1796,4.109028,-1.5889221
2.304,3.0707026,2.081084,-2.865221,2.2304428,4.1007223,-1.6120852
2.306,3.1246066,1.9801834,-2.8075724,2.2807055,4.093842,-1.6337626
2.308,3.179811,1.8837421,-2.7514749,2.3304858,4.08839,-1.654218
2.31,3.236134,1.7917361,-2.6971054,2.379868,4.0843797,-1.6736895
2.312,3.2936356,1.7041491,-2.6445942,2.4289048,4.0817895,-1.6923507
2.314,3.3521914,1.6211479,-2.5940447,2.4776194,4.0806017,-1.7103305
2.316,3.4117408,1.5424819,-2.5455503,2.5259898,4.080754,-1.7277114
2.318,3.4721563,1.4681745,-2.4991994,2.5739567,4.0821595,-1.7445334
2.32,3.5334816,1.3979733,-2.4549112,2.6214397,4.0847187,-1.7607857
2.322,3.5955317,1.3319564,-2.412763,2.6683292,4.088314,-1.7764286
2.324,3.658235,1.2699158,-2.372735,2.7144852,4.092815,-1.7913938
2.326,3.7215924,1.2116076,-2.3347516,2.7597518,4.0980763,-1.8056107
2.328,3.785592,1.1569804,-2.298586,2.8039613,4.103955,-1.8189971
2.33,3.850109,1.1059484,-2.2643023,2.8469427,4.110306,-1.8314768
2.332,3.915144,1.0582443,-2.2316961,2.888526,4.116998,-1.8430059
2.334,3.9805858,1.0137949,-2.2006454,2.9285433,4.1238937,-1.8535488
2.336,4.046468,0.972337,-2.1709633,2.9668612,4.1308756,-1.8630842
2.338,4.112818,0.93366283,-2.1425214,3.0033615,4.13785,-1.8716431
2.34,4.1795416,0.89762187,-2.1151452,3.0379682,4.144716,-1.8792894
2.342,4.246641,0.86395323,-2.0886154,3.0706234,4.1513925,-1.8861167
2.344,4.3140335,0.8323978,-2.0627027,3.101299,4.157779,-1.8922584
2.346,4.3817134,0.8027935,-2.0372293,3.129986,4.163791,-1.8978705
2.348,4.4496403,0.77485573,-2.0120044,3.1566956,4.1693206,-1.9031057
2.35,4.517792,0.7483113,-1.9868819,3.1814528,4.1742744,-1.9081354
2.352,4.5861516,0.7229327,-1.9615347,3.204282,4.178549,-1.913125
2.354,4.6546655,0.698441,-1.935933,3.2252007,4.1820383,-1.9182136
2.356,4.7230806,0.6746451,-1.9098577,3.2442133,4.184652,-1.9235439
2.358,4.7916384,0.651217,-1.8831961,3.2613103,4.1862917,-1.9292169
2.36,4.8602695,0.6279406,-1.8557847,3.2764757,4.186872,-1.9353118
2.362,4.928706,0.6047685,-1.8275661,3.2896786,4.186327,-1.9418552
2.364,4.9970512,0.5813239,-1.7983415,3.3008716,4.184585,-1.9488597
2.366,5.065039,0.55749047,-1.7679976,3.3100138,4.181579,-1.9562802
2.368,5.132652,0.53322613,-1.7364805,3.3170755,4.177249,-1.9640512
2.37,5.1998234,0.50844735,-1.7036939,3.3220267,4.1715145,-1.9720825
2.372,5.266594,0.48305345,-1.6695802,3.3248491,4.1643095,-1.9802743
2.374,5.3327274,0.45699,-1.6340725,3.325537,4.1555657,-1.9885125
2.376,5.3983803,0.4302368,-1.5970404,3.3240879,4.1451864,-1.9967005
2.378,5.4631367,0.40290904,-1.558473,3.3205092,4.1330824,-2.0047615
2.38,5.527008,0.3750302,-1.5182898,3.314811,4.119177,-2.0126238
2.382,5.590023,0.346665,-1.4765277,3.3070235,4.103389,-2.020245
2.384,5.6519666,0.31776685,-1.4330904,3.2971706,4.0856466,-2.0276198
2.386,5.7128696,0.28844294,-1.387991,3.2852867,4.0658975,-2.0347292
2.388,5.7726007,0.25891355,-1.3412746,3.2714324,4.0441093,-2.041596
2.39,5.8309245,0.22915408,-1.2929329,3.255654,4.0202475,-2.0482545
2.392,5.887696,0.19927579,-1.2431381,3.2380152,3.994311,-2.0547266
2.394,5.9428864,0.16938025,-1.1916744,3.2185836,3.9663134,-2.0610433
2.396,5.996759,0.13944802,-1.138522,3.1974447,3.936284,-2.067239
2.398,6.0493836,0.10939515,-1.0837853,3.1746814,3.9042735,-2.0733294
2.4,6.1005373,0.07925063,-1.0275373,3.150385,3.87034,-2.079338
2.402,6.149856,0.048952103,-0.9698312,3.1246579,3.8345416,-2.0852783
2.404,6.197211,0.018704653,-0.9107217,3.0975833,3.7969255,-2.091146
2.406,6.242688,-0.011705101,-0.8502934,3.0692568,3.757555,-2.0969195
2.408,6.2863483,-0.042172045,-0.78863263,3.0397592,3.7164812,-2.10258
2.41,6.328123,-0.07273412,-0.72586846,3.00917,3.673759,-2.108084
2.412,6.368093,-0.103583634,-0.66194105,2.9775796,3.6294427,-2.1133842
2.414,6.406167,-0.13468656,-0.5970745,2.9450555,3.5835931,-2.1184525
2.416,6.4424486,-0.16600531,-0.5313086,2.9116602,3.5362751,-2.1232672
2.418,6.476863,-0.19776142,-0.46471173,2.8774617,3.487566,-2.1278186
2.42,6.5094066,-0.23005158,-0.39739484,2.8425226,3.437548,-2.1321397
2.422,6.5401163,-0.26302174,-0.3293581,2.8069055,3.3862891,-2.1362593
2.424,6.56902,-0.2967274,-0.26080883,2.770666,3.3339205,-2.1402092
2.426,6.5962553,-0.3312873,-0.1917392,2.7338867,3.2806084,-2.1440768
2.428,6.6217723,-0.36679402,-0.122259855,2.6966934,3.2265184,-2.1480217
2.43,6.645561,-0.40319973,-0.052429676,2.6592073,3.17177,-2.152183
2.432,6.66782,-0.44066378,0.017629981,2.6215239,3.1164782,-2.1566675
2.434,6.6885405,-0.47910404,0.08790612,2.5837336,3.0607765,-2.1615403
2.436,6.7077403,-0.5184125,0.15833688,2.5459442,3.0048432,-2.1668417
2.438,6.7254515,-0.55854464,0.22880423,2.5082786,2.9488645,-2.1726055
2.44,6.741765,-0.59939873,0.29937577,2.4708607,2.8930125,-2.1788218
2.442,6.7566886,-0.64067835,0.3698343,2.4337895,2.8374357,-2.1854324
2.444,6.7702985,-0.68220294,0.44027007,2.3971136,2.782258,-2.1922948
2.446,6.782561,-0.72365916,0.5105841,2.360852,2.7275686,-2.1991813
2.448,6.793684,-0.76479745,0.5807066,2.3249648,2.6734304,-2.2057486
2.45,6.8035927,-0.805352,0.65061486,2.2893682,2.6198618,-2.2115686
2.452,6.812434,-0.84502184,0.7201904,2.2539434,2.5668485,-2.21615
2.454,6.8202677,-0.883414,0.7895093,2.2185512,2.5143642,-2.2189703
2.456,6.827171,-0.92030525,0.8585502,2.1830611,2.4623837,-2.219551
2.458,6.8331623,-0.95556855,0.9272343,2.1473906,2.410898,-2.2175283
2.46,6.838311,-0.9889684,0.9955622,2.111484,2.3599105,-2.2126975
2.462,6.842682,-1.0203507,1.0634651,2.0753713,2.3094504,-2.2050724
2.464,6.8462834,-1.0496683,1.1309742,2.0391324,2.2595792,-2.1948955
2.466,6.849279,-1.0769594,1.1980255,2.0028977,2.2103667,-2.1826062
2.468,6.851636,-1.1021857,1.2646242,1.966844,2.161892,-2.1687691
2.47,6.8533974,-1.1255587,1.330765,1.9311528,2.114228,-2.1540523
2.472,6.854753,-1.1472478,1.3964471,1.8960047,2.067451,-2.1391158
2.474,6.855509,-1.1672854,1.4616807,1.8615583,2.0216246,-2.124531
2.476,6.8558726,-1.1858957,1.5264287,1.827936,1.9768131,-2.110735
2.478,6.8558564,-1.2034205,1.5907717,1.7952456,1.9330344,-2.0980105
2.48,6.855515,-1.220119,1.6545589,1.7635242,1.8902957,-2.0863998
2.482,6.8548284,-1.2361251,1.7179333,1.7327762,1.8486573,-2.075768
2.484,6.8538036,-1.2516689,1.7809352,1.7030318,1.8082051,-2.0658734
2.486,6.8525085,-1.2669055,1.8434772,1.6743044,1.7690121,-2.0564125
2.488,6.8510637,-1.2820091,1.905646,1.6465911,1.7311172,-2.047027
2.49,6.849368,-1.2970698,1.9673916,1.6198492,1.6945338,-2.0373113
2.492,6.8476605,-1.3122231,2.028809,1.5940259,1.6592883,-2.0268512
2.494,6.845894,-1.3274088,2.0898209,1.5690585,1.6254463,-2.0152864
2.496,6.8440304,-1.3426139,2.1504645,1.5448967,1.5930679,-2.002339
2.498,6.8422017,-1.357871,2.2108884,1.5215183,1.5622106,-1.9878222
2.5,6.8405423,-1.3731425,2.27105,1.4988832,1.5329258,-1.9716483
2.502,6.8392744,-1.3882976,2.3308907,1.476973,1.5052497,-1.9538088
2.504,6.838171,-1.4032189,2.3902745,1.4557738,1.4792137,-1.9343706
2.506,6.837024,-1.4177856,2.4492147,1.4352748,1.4548364,-1.9134499
2.508,6.836041,-1.4318328,2.5076766,1.415478,1.4321148,-1.8912016
2.51,6.8354206,-1.445255,2.565672,1.3963759,1.411054,-1.8678024
2.512,6.835486,-1.4580493,2.6231382,1.3779817,1.3916423,-1.8434122
2.514,6.836285,-1.4702994,2.6800652,1.3603053,1.373853,-1.8181922
2.516,6.837692,-1.4818709,2.7364194,1.3433539,1.3576629,-1.7922719
2.518,6.8395443,-1.4927866,2.7920675,1.327143,1.343048,-1.7657516
2.52,6.841899,-1.503114,2.8470254,1.3116803,1.3299701,-1.7386937
2.522,6.844805,-1.5127021,2.9011252,1.2969812,1.3183963,-1.7111459
2.524,6.8481164,-1.5215448,2.95429,1.2830532,1.3082871,-1.6830993
2.526,6.851979,-1.5298283,3.0064597,1.2698896,1.2995992,-1.6545281
2.528,6.8563776,-1.5374758,3.0575356,1.2574995,1.2922863,-1.6254126
2.53,6.861299,-1.5444244,3.1075926,1.2458907,1.2863061,-1.5957148
2.532,6.8667426,-1.5507762,3.156351,1.2350361,1.2816012,-1.56538
2.534,6.8725047,-1.5564797,3.2040563,1.224929,1.2780979,-1.5343819
2.536,6.8786306,-1.5615821,3.2505684,1.2155458,1.2757058,-1.5026994
2.538,6.8851404,-1.5661676,3.2957969,1.2068484,1.2743424,-1.4703236
2.54,6.8919525,-1.5702592,3.3397975,1.1988115,1.273896,-1.437273
2.542,6.8988953,-1.573886,3.3826373,1.1913962,1.274243,-1.4035758
2.544,6.905996,-1.5771079,3.4242728,1.1845504,1.2752662,-1.3692745
2.546,6.9132032,-1.5799713,3.4647024,1.1782126,1.2768517,-1.3344221
2.548,6.920491,-1.5826079,3.5039263,1.1723388,1.2788738,-1.2990915
2.55,6.9278393,-1.585032,3.541988,1.1668701,1.2812141,-1.2633436
2.552,6.9351935,-1.5873412,3.5790055,1.1617393,1.2837683,-1.2272712
2.554,6.942395,-1.5895734,3.6148987,1.1568949,1.2864435,-1.1909537
2.556,6.949432,-1.5917623,3.6497495,1.1522683,1.2891481,-1.1544586
2.558,6.9562387,-1.5938661,3.6836722,1.1478014,1.291822,-1.1178586
2.56,6.962887,-1.5960821,3.7166226,1.143436,1.2944059,-1.0812085
2.562,6.969244,-1.5983362,3.7486339,1.1391226,1.2968712,-1.0445434
2.564,6.9753027,-1.6007049,3.7796917,1.1348224,1.2991725,-1.007878
2.566,6.980967,-1.6032362,3.8098836,1.1304923,1.3013062,-0.9712313
2.568,6.986358,-1.6057963,3.8392205,1.1261001,1.3032641,-0.9345932
2.57,6.9913893,-1.6084914,3.867687,1.1216236,1.3050452,-0.89794743
2.572,6.9959545,-1.6112812,3.8952923,1.1170225,1.3066466,-0.86127245
2.574,7.000232,-1.6142112,3.9220693,1.1122757,1.308069,-0.82455164
2.576,7.00416,-1.6171439,3.9479773,1.1073524,1.3093071,-0.78776383
2.578,7.0076356,-1.6201255,3.973047,1.1022265,1.3103307,-0.7508936
2.58,7.010621,-1.6230328,3.9972172,1.0968589,1.3111182,-0.7139395
2.582,7.013154,-1.6259267,4.020473,1.0911971,1.311623,-0.6768937
2.584,7.015374,-1.6287254,4.042768,1.0851951,1.3117837,-0.6397767
2.586,7.0170903,-1.6314929,4.064139,1.0788198,1.3115652,-0.60260797
2.588,7.018314,-1.6340139,4.084567,1.0720184,1.3109106,-0.5654081
2.59,7.0189214,-1.6363072,4.104078,1.0647496,1.3097533,-0.52819115
2.592,7.0190034,-1.6384165,4.1225805,1.0569822,1.3080328,-0.4909991
2.594,7.018482,-1.6403039,4.140008,1.0486782,1.3056829,-0.45385975
2.596,7.017278,-1.6419103,4.156421,1.039807,1.3026357,-0.41680253
2.598,7.0154514,-1.6431764,4.1718707,1.0303514,1.2988099,-0.3798644
2.6,7.0129375,-1.644072,4.1863365,1.020279,1.2941322,-0.3430847
2.602,7.0095377,-1.6445282,4.1998224,1.0095532,1.2885294,-0.30650565
2.604,7.005273,-1.6446056,4.212367,0.9981314,1.2819337,-0.27017033
2.606,7.0003095,-1.6443329,4.2240243,0.98598814,1.2742815,-0.23409522
2.608,6.994366,-1.6435497,4.2347116,0.9730838,1.2655052,-0.19831976
2.61,6.9874334,-1.6422579,4.244549,0.9593933,1.2555472,-0.1628665
2.612,6.9795227,-1.6404555,4.2536225,0.9448873,1.2443612,-0.1277458
2.614,6.970706,-1.6380394,4.2619424,0.92953515,1.2319074,-0.09297123
2.616,6.9609942,-1.6350212,4.269441,0.91332036,1.2181493,-0.058541775
2.618,6.950192,-1.6313527,4.2763286,0.8962287,1.2030894,-0.024443641
2.62,6.9383974,-1.6270068,4.2827325,0.8782342,1.1867032,0.0093487725
2.622,6.9257183,-1.6218628,4.288561,0.8593257,1.1689951,0.042842664
2.624,6.9121556,-1.6158726,4.29389,0.8394803,1.149961,0.076062314
2.626,6.897727,-1.6090117,4.2987785,0.8186827,1.1296024,0.10903191
2.628,6.8825345,-1.6012707,4.3033137,0.79691446,1.1079471,0.14176692
2.63,6.866597,-1.5924635,4.307501,0.7741639,1.085002,0.17427558
2.632,6.850016,-1.582681,4.311443,0.75041115,1.0608,0.20656711
2.634,6.833027,-1.5718997,4.3151426,0.72566175,1.0353588,0.23864798
2.636,6.8154273,-1.560019,4.3185806,0.69990367,1.0087119,0.27050802
2.638,6.797449,-1.5470086,4.321913,0.67314506,0.9808998,0.30214244
2.64,6.7792063,-1.532822,4.325045,0.64538753,0.95193976,0.33352202
2.642,6.76064,-1.5174645,4.328144,0.61665213,0.9218844,0.3646165
2.644,6.7420783,-1.5010309,4.3310366,0.58696085,0.8907703,0.39539123
2.646,6.72346,-1.4833947,4.3338737,0.55633235,0.85862494,0.42581987
2.648,6.70487,-1.464552,4.336698,0.5247955,0.8254958,0.45586324
2.65,6.686422,-1.4445817,4.3395004,0.49237925,0.791415,0.48549336
2.652,6.668245,-1.423392,4.3422594,0.45912057,0.7564122,0.51468974
2.654,6.6504526,-1.4010619,4.3450303,0.42506427,0.7205125,0.5434435
2.656,6.6329985,-1.3775603,4.3479624,0.39023614,0.68373543,0.57176685
2.658,6.616095,-1.3528534,4.3510475,0.35467514,0.6461224,0.59967726
2.66,6.599753,-1.3269842,4.354279,0.31840765,0.6077146,0.62720406
2.662,6.584147,-1.2998636,4.3577733,0.2814671,0.5685606,0.65439343
2.664,6.5692787,-1.2715268,4.36152,0.24387452,0.5287175,0.6812768
2.666,6.55538,-1.241989,4.3655696,0.20565814,0.48825026,0.7079091
2.668,6.5422564,-1.2112789,4.3700314,0.16684937,0.44724616,0.7343242
2.67,6.5301156,-1.1791582,4.3748746,0.12744838,0.4057886,0.7605394
2.672,6.518946,-1.1457376,4.3802443,0.08749077,0.3639739,0.78656363
2.674,6.5087633,-1.1109536,4.3860383,0.04700944,0.32191044,0.8123907
2.676,6.4997196,-1.0746467,4.3922157,0.00603202,0.27970886,0.8380096
2.678,6.4917297,-1.0368772,4.3988104,-0.035411805,0.23747838,0.86338365
2.68,6.484753,-0.99749017,4.4058456,-0.077278286,0.19532986,0.8884808
2.682,6.478829,-0.9564368,4.4132776,-0.11952984,0.15335812,0.91328377
2.684,6.4739294,-0.91358095,4.4209094,-0.16212174,0.11166662,0.9377731
2.686,6.470032,-0.86894214,4.4287844,-0.20499916,0.070350796,0.96192974
2.688,6.4669437,-0.8224504,4.4367127,-0.24813299,0.029497683,0.98576415
2.69,6.464659,-0.77407515,4.4446173,-0.29147148,-0.01080969,1.0092835
2.692,6.4630904,-0.72365654,4.452414,-0.33499017,-0.05049327,1.0325112
2.694,6.4620996,-0.6712929,4.4598064,-0.37864658,-0.0894649,1.0554934
2.696,6.4615374,-0.61693877,4.466658,-0.42241877,-0.12767914,1.0782648
2.698,6.4612164,-0.56057477,4.4727798,-0.46627742,-0.16507503,1.1008701
2.7,6.461031,-0.5021497,4.477914,-0.5101979,-0.20159844,1.1233785
2.702,6.460909,-0.44176817,4.4818487,-0.55416906,-0.23723587,1.1458497
2.704,6.4605503,-0.37944487,4.4844356,-0.5981724,-0.27196792,1.1683435
2.706,6.4598293,-0.31524786,4.485356,-0.6422099,-0.30581588,1.1909449
2.708,6.4585114,-0.2492409,4.4843764,-0.68629,-0.3388312,1.2137442
2.71,6.4565053,-0.18156455,4.4812937,-0.730427,-0.37107933,1.236815
2.712,6.453555,-0.11238332,4.4758863,-0.7746613,-0.40266216,1.2602646
2.714,6.4495835,-0.041761994,4.4679813,-0.8190381,-0.4337085,1.2841775
2.716,6.444208,0.030047476,4.4574275,-0.86361384,-0.46436745,1.3086456
2.718,6.437526,0.10271779,4.444209,-0.90845245,-0.49479276,1.3337486
2.72,6.4293194,0.17597666,4.42814,-0.95361865,-0.52516073,1.3595254
2.722,6.419346,0.24955685,4.409151,-0.99917436,-0.5556385,1.3859923
2.724,6.407603,0.32302845,4.3872285,-1.0451607,-0.58637875,1.4131156
2.726,6.393756,0.3960927,4.362382,-1.0916139,-0.61751163,1.4408069
2.728,6.3777866,0.46837234,4.3345447,-1.1385264,-0.6491306,1.4689251
2.73,6.359607,0.53948635,4.303683,-1.1858666,-0.681298,1.497275
2.732,6.3390684,0.609082,4.2699056,-1.2335643,-0.714035,1.5256014
2.734,6.3158655,0.6768243,4.233307,-1.2815311,-0.7473223,1.5536327
2.736,6.290239,0.7423158,4.1939664,-1.3296539,-0.78111875,1.5810992
2.738,6.2620287,0.8054172,4.1519737,-1.3778172,-0.81534934,1.6077607
2.74,6.2311835,0.8658843,4.10726,-1.425893,-0.8499396,1.633435
2.742,6.197566,0.9237015,4.060037,-1.4737608,-0.88479936,1.6580187
2.744,6.1611676,0.9788052,4.0103774,-1.521327,-0.91985315,1.6815261
2.746,6.1220846,1.0312052,3.958409,-1.568517,-0.95503676,1.7040755
2.748,6.0802426,1.081238,3.904064,-1.615285,-0.9903159,1.7258749
2.75,6.0354943,1.1291053,3.8474972,-1.6616181,-1.0256553,1.7472221
2.752,5.987993,1.1751509,3.7887607,-1.7075236,-1.0610517,1.7684556
2.754,5.9382353,1.2194568,3.7278502,-1.7530253,-1.0965321,1.7899073
2.756,5.8864617,1.26212,3.6647131,-1.798172,-1.1321326,1.8119009
2.758,5.8328133,1.3034387,3.5993323,-1.8430392,-1.1679087,1.8346877
2.76,5.777388,1.3437681,3.5315745,-1.8877068,-1.2039368,1.8584046
2.762,5.7201934,1.3833468,3.461474,-1.9322829,-1.2403364,1.8830707
2.764,5.6616206,1.4226426,3.3889542,-1.9768682,-1.2772388,1.908611
2.766,5.601655,1.4619691,3.3139281,-2.0215726,-1.3147955,1.9348078
2.768,5.5407214,1.5013982,3.2364225,-2.0664873,-1.3531384,1.9613577
2.77,5.4790654,1.5411172,3.1565232,-2.111692,-1.3924384,1.9878814
2.772,5.4170346,1.5810667,3.0741653,-2.1572428,-1.432879,2.013969
2.774,5.3551702,1.6211503,2.9894822,-2.2031868,-1.4746436,2.0392177
2.776,5.293787,1.66121,2.9023905,-2.2495203,-1.5178964,2.0632648
2.778,5.2331324,1.7010405,2.8129938,-2.2962174,-1.5628142,2.085775
2.78,5.1735816,1.740221,2.7214873,-2.3432302,-1.6095579,2.1064856
2.782,5.1153054,1.7784648,2.6279888,-2.390489,-1.6582439,2.1251917
2.784,5.0587606,1.8152893,2.5328698,-2.4378753,-1.7089213,2.141788
2.786,5.004176,1.8502363,2.436347,-2.485239,-1.7615784,2.1562576
2.788,4.951739,1.8829476,2.33883,-2.5323887,-1.8161807,2.1685963
2.79,4.9017467,1.9129064,2.240721,-2.5791247,-1.8726451,2.1788354
2.792,4.854241,1.9397722,2.1423407,-2.6252296,-1.9308536,2.1870701
2.794,4.809219,1.9633458,2.0443206,-2.6704674,-1.9906452,2.1934261
2.796,4.766709,1.9834638,1.9471549,-2.7145681,-2.0518048,2.198071
2.798,4.7268896,1.9999821,1.8513877,-2.7572582,-2.114093,2.2012682
2.8,4.6895556,2.0128875,1.7574542,-2.7982583,-2.1772459,2.203418
2.802,4.6546435,2.0221534,1.665739,-2.8372865,-2.2409782,2.2050629
2.804,4.621985,2.0280337,1.5768335,-2.8740816,-2.3050432,2.2068977
2.806,4.591378,2.0309024,1.491161,-2.908429,-2.3692746,2.2097082
2.808,4.5624113,2.0309355,1.4090987,-2.9401765,-2.433565,2.2143395
2.81,4.534822,2.0286865,1.3311539,-2.9692261,-2.4978669,2.2216218
2.812,4.5080485,2.0247319,1.2577672,-2.9955506,-2.5621662,2.2322752
2.814,4.4818,2.0196369,1.189165,-3.0191975,-2.6264758,2.2468314
2.816,4.4557295,2.0140007,1.125647,-3.040273,-2.6907675,2.2655923
2.818,4.4292564,2.0086277,1.0676329,-3.0589345,-2.7549992,2.2885737
2.82,4.401954,2.0042255,1.0153081,-3.0753582,-2.8190858,2.3155541
2.822,4.3733683,2.0016809,0.96880585,-3.0897508,-2.8829324,2.3460984
2.824,4.3431287,2.001472,0.9282714,-3.1022964,-2.9463775,2.379611
2.826,4.310863,2.004369,0.89367926,-3.1131616,-3.0092573,2.4154136
2.828,4.276136,2.0109963,0.8650266,-3.122472,-3.0714223,2.4528084
2.83,4.238608,2.0219111,0.842293,-3.130338,-3.1327562,2.4911563
2.832,4.1980777,2.0375211,0.82533497,-3.1368454,-3.1931894,2.529904
2.834,4.1542277,2.0580544,0.81399107,-3.142064,-3.252703,2.5685618
2.836,4.1070147,2.0838668,0.8080139,-3.1460347,-3.3113012,2.606711
2.838,4.0563745,2.1149724,0.8070406,-3.148786,-3.3689768,2.6439517
2.84,4.0019245,2.1515732,0.8107365,-3.1503205,-3.425659,2.679902
2.842,3.9455457,2.1919158,0.8204873,-3.1506202,-3.4811678,2.714197
2.844,3.88852,2.234655,0.8354971,-3.149616,-3.5352206,2.7464592
2.846,3.824513,2.284482,0.85080796,-3.1472068,-3.5874743,2.7763019
2.848,3.7452025,2.3492966,0.85502195,-3.1432626,-3.6375237,2.8033714
2.85,3.636777,2.441658,0.8343585,-3.1376393,-3.684963,2.827378
2.852,3.497931,2.5731432,0.81055975,-3.130164,-3.7294033,2.8480988
2.854,3.3298147,2.7380593,0.8089066,-3.1206498,-3.770523,2.865432
2.856,3.1355672,2.9262629,0.82604474,-3.1088881,-3.808075,2.8794422
2.858,2.9120684,3.1358032,0.8458035,-3.09469,-3.8418894,2.8903499
2.86,2.6492074,3.3683815,0.85976964,-3.0778692,-3.8718612,2.8985443
2.862,2.3456166,3.6238546,0.8692434,-3.0582554,-3.8979802,2.9045315
2.864,1.9950247,3.9093704,0.8757752,-3.0357459,-3.9203088,2.9088855
2.866,1.5817266,4.237882,0.8837218,-3.0102785,-3.938969,2.9122243
2.868,1.0956287,4.621056,0.894336,-2.9818447,-3.9541035,2.9151165
2.87,0.5334149,5.0647044,0.906031,-2.9505126,-3.9659386,2.9180455
2.872,-0.106000766,5.568829,0.9184241,-2.9165564,-3.9749026,2.9214764
2.874,-0.82602125,6.1313972,0.9327488,-2.8803027,-3.98171,2.9259245
2.876,-1.6314814,6.751501,0.95152247,-2.8418941,-3.9869254,2.9316812
2.878,-2.5278318,7.429082,0.9772501,-2.8012152,-3.9903767,2.9393654
2.88,-3.518443,8.163262,1.0121868,-2.7582605,-3.9913497,2.9517832
2.882,-4.6047993,8.951786,1.0589578,-2.712063,-3.9918268,2.968893
2.884,-5.78529,9.79002,1.1201985,-2.660462,-3.9920886,2.9844081
2.886,-7.0545774,10.670879,1.1985981,-2.602501,-3.989108,2.9922752
2.888,-8.404133,11.584819,1.2962229,-2.537432,-3.9803286,2.9878988
2.89,-9.82238,12.520133,1.4142089,-2.4616523,-3.9627774,2.9658818
2.892,-11.293611,13.462416,1.5526803,-2.3703325,-3.932188,2.9203293
2.894,-12.799199,14.395227,1.7106338,-2.2587914,-3.8838449,2.8446097
2.896,-14.317647,15.3005,1.8861837,-2.122996,-3.8118372,2.7297144
2.898,-15.824917,16.159128,2.0763311,-1.9599851,-3.7090478,2.564853
2.9,-17.29555,16.951939,2.2770562,-1.7673439,-3.5682125,2.3399348
2.902,-18.702929,17.660309,2.4837008,-1.5436058,-3.383018,2.0487263
2.904,-20.020884,18.266998,2.6907446,-1.2894069,-3.1491556,1.6919222
2.906,-21.22331,18.756714,2.8918204,-1.0082086,-2.86525,1.2788635
2.908,-22.285915,19.116665,3.0805428,-0.7063916,-2.5337517,0.8272907
2.91,-23.1872,19.337114,3.2507398,-0.39306778,-2.1615036,0.36144763
2.912,-23.909296,19.41156,3.3970156,-0.07946011,-1.7595145,-0.09106666
2.914,-24.43847,19.336996,3.5148633,0.22196773,-1.3420167,-0.5032293
2.916,-24.765701,19.11375,3.6009395,0.49856982,-0.92531884,-0.8526814
2.918,-24.887138,18.746077,3.653354,0.7386027,-0.5263954,-1.1251199
2.92,-24.804098,18.240993,3.671812,0.9322606,-0.16141762,-1.3161134
2.922,-24.522982,17.608566,3.6577196,1.0726526,0.15554899,-1.4308342
2.924,-24.054705,16.861158,3.6140409,1.1564715,0.41352326,-1.4820238
2.926,-23.414995,16.01334,3.5451176,1.1843206,0.6052538,-1.4867742
2.928,-22.622854,15.081197,3.4560518,1.1603434,0.7273143,-1.4629129
2.93,-21.700577,14.081866,3.3529687,1.0915568,0.77962303,-1.4256923
2.932,-20.672167,13.033153,3.2421336,0.98712415,0.76501334,-1.386396
2.934,-19.562689,11.952828,3.1298819,0.85772693,0.68949336,-1.3526702
2.936,-18.398003,10.858062,3.0216472,0.7137942,0.5638298,-1.3249142
2.938,-17.203163,9.765331,2.9225547,0.5650618,0.39839178,-1.298115
2.94,-16.00138,8.689888,2.8367445,0.4217366,0.20346457,-1.2706493
2.942,-14.813602,7.6452293,2.7667694,0.2920155,-0.0073242188,-1.243622
2.944,-13.658065,6.643406,2.713554,0.17981999,-0.21973974,-1.2176234
2.946,-12.550219,5.6944733,2.6769218,0.087627776,-0.42064902,-1.1928204
2.948,-11.502266,4.8070683,2.6553545,0.01726894,-0.598096,-1.1681468
2.95,-10.522639,3.9877257,2.6459858,-0.03055473,-0.7429904,-1.1397341
2.952,-9.618385,3.2427506,2.6439388,-0.05660406,-0.84950143,-1.1019568
2.954,-8.792239,2.575923,2.6458316,-0.06367009,-0.91466093,-1.0493373
2.956,-8.038217,1.9843389,2.6511524,-0.055779636,-0.9384221,-0.9778516
2.958,-7.349273,1.463351,2.6620758,-0.03704007,-0.92354774,-0.8856603
2.96,-6.7151823,1.0065243,2.678862,-0.01126454,-0.8753394,-0.7730422
2.962,-6.138617,0.6111688,2.6711802,0.018013403,-0.80096114,-0.6418874
2.964,-5.6209607,0.2891744,2.618977,0.047637396,-0.7086895,-0.49544865
2.966,-5.1619515,0.04925251,2.5355492,0.074832655,-0.6075032,-0.33824378
2.968,-4.7531886,-0.11337447,2.4405384,0.09738014,-0.5063587,-0.17584641
2.97,-4.3813214,-0.2077946,2.3399172,0.11388303,-0.4131935,-0.014472894
2.972,-4.043474,-0.24188912,2.229998,0.12387372,-0.33439317,0.13972889
2.974,-3.73202,-0.22991309,2.1093218,0.12770075,-0.27446577,0.2813343
2.976,-3.4330623,-0.188194,1.9761322,0.1263634,-0.23585114,0.40612113
2.978,-3.1421986,-0.1280427,1.8337252,0.12135823,-0.21895383,0.51133144
2.98,-2.8615978,-0.053512305,1.6880012,0.114484906,-0.22239667,0.5957158
2.982,-2.593502,0.035209775,1.5426438,0.10763383,-0.24340855,0.6594191
2.984,-2.336098,0.13678478,1.3995651,0.10262577,-0.2782344,0.70377713
2.986,-2.0853577,0.24637425,1.2598914,0.10101174,-0.32253918,0.7310753
2.988,-1.8371868,0.35728896,1.1246674,0.10396145,-0.37183577,0.74423796
2.99,-1.5891446,0.46311873,0.99502534,0.11213484,-0.4217661,0.74649596
2.992,-1.3397391,0.5585792,0.8715311,0.12569457,-0.4683552,0.74105513
2.994,-1.0888413,0.64011157,0.7541027,0.14431357,-0.50825334,0.730929
2.996,-0.8374158,0.70549196,0.64229643,0.16728944,-0.5388409,0.7187659
2.998,-0.58621997,0.75364405,0.5354682,0.19367795,-0.5583517,0.7067398
3,-0.33623767,0.7843816,0.4333696,0.22236018,-0.56592214,0.69648564
3.002,-0.088962,0.79881895,0.33583984,0.2521416,-0.56157637,0.68914187
3.004,0.15456897,0.79855454,0.24252275,0.28183755,-0.5461884,0.68533725
3.006,0.3934799,0.7855958,0.15329921,0.3103316,-0.52140284,0.68516064
3.008,0.62708586,0.7620292,0.06789476,0.33666477,-0.48945466,0.6882095
3.01,0.85510224,0.7296668,-0.013438076,0.36005032,-0.45294017,0.69367594
3.012,1.0771804,0.6900301,-0.09039658,0.37989533,-0.4146693,0.7004414
3.014,1.2935636,0.64417464,-0.16229299,0.39580613,-0.37747282,0.7072474
3.016,1.5035973,0.59317386,-0.22799723,0.40753648,-0.3440173,0.712802
3.018,1.7070131,0.53781134,-0.28607908,0.41499504,-0.31659573,0.7158762
3.02,1.9039943,0.47869903,-0.33530182,0.41833246,-0.2969234,0.7153546
3.022,2.094498,0.4164824,-0.37461063,0.41781357,-0.28618762,0.7103039
3.024,2.2788155,0.35151836,-0.40297127,0.41373563,-0.28507525,0.7000983
3.026,2.4570475,0.2843797,-0.41944548,0.40644732,-0.2936073,0.6843739
3.028,2.6294684,0.2152919,-0.4232238,0.39639604,-0.31115633,0.6630132
3.03,2.7959955,0.1447992,-0.41390458,0.3840682,-0.3365659,0.63610494
3.032,2.9567873,0.07330949,-0.39117217,0.36990294,-0.36826175,0.6039205
3.034,3.111585,0.0014668321,-0.35506222,0.3543055,-0.40440565,0.56694853
3.036,3.2605164,-0.07045938,-0.30589592,0.33766875,-0.44299883,0.525864
3.038,3.4035723,-0.14230752,-0.244028,0.32034084,-0.482017,0.48145157
3.04,3.541047,-0.21390203,-0.17033286,0.30266607,-0.51956624,0.43455356
3.042,3.6728432,-0.28525376,-0.085580364,0.28494743,-0.55398065,0.38605866
3.044,3.7988787,-0.3560867,0.009012431,0.26748532,-0.58391577,0.3368293
3.046,3.9195156,-0.42635185,0.11239493,0.2505674,-0.60839903,0.28764445
3.048,4.035023,-0.49588734,0.22280365,0.23449355,-0.6268516,0.23916447
3.05,4.145058,-0.56446385,0.33851433,0.21954262,-0.6390686,0.19188826
3.052,4.249239,-0.6315875,0.4580071,0.20599498,-0.64519703,0.14611319
3.054,4.347229,-0.6970324,0.5799079,0.19410889,-0.6456606,0.10194261
3.056,4.43906,-0.7604699,0.7025424,0.18409324,-0.64110976,0.059301555
3.058,4.524843,-0.82109225,0.82340354,0.17611872,-0.63233894,0.017935514
3.06,4.604322,-0.8795433,0.942095,0.17028102,-0.6201971,-0.022539005
3.062,4.6773663,-0.9357586,1.0572406,0.1665886,-0.60554916,-0.062562674
3.064,4.7439823,-0.98988414,1.1678216,0.16498701,-0.589192,-0.10261735
3.066,4.8040576,-1.0418885,1.2727315,0.16533963,-0.57183546,-0.14313641
3.068,4.857623,-1.0917945,1.3712795,0.16741821,-0.5540428,-0.18449262
3.07,4.9045343,-1.1396105,1.4629538,0.17094964,-0.53625536,-0.22697291
3.072,4.945063,-1.1853892,1.547333,0.17561647,-0.51879394,-0.27071044
3.074,4.979295,-1.2291682,1.6242552,0.18105689,-0.5018514,-0.31569242
3.076,5.0074553,-1.2709639,1.6935886,0.18688217,-0.48555654,-0.3617561
3.078,5.029787,-1.3107803,1.7554592,0.19270423,-0.46996713,-0.4085843
3.08,5.0465283,-1.3487933,1.8100462,0.19816525,-0.45508778,-0.45572752
3.082,5.058205,-1.384973,1.857584,0.2029191,-0.4409078,-0.5026573
3.084,5.0651174,-1.4193109,1.898423,0.20663923,-0.4274466,-0.5488022
3.086,5.067589,-1.4518402,1.9330422,0.209364,-0.4149626,-0.5926006
3.088,5.0661263,-1.4825487,1.9618299,0.21082303,-0.40332305,-0.6340886
3.09,5.0611053,-1.5115819,1.9852147,0.21097183,-0.39256972,-0.67271316
3.092,5.053037,-1.5388887,2.0037978,0.20985252,-0.38276443,-0.7080365
3.094,5.042244,-1.5644981,2.0181093,0.20757332,-0.3739531,-0.7397825
3.096,5.0292525,-1.5884684,2.0284176,0.20430925,-0.36616015,-0.7678448
3.098,5.014311,-1.610749,2.0353787,0.20027085,-0.35938472,-0.79227597
3.1,4.997916,-1.6313796,2.039417,0.19567871,-0.35358474,-0.8132527
3.102,4.980332,-1.650428,2.0408792,0.19073883,-0.34869343,-0.83105445
3.104,4.9618273,-1.6679716,2.0402207,0.18564746,-0.34463647,-0.8460168
3.106,4.942611,-1.6840396,2.0378184,0.18055338,-0.3413142,-0.8585083
3.108,4.922766,-1.698693,2.034161,0.17556366,-0.33863252,-0.86888516
