Time_s_,Acc_x_m_s_2_,Acc_y_m_s_2_,Acc_z_m_s_2_,Gyro_x_1_s_,Gyro_y_1_s_,Gyro_z_1_s_
0,0.04180353,0.07930975,-0.42591316,-0.20279899,-1.8485527,-2.04613
0.002,0.1544533,-0.024073258,-0.3144546,-0.22731301,-1.9135448,-2.0651722
0.004,0.2661203,-0.12326272,-0.19687442,-0.25459766,-1.9854091,-2.0836155
0.006,0.37603337,-0.21717498,-0.0740251,-0.28457814,-2.0640473,-2.1008947
0.008,0.4836608,-0.3048078,0.053372957,-0.31694055,-2.1488328,-2.1163898
0.01,0.588238,-0.38514078,0.1840374,-0.35099834,-2.2384043,-2.1293442
0.012,0.68908095,-0.4573936,0.3168371,-0.38557738,-2.3305042,-2.1388628
0.014,0.7857351,-0.5211358,0.45030797,-0.4190073,-2.4219859,-2.143972
0.016,0.8777701,-0.57582355,0.58263004,-0.44921073,-2.508943,-2.1437464
0.018,0.96444035,-0.62088186,0.7113894,-0.47388917,-2.5870152,-2.1375873
0.02,1.0451558,-0.6553575,0.8327301,-0.49070424,-2.6516523,-2.1252747
0.022,1.1193955,-0.6781743,0.94338876,-0.497368,-2.698408,-2.1069152
0.024,1.1876818,-0.6892061,1.0417415,-0.4917407,-2.723261,-2.0827765
0.026,1.250582,-0.68890697,1.1268612,-0.4719871,-2.7229018,-2.053248
0.028,1.30867,-0.67812395,1.1978819,-0.43738618,-2.6971698,-2.019376
0.03,1.3624837,-0.65780663,1.2533791,-0.38633874,-2.642099,-1.9810221
0.032,1.4125733,-0.62852895,1.2912482,-0.31924352,-2.5587869,-1.9395715
0.034,1.459668,-0.59063125,1.3100662,-0.2373779,-2.4499974,-1.8965994
0.036,1.504126,-0.5447254,1.3093259,-0.1429071,-2.320147,-1.8538158
0.038,1.5463853,-0.49167207,1.2893873,-0.038764074,-2.1749992,-1.8129537
0.04,1.5869429,-0.43285826,1.2514769,0.071537495,-2.0213058,-1.7756798
0.042,1.6263355,-0.36964512,1.1977639,0.18412152,-1.8662624,-1.7433952
0.044,1.6646407,-0.3032126,1.1312553,0.2950598,-1.7169446,-1.7170539
0.046,1.7018045,-0.23440608,1.055788,0.40066546,-1.579745,-1.6970505
0.048,1.7376581,-0.16386548,0.97531927,0.4978111,-1.459868,-1.683186
0.05,1.7718296,-0.09199229,0.8939948,0.58410335,-1.3610587,-1.6747642
0.052,1.8042395,-0.01934208,0.81636256,0.6579055,-1.2855704,-1.6707611
0.054,1.8347101,0.053470314,0.74680424,0.7183174,-1.2341781,-1.6700841
0.056,1.8674579,0.122268364,0.6887368,0.76515114,-1.2063184,-1.6718211
0.058,1.8969142,0.19215418,0.6487303,0.798889,-1.2003036,-1.6753427
0.06,1.9234154,0.26223293,0.63006604,0.82050955,-1.2136579,-1.6803305
0.062,1.9472823,0.33170745,0.63526016,0.83127475,-1.2435199,-1.6867526
0.064,1.969126,0.39984226,0.6664229,0.8324613,-1.2869812,-1.6949223
0.066,1.9893802,0.46573734,0.7247883,0.8252678,-1.341251,-1.7053566
0.068,2.0087295,0.5286613,0.8107768,0.81083083,-1.4036479,-1.7185735
0.07,2.0276644,0.5879338,0.92333186,0.79036474,-1.4715557,-1.7348489
0.072,2.0468218,0.64282423,1.0613998,0.765217,-1.5423288,-1.7539953
0.074,2.0672197,0.6925376,1.2236533,0.73684657,-1.6133884,-1.7754526
0.076,2.0897284,0.7367537,1.4078512,0.7066841,-1.6822892,-1.7984593
0.078,2.1157928,0.77514416,1.6102219,0.67606413,-1.7467525,-1.8222588
0.08,2.1468291,0.8074011,1.826976,0.64621073,-1.804735,-1.8461003
0.082,2.1840708,0.8331721,2.0548427,0.61827695,-1.8543718,-1.8691471
0.084,2.228463,0.8522684,2.2899728,0.5933607,-1.893974,-1.8905076
0.086,2.2813346,0.8640172,2.5283787,0.57241166,-1.9220984,-1.9093103
0.088,2.343525,0.8683616,2.765822,0.55617535,-1.9376178,-1.924806
0.09,2.415549,0.86570996,2.9979992,0.54510754,-1.9397542,-1.9364066
0.092,2.4968052,0.85643303,3.2209437,0.53939575,-1.9281075,-1.9437053
0.094,2.5862975,0.84077686,3.4317896,0.5390123,-1.9026085,-1.9464811
0.096,2.6816971,0.8188358,3.6290886,0.54383504,-1.8634738,-1.9447179
0.098,2.7810547,0.79082954,3.8123612,0.5536467,-1.8111136,-1.938601
0.1,2.8833861,0.75752103,3.9809754,0.56819725,-1.7461116,-1.9285737
0.102,2.988038,0.7200726,4.132933,0.5871993,-1.6692004,-1.9153101
0.104,3.0941775,0.67973506,4.2655525,0.61034065,-1.5811286,-1.8995721
0.106,3.201199,0.6368756,4.3769374,0.63734525,-1.482586,-1.8822436
0.108,3.3073537,0.59164846,4.4671664,0.66789985,-1.374369,-1.8642758
0.11,3.410225,0.5438174,4.537553,0.7016145,-1.2574365,-1.8465384
0.112,3.5081975,0.49293423,4.589851,0.7379356,-1.1328934,-1.8297464
0.114,3.5992146,0.43848264,4.624785,0.7762681,-1.001895,-1.8144087
0.116,3.6804821,0.38111782,4.6433487,0.81604373,-0.8655969,-1.8007561
0.118,3.7497876,0.32138824,4.6459594,0.85678816,-0.725101,-1.788635
0.12,3.8048525,0.25994706,4.633353,0.89806426,-0.58151305,-1.7776074
0.122,3.8433928,0.19764113,4.6061506,0.93940496,-0.43600732,-1.7670604
0.124,3.8632977,0.13529277,4.5652666,0.9802406,-0.28985852,-1.7563398
0.126,3.8626337,0.07343507,4.5116014,1.0199465,-0.1444357,-1.7448559
0.128,3.84005,0.012471914,4.4460063,1.0578904,-0.0011684299,-1.732173
0.13,3.7940977,-0.04744768,4.3701057,1.0934196,0.13845032,-1.7180972
0.132,3.7236552,-0.10609603,4.2846303,1.1258703,0.27285802,-1.702651
0.134,3.6271389,-0.16278565,4.188882,1.1545537,0.4004516,-1.686088
0.136,3.5036187,-0.21670842,4.082193,1.178739,0.5196339,-1.6688876
0.138,3.3529608,-0.26724613,3.9647985,1.197694,0.62893873,-1.6517272
0.14,3.175729,-0.31414986,3.837907,1.2108015,0.7271549,-1.6354367
0.142,2.9729528,-0.35792518,3.7039313,1.2175498,0.813365,-1.620904
0.144,2.74606,-0.39935684,3.5648685,1.2174915,0.886745,-1.6089323
0.146,2.4969916,-0.4391278,3.422031,1.2104462,0.94699425,-1.6001813
0.148,2.2281628,-0.47771108,3.276554,1.1965066,0.99433035,-1.5950987
0.15,1.9416199,-0.5150883,3.1298501,1.1759572,1.0293947,-1.5939581
0.152,1.639664,-0.5513836,2.98244,1.1493406,1.0532455,-1.5968707
0.154,1.3257712,-0.5873177,2.834727,1.1174212,1.0673112,-1.6037594
0.156,1.0029666,-0.623469,2.687657,1.0810628,1.0732504,-1.6144634
0.158,0.6745092,-0.660481,2.5420597,1.0412056,1.0727587,-1.6287985
0.16,0.34399116,-0.69888383,2.3999064,0.9987748,1.0674835,-1.6465421
0.162,0.013064988,-0.7387737,2.2626662,0.9546388,1.0590005,-1.6674632
0.164,-0.31415212,-0.78053284,2.13069,0.909608,1.0487456,-1.6914036
0.166,-0.634285,-0.82465625,2.0045328,0.8643821,1.0379068,-1.7182596
0.168,-0.9449957,-0.8711096,1.8852706,0.8195333,1.0274526,-1.7479856
0.17,-1.2437003,-0.9194393,1.7729831,0.77553535,1.0181398,-1.7805514
0.172,-1.5275518,-0.9695815,1.6678567,0.73273087,1.0105114,-1.8159534
0.174,-1.7942448,-1.0218053,1.5702333,0.69136083,1.0049608,-1.8541756
0.176,-2.0417292,-1.0762031,1.4801371,0.6515998,1.0017445,-1.8951693
0.178,-2.2685368,-1.1328809,1.3974347,0.613555,1.0009634,-1.9388216
0.18,-2.4729903,-1.192128,1.3220655,0.5772324,1.0025595,-1.9849827
0.182,-2.6544294,-1.2536986,1.2532234,0.54256433,1.0063871,-2.0335236
0.184,-2.8125467,-1.3174238,1.1899012,0.50947595,1.0122201,-2.0841985
0.186,-2.94753,-1.3836226,1.1314969,0.47791857,1.0198185,-2.1366835
0.188,-3.0597286,-1.4522445,1.077916,0.4479287,1.0290349,-2.190586
0.19,-3.1500425,-1.5229843,1.0285921,0.41956094,1.039725,-2.2454026
0.192,-3.2194355,-1.5955975,0.9824768,0.39284208,1.0517491,-2.3006554
0.194,-3.26906,-1.669707,0.9385399,0.36783203,1.0650705,-2.3557487
0.196,-3.300117,-1.7445602,0.8939465,0.34452173,1.0795562,-2.409881
0.198,-3.3144822,-1.8189447,0.8461339,0.322919,1.0952189,-2.4622252
0.2,-3.3167315,-1.8909703,0.79520404,0.30285785,1.1118641,-2.511975
0.202,-3.3094373,-1.9595279,0.7423666,0.2840275,1.1291609,-2.5584002
0.204,-3.293924,-2.0242667,0.6882062,0.26608184,1.1467487,-2.6007895
0.206,-3.2712808,-2.0851958,0.63191414,0.24859902,1.1642314,-2.638483
0.208,-3.2435288,-2.1415038,0.5710105,0.23111266,1.1812111,-2.6709127
0.21,-3.2128673,-2.191487,0.50255054,0.21322423,1.1973476,-2.6976476
0.212,-3.1815078,-2.2332497,0.42462134,0.19462126,1.2124277,-2.7184649
0.214,-3.1514144,-2.2651114,0.33593464,0.17510423,1.2264295,-2.7333937
0.216,-3.1245515,-2.2860458,0.2357828,0.15462658,1.2394763,-2.7426634
0.218,-3.1022959,-2.2950957,0.12305242,0.1332584,1.2517921,-2.746689
0.22,-3.0860872,-2.2912323,-0.0030569434,0.11120865,1.2636876,-2.746084
0.222,-3.0781004,-2.272772,-0.14291787,0.08875358,1.2754453,-2.7415724
0.224,-3.079439,-2.2381713,-0.29632962,0.066203594,1.2872713,-2.733963
0.226,-3.089811,-2.1870844,-0.4636222,0.043932527,1.2992592,-2.7240748
0.228,-3.1089354,-2.1192107,-0.6447474,0.022254467,1.311219,-2.7126126
0.23,-3.1364615,-2.0343828,-0.8395126,0.0013188124,1.3226547,-2.70018
0.232,-3.1725256,-1.9325132,-1.0473406,-0.018837929,1.3329402,-2.6874158
0.234,-3.2162385,-1.8140709,-1.2676965,-0.038185775,1.3413417,-2.6749735
0.236,-3.2662654,-1.6800603,-1.4995933,-0.056706876,1.3471582,-2.6632717
0.238,-3.3216825,-1.531684,-1.7416618,-0.07444084,1.3498231,-2.652563
0.24,-3.3811805,-1.3702993,-1.9927344,-0.0915176,1.3487325,-2.6430798
0.242,-3.443333,-1.1975017,-2.2516832,-0.10818058,1.3433112,-2.635159
0.244,-3.5064535,-1.0148934,-2.5171106,-0.12468755,1.3331844,-2.6292524
0.246,-3.5688756,-0.8244083,-2.787775,-0.14132428,1.3181261,-2.6257586
0.248,-3.6294363,-0.62798405,-3.062738,-0.15844855,1.2980283,-2.6251135
0.25,-3.6871977,-0.4276482,-3.3409128,-0.17630738,1.2730856,-2.6277895
0.252,-3.7414455,-0.22546983,-3.6215425,-0.19505596,1.2435364,-2.63408
0.254,-3.7909644,-0.023582697,-3.9040482,-0.21480176,1.2095335,-2.6440616
0.256,-3.8348005,0.17591691,-4.1877317,-0.23554415,1.1711729,-2.6576076
0.258,-3.8730083,0.37141562,-4.4720373,-0.25724742,1.1283208,-2.674407
0.26,-3.9054554,0.5614674,-4.756785,-0.27990106,1.080497,-2.6940176
0.262,-3.9325042,0.7449415,-5.041184,-0.3035533,1.0268984,-2.71592
0.264,-3.955409,0.92125297,-5.324435,-0.32839608,0.9663692,-2.7395663
0.266,-3.9752402,1.089833,-5.606417,-0.35477307,0.89742744,-2.7643847
0.268,-3.9937,1.2506332,-5.886464,-0.3831741,0.81843364,-2.7897563
0.27,-4.012845,1.4038799,-6.164928,-0.4141805,0.7277727,-2.8151455
0.272,-4.033672,1.550031,-6.441927,-0.4484049,0.6239438,-2.8401594
0.274,-4.059279,1.6900289,-6.7166195,-0.4864037,0.5056875,-2.864531
0.276,-4.0920944,1.8251173,-6.98866,-0.52857375,0.3721286,-2.8881457
0.278,-4.13352,1.9560659,-7.2582617,-0.5750962,0.22280955,-2.9109957
0.28,-4.185302,2.0836258,-7.5248556,-0.62595236,0.057603598,-2.9332051
0.282,-4.249284,2.2089665,-7.787596,-0.6808368,-0.12315774,-2.955011
0.284,-4.3269267,2.3332813,-8.045519,-0.7391873,-0.31880462,-2.9767168
0.286,-4.4192624,2.4575047,-8.297178,-0.8003738,-0.52861273,-2.9985645
0.288,-4.526541,2.5823343,-8.541187,-0.8637911,-0.75170255,-3.0207682
0.29,-4.6489635,2.708183,-8.776088,-0.9288514,-0.98715967,-3.0437388
0.292,-4.7859955,2.8352833,-9.000572,-0.99499315,-1.2340009,-3.0680075
0.294,-4.936651,2.9635544,-9.214085,-1.0616801,-1.4910457,-3.0940032
0.296,-5.0991273,3.0930474,-9.415947,-1.1284381,-1.757098,-3.122008
0.298,-5.271723,3.2233438,-9.604433,-1.1949301,-2.031036,-3.1522744
0.3,-5.452571,3.3541756,-9.777487,-1.2609309,-2.3118286,-3.1850913
0.302,-5.6394863,3.484974,-9.933218,-1.3263537,-2.5985622,-3.2207677
0.304,-5.8292613,3.614746,-10.069654,-1.3912538,-2.890462,-3.2595468
0.306,-6.018874,3.7423983,-10.183722,-1.4558214,-3.1867836,-3.301552
0.308,-6.2049026,3.8664207,-10.273508,-1.5202773,-3.4867878,-3.3467515
0.31,-6.3825903,3.9851198,-10.339522,-1.5848895,-3.7897267,-3.3949664
0.312,-6.5494814,4.0978074,-10.382112,-1.6499226,-4.094796,-3.4459562
0.314,-6.704873,4.2045426,-10.400158,-1.7156007,-4.4011016,-3.499375
0.316,-6.8477726,4.305469,-10.391262,-1.7820978,-4.7076817,-3.5547638
0.318,-6.9768276,4.399464,-10.352034,-1.8495088,-5.013432,-3.6116087
0.32,-7.0906963,4.485077,-10.279641,-1.9178524,-5.317161,-3.669415
0.322,-7.1881943,4.561099,-10.172607,-1.9870523,-5.6176605,-3.7277832
0.324,-7.2686667,4.626731,-10.030304,-2.0569677,-5.913679,-3.7863455
0.326,-7.3321157,4.6818256,-9.852789,-2.1273837,-6.203943,-3.8447518
0.328,-7.3789454,4.7259827,-9.639883,-2.1980672,-6.487177,-3.9026885
0.33,-7.4098434,4.758601,-9.391721,-2.268783,-6.762076,-3.9599144
0.332,-7.425812,4.7792687,-9.108456,-2.3392928,-7.027275,-4.016273
0.334,-7.428591,4.787615,-8.790609,-2.4093642,-7.281374,-4.071685
0.336,-7.420105,4.783728,-8.438784,-2.4787567,-7.5229664,-4.126168
0.338,-7.403257,4.7679424,-8.054087,-2.547227,-7.750613,-4.179756
0.34,-7.3797817,4.740319,-7.63811,-2.6145482,-7.962843,-4.232521
0.342,-7.351012,4.7009735,-7.1930294,-2.6805737,-8.158357,-4.2845907
0.344,-7.3191576,4.6504755,-6.721189,-2.745203,-8.335935,-4.336067
0.346,-7.2861443,4.589425,-6.2253823,-2.8083382,-8.494482,-4.387007
0.348,-7.252994,4.5181627,-5.7087865,-2.869912,-8.633099,-4.4374175
0.35,-7.2207103,4.436692,-5.174717,-2.9298692,-8.751108,-4.487279
0.352,-7.1900024,4.3451085,-4.6270075,-2.9881382,-8.848061,-4.536521
0.354,-7.161504,4.2434435,-4.069952,-3.0446424,-8.923731,-4.585025
0.356,-7.1355796,4.131991,-3.50815,-3.0992637,-8.978137,-4.6326303
0.358,-7.1122074,4.011096,-2.946279,-3.1518693,-9.011556,-4.6791506
0.36,-7.0912004,3.8811603,-2.3892229,-3.2023025,-9.024568,-4.7243176
0.362,-7.0722995,3.7426662,-1.8418171,-3.2504783,-9.01804,-4.7677636
0.364,-7.0556993,3.5961006,-1.3088655,-3.296349,-8.993101,-4.8090477
0.366,-7.041148,3.4419966,-0.79518044,-3.3399096,-8.951049,-4.847641
0.368,-7.028181,3.2804623,-0.3054949,-3.381207,-8.893349,-4.8830256
0.37,-7.015941,3.1115098,0.15553403,-3.42034,-8.821591,-4.9146824
0.372,-7.0040264,2.9352434,0.58345044,-3.4574294,-8.737389,-4.9420805
0.374,-6.991848,2.7518065,0.97387075,-3.4926186,-8.642281,-4.9647393
0.376,-6.978919,2.5613775,1.3231276,-3.5260692,-8.537715,-4.982201
0.378,-6.964818,2.3639865,1.6279337,-3.5579383,-8.425002,-4.9940243
0.38,-6.9490204,2.1594138,1.8853624,-3.5883598,-8.305311,-4.999826
0.382,-6.9309335,1.9475346,2.0935946,-3.6174867,-8.179765,-4.999247
0.384,-6.9104443,1.7282658,2.2519274,-3.6454864,-8.049517,-4.991931
0.386,-6.8879457,1.5013938,2.359487,-3.672564,-7.915752,-4.9775095
0.388,-6.8632317,1.2666674,2.4149787,-3.6989617,-7.7796974,-4.9555936
0.39,-6.835494,1.0236883,2.4183347,-3.7250109,-7.6427374,-4.9258356
0.392,-6.803611,0.77199864,2.3705091,-3.7510998,-7.50646,-4.8879366
0.394,-6.7671866,0.51129127,2.2732375,-3.7776308,-7.372591,-4.8416157
0.396,-6.7258205,0.2413857,2.1287837,-3.8050537,-7.243012,-4.7866216
0.398,-6.6792145,-0.03798175,1.9404517,-3.833837,-7.119727,-4.722708
0.4,-6.6265564,-0.32678223,1.7114962,-3.864473,-7.0048,-4.6496663
0.402,-6.566839,-0.6252301,1.44509,-3.8974366,-6.900284,-4.56727
0.404,-6.498461,-0.93324137,1.1448369,-3.933173,-6.8081603,-4.4752793
0.406,-6.420537,-1.2504585,0.8146544,-3.9720626,-6.730271,-4.3734293
0.408,-6.331673,-1.5761678,0.45873192,-4.014413,-6.668228,-4.2614636
0.41,-6.2300406,-1.9096105,0.08210096,-4.0604663,-6.623369,-4.1391487
0.412,-6.114086,-2.249783,-0.30936903,-4.110372,-6.596765,-4.0063257
0.414,-5.982342,-2.5953963,-0.70983535,-4.1642113,-6.5891995,-3.862985
0.416,-5.8329754,-2.9452105,-1.1137245,-4.2219405,-6.601138,-3.709256
0.418,-5.6635313,-3.2976565,-1.5160756,-4.2834187,-6.6327066,-3.5454204
0.42,-5.4717073,-3.651078,-1.9128617,-4.3483562,-6.683774,-3.3719254
0.422,-5.255463,-4.003417,-2.3003323,-4.416268,-6.7538896,-3.1893854
0.424,-5.013084,-4.352052,-2.6753106,-4.4864874,-6.8422556,-2.9985962
0.426,-4.7434406,-4.693918,-3.034908,-4.5581894,-6.9478207,-2.800445
0.428,-4.445371,-5.025592,-3.3771744,-4.6303716,-7.069316,-2.5958588
0.43,-4.1181803,-5.3434978,-3.7007427,-4.701822,-7.2051854,-2.3857858
0.432,-3.7619157,-5.6435432,-4.0050116,-4.771128,-7.353602,-2.1711204
0.434,-3.376546,-5.9216356,-4.290109,-4.836806,-7.5126286,-1.9525248
0.436,-2.9627624,-6.1733,-4.5566783,-4.897317,-7.680309,-1.7304126
0.438,-2.5217032,-6.3941584,-4.80614,-4.951241,-7.8547335,-1.5048974
0.44,-2.0549583,-6.5796595,-5.040151,-4.9974084,-8.034249,-1.2758185
0.442,-1.5647974,-6.7258,-5.2609997,-5.035038,-8.217604,-1.0427301
0.444,-1.0539174,-6.828704,-5.470526,-5.063844,-8.40411,-0.8049642
0.446,-0.52570343,-6.8849964,-5.6706204,-5.0840673,-8.5938015,-0.5617542
0.448,0.016573906,-6.891899,-5.8630023,-5.0964923,-8.787425,-0.31233412
0.45,0.56881523,-6.8469105,-6.049573,-5.10235,-8.98643,-0.056058504
0.452,1.1268253,-6.7481575,-6.2321053,-5.1032615,-9.192903,0.20743072
0.454,1.6857047,-6.5939693,-6.412141,-5.101037,-9.409258,0.47809857
0.456,2.2402802,-6.3830914,-6.590703,-5.0974903,-9.637945,0.75539154
0.458,2.7851222,-6.1148396,-6.7683773,-5.0942364,-9.881142,1.0382465
0.46,3.3149402,-5.7890053,-6.9451656,-5.092561,-10.140495,1.3251152
0.462,3.824584,-5.4055815,-7.1202273,-5.0932293,-10.416829,1.6140428
0.464,4.307533,-4.9643774,-7.292774,-5.0964365,-10.710048,1.9027818
0.466,4.7585034,-4.4662275,-7.461067,-5.101837,-11.019121,2.1889927
0.468,5.1728773,-3.9131677,-7.622998,-5.1085477,-11.34215,2.4704578
0.47,5.545438,-3.306992,-7.7765565,-5.1152463,-11.676475,2.7451897
0.472,5.871069,-2.6494741,-7.9197702,-5.1202803,-12.01894,3.011577
0.474,6.1449685,-1.9426646,-8.049882,-5.1218734,-12.366078,3.2684748
0.476,6.3627524,-1.1886983,-8.164268,-5.1182194,-12.714293,3.5152218
0.478,6.520322,-0.38963127,-8.26029,-5.1075664,-13.060027,3.751507
0.48,6.613785,0.4525299,-8.335384,-5.0883265,-13.399812,3.9772246
0.482,6.639945,1.3356647,-8.387542,-5.0591946,-13.730363,4.1923437
0.484,6.5961947,2.2576697,-8.414834,-5.019227,-14.048688,4.396826
0.486,6.4806767,3.2160728,-8.416082,-4.9678655,-14.352008,4.590534
0.488,6.292499,4.2082987,-8.390442,-4.904828,-14.63769,4.7731323
0.49,6.0311804,5.231841,-8.337334,-4.8301587,-14.903279,4.9441957
0.492,5.6971283,6.28364,-8.256912,-4.744077,-15.146447,5.103258
0.494,5.2916355,7.3603964,-8.150247,-4.646975,-15.365148,5.2499332
0.496,4.817754,8.458183,-8.017896,-4.539425,-15.557706,5.3840065
0.498,4.278367,9.572999,-7.860508,-4.422149,-15.722723,5.5055895
0.5,3.676303,10.700689,-7.6800747,-4.2960024,-15.85911,5.615182
0.502,3.0153623,11.836701,-7.479414,-4.1619377,-15.966265,5.713552
0.504,2.3016446,12.975853,-7.261794,-4.0210304,-16.043999,5.80161
0.506,1.541355,14.112905,-7.0303326,-3.8744707,-16.092625,5.880315
0.508,0.7410387,15.2423725,-6.7883577,-3.7235925,-16.11296,5.950478
0.51,-0.092368975,16.358566,-6.538839,-3.5698512,-16.106283,6.012639
0.512,-0.9518919,17.455868,-6.2839584,-3.4147747,-16.074184,6.0669537
0.514,-1.8306164,18.528763,-6.025925,-3.2599196,-16.018461,6.113154
0.516,-2.7211678,19.571684,-5.7671676,-3.106795,-15.940993,6.1506724
0.518,-3.616121,20.57933,-5.510816,-2.9567826,-15.843562,6.178732
0.52,-4.508003,21.546576,-5.260245,-2.8110075,-15.727616,6.196469
0.522,-5.390105,22.468939,-5.018123,-2.6703079,-15.594286,6.2030725
0.524,-6.256644,23.34275,-4.7863007,-2.53521,-15.4443035,6.1979203
0.526,-7.102611,24.165138,-4.5660076,-2.4059088,-15.277905,6.180603
0.528,-7.9231615,24.933352,-4.357604,-2.2823038,-15.094874,6.1509047
0.53,-8.71375,25.645296,-4.16107,-2.1641092,-14.894711,6.1087227
0.532,-9.470592,26.298967,-3.9766054,-2.050889,-14.676636,6.054094
0.534,-10.190595,26.893192,-3.8038194,-1.9421583,-14.439743,5.98708
0.536,-10.871058,27.42708,-3.6424358,-1.8374429,-14.1831045,5.9077415
0.538,-11.510198,27.900703,-3.492108,-1.7363278,-13.905848,5.816045
0.54,-12.107322,28.314796,-3.3525567,-1.6385472,-13.607275,5.7119007
0.542,-12.66218,28.67044,-3.2230363,-1.543946,-13.286844,5.5952663
0.544,-13.175316,28.969612,-3.1029024,-1.452527,-12.944223,5.46612
0.546,-13.647456,29.214443,-2.9916844,-1.3644564,-12.57936,5.3245955
0.548,-14.080329,29.408052,-2.8889608,-1.2800076,-12.19227,5.1709437
0.55,-14.475811,29.553644,-2.7947323,-1.1994729,-11.783058,5.005555
0.552,-14.836327,29.654922,-2.7087843,-1.1232421,-11.352128,4.8288937
0.554,-15.163929,29.715723,-2.6315937,-1.0517602,-10.900091,4.6414804
0.556,-15.461142,29.740267,-2.5638058,-0.98545337,-10.427725,4.4439745
0.558,-15.730585,29.73293,-2.5059931,-0.9247143,-9.935987,4.237111
0.56,-15.974693,29.698162,-2.459018,-0.8698145,-9.426011,4.0216517
0.562,-16.195713,29.640162,-2.423771,-0.8209064,-8.89912,3.7983646
0.564,-16.395506,29.562902,-2.4012558,-0.7780278,-8.356872,3.5680416
0.566,-16.575415,29.470161,-2.3929765,-0.7411133,-7.8009434,3.331452
0.568,-16.736506,29.365562,-2.400464,-0.7100079,-7.2332115,3.0893223
0.57,-16.87973,29.252705,-2.425596,-0.68451035,-6.6557274,2.8423104
0.572,-17.00599,29.134619,-2.4701722,-0.6643698,-6.070691,2.5909922
0.574,-17.11335,29.013557,-2.536324,-0.6493335,-5.480462,2.3358579
0.576,-17.20169,28.892612,-2.6259718,-0.63913095,-4.8874736,2.0773108
0.578,-17.270191,28.775066,-2.7412424,-0.63346535,-4.2942567,1.8156573
0.58,-17.316517,28.663116,-2.8838234,-0.63201916,-3.7033753,1.5511242
0.582,-17.338036,28.558569,-3.0551372,-0.6343894,-3.1173182,1.2838898
0.584,-17.331598,28.463001,-3.2568727,-0.6401007,-2.538489,1.0140818
0.586,-17.293962,28.377728,-3.4898934,-0.64860535,-1.9691828,0.7417398
0.588,-17.220905,28.303144,-3.7546058,-0.6592398,-1.4114376,0.46687108
0.59,-17.108301,28.239456,-4.051465,-0.67126167,-0.8670796,0.18945122
0.592,-16.95195,28.186705,-4.380018,-0.68388057,-0.33770555,-0.0904986
0.594,-16.747711,28.144772,-4.7399216,-0.696258,0.17537883,-0.37296796
0.596,-16.49168,28.113174,-5.1307216,-0.7075532,0.67113936,-0.65793186
0.598,-16.18028,28.091387,-5.5513287,-0.7169629,1.1487924,-0.945347
0.6,-15.810343,28.078613,-6.000063,-0.7237635,1.6077875,-1.2351465
0.602,-15.378767,28.07429,-6.475387,-0.727314,2.047781,-1.5272372
0.604,-14.882202,28.077368,-6.975162,-0.727074,2.4685774,-1.8215116
0.606,-14.317137,28.085928,-7.49721,-0.7225761,2.8701181,-2.1178677
0.608,-13.683367,28.09947,-8.038607,-0.71339667,3.2524793,-2.4162302
0.61,-12.980699,28.117277,-8.595433,-0.6992057,3.615685,-2.7165709
0.612,-12.207617,28.137217,-9.164163,-0.6797034,3.9597065,-3.0189404
0.614,-11.364563,28.157684,-9.741519,-0.6546361,4.2844763,-3.3234591
0.616,-10.453352,28.17756,-10.324451,-0.6237805,4.589837,-3.6303525
0.618,-9.475862,28.195532,-10.909357,-0.5869552,4.875517,-3.9398818
0.62,-8.434404,28.210033,-11.491926,-0.5439929,5.141138,-4.2522726
0.622,-7.332101,28.219833,-12.068312,-0.4947765,5.386269,-4.567681
0.624,-6.172616,28.223831,-12.634686,-0.43923604,5.6104817,-4.8861904
0.626,-4.959784,28.22096,-13.1877775,-0.3773613,5.8133345,-5.207757
0.628,-3.6979823,28.210218,-13.723989,-0.30920672,5.994383,-5.5321593
0.63,-2.3922982,28.190916,-14.239304,-0.23490918,6.1532927,-5.8589926
0.632,-1.0478282,28.162722,-14.730371,-0.15463638,6.289916,-6.187709
0.634,0.33074117,28.12471,-15.193964,-0.06858683,6.4042926,-6.517625
0.636,1.7371302,28.076614,-15.627537,0.023016453,6.496607,-6.8479595
0.638,3.1648133,28.019024,-16.02856,0.11999726,6.5670147,-7.1779237
0.64,4.608573,27.951496,-16.393389,0.22207856,6.6157303,-7.506667
0.642,6.0637245,27.874237,-16.719099,0.32894206,6.6431346,-7.833158
0.644,7.524642,27.78789,-17.002792,0.44033384,6.6497097,-8.156308
0.646,8.985978,27.693398,-17.242325,0.5560224,6.6359234,-8.475129
0.648,10.443145,27.59106,-17.435677,0.6757562,6.60216,-8.788654
0.65,11.89015,27.482712,-17.581873,0.7992048,6.548747,-9.095985
0.652,13.321876,27.369898,-17.679092,0.92602444,6.4760504,-9.396366
0.654,14.734394,27.253447,-17.726244,1.0558598,6.384509,-9.689274
0.656,16.12414,27.13452,-17.72268,1.1882861,6.2745047,-9.9744005
0.658,17.487583,27.014713,-17.668068,1.3228478,6.1464167,-10.25172
0.66,18.821842,26.895626,-17.56253,1.4590509,6.000658,-10.521385
0.662,20.124802,26.779142,-17.406513,1.5963233,5.837672,-10.783684
0.664,21.39393,26.667456,-17.200493,1.73402,5.6580124,-11.038902
0.666,22.628422,26.562376,-16.945644,1.8714535,5.4624367,-11.287275
0.668,23.828028,26.465603,-16.643595,2.0079172,5.2518063,-11.528912
0.67,24.992699,26.379318,-16.295828,2.142606,5.0270395,-11.76359
0.672,26.123276,26.305956,-15.90428,2.2746818,4.789212,-11.990824
0.674,27.221067,26.247766,-15.471126,2.403255,4.5395384,-12.209983
0.676,28.28836,26.206715,-14.99832,2.5274851,4.279479,-12.420311
0.678,29.3278,26.18467,-14.488205,2.6465387,4.0105457,-12.620913
0.68,30.342539,26.183012,-13.943237,2.759645,3.7343132,-12.810997
0.682,31.336313,26.202852,-13.366283,2.8660686,3.4523668,-12.989973
0.684,32.312412,26.244894,-12.75941,2.9651408,3.1662426,-13.157398
0.686,33.275726,26.30879,-12.125632,3.0562851,2.8773541,-13.313034
0.688,34.23033,26.393955,-11.467453,3.1390963,2.5870576,-13.457013
0.69,35.180637,26.499332,-10.787333,3.2133746,2.2967372,-13.589785
0.692,36.13104,26.623158,-10.08795,3.2791023,2.0077996,-13.712091
0.694,37.085705,26.763142,-9.372014,3.3365684,1.7214632,-13.825105
0.696,38.048588,26.916117,-8.642295,3.3862214,1.4386292,-13.930464
0.698,39.02289,27.07883,-7.9014764,3.4285514,1.1600142,-14.029957
0.7,40.0115,27.247116,-7.15166,3.4640884,0.88615274,-14.125421
0.702,41.017097,27.416298,-6.394909,3.4932878,0.61733437,-14.218744
0.704,42.041397,27.58131,-5.6328907,3.5164895,0.35354137,-14.311682
0.706,43.085533,27.737167,-4.866623,3.5337524,0.09437084,-14.40571
0.708,44.149975,27.878458,-4.0973177,3.5448577,-0.16085052,-14.501888
0.71,45.23484,27.999508,-3.32656,3.5493598,-0.41290474,-14.600897
0.712,46.338894,28.095009,-2.5552826,3.54663,-0.66257477,-14.703008
0.714,47.459747,28.160128,-1.7845993,3.5359106,-0.9106169,-14.80813
0.716,48.594215,28.190758,-1.0155392,3.5164733,-1.1575899,-14.915889
0.718,49.741898,28.18148,-0.24922848,3.487688,-1.4037442,-15.02579
0.72,50.90082,28.128054,0.5127201,3.449084,-1.6489463,-15.137259
0.722,52.06643,28.0285,1.2700729,3.4003916,-1.8925853,-15.249806
0.724,53.23487,27.880848,2.0231571,3.3416529,-2.1335216,-15.36311
0.726,54.403534,27.683104,2.7719545,3.2731233,-2.3703485,-15.476894
0.728,55.56895,27.434439,3.515812,3.1952384,-2.6014142,-15.590733
0.73,56.727283,27.135067,4.253599,3.1085474,-2.824956,-15.704054
0.732,57.8754,26.78549,4.984686,3.0137084,-3.0390763,-15.816034
0.734,59.010323,26.386879,5.7080626,2.9114084,-3.241972,-15.925513
0.736,60.12919,25.941181,6.423112,2.8023355,-3.4320045,-16.031008
0.738,61.229668,25.450966,7.128437,2.687117,-3.6077828,-16.130732
0.74,62.31031,24.919239,7.822186,2.5662918,-3.768149,-16.222687
0.742,63.369656,24.349323,8.5030365,2.440298,-3.9121928,-16.30471
0.744,64.406296,23.745592,9.169389,2.3094773,-4.0392303,-16.374695
0.746,65.4208,23.111938,9.819868,2.1741378,-4.1486397,-16.430748
0.748,66.41332,22.451988,10.452793,2.034589,-4.239793,-16.471203
0.75,67.383064,21.770414,11.065636,1.8911693,-4.312025,-16.494743
0.752,68.32954,21.071564,11.656481,1.7442818,-4.364603,-16.500494
0.754,69.25376,20.358948,12.223047,1.5943711,-4.396723,-16.487957
0.756,70.1565,19.636358,12.763757,1.4419601,-4.4075413,-16.45702
0.758,71.03797,18.908092,13.276925,1.2875779,-4.396208,-16.407833
0.76,71.90046,18.176868,13.761402,1.1317663,-4.361976,-16.34074
0.762,72.74506,17.445858,14.214771,0.9750047,-4.3043,-16.25618
0.764,73.57215,16.71852,14.635683,0.81768847,-4.2228565,-16.154596
0.766,74.38229,15.997721,15.023632,0.66015625,-4.1176057,-16.036415
0.768,75.17649,15.285368,15.378325,0.50269747,-3.9887624,-15.902094
0.77,75.95521,14.583458,15.699802,0.34551954,-3.8367815,-15.752037
0.772,76.71844,13.893403,15.988026,0.18883371,-3.6623461,-15.586666
0.774,77.46627,13.216234,16.24274,0.032837868,-3.4662592,-15.40637
0.776,78.19814,12.552872,16.464378,-0.122253895,-3.2494137,-15.211644
0.778,78.91332,11.903782,16.653728,-0.27621698,-3.0127323,-15.002921
0.78,79.6113,11.268717,16.811659,-0.4288087,-2.7571862,-14.780707
0.782,80.2919,10.646859,16.93916,-0.5797906,-2.4838102,-14.545506
0.784,80.954834,10.03787,17.037296,-0.7290082,-2.1937208,-14.297693
0.786,81.59894,9.441635,17.107113,-0.8764162,-1.8880794,-14.037598
0.788,82.223495,8.857611,17.149818,-1.0220909,-1.5680819,-13.765396
0.79,82.82785,8.285254,17.16706,-1.1662359,-1.2349424,-13.481128
0.792,83.411514,7.7236466,17.160452,-1.3091421,-0.8898585,-13.184807
0.794,83.97389,7.172066,17.1314,-1.4511986,-0.53394365,-12.876463
0.796,84.51375,6.6300216,17.081291,-1.5928345,-0.16811061,-12.556232
0.798,85.03066,6.0968595,17.011234,-1.7344937,0.20689917,-12.224469
0.8,85.52358,5.5718718,16.922348,-1.8766828,0.5905006,-11.881903
0.802,85.991295,5.0545597,16.816137,-2.0199995,0.98216224,-11.529621
0.804,86.4326,4.544396,16.694006,-2.1652007,1.3812966,-11.169035
0.806,86.847206,4.0408297,16.557161,-2.3132124,1.7871834,-10.801833
0.808,87.23437,3.5436583,16.40727,-2.4651632,2.198874,-10.429826
0.81,87.59387,3.052946,16.245462,-2.622454,2.6151733,-10.054834
0.812,87.92568,2.568677,16.072664,-2.7867284,3.0346034,-9.678686
0.814,88.230354,2.0913076,15.889669,-2.9597726,3.4555545,-9.303192
0.816,88.50894,1.6210966,15.697123,-3.143467,3.8764262,-8.930128
0.818,88.763,1.1585763,15.495863,-3.3396611,4.29571,-8.561186
0.82,88.99487,0.70452666,15.286951,-3.5500965,4.7121835,-8.197944
0.822,89.207726,0.25922704,15.071228,-3.7762742,5.125065,-7.841736
0.824,89.40544,-0.17693949,14.849224,-4.019419,5.534012,-7.4936495
0.826,89.59241,-0.60276556,14.621681,-4.280474,5.93912,-7.15448
0.828,89.77318,-1.0170287,14.389164,-4.5600724,6.3408337,-6.824694
0.83,89.953514,-1.4187943,14.152576,-4.8586035,6.7398186,-6.504484
0.832,90.140175,-1.8072028,13.911858,-5.1762342,7.1368513,-6.193861
0.834,90.34121,-2.1813524,13.667168,-5.512941,7.532689,-5.8926997
0.836,90.565384,-2.5404804,13.41917,-5.8685327,7.927878,-5.600776
0.838,90.8217,-2.883693,13.168327,-6.2427263,8.322714,-5.318003
0.84,91.11864,-3.2084703,12.914917,-6.635121,8.717157,-5.0445137
0.842,91.46608,-3.512238,12.659443,-7.045252,9.11082,-4.7806506
0.844,91.87311,-3.7917423,12.40279,-7.4726605,9.502884,-4.526986
0.846,92.34866,-4.042628,12.144966,-7.9169397,9.892118,-4.284236
0.848,92.9023,-4.2597685,11.886585,-8.377804,10.276919,-4.053068
0.85,93.54344,-4.4373035,11.628555,-8.855084,10.6552925,-3.833896
0.852,94.2808,-4.566371,11.371227,-9.348756,11.024943,-3.6266797
0.854,95.12401,-4.638197,11.113117,-9.858942,11.383214,-3.4306736
0.856,96.08296,-4.6410046,10.8536,-10.385974,11.727148,-3.2443194
0.858,97.16014,-4.556099,10.592808,-10.930319,12.053548,-3.0652246
0.86,98.35536,-4.365597,10.338703,-11.492618,12.359101,-2.8901365
0.862,99.67433,-4.051634,10.09692,-12.0736685,12.640335,-2.7150097
0.864,101.12781,-3.598627,9.859047,-12.674303,12.89384,-2.5350754
0.866,102.72305,-2.9900246,9.62225,-13.295277,13.1163845,-2.3449152
0.868,104.46779,-2.2036285,9.382729,-13.937207,13.304881,-2.1384966
0.87,106.362915,-1.2140617,9.14875,-14.600525,13.4566345,-1.9091892
0.872,108.402565,0.012239456,8.932674,-15.285233,13.569772,-1.6499634
0.874,110.580666,1.5212307,8.746904,-15.990816,13.643215,-1.3535447
0.876,112.90755,3.3621502,8.574345,-16.716358,13.676694,-1.0125301
0.878,115.39044,5.5620384,8.433897,-17.460386,13.671195,-0.61937
0.88,118.01796,8.134712,8.316967,-18.220772,13.628908,-0.16649008
0.882,120.77473,11.129593,8.208107,-18.994898,13.553032,0.3534224
0.884,123.6473,14.626516,8.041225,-19.779613,13.447752,0.9473282
0.886,126.6196,18.645674,7.8454494,-20.571838,13.317414,1.6216143
0.888,129.59605,23.229942,7.6314077,-21.36856,13.165356,2.3809054
0.89,132.52322,28.291037,7.3118405,-22.166027,12.99505,3.2270288
0.892,135.70044,33.67019,6.8187585,-22.959736,12.80984,4.1597953
0.894,139.0577,39.4881,6.181035,-23.744572,12.611729,5.177508
0.896,142.49373,45.830246,5.4470162,-24.516155,12.400782,6.276192
0.898,146.00398,52.69497,4.700799,-25.271538,12.173386,7.448206
0.9,149.56866,60.014484,4.0046864,-26.008408,11.921727,8.682413
0.902,153.17403,67.72386,3.305605,-26.724798,11.635389,9.96529
0.904,156.81503,75.76667,2.5926857,-27.420055,11.300488,11.281324
0.906,160.49873,84.10184,1.8901215,-28.09426,10.897705,12.613182
0.908,163.90918,92.79875,0.9960289,-28.750929,10.39915,13.943452
0.91,167.58798,101.49851,0.08659363,-29.39741,9.771633,15.256516
0.912,171.22125,110.206795,-0.84881973,-30.045254,8.978217,16.53871
0.914,174.7417,118.830376,-1.7818375,-30.705257,7.9732447,17.772255
0.916,178.23293,127.12377,-2.6629143,-31.381594,6.7031546,18.933325
0.918,181.66547,134.95831,-3.479004,-32.065342,5.1202793,19.999056
0.92,185.05377,142.19221,-4.141468,-32.744255,3.1843042,20.967995
0.922,188.34915,148.7023,-4.5552635,-33.420044,0.8632941,21.886307
0.924,191.53055,154.34702,-4.638424,-34.095764,-1.8470697,22.730883
0.926,194.57166,158.98552,-4.303584,-34.766045,-4.967658,23.490572
0.928,197.51837,162.49347,-3.4369926,-35.403477,-8.498646,24.16907
0.93,200.3251,164.86554,-1.9565282,-35.972115,-12.392556,24.792658
0.932,202.9071,166.08713,0.20001507,-36.421597,-16.564934,25.396202
0.934,205.26953,166.09953,3.1105976,-36.70917,-20.90552,26.006296
0.936,207.36932,164.88179,6.8317013,-36.83941,-25.302113,26.660234
0.938,209.13553,162.45229,11.391766,-36.829887,-29.609354,27.336279
0.94,210.50368,158.85085,16.796852,-36.68262,-33.66472,28.03572
0.942,211.40506,154.13953,23.03807,-36.414665,-37.339066,28.724598
0.944,211.77277,148.40182,30.079142,-36.048542,-40.52288,29.311861
0.946,211.54765,141.74202,37.85151,-35.59727,-43.12855,29.689121
0.948,210.6709,134.28467,46.259926,-35.04768,-45.0981,29.712208
0.95,209.08842,126.17142,55.176884,-34.359478,-46.407433,29.220976
0.952,206.75714,117.55055,64.448654,-33.471016,-47.055313,28.061602
0.954,203.65257,108.572845,73.90089,-32.308346,-47.057316,26.109306
0.956,199.76358,99.3926,83.34505,-30.801916,-46.450596,23.305908
0.958,195.094,90.161285,92.585815,-28.900703,-45.28779,19.67958
0.96,189.66664,81.02303,101.42632,-26.58283,-43.630962,15.319101
0.962,183.52959,72.11034,109.67572,-23.864565,-41.555016,10.374892
0.964,176.7511,63.549347,117.15714,-20.809597,-39.1504,5.066719
0.966,169.40697,55.45779,123.70969,-17.518192,-36.511265,-0.33081436
0.968,161.59506,47.93216,129.2025,-14.113839,-33.7221,-5.511424
0.97,153.43349,41.047947,133.53618,-10.730345,-30.857037,-10.168824
0.972,145.04247,34.86756,136.64316,-7.49703,-27.982962,-14.0326805
0.974,136.54124,29.443352,138.49571,-4.5135736,-25.148045,-16.905163
0.976,128.05717,24.809433,139.08984,-1.8345041,-22.378174,-18.68247
0.978,119.71416,20.978592,138.4527,0.50889874,-19.69091,-19.277842
0.98,111.63678,17.94693,136.62772,2.497985,-17.065338,-18.737766
0.982,103.94481,15.691082,133.68265,4.118434,-14.495871,-17.217161
0.984,96.74214,14.167919,129.7093,5.372547,-12.006084,-14.952402
0.986,90.10054,13.326225,124.84031,6.2679586,-9.626459,-12.215883
0.988,84.08147,13.123264,119.18179,6.831813,-7.3861303,-9.279206
0.99,78.74518,13.506382,112.87254,7.1235094,-5.303804,-6.4050674
0.992,74.129974,14.376816,106.052475,7.1875777,-3.4212306,-3.7729948
0.994,70.247505,15.615276,98.89113,7.0498276,-1.7762191,-1.5490652
0.996,67.090004,17.164688,91.45381,6.7623,-0.36910868,0.18938494
0.998,64.6909,18.939144,83.833244,6.3890705,0.80230844,1.4472417
1,63.000935,20.956509,76.19685,5.9938116,1.7443204,2.2586482
1.002,61.68284,23.239576,68.65368,5.630709,2.4738889,2.7022376
1.004,60.814575,25.536587,61.212505,5.3474097,3.0167449,2.8721874
1.006,60.44189,27.69965,53.887096,5.180931,3.3947902,2.8581536
1.008,60.482643,29.695719,46.685207,5.151528,3.6238754,2.7330346
1.01,60.868248,31.546457,39.65973,5.2633877,3.719377,2.5389628
1.012,61.52177,33.25332,32.962284,5.503957,3.6913128,2.2981434
1.014,62.36263,34.803455,26.670403,5.8448534,3.5429204,2.045125
1.016,63.30977,36.174717,20.821262,6.2506976,3.2775152,1.8120532
1.018,64.541214,37.274258,15.625664,6.6879015,2.8982947,1.6152289
1.02,65.46152,38.396,10.911446,7.121332,2.4038844,1.4652795
1.022,66.39689,39.42531,6.7336273,7.5155535,1.7920129,1.376453
1.024,67.33031,40.38159,3.1009693,7.84192,1.0663316,1.3671446
1.026,68.11827,41.404884,0.0077209473,8.081762,0.2368846,1.4569932
1.028,68.760086,42.487396,-2.5183163,8.224989,-0.6810286,1.6635761
1.03,69.21642,43.63848,-4.5205326,8.268405,-1.6670804,1.9978158
1.032,69.51217,44.853752,-6.0309925,8.217156,-2.6970532,2.4617524
1.034,69.63674,46.151215,-7.061205,8.083877,-3.7447498,3.0463634
1.036,69.584114,47.546635,-7.6300526,7.8862414,-4.7843103,3.7287712
1.038,69.29316,49.040657,-7.78092,7.6451435,-5.792191,4.4729824
1.04,68.801956,50.546223,-7.529316,7.3821306,-6.7488728,5.2344394
1.042,68.16323,52.032505,-6.889469,7.1169024,-7.6400642,5.9646273
1.044,67.33492,53.530357,-5.9081497,6.8662186,-8.45718,6.614743
1.046,66.330505,55.03911,-4.626322,6.643331,-9.196671,7.1400046
1.048,65.18071,56.536808,-3.079319,6.4577403,-9.859215,7.504919
1.05,63.898895,58.001373,-1.3077812,6.3156953,-10.448489,7.687574
1.052,62.496704,59.409996,0.6381874,6.221577,-10.969486,7.6806965
1.054,60.982117,60.73732,2.7109413,6.178263,-11.42744,7.489684
1.056,59.35869,61.95677,4.8701124,6.1859612,-11.826943,7.1299257
1.058,57.636593,63.03966,7.077568,6.2418633,-12.170878,6.6253896
1.06,55.82995,63.957073,9.303061,6.3419743,-12.459711,6.007262
1.062,53.950653,64.68925,11.5201235,6.4816866,-12.69214,5.3111224
1.064,52.00801,65.22453,13.704285,6.655841,-12.865996,4.573565
1.066,50.01553,65.553986,15.832873,6.859191,-12.978481,3.829584
1.068,47.98875,65.67609,17.883524,7.086753,-13.026701,3.110781
1.07,45.94284,65.59608,19.836313,7.333782,-13.008298,2.44397
1.072,43.888718,65.325195,21.673695,7.595767,-12.921725,1.8495727
1.074,41.837303,64.87503,23.380035,7.868902,-12.766327,1.3404974
1.076,39.808968,64.257095,24.942566,8.150358,-12.5424,0.9221561
1.078,37.82029,63.49047,26.34432,8.437881,-12.251427,0.5935787
1.08,35.87932,62.6035,27.565594,8.729449,-11.896144,0.3488919
1.082,33.995056,61.62034,28.5972,9.023336,-11.480617,0.17883983
1.084,32.17896,60.559464,29.437443,9.317889,-11.010304,0.072513044
1.086,30.440264,59.438274,30.08554,9.611183,-10.492064,0.018838197
1.088,28.787846,58.27262,30.541058,9.900802,-9.933979,0.0077937245
1.09,27.227488,57.076706,30.806965,10.183661,-9.345203,0.03120029
1.092,25.762035,55.863033,30.88889,10.456102,-8.735722,0.0828644
1.094,24.392803,54.64347,30.794064,10.714035,-8.115926,0.1584897
1.096,23.121614,53.42874,30.531567,10.953132,-7.4962626,0.25547636
1.098,21.949242,52.231556,30.11269,11.168983,-6.886935,0.37240934
1.1,20.874268,51.0664,29.551758,11.357412,-6.297627,0.5083511
1.102,19.895145,49.945618,28.86399,11.514736,-5.7372236,0.6621475
1.104,19.009542,48.877586,28.064983,11.637985,-5.2136097,0.83200884
1.106,18.214106,47.867603,27.171223,11.725046,-4.733514,1.0153322
1.108,17.50437,46.919353,26.199127,11.774778,-4.30235,1.2086594
1.11,16.876137,46.03426,25.165333,11.786989,-3.924265,1.4077177
1.112,16.324549,45.21245,24.086315,11.762324,-3.6021783,1.6076005
1.114,15.844036,44.453415,22.978561,11.70215,-3.337799,1.8030164
1.116,15.429147,43.75567,21.858028,11.608416,-3.1316407,1.9885514
1.118,15.074622,43.116898,20.740292,11.483545,-2.9830818,2.1590302
1.12,14.774651,42.53372,19.641197,11.330231,-2.8904426,2.3098507
1.122,14.522942,42.001312,18.57626,11.151291,-2.8510952,2.4372637
1.124,14.314281,41.51332,17.55833,10.949576,-2.8615057,2.5384796
1.126,14.144058,41.062416,16.597313,10.727953,-2.9173887,2.6116676
1.128,14.006687,40.641552,15.701605,10.489238,-3.013792,2.655916
1.13,13.897008,40.242954,14.878515,10.236203,-3.1452773,2.6711903
1.132,13.810055,39.85915,14.134293,9.971615,-3.3060188,2.6581728
1.134,13.741167,39.483177,13.474191,9.698192,-3.4900076,2.618136
1.136,13.686844,39.108677,12.900616,9.418603,-3.6911821,2.552734
1.138,13.644029,38.730328,12.414396,9.135517,-3.9035819,2.4638884
1.14,13.610076,38.34375,12.014689,8.851561,-4.1215076,2.353615
1.142,13.582609,37.945618,11.698931,8.569292,-4.3396745,2.22394
1.144,13.559083,37.53363,11.463942,8.29118,-4.5532823,2.0768383
1.146,13.536959,37.106155,11.305664,8.019518,-4.758131,1.9142113
1.148,13.514372,36.661674,11.219063,7.756423,-4.9507246,1.7379303
1.15,13.489477,36.199345,11.19811,7.5037236,-5.128363,1.5500293
1.152,13.460375,35.719025,11.236302,7.26291,-5.28899,1.3525691
1.154,13.425556,35.221382,11.326432,7.0350485,-5.431144,1.1476617
1.156,13.383457,34.707527,11.461046,6.8207364,-5.554057,0.9376278
1.158,13.332853,34.17934,11.632669,6.6202374,-5.6575255,0.7249117
1.16,13.272561,33.638943,11.833622,6.433506,-5.741767,0.5120368
1.162,13.202136,33.088745,12.056591,6.260186,-5.8074026,0.30156684
1.164,13.121196,32.531906,12.294721,6.0996566,-5.85529,0.09594774
1.166,13.029592,31.97179,12.541404,5.9510336,-5.8864355,-0.102600574
1.168,12.927565,31.411993,12.790339,5.813281,-5.902023,-0.29200292
1.17,12.81538,30.856491,13.035908,5.685294,-5.9033456,-0.47045612
1.172,12.694193,30.309086,13.272934,5.565899,-5.8918853,-0.63646674
1.174,12.564628,29.773611,13.497662,5.4539437,-5.869243,-0.7888255
1.176,12.427717,29.253452,13.706583,5.3482795,-5.83705,-0.9267981
1.178,12.285146,28.751276,13.896834,5.2478137,-5.7970147,-1.0500684
1.18,12.138566,28.269594,14.066355,5.1515512,-5.750915,-1.1586924
1.182,11.98958,27.81038,14.213628,5.0586586,-5.7005134,-1.2531025
1.184,11.840027,27.375154,14.337756,4.968507,-5.6474795,-1.334112
1.186,11.691657,26.96479,14.438665,4.880666,-5.593358,-1.4028976
1.188,11.546447,26.579494,14.516703,4.794901,-5.539482,-1.4609127
1.19,11.405739,26.218794,14.573079,4.7111425,-5.4869967,-1.5097076
1.192,11.27116,25.881207,14.609054,4.6294613,-5.4368324,-1.550843
1.194,11.14455,25.564651,14.625889,4.5500336,-5.3897576,-1.5858078
1.196,11.027333,25.266457,14.625492,4.473181,-5.346327,-1.6159889
1.198,10.9204445,24.983702,14.610146,4.399291,-5.3069606,-1.6426041
1.2,10.824789,24.712944,14.5820465,4.3288574,-5.271901,-1.6667157
1.202,10.740799,24.45076,14.543874,4.262414,-5.2412343,-1.6892135
1.204,10.668779,24.1931,14.498199,4.200512,-5.2148743,-1.710958
1.206,10.608622,23.93601,14.447256,4.1436834,-5.192627,-1.7326589
1.208,10.560333,23.675766,14.393302,4.092364,-5.174297,-1.7548821
1.21,10.523495,23.408741,14.338556,4.046806,-5.1596055,-1.7781916
1.212,10.496922,23.131735,14.285114,4.007011,-5.1482906,-1.8030645
1.214,10.479502,22.841608,14.234941,3.9727557,-5.140169,-1.8298223
1.216,10.470191,22.535305,14.189963,3.9436007,-5.135176,-1.8586497
1.218,10.467325,22.210464,14.152281,3.9189506,-5.133407,-1.8895164
1.22,10.469234,21.86514,14.123192,3.8980682,-5.1350207,-1.922282
1.222,10.473793,21.498058,14.104031,3.8800821,-5.1401067,-1.9567617
1.224,10.4791,21.108149,14.09558,3.8640285,-5.1487937,-1.9926136
1.226,10.483053,20.69512,14.098689,3.848991,-5.161142,-2.0294118
1.228,10.483545,20.25928,14.114034,3.8341913,-5.1770544,-2.0667243
1.23,10.4783325,19.800976,14.141744,3.8190727,-5.19628,-2.1040592
1.232,10.466192,19.320784,14.181196,3.8033037,-5.218266,-2.141066
1.234,10.444641,18.820087,14.232503,3.786766,-5.242112,-2.1776185
1.236,10.411397,18.300695,14.295214,3.7695146,-5.2666645,-2.213735
1.238,10.365,17.76443,14.36805,3.7517614,-5.2905617,-2.2495205
1.24,10.304232,17.213053,14.449721,3.733875,-5.3122063,-2.2851834
1.242,10.228041,16.648575,14.538527,3.7163143,-5.3298483,-2.321012
1.244,10.136284,16.072937,14.631871,3.699554,-5.3416624,-2.3573105
1.246,10.028201,15.488374,14.728159,3.6839948,-5.3458405,-2.3943238
1.248,9.903637,14.897188,14.82516,3.6699586,-5.340665,-2.432154
1.25,9.762793,14.301631,14.920509,3.657618,-5.3245835,-2.470752
1.252,9.605284,13.70413,15.012411,3.6469913,-5.29626,-2.5099
1.254,9.432192,13.106574,15.098435,3.6379004,-5.2546625,-2.5491974
1.256,9.244665,12.51049,15.176506,3.6300216,-5.199049,-2.5881143
1.258,9.043511,11.917938,15.245003,3.6228604,-5.129034,-2.626002
1.26,8.829919,11.330605,15.302744,3.6157806,-5.044681,-2.6621423
1.262,8.605352,10.750122,15.348277,3.6080234,-4.9463363,-2.6958718
1.264,8.371225,10.177658,15.3807335,3.5987427,-4.834635,-2.7266052
1.266,8.129297,9.614534,15.39943,3.5869935,-4.7105765,-2.7538333
1.268,7.8812056,9.06168,15.404338,3.5717983,-4.575501,-2.7771702
1.27,7.628812,8.520186,15.39566,3.552209,-4.430922,-2.7963762
1.272,7.3731008,7.9911466,15.37436,3.527356,-4.2785034,-2.8113344
1.274,7.115808,7.4749327,15.341576,3.4965,-4.119999,-2.8220825
1.276,6.858806,6.971805,15.298708,3.45908,-3.9571018,-2.8288627
1.278,6.6035323,6.4820604,15.247129,3.4147685,-3.7912676,-2.8320813
1.28,6.3517466,6.0056276,15.188513,3.3634832,-3.6237144,-2.832212
1.282,6.1043797,5.542432,15.124573,3.3054054,-3.4553814,-2.8297744
1.284,5.86312,5.091914,15.056879,3.2409794,-3.2868829,-2.8252625
1.286,5.6292505,4.6538057,14.987171,3.170888,-3.1185594,-2.8190088
1.288,5.4035306,4.2277946,14.917331,3.0960002,-2.95051,-2.8111885
1.29,5.186935,3.8133202,14.8486,3.0173552,-2.7825446,-2.8018715
1.292,4.9805164,3.4098003,14.782206,2.936023,-2.614241,-2.7910216
1.294,4.785009,3.0166817,14.719143,2.8530571,-2.445118,-2.7784917
1.296,4.601098,2.633161,14.659845,2.7694244,-2.2746677,-2.7640655
1.298,4.4293623,2.258676,14.604538,2.6859736,-2.102352,-2.7475774
1.3,4.2705154,1.8928277,14.552881,2.6034083,-1.9276658,-2.728923
1.302,4.1248703,1.5353723,14.504547,2.5222301,-1.750196,-2.7081017
1.304,3.992254,1.1862803,14.459204,2.4427404,-1.5696024,-2.6852267
1.306,3.8727884,0.84552336,14.415865,2.3650484,-1.3856909,-2.6605046
1.308,3.766628,0.5129461,14.373197,2.289115,-1.1983812,-2.6342115
1.31,3.6739192,0.18857384,14.329841,2.214786,-1.0076957,-2.606659
1.312,3.5945687,-0.1274519,14.284157,2.1418366,-0.8137407,-2.5781634
1.314,3.5281744,-0.4348135,14.234615,2.069973,-0.61673117,-2.5490398
1.316,3.474306,-0.7329154,14.179907,1.998862,-0.41699034,-2.519575
1.318,3.4324317,-1.0212269,14.118555,1.928158,-0.21494198,-2.4900143
1.32,3.4021704,-1.2992024,14.048991,1.8575147,-0.011064529,-2.4605665
1.322,3.3832474,-1.566297,13.969932,1.786571,0.19408256,-2.4314086
1.324,3.3749928,-1.8217306,13.880224,1.7149811,0.39986008,-2.4026585
1.326,3.3766992,-2.0645995,13.778784,1.6424242,0.6055694,-2.37435
1.328,3.3880293,-2.2942538,13.664703,1.5686339,0.8104548,-2.3464122
1.33,3.4082427,-2.50991,13.537515,1.4934039,1.0137291,-2.3187149
1.332,3.4367723,-2.710876,13.396843,1.4166176,1.2145637,-2.2910886
1.334,3.4729714,-2.8963537,13.242733,1.3382388,1.4121609,-2.2633495
1.336,3.5163012,-3.0657778,13.075264,1.2583013,1.6057106,-2.2353024
1.338,3.5661685,-3.2187223,12.894791,1.1769394,1.7944211,-2.2068472
1.34,3.622025,-3.354484,12.701814,1.0943407,1.977639,-2.1780448
1.342,3.6836915,-3.4729779,12.497017,1.010723,2.1547763,-2.1491156
1.344,3.7507415,-3.5738645,12.281191,0.9262609,2.3252928,-2.1204252
1.346,3.82273,-3.6570227,12.055302,0.8411452,2.4887161,-2.0924363
1.348,3.8993893,-3.7226734,11.820471,0.7555153,2.6446593,-2.0656772
1.35,3.9802995,-3.7708743,11.577763,0.66946423,2.7927969,-2.0407038
1.352,4.065326,-3.8020694,11.328338,0.5830288,2.932847,-2.0180182
1.354,4.1541853,-3.816946,11.0735035,0.49619976,3.0646055,-1.9980614
1.356,4.246711,-3.816087,10.814264,0.4089185,3.187901,-1.981164
1.358,4.342607,-3.800151,10.551844,0.3211046,3.3025587,-1.967508
1.36,4.4417863,-3.77015,10.287266,0.23262683,3.408484,-1.9571962
1.362,4.5444603,-3.7271206,10.021343,0.14331606,3.5055988,-1.950238
1.364,4.6500874,-3.6718729,9.7551155,0.052939996,3.5938368,-1.946567
1.366,4.7585516,-3.6053996,9.489342,-0.03875708,3.6731331,-1.946064
1.368,4.869511,-3.5287333,9.224703,-0.13205352,3.7434714,-1.9485762
1.37,4.9828525,-3.44304,8.961754,-0.22722071,3.804833,-1.9539454
1.372,5.098337,-3.3493962,8.701269,-0.32454103,3.8572128,-1.9620292
1.374,5.2157636,-3.2488294,8.4438305,-0.42429686,3.9006233,-1.9727043
1.376,5.3347354,-3.142492,8.190107,-0.52673554,3.935101,-1.9858569
1.378,5.454912,-3.0312421,7.940527,-0.6320644,3.960721,-2.0014176
1.38,5.575891,-2.9161415,7.695898,-0.7404379,3.9775832,-2.0193815
1.382,5.6977553,-2.7983007,7.456584,-0.85193783,3.9858434,-2.0397658
1.384,5.8200846,-2.6785202,7.2230034,-0.966553,3.9857101,-2.0626197
1.386,5.9423823,-2.557695,6.9958286,-1.0842006,3.9774728,-2.0880148
1.388,6.0640173,-2.436575,6.7755737,-1.2047116,3.961466,-2.116031
1.39,6.184779,-2.315999,6.562792,-1.3278177,3.9381087,-2.146754
1.392,6.304571,-2.196809,6.358,-1.4531963,3.9078908,-2.1802454
1.394,6.4229813,-2.079623,6.1615148,-1.5804601,3.8713555,-2.2165308
1.396,6.5397205,-1.9652812,5.973935,-1.7091838,3.829109,-2.255579
1.398,6.6546392,-1.854249,5.795593,-1.8389063,3.7818272,-2.297306
1.4,6.767467,-1.746995,5.6268487,-1.9691837,3.730222,-2.3415852
1.402,6.8780646,-1.6440594,5.468009,-2.099571,3.6750271,-2.3882039
1.404,6.986267,-1.545708,5.319322,-2.2296531,3.6170037,-2.4369085
1.406,7.091929,-1.4518664,5.1807294,-2.3590438,3.5569158,-2.4874094
1.408,7.194902,-1.3625835,5.0523496,-2.4874165,3.4954977,-2.5393534
1.41,7.29539,-1.2778273,4.934084,-2.6144948,3.4334462,-2.592346
1.412,7.3933024,-1.1972657,4.826014,-2.740063,3.3714366,-2.6459775
1.414,7.488737,-1.1206008,4.727767,-2.8639657,3.3100753,-2.6997788
1.416,7.581927,-1.0473648,4.639048,-2.9861202,3.2499015,-2.75327
1.418,7.673058,-0.97692657,4.559524,-3.1064928,3.1913698,-2.8059437
1.42,7.762264,-0.90871555,4.488718,-3.2251096,3.1348767,-2.857276
1.422,7.84983,-0.8420171,4.4259105,-3.3420365,3.0807455,-2.9067423
1.424,7.935991,-0.7758939,4.370672,-3.4573886,3.0292268,-2.9538474
1.426,8.020972,-0.7096376,4.3223305,-3.5712817,2.9805255,-2.9981158
1.428,8.1051445,-0.64233553,4.280197,-3.6838236,2.934802,-3.0391195
1.43,8.188673,-0.57294464,4.243596,-3.795122,2.8921993,-3.076504
1.432,8.271827,-0.5004867,4.2117586,-3.9052541,2.8528354,-3.1099768
1.434,8.354993,-0.42405653,4.184131,-4.014234,2.8168488,-3.1393094
1.436,8.438211,-0.34264982,4.1601343,-4.122013,2.7844043,-3.1643462
1.438,8.521807,-0.25557292,4.1390843,-4.228478,2.7556913,-3.185004
1.44,8.606075,-0.16196571,4.120418,-4.3334413,2.7309315,-3.2012565
1.442,8.691249,-0.061104834,4.103451,-4.4366527,2.7104032,-3.2131343
1.444,8.777395,0.04752016,4.0876293,-4.537822,2.694422,-3.220691
1.446,8.86481,0.16431895,4.0724087,-4.6366267,2.683332,-3.224037
1.448,8.953472,0.289653,4.0571613,-4.7326956,2.6775055,-3.2233639
1.45,9.043662,0.423758,4.0412126,-4.825642,2.6773093,-3.2189076
1.452,9.135283,0.5668476,4.0241013,-4.91509,2.6830764,-3.2109282
1.454,9.22841,0.7188341,4.005094,-5.0006766,2.695082,-3.199742
1.456,9.322968,0.87957233,3.9836454,-5.0820975,2.713496,-3.1857247
1.458,9.4191265,1.0488831,3.9593015,-5.15914,2.73835,-3.1692684
1.46,9.516709,1.2263981,3.9313817,-5.231683,2.769541,-3.1507993
1.462,9.615828,1.4117384,3.899328,-5.299747,2.8068068,-3.1307697
1.464,9.716419,1.604345,3.8626451,-5.363485,2.8497286,-3.1096053
1.466,9.818297,1.8037388,3.8209987,-5.42316,2.8977745,-3.087725
1.468,9.921475,2.0091426,3.7741227,-5.479173,2.9502854,-3.0654852
1.47,10.025774,2.21988,3.7218068,-5.532013,3.0065286,-3.0431616
1.472,10.131069,2.4352355,3.6639972,-5.5822325,3.0656953,-3.0209327
1.474,10.237367,2.654367,3.6006336,-5.6303873,3.1269486,-2.998893
1.476,10.344437,2.8764994,3.532039,-5.67698,3.1894739,-2.9770627
1.478,10.45218,3.1008003,3.4583595,-5.7224417,3.2524838,-2.955369
1.48,10.560585,3.3265464,3.3801048,-5.7670593,3.315243,-2.933751
1.482,10.669472,3.5528939,3.2978103,-5.810986,3.3771265,-2.9121692
1.484,10.77884,3.7790706,3.212184,-5.8541937,3.4376345,-2.8906395
1.486,10.888618,4.0045104,3.1239398,-5.896559,3.4964178,-2.869254
1.488,10.998921,4.228423,3.0338938,-5.937864,3.5532846,-2.848166
1.49,11.109696,4.450332,2.9429297,-5.977842,3.6082058,-2.8275914
1.492,11.221006,4.669749,2.851921,-6.0162344,3.6613197,-2.807743
1.494,11.33288,4.8862987,2.7618032,-6.0528126,3.7128963,-2.788812
1.496,11.445532,5.0997334,2.6732812,-6.087435,3.7633066,-2.7709036
1.498,11.559307,5.3096924,2.5872688,-6.1200314,3.8129895,-2.7540383
1.5,11.674308,5.516086,2.5043244,-6.150613,3.8624558,-2.7381167
1.502,11.790641,5.7190433,2.4251537,-6.179276,3.912222,-2.7228813
1.504,11.908773,5.918434,2.3502493,-6.206168,3.9627879,-2.7079868
1.506,12.02896,6.1145797,2.2798934,-6.2314124,4.014643,-2.693036
1.508,12.151386,6.307403,2.2143674,-6.2550983,4.0682244,-2.6776378
1.51,12.276651,6.4972396,2.1538181,-6.2772655,4.123926,-2.661419
1.512,12.404789,6.6842823,2.0981355,-6.297845,4.1820455,-2.6440792
1.514,12.536285,6.868739,2.0470958,-6.316708,4.2428074,-2.6254318
1.516,12.671381,7.0507927,2.0005689,-6.3336573,4.3063803,-2.6054025
1.518,12.810428,7.230576,1.9581666,-6.3484454,4.372815,-2.5840504
1.52,12.953448,7.408475,1.919364,-6.3608155,4.4420805,-2.5615344
1.522,13.100506,7.5845795,1.8836532,-6.3704824,4.514125,-2.5381038
1.524,13.251873,7.7589135,1.8503885,-6.377162,4.588854,-2.5140586
1.526,13.40724,7.931579,1.8189435,-6.380576,4.6661434,-2.4897175
1.528,13.56666,8.102449,1.7885871,-6.380464,4.745855,-2.465395
1.53,13.7300825,8.271532,1.7587485,-6.3766065,4.827814,-2.4413838
1.532,13.897273,8.438666,1.7288256,-6.3687916,4.9118705,-2.417932
1.534,14.068019,8.603494,1.6980424,-6.3568516,4.997856,-2.3952029
1.536,14.241934,8.765765,1.6658463,-6.340666,5.085566,-2.3733225
1.538,14.418499,8.925074,1.6317077,-6.3201404,5.1747756,-2.3523436
1.54,14.597296,9.080795,1.5951552,-6.295219,5.2651863,-2.3322833
1.542,14.777678,9.232367,1.5556355,-6.2659316,5.356473,-2.3131442
1.544,14.959053,9.379272,1.5127983,-6.232341,5.448278,-2.2949264
1.546,15.140909,9.520784,1.4660873,-6.1945777,5.5401974,-2.2776241
1.548,15.322255,9.656504,1.4152484,-6.152832,5.631808,-2.2612572
1.55,15.502225,9.785667,1.360085,-6.1072865,5.722661,-2.245871
1.552,15.680049,9.9075775,1.300415,-6.0581646,5.812354,-2.231532
1.554,15.854854,10.021619,1.236187,-6.0056825,5.900499,-2.2183206
1.556,16.025517,10.127253,1.1673417,-5.9500437,5.986768,-2.2063565
1.558,16.191269,10.223743,1.0939374,-5.8914304,6.0709195,-2.1957886
1.56,16.35094,10.310411,1.0161729,-5.83001,6.1527767,-2.1867487
1.562,16.503593,10.386768,0.93406963,-5.765913,6.2322974,-2.179325
1.564,16.648201,10.452172,0.8477988,-5.6992197,6.3095236,-2.1735952
1.566,16.783672,10.506304,0.75759363,-5.629987,6.38461,-2.169608
1.568,16.908897,10.548756,0.6635971,-5.558211,6.457808,-2.1673431
1.57,17.023212,10.579286,0.56597567,-5.483849,6.5294375,-2.166704
1.572,17.125462,10.597748,0.46504498,-5.406824,6.5998807,-2.1675203
1.574,17.214657,10.604111,0.3608637,-5.327012,6.6695337,-2.1695373
1.576,17.289911,10.598461,0.25351143,-5.244296,6.7387633,-2.1724343
1.578,17.350342,10.58101,0.14307308,-5.1585364,6.807896,-2.1758604
1.58,17.39541,10.552103,0.029644012,-5.069635,6.877192,-2.1793885
1.582,17.424292,10.512142,-0.086714745,-4.9774995,6.946808,-2.1825569
1.584,17.436464,10.461648,-0.2059784,-4.882089,7.0168233,-2.1848826
1.586,17.431534,10.401255,-0.32813287,-4.783409,7.0871754,-2.1858885
1.588,17.409105,10.331584,-0.452883,-4.6815443,7.1576877,-2.1851254
1.59,17.368832,10.253345,-0.580325,-4.5766134,7.2281194,-2.1821487
1.592,17.31067,10.16722,-0.71019304,-4.4688106,7.298113,-2.176595
1.594,17.234589,10.074069,-0.8423177,-4.358363,7.367267,-2.1681364
1.596,17.140697,9.974471,-0.9763116,-4.245539,7.435067,-2.1565588
1.598,17.029116,9.869436,-1.1118746,-4.1306376,7.50097,-2.141729
1.6,16.900442,9.759518,-1.2484138,-4.0139894,7.564351,-2.1236541
1.602,16.754992,9.645524,-1.3852458,-3.8959568,7.6245584,-2.1024394
1.604,16.593718,9.527988,-1.5217534,-3.7769122,7.68093,-2.078255
1.606,16.41735,9.407433,-1.6570107,-3.6572433,7.7327952,-2.0513277
1.608,16.22726,9.284182,-1.7902049,-3.537341,7.779457,-2.021932
1.61,16.023916,9.158878,-1.9194049,-3.4176111,7.8202477,-1.9903401
1.612,15.808365,9.031742,-2.0432758,-3.298438,7.85452,-1.956823
1.614,15.582552,8.902647,-2.1608028,-3.1801877,7.8816595,-1.921609
1.616,15.348049,8.771407,-2.270418,-3.063169,7.901101,-1.8848895
1.618,15.1063175,8.638247,-2.3704386,-2.9476328,7.912384,-1.8468423
1.62,14.858645,8.502969,-2.459142,-2.8337564,7.915186,-1.8076063
1.622,14.6068735,8.365594,-2.5347114,-2.7216125,7.9093075,-1.7673366
1.624,14.352474,8.2259,-2.5953777,-2.6112123,7.894717,-1.7261912
1.626,14.097176,8.083658,-2.6394677,-2.5024831,7.871599,-1.6843251
1.628,13.842562,7.938707,-2.6655579,-2.395307,7.840296,-1.6418891
1.63,13.590294,7.790785,-2.6721418,-2.2895272,7.8013215,-1.599005
1.632,13.341885,7.639858,-2.658174,-2.1849794,7.7553368,-1.555763
1.634,13.098501,7.4859223,-2.6224256,-2.0814981,7.703103,-1.5121989
1.636,12.86165,7.3289104,-2.5643513,-1.9789574,7.645402,-1.4682484
1.638,12.632297,7.1689796,-2.4835715,-1.8772368,7.5830116,-1.4237103
1.64,12.411442,7.006256,-2.380003,-1.7762558,7.5166855,-1.3782961
1.642,12.199737,6.841181,-2.2539299,-1.6759713,7.447253,-1.3317496
1.644,11.99791,6.674158,-2.1060379,-1.5764422,7.375354,-1.2837272
1.646,11.806415,6.5057077,-1.9374423,-1.4777441,7.3014927,-1.2338197
1.648,11.625696,6.336497,-1.7496164,-1.379971,7.2261467,-1.1816555
1.65,11.455934,6.1673355,-1.5443141,-1.2832313,7.149726,-1.12691
1.652,11.297056,5.998994,-1.323576,-1.1877007,7.072522,-1.0694125
1.654,11.149018,5.832365,-1.089844,-1.0935912,6.9947567,-1.0091015
1.656,11.011598,5.668384,-0.84536743,-1.001174,6.9166117,-0.9460577
1.658,10.884699,5.5080085,-0.592813,-0.91076446,6.838139,-0.8805133
1.66,10.767974,5.35217,-0.3348887,-0.8226974,6.75933,-0.8127661
1.662,10.6608925,5.2018456,-0.07416272,-0.73731065,6.680112,-0.74314153
1.664,10.563223,5.057983,0.18663836,-0.6549158,6.600345,-0.67197025
1.666,10.474361,4.921426,0.44494247,-0.5757859,6.5197706,-0.59952104
1.668,10.393922,4.7930965,0.69842386,-0.50014114,6.4380703,-0.5260303
1.67,10.321512,4.673565,0.9447124,-0.4281268,6.3548684,-0.4516524
1.672,10.256483,4.5635414,1.18186,-0.35980868,6.269738,-0.3764925
1.674,10.198465,4.463606,1.4082386,-0.29517293,6.1822796,-0.30063403
1.676,10.147156,4.373822,1.6223154,-0.23417282,6.092133,-0.22417557
1.678,10.102661,4.2942886,1.8226466,-0.17669034,5.999002,-0.14727855
1.68,10.064127,4.2249355,2.0083978,-0.122611284,5.902667,-0.07018614
1.682,10.03089,4.165758,2.1791806,-0.07183123,5.803007,0.0067995787
1.684,10.003306,4.1165237,2.3343477,-0.024241447,5.699978,0.08329344
1.686,9.981518,4.076621,2.4737048,0.020243645,5.593599,0.15888703
1.688,9.965349,4.0454454,2.5974045,0.061681747,5.4839354,0.23313129
1.69,9.954229,4.0226336,2.7050362,0.100143194,5.371091,0.30557477
1.692,9.947346,4.007801,2.7968683,0.13568437,5.255175,0.3757683
1.694,9.944605,4.0003724,2.8737993,0.16838062,5.136257,0.44337475
1.696,9.94651,3.9995646,2.9363914,0.19832635,5.014292,0.5081955
1.698,9.95373,4.00443,2.9852302,0.22561276,4.889347,0.5699811
1.7,9.966045,4.014351,3.0212064,0.25028825,4.7614875,0.62850475
1.702,9.98328,4.028764,3.0450869,0.2723205,4.630636,0.6835958
1.704,10.005541,4.0469036,3.057629,0.2916516,4.4967656,0.73514676
1.706,10.032948,4.0683455,3.059585,0.30822098,4.360014,0.7831434
1.708,10.065968,4.0923367,3.051931,0.32191312,4.2205005,0.82759213
1.71,10.104494,4.11833,3.0353475,0.33258986,4.0784173,0.8684813
1.712,10.148741,4.145771,3.0106034,0.34012604,3.9342384,0.90576065
1.714,10.198784,4.174264,2.9786162,0.34439182,3.7885194,0.9393225
1.716,10.254653,4.2032943,2.9398985,0.34534883,3.6419263,0.96899885
1.718,10.316,4.2327743,2.8951368,0.3431468,3.4953709,0.99452305
1.72,10.383253,4.2621365,2.8443782,0.3378837,3.349718,1.0156628
1.722,10.456459,4.291043,2.7881856,0.3297,3.2058156,1.0322012
1.724,10.534612,4.31976,2.7274857,0.3189695,3.0647068,1.0439087
1.726,10.617418,4.347974,2.6626728,0.30624783,2.9274454,1.0505632
1.728,10.704668,4.37525,2.5939698,0.2920761,2.7949123,1.0519546
1.73,10.795906,4.4013042,2.5217988,0.27692688,2.6677442,1.0479478
1.732,10.890641,4.425862,2.4463227,0.26119244,2.5463238,1.0385244
1.734,10.988211,4.448658,2.367998,0.24515712,2.430678,1.0238383
1.736,11.087972,4.4695067,2.2872777,0.22890258,2.3204336,1.0041178
1.738,11.189053,4.4881945,2.2046835,0.21229893,2.2148943,0.97967064
1.74,11.2905,4.504535,2.1207874,0.19508207,2.1131675,0.9509037
1.742,11.391728,4.518321,2.0362406,0.17684633,2.014234,0.91828966
1.744,11.491724,4.529336,1.9517307,0.15712428,1.9170818,0.88231456
1.746,11.58961,4.5373573,1.8680389,0.13543087,1.8208189,0.8434546
1.748,11.684753,4.5422535,1.7859936,0.111356735,1.7247736,0.80210763
1.75,11.776209,4.5438647,1.7062898,0.08459991,1.6285748,0.75853497
1.752,11.863331,4.541983,1.629941,0.054959297,1.5321064,0.71287334
1.754,11.945337,4.5364685,1.5577221,0.022363067,1.4354432,0.6651768
1.756,12.021608,4.5271297,1.4904132,-0.013148427,1.338834,0.615421
1.758,12.091438,4.513767,1.4288163,-0.051468134,1.2425746,0.5635125
1.76,12.154247,4.4962864,1.3735881,-0.09243551,1.1469431,0.50930417
1.762,12.209712,4.4745493,1.3253465,-0.13585427,1.052314,0.4526521
1.764,12.257252,4.4484067,1.284441,-0.18153381,0.9590447,0.39346457
1.766,12.29659,4.417741,1.2512116,-0.22931376,0.8673878,0.3316989
1.768,12.327333,4.3824544,1.2258015,-0.27902427,0.7777219,0.26733866
1.77,12.349405,4.3425827,1.2083282,-0.3305651,0.69046193,0.20042972
1.772,12.362665,4.2981944,1.198638,-0.3839008,0.6059444,0.13108498
1.774,12.366692,4.249365,1.1966257,-0.43882725,0.5246701,0.059407398
1.776,12.361895,4.1960454,1.202157,-0.49518353,0.4470507,-0.014383743
1.778,12.348047,4.138483,1.2147689,-0.5529481,0.37322408,-0.08991143
1.78,12.325359,4.0768533,1.234086,-0.61209154,0.30325508,-0.16665407
1.782,12.294086,4.0113087,1.2596416,-0.6724366,0.23721452,-0.24400222
1.784,12.254444,3.9421234,1.2908826,-0.73375994,0.17512101,-0.32132757
1.786,12.206669,3.8698165,1.3272305,-0.7958462,0.116859674,-0.39796692
1.788,12.1507,3.7948527,1.3683586,-0.8584683,0.06227082,-0.4732858
1.79,12.087367,3.7177114,1.4136314,-0.92138445,0.011211067,-0.5466331
1.792,12.017386,3.6386712,1.4621711,-0.9843892,-0.036518395,-0.61743325
1.794,11.940603,3.5583968,1.5138221,-1.047328,-0.08114207,-0.68523514
1.796,11.857397,3.4775848,1.568203,-1.1100857,-0.12283194,-0.7497295
1.798,11.768309,3.3968253,1.6248145,-1.1725984,-0.16169697,-0.81071955
1.8,11.674208,3.316502,1.6838441,-1.2348192,-0.19778717,-0.86810184
1.802,11.576235,3.2368817,1.7448244,-1.29673,-0.23111051,-0.921807
1.804,11.474474,3.1586149,1.8070261,-1.3582977,-0.26163054,-0.9717845
1.806,11.368602,3.0823872,1.8701997,-1.4194677,-0.2892521,-1.017999
1.808,11.258747,3.0088062,1.9342594,-1.480161,-0.31382728,-1.0604361
1.81,11.146013,2.9382467,1.9989352,-1.5402462,-0.33519095,-1.0990458
1.812,11.031257,2.8708465,2.0639958,-1.599561,-0.3531899,-1.1337359
1.814,10.914624,2.807044,2.1293585,-1.6579027,-0.36766034,-1.1643989
1.816,10.796726,2.7469478,2.1949034,-1.7150426,-0.3784629,-1.1909517
1.818,10.677661,2.690848,2.2602398,-1.7707541,-0.38545156,-1.213362
1.82,10.558058,2.6389375,2.3252335,-1.8248239,-0.3885156,-1.2316839
1.822,10.438553,2.5912902,2.3896194,-1.8770704,-0.38752902,-1.2460656
1.824,10.319415,2.5478346,2.4532244,-1.9273548,-0.38238126,-1.2567582
1.826,10.201099,2.5085278,2.5158477,-1.9755809,-0.37297332,-1.2641095
1.828,10.08408,2.473147,2.5773182,-2.0217032,-0.35921484,-1.2685117
1.83,9.968826,2.441481,2.6373582,-2.0656712,-0.34105265,-1.2703879
1.832,9.855581,2.413288,2.6959014,-2.1074717,-0.31846672,-1.2701293
1.834,9.744696,2.3883214,2.7527184,-2.1470852,-0.29147863,-1.2680573
1.836,9.636444,2.3663778,2.8077443,-2.1844833,-0.2601683,-1.2643824
1.838,9.531347,2.3470843,2.8608763,-2.219613,-0.22463089,-1.2592344
1.84,9.429476,2.3302648,2.9119854,-2.252411,-0.18500078,-1.252734
1.842,9.331098,2.3155951,2.960987,-2.2828407,-0.14143002,-1.2449381
1.844,9.236457,2.3027198,3.0077515,-2.3108604,-0.09410107,-1.2358724
1.846,9.145706,2.2914271,3.0521905,-2.3364599,-0.04318118,-1.2255421
1.848,9.059154,2.281558,3.0942998,-2.3596401,0.011185765,-1.2139449
1.85,8.97698,2.2727776,3.1338854,-2.380411,0.06887519,-1.2010604
1.852,8.899287,2.264856,3.1709964,-2.398799,0.12977338,-1.1868861
1.854,8.826175,2.2576685,3.2054877,-2.4148436,0.19378173,-1.1714151
1.856,8.75787,2.251148,3.2374856,-2.4286141,0.26080102,-1.154631
1.858,8.694288,2.245171,3.2668414,-2.4401839,0.33072835,-1.1364646
1.86,8.635617,2.2396297,3.2935598,-2.449638,0.40346164,-1.1168385
1.862,8.5819435,2.2343397,3.3174908,-2.457057,0.47891337,-1.0956739
1.864,8.533211,2.229445,3.3386378,-2.4625278,0.55697966,-1.0729159
1.866,8.489514,2.2249026,3.3570802,-2.4661396,0.63754374,-1.0485524
1.868,8.450824,2.2207887,3.3727932,-2.4679852,0.7204946,-1.0226183
1.87,8.417211,2.2170281,3.3856206,-2.4681451,0.8057256,-0.99521214
1.872,8.388535,2.2136788,3.395661,-2.4666843,0.8931123,-0.9664938
1.874,8.364845,2.2106857,3.4028537,-2.463674,0.9825513,-0.9366837
1.876,8.346213,2.2081811,3.4072132,-2.459174,1.0739017,-0.90604794
1.878,8.332528,2.2061307,3.4087138,-2.4532344,1.1670344,-0.87486124
1.88,8.323756,2.2045357,3.4073715,-2.4459102,1.2618153,-0.84338534
1.882,8.319878,2.2033954,3.403273,-2.437253,1.3581038,-0.8118427
1.884,8.321089,2.2026422,3.3964336,-2.4273288,1.4557694,-0.7804167
1.886,8.327043,2.2023857,3.3867922,-2.4161963,1.5547009,-0.7492318
1.888,8.337755,2.2026184,3.3745453,-2.4039311,1.6547773,-0.7183651
1.89,8.353143,2.2034318,3.3598294,-2.3906074,1.7558999,-0.68784857
1.892,8.373142,2.2047591,3.3426218,-2.3762927,1.857974,-0.6576953
1.894,8.39767,2.2067466,3.32305,-2.3610606,1.960921,-0.6279087
1.896,8.4265,2.2093382,3.3012404,-2.3449695,2.0646715,-0.5985131
1.898,8.459699,2.2126167,3.2772288,-2.3280776,2.1691594,-0.56954664
1.9,8.497119,2.2164674,3.2511265,-2.3104105,2.2743108,-0.54108167
1.902,8.538664,2.2210865,3.2230833,-2.2920182,2.3800259,-0.5132067
1.904,8.584158,2.2263365,3.1931448,-2.2729428,2.4861948,-0.48601934
1.906,8.633382,2.232302,3.1613212,-2.2532296,2.5927072,-0.45959476
1.908,8.686167,2.2390711,3.1276622,-2.232931,2.6994402,-0.43400055
1.91,8.742342,2.2465684,3.092244,-2.2120874,2.806279,-0.40930912
1.912,8.801646,2.254871,3.0551324,-2.190746,2.9131005,-0.38558403
1.914,8.863836,2.2638927,3.0164158,-2.1689394,3.0197783,-0.36287257
1.916,8.928772,2.273734,2.9761255,-2.14672,3.1261866,-0.3412193
1.918,8.996106,2.2843707,2.9341836,-2.124127,3.2322168,-0.32067
1.92,9.065519,2.2956932,2.890691,-2.1011913,3.3377771,-0.30126247
1.922,9.136729,2.3077145,2.8456304,-2.0779352,3.442754,-0.28304827
1.924,9.2097,2.320302,2.7990794,-2.054375,3.5470467,-0.26608008
1.926,9.284014,2.3334231,2.750919,-2.0305414,3.6505568,-0.2504177
1.928,9.359444,2.346902,2.7012699,-2.006437,3.7531846,-0.23612016
1.93,9.435631,2.360622,2.6500664,-1.9820553,3.8548236,-0.22325015
1.932,9.5120735,2.3744428,2.5973275,-1.9573922,3.9553578,-0.21187127
1.934,9.588562,2.3883417,2.5430312,-1.9324464,4.0546765,-0.20203304
1.936,9.664979,2.4021509,2.4871147,-1.9072065,4.1526375,-0.1937741
1.938,9.741033,2.4157467,2.429597,-1.8816855,4.249088,-0.18711102
1.94,9.816346,2.4290488,2.370422,-1.8558906,4.3438406,-0.18203974
1.942,9.890728,2.4420629,2.3095813,-1.8298475,4.4367085,-0.17854524
1.944,9.963963,2.4545617,2.2470818,-1.803597,4.5274887,-0.17659056
1.946,10.035876,2.4664958,2.182833,-1.7771959,4.615948,-0.17612553
1.948,10.106161,2.47775,2.1168225,-1.7507204,4.701861,-0.17707372
1.95,10.174772,2.4881768,2.0490584,-1.7242658,4.7849994,-0.17936611
1.952,10.241528,2.4976873,1.9795201,-1.6979171,4.8651295,-0.1829282
1.954,10.306213,2.5062706,1.9082639,-1.6717949,4.942029,-0.18767488
1.956,10.368739,2.513743,1.835278,-1.6460192,5.0154924,-0.19356048
1.958,10.428995,2.519974,1.7606003,-1.620711,5.0853295,-0.20054758
1.96,10.4869,2.5248225,1.6844311,-1.5959669,5.1513653,-0.20861614
1.962,10.542349,2.5282722,1.6067367,-1.5718992,5.2134714,-0.21779132
1.964,10.595428,2.5301962,1.5277026,-1.5485989,5.271554,-0.22809684
1.966,10.645959,2.5304356,1.4473264,-1.5261563,5.325523,-0.239573
1.968,10.693873,2.5288403,1.3659096,-1.5046602,5.3753414,-0.25228643
1.97,10.739115,2.5252666,1.2835824,-1.4841726,5.4210043,-0.266299
1.972,10.781703,2.5196385,1.200484,-1.4647295,5.462531,-0.28166175
1.974,10.8216305,2.511726,1.1168041,-1.446347,5.4999676,-0.29841793
1.976,10.858775,2.5013058,1.0326815,-1.4290452,5.5333896,-0.3165542
1.978,10.89318,2.4883137,0.9482951,-1.412796,5.562891,-0.33601594
1.98,10.924648,2.4724703,0.8638842,-1.3975458,5.5885835,-0.3567152
1.982,10.953328,2.4536781,0.7795584,-1.3832345,5.610595,-0.37851417
1.984,10.978988,2.43186,0.69554996,-1.3697592,5.6290884,-0.4012363
1.986,11.001683,2.4067314,0.6117983,-1.3569841,5.6442137,-0.42469049
1.988,11.021414,2.3782015,0.5286219,-1.344733,5.6561284,-0.44868076
1.99,11.038106,2.346162,0.44612193,-1.3328222,5.665013,-0.47302508
1.992,11.051615,2.3105621,0.36449814,-1.3210412,5.671026,-0.4975896
1.994,11.061895,2.2713242,0.28382832,-1.3091973,5.6743197,-0.52226794
1.996,11.069066,2.2285357,0.2041539,-1.2971027,5.6750383,-0.5469687
1.998,11.073061,2.1820793,0.12564081,-1.2846106,5.673281,-0.57163
2,11.073831,2.132082,0.04839152,-1.2716076,5.6691422,-0.59617853
2.002,11.071414,2.0786366,-0.027479857,-1.2580208,5.6626787,-0.6205429
2.004,11.065571,2.0219908,-0.10190754,-1.2438201,5.653927,-0.64463425
2.006,11.056532,1.9621795,-0.17472844,-1.2290164,5.642916,-0.66831946
2.008,11.044015,1.8993872,-0.24577221,-1.2136385,5.6296563,-0.6914549
2.01,11.028128,1.8338784,-0.31496587,-1.1977258,5.6141458,-0.71385705
2.012,11.008844,1.7657815,-0.38220707,-1.1813262,5.596388,-0.7353487
2.014,10.986076,1.6954936,-0.44731417,-1.1644999,5.576393,-0.7557732
2.016,10.959829,1.6231816,-0.51002336,-1.1472774,5.554183,-0.7749872
2.018,10.929984,1.5491066,-0.5702829,-1.1296749,5.5297894,-0.7928908
2.02,10.896539,1.4735851,-0.6278474,-1.1117023,5.5032787,-0.809412
2.022,10.859453,1.3968877,-0.6825919,-1.0933446,5.4747157,-0.82451856
2.024,10.818684,1.3192079,-0.73433936,-1.0745981,5.444205,-0.8382033
2.026,10.774183,1.2407842,-0.7828599,-1.0554445,5.4118505,-0.85047424
2.028,10.725997,1.161844,-0.82799983,-1.0358577,5.3777637,-0.8613503
2.03,10.674097,1.0825677,-0.8696346,-1.0157999,5.3420696,-0.87083435
2.032,10.618355,1.0031232,-0.90754485,-0.9952641,5.3048935,-0.8789289
2.034,10.558801,0.9237377,-0.9416616,-0.9742276,5.2663436,-0.8856132
2.036,10.495581,0.8445245,-0.97178674,-0.9526776,5.226534,-0.8908489
2.038,10.428733,0.76561654,-0.9978509,-0.93062305,5.1855464,-0.8945687
2.04,10.358188,0.68720645,-1.0197878,-0.90806293,5.1434674,-0.8966905
2.042,10.284331,0.60930854,-1.0375179,-0.88502306,5.1003876,-0.8971228
2.044,10.207018,0.5320575,-1.0510094,-0.86153185,5.056355,-0.89577
2.046,10.126384,0.45546567,-1.0601802,-0.83762145,5.0114326,-0.8925201
2.048,10.042641,0.3795551,-1.0650101,-0.8133354,4.965645,-0.8872877
2.05,9.955874,0.30443478,-1.0655644,-0.7887138,4.919018,-0.8800226
2.052,9.866344,0.23003411,-1.0619743,-0.76380306,4.871587,-0.87070125
2.054,9.774159,0.15654314,-1.0541406,-0.7386478,4.823364,-0.85931027
2.056,9.679599,0.0838958,-1.0421162,-0.71330845,4.7743545,-0.8458502
2.058,9.582717,0.012218118,-1.0259583,-0.68783987,4.724556,-0.8303324
2.06,9.483813,-0.05842805,-1.0058327,-0.6622838,4.673976,-0.8127742
2.062,9.383115,-0.12808073,-0.98173046,-0.63667786,4.622621,-0.79318684
2.064,9.280977,-0.19666183,-0.95389175,-0.6110575,4.5705028,-0.7715849
2.066,9.177614,-0.2641734,-0.9224117,-0.58546793,4.5176396,-0.7479635
2.068,9.073229,-0.33043885,-0.88748574,-0.5599257,4.4640565,-0.7223054
2.07,8.968092,-0.39544535,-0.849463,-0.534454,4.409791,-0.69461346
2.072,8.862551,-0.4592024,-0.8085282,-0.5090918,4.354885,-0.66488755
2.074,8.756805,-0.5215981,-0.76489806,-0.4838574,4.2994013,-0.6331183
2.076,8.651269,-0.58261716,-0.7188773,-0.45879626,4.2433953,-0.5993026
2.078,8.546211,-0.6422192,-0.67089343,-0.43393597,4.1869116,-0.56345457
2.08,8.441989,-0.7003169,-0.62130046,-0.40933332,4.129999,-0.5255937
2.082,8.338811,-0.75684345,-0.570395,-0.3850364,4.07268,-0.4857391
2.084,8.236966,-0.8118193,-0.51856875,-0.36109263,4.0149684,-0.44393802
2.086,8.136705,-0.8651016,-0.46632743,-0.33755907,3.9568658,-0.4002428
2.088,8.038172,-0.91670644,-0.41415167,-0.31448352,3.8983479,-0.3547356
2.09,7.94175,-0.966452,-0.36230493,-0.2919276,3.8393629,-0.30752182
2.092,7.847677,-1.0144051,-0.31136847,-0.26995492,3.7798526,-0.25874257
2.094,7.756035,-1.0605094,-0.26160836,-0.24862579,3.7197442,-0.20854151
2.096,7.666875,-1.1047182,-0.21338105,-0.22800142,3.6589456,-0.1570856
2.098,7.580503,-1.146997,-0.16719031,-0.20813859,3.597363,-0.104552746
2.1,7.4970217,-1.1872941,-0.123291016,-0.18909895,3.5349114,-0.05112773
2.102,7.416711,-1.2256504,-0.08207488,-0.17094654,3.4715152,0.0030288696
2.104,7.3395195,-1.2619475,-0.043785334,-0.1537526,3.4071045,0.057761133
2.106,7.2654443,-1.2962289,-0.008611679,-0.13757327,3.3416173,0.11292648
2.108,7.194608,-1.3284316,0.023200512,-0.122475505,3.2750497,0.1683861
2.11,7.127015,-1.3585767,0.051462412,-0.10849601,3.207412,0.22400874
2.112,7.0626373,-1.3866795,0.07620025,-0.09569979,3.1387239,0.2796793
2.114,7.0015335,-1.4127691,0.0972507,-0.08415246,3.069034,0.33528453
2.116,6.9436083,-1.4368263,0.114647865,-0.07390398,2.9983811,0.39071262
2.118,6.8888073,-1.4588113,0.12847495,-0.06500411,2.9267974,0.44584614
2.12,6.836967,-1.4787866,0.13880467,-0.05748439,2.85431,0.50056684
2.122,6.787947,-1.4967248,0.1458168,-0.05138427,2.7809336,0.55475175
2.124,6.7417383,-1.512735,0.14976692,-0.046728373,2.7066374,0.60829747
2.126,6.6981077,-1.5268397,0.1507976,-0.043522894,2.6313882,0.66108555
2.128,6.656974,-1.5390563,0.14926767,-0.041778505,2.5551326,0.7130014
2.13,6.618137,-1.5494539,0.14537668,-0.04148811,2.477808,0.7639466
2.132,6.581332,-1.5581336,0.139539,-0.042637646,2.3993652,0.8138562
2.134,6.546461,-1.5650568,0.13191557,-0.045201957,2.319768,0.8626534
2.136,6.5134306,-1.5704492,0.12286878,-0.049155295,2.2390273,0.91028965
2.138,6.4818993,-1.5742168,0.112677574,-0.05445993,2.1571777,0.95673573
2.14,6.4515896,-1.5763379,0.10158992,-0.061052024,2.074314,1.0019925
2.142,6.4226437,-1.5769364,0.08983493,-0.06886327,1.9905847,1.0460594
2.144,6.394805,-1.57612,0.077575445,-0.07780868,1.906184,1.0889478
2.146,6.367957,-1.5738428,0.065075636,-0.08778781,1.821325,1.1306876
2.148,6.3419447,-1.5701822,0.052380085,-0.09871632,1.7362471,1.1713003
2.15,6.316825,-1.5651358,0.03960967,-0.11048108,1.6512043,1.2108191
2.152,6.292346,-1.5587438,0.02692914,-0.12298125,1.5664303,1.2492759
2.154,6.268553,-1.5509701,0.014271021,-0.13611054,1.4821391,1.2866797
2.156,6.2454166,-1.5417219,0.0017156601,-0.14977473,1.3985097,1.3230357
2.158,6.2228594,-1.5310698,-0.010785103,-0.16388118,1.3156639,1.3583435
2.16,6.20092,-1.5190512,-0.023089886,-0.1783619,1.2337055,1.392597
2.162,6.179403,-1.5055676,-0.03521514,-0.19316286,1.1526706,1.4257557
2.164,6.158504,-1.4907753,-0.047228575,-0.20825094,1.0725644,1.457773
2.166,6.138167,-1.474597,-0.05913329,-0.22359008,0.99336433,1.488582
2.168,6.1183877,-1.4571427,-0.070899725,-0.23914993,0.915028,1.5181104
2.17,6.0990887,-1.4384673,-0.08238816,-0.2549165,0.8375151,1.5462897
2.172,6.080174,-1.4184226,-0.09358311,-0.27088696,0.76077354,1.5730455
2.174,6.0616803,-1.397244,-0.104385376,-0.28703272,0.6847626,1.5983127
2.176,6.043455,-1.3748536,-0.1147728,-0.30332947,0.60945356,1.6220473
2.178,6.025538,-1.351467,-0.124573946,-0.3197322,0.53484786,1.6442276
2.18,6.0078053,-1.3270091,-0.13363242,-0.3361897,0.46096188,1.6648623
2.182,5.9902287,-1.3015208,-0.14189863,-0.35264426,0.38781372,1.6839824
2.184,5.9726734,-1.2750683,-0.14922285,-0.369035,0.3154412,1.7016478
2.186,5.9550214,-1.2476581,-0.15547872,-0.38530982,0.24387021,1.717934
2.188,5.9372683,-1.2193397,-0.16050458,-0.4014116,0.17313176,1.7329601
2.19,5.9193687,-1.1901551,-0.16422462,-0.4173052,0.10322335,1.7468392
2.192,5.901219,-1.1600422,-0.16662335,-0.432975,0.03414941,1.7597219
2.194,5.8828516,-1.129017,-0.16749692,-0.44842666,-0.034119695,1.771758
2.196,5.8641768,-1.0970973,-0.16684818,-0.4636841,-0.101619154,1.783098
2.198,5.8451686,-1.064262,-0.16456008,-0.47877765,-0.16839701,1.7938884
2.2,5.825713,-1.0304343,-0.1607101,-0.49377006,-0.23450032,1.8042519
2.202,5.8058624,-0.99551225,-0.15523028,-0.5087059,-0.2999827,1.8143078
2.204,5.7855105,-0.95939523,-0.14817905,-0.5236429,-0.36488584,1.8241475
2.206,5.7648373,-0.9221269,-0.13944674,-0.53862524,-0.4292277,1.8338299
2.208,5.743511,-0.88358617,-0.12902832,-0.55368114,-0.4930356,1.8434011
2.21,5.721698,-0.8437058,-0.11693406,-0.56882393,-0.5563159,1.8528697
2.212,5.699271,-0.8023364,-0.10309768,-0.5840415,-0.6190521,1.8622402
2.214,5.6763453,-0.7594868,-0.087645054,-0.59929967,-0.6812255,1.8714862
2.216,5.6529284,-0.71510494,-0.07046533,-0.6145451,-0.7428111,1.8806107
2.218,5.628979,-0.6690941,-0.05162692,-0.6297011,-0.8037627,1.8896055
2.22,5.604617,-0.62139654,-0.031067133,-0.644693,-0.8640295,1.8984749
2.222,5.579829,-0.57193726,-0.009027004,-0.6594462,-0.9235681,1.9072355
2.224,5.554673,-0.52075726,0.014633656,-0.673883,-0.9823345,1.9158993
2.226,5.529196,-0.46773618,0.03980899,-0.6879323,-1.0402766,1.9244872
2.228,5.5034714,-0.41285992,0.06637788,-0.70153475,-1.0973427,1.9330205
2.23,5.4775305,-0.35605615,0.094430685,-0.7146393,-1.1534647,1.9415082
2.232,5.4514694,-0.29732955,0.123769045,-0.7272013,-1.2085731,1.9499443
2.234,5.4252734,-0.23656446,0.15442824,-0.7391683,-1.2625742,1.9583173
2.236,5.3990507,-0.17377156,0.18631196,-0.75049466,-1.3153656,1.966635
2.238,5.3728843,-0.10887921,0.21940637,-0.7611318,-1.3668437,1.9749027
2.24,5.346761,-0.041827857,0.25362945,-0.7710255,-1.4169075,1.983139
2.242,5.320871,0.027405381,0.28889167,-0.7801353,-1.4654593,1.9913684
2.244,5.2952423,0.09870428,0.32539082,-0.7884128,-1.5124409,1.9996393
2.246,5.2699814,0.1721726,0.36301768,-0.79581934,-1.5578017,2.007996
2.248,5.2451615,0.24769777,0.40192223,-0.80233586,-1.6015286,2.0164902
2.25,5.2209005,0.3252073,0.4422202,-0.8079596,-1.6436505,2.025194
2.252,5.196908,0.40479654,0.4840151,-0.8127056,-1.6842246,2.0341458
2.254,5.1731606,0.48658484,0.5275738,-0.81658936,-1.7233223,2.0433817
2.256,5.1493626,0.57068163,0.5731603,-0.8196589,-1.7610463,2.0529232
2.258,5.125485,0.6571495,0.62110174,-0.82196903,-1.7975013,2.0627744
2.26,5.101453,0.7459392,0.671517,-0.82357305,-1.8327886,2.0729485
2.262,5.077236,0.83693844,0.7243824,-0.8245451,-1.8670045,2.0834248
2.264,5.052905,0.9298085,0.7799722,-0.8249557,-1.9002373,2.0941978
2.266,5.028192,1.0243983,0.83835804,-0.8248724,-1.9325671,2.1052547
2.268,5.002725,1.1206353,0.8997389,-0.8243473,-1.9640307,2.116602
2.27,4.976312,1.2183579,0.96420383,-0.82342887,-1.994653,2.1282434
2.272,4.948664,1.3174803,1.0318197,-0.8221474,-2.024431,2.1401982
2.274,4.9193277,1.4178803,1.1025729,-0.82050747,-2.0533066,2.1524901
2.276,4.8880677,1.5194963,1.1765292,-0.818471,-2.0811694,2.1651535
2.278,4.8546624,1.6222056,1.2536361,-0.8159708,-2.1078584,2.1782432
2.28,4.8190026,1.7258911,1.3336766,-0.81290627,-2.1331773,2.1918268
2.282,4.7805834,1.8303376,1.4164982,-0.8091483,-2.156888,2.2059996
2.284,4.7391825,1.9355808,1.5017527,-0.8044939,-2.1786876,2.220889
2.286,4.6947155,2.0413697,1.5889983,-0.7986859,-2.1981645,2.2366228
2.288,4.646864,2.1475608,1.677608,-0.79143924,-2.2148504,2.2533216
2.29,4.5955734,2.2539449,1.7670126,-0.7824291,-2.2282326,2.2711124
2.292,4.540688,2.3603225,1.8565079,-0.7713007,-2.2377937,2.290142
2.294,4.4821644,2.4664454,1.94514,-0.757679,-2.2430496,2.310575
2.296,4.41991,2.5721035,2.0321705,-0.74114096,-2.2435215,2.3325949
2.298,4.3539724,2.677178,2.1166544,-0.7212305,-2.2386966,2.3563867
2.3,4.2844033,2.7814443,2.197659,-0.6974722,-2.228046,2.382087
2.302,4.2114706,2.8846133,2.2742796,-0.66940695,-2.2110233,2.4097948
2.304,4.135473,2.9865184,2.3453593,-0.63660467,-2.1871026,2.439523
2.306,4.056849,3.0870264,2.410254,-0.59869665,-2.1557791,2.4712298
2.308,3.9758844,3.1860108,2.4680343,-0.55541503,-2.116602,2.5048165
2.31,3.8930175,3.2832937,2.5180235,-0.5066073,-2.069232,2.5401816
2.312,3.808728,3.378705,2.559578,-0.4522464,-2.0135095,2.5772724
2.314,3.723775,3.4721887,2.5922039,-0.39245018,-1.9494845,2.6161537
2.316,3.6385672,3.5638044,2.615402,-0.32743293,-1.8774278,2.6570172
2.318,3.5538611,3.653458,2.629065,-0.25752836,-1.7978636,2.7001824
2.32,3.4700668,3.74114,2.6328979,-0.18318108,-1.7115569,2.7460847
2.322,3.3873038,3.8269515,2.626699,-0.10490155,-1.6194947,2.795191
2.324,3.3056505,3.911107,2.61054,-0.023271024,-1.5227731,2.847918
2.326,3.224719,3.9941478,2.5844321,0.061036587,-1.4225566,2.9045334
2.328,3.1439657,4.0765085,2.5488331,0.14730453,-1.3200579,2.9650564
2.33,3.0612087,4.159411,2.503034,0.23473883,-1.21645,3.0292199
2.332,2.9757645,4.2437997,2.4452524,0.32251364,-1.1128435,3.0964594
2.334,2.8743405,4.342738,2.3514328,0.40979403,-1.0102808,3.1659508
2.336,2.7489257,4.472355,2.1994028,0.4957633,-0.9097524,3.2366753
2.338,2.6033988,4.6408315,2.004819,0.57963175,-0.8121916,3.3075223
2.34,2.42718,4.847665,1.8262665,0.6606927,-0.7185055,3.3774016
2.342,2.216795,5.0862617,1.6709433,0.7383595,-0.62952304,3.4453325
2.344,1.9672234,5.3485312,1.5291275,0.8121643,-0.54599977,3.5104804
2.346,1.674582,5.63092,1.3889542,0.881746,-0.46858227,3.5722141
2.348,1.3348488,5.9359226,1.2441704,0.94684255,-0.39780056,3.6300802
2.35,0.9371049,6.2810507,1.095125,1.0072529,-0.33414447,3.6838126
2.352,0.47341907,6.6821175,0.940181,1.0627861,-0.278118,3.733329
2.354,-0.061515212,7.1456423,0.779536,1.1132343,-0.2301923,3.778818
2.356,-0.67423385,7.6732116,0.6164386,1.1583927,-0.19078183,3.8206935
2.358,-1.3701409,8.26532,0.4556563,1.1979064,-0.16045713,3.859511
2.36,-2.154392,8.922606,0.3045454,1.2311492,-0.1403327,3.8959723
2.362,-3.032197,9.645968,0.17172766,1.2572794,-0.13222992,3.9309852
2.364,-4.0065227,10.43486,0.068870544,1.2754977,-0.1369977,3.96632
2.366,-5.0783157,11.287197,0.008757114,1.2842205,-0.15686536,4.004497
2.368,-6.244746,12.197375,0.0039343834,1.2802396,-0.2000097,4.045443
2.37,-7.49985,13.157059,0.06521702,1.2587922,-0.27723527,4.082968
2.372,-8.8340225,14.154554,0.20182419,1.2163692,-0.39438236,4.1094413
2.374,-10.234282,15.174618,0.42210293,1.1506639,-0.55457544,4.118293
2.376,-11.6839905,16.19894,0.732275,1.0589173,-0.76484394,4.103554
2.378,-13.163112,17.207233,1.1360884,0.9377996,-1.0337857,4.0601263
2.38,-14.649301,18.178308,1.6349592,0.784216,-1.3662556,3.9797058
2.382,-16.117632,19.09021,2.2271757,0.5967871,-1.7634149,3.848805
2.384,-17.541904,19.92097,2.9077063,0.3767909,-2.221841,3.652612
2.386,-18.895464,20.649315,3.6680717,0.12862286,-2.7313585,3.3796868
2.388,-20.15176,21.2557,4.4967117,-0.14045864,-3.2743511,3.0248713
2.39,-21.285664,21.722767,5.3790464,-0.4205905,-3.8264174,2.5914881
2.392,-22.273891,22.036613,6.297846,-0.69967645,-4.357945,2.0926046
2.394,-23.09696,22.186874,7.234165,-0.964597,-4.8369737,1.5502653
2.396,-23.739052,22.167147,8.168131,-1.2027522,-5.232984,0.9928242
2.398,-24.188742,21.975105,9.079567,-1.4036816,-5.520842,0.4512509
2.4,-24.43968,21.612757,9.948686,-1.560475,-5.684502,-0.045589924
2.402,-24.490753,21.086365,10.757186,-1.6705849,-5.719641,-0.47542965
2.404,-24.34602,20.406353,11.4890585,-1.7358056,-5.6342616,-0.8256844
2.406,-24.01484,19.586796,12.1309395,-1.7615153,-5.4472384,-1.0944105
2.408,-23.51107,18.644905,12.672898,-1.7554457,-5.1853714,-1.2893856
2.41,-22.852745,17.600565,13.1085415,-1.7262342,-4.879223,-1.4255191
2.412,-22.06056,16.475273,13.434912,-1.6818275,-4.558588,-1.5210932
2.414,-21.157738,15.2915745,13.652563,-1.6284189,-4.248654,-1.5939317
2.416,-20.168682,14.071863,13.764965,-1.5700935,-3.9674726,-1.65841
2.418,-19.11803,12.838373,13.778593,-1.5090045,-3.7260046,-1.7240014
2.42,-18.029676,11.612297,13.702193,-1.4452364,-3.5259986,-1.7943349
2.422,-16.926373,10.413202,13.545828,-1.3774664,-3.3597941,-1.8658366
2.424,-15.828417,9.258282,13.320572,-1.304439,-3.2178435,-1.9293382
2.426,-14.753899,8.162529,13.03798,-1.2274383,-3.0949297,-1.9777441
2.428,-13.717628,7.138407,12.709236,-1.1488636,-2.9855394,-2.0073566
2.43,-12.731311,6.1957045,12.3452015,-1.0703263,-2.8800004,-2.0158076
2.432,-11.803091,5.341469,11.955824,-0.992955,-2.7703662,-2.0013492
2.434,-10.938191,4.5800967,11.549759,-0.91800314,-2.654285,-1.9597087
2.436,-10.138912,3.9133687,11.134287,-0.8472113,-2.5318408,-1.8850644
2.438,-9.405042,3.3409643,10.715115,-0.7822293,-2.4043999,-1.7748666
2.44,-8.733571,2.8600307,10.297732,-0.7239356,-2.2747822,-1.6316701
2.442,-8.121806,2.4665217,9.886952,-0.6718995,-2.1461964,-1.4618399
2.444,-7.55621,2.1458259,9.502615,-0.6246798,-2.0214515,-1.2741172
2.446,-7.031631,1.8849189,9.152416,-0.5804667,-1.902765,-1.0784409
2.448,-6.5531034,1.6807258,8.808216,-0.53709024,-1.791461,-0.8845889
2.45,-6.1104817,1.5363559,8.420019,-0.49206215,-1.6878057,-0.7012195
2.452,-5.702162,1.4555008,8.003384,-0.4427957,-1.591181,-0.53549385
2.454,-5.324928,1.4371628,7.5844026,-0.38681796,-1.5001451,-0.392487
2.456,-4.976404,1.4722099,7.1821823,-0.32200417,-1.4124517,-0.27492043
2.458,-4.653927,1.5453858,6.8037295,-0.24683191,-1.3254125,-0.1833818
2.46,-4.3493223,1.6316664,6.4476333,-0.16054797,-1.2363652,-0.116714865
2.462,-4.059136,1.7150946,6.11421,-0.063211665,-1.1429276,-0.072276026
2.464,-3.782909,1.7923307,5.8016305,0.044296503,-1.0432551,-0.046193063
2.466,-3.5181854,1.8636858,5.5060434,0.1603164,-0.9362036,-0.033897728
2.468,-3.2631056,1.928583,5.2237015,0.2825786,-0.8213394,-0.030773968
2.47,-3.015398,1.9847997,4.9504046,0.40843236,-0.69894516,-0.032550037
2.472,-2.7720015,2.028925,4.683088,0.5350741,-0.5699389,-0.035597578
2.474,-2.5313878,2.0583782,4.418011,0.65977603,-0.43579772,-0.037081987
2.476,-2.2919796,2.0714035,4.1530514,0.7800537,-0.2983934,-0.03495471
2.478,-2.0541995,2.0686245,3.8879993,0.8937603,-0.15982807,-0.027784858
2.48,-1.8184603,2.0513246,3.6251724,0.9991998,-0.022365445,-0.0147375455
2.482,-1.5851848,2.0217905,3.3675754,1.0952127,0.11167719,0.0044249296
2.484,-1.3548524,1.9829965,3.1174386,1.1811324,0.24004778,0.029412538
2.486,-1.1278194,1.9380062,2.8771138,1.2567592,0.36069298,0.059516624
2.488,-0.9043263,1.8890231,2.6489246,1.3222317,0.4718035,0.093701825
2.49,-0.68440175,1.837322,2.4344714,1.377944,0.5718806,0.13066992
2.492,-0.46842533,1.7840123,2.2354136,1.4244773,0.6597448,0.16899869
2.494,-0.256361,1.7297785,2.0530243,1.4624919,0.7345968,0.20715395
2.496,-0.048104543,1.6752634,1.8884369,1.4926573,0.79601717,0.24360219
2.498,0.15653592,1.6205937,1.7424778,1.5156518,0.8440794,0.27687407
2.5,0.3575069,1.566031,1.6158203,1.5321997,0.8793124,0.30558723
2.502,0.55486596,1.5112777,1.5089449,1.5429435,0.90252984,0.32855123
2.504,0.74906135,1.4561715,1.4220514,1.5483917,0.91475,0.3449276
2.506,0.94011223,1.400627,1.3548498,1.5490437,0.91725105,0.35424024
2.508,1.1278567,1.3447565,1.3070378,1.5454556,0.9115375,0.35630488
2.51,1.3122029,1.2884977,1.2781173,1.5381912,0.8991711,0.35123065
2.512,1.4929897,1.2319055,1.2674139,1.5278251,0.88167596,0.33942744
2.514,1.6701488,1.1745965,1.2739836,1.5149089,0.8604703,0.3215345
2.516,1.8435528,1.1163659,1.2967292,1.5000149,0.836809,0.29835838
2.518,2.0128703,1.0569623,1.334456,1.4837159,0.81171453,0.27077273
2.52,2.1779463,0.9958487,1.3858703,1.4665446,0.7859844,0.23964062
2.522,2.338263,0.9328186,1.4497423,1.4489955,0.76017404,0.20577687
2.524,2.4932244,0.867844,1.5248309,1.431524,0.7346397,0.16989201
2.526,2.6423306,0.8011185,1.6098416,1.4145051,0.70951676,0.13256896
2.528,2.7852035,0.73255324,1.703496,1.3982286,0.68483967,0.09424627
2.53,2.9208314,0.66238976,1.8042501,1.3829092,0.660546,0.055205137
2.532,3.0487988,0.5909375,1.9109721,1.3686883,0.6365291,0.015596926
2.534,3.1683526,0.51875746,2.0225449,1.3556473,0.6126899,-0.024536476
2.536,3.2791243,0.44636488,2.137831,1.3437989,0.5889791,-0.06522928
2.538,3.3806088,0.3741222,2.2558682,1.3331442,0.56539273,-0.10655245
2.54,3.472468,0.30248594,2.375675,1.3236613,0.54198617,-0.14855483
2.542,3.5543387,0.23190975,2.4963813,1.315321,0.51887274,-0.1912434
2.544,3.625835,0.16276503,2.6172462,1.3080802,0.49619138,-0.23455636
2.546,3.6867883,0.09545374,2.7376103,1.3019,0.47410807,-0.27838653
2.548,3.7370627,0.030197263,2.8570206,1.2967274,0.45277455,-0.3225356
2.55,3.7768054,-0.032639027,2.9749026,1.2925092,0.43233225,-0.3667645
2.552,3.8061059,-0.09294379,3.0909557,1.289163,0.412875,-0.41082218
2.554,3.8251994,-0.15048528,3.2048101,1.2865835,0.39447337,-0.45446026
2.556,3.8342404,-0.20508242,3.3161576,1.2846367,0.37717515,-0.49745983
2.558,3.8336837,-0.25667846,3.4248219,1.2831593,0.36099923,-0.5396395
2.56,3.8237605,-0.3050903,3.53057,1.2819531,0.34593272,-0.58087724
2.562,3.8049154,-0.3504759,3.6333818,1.2807972,0.33194765,-0.6211019
2.564,3.7778935,-0.39268804,3.7333279,1.2794851,0.3190537,-0.6603025
2.566,3.743239,-0.43182302,3.8304458,1.2778168,0.30725813,-0.6984929
2.568,3.701647,-0.46819186,3.924747,1.2756379,0.29662105,-0.7356963
2.57,3.6538792,-0.5018809,4.016415,1.2728335,0.28724933,-0.7719127
2.572,3.600521,-0.5331255,4.105476,1.2693381,0.2793251,-0.8071184
2.574,3.5424414,-0.5622413,4.19213,1.2651733,0.2730864,-0.8412497
2.576,3.480362,-0.58944595,4.276515,1.2604071,0.2688149,-0.87420285
2.578,3.4150467,-0.6149758,4.3587275,1.2551719,0.26682368,-0.9058408
2.58,3.3472307,-0.6391494,4.4387765,1.2496527,0.2674755,-0.9360142
2.582,3.277578,-0.66220176,4.5166154,1.2440728,0.27109557,-0.9645829
2.584,3.2068198,-0.68438077,4.5921497,1.2386658,0.27798188,-0.99138933
2.586,3.135548,-0.7058413,4.665058,1.2336843,0.28839636,-1.0163087
2.588,3.0642457,-0.7267598,4.7351413,1.2293911,0.3025358,-1.039232
2.59,2.9935896,-0.74729,4.8019342,1.2260592,0.32054988,-1.0600753
2.592,2.9238248,-0.7674047,4.864998,1.2239145,0.34251407,-1.0787861
2.594,2.8554516,-0.7871214,4.923989,1.2231458,0.3684437,-1.0953392
2.596,2.7887747,-0.8065003,4.978459,1.2239187,0.39827794,-1.1097088
2.598,2.7239368,-0.82533836,5.027899,1.2263353,0.4319134,-1.1219084
2.6,2.6610732,-0.84343374,5.071862,1.2304183,0.46917728,-1.131973
2.602,2.600396,-0.86071396,5.1098633,1.2361343,0.50984156,-1.13995
2.604,2.5420306,-0.876847,5.1415434,1.243353,0.55359036,-1.1459048
2.606,2.4860194,-0.8916912,5.1665792,1.2518659,0.60005975,-1.1499331
2.608,2.4320786,-0.9047923,5.1846724,1.2614104,0.6488167,-1.1521244
2.61,2.3803647,-0.91603565,5.1956654,1.2716624,0.6993599,-1.1525805
2.612,2.3306918,-0.9250972,5.1993694,1.2822682,0.75115407,-1.1513958
2.614,2.2828586,-0.93170595,5.195861,1.2928686,0.8036401,-1.1486487
2.616,2.236803,-0.93563175,5.1852684,1.3030938,0.85626435,-1.1444068
2.618,2.1923978,-0.9366765,5.1677227,1.3125994,0.90847516,-1.1386983
2.62,2.1494122,-0.9346297,5.1435404,1.3210953,0.95979595,-1.1315448
2.622,2.1076934,-0.9294486,5.1130404,1.3283331,1.009819,-1.1229516
2.624,2.067128,-0.9209405,5.0767045,1.334119,1.0582151,-1.1129296
2.626,2.0275397,-0.9091698,5.0350704,1.3383192,1.1047372,-1.1015036
2.628,1.9889705,-0.89421284,4.9886475,1.3408432,1.1492271,-1.0887281
2.63,1.9510856,-0.87596524,4.9380465,1.3416682,1.1916463,-1.0746601
2.632,1.9137782,-0.85459435,4.883765,1.3408101,1.2320362,-1.0593765
2.634,1.8770069,-0.83040714,4.82643,1.3383212,1.2704902,-1.0429659
2.636,1.8406816,-0.8035327,4.766647,1.3342991,1.3071827,-1.0254965
2.638,1.8054045,-0.7749914,4.7063355,1.3288538,1.3423615,-1.0070422
2.64,1.7707282,-0.7445072,4.6450233,1.3221158,1.3762971,-0.9876456
2.642,1.7365038,-0.7124407,4.5832653,1.3142327,1.4092906,-0.9673249
2.644,1.7028227,-0.6791322,4.5215435,1.3053459,1.4416553,-0.94603896
2.646,1.6696881,-0.6449909,4.4603224,1.2956108,1.4737209,-0.92372054
2.648,1.6371663,-0.6102978,4.3999996,1.2851835,1.505785,-0.90030396
2.65,1.6052362,-0.5754268,4.340966,1.2741928,1.5381361,-0.8757148
2.652,1.5739857,-0.54069364,4.2835093,1.262758,1.5709897,-0.84985054
2.654,1.54355,-0.50634205,4.2278385,1.2509847,1.6045121,-0.822631
2.656,1.5140014,-0.47271228,4.1741548,1.2389585,1.6387988,-0.79401255
2.658,1.4853364,-0.4399333,4.1225796,1.226772,1.6738827,-0.7639737
2.66,1.4575993,-0.40832365,4.0732756,1.2144895,1.709687,-0.7325308
2.662,1.4309552,-0.377957,4.0262413,1.2021383,1.7460562,-0.6997393
2.664,1.4053708,-0.34904218,3.9815469,1.1897352,1.7827758,-0.66567826
2.666,1.3809147,-0.32168043,3.9392352,1.1777588,1.818492,-0.6319158
2.668,1.357581,-0.29586935,3.8992867,1.1659664,1.8535002,-0.5979292
2.67,1.3355076,-0.27167118,3.8617477,1.1544319,1.8873651,-0.5641154
2.672,1.314648,-0.24894023,3.8264685,1.1432307,1.9196682,-0.5309069
2.674,1.2949764,-0.2278136,3.7933512,1.13243,1.9500381,-0.4987172
2.676,1.2763978,-0.20825088,3.762301,1.122112,1.9781784,-0.46792495
2.678,1.2589898,-0.19006765,3.7333422,1.1123521,2.0039098,-0.43884456
2.68,1.2426628,-0.17329061,3.7063122,1.1032119,2.027154,-0.41169912
2.682,1.2273257,-0.15778577,3.681168,1.0947386,2.04793,-0.38661665
2.684,1.2130702,-0.1435355,3.6577086,1.0869554,2.0663307,-0.36365396
2.686,1.1997595,-0.13050127,3.6358619,1.0798553,2.0825007,-0.34278023
2.688,1.1872907,-0.118531704,3.615549,1.0734228,2.0966601,-0.3238991
