Time_s_,Acc_x_m_s_2_,Acc_y_m_s_2_,Acc_z_m_s_2_,Gyro_x_1_s_,Gyro_y_1_s_,Gyro_z_1_s_
0,0.6463131,-0.35732087,-1.097198,0.60728633,0.6946855,0.87603676
0.002,0.6287645,-0.36702412,-1.0549039,0.59719366,0.6817847,0.8721961
0.004,0.6100743,-0.3768837,-1.010248,0.58609194,0.66745436,0.8679806
0.006,0.59002966,-0.3867235,-0.9634089,0.5739369,0.6516404,0.8633857
0.008,0.56858164,-0.39650327,-0.91424614,0.5607171,0.63433474,0.85844934
0.01,0.5456878,-0.40625924,-0.8631285,0.54646933,0.6156352,0.8532035
0.012,0.5213826,-0.41577488,-0.81089574,0.5313022,0.5957483,0.847703
0.014,0.49571392,-0.42495704,-0.75721174,0.5153761,0.5750214,0.84202117
0.016,0.46835154,-0.43368995,-0.7009188,0.4989004,0.55395794,0.8362535
0.018,0.43930912,-0.4421368,-0.6422431,0.48213577,0.5331855,0.83047193
0.02,0.4087404,-0.4503417,-0.58217704,0.4653702,0.5134402,0.82473725
0.022,0.37673056,-0.45808876,-0.52191454,0.4489208,0.49551338,0.8191003
0.024,0.3433078,-0.46522856,-0.4626603,0.43310112,0.48022783,0.8135944
0.026,0.30882704,-0.4716506,-0.40565202,0.41820467,0.46835232,0.80825245
0.028,0.27345037,-0.4770149,-0.35165662,0.40404952,0.46002585,0.80295485
0.03,0.2374031,-0.48109066,-0.3013853,0.39162445,0.4566729,0.7980336
0.032,0.20090781,-0.48366082,-0.2554682,0.3811515,0.45861116,0.79357016
0.034,0.16421148,-0.4844521,-0.2150257,0.3728711,0.46602312,0.7896831
0.036,0.12755066,-0.4832639,-0.18096906,0.36703223,0.47890824,0.78652704
0.038,0.0911805,-0.47994652,-0.15431297,0.3638687,0.49705556,0.78425646
0.04,0.055192888,-0.47438198,-0.13585414,0.36352128,0.52003646,0.7830146
0.042,0.02005501,-0.4664904,-0.12624086,0.36604697,0.5471846,0.78290164
0.044,-0.014064476,-0.45625073,-0.12604477,0.37132162,0.5775805,0.78394103
0.046,-0.046848387,-0.44373524,-0.13539584,0.37905484,0.61016655,0.7860267
0.048,-0.07787767,-0.42894608,-0.15432738,0.38884223,0.64387167,0.7889729
0.05,-0.10682766,-0.41200596,-0.1825165,0.400154,0.6775734,0.7925384
0.052,-0.13332835,-0.39308858,-0.2195495,0.41239363,0.71017694,0.7964429
0.054,-0.15704963,-0.37235653,-0.26480803,0.4249594,0.74076307,0.8003516
0.056,-0.17842421,-0.35038415,-0.31665075,0.43725428,0.7685983,0.8039078
0.058,-0.19615188,-0.32706258,-0.37574917,0.4487043,0.79317796,0.8067613
0.06,-0.21001431,-0.3028472,-0.441299,0.45882702,0.8142308,0.80857164
0.062,-0.21962875,-0.27798024,-0.5124238,0.46724778,0.83173597,0.8090421
0.064,-0.22507843,-0.25264943,-0.5881029,0.47369638,0.8458345,0.8079973
0.066,-0.22611336,-0.22691357,-0.6672798,0.47803432,0.85677236,0.80538404
0.068,-0.22290194,-0.20103201,-0.74902874,0.48026103,0.86480206,0.80128694
0.07,-0.21546951,-0.17488833,-0.8327171,0.48047474,0.8701314,0.79593885
0.072,-0.20400666,-0.14858937,-0.9170035,0.47881207,0.87286043,0.7897247
0.074,-0.18896864,-0.122184396,-1.0007751,0.47541565,0.8729531,0.7830949
0.076,-0.1709432,-0.09578958,-1.0831639,0.4703735,0.8702205,0.7765286
0.078,-0.1501662,-0.06969553,-1.1631318,0.46372813,0.8642954,0.7704658
0.08,-0.12753722,-0.04383038,-1.2394141,0.4554596,0.8547037,0.76524776
0.082,-0.10365039,-0.018229052,-1.3109472,0.44544315,0.84087473,0.7610472
0.084,-0.079374805,0.0073416084,-1.3769369,0.4334817,0.8222195,0.7578609
0.086,-0.05565715,0.033027917,-1.4363259,0.41933036,0.79819703,0.7555121
0.088,-0.03315127,0.05887492,-1.4885135,0.40277982,0.7683753,0.75373
0.09,-0.012576923,0.085097104,-1.5325346,0.3837042,0.73250866,0.7521776
0.092,0.005325228,0.11184458,-1.5675039,0.36209106,0.6905746,0.75054455
0.094,0.020120673,0.13890927,-1.5930414,0.33808622,0.6428389,0.7485378
0.096,0.031276345,0.16624475,-1.6092122,0.3119496,0.5898668,0.74596596
0.098,0.038564127,0.1936417,-1.6154821,0.2840923,0.53254116,0.7427577
0.1,0.042064,0.22077297,-1.6110173,0.2549989,0.47198087,0.7389519
0.102,0.04193732,0.24746206,-1.595871,0.22520797,0.40944672,0.73462945
0.104,0.038519315,0.27353728,-1.5709325,0.19528583,0.34641877,0.7298949
0.106,0.03292752,0.29823574,-1.537245,0.16582929,0.28445655,0.7249134
0.108,0.026052706,0.3214699,-1.4973391,0.13742074,0.2250404,0.7198914
0.11,0.017851016,0.3434226,-1.4531007,0.11063601,0.16953292,0.71504164
0.112,0.009999363,0.36310583,-1.4027575,0.086010486,0.11910014,0.7105834
0.114,0.0027749352,0.38027462,-1.3465625,0.06398076,0.07464033,0.70675194
0.116,-0.002449371,0.39411324,-1.2858917,0.044881955,0.036769688,0.70374995
0.118,-0.0046160743,0.40423945,-1.2223175,0.028894693,0.0058506727,0.7017408
0.12,-0.0028569698,0.4107788,-1.1572014,0.016020454,-0.017997518,0.70082885
0.122,0.0031738728,0.41362065,-1.0918204,0.006092228,-0.034844533,0.70104676
0.124,0.01402536,0.41276184,-1.0283056,-0.0011862479,-0.044916812,0.70237726
0.126,0.030109532,0.40830433,-0.9693601,-0.0062519945,-0.048567224,0.70476913
0.128,0.050584488,0.40080458,-0.9161591,-0.009642016,-0.04630714,0.70819175
0.13,0.07383785,0.3914358,-0.8710744,-0.011915218,-0.03873391,0.71262735
0.132,0.10130365,0.37894943,-0.8333541,-0.013667695,-0.026479036,0.7180643
0.134,0.13167647,0.3638115,-0.7994948,-0.015504666,-0.010216586,0.7244935
0.136,0.16256014,0.34651303,-0.76634264,-0.017985515,0.009303719,0.73196274
0.138,0.1928627,0.32705146,-0.73296547,-0.021604225,0.031300165,0.7405417
0.14,0.22171056,0.30593258,-0.6987767,-0.02676107,0.054927908,0.750231
0.142,0.24676742,0.28461725,-0.6626742,-0.033858,0.079309024,0.76094866
0.144,0.26470762,0.26497832,-0.6237517,-0.04321573,0.10375124,0.77252746
0.146,0.2735548,0.24842402,-0.5828511,-0.05511862,0.12762965,0.78471625
0.148,0.27163488,0.23654597,-0.53966486,-0.0697605,0.15041272,0.79731625
0.15,0.25691003,0.23083034,-0.49399734,-0.08717735,0.17177165,0.8100953
0.152,0.22725242,0.23248327,-0.44531512,-0.107332245,0.19155908,0.822754
0.154,0.1813878,0.24242228,-0.3926012,-0.13006021,0.20982723,0.8349703
0.156,0.11795317,0.2614078,-0.33583224,-0.15504682,0.2268434,0.8464143
0.158,0.036464565,0.28991005,-0.2753874,-0.18184383,0.24297191,0.85674715
0.16,-0.063191205,0.32837933,-0.21167937,-0.20983158,0.25862658,0.86562276
0.162,-0.18056035,0.3770591,-0.145082,-0.23818418,0.27435437,0.87286556
0.164,-0.31430468,0.43572944,-0.07638316,-0.2659589,0.29067403,0.8783346
0.166,-0.46280655,0.5042531,-0.0063341246,-0.2922035,0.3079325,0.88175124
0.168,-0.62397367,0.58216876,0.064292,-0.3159605,0.32620123,0.8829324
0.17,-0.79516876,0.66894996,0.13445517,-0.3363659,0.34517077,0.88188857
0.172,-0.97340864,0.76351655,0.20262554,-0.352842,0.3640309,0.878723
0.174,-1.155668,0.8646221,0.26775378,-0.3652485,0.38153368,0.87356174
0.176,-1.3387495,0.97061473,0.32879364,-0.37385413,0.39606273,0.866627
0.178,-1.519362,1.0796711,0.38533413,-0.3792839,0.4058609,0.85827184
0.18,-1.6945456,1.1895909,0.43726894,-0.38235772,0.40942606,0.8489034
0.182,-1.8611932,1.2983081,0.48466182,-0.3840573,0.40572482,0.8389426
0.184,-2.0165272,1.4038479,0.52804685,-0.38544238,0.3943283,0.82880914
0.186,-2.158016,1.5042782,0.56811374,-0.3874913,0.37552017,0.81883377
0.188,-2.2838025,1.5977552,0.6055048,-0.3910353,0.35019282,0.8091953
0.19,-2.391901,1.6824089,0.6410655,-0.39669645,0.31963998,0.7998157
0.192,-2.4811928,1.7567136,0.6757277,-0.4048814,0.28522378,0.7903237
0.194,-2.5507028,1.8194569,0.7108892,-0.41581747,0.24811839,0.780115
0.196,-2.5995426,1.8696998,0.7472895,-0.4294989,0.20910087,0.76841384
0.198,-2.6276093,1.9069439,0.7848591,-0.44577092,0.16840306,0.7544088
0.2,-2.6353807,1.9304328,0.822949,-0.4642604,0.1260542,0.73735905
0.202,-2.623795,1.9394858,0.86135775,-0.48442966,0.08204765,0.7166801
0.204,-2.5938609,1.9341955,0.8999138,-0.5055751,0.03653662,0.6921752
0.206,-2.546641,1.9150654,0.9388699,-0.52678126,-0.009877399,0.66413015
0.208,-2.4839292,1.883627,0.9779189,-0.54704356,-0.0560098,0.63325006
0.21,-2.4076703,1.8417299,1.0157568,-0.56536126,-0.100125164,0.6005983
0.212,-2.319652,1.790832,1.0514927,-0.580832,-0.14007224,0.56743276
0.214,-2.221607,1.7326888,1.0846206,-0.59280753,-0.17361072,0.5350514
0.216,-2.1159163,1.6693122,1.1144009,-0.60098886,-0.19886866,0.5044812
0.218,-2.0040576,1.6021307,1.1410335,-0.6053899,-0.21457064,0.4765389
0.22,-1.8868346,1.532473,1.1634347,-0.60630953,-0.22019194,0.4518326
0.222,-1.7665839,1.4626813,1.1774434,-0.6043401,-0.21603039,0.43047863
0.224,-1.6441228,1.394016,1.1818271,-0.6002182,-0.20313698,0.41217762
0.226,-1.5212306,1.327999,1.1766547,-0.594574,-0.18299043,0.3964224
0.228,-1.3991748,1.2655474,1.1616312,-0.5878474,-0.15729745,0.3826282
0.23,-1.2786938,1.2068541,1.1367083,-0.58034575,-0.12773697,0.3700652
0.232,-1.1605641,1.1524773,1.1018507,-0.572201,-0.0957205,0.3580118
0.234,-1.0454592,1.1026716,1.0571175,-0.5633464,-0.062246457,0.34598655
0.236,-0.9337493,1.0573251,1.0029422,-0.5534797,-0.02776669,0.33371595
0.238,-0.825199,1.016176,0.9395196,-0.5421237,0.007793054,0.3210403
0.24,-0.71931833,0.9782882,0.8683994,-0.52874017,0.044875547,0.30786827
0.242,-0.61857927,0.9447579,0.78824854,-0.5128631,0.08408654,0.29411325
0.244,-0.52212167,0.91476345,0.6962882,-0.49424282,0.12597997,0.27974185
0.246,-0.42899248,0.8875761,0.59188145,-0.47291574,0.1707638,0.26479268
0.248,-0.33963016,0.8628623,0.4770312,-0.44922048,0.21812768,0.24939106
0.25,-0.25466248,0.8399502,0.35459983,-0.42381862,0.26711255,0.23370096
0.252,-0.17355523,0.8177577,0.22763786,-0.39765948,0.31610525,0.21796532
0.254,-0.09537336,0.7953884,0.09976621,-0.37191197,0.36295626,0.20250621
0.256,-0.020683676,0.77277476,-0.024734832,-0.3478214,0.4052334,0.18773861
0.258,0.04898578,0.75027233,-0.14335646,-0.32662073,0.44050628,0.17408326
0.26,0.112493336,0.72847676,-0.25316,-0.30937514,0.4666411,0.16191071
0.262,0.16972245,0.7072315,-0.35207295,-0.29688317,0.48202878,0.15146023
0.264,0.21876678,0.68718493,-0.4394105,-0.28962672,0.4857879,0.14277628
0.266,0.2598926,0.66835296,-0.51273483,-0.28774345,0.47783267,0.13573122
0.268,0.2915709,0.65141666,-0.5694299,-0.29105413,0.45886403,0.13001198
0.27,0.31278098,0.6371298,-0.60802364,-0.2991128,0.43028364,0.1252264
0.272,0.32252198,0.62640417,-0.6277692,-0.31127402,0.39398175,0.120911464
0.274,0.3196069,0.6203494,-0.62835664,-0.3267719,0.35213155,0.11660925
0.276,0.30270767,0.61959434,-0.60980314,-0.34479043,0.30693695,0.11195544
0.278,0.27072123,0.6244788,-0.57246494,-0.36454087,0.2604722,0.106695004
0.28,0.22263011,0.63510513,-0.51628774,-0.3853054,0.21446577,0.100771345
0.282,0.15790357,0.65169716,-0.44121498,-0.40646023,0.17027022,0.09429102
0.284,0.0764807,0.67436063,-0.34799328,-0.42745999,0.12887691,0.087521724
0.286,-0.02186799,0.7034614,-0.23691323,-0.44793162,0.09085254,0.08073498
0.288,-0.13701028,0.73939145,-0.10874065,-0.4676559,0.056329772,0.07415566
0.29,-0.26755106,0.7823641,0.034117654,-0.4865279,0.025171831,0.067952506
0.292,-0.4127013,0.83253586,0.1895409,-0.50452006,-0.0027766228,0.062320106
0.294,-0.57076395,0.8893236,0.3548059,-0.5216042,-0.027696177,0.057469785
0.296,-0.7395448,0.95206606,0.5265698,-0.53764206,-0.04966277,0.05361697
0.298,-0.91679955,1.0199287,0.7014714,-0.5523321,-0.06848684,0.050924845
0.3,-1.1001266,1.0920389,0.8761813,-0.5652449,-0.083584785,0.049409814
0.302,-1.2870184,1.1676154,1.0477122,-0.57582426,-0.09397291,0.049011536
0.304,-1.475156,1.2456759,1.212968,-0.5833727,-0.0983285,0.04964289
0.306,-1.6622884,1.3255239,1.3697739,-0.5870297,-0.09502834,0.05124054
0.308,-1.846124,1.4063107,1.5166667,-0.5857855,-0.0822552,0.05389201
0.31,-2.023878,1.4874834,1.6519678,-0.57855093,-0.058149517,0.05783587
0.312,-2.1932569,1.5685248,1.7730142,-0.56421566,-0.020942241,0.06348095
0.314,-2.3525717,1.6486473,1.8773724,-0.541787,0.030801758,0.07131133
0.316,-2.500225,1.7263815,1.9624025,-0.5105749,0.09795244,0.08177784
0.318,-2.6347253,1.800089,2.026421,-0.4703493,0.18065557,0.09514976
0.32,-2.7551513,1.868736,2.0689552,-0.42148912,0.27812365,0.11135576
0.322,-2.8609142,1.9318469,2.0900333,-0.3650805,0.38845786,0.12984999
0.324,-2.9520707,1.9889226,2.0899088,-0.30288586,0.5088058,0.14958389
0.326,-3.0283775,2.0396948,2.0692248,-0.23724684,0.63549775,0.16915654
0.328,-3.0901647,2.0837665,2.0289168,-0.17082918,0.7643283,0.18694577
0.33,-3.1376104,2.120814,1.9703736,-0.10631639,0.8910425,0.2013435
0.332,-3.1708357,2.1506464,1.8951945,-0.04607281,1.011737,0.21100977
0.334,-3.1903176,2.173308,1.8054457,0.008141339,1.1232861,0.21501552
0.336,-3.1963444,2.1889114,1.7033219,0.05535525,1.2236049,0.21301925
0.338,-3.1894422,2.19753,1.5913206,0.09544253,1.3117807,0.2052889
0.34,-3.1701314,2.199658,1.471812,0.12904102,1.3880248,0.19265011
0.342,-3.1383557,2.1955647,1.3471272,0.15731317,1.4534359,0.17635143
0.344,-3.094445,2.185947,1.2194601,0.18167716,1.50963,0.15795574
0.346,-3.038578,2.1716042,1.0906339,0.20354253,1.5582335,0.13909337
0.348,-2.9712214,2.1534326,0.9626002,0.22407556,1.6007295,0.12133035
0.35,-2.8928776,2.1322484,0.8371719,0.24401271,1.6381984,0.10600191
0.352,-2.8037682,2.1089838,0.71596223,0.26359612,1.6710709,0.09414798
0.354,-2.704682,2.084563,0.60050035,0.28268886,1.6991667,0.086556554
0.356,-2.5961437,2.0599337,0.4919923,0.3008722,1.7218587,0.08365542
0.358,-2.4786985,2.0360527,0.39159352,0.31754112,1.7383127,0.0855422
0.36,-2.3538013,2.01381,0.3001299,0.3320096,1.7476598,0.09196758
0.362,-2.2233276,1.9938557,0.2181264,0.34358746,1.7491623,0.10233119
0.364,-2.0884917,1.9763024,0.14644255,0.35166907,1.7423811,0.11577627
0.366,-1.9506991,1.9617424,0.08647089,0.35579878,1.7272075,0.13131693
0.368,-1.811613,1.9508029,0.04016303,0.35566652,1.7039462,0.14793497
0.37,-1.6725438,1.9437823,0.0076754987,0.35119605,1.6733236,0.16468364
0.372,-1.535623,1.9411433,-0.011811711,0.34251088,1.6364108,0.1807318
0.374,-1.401282,1.9419434,-0.018878326,0.32991242,1.5945755,0.19540137
0.376,-1.271846,1.9458781,-0.014626764,0.31387538,1.5494407,0.20822868
0.378,-1.1476182,1.9514701,0.0012779385,0.29497093,1.5026219,0.21891892
0.38,-1.0299273,1.9576676,0.028007567,0.27385318,1.4557061,0.22731736
0.382,-0.919307,1.9631327,0.06266864,0.25122625,1.4100804,0.23346364
0.384,-0.815807,1.9666559,0.10438685,0.22782516,1.3668272,0.2375631
0.386,-0.71881527,1.9678459,0.15397114,0.2043162,1.3266511,0.24001554
0.388,-0.6281869,1.9666497,0.20975184,0.1812836,1.2898937,0.241411
0.39,-0.54357797,1.962683,0.26793462,0.15922093,1.2566032,0.24238592
0.392,-0.46574605,1.9564234,0.32404044,0.13848919,1.2265968,0.24357742
0.394,-0.3915742,1.9467782,0.3762521,0.119333446,1.1995298,0.24564451
0.396,-0.31863236,1.9330945,0.42370147,0.10187775,1.1749597,0.24926448
0.398,-0.24780059,1.9153943,0.4651476,0.08614224,1.1524382,0.25495797
0.4,-0.1790297,1.8932021,0.49825928,0.072033286,1.1316495,0.2629403
0.402,-0.110459685,1.866747,0.52015233,0.059384286,1.1123908,0.27314606
0.404,-0.042028606,1.837532,0.5299177,0.047974825,1.0945342,0.28530884
0.406,0.025966823,1.8072308,0.52708656,0.037536263,1.0779282,0.29899058
0.408,0.09455967,1.7768314,0.5087176,0.027792275,1.0624926,0.3136324
0.41,0.16263527,1.7489609,0.46922025,0.018515885,1.0484116,0.32847354
0.412,0.23110908,1.7235935,0.4129588,0.009530306,1.0358894,0.34257132
0.414,0.2996161,1.7006712,0.34623334,0.0007364154,1.0248327,0.35507864
0.416,0.36752218,1.6792746,0.27100396,-0.007858455,1.0149533,0.3652633
0.418,0.4353637,1.6589878,0.18798852,-0.016188562,1.0058571,0.37239027
0.42,0.5024105,1.6408582,0.09876585,-0.024336874,0.9967263,0.37574837
0.422,0.5684967,1.6262022,0.0041818917,-0.032547414,0.98616695,0.374893
0.424,0.6332167,1.6156355,-0.09436968,-0.041275293,0.9724841,0.36984217
0.426,0.6959598,1.609276,-0.19439843,-0.05115506,0.95379645,0.36080867
0.428,0.75663817,1.6066608,-0.2934641,-0.062921286,0.92835754,0.3479894
0.43,0.8152996,1.6073582,-0.38940623,-0.07724276,0.8948878,0.33185607
0.432,0.87208927,1.6111246,-0.4808641,-0.09451473,0.8528317,0.31331098
0.434,0.9272664,1.6180148,-0.5661905,-0.114839375,0.80248547,0.29345107
0.436,0.98027706,1.627881,-0.64366764,-0.13796404,0.7452532,0.27337295
0.438,1.0309505,1.6404109,-0.7110168,-0.16319874,0.6836877,0.2541565
0.44,1.078913,1.6552069,-0.76613677,-0.1893833,0.6209346,0.23671116
0.442,1.1240723,1.6719571,-0.80705065,-0.21512136,0.5602089,0.22181463
0.444,1.1664956,1.6903353,-0.83278453,-0.23898527,0.5047831,0.20998625
0.446,1.2062654,1.7102219,-0.84308326,-0.25975436,0.45750022,0.20139126
0.448,1.2433338,1.7313755,-0.83847827,-0.27658743,0.42005393,0.19610626
0.45,1.2777121,1.7533741,-0.8193859,-0.28915104,0.39268947,0.19411936
0.452,1.3090264,1.7756392,-0.7863772,-0.29774827,0.3740278,0.19512543
0.454,1.3370821,1.7974683,-0.73960197,-0.30346754,0.36107334,0.19850935
0.456,1.3615854,1.8182905,-0.6791544,-0.30813035,0.34969312,0.2032824
0.458,1.3825996,1.8373475,-0.6054615,-0.3140099,0.33527097,0.20823658
0.46,1.4001963,1.8541788,-0.51890385,-0.32343754,0.31350145,0.21214047
0.462,1.414193,1.8683274,-0.419613,-0.3384014,0.28094319,0.21385255
0.464,1.4248285,1.8794712,-0.30785257,-0.36010262,0.23551646,0.21254162
0.466,1.4321928,1.8873597,-0.184519,-0.3886182,0.17720886,0.2077738
0.468,1.4365594,1.891305,-0.051294446,-0.4228527,0.10829543,0.19944675
0.47,1.4390565,1.8904831,0.08963257,-0.4606861,0.03277944,0.18793479
0.472,1.4406193,1.8844037,0.23586369,-0.49929225,-0.044229046,0.17415532
0.474,1.4415013,1.8734597,0.384891,-0.5355238,-0.11692469,0.15931909
0.476,1.4418727,1.8580331,0.5340032,-0.56644917,-0.17957161,0.14460519
0.478,1.4427764,1.83834,0.6803387,-0.58983254,-0.22745752,0.13096067
0.48,1.444648,1.8153192,0.82206804,-0.60438967,-0.25726917,0.11927235
0.482,1.447525,1.7902813,0.95866376,-0.60989356,-0.26729953,0.11032157
0.484,1.4516703,1.7648188,1.0898678,-0.6070714,-0.25740966,0.10438697
0.486,1.4571052,1.7398982,1.2142172,-0.59735346,-0.22872931,0.101262376
0.488,1.4634442,1.7167434,1.3285674,-0.58237976,-0.18324588,0.100633696
0.49,1.4712145,1.6959051,1.4311807,-0.5637212,-0.123594046,0.102173164
0.492,1.4798383,1.6782477,1.5214438,-0.5427164,-0.052743867,0.10550949
0.494,1.4887128,1.6646029,1.5964187,-0.52036583,0.026559442,0.11026423
0.496,1.4973414,1.6552548,1.6522069,-0.4972707,0.1118003,0.11590761
0.498,1.5054328,1.6506124,1.6881046,-0.47380432,0.20027381,0.121894605
0.5,1.5126361,1.6512533,1.7050625,-0.4502286,0.28933483,0.12763983
0.502,1.5191681,1.6567847,1.7041726,-0.42687553,0.37675694,0.13233793
0.504,1.5220189,1.6683991,1.6844592,-0.40419513,0.46063787,0.13521029
0.506,1.5200727,1.6860008,1.6449231,-0.38265142,0.5394233,0.13583705
0.508,1.5152739,1.7088196,1.5865107,-0.36255544,0.6120313,0.13402942
0.51,1.507919,1.7364012,1.5132263,-0.34406605,0.67775625,0.12970161
0.512,1.4972644,1.7675297,1.4284749,-0.32725465,0.7361491,0.12278806
0.514,1.4843106,1.8003682,1.3342538,-0.31218988,0.7868813,0.113288
0.516,1.4699471,1.8331733,1.2328392,-0.29903325,0.82968146,0.10132657
0.518,1.454112,1.8651294,1.1283312,-0.28812566,0.8641654,0.08718149
0.52,1.4386297,1.8941097,1.0258253,-0.28000498,0.889695,0.07122287
0.522,1.4229102,1.9206743,0.9209583,-0.27532548,0.90535617,0.05386889
0.524,1.4068986,1.9456515,0.81145775,-0.27477175,0.9101402,0.03553699
0.526,1.3894305,1.9693246,0.70101464,-0.27894133,0.9031933,0.016587377
0.528,1.3706486,1.9900581,0.5921999,-0.2882287,0.8841386,-0.0027022064
0.53,1.3522929,2.0047812,0.48902524,-0.30275244,0.85337657,-0.02218631
0.532,1.3335019,2.0117042,0.39707956,-0.32220373,0.81228155,-0.041862294
0.534,1.3144314,2.0097537,0.31948763,-0.34584397,0.76322865,-0.061834417
0.536,1.2949353,1.9994771,0.25650042,-0.37251595,0.7094071,-0.082342975
0.538,1.2743051,1.9825945,0.20705354,-0.4007863,0.65453947,-0.10367218
0.54,1.2515556,1.961033,0.17010826,-0.4290998,0.6024302,-0.12607159
0.542,1.2253423,1.9359124,0.14547676,-0.45600626,0.5565261,-0.14969537
0.544,1.1940552,1.9080325,0.13351864,-0.48029885,0.51950747,-0.17452396
0.546,1.1563646,1.8781645,0.13320816,-0.50112,0.4930144,-0.200326
0.548,1.1113421,1.8470511,0.14339024,-0.5179978,0.47752872,-0.22662166
0.55,1.0585264,1.8155525,0.16415697,-0.5308442,0.47244096,-0.25270453
0.552,0.9966543,1.784882,0.19578856,-0.5398655,0.4762912,-0.27777028
0.554,0.9253671,1.7563465,0.23802733,-0.54549474,0.48699975,-0.30112705
0.556,0.84444857,1.7309444,0.290356,-0.5482152,0.5025205,-0.3223136
0.558,0.75510246,1.709445,0.35209084,-0.54850674,0.5210674,-0.34092373
0.56,0.6580795,1.6925778,0.4217694,-0.5466894,0.54110473,-0.35659522
0.562,0.5551919,1.6809919,0.49752408,-0.5427254,0.5618367,-0.36917895
0.564,0.44842708,1.6754746,0.5767139,-0.5362059,0.5833734,-0.37875906
0.566,0.34018707,1.6764343,0.65639853,-0.52645814,0.6066735,-0.38547897
0.568,0.23255265,1.684481,0.7335252,-0.5126226,0.63327104,-0.38948566
0.57,0.12763453,1.6999006,0.8051245,-0.49367028,0.66512376,-0.39087448
0.572,0.027518094,1.7227601,0.86805606,-0.4684239,0.7044941,-0.3896192
0.574,-0.06615931,1.7531676,0.9198074,-0.43562892,0.7537805,-0.3854021
0.576,-0.15156305,1.7912245,0.958311,-0.39404657,0.8154055,-0.37754896
0.578,-0.22755677,1.8372424,0.98243904,-0.34258553,0.89141285,-0.36502495
0.58,-0.29315418,1.8914242,0.99125475,-0.28045303,0.9831579,-0.34665018
0.582,-0.34752578,1.9534678,0.9837256,-0.20734248,1.091091,-0.32146266
0.584,-0.39096934,2.0223985,0.95881563,-0.123680174,1.2144259,-0.289113
0.586,-0.42373663,2.0966272,0.9158362,-0.03084299,1.3509189,-0.25015536
0.588,-0.44685578,2.1747527,0.8549128,0.06879711,1.4968339,-0.20624274
0.59,-0.46214467,2.2553685,0.7774274,0.17195517,1.6470883,-0.16006088
0.592,-0.47122663,2.3370779,0.68525785,0.27465558,1.7955662,-0.11513913
0.594,-0.4764731,2.4186926,0.58083224,0.3726123,1.9356346,-0.07545316
0.596,-0.4792477,2.4988399,0.4673242,0.46164,2.0607665,-0.044972777
0.598,-0.48067766,2.575982,0.34874874,0.53811836,2.1651783,-0.027166307
0.6,-0.48255306,2.649113,0.22976065,0.5993688,2.2443678,-0.024576783
0.602,-0.48590744,2.7165103,0.11545342,0.6438981,2.295545,-0.03852296
0.604,-0.4910015,2.7763338,0.0107674,0.67148596,2.317832,-0.06893408
0.606,-0.49865818,2.827516,-0.08033109,0.6831144,2.312209,-0.11443889
0.608,-0.5079162,2.868224,-0.15417671,0.6807294,2.2812893,-0.17251843
0.61,-0.51856625,2.8981316,-0.20807308,0.6668823,2.2286735,-0.2399174
0.612,-0.5291425,2.916874,-0.23948348,0.64440316,2.1587029,-0.31317037
0.614,-0.5382396,2.9243636,-0.24707615,0.61602074,2.076144,-0.38880688
0.616,-0.54433066,2.9213054,-0.22956544,0.5840518,1.9854525,-0.46343726
0.618,-0.54587406,2.908729,-0.18634057,0.5503756,1.8905473,-0.53404367
0.62,-0.54175526,2.8882394,-0.1174801,0.5164313,1.7948177,-0.59825045
0.622,-0.5306081,2.8616376,-0.023419738,0.48324296,1.7011926,-0.65431714
0.624,-0.51165056,2.8311524,0.09492755,0.4513945,1.6120191,-0.70112395
0.626,-0.4841931,2.7991083,0.23622292,0.42106533,1.5290718,-0.73825645
0.628,-0.44813955,2.767693,0.39870912,0.3921262,1.4535732,-0.76604974
0.63,-0.40364552,2.7388103,0.57999724,0.36413273,1.3861868,-0.78557265
0.632,-0.3510641,2.7139986,0.7775034,0.33650175,1.327283,-0.7985021
0.634,-0.29001784,2.694048,0.9881514,0.30859765,1.276928,-0.8067235
0.636,-0.2219125,2.6808581,1.2083309,0.2798815,1.234957,-0.8121739
0.638,-0.14901316,2.6760607,1.4381279,0.25001502,1.2011958,-0.81661206
0.64,-0.07459223,2.6805387,1.673523,0.21893382,1.1754359,-0.82159376
0.642,0.0014184713,2.6933775,1.9092606,0.18695801,1.1576056,-0.82845235
0.644,0.07734513,2.7135935,2.1416702,0.15474808,1.1477956,-0.83822644
0.646,0.15235555,2.7387314,2.3685236,0.123313546,1.146283,-0.85170346
0.648,0.2256962,2.7657275,2.5872765,0.09389345,1.1535602,-0.8693895
0.65,0.29755712,2.7913256,2.7951708,0.06789547,1.17026,-0.89149344
0.652,0.36866832,2.8133278,2.9888625,0.046753377,1.1971004,-0.9179006
0.654,0.44099963,2.829668,3.1631937,0.031774223,1.2347838,-0.94821507
0.656,0.5140195,2.839515,3.3133526,0.023985162,1.2838299,-0.98179924
0.658,0.586645,2.8416293,3.438211,0.023999244,1.3444494,-1.017823
0.66,0.6594454,2.8344257,3.5360148,0.03194055,1.4163909,-1.0552502
0.662,0.73441625,2.8174555,3.6015751,0.04744035,1.4988492,-1.0928878
0.664,0.81188715,2.7907124,3.6332355,0.06969944,1.5904512,-1.1294533
0.666,0.8914244,2.7539268,3.6307454,0.09760228,1.689414,-1.1637129
0.668,0.9728588,2.7068558,3.5935082,0.12975797,1.793516,-1.1946261
0.67,1.0564582,2.6497107,3.5214343,0.16463315,1.9002687,-1.2213643
0.672,1.1414788,2.5838683,3.4168015,0.20066863,2.0069952,-1.2433267
0.674,1.2267954,2.511291,3.282328,0.2363852,2.1109507,-1.2601718
0.676,1.3112857,2.4340963,3.1209254,0.2704046,2.2095122,-1.2718136
0.678,1.3941092,2.3539128,2.9358582,0.30151385,2.3002539,-1.2783238
0.68,1.4745685,2.2725837,2.7299366,0.32871667,2.3810015,-1.2797958
0.682,1.5519834,2.191851,2.5057952,0.35128096,2.4499083,-1.2763602
0.684,1.6255445,2.113562,2.2661386,0.3687408,2.5055072,-1.2681344
0.686,1.6937945,2.0395093,2.01502,0.38088462,2.5468912,-1.2553163
0.688,1.755296,1.971591,1.7567029,0.38767603,2.5737553,-1.2383742
0.69,1.8084416,1.911605,1.4958005,0.38923943,2.5862286,-1.2177601
0.692,1.8519763,1.8611407,1.2371356,0.3860147,2.5847454,-1.1937377
0.694,1.8855641,1.8213727,0.9852985,0.378522,2.569986,-1.1666207
0.696,1.9085991,1.7931725,0.74390686,0.36716634,2.5430555,-1.136949
0.698,1.9210434,1.7767738,0.5153831,0.3523229,2.5055392,-1.1054475
0.7,1.9234364,1.77201,0.30139238,0.33440188,2.4591873,-1.0727224
0.702,1.9156868,1.7786542,0.103563905,0.31394875,2.4057994,-1.0392516
0.704,1.8983734,1.795997,-0.07663596,0.29162014,2.347231,-1.0055189
0.706,1.8716185,1.8233147,-0.23753464,0.26816806,2.2852876,-0.97205454
0.708,1.8359584,1.8598592,-0.3778957,0.24441493,2.2216234,-0.93931854
0.71,1.792978,1.9041661,-0.49725842,0.22126037,2.1576395,-0.90759516
0.712,1.7439677,1.955328,-0.5961425,0.19964504,2.0943832,-0.8769959
0.714,1.6900945,2.012117,-0.6760412,0.18045765,2.0325909,-0.847527
0.716,1.633382,2.0725489,-0.7381167,0.16445264,1.9727969,-0.8191215
0.718,1.5748717,2.135269,-0.78407866,0.1522147,1.9154372,-0.79164904
0.72,1.5166478,2.197886,-0.8154594,0.14417797,1.8608888,-0.7649003
0.722,1.4600639,2.2586384,-0.8339735,0.1407009,1.8096867,-0.738588
0.724,1.4068501,2.315772,-0.8409766,0.14204314,1.7624619,-0.7124187
0.726,1.3590553,2.3673162,-0.838502,0.14835238,1.7200079,-0.68608755
0.728,1.3186089,2.4113402,-0.8285462,0.15967667,1.6831151,-0.6592598
0.73,1.2872219,2.4459534,-0.8130032,0.17597604,1.6524116,-0.6315603
0.732,1.2664007,2.469411,-0.79389715,0.19709615,1.6283422,-0.6026511
0.734,1.2582167,2.4800215,-0.77330863,0.22272298,1.6111171,-0.5723164
0.736,1.2648818,2.4762201,-0.7537904,0.2523663,1.6006669,-0.54045236
0.738,1.2861788,2.4579678,-0.73734915,0.28541476,1.5966767,-0.50710094
0.74,1.3223834,2.424813,-0.723583,0.32109725,1.5984554,-0.4724422
0.742,1.3739636,2.3763776,-0.7105957,0.35861328,1.6051276,-0.43676102
0.744,1.440836,2.3127158,-0.6967944,0.39712596,1.6157652,-0.40061426
0.746,1.5238552,2.2337968,-0.6813443,0.4357208,1.629418,-0.3648181
0.748,1.6216736,2.1405127,-0.6665511,0.4736305,1.6451252,-0.3300103
0.75,1.7346035,2.0331993,-0.6537143,0.51028204,1.6615602,-0.29654908
0.752,1.8587549,1.9137466,-0.6433933,0.54521126,1.6772144,-0.26470596
0.754,1.9925587,1.7834153,-0.6307178,0.57795596,1.6907144,-0.23477274
0.756,2.1366382,1.6421616,-0.6056132,0.6080475,1.7008125,-0.20696121
0.758,2.2890654,1.492123,-0.5640577,0.63506734,1.7063591,-0.18123156
0.76,2.4452941,1.337295,-0.51070637,0.6586823,1.7064357,-0.157354
0.762,2.600699,1.1809422,-0.45124662,0.67866665,1.7004294,-0.13504398
0.764,2.7504134,1.0265906,-0.38686097,0.69488156,1.68812,-0.11404419
0.766,2.8985972,0.8729012,-0.312779,0.70727265,1.6696872,-0.09409839
0.768,3.0475485,0.7191523,-0.22365665,0.715888,1.6457069,-0.07500982
0.77,3.1911163,0.5701138,-0.11691719,0.72083324,1.616929,-0.056637943
0.772,3.321059,0.43059635,0.00881511,0.72227913,1.5843114,-0.0388366
0.774,3.4363008,0.30102777,0.15162343,0.72044134,1.5490775,-0.021536231
0.776,3.5367944,0.18162799,0.308671,0.71556956,1.5125701,-0.0047643185
0.778,3.6191761,0.07485247,0.47936934,0.70792645,1.4760336,0.011354208
0.78,3.679906,-0.016229868,0.66485596,0.6976754,1.440376,0.02661866
0.782,3.717508,-0.08982599,0.8654767,0.68486613,1.4062457,0.040714562
0.784,3.7309666,-0.14481854,1.0812469,0.6692966,1.3739163,0.05326873
0.786,3.718768,-0.18004239,1.3107806,0.65046644,1.3433744,0.064050436
0.788,3.678733,-0.19356978,1.5512493,0.6278446,1.3147674,0.07286143
0.79,3.6095133,-0.18377686,1.7994478,0.6010641,1.2881751,0.07936746
0.792,3.5103736,-0.14938784,2.0527053,0.5699135,1.2631061,0.083266556
0.794,3.3814473,-0.09022975,2.3075657,0.5343745,1.2388389,0.084522784
0.796,3.2234678,-0.0063176155,2.5598536,0.49466228,1.2152201,0.08328509
0.798,3.0378518,0.10217345,2.804947,0.45118207,1.1928629,0.079919636
0.8,2.8262904,0.23481297,3.0382657,0.40477145,1.1730155,0.07470983
0.802,2.5907645,0.39053774,3.2548318,0.3569458,1.157079,0.06762996
0.804,2.3334117,0.56805587,3.4495444,0.3097132,1.1463532,0.05879131
0.806,2.0570567,0.7655102,3.6175537,0.26534015,1.1421427,0.048652112
0.808,1.764759,0.9806013,3.7544308,0.22609779,1.1455384,0.03776121
0.81,1.4601996,1.2102368,3.855722,0.19409615,1.1571716,0.026542127
0.812,1.1476989,1.4508628,3.9174194,0.17112243,1.1772897,0.015143007
0.814,0.8317425,1.6983756,3.9359856,0.1584723,1.2058469,0.0033907294
0.816,0.5169194,1.9484265,3.908896,0.15682015,1.24253,-0.009182692
0.818,0.20750856,2.1964636,3.8352814,0.16618338,1.286654,-0.023233235
0.82,-0.09261441,2.438242,3.7156043,0.18589577,1.3371313,-0.039503932
0.822,-0.3794204,2.669698,3.5513415,0.21469426,1.3924822,-0.05871719
0.824,-0.6492858,2.8871841,3.3454044,0.25091177,1.450983,-0.08153242
0.826,-0.8985082,3.0872855,3.1016722,0.29264253,1.5105705,-0.10844082
0.828,-1.1237932,3.2669032,2.8249311,0.33796197,1.5689347,-0.13959366
0.83,-1.3221626,3.423095,2.5209286,0.3850912,1.6238191,-0.17484516
0.832,-1.4909699,3.5533338,2.1957562,0.43252888,1.6732788,-0.21378475
0.834,-1.6285774,3.6560633,1.8558514,0.4791499,1.7158117,-0.25580657
0.836,-1.73377,3.7302172,1.5077661,0.5241496,1.7502675,-0.30020154
0.838,-1.8058165,3.775529,1.1585879,0.5670145,1.775955,-0.34626943
0.84,-1.8446128,3.7925372,0.8158016,0.60743344,1.7925678,-0.39350307
0.842,-1.85046,3.7822323,0.4867903,0.6450134,1.7999659,-0.44141412
0.844,-1.8247011,3.7461615,0.17857265,0.6792774,1.7985616,-0.48949718
0.846,-1.7689116,3.6862385,-0.10213435,0.7098429,1.7895398,-0.5374482
0.848,-1.6830164,3.603569,-0.35021663,0.7364907,1.7741975,-0.5852376
0.85,-1.568864,3.5005374,-0.5633496,0.75920415,1.7533522,-0.6328666
0.852,-1.4287927,3.3792906,-0.74112827,0.7782258,1.727618,-0.68027693
0.854,-1.2659318,3.242036,-0.8824886,0.7938105,1.6977634,-0.7271575
0.856,-1.0833697,3.0926828,-0.9857718,0.80615413,1.6650573,-0.7729924
0.858,-0.88267326,2.9328861,-1.0498482,0.81564164,1.6311249,-0.8175624
0.86,-0.6684363,2.7651117,-1.0732751,0.822912,1.5975827,-0.86087555
0.862,-0.44168955,2.59089,-1.0572474,0.8288294,1.5660667,-0.9027777
0.864,-0.2060551,2.4123316,-1.0087538,0.83429,1.5382422,-0.94285476
0.866,0.032952875,2.2326863,-0.93777806,0.8400687,1.515585,-0.98053026
0.868,0.2727384,2.0528057,-0.84645665,0.84680974,1.4992594,-1.0151569
0.87,0.51219356,1.8724608,-0.7308232,0.8550105,1.4902253,-1.0461332
0.872,0.7494197,1.6927859,-0.58978415,0.8650431,1.4893407,-1.0729659
0.874,0.98148584,1.5152652,-0.42878497,0.8772191,1.4973018,-1.095273
0.876,1.1998827,1.3445935,-0.2572592,0.89181006,1.5145303,-1.1127524
0.878,1.3995205,1.1842405,-0.08505714,0.90898716,1.5411325,-1.1251827
0.88,1.5822514,1.0324597,0.083256006,0.9287997,1.5768666,-1.132482
0.882,1.7501897,0.88687843,0.24803698,0.95103645,1.6211133,-1.134696
0.884,1.898695,0.75234914,0.40849143,0.97536826,1.6729031,-1.1318947
0.886,2.0244486,0.63190967,0.56359273,1.0016277,1.7309718,-1.1241815
0.888,2.1274862,0.52566814,0.71042204,1.0292157,1.793756,-1.1120162
0.89,2.2074888,0.4334466,0.844866,1.0575337,1.8597035,-1.0957922
0.892,2.2634146,0.3554169,0.96315575,1.0859908,1.9272661,-1.0760615
0.894,2.2946868,0.2917552,1.0634544,1.1140368,1.994941,-1.0535042
0.896,2.3017616,0.24273372,1.146241,1.1412278,2.0613492,-1.0288533
0.898,2.2861984,0.20794338,1.2134775,1.1672213,2.1252575,-1.0028813
0.9,2.2490392,0.18699908,1.2670133,1.1917766,2.1855788,-0.97640306
0.902,2.1916623,0.1794262,1.3076767,1.2147324,2.241428,-0.9502413
0.904,2.115701,0.18473363,1.3359087,1.235991,2.2920861,-0.92523056
0.906,2.023311,0.2020086,1.3516402,1.2554281,2.3369823,-0.90222573
0.908,1.9168946,0.22964257,1.355202,1.2729967,2.3758092,-0.8819256
0.91,1.7993488,0.2659533,1.3472185,1.2886755,2.408472,-0.86490697
0.912,1.6733651,0.30955344,1.3293514,1.3022659,2.4349475,-0.8517248
0.914,1.5418807,0.35902953,1.303736,1.3137364,2.4553123,-0.842661
0.916,1.4077424,0.4130901,1.2724875,1.322999,2.469725,-0.83794117
0.918,1.2737188,0.4704296,1.2374246,1.3298552,2.4784079,-0.8376529
0.92,1.1423535,0.52987415,1.2001519,1.3342468,2.4816456,-0.84161806
0.922,1.0158688,0.59036696,1.1618044,1.3361778,2.479694,-0.8495991
0.924,0.89615786,0.6508407,1.1234857,1.3357537,2.4727497,-0.8612187
0.926,0.7850466,0.7105545,1.0859909,1.3331767,2.4609158,-0.87595665
0.928,0.68404096,0.76875716,1.0497928,1.32873,2.4442585,-0.89320874
0.93,0.59464943,0.82473356,1.0151469,1.32276,2.4228518,-0.91230184
0.932,0.51760787,0.8778073,0.9825963,1.3157156,2.396844,-0.9325518
0.934,0.4533841,0.92743134,0.95216376,1.3080872,2.3665485,-0.9533035
0.936,0.40210462,0.97322387,0.92358625,1.3004668,2.3324833,-0.97391975
0.938,0.36350092,1.015292,0.89701295,1.2933753,2.2953706,-0.9938216
0.94,0.33689076,1.0539813,0.872446,1.2871321,2.2561378,-1.0124576
0.942,0.32122487,1.0896264,0.8497745,1.2823915,2.215982,-1.0291545
0.944,0.31588823,1.1222014,0.828997,1.2795936,2.1760888,-1.0435306
0.946,0.31939495,1.1520834,0.8100473,1.2790596,2.1376743,-1.0552378
0.948,0.33019823,1.1795709,0.7924202,1.2809948,2.1019053,-1.0640212
0.95,0.34657905,1.2049843,0.77534074,1.2854683,2.0697355,-1.0697825
0.952,0.3667248,1.2289042,0.75802135,1.2924225,2.041844,-1.0725331
0.954,0.3889142,1.2518858,0.739878,1.3016744,2.018557,-1.0723848
0.956,0.4110101,1.274505,0.72063017,1.3129224,1.9998215,-1.0695578
0.958,0.43091208,1.2974648,0.70032525,1.3257337,1.9852301,-1.0643585
0.96,0.44687915,1.3215551,0.6791434,1.3396223,1.9740846,-1.057154
0.962,0.4572516,1.347819,0.6578597,1.353993,1.9653798,-1.0484538
0.964,0.46103966,1.3768358,0.63715005,1.3682172,1.957993,-1.0387833
0.966,0.45744398,1.4078135,0.6176697,1.3818126,1.9508387,-1.0286114
0.968,0.444515,1.442111,0.60040605,1.3941556,1.9428571,-1.0185641
0.97,0.4231606,1.480117,0.5848938,1.4048058,1.9330698,-1.0091885
0.972,0.3931902,1.5218552,0.5717554,1.4135084,1.9205331,-1.0010805
0.974,0.35481885,1.5672183,0.56194854,1.4199492,1.9043434,-0.9949248
0.976,0.30846307,1.6159192,0.55712825,1.4238901,1.8837122,-0.9912821
0.978,0.25517,1.6672214,0.5592365,1.4251177,1.8579266,-0.9907221
0.98,0.19647217,1.7203974,0.57001984,1.4234564,1.8263519,-0.99380356
0.982,0.1337754,1.7743976,0.5905526,1.4187682,1.7884576,-1.0010241
0.984,0.06902444,1.8280517,0.621989,1.4109223,1.7438478,-1.0128069
0.986,0.004268557,1.8800242,0.6644348,1.3997916,1.6923441,-1.0294693
0.988,-0.05821094,1.9289159,0.71798754,1.3853023,1.6340306,-1.0511687
0.99,-0.11654717,1.9733336,0.7839818,1.3674433,1.5692737,-1.0779003
0.992,-0.16911596,2.012882,0.86347014,1.346304,1.4987631,-1.109463
0.994,-0.2137506,2.045335,0.95717573,1.3220445,1.4234738,-1.1454661
0.996,-0.24877629,2.0705168,1.0646398,1.2949483,1.3446069,-1.1852849
0.998,-0.27277875,2.0881548,1.1851243,1.2654145,1.2635083,-1.2280829
1,-0.2835779,2.0971065,1.3172848,1.2339436,1.1815612,-1.2728186
1.002,-0.28017774,2.096968,1.4598237,1.2011195,1.1000689,-1.3183012
1.004,-0.26138005,2.0875053,1.6112657,1.1675768,1.0201628,-1.3632734
1.006,-0.22621793,2.0686285,1.7696481,1.1339885,0.9427502,-1.4064707
1.008,-0.17400154,2.040402,1.9324713,1.1010697,0.8685195,-1.4466814
1.01,-0.10453004,2.003137,2.0972826,1.0695509,0.7978997,-1.482844
1.012,-0.01758647,1.9572544,2.2614827,1.0401522,0.7311169,-1.5140854
1.014,0.08684085,1.90351,2.4227264,1.013544,0.6682199,-1.5397415
1.016,0.2084555,1.8426781,2.578682,0.9902941,0.60911286,-1.5593511
1.018,0.34705192,1.7757024,2.7268414,0.97084594,0.5536041,-1.5726398
1.02,0.5020721,1.7035424,2.8643928,0.95549047,0.5014973,-1.5794966
1.022,0.67293906,1.627173,2.9884167,0.94437605,0.45263618,-1.5799358
1.024,0.8584726,1.5477246,3.096139,0.93749344,0.40695444,-1.5740683
1.026,1.0576701,1.4663492,3.1851757,0.9346789,0.36450297,-1.5621009
1.028,1.2692473,1.3842676,3.2535985,0.93563366,0.32539186,-1.5443034
1.03,1.4913828,1.3027382,3.3000052,0.93995845,0.2897998,-1.5210053
1.032,1.7223204,1.222868,3.3233268,0.94716775,0.25792423,-1.4925892
1.034,1.9603572,1.1458133,3.3231483,0.9567116,0.2299371,-1.4594736
1.036,2.203577,1.0726352,3.2991104,0.9679733,0.2058911,-1.4221069
1.038,2.4501576,1.0044979,3.251306,0.9803082,0.1856718,-1.3809954
1.04,2.698141,0.94220424,3.1803207,0.9930559,0.16893104,-1.3367018
1.042,2.9459426,0.88648796,3.08709,1.0055604,0.15512413,-1.2898709
1.044,3.1919801,0.837958,2.972935,1.0172367,0.14355087,-1.2411945
1.046,3.4348576,0.79709613,2.8391976,1.0276022,0.13339561,-1.1913737
1.048,3.6735415,0.7639172,2.6872663,1.0363107,0.123783946,-1.1410774
1.05,3.9071422,0.7383381,2.518855,1.0431569,0.113826394,-1.0909066
1.052,4.134811,0.72030723,2.3362532,1.0480902,0.1026952,-1.041388
1.054,4.3560424,0.7097157,2.1420012,1.0512226,0.089678794,-0.99295366
1.056,4.57134,0.7060976,1.9387972,1.0528016,0.07417172,-0.9459218
1.058,4.781077,0.7088223,1.7292949,1.0531934,0.0556722,-0.9004653
1.06,4.986027,0.7168937,1.5159211,1.0528088,0.033765316,-0.85666084
1.062,5.186812,0.7292019,1.301172,1.0520627,0.0080987215,-0.8144915
1.064,5.3843813,0.7445013,1.0876292,1.0513532,-0.021584079,-0.7738667
1.066,5.579975,0.76187164,0.8776262,1.0510547,-0.05546771,-0.7346556
1.068,5.7749968,0.7803031,0.6731856,1.0515006,-0.09366758,-0.69676524
1.07,5.970686,0.7984776,0.47629488,1.0529635,-0.13621722,-0.66011804
1.072,6.1679606,0.8153846,0.28870004,1.0556412,-0.1831065,-0.62460923
1.074,6.367631,0.83010364,0.11197406,1.0596185,-0.2342737,-0.59011465
1.076,6.570457,0.84194523,-0.05255744,1.0648785,-0.28960705,-0.5564667
1.078,6.7768455,0.85072553,-0.20375884,1.0713278,-0.34896898,-0.523397
1.08,6.986801,0.8563652,-0.3410881,1.0788368,-0.41201875,-0.4907856
1.082,7.20014,0.8590031,-0.46460104,1.0872018,-0.47839558,-0.458382
1.084,7.4163995,0.8590942,-0.57498205,1.0961803,-0.54767585,-0.42601186
1.086,7.6348715,0.85713273,-0.6734815,1.1055051,-0.6193961,-0.3935209
1.088,7.8541865,0.8539685,-0.76180017,1.1148987,-0.693064,-0.36083362
1.09,8.072595,0.85036767,-0.84156936,1.1240472,-0.76821566,-0.3279548
1.092,8.288051,0.84749556,-0.9140707,1.1326131,-0.84444475,-0.2949382
1.094,8.498278,0.84649897,-0.98098326,1.1402272,-0.92144126,-0.26185814
1.096,8.700893,0.8486656,-1.0444715,1.1464763,-0.9990312,-0.22884056
1.098,8.893271,0.8548036,-1.107013,1.1508917,-1.0771638,-0.19610786
1.1,9.073086,0.86578774,-1.1705126,1.1529961,-1.1558846,-0.16399711
1.102,9.237805,0.882244,-1.236405,1.1523314,-1.2353194,-0.13291296
1.104,9.384938,0.90482676,-1.3060946,1.1484874,-1.3156538,-0.103343844
1.106,9.511922,0.9342508,-1.3807154,1.1411211,-1.3971096,-0.075805455
1.108,9.6165495,0.9711578,-1.461001,1.1300063,-1.4799305,-0.050841898
1.11,9.696736,1.0159444,-1.5475702,1.115063,-1.5643417,-0.028998137
1.112,9.751301,1.0685875,-1.6405308,1.0964031,-1.6505134,-0.010758936
1.114,9.779329,1.129009,-1.7393694,1.0743467,-1.738582,0.0035127997
1.116,9.780251,1.196869,-1.8432255,1.049406,-1.828623,0.013563514
1.118,9.754214,1.2715282,-1.9514217,1.0222715,-1.9206641,0.019281328
1.12,9.70203,1.3518833,-2.0625036,0.993786,-2.0146835,0.02069074
1.122,9.624924,1.4368576,-2.1742926,0.964915,-2.1105964,0.017962277
1.124,9.524802,1.5251298,-2.2843904,0.9367174,-2.2082915,0.011345804
1.126,9.403848,1.6151503,-2.390324,0.91029114,-2.307609,0.0011395216
1.128,9.264854,1.7054832,-2.4895418,0.8867103,-2.4083705,-0.012284517
1.13,9.1109705,1.7944443,-2.5792472,0.86692846,-2.5103664,-0.028526902
1.132,8.945652,1.8803636,-2.6567023,0.8517489,-2.6133077,-0.04720211
1.134,8.772622,1.9615194,-2.7190404,0.8417486,-2.7169437,-0.06782335
1.136,8.595921,2.036149,-2.763599,0.83732903,-2.8208156,-0.09014338
1.138,8.419224,2.1029866,-2.788322,0.83865005,-2.9243186,-0.1138947
1.14,8.246435,2.160746,-2.791667,0.845681,-3.0266848,-0.1388579
1.142,8.0811,2.2084339,-2.772239,0.85822093,-3.1269002,-0.16482806
1.144,7.9265003,2.2453475,-2.7294383,0.875967,-3.2236495,-0.19164228
1.146,7.7854147,2.2709465,-2.6624637,0.8985766,-3.3153331,-0.2191447
1.148,7.660236,2.284915,-2.5711968,0.9257104,-3.4000647,-0.24718666
1.15,7.552628,2.2876244,-2.455978,0.9570812,-3.4758217,-0.27553606
1.152,7.463767,2.2795298,-2.3180814,0.99250543,-3.540539,-0.30384326
1.154,7.3942595,2.261391,-2.159038,1.031872,-3.5922997,-0.331681
1.156,7.3443327,2.2340252,-1.9806037,1.0751265,-3.629519,-0.3586234
1.158,7.313658,2.1984744,-1.7851536,1.1222416,-3.6510887,-0.3842379
1.16,7.301615,2.15595,-1.575376,1.1731641,-3.6565254,-0.40807968
1.162,7.306952,2.107604,-1.3543583,1.2277598,-3.6460457,-0.4297539
1.164,7.3279924,2.0544765,-1.1253927,1.2857919,-3.6205778,-0.44892645
1.166,7.3622727,1.9979312,-0.89191455,1.3468688,-3.5816994,-0.4653725
1.168,7.4075847,1.9393861,-0.6572584,1.4104972,-3.5314922,-0.47898114
1.17,7.4614854,1.880069,-0.42459184,1.4760801,-3.4723783,-0.4897465
1.172,7.5217266,1.8209496,-0.19696403,1.5429404,-3.4069638,-0.4977792
1.174,7.5856953,1.763006,0.022329867,1.610357,-3.3378983,-0.5033216
1.176,7.6510115,1.7067963,0.23035216,1.6775959,-3.2677264,-0.50672746
1.178,7.715389,1.6527137,0.4244529,1.7439209,-3.1987903,-0.5084406
1.18,7.7769313,1.6014144,0.60197455,1.8086307,-3.1332111,-0.5089955
1.182,7.833943,1.5532523,0.7603047,1.8711197,-3.0728512,-0.5089917
1.184,7.8854275,1.508375,0.89691144,1.9308711,-3.019309,-0.5090231
1.186,7.930426,1.466834,1.0099428,1.9874898,-2.9739175,-0.5096792
1.188,7.9685535,1.4286978,1.0980581,2.04071,-2.9376912,-0.5114524
1.19,7.9998755,1.3938899,1.1601884,2.0903816,-2.9114082,-0.51477814
1.192,8.024815,1.3623762,1.195312,2.1364918,-2.895621,-0.5199889
1.194,8.044257,1.3341339,1.202214,2.1791587,-2.8906274,-0.52730995
1.196,8.059268,1.3092443,1.179735,2.2186255,-2.896552,-0.53686404
1.198,8.071429,1.2875831,1.1273026,2.255248,-2.9134042,-0.54863966
1.2,8.082825,1.2692913,1.0456827,2.2894309,-2.9411018,-0.5625841
1.202,8.094193,1.2552785,0.935591,2.3216484,-2.979518,-0.5785779
1.204,8.106232,1.2470645,0.7953708,2.3523538,-3.0285096,-0.5964774
1.206,8.122638,1.2447524,0.6246759,2.3819566,-3.0879922,-0.6161228
1.208,8.147156,1.248145,0.4260862,2.4108248,-3.157943,-0.6373239
1.21,8.180762,1.2581322,0.20216238,2.4392517,-3.238398,-0.6598494
1.212,8.226405,1.2754078,-0.04530725,2.4674404,-3.3294563,-0.6834553
1.214,8.286115,1.3015562,-0.31142035,2.4955368,-3.4312446,-0.7079391
1.216,8.357595,1.3402562,-0.5961788,2.5235977,-3.543869,-0.7330247
1.218,8.44967,1.3901949,-0.89963436,2.5516462,-3.6673503,-0.7584034
1.22,8.555327,1.454971,-1.214514,2.5796843,-3.8015864,-0.78377247
1.222,8.66805,1.5389918,-1.531563,2.6076782,-3.9463077,-0.80883116
1.224,8.795415,1.6395285,-1.8494685,2.6356049,-4.101026,-0.8332769
1.226,8.944046,1.7514031,-2.165279,2.6634488,-4.2650404,-0.85682386
1.228,9.105432,1.8778144,-2.480849,2.6912022,-4.437407,-0.8792219
1.23,9.28108,2.0196095,-2.7862294,2.7188506,-4.6169786,-0.90030986
1.232,9.472406,2.1758704,-3.0701609,2.7463727,-4.802381,-0.92008173
1.234,9.676853,2.3493989,-3.3350694,2.7737947,-4.992088,-0.93864226
1.236,9.891035,2.5430288,-3.5838156,2.8012547,-5.1845055,-0.95610857
1.238,10.112704,2.7566695,-3.8124192,2.8288603,-5.3779626,-0.97265655
1.24,10.342942,2.9878342,-4.0129824,2.8566458,-5.5708313,-0.98860943
1.242,10.581414,3.2347178,-4.1791716,2.8846416,-5.761501,-1.0043361
1.244,10.826273,3.4968429,-4.30907,2.912928,-5.9484634,-1.0201873
1.246,11.0758915,3.7723174,-4.4030313,2.9417017,-6.1304245,-1.036561
1.248,11.330959,4.056553,-4.46242,2.9713464,-6.306456,-1.0536888
1.25,11.591896,4.3451715,-4.4892097,3.002164,-6.4758596,-1.0717503
1.252,11.858704,4.6342573,-4.4855394,3.03449,-6.638108,-1.0909948
1.254,12.131142,4.920886,-4.4527807,3.068923,-6.7931924,-1.1112286
1.256,12.409178,5.201969,-4.392713,3.1059139,-6.9414577,-1.1318519
1.258,12.692924,5.474284,-4.308151,3.1459758,-7.083459,-1.1526225
1.26,12.9836445,5.7339234,-4.203804,3.1894863,-7.220825,-1.173393
1.262,13.279728,5.9790916,-4.0855737,3.2369678,-7.3547907,-1.19361
1.264,13.579737,6.2078705,-3.9575443,3.289058,-7.4865046,-1.2128329
1.266,13.883431,6.4182305,-3.8219545,3.346293,-7.6179924,-1.2309816
1.268,14.189163,6.608692,-3.6801653,3.4091434,-7.7514434,-1.2479604
1.27,14.49454,6.778594,-3.5343056,3.477857,-7.8885436,-1.2633597
1.272,14.796972,6.9279118,-3.3861973,3.5524888,-8.030174,-1.2766222
1.274,15.093072,7.05728,-3.2369785,3.6330879,-8.176465,-1.2874832
1.276,15.379095,7.167708,-3.0873437,3.7197394,-8.326838,-1.2960527
1.278,15.650804,7.2612314,-2.9379048,3.8124185,-8.479769,-1.3026857
1.28,15.9035635,7.341046,-2.7881205,3.9108062,-8.632696,-1.3079623
1.282,16.132563,7.411046,-2.6363382,4.0142965,-8.782042,-1.3126856
1.284,16.332874,7.4756484,-2.4804118,4.122085,-8.923303,-1.3179332
1.286,16.499746,7.5395823,-2.318185,4.233305,-9.051178,-1.3249753
1.288,16.628613,7.6077666,-2.1475024,4.347111,-9.159687,-1.3351183
1.29,16.715076,7.685293,-1.96626,4.462795,-9.242468,-1.3494779
1.292,16.755535,7.77708,-1.7725002,4.580024,-9.293441,-1.368674
1.294,16.746233,7.8882623,-1.5644819,4.698855,-9.307148,-1.3926007
1.296,16.684658,8.023264,-1.3407953,4.819668,-9.278995,-1.4204011
1.298,16.56894,8.186138,-1.1008576,4.943027,-9.205583,-1.4506261
1.3,16.397896,8.380639,-0.84461486,5.069638,-9.085106,-1.4813819
1.302,16.171402,8.609632,-0.572068,5.200179,-8.917605,-1.5106857
1.304,15.889954,8.875328,-0.28348553,5.335319,-8.705233,-1.5366066
1.306,15.554778,9.179217,0.02001369,5.475314,-8.452059,-1.5574706
1.308,15.167845,9.52209,0.33659005,5.6197577,-8.163582,-1.5724751
1.31,14.731869,9.903782,0.66298246,5.7679124,-7.8465705,-1.5816087
1.312,14.251525,10.32263,0.9962356,5.9185615,-7.508583,-1.5851004
1.314,13.731452,10.776255,1.3356149,6.070221,-7.156783,-1.5839313
1.316,13.174055,11.262959,1.6785686,6.2210884,-6.7988143,-1.5799319
1.318,12.583228,11.780513,2.019912,6.3693857,-6.4415574,-1.5749675
1.32,11.965354,12.32481,2.3553128,6.5137053,-6.0901337,-1.5706929
1.322,11.325047,12.8919525,2.682222,6.6529784,-5.7487884,-1.5688002
1.324,10.668152,13.476492,2.9963365,6.7866282,-5.4211864,-1.5709388
1.326,10.003909,14.071815,3.2985604,6.914405,-5.110227,-1.5782375
1.328,9.330927,14.67619,3.5887733,7.036237,-4.817786,-1.5910338
1.33,8.663205,15.282891,3.8606448,7.152231,-4.5448136,-1.6091518
1.332,8.010237,15.885872,4.1083727,7.2627773,-4.291756,-1.6322702
1.334,7.367477,16.486034,4.334367,7.3685284,-4.0586905,-1.6600015
1.336,6.7351303,17.084148,4.538684,7.470189,-3.845449,-1.6918594
1.338,6.1273327,17.672464,4.725057,7.568351,-3.65168,-1.7272586
1.34,5.5458064,18.247076,4.8855534,7.6634154,-3.4769323,-1.7656008
1.342,4.9930573,18.806007,5.0144677,7.7556033,-3.3206697,-1.8063846
1.344,4.4751062,19.3443,5.120342,7.844998,-3.182272,-1.8493261
1.346,3.997396,19.858921,5.208662,7.9315658,-3.0609193,-1.8942918
1.348,3.5625522,20.350471,5.2769823,8.015225,-2.955762,-1.9412789
1.35,3.17022,20.821507,5.3210273,8.095825,-2.8661623,-1.9904461
1.352,2.8218813,21.272959,5.3401747,8.173204,-2.7915926,-2.041943
1.354,2.5199347,21.704693,5.3386116,8.247112,-2.7315886,-2.0959053
1.356,2.2651615,22.118277,5.3218117,8.317248,-2.6857352,-2.1524866
1.358,2.0566967,22.516779,5.2949667,8.383312,-2.6536908,-2.211855
1.36,1.8934798,22.902424,5.2626343,8.445026,-2.635285,-2.274235
1.362,1.7748027,23.276505,5.2284555,8.502096,-2.630476,-2.3398755
1.364,1.6999454,23.639141,5.1952314,8.554221,-2.639357,-2.4090052
1.366,1.667172,23.99125,5.1655617,8.601083,-2.662137,-2.4818442
1.368,1.6745303,24.333841,5.143255,8.642401,-2.699113,-2.558577
1.37,1.7186344,24.669003,5.1332397,8.677946,-2.7505727,-2.6393995
1.372,1.7985024,24.996908,5.1406784,8.707551,-2.8167262,-2.7244577
1.374,1.912004,25.318502,5.1680965,8.731128,-2.8976564,-2.8138208
1.376,2.055297,25.635284,5.2163353,8.74871,-2.993219,-2.9074993
1.378,2.2256818,25.948677,5.286503,8.760368,-3.1030712,-3.005445
1.38,2.4206922,26.259457,5.3810825,8.766225,-3.226637,-3.1075795
1.382,2.6377664,26.567936,5.5022755,8.766421,-3.3631492,-3.2137833
1.384,2.8740191,26.874786,5.651678,8.761061,-3.5116851,-3.3239393
1.386,3.1270778,27.18018,5.831129,8.750234,-3.6712031,-3.437901
1.388,3.3946009,27.48332,6.0421762,8.733962,-3.8406327,-3.5555363
1.39,3.674406,27.783009,6.2853556,8.712241,-4.0189486,-3.676725
1.392,3.9641135,28.077957,6.5596952,8.685011,-4.20519,-3.8013737
1.394,4.261764,28.367077,6.864847,8.652132,-4.3984675,-3.9293814
1.396,4.5661125,28.648478,7.2003345,8.613438,-4.5980124,-4.060657
1.398,4.875579,28.92099,7.565083,8.568736,-4.8031445,-4.195077
1.4,5.188939,29.182865,7.9584436,8.517883,-5.0131936,-4.332517
1.402,5.505138,29.432344,8.379454,8.460732,-5.2274895,-4.4728775
1.404,5.8236957,29.667454,8.826771,8.397211,-5.445244,-4.6160274
1.406,6.1439877,29.886648,9.29847,8.327308,-5.6655216,-4.7618465
1.408,6.4655294,30.088165,9.792508,8.251097,-5.887203,-4.910197
1.41,6.7882023,30.270184,10.3068905,8.168724,-6.1089735,-5.0609226
1.412,7.1117587,30.431007,10.839227,8.080424,-6.329338,-5.21376
1.414,7.43595,30.569344,11.386842,7.9864535,-6.5467253,-5.368389
1.416,7.7612934,30.683744,11.9471855,7.8870983,-6.759468,-5.5244226
1.418,8.087795,30.773052,12.517733,7.782678,-6.965871,-5.6813765
1.42,8.415417,30.836504,13.09596,7.673467,-7.1643047,-5.8386703
1.422,8.744394,30.873413,13.67935,7.5597034,-7.353283,-5.9956517
1.424,9.0748625,30.883364,14.265495,7.441596,-7.531584,-6.1516733
1.426,9.406885,30.866304,14.851549,7.319372,-7.6980453,-6.3060594
1.428,9.74068,30.82245,15.434788,7.1931834,-7.851776,-6.458186
1.43,10.0764675,30.75201,16.01235,7.063159,-7.9921236,-6.6074595
1.432,10.414593,30.655365,16.581179,6.9294453,-8.118618,-6.7533474
1.434,10.755209,30.533197,17.138277,6.792177,-8.230999,-6.8953624
1.436,11.098403,30.386362,17.680958,6.6515217,-8.329206,-7.033105
1.438,11.444484,30.215755,18.206444,6.50765,-8.413376,-7.1662426
1.44,11.793669,30.022467,18.712261,6.3607316,-8.483761,-7.2945375
1.442,12.146204,29.807402,19.196032,6.2109113,-8.540742,-7.4178076
1.444,12.502302,29.57143,19.655727,6.0583234,-8.584795,-7.5359144
1.446,12.862309,29.315529,20.089363,5.903062,-8.616406,-7.648774
1.448,13.2264,29.040419,20.495064,5.7452183,-8.636105,-7.7563267
1.45,13.594961,28.74692,20.871002,5.584837,-8.644396,-7.858521
1.452,13.968429,28.435255,21.21586,5.4218965,-8.641754,-7.955345
1.454,14.346868,28.105825,21.528168,5.2563543,-8.628639,-8.046779
1.456,14.730186,27.75869,21.806873,5.088131,-8.605462,-8.132756
1.458,15.11831,27.393852,22.05139,4.9171214,-8.572693,-8.213198
1.46,15.510868,27.011143,22.261196,4.74325,-8.530786,-8.288004
1.462,15.907537,26.610373,22.436043,4.5664377,-8.480223,-8.357052
1.464,16.307983,26.191158,22.575918,4.3866863,-8.421467,-8.420192
1.466,16.711767,25.752983,22.681023,4.204053,-8.354979,-8.477329
1.468,17.11803,25.295559,22.751698,4.018723,-8.281111,-8.528348
1.47,17.526178,24.818445,22.78856,3.8309946,-8.200185,-8.573141
1.472,17.935486,24.32105,22.792313,3.6412587,-8.112436,-8.611631
1.474,18.344763,23.803293,22.763737,3.4500597,-8.018055,-8.643766
1.476,18.753363,23.264744,22.704174,3.258014,-7.9171324,-8.669462
1.478,19.160187,22.70543,22.615093,3.0658278,-7.8097305,-8.688586
1.48,19.564606,22.125097,22.497894,2.8742213,-7.69614,-8.701053
1.482,19.965475,21.524006,22.353767,2.683972,-7.576589,-8.706774
1.484,20.361856,20.902538,22.183872,2.495819,-7.4514284,-8.705666
1.486,20.752747,20.26123,21.989445,2.3104658,-7.321118,-8.697658
1.488,21.137173,19.600508,21.771612,2.1285336,-7.1862087,-8.682754
1.49,21.514294,18.921154,21.5316,1.9505775,-7.0472565,-8.661004
1.492,21.882889,18.224318,21.270792,1.7770708,-6.9048343,-8.632521
1.494,22.242023,17.510887,20.990644,1.608381,-6.759511,-8.597462
1.496,22.590136,16.782223,20.692066,1.4447913,-6.6118274,-8.556036
1.498,22.925777,16.039913,20.375908,1.2864864,-6.4622455,-8.508451
1.5,23.247465,15.285744,20.043146,1.1335323,-6.3112493,-8.454903
1.502,23.553556,14.52164,19.695261,0.98590755,-6.159231,-8.395554
1.504,23.84235,13.749168,19.332872,0.8435173,-6.0065746,-8.3305
1.506,24.11141,12.971121,18.95719,0.70622635,-5.85363,-8.259744
1.508,24.358995,12.18965,18.569725,0.5738778,-5.7007074,-8.183223
1.51,24.583057,11.407464,18.171413,0.44634366,-5.5480757,-8.100807
1.512,24.78183,10.627508,17.76339,0.32353568,-5.395882,-8.012312
1.514,24.9535,9.8526745,17.347054,0.20539951,-5.2441816,-7.917549
1.516,25.096413,9.08587,16.923878,0.092007875,-5.092928,-7.8163347
1.518,25.209166,8.330226,16.495758,-0.01650405,-4.9419794,-7.708536
1.52,25.290651,7.588836,16.06449,-0.119894266,-4.7911115,-7.594062
1.522,25.339954,6.8648014,15.631803,-0.21786809,-4.640042,-7.4728737
1.524,25.356792,6.1608644,15.199636,-0.31006932,-4.4884863,-7.345026
1.526,25.340834,5.479935,14.769844,-0.3961215,-4.3361526,-7.210632
1.528,25.292294,4.824649,14.343946,-0.47564888,-4.1828322,-7.069893
1.53,25.212255,4.197068,13.923526,-0.5483217,-4.028383,-6.9231052
1.532,25.101788,3.5992813,13.509881,-0.61387444,-3.8727384,-6.7706285
1.534,24.962448,3.0330915,13.104317,-0.6721389,-3.7158914,-6.6128807
1.536,24.796316,2.4996233,12.708229,-0.72304654,-3.5578895,-6.450362
1.538,24.605354,1.9997568,12.322636,-0.7666435,-3.3987837,-6.2836614
1.54,24.392273,1.5339756,11.948488,-0.80309224,-3.2385712,-6.113422
1.542,24.15965,1.102355,11.586412,-0.8326297,-3.0771997,-5.9403048
1.544,23.910278,0.70464325,11.2370205,-0.8555994,-2.9145265,-5.764975
1.546,23.646702,0.3400631,10.900573,-0.8723779,-2.750353,-5.5881243
1.548,23.371479,0.0075263977,10.577391,-0.8833953,-2.584446,-5.4104185
1.55,23.087162,-0.29423332,10.267395,-0.88912237,-2.4165807,-5.2324657
1.552,22.79575,-0.5667877,9.970185,-0.89002323,-2.2465885,-5.05485
1.554,22.499485,-0.81180286,9.6853485,-0.8865768,-2.0744019,-4.8780828
1.556,22.200132,-1.031271,9.412418,-0.8792769,-1.9001219,-4.702637
1.558,21.89909,-1.227169,9.151082,-0.8686178,-1.7239763,-4.5289474
1.56,21.597237,-1.4014826,8.901148,-0.85508156,-1.5463436,-4.3573947
1.562,21.295265,-1.5560579,8.6625,-0.83913857,-1.3677295,-4.1883254
1.564,20.993477,-1.6926651,8.435086,-0.82124317,-1.1887212,-4.0220656
1.566,20.692007,-1.8132582,8.21879,-0.80180055,-1.0099751,-3.8589077
1.568,20.390778,-1.9196129,8.013538,-0.7811673,-0.8321258,-3.6990929
1.57,20.089514,-2.0133638,7.8194456,-0.7596574,-0.65577847,-3.5428507
1.572,19.787348,-2.0958347,7.6365643,-0.73751557,-0.4814794,-3.3903947
1.574,19.483482,-2.168252,7.464947,-0.71493584,-0.3097235,-3.2419226
1.576,19.176884,-2.231762,7.304631,-0.6920562,-0.14095807,-3.097643
1.578,18.866447,-2.287301,7.1559753,-0.66897726,0.024427533,-2.9577508
1.58,18.550797,-2.335723,7.0192385,-0.6457679,0.18607283,-2.8224247
1.582,18.228586,-2.3775854,6.8947434,-0.62250286,0.34364307,-2.6918294
1.584,17.898647,-2.4136543,6.7825265,-0.5992638,0.4967996,-2.5660987
1.586,17.55994,-2.4443502,6.682353,-0.5761541,0.64520043,-2.4453433
1.588,17.211515,-2.4699783,6.593527,-0.55331355,0.7885225,-2.32966
1.59,16.85236,-2.4905577,6.5154095,-0.53091407,0.92644155,-2.2191026
1.592,16.481888,-2.5062623,6.4475546,-0.50917166,1.0586847,-2.1136925
1.594,16.099306,-2.5170941,6.389486,-0.48830053,1.1850493,-2.0134273
1.596,15.70406,-2.5230184,6.340647,-0.4685207,1.305396,-1.9182817
1.598,15.295752,-2.523848,6.300349,-0.45003283,1.4196798,-1.8282201
1.6,14.874079,-2.5194058,6.2677755,-0.43301326,1.5279522,-1.7431792
1.602,14.439114,-2.509431,6.241973,-0.4175927,1.6303468,-1.6630812
1.604,13.991162,-2.493731,6.222048,-0.40385252,1.7270732,-1.5878528
1.606,13.530713,-2.472054,6.207244,-0.39183712,1.8184259,-1.5173862
1.608,13.058186,-2.4440265,6.1969824,-0.3815341,1.9047488,-1.4515544
1.61,12.574177,-2.4092822,6.1905766,-0.37288344,1.9864577,-1.3901908
1.612,12.079596,-2.3675327,6.1874976,-0.3658057,2.0639758,-1.3331203
1.614,11.575476,-2.3183532,6.1874323,-0.3601849,2.137758,-1.2801306
1.616,11.063003,-2.2616343,6.1900206,-0.35587335,2.2082644,-1.2309743
1.618,10.54344,-2.1970234,6.1949453,-0.35266465,2.2759702,-1.1854048
1.62,10.018349,-2.1244779,6.20189,-0.3503523,2.341356,-1.1432031
1.622,9.489208,-2.043695,6.210901,-0.3487085,2.4049013,-1.1041852
1.624,8.957595,-1.9546919,6.221991,-0.34753567,2.4670837,-1.0681896
1.626,8.425127,-1.8573909,6.235391,-0.34667248,2.5283556,-1.035108
1.628,7.8939743,-1.7520342,6.2511253,-0.34599352,2.5890915,-1.0048655
1.63,7.3658733,-1.6387298,6.2693143,-0.34543198,2.6495438,-0.97741735
1.632,6.8430686,-1.5178726,6.2904506,-0.34499097,2.7097712,-0.9527271
1.634,6.327174,-1.389631,6.314886,-0.34475404,2.7695804,-0.9307724
1.636,5.819971,-1.25455,6.3432393,-0.34486687,2.8285046,-0.9115168
1.638,5.323393,-1.1132312,6.376021,-0.34555078,2.885828,-0.89491737
1.64,4.8384914,-0.966043,6.4137945,-0.34709644,2.9406483,-0.8809082
1.642,4.366584,-0.8137405,6.457185,-0.34978843,2.9919326,-0.8693841
1.644,3.9086876,-0.65702367,6.506875,-0.35392094,3.0386438,-0.8602314
1.646,3.4652956,-0.4963956,6.563408,-0.35976136,3.079852,-0.8533296
1.648,3.0367863,-0.3323903,6.6274576,-0.36755812,3.114852,-0.8485539
1.65,2.6229153,-0.16558933,6.6996007,-0.3774966,3.1432433,-0.8457682
1.652,2.223455,0.0035357475,6.780343,-0.38969862,3.16496,-0.84484184
1.654,1.8374817,0.174649,6.8700256,-0.40423107,3.180256,-0.8456807
1.656,1.4639354,0.3474369,6.968895,-0.42109,3.1896846,-0.84822154
1.658,1.1013927,0.5217378,7.0765915,-0.44025087,3.194001,-0.85242593
1.66,0.7482507,0.69737065,7.1931963,-0.46164906,3.1940508,-0.8583062
1.662,0.40272355,0.87436104,7.318554,-0.48518836,3.190731,-0.86592466
1.664,0.062801,1.0528708,7.452186,-0.51076996,3.1849124,-0.875385
1.666,-0.27348626,1.2330248,7.593293,-0.5382688,3.1773908,-0.8868333
1.668,-0.6083753,1.4152708,7.740779,-0.5675609,3.1688657,-0.9004652
1.67,-0.9437343,1.5997034,7.8933,-0.5985018,3.1599233,-0.91650355
1.672,-1.2816571,1.7868536,8.0493765,-0.63095284,3.1510406,-0.93519163
1.674,-1.6238445,1.9770082,8.207472,-0.6647287,3.142583,-0.95676666
1.676,-1.971313,2.170784,8.366173,-0.69963443,3.1348212,-0.9814827
1.678,-2.3256183,2.368388,8.523675,-0.73544616,3.1279297,-1.0096068
1.68,-2.687867,2.5703535,8.678443,-0.77195084,3.1220148,-1.041419
1.682,-3.058328,2.777041,8.828808,-0.8089556,3.1171265,-1.0771742
1.684,-3.4373446,2.9888773,8.973276,-0.8463178,3.1132636,-1.1171255
1.686,-3.8246503,3.2062755,9.11066,-0.8839246,3.1103988,-1.161545
1.688,-4.2195673,3.4295218,9.239653,-0.92168283,3.1084852,-1.2106797
1.69,-4.6214123,3.6590884,9.359284,-0.95955586,3.1074486,-1.2647473
1.692,-5.028679,3.895222,9.468715,-0.99751437,3.107192,-1.3239353
1.694,-5.440089,4.1382885,9.567623,-1.0355692,3.107555,-1.3884308
1.696,-5.8538485,4.3883905,9.655594,-1.0737638,3.1083903,-1.4584118
1.698,-6.26791,4.645389,9.732659,-1.1121504,3.1095307,-1.5340469
1.7,-6.679847,4.908957,9.799032,-1.1507876,3.1107783,-1.6154953
1.702,-7.0873027,5.178915,9.854775,-1.189729,3.1119275,-1.7029225
1.704,-7.4875717,5.454833,9.900326,-1.2290297,3.1127467,-1.7965219
1.706,-7.8777714,5.736231,9.936222,-1.268696,3.1129606,-1.8964723
1.708,-8.254953,6.0224037,9.962741,-1.3087406,3.112282,-2.0029511
1.71,-8.61633,6.312357,9.980265,-1.3491738,3.1103225,-2.1161208
1.712,-8.9592285,6.6050596,9.989302,-1.3899624,3.1066055,-2.2361264
1.714,-9.281002,6.899155,9.990271,-1.4310907,3.100565,-2.3630762
1.716,-9.579203,7.19312,9.983776,-1.4725405,3.091487,-2.4970407
1.718,-9.851425,7.485234,9.9703045,-1.5142996,3.0785165,-2.6380217
1.72,-10.095524,7.7736545,9.950298,-1.556376,3.0606813,-2.7859647
1.722,-10.309874,8.056594,9.924181,-1.5987934,3.0368783,-2.940744
1.724,-10.493011,8.331922,9.892148,-1.6416018,3.0059345,-3.1021602
1.726,-10.643951,8.597705,9.854054,-1.6848824,2.9666057,-3.269933
1.728,-10.761596,8.851694,9.810003,-1.7287518,2.917626,-3.443732
1.73,-10.845313,9.092024,9.76001,-1.7733328,2.857764,-3.62315
1.732,-10.895301,9.316486,9.7039585,-1.8187716,2.7858799,-3.8077266
1.734,-10.911056,9.523378,9.64175,-1.8652239,2.7009265,-3.9969327
1.736,-10.892688,9.710589,9.573063,-1.9128599,2.6020348,-4.190206
1.738,-10.841724,9.876572,9.497896,-1.9618421,2.4885075,-4.386952
1.74,-10.7586355,10.019783,9.41615,-2.01235,2.3598337,-4.5865507
1.742,-10.644431,10.138985,9.3277025,-2.064566,2.2157273,-4.788381
1.744,-10.500097,10.232906,9.232759,-2.1186686,2.056138,-4.9918394
1.746,-10.32684,10.300853,9.130972,-2.1748357,1.881248,-5.1963367
1.748,-10.125849,10.342207,9.022598,-2.2332032,1.6915495,-5.4012947
1.75,-9.898173,10.356537,8.907704,-2.2938926,1.4877818,-5.606178
1.752,-9.645089,10.343708,8.786593,-2.356991,1.2709908,-5.8104777
1.754,-9.367944,10.303995,8.659569,-2.4225223,1.0425363,-6.013736
1.756,-9.067469,10.238022,8.527331,-2.4904685,0.8040719,-6.2155223
1.758,-8.7444105,10.146296,8.390552,-2.560741,0.5575528,-6.415445
1.76,-8.39944,10.02981,8.250331,-2.6332102,0.3051963,-6.613168
1.762,-8.03312,9.889807,8.10799,-2.7076511,0.049419403,-6.8084126
1.764,-7.6458063,9.727675,7.9650273,-2.7837367,-0.20716906,-7.000943
1.766,-7.2374215,9.544954,7.8228245,-2.861124,-0.46185637,-7.1905985
1.768,-6.80835,9.343522,7.682949,-2.9393978,-0.7119024,-7.377226
1.77,-6.35885,9.125434,7.546635,-3.0180793,-0.9546032,-7.560691
1.772,-5.8890038,8.892904,7.415566,-3.096658,-1.1874089,-7.7409105
1.774,-5.398857,8.64823,7.291677,-3.1746016,-1.4079714,-7.917783
1.776,-4.88861,8.393947,7.1770363,-3.251369,-1.6141615,-8.091225
1.778,-4.3582306,8.132559,7.0735207,-3.326427,-1.8041782,-8.261154
1.78,-3.8078551,7.8667974,6.9827566,-3.3992229,-1.9765143,-8.427486
1.782,-3.2377229,7.5994124,6.9059553,-3.469203,-2.12998,-8.590118
1.784,-2.648005,7.332976,6.844082,-3.5358348,-2.2637303,-8.748951
1.786,-2.0396194,7.0700145,6.7979956,-3.5985458,-2.3772361,-8.903903
1.788,-1.4127755,6.813311,6.7688675,-3.6567638,-2.4702106,-9.054898
1.79,-0.76809293,6.5655556,6.757223,-3.7099185,-2.5426812,-9.201888
1.792,-0.10657263,6.3292127,6.7633557,-3.7574525,-2.594907,-9.344843
1.794,0.57070637,6.1068454,6.7873797,-3.7988508,-2.6274326,-9.483762
1.796,1.2631382,5.900929,6.8290033,-3.8336434,-2.641076,-9.618732
1.798,1.9693727,5.7125874,6.886854,-3.8614306,-2.63695,-9.749862
1.8,2.6878161,5.54542,6.961281,-3.881897,-2.6164527,-9.877331
1.802,3.4180834,5.40085,7.050763,-3.8948076,-2.5812025,-10.001353
1.804,4.1590543,5.280615,7.1543517,-3.9000108,-2.5330024,-10.12224
1.806,4.9098125,5.1865854,7.270859,-3.897423,-2.473804,-10.240326
1.808,5.669648,5.1204224,7.3989773,-3.887041,-2.4056463,-10.355989
1.81,6.4380093,5.0835257,7.537327,-3.868925,-2.3306327,-10.469633
1.812,7.214683,5.077189,7.684461,-3.8431895,-2.2508922,-10.581666
1.814,7.9996357,5.1026535,7.8389626,-3.8099732,-2.1685853,-10.692481
1.816,8.792847,5.1608906,7.9995728,-3.7694948,-2.0859337,-10.80243
1.818,9.594783,5.2527227,8.165767,-3.722047,-2.0051827,-10.911817
1.82,10.40615,5.3789244,8.336847,-3.6679525,-1.928637,-11.02089
1.822,11.228199,5.5397367,8.512187,-3.6076121,-1.8586226,-11.129828
1.824,12.061934,5.73548,8.69166,-3.5414968,-1.7974367,-11.238735
1.826,12.908926,5.966158,8.875431,-3.4701345,-1.7473335,-11.347674
1.828,13.770732,6.2316513,9.0636215,-3.39417,-1.7107911,-11.456446
1.83,14.648977,6.531573,9.25651,-3.3142269,-1.68994,-11.564875
1.832,15.545413,6.865096,9.454462,-3.2310102,-1.6868081,-11.672798
1.834,16.46146,7.2315884,9.65782,-3.1453176,-1.7033443,-11.779926
1.836,17.400629,7.6287007,9.867305,-3.0579805,-1.7412515,-11.885948
1.838,18.365942,8.0500145,10.08206,-2.9698448,-1.802031,-11.990568
1.84,19.349031,8.503029,10.309223,-2.8817906,-1.8869305,-12.093475
1.842,20.35892,8.978804,10.550249,-2.7946806,-1.9969449,-12.194408
1.844,21.397657,9.479609,10.802086,-2.7093616,-2.1327634,-12.293137
1.846,22.464268,10.003985,11.06735,-2.6266222,-2.2947638,-12.38946
1.848,23.563366,10.548437,11.345739,-2.547153,-2.4829903,-12.48324
1.85,24.69532,11.109318,11.638578,-2.471552,-2.6971438,-12.574369
1.852,25.85811,11.685884,11.947224,-2.4002824,-2.936603,-12.662752
1.854,27.053562,12.274263,12.271339,-2.3337157,-3.2004929,-12.748301
1.856,28.28209,12.87184,12.611809,-2.2720702,-3.4876823,-12.83086
1.858,29.542875,13.476387,12.969509,-2.2154527,-3.7968616,-12.910223
1.86,30.835003,14.085516,13.3452635,-2.163849,-4.126588,-12.986107
1.862,32.15868,14.695171,13.739815,-2.1171503,-4.4752917,-13.058132
1.864,33.51068,15.304322,14.153822,-2.0751348,-4.841328,-13.125797
1.866,34.888203,15.911081,14.588111,-2.037501,-5.2228603,-13.188427
1.868,36.290752,16.512154,15.042236,-2.0039434,-5.6178117,-13.245071
1.87,37.714462,17.10615,15.515714,-1.9741902,-6.0247197,-13.295154
1.872,39.156166,17.691097,16.008549,-1.9476426,-6.441049,-13.337521
1.874,40.61241,18.26472,16.520702,-1.9239068,-6.8646297,-13.370935
1.876,42.079037,18.82548,17.052269,-1.9024312,-7.2933526,-13.394346
1.878,43.552055,19.372211,17.603241,-1.8826156,-7.7246327,-13.406609
1.88,45.028145,19.903412,18.173258,-1.8639302,-8.155832,-13.40649
1.882,46.50397,20.418055,18.761374,-1.8456721,-8.583912,-13.393094
1.884,47.97612,20.915016,19.36669,-1.827035,-9.00602,-13.365356
1.886,49.44161,21.39332,19.988111,-1.8070371,-9.419314,-13.3223
1.888,50.89756,21.851685,20.624445,-1.7845616,-9.821007,-13.263296
1.89,52.34129,22.288706,21.274372,-1.7584677,-10.20867,-13.18792
1.892,53.77055,22.703148,21.936459,-1.727623,-10.580159,-13.095817
1.894,55.182896,23.093857,22.608917,-1.6909816,-10.933902,-12.986889
1.896,56.57664,23.459507,23.288857,-1.6475348,-11.268784,-12.861352
1.898,57.950504,23.79916,23.973186,-1.5963895,-11.584062,-12.71942
1.9,59.302963,24.111763,24.658756,-1.5368221,-11.879583,-12.561481
1.902,60.633327,24.396584,25.34267,-1.4682543,-12.155561,-12.388
1.904,61.940735,24.652786,26.022045,-1.3902164,-12.41253,-12.1993065
1.906,63.224327,24.879955,26.693954,-1.302278,-12.651224,-11.995605
1.908,64.48393,25.079086,27.356192,-1.2040241,-12.872545,-11.776962
1.91,65.72002,25.248758,28.00483,-1.0950375,-13.077528,-11.543292
1.912,66.93137,25.390772,28.637867,-0.97490346,-13.267269,-11.294344
1.914,68.118164,25.506527,29.25307,-0.84320134,-13.44283,-11.029877
1.916,69.280045,25.598518,29.848667,-0.6995203,-13.605238,-10.749745
1.918,70.41709,25.670036,30.423378,-0.54346365,-13.75544,-10.45395
1.92,71.529465,25.725647,30.976566,-0.37459975,-13.894349,-10.142659
1.922,72.61798,25.77086,31.508707,-0.19242208,-14.022854,-9.816303
1.924,73.68353,25.812273,32.020866,0.0036604404,-14.141231,-9.4750185
1.926,74.727684,25.857708,32.51483,0.21404803,-14.250715,-9.119539
1.928,75.75247,25.91637,32.992546,0.439479,-14.351938,-8.75036
1.93,76.760605,25.998922,33.456993,0.68062925,-14.445563,-8.36771
1.932,77.755035,26.117268,33.91191,0.93814313,-14.532665,-7.971914
1.934,78.73877,26.28419,34.362045,1.2127421,-14.6141815,-7.563237
1.936,79.714516,26.513767,34.81302,1.5049324,-14.691158,-7.1417685
1.938,80.6849,26.82062,35.27147,1.8150327,-14.764582,-6.7076263
1.94,81.653336,27.220097,35.743927,2.1432238,-14.835292,-6.2608824
1.942,82.62232,27.727978,36.237007,2.489557,-14.904122,-5.8014884
1.944,83.59516,28.360502,36.757355,2.8539999,-14.971794,-5.32942
1.946,84.57343,29.135107,37.31131,3.2364342,-15.039054,-4.8447065
1.948,85.56027,30.07139,37.907104,3.636677,-15.106544,-4.347313
1.95,86.567375,31.177467,38.546867,4.054451,-15.174904,-3.837138
1.952,87.58798,32.47699,39.23668,4.4894543,-15.244756,-3.3142807
1.954,88.62454,33.98005,39.98408,4.941386,-15.316419,-2.7787678
1.956,89.675186,35.70198,40.794876,5.4098964,-15.390114,-2.2306123
1.958,90.73923,37.649258,41.676777,5.8945894,-15.465864,-1.6698513
1.96,91.820404,39.843163,42.629982,6.394994,-15.543426,-1.0963876
1.962,92.922,42.307064,43.63704,6.9106236,-15.622158,-0.5099416
1.964,94.06736,45.02217,44.698154,7.4409223,-15.701101,0.090022564
1.966,95.25597,48.012432,45.82809,7.9852986,-15.778971,0.7043997
1.968,96.4874,51.305416,47.035835,8.543239,-15.854082,1.334411
1.97,97.753426,54.909447,48.300293,9.114158,-15.924257,1.9817486
1.972,99.06629,58.810486,49.59922,9.697515,-15.986768,2.6485546
1.974,100.42695,63.00549,50.931396,10.29274,-16.038157,3.3374567
1.976,101.825,67.49346,52.296135,10.899324,-16.07407,4.0513515
1.978,103.271645,72.25854,53.70594,11.5168,-16.089294,4.793332
1.98,104.759796,77.315216,55.127792,12.144839,-16.0776,5.5666027
1.982,106.29014,82.677444,56.522823,12.783311,-16.031506,6.3743544
1.984,107.81395,88.32779,57.9255,13.432336,-15.94259,7.2200327
1.986,109.29411,94.216034,59.414192,14.091885,-15.801581,8.107195
1.988,110.82747,100.2679,61.03867,14.762018,-15.598566,9.040127
1.99,112.49979,106.45269,62.780987,15.444043,-15.321369,10.023513
1.992,114.35673,112.79678,64.54628,16.139214,-14.957676,11.061766
1.994,116.41472,119.34097,66.22691,16.847507,-14.495011,12.161726
1.996,118.642136,126.07425,67.81889,17.568508,-13.920415,13.331545
1.998,121.04383,132.90265,69.33296,18.302666,-13.217519,14.579983
2,123.61694,139.69711,70.85526,19.050121,-12.366842,15.915766
2.002,126.3853,146.40964,72.402954,19.808262,-11.350472,17.344978
2.004,129.38663,153.03186,73.99217,20.573671,-10.150177,18.869133
2.006,132.65466,159.53798,75.61235,21.343489,-8.744226,20.485655
2.008,136.21512,165.87262,77.221214,22.111519,-7.1111774,22.190931
2.01,140.08835,171.961,78.792145,22.868908,-5.2274866,23.976952
2.012,144.29205,177.72319,80.29021,23.602959,-3.071712,25.823647
2.014,148.83722,183.06226,81.6967,24.294909,-0.63084954,27.697746
2.016,153.71663,187.90465,83.002,24.924225,2.105267,29.560114
2.018,158.91772,192.17953,84.181915,25.466862,5.1385636,31.367064
2.02,164.42986,195.82712,85.19416,25.902306,8.457983,33.071632
2.022,170.23378,198.8065,85.98129,26.212425,12.042633,34.619827
2.024,176.32787,201.0732,86.48015,26.38335,15.860001,35.9554
2.026,182.70267,202.59763,86.624176,26.401175,19.864742,37.02904
2.028,189.32141,203.3666,86.33317,26.249577,23.996674,37.799137
2.03,196.13016,203.37228,85.51758,25.91474,28.154797,38.22226
2.032,203.05695,202.61978,84.09604,25.406681,32.245224,38.29622
2.034,210.0358,201.12337,81.985725,24.750032,36.171307,38.038605
2.036,216.98788,198.91173,79.12291,23.981434,39.835365,37.469543
2.038,223.82112,196.01924,75.47779,23.146637,43.140022,36.600662
2.04,230.42786,192.48819,71.037964,22.296434,45.994286,35.438515
2.042,236.69357,188.3688,65.79591,21.481918,48.32531,33.983944
2.044,242.5144,183.71721,59.74904,20.746914,50.085804,32.232777
2.046,247.77983,178.59923,52.916794,20.121078,51.258137,30.177452
2.048,252.37663,173.08743,45.344395,19.616798,51.853188,27.808336
2.05,256.19962,167.2544,37.102856,19.227478,51.905647,25.119902
2.052,259.14212,161.17905,28.273003,18.927889,51.468185,22.114767
2.054,261.12177,154.92938,18.946686,18.678305,50.60503,18.808216
2.056,262.0884,148.56706,9.247505,18.431196,49.388123,15.231074
2.058,261.9858,142.15327,-0.6681595,18.133308,47.887146,11.429879
2.06,260.78262,135.74255,-10.636261,17.729393,46.15928,7.467987
2.062,258.48422,129.37714,-20.486458,17.170431,44.24892,3.4253979
2.064,255.12369,123.09721,-30.046143,16.415852,42.182922,-0.5975876
2.066,250.7627,116.95293,-39.15148,15.436467,39.973824,-4.4805927
2.068,245.47882,111.00676,-47.64041,14.215685,37.623734,-8.095245
2.07,239.36801,105.29645,-55.35183,12.748331,35.120293,-11.320373
2.072,232.5459,99.850945,-62.134064,11.043734,32.444687,-14.048668
2.074,225.12218,94.73661,-67.88097,9.118872,29.57481,-16.194748
2.076,217.24419,89.96844,-72.51997,7.000386,26.484015,-17.700014
2.078,209.06042,85.56067,-75.99034,4.7202415,23.148535,-18.543564
2.08,200.72353,81.5444,-78.22859,2.317275,19.554596,-18.748672
2.082,192.35823,77.962204,-79.209465,-0.16491985,15.706875,-18.375893
2.084,184.09848,74.82863,-78.96134,-2.6886625,11.648484,-17.508072
2.086,176.06941,72.150314,-77.5389,-5.2342205,7.417964,-16.270243
2.088,168.35986,69.93777,-75.03113,-7.776728,3.0820634,-14.783014
2.09,161.06248,68.16406,-71.50866,-10.283081,-1.259789,-13.145448
2.092,154.23927,66.8056,-67.07165,-12.711945,-5.480403,-11.432892
2.094,147.97209,65.864395,-61.90336,-15.015501,-9.43794,-9.706398
2.096,142.29318,65.35658,-56.209675,-17.143341,-12.993938,-8.015511
2.098,137.1056,65.29362,-50.14679,-19.044472,-16.026514,-6.4010243
2.1,132.35207,65.628204,-43.80905,-20.670103,-18.437397,-4.895487
2.102,128.02356,66.26799,-37.25147,-21.980736,-20.159306,-3.521759
2.104,124.12787,67.13381,-30.563194,-22.951649,-21.161196,-2.293497
2.106,120.69116,68.21051,-23.944344,-23.574238,-21.451427,-1.2155743
2.108,117.67705,69.543686,-17.579973,-23.855875,-21.073683,-0.2850647
2.11,115.04528,71.169495,-11.680622,-23.81939,-20.102093,0.509449
2.112,112.72559,73.02115,-6.3421116,-23.499775,-18.633411,1.1865802
2.114,110.64271,75.007805,-1.6367893,-22.940165,-16.775953,1.7671447
2.116,108.73604,77.07494,2.4048767,-22.188929,-14.641364,2.2705138
2.118,106.959984,79.20198,5.7845306,-21.2972,-12.337435,2.7125237
2.12,105.278366,81.3806,8.4893,-20.315536,-9.962318,3.1043627
2.122,103.65933,83.59809,10.52058,-19.290686,-7.600914,3.4521835
2.124,102.079285,85.84694,11.873129,-18.265667,-5.32298,3.755547
2.126,100.52809,88.09083,12.549973,-17.277147,-3.1813617,4.0076056
2.128,98.993546,90.29401,12.581974,-16.35299,-1.2112303,4.197833
2.13,97.456375,92.41624,12.023485,-15.511663,0.5679145,4.3153424
2.132,95.90187,94.412025,10.941571,-14.762081,2.1492767,4.3521414
2.134,94.29818,96.253006,9.403939,-14.105963,3.5357723,4.3058424
2.136,92.62555,97.90935,7.4785275,-13.540396,4.7364078,4.181044
2.138,90.8874,99.35257,5.2408605,-13.056915,5.7645044,3.9880748
2.14,89.09337,100.56577,2.7676182,-12.644795,6.6369553,3.7404046
2.142,87.25601,101.5359,0.122390985,-12.295696,7.368475,3.4537306
2.144,85.37068,102.256386,-2.6315064,-12.003426,7.969967,3.14501
2.146,83.438774,102.72186,-5.4458227,-11.763956,8.449926,2.829764
2.148,81.46638,102.93556,-8.291221,-11.575192,8.814232,2.5208962
2.15,79.46617,102.90447,-11.133761,-11.436581,9.066619,2.2295256
2.152,77.44875,102.63795,-13.925285,-11.349178,9.209325,1.9661622
2.154,75.412735,102.14779,-16.60891,-11.314956,9.243177,1.7389112
2.156,73.3661,101.444305,-19.137634,-11.335417,9.168594,1.5514795
2.158,71.32166,100.53968,-21.47474,-11.410828,8.9873495,1.404737
2.16,69.28885,99.45221,-23.59132,-11.539872,8.703259,1.2984204
2.162,67.28592,98.198326,-25.454063,-11.719188,8.322458,1.2314898
2.164,65.31758,96.807236,-27.032478,-11.943068,7.8534336,1.2023013
2.166,63.37689,95.31067,-28.319448,-12.203668,7.3069687,1.2090678
2.168,61.483078,93.73637,-29.32692,-12.49132,6.6963334,1.2502059
2.17,59.647675,92.112465,-30.062086,-12.794975,6.0369945,1.3242866
2.172,57.868774,90.47186,-30.530272,-13.102662,5.346153,1.4295843
2.174,56.142914,88.84004,-30.740198,-13.402271,4.6419973,1.5637922
2.176,54.46984,87.225815,-30.703257,-13.68238,3.9425807,1.7237561
2.178,52.85054,85.63302,-30.43765,-13.933045,3.265058,1.9053512
2.18,51.288055,84.07327,-29.9681,-14.146286,2.624803,2.1038184
2.182,49.785583,82.56163,-29.314848,-14.316256,2.034748,2.3141623
2.184,48.34632,81.109375,-28.496351,-14.439267,1.504925,2.5314794
2.186,46.973763,79.72487,-27.534609,-14.513606,1.0422418,2.7513108
2.188,45.670235,78.41607,-26.455105,-14.539366,0.6506326,2.9698014
2.19,44.43643,77.1895,-25.286026,-14.518033,0.33130503,3.1837368
2.192,43.272713,76.04932,-24.052614,-14.452221,0.08305073,3.390658
2.194,42.177174,74.99797,-22.776802,-14.345367,-0.09742355,3.5886917
2.196,41.148514,74.0363,-21.47761,-14.201489,-0.21507168,3.7764583
2.198,40.18251,73.16518,-20.171335,-14.025076,-0.27603817,3.9529095
2.2,39.275967,72.38348,-18.873352,-13.820872,-0.28727603,4.1171856
2.202,38.425346,71.68942,-17.598257,-13.593764,-0.25611174,4.2685637
2.204,37.625984,71.07936,-16.359894,-13.348556,-0.18991208,4.406389
2.206,36.874752,70.54652,-15.170752,-13.089833,-0.095737934,4.530064
2.208,36.16722,70.083885,-14.041445,-12.821751,0.019921064,4.639133
2.21,35.500015,69.68425,-12.980289,-12.547972,0.15146244,4.7333794
2.212,34.870235,69.340675,-11.992258,-12.27154,0.29434168,4.812931
2.214,34.274536,69.04743,-11.079681,-11.994812,0.4452731,4.878296
2.216,33.70991,68.799164,-10.243713,-11.719475,0.60228586,4.9303503
2.218,33.173973,68.59067,-9.484653,-11.446574,0.76466364,4.970252
2.22,32.664207,68.41689,-8.802401,-11.176624,0.9327936,4.9993873
2.222,32.178642,68.272575,-8.196267,-10.909733,1.1078324,5.0192785
2.224,31.714085,68.15253,-7.666133,-10.645775,1.2914128,5.031439
2.226,31.267818,68.05149,-7.210355,-10.384528,1.4852921,5.037279
2.228,30.83741,67.963844,-6.826473,-10.125858,1.6910378,5.0380917
2.23,30.420307,67.884384,-6.511795,-9.869831,1.9098158,5.0349708
2.232,30.014565,67.80783,-6.2631416,-9.616738,2.1421976,5.028797
2.234,29.617857,67.72914,-6.077363,-9.367136,2.3881056,5.020235
2.236,29.228909,67.64348,-5.9508266,-9.121817,2.6468484,5.0097127
2.238,28.846191,67.54634,-5.8796325,-8.881771,2.9171922,4.9974008
2.24,28.468277,67.433716,-5.8600216,-8.648102,3.1974995,4.9832706
2.242,28.094349,67.30157,-5.8885856,-8.421958,3.4858541,4.9671073
2.244,27.723097,67.14637,-5.962204,-8.204463,3.7801619,4.9485817
2.246,27.353977,66.964554,-6.0783453,-7.996654,4.0782924,4.9271965
2.248,26.986115,66.75235,-6.2344193,-7.7993937,4.3782434,4.9024067
2.25,26.618578,66.506805,-6.4281545,-7.613371,4.6781864,4.8736477
2.252,26.25046,66.22515,-6.657815,-7.439062,4.9764524,4.8404284
2.254,25.88049,65.90481,-6.9217424,-7.2767277,5.271694,4.8023148
2.256,25.507494,65.54383,-7.21845,-7.126362,5.562737,4.7590256
2.258,25.130215,65.14097,-7.546906,-6.9878073,5.848667,4.7103753
2.26,24.747917,64.69551,-7.9060535,-6.8607407,6.128853,4.656243
2.262,24.359655,64.207466,-8.295063,-6.7447066,6.402927,4.5966206
2.264,23.964725,63.677486,-8.713578,-6.639144,6.670778,4.531649
2.266,23.56298,63.106518,-9.161442,-6.5433965,6.932478,4.4616227
2.268,23.15387,62.49612,-9.638598,-6.4567385,7.188267,4.3870006
2.27,22.737427,61.848244,-10.145221,-6.3783584,7.438471,4.3083854
2.272,22.313581,61.16586,-10.681403,-6.3074284,7.6834316,4.226542
2.274,21.882004,60.45199,-11.247166,-6.2431035,7.9234214,4.142336
2.276,21.442614,59.710262,-11.842848,-6.1845384,8.158543,4.056729
2.278,20.995136,58.944565,-12.468427,-6.130928,8.388599,3.9707644
2.28,20.539698,58.15882,-13.123467,-6.081548,8.613045,3.8854582
2.282,20.076452,57.35714,-13.807084,-6.0358224,8.8309355,3.8016946
2.284,19.60559,56.54354,-14.51768,-5.9932914,9.040839,3.7202258
2.286,19.127579,55.72197,-15.2529955,-5.953652,9.24092,3.6416147
2.288,18.64312,54.895897,-16.010967,-5.9167233,9.428947,3.5661123
2.29,18.153042,54.068405,-16.788952,-5.8824716,9.602392,3.493658
2.292,17.657995,53.242035,-17.583977,-5.851017,9.758525,3.4238393
2.294,17.1585,52.41876,-18.392756,-5.822591,9.89448,3.3559108
2.296,16.655195,51.600014,-19.211927,-5.797523,10.007372,3.2888265
2.298,16.149199,50.786476,-20.037481,-5.776251,10.094414,3.2213476
2.3,15.641064,49.978218,-20.864868,-5.759217,10.15299,3.1521516
2.302,15.13158,49.17524,-21.689281,-5.7468615,10.180813,3.0799272
2.304,14.621863,48.376476,-22.50576,-5.739515,10.175963,3.0034556
2.306,14.112929,47.58075,-23.309277,-5.7373915,10.137006,2.921661
2.308,13.605974,46.786217,-24.094639,-5.7405252,10.062995,2.833695
2.31,13.101742,45.99069,-24.85673,-5.7488346,9.953669,2.738894
2.312,12.601228,45.191833,-25.59071,-5.762042,9.809369,2.6369247
2.314,12.105296,44.387474,-26.292091,-5.7797165,9.631019,2.5277336
2.316,11.614849,43.575073,-26.956715,-5.801281,9.420125,2.4115233
2.318,11.130705,42.752422,-27.581015,-5.825975,9.178768,2.2887075
2.32,10.653615,41.917408,-28.161963,-5.8529496,8.909495,2.1599274
2.322,10.183916,41.06826,-28.69713,-5.8812413,8.615179,2.02599
2.324,9.722532,40.203606,-29.185293,-5.909738,8.299004,1.887862
2.326,9.27019,39.322315,-29.625813,-5.937196,7.964299,1.7465587
2.328,8.827293,38.42382,-30.018686,-5.9622674,7.614434,1.6031139
2.33,8.39368,37.50796,-30.364578,-5.983635,7.252692,1.4585137
2.332,7.968833,36.57541,-30.664871,-6.0000253,6.8822355,1.3136499
2.334,7.5532517,35.62692,-30.920626,-6.010304,6.5059595,1.169297
2.336,7.1461926,34.663506,-31.134274,-6.0135145,6.1264663,1.0261056
2.338,6.7467003,33.686913,-31.308613,-6.0090275,5.746023,0.88458276
2.34,6.353833,32.699097,-31.446407,-5.9965687,5.3665056,0.7451389
2.342,5.9662843,31.702572,-31.550611,-5.976185,4.989378,0.6081536
2.344,5.5827737,30.699966,-31.623951,-5.948208,4.6157002,0.47395658
2.346,5.2020445,29.693943,-31.669613,-5.913146,4.246174,0.34290123
2.348,4.8228393,28.68742,-31.690247,-5.8715863,3.8812294,0.21540177
2.35,4.4437346,27.683361,-31.688189,-5.824122,3.5210853,0.09189439
2.352,4.063496,26.684797,-31.665218,-5.7712193,3.1658244,-0.027152061
2.354,3.6812754,25.694815,-31.62289,-5.7132277,2.8154902,-0.14126098
2.356,3.2958355,24.716784,-31.56194,-5.65036,2.4701128,-0.2499553
2.358,2.906822,23.753761,-31.482998,-5.582656,2.1297731,-0.35280323
2.36,2.5139656,22.808498,-31.386246,-5.5100393,1.7946897,-0.44943297
2.362,2.1171477,21.883911,-31.271296,-5.4323597,1.4651517,-0.5395893
2.364,1.7174841,20.98242,-31.137917,-5.3494377,1.1415431,-0.62315935
2.366,1.3159437,20.106503,-30.98615,-5.2610874,0.8243148,-0.70022446
2.368,0.9140105,19.258099,-30.815498,-5.167192,0.5139842,-0.77100366
2.37,0.5131961,18.439098,-30.625454,-5.0676985,0.21109569,-0.8358494
2.372,0.11548799,17.651123,-30.415318,-4.9626513,-0.08380902,-0.8952079
2.374,-0.2768345,16.895683,-30.184694,-4.852123,-0.3701812,-0.9496333
2.376,-0.66174215,16.174124,-29.933043,-4.7362432,-0.64744383,-0.999689
2.378,-1.0359259,15.487618,-29.660337,-4.615203,-0.9151075,-1.0459619
2.38,-1.3967036,14.837031,-29.366688,-4.4892445,-1.1726997,-1.0890238
2.382,-1.7412093,14.222842,-29.05223,-4.35862,-1.4197696,-1.129467
2.384,-2.0663521,13.645463,-28.717564,-4.223547,-1.6559188,-1.1678693
2.386,-2.369369,13.104752,-28.362995,-4.084266,-1.8808529,-1.204792
2.388,-2.6474483,12.600336,-27.989061,-3.9410412,-2.094388,-1.2407794
2.39,-2.898441,12.131682,-27.59617,-3.7941332,-2.296473,-1.2763667
2.392,-3.120336,11.698096,-27.184708,-3.6437943,-2.487166,-1.312108
2.394,-3.3114882,11.298574,-26.75531,-3.4902716,-2.666616,-1.3485844
2.396,-3.470345,10.9319515,-26.30853,-3.3338442,-2.8350453,-1.3863976
2.398,-3.5960584,10.596986,-25.844948,-3.1747963,-2.9926937,-1.4261248
2.4,-3.6879394,10.292334,-25.365229,-3.0133975,-3.1397958,-1.4683568
2.402,-3.745676,10.016387,-24.870018,-2.8498807,-3.2765324,-1.5136596
2.404,-3.76912,9.767473,-24.35988,-2.684432,-3.4029977,-1.5625777
2.406,-3.7585683,9.543482,-23.835098,-2.5171914,-3.5191772,-1.6156735
2.408,-3.7150297,9.34255,-23.296322,-2.3482053,-3.6248996,-1.6734433
2.41,-3.6393409,9.162513,-22.744473,-2.1774483,-3.719863,-1.7363226
2.412,-3.5328794,9.001106,-22.1804,-2.0048447,-3.8036542,-1.8046418
2.414,-3.3973997,8.856306,-21.605103,-1.830252,-3.8758354,-1.8786362
2.416,-3.2346828,8.725832,-21.019707,-1.6534808,-3.9359417,-1.9583976
2.418,-3.0467162,8.607641,-20.425425,-1.4743047,-3.9835563,-2.0438695
2.42,-2.835353,8.499702,-19.82357,-1.2924976,-4.0183277,-2.134828
2.422,-2.6028993,8.400003,-19.21508,-1.1077931,-4.040052,-2.2309046
2.424,-2.3516102,8.3065815,-18.601166,-0.91994816,-4.0486894,-2.3316026
2.426,-2.08386,8.2178,-17.9831,-0.7287449,-4.044375,-2.4363375
2.428,-1.801815,8.132046,-17.36211,-0.5340083,-4.0274262,-2.5444503
2.43,-1.5077213,8.047855,-16.7395,-0.33559963,-3.9983256,-2.6552553
2.432,-1.2038742,7.9639883,-16.116589,-0.13343015,-3.9576473,-2.7680624
2.434,-0.8924695,7.8794055,-15.494348,0.07253048,-3.906053,-2.8822167
2.436,-0.5758015,7.793131,-14.873995,0.2822779,-3.8442357,-2.9971209
2.438,-0.25566733,7.7042446,-14.256852,0.4957604,-3.772839,-3.1122618
2.44,0.066340685,7.61209,-13.644088,0.71288776,-3.6924572,-3.2271988
2.442,0.38849783,7.51587,-13.036926,0.9335265,-3.6035552,-3.3415565
2.444,0.7093916,7.4149714,-12.436609,1.157491,-3.5064778,-3.4550607
2.446,1.027818,7.308879,-11.844383,1.3845395,-3.4014502,-3.567499
2.448,1.3424711,7.197216,-11.2614975,1.6144035,-3.2885752,-3.6787004
2.45,1.6523256,7.0796847,-10.689262,1.8468103,-3.167859,-3.7885094
2.452,1.9566152,6.955982,-10.128732,2.081482,-3.0392718,-3.8967745
2.454,2.25464,6.825945,-9.581288,2.3181398,-2.9027867,-4.003325
2.456,2.5455458,6.6895766,-9.047799,2.5565202,-2.758429,-4.1079597
2.458,2.8288062,6.5468144,-8.529514,2.7964077,-2.606309,-4.210404
2.46,3.1042318,6.397714,-8.027676,3.0376213,-2.4466658,-4.310283
2.462,3.3713484,6.242507,-7.5435343,3.2800076,-2.2799275,-4.407208
2.464,3.630021,6.081403,-7.078057,3.523434,-2.1066904,-4.5007296
2.466,3.8802242,5.914683,-6.6324434,3.767763,-1.927701,-4.590377
2.468,4.121875,5.7432537,-6.207699,4.012865,-1.7438762,-4.67569
2.47,4.3554726,5.567692,-5.8044686,4.2585874,-1.5562297,-4.7562475
2.472,4.5814285,5.3888397,-5.423103,4.50478,-1.3658292,-4.8316894
2.474,4.799307,5.2079306,-5.063734,4.751327,-1.1737572,-4.9016967
2.476,5.009491,5.025897,-4.726428,4.9981313,-0.98102653,-4.9660063
2.478,5.2123365,4.844246,-4.411483,5.2451496,-0.7885337,-5.024428
2.48,5.4082556,4.6643567,-4.1187468,5.492422,-0.59706044,-5.076794
2.482,5.5977087,4.4877377,-3.8479915,5.740048,-0.4072204,-5.1229696
2.484,5.781009,4.3158875,-3.5989132,5.988153,-0.21948689,-5.162871
2.486,5.9584045,4.1507025,-3.3711066,6.2368913,-0.034242034,-5.1964235
2.488,6.130026,3.9937973,-3.1638136,6.4864078,0.14825156,-5.2235737
2.49,6.2961044,3.8472924,-2.9763656,6.7368064,0.32777566,-5.2442813
2.492,6.4569116,3.712983,-2.808133,6.9881124,0.50411385,-5.2585444
2.494,6.6124105,3.5928156,-2.6580753,7.240229,0.67699987,-5.2663507
2.496,6.762607,3.4886012,-2.525507,7.492964,0.8460783,-5.2677298
2.498,6.907594,3.4021418,-2.4095745,7.745996,1.0109446,-5.262708
2.5,7.047439,3.3352456,-2.3094068,7.9989004,1.1710896,-5.251331
2.502,7.1821003,3.2895255,-2.2242365,8.251084,1.3259039,-5.233669
2.504,7.3116097,3.2664337,-2.153026,8.501844,1.4746953,-5.20987
2.506,7.4357424,3.2671623,-2.0946727,8.750362,1.6167015,-5.1801143
2.508,7.5545607,3.292878,-2.0481205,8.99579,1.751142,-5.1445885
2.51,7.6678677,3.3444588,-2.012281,9.237219,1.877187,-5.103514
2.512,7.7757673,3.4226983,-1.9861993,9.473745,1.993994,-5.0571156
2.514,7.878554,3.5282686,-1.968892,9.70449,2.100719,-5.0056477
2.516,7.976262,3.661755,-1.9593278,9.928649,2.1965735,-4.94939
2.518,8.069183,3.8234844,-1.9563478,10.145515,2.2808099,-4.8886776
2.52,8.157651,4.013842,-1.9589124,10.35454,2.352735,-4.823882
2.522,8.242255,4.232701,-1.965969,10.555258,2.411715,-4.7554035
2.524,8.323538,4.4798374,-1.9762833,10.747307,2.4571257,-4.683664
2.526,8.402289,4.754952,-1.9888028,10.930374,2.4883893,-4.6090384
2.528,8.479301,5.057642,-2.0023787,11.104154,2.504923,-4.5318394
2.53,8.555412,5.3876286,-2.0161173,11.2683,2.5061302,-4.4522915
2.532,8.63182,5.7444253,-2.029288,11.422385,2.4914093,-4.370507
2.534,8.709664,6.127852,-2.0410485,11.565877,2.4601645,-4.286506
2.536,8.790305,6.5374174,-2.0508192,11.698137,2.4118285,-4.200257
2.538,8.875211,6.9725447,-2.0582364,11.81849,2.3459501,-4.111714
2.54,8.965863,7.432938,-2.0628853,11.926264,2.2621987,-4.020896
2.542,9.063924,7.918143,-2.064531,12.020824,2.1603906,-3.9279008
2.544,9.170884,8.427486,-2.0630653,12.101723,2.0405626,-3.8330138
2.546,9.288623,8.960148,-2.0584373,12.168702,1.9029822,-3.7367134
2.548,9.41883,9.515194,-2.0505064,12.22178,1.7481942,-3.6397088
2.55,9.56308,10.0915985,-2.0393612,12.261202,1.5770085,-3.5429187
2.552,9.723025,10.688116,-2.0249603,12.287415,1.3904071,-3.447437
2.554,9.900488,11.303418,-2.0072892,12.301065,1.1895676,-3.3544903
2.556,10.097069,11.93589,-1.9863423,12.302977,0.9758004,-3.2653003
2.558,10.314132,12.583638,-1.9620479,12.294079,0.750458,-3.1809983
2.56,10.553214,13.2445345,-1.9341732,12.275334,0.5148933,-3.1026425
2.562,10.81562,13.916277,-1.902576,12.247642,0.2703584,-3.0311732
2.564,11.102361,14.596583,-1.8666205,12.211801,0.01789774,-2.9673321
2.566,11.41469,15.283048,-1.8259299,12.168447,-0.24166,-2.9116244
2.568,11.753727,15.973101,-1.7796426,12.1180105,-0.5078223,-2.864247
2.57,12.120385,16.664177,-1.7267718,12.060666,-0.7804745,-2.825067
2.572,12.515587,17.353415,-1.666121,11.996369,-1.0598335,-2.7936306
2.574,12.93984,18.038006,-1.5964985,11.92485,-1.3464346,-2.769198
2.576,13.393389,18.714865,-1.5165987,11.845689,-1.6410596,-2.7508037
2.578,13.876388,19.38056,-1.4251165,11.758355,-1.9446841,-2.7373266
2.58,14.388427,20.03207,-1.3205528,11.662264,-2.2584414,-2.727646
2.582,14.929528,20.666208,-1.201644,11.556784,-2.5834992,-2.7207553
2.584,15.499356,21.280066,-1.0669422,11.441315,-2.9210396,-2.7158852
2.586,16.096935,21.870808,-0.9148054,11.3152485,-3.272192,-2.7126212
2.588,16.721392,22.435432,-0.7433281,11.177991,-3.6380117,-2.7109427
2.59,17.372166,22.970726,-0.5509739,11.028965,-4.019477,-2.711247
2.592,18.04822,23.47345,-0.33621597,10.867624,-4.4174714,-2.7142794
2.594,18.74807,23.94043,-0.09777641,10.693474,-4.832691,-2.7210631
2.596,19.469807,24.368319,0.16535664,10.506061,-5.2656827,-2.7328138
2.598,20.211548,24.753853,0.45388603,10.305017,-5.716832,-2.7508154
2.6,20.971272,25.093498,0.7681818,10.090085,-6.186322,-2.7763255
2.602,21.74662,25.384129,1.1082268,9.861095,-6.6741157,-2.810502
2.604,22.534767,25.622648,1.4738035,9.618046,-7.1798835,-2.85437
2.606,23.332985,25.806181,1.8642635,9.361107,-7.703002,-2.9087527
2.608,24.138092,25.931553,2.278635,9.090553,-8.242496,-2.9742703
2.61,24.946636,25.99612,2.7159748,8.806751,-8.796985,-3.0514975
2.612,25.755062,25.997593,3.1751595,8.510083,-9.364691,-3.1409593
2.614,26.559149,25.934298,3.654766,8.200939,-9.943433,-3.243126
2.616,27.354599,25.805096,4.152791,7.8797145,-10.530553,-3.3584409
2.618,28.136553,25.609238,4.667098,7.5467834,-11.122882,-3.4872916
2.62,28.900314,25.34629,5.1948957,7.2024536,-11.716851,-3.6299603
2.622,29.640827,25.016167,5.732972,6.847004,-12.308415,-3.786541
2.624,30.352257,24.619366,6.2776384,6.4807186,-12.893062,-3.9568572
2.626,31.028818,24.157368,6.8251324,6.103997,-13.46599,-4.1403446
2.628,31.664543,23.632385,7.3714323,5.7174296,-14.0222,-4.335977
2.63,32.253487,23.047338,7.9125586,5.3218384,-14.556565,-4.542322
2.632,32.78935,22.406324,8.444436,4.9183335,-15.064052,-4.7575526
2.634,33.26587,21.71405,8.962953,4.5082655,-15.539743,-4.979521
2.636,33.67712,20.975803,9.464315,4.0932245,-15.979063,-5.2058983
2.638,34.017456,20.19748,9.944674,3.6749382,-16.377842,-5.4342074
2.64,34.28161,19.385439,10.4006815,3.2552295,-16.732363,-5.6619244
2.642,34.46456,18.546455,10.829089,2.8359556,-17.039454,-5.886585
2.644,34.561966,17.687588,11.226743,2.4189591,-17.296375,-6.105773
2.646,34.570194,16.816555,11.590843,2.00599,-17.500946,-6.3171487
2.648,34.486565,15.941307,11.919111,1.5987854,-17.651556,-6.5184383
2.65,34.309654,15.069787,12.209435,1.1991205,-17.747166,-6.7073274
2.652,34.039032,14.209778,12.460222,0.80892944,-17.787388,-6.881381
2.654,33.675232,13.36878,12.670101,0.43038654,-17.772453,-7.0380745
2.656,33.219486,12.554318,12.838123,0.06598568,-17.70328,-7.1748524
2.658,32.67449,11.773331,12.963533,-0.28138638,-17.581457,-7.289161
2.66,32.04443,11.032253,13.0459,-0.6085844,-17.409153,-7.3786745
2.662,31.33405,10.336882,13.08518,-0.9123306,-17.189045,-7.4414997
2.664,30.549162,9.692107,13.081636,-1.189477,-16.924305,-7.4762425
2.666,29.696398,9.101846,13.0357485,-1.4372311,-16.61844,-7.482126
2.668,28.783287,8.56954,12.948478,-1.65347,-16.275208,-7.459071
2.67,27.817852,8.097341,12.82086,-1.8369803,-15.898508,-7.40766
2.672,26.808456,7.6865206,12.6542015,-1.9875731,-15.492346,-7.329084
2.674,25.764137,7.3373013,12.449941,-2.1060843,-15.060635,-7.2249646
2.676,24.693676,7.0488443,12.209848,-2.194303,-14.607212,-7.0972123
2.678,23.605858,6.819434,11.935946,-2.2547965,-14.135834,-6.9479227
2.68,22.509499,6.6466107,11.63025,-2.2906938,-13.649918,-6.779194
2.682,21.413128,6.527341,11.295125,-2.3053584,-13.152544,-6.593089
2.684,20.325039,6.457917,10.933176,-2.3021278,-12.646374,-6.3915186
2.686,19.253159,6.4340568,10.547302,-2.28404,-12.133565,-6.176286
2.688,18.204624,6.451198,10.140436,-2.2536678,-11.615861,-5.9490685
2.69,17.186264,6.5041733,9.715408,-2.2130387,-11.094631,-5.711498
2.692,16.203716,6.587507,9.275288,-2.1636195,-10.570935,-5.4652014
2.694,15.262364,6.695321,8.823061,-2.1063871,-10.045641,-5.211824
2.696,14.367058,6.821951,8.361911,-2.0419211,-9.519578,-4.9530034
2.698,13.521511,6.9618287,7.8946857,-1.9705076,-8.993641,-4.690331
2.7,12.728746,7.110095,7.4242687,-1.8922187,-8.4688835,-4.4253383
2.702,11.9911175,7.261854,6.953541,-1.8070543,-7.946536,-4.1595025
2.704,11.310703,7.4128985,6.4856215,-1.7150404,-7.428046,-3.894248
2.706,10.689242,7.559135,6.023222,-1.6163158,-6.9150124,-3.6309192
2.708,10.127536,7.697026,5.569192,-1.5111957,-6.4092045,-3.3707547
2.71,9.625531,7.823591,5.126193,-1.4002203,-5.9124804,-3.1148458
2.712,9.18292,7.936312,4.696815,-1.2841984,-5.426713,-2.8641438
2.714,8.798956,8.0331135,4.2830687,-1.1640849,-4.953701,-2.6193745
2.716,8.472191,8.112521,3.8870225,-1.0409501,-4.4950833,-2.3810453
2.718,8.200773,8.173649,3.510379,-0.915882,-4.052232,-2.1494997
2.72,7.9823008,8.215853,3.1544623,-0.7899921,-3.6261992,-1.9249549
2.722,7.8142443,8.238606,2.8202024,-0.66432095,-3.2176983,-1.7075646
2.724,7.6938157,8.241812,2.508628,-0.53983766,-2.8270893,-1.4974076
2.726,7.6179237,8.225801,2.2205145,-0.41740584,-2.4543924,-1.2945421
2.728,7.5832043,8.191355,1.9566293,-0.2977653,-2.099392,-1.0990368
2.73,7.5860286,8.139606,1.71764,-0.18151048,-1.7616237,-0.9109621
2.732,7.622793,8.071971,1.5041461,-0.06910932,-1.440396,-0.7303989
2.734,7.6901,7.9898267,1.3162869,0.03914219,-1.1348381,-0.5574561
2.736,7.7846885,7.894402,1.1538277,0.14308454,-0.8439467,-0.3922944
2.738,7.903116,7.786862,1.016062,0.24267553,-0.56661177,-0.2351036
2.74,8.041899,7.6684384,0.90213406,0.3379701,-0.30158564,-0.08601956
2.742,8.198141,7.5401306,0.8109503,0.42915124,-0.04748398,0.054878652
2.744,8.368787,7.4031806,0.7411152,0.5165001,0.19718751,0.18763015
2.746,8.551052,7.2588835,0.6910448,0.60039306,0.43394315,0.3123659
2.748,8.742357,7.1083794,0.6591755,0.68130153,0.6642362,0.42931193
2.75,8.940423,6.95285,0.64352095,0.7597821,0.88941664,0.5387769
2.752,9.143367,6.7934947,0.6425384,0.8364173,1.1106696,0.64106554
2.754,9.349357,6.6312175,0.65443003,0.9117987,1.3289653,0.7364583
2.756,9.556839,6.4666986,0.6774857,0.9865046,1.5450222,0.8251655
2.758,9.764153,6.300687,0.7099441,1.0610394,1.7593447,0.9072657
2.76,9.969887,6.1335707,0.74995875,1.1358181,1.9721727,0.98267925
2.762,10.172804,5.9659634,0.795871,1.2111533,2.18357,1.0511942
2.764,10.372094,5.7983665,0.84608376,1.2872252,2.3934677,1.1125299
2.766,10.567331,5.6310587,0.89903665,1.3640791,2.6017005,1.1663826
2.768,10.757674,5.464409,0.9533434,1.4416187,2.8079948,1.2124848
2.77,10.942394,5.29841,1.0077289,1.5196476,3.0119925,1.2506691
2.772,11.1212845,5.133197,1.0608147,1.5978734,3.213259,1.2809287
2.774,11.293747,4.9688396,1.1115156,1.675941,3.411251,1.3034132
2.776,11.459587,4.8055606,1.1588339,1.7534726,3.6053643,1.3184412
2.778,11.618456,4.6433287,1.2018201,1.8300908,3.7949066,1.3264787
2.78,11.770309,4.482112,1.2396492,1.9054418,3.979111,1.3281078
2.782,11.91484,4.3220706,1.2717762,1.9791869,4.1571727,1.3240283
2.784,12.05184,4.163189,1.2976376,2.0510314,4.3282337,1.3149781
2.786,12.18121,4.0056005,1.3169173,2.1207192,4.491371,1.3017106
2.788,12.302839,3.8494809,1.3292844,2.1880224,4.645641,1.2849537
2.79,12.416535,3.694951,1.3345926,2.2527933,4.790141,1.2653702
2.792,12.522226,3.5421824,1.3327693,2.3149414,4.924024,1.2434974
2.794,12.619888,3.3912044,1.3237405,2.3744366,5.046536,1.2197121
2.796,12.709384,3.2423835,1.3074999,2.431274,5.157043,1.194265
2.798,12.790846,3.0958767,1.2841303,2.4855258,5.255062,1.1672462
2.8,12.864096,2.9518518,1.253804,2.5372803,5.3402615,1.1386266
2.802,12.929267,2.810626,1.2165412,2.5866466,5.4124804,1.1082816
2.804,12.98646,2.6725264,1.1726074,2.6337354,5.4716687,1.0760041
2.806,13.035465,2.5380511,1.1221955,2.6786423,5.517883,1.0415919
2.808,13.076259,2.4073548,1.0656443,2.7214365,5.551259,1.0048695
2.81,13.108727,2.2804704,1.0031364,2.7621582,5.5719914,0.9657352
2.812,13.133133,2.1576762,0.9349283,2.8008,5.5802946,0.9241688
2.814,13.149592,2.0388317,0.8610889,2.8373053,5.5764146,0.88025486
2.816,13.158131,1.9241371,0.78214455,2.8715942,5.560602,0.83417475
2.818,13.158958,1.8137755,0.6980431,2.9035673,5.5331125,0.78618145
2.82,13.152262,1.7077742,0.609076,2.9331198,5.4942226,0.736586
2.822,13.138193,1.6063304,0.51539505,2.960146,5.4442487,0.6857499
2.824,13.11714,1.5093222,0.41718936,2.9845462,5.3835354,0.63405776
2.826,13.089353,1.4169664,0.3147719,3.006239,5.3124743,0.5819013
2.828,13.055025,1.3294768,0.20827985,3.0252037,5.231526,0.5296465
2.83,13.014708,1.2469144,0.09803939,3.0414157,5.141201,0.4776467
2.832,12.968681,1.1695199,-0.01554215,3.0548952,5.0420547,0.42621934
2.834,12.917269,1.0973773,-0.13222516,3.065669,4.9346986,0.37565207
2.836,12.860838,1.0305829,-0.25161898,3.0737946,4.819761,0.32615542
2.838,12.799906,0.96904135,-0.37333977,3.0793388,4.6979127,0.27791238
2.84,12.734779,0.91292095,-0.4969144,3.082399,4.5698357,0.2310673
2.842,12.665844,0.86231995,-0.62197983,3.0830607,4.4361777,0.18573773
2.844,12.59364,0.81729317,-0.74805605,3.081392,4.2975583,0.14198053
2.846,12.5183525,0.77787447,-0.87475574,3.0774853,4.154553,0.09984064
2.848,12.440474,0.74412775,-1.0016584,3.0713952,4.0076437,0.059311748
2.85,12.360544,0.71593714,-1.1282867,3.0631833,3.8572612,0.020357013
2.852,12.278831,0.69325495,-1.25439,3.0528746,3.7037473,-0.017086983
2.854,12.195983,0.6759882,-1.3795037,3.04048,3.5473738,-0.05312407
2.856,12.112255,0.6640878,-1.5033683,3.0259955,3.3883245,-0.087892056
2.858,12.028185,0.65745497,-1.6256535,3.0093684,3.2267432,-0.12154168
2.86,11.944128,0.6559863,-1.745897,2.9905503,3.062726,-0.15424258
2.862,11.86037,0.65953255,-1.8639168,2.9694529,2.8963592,-0.18617392
2.864,11.777377,0.6681237,-1.9792786,2.9459748,2.7277064,-0.21749592
2.866,11.695559,0.68174267,-2.0917065,2.9200287,2.556817,-0.24832535
2.868,11.615448,0.7001586,-2.2009506,2.8915381,2.3837483,-0.27875578
2.87,11.537224,0.72340155,-2.3066099,2.8604424,2.20854,-0.3088301
2.872,11.4614935,0.7514224,-2.4084926,2.8267236,2.031226,-0.3385666
2.874,11.388591,0.7841644,-2.5060928,2.7903953,1.8518225,-0.36792833
2.876,11.318832,0.8215947,-2.5991788,2.7515101,1.6703303,-0.39684883
2.878,11.252768,0.8636236,-2.687385,2.7101688,1.4867451,-0.4252499
2.88,11.190657,0.9102435,-2.770454,2.6664958,1.301055,-0.45304734
2.882,11.132842,0.9614153,-2.848023,2.6206326,1.1132519,-0.4801609
2.884,11.079896,1.0171118,-2.9198046,2.5727596,0.9233447,-0.50653744
2.886,11.031943,1.0772777,-2.9854813,2.5230527,0.73139226,-0.5321518
2.888,10.989592,1.1417432,-3.0447755,2.4717097,0.5374766,-0.5569788
2.89,10.952831,1.2106786,-3.0974705,2.4189177,0.3417164,-0.58101594
2.892,10.922287,1.2836471,-3.1433077,2.3648763,0.1442523,-0.6042838
2.894,10.898036,1.3607497,-3.1821547,2.309774,-0.054715633,-0.6268507
2.896,10.880503,1.4416928,-3.2138815,2.253827,-0.25495988,-0.6487961
2.898,10.869861,1.52632,-3.238357,2.197234,-0.45623893,-0.6702062
2.9,10.866142,1.6143541,-3.2555182,2.1401858,-0.6582659,-0.691199
2.902,10.869779,1.7055435,-3.265431,2.0828674,-0.8607453,-0.71189165
2.904,10.880791,1.7995081,-3.2681189,2.025449,-1.0633844,-0.7324131
2.906,10.899474,1.8958635,-3.263679,1.9680874,-1.2659003,-0.7529122
2.908,10.925724,1.994174,-3.252263,1.9109254,-1.4680163,-0.7735456
2.91,10.959584,2.0941029,-3.2341704,1.8540668,-1.6694984,-0.79449433
2.912,11.001114,2.1951551,-3.2095098,1.7976034,-1.8701392,-0.8159415
2.914,11.050394,2.2967262,-3.1787424,1.7415996,-2.0697892,-0.83808625
2.916,11.107328,2.3981867,-3.142286,1.6860964,-2.2683356,-0.86112833
2.918,11.171965,2.4992342,-3.1005492,1.6311004,-2.4657226,-0.8852766
2.92,11.2441845,2.5992846,-3.0539906,1.5765989,-2.6619098,-0.9107251
2.922,11.32386,2.6977172,-3.0031636,1.5225563,-2.856892,-0.9376455
2.924,11.410963,2.7942057,-2.9484787,1.4689344,-3.050652,-0.9661648
2.926,11.505394,2.8881822,-2.8905396,1.4156802,-3.2431753,-0.9963696
2.928,11.60681,2.979291,-2.8297412,1.3627396,-3.4344356,-1.028307
2.93,11.715117,3.06701,-2.7666311,1.3100746,-3.6243606,-1.0619688
2.932,11.830051,3.1509724,-2.7017443,1.257652,-3.8128567,-1.0973079
2.934,11.9512825,3.2310667,-2.6355395,1.205453,-3.9997904,-1.1342324
2.936,12.0785885,3.306964,-2.5685697,1.1534742,-4.185007,-1.17262
2.938,12.21162,3.3784776,-2.5012436,1.1017076,-4.368329,-1.2123399
2.94,12.349968,3.4454627,-2.4341762,1.0501732,-4.549564,-1.2532495
2.942,12.493374,3.5078154,-2.367801,0.9988947,-4.728504,-1.2952161
2.944,12.64139,3.5654726,-2.302601,0.94790983,-4.9049263,-1.3380964
2.946,12.793705,3.618439,-2.2389104,0.89726317,-5.078611,-1.3817714
2.948,12.949554,3.6669204,-2.1771133,0.84701145,-5.2493515,-1.4261373
2.95,13.108561,3.7109542,-2.1176085,0.79721713,-5.4169292,-1.4711057
2.952,13.270249,3.7506804,-2.0606465,0.7479533,-5.581133,-1.5166038
2.954,13.434018,3.786202,-2.006503,0.69929206,-5.7417793,-1.5625614
2.956,13.59924,3.8177428,-1.9554293,0.6513164,-5.898698,-1.608929
2.958,13.765312,3.8454404,-1.9075749,0.6040927,-6.051718,-1.6556555
2.96,13.931647,3.869587,-1.8632383,0.5576941,-6.200687,-1.7026848
2.962,14.097531,3.8904,-1.8224618,0.5121839,-6.3454924,-1.7499497
2.964,14.262152,3.908154,-1.7854326,0.46762288,-6.4860206,-1.7973952
2.966,14.424944,3.922943,-1.7520974,0.4240706,-6.6222,-1.8449644
2.968,14.585034,3.9351902,-1.7225986,0.38155484,-6.7539725,-1.8925991
2.97,14.741935,3.9450226,-1.696826,0.34010112,-6.8813076,-1.9402363
2.972,14.89488,3.9527118,-1.6748004,0.2997247,-7.0041943,-1.987834
2.974,15.043162,3.9584224,-1.6564083,0.26042974,-7.1226425,-2.0353487
2.976,15.186044,3.9623795,-1.6413827,0.22219622,-7.2366834,-2.0827377
2.978,15.322786,3.9648945,-1.6296663,0.18499959,-7.3463526,-2.1299717
2.98,15.452883,3.9662514,-1.6210656,0.14881432,-7.451686,-2.1770148
2.982,15.575611,3.9665263,-1.6152706,0.11362064,-7.552722,-2.2238438
2.984,15.690334,3.966106,-1.6122155,0.07939899,-7.649477,-2.2704148
2.986,15.796668,3.965094,-1.6115398,0.046160936,-7.7419877,-2.316681
2.988,15.893999,3.9636064,-1.6130695,0.013916492,-7.8302584,-2.3625965
2.99,15.981922,3.9619548,-1.6165671,-0.017287374,-7.914277,-2.4080763
2.992,16.060041,3.9602175,-1.6216435,-0.047371864,-7.994036,-2.453052
2.994,16.12794,3.958543,-1.6281915,-0.076256156,-8.069516,-2.4974198
2.996,16.18553,3.9570913,-1.6358433,-0.10382831,-8.140677,-2.5410895
2.998,16.232426,3.9558716,-1.6444776,-0.12996256,-8.207475,-2.583967
3,16.268589,3.9550261,-1.6537974,-0.15454775,-8.26984,-2.6259377
3.002,16.293818,3.9546497,-1.6635389,-0.17744672,-8.327693,-2.6669059
3.004,16.308176,3.9547575,-1.6735432,-0.19854087,-8.380941,-2.7067876
3.006,16.311537,3.9554129,-1.6835864,-0.21770924,-8.429487,-2.745501
3.008,16.30406,3.956702,-1.693578,-0.23485327,-8.473222,-2.782976
3.01,16.28595,3.9585824,-1.7032776,-0.24987137,-8.512039,-2.8191392
3.012,16.257246,3.9611466,-1.712503,-0.26268595,-8.545855,-2.8539076
3.014,16.218344,3.9644551,-1.721309,-0.2732161,-8.574577,-2.8872087
3.016,16.169436,3.9684663,-1.7295852,-0.28138864,-8.598124,-2.9189448
3.018,16.110956,3.9732683,-1.7371194,-0.2871426,-8.616442,-2.9490166
3.02,16.043253,3.9788437,-1.7438626,-0.29040068,-8.629486,-2.9773304
3.022,15.966732,3.98526,-1.7499094,-0.29108688,-8.637201,-3.0037932
3.024,15.8817625,3.992603,-1.7550659,-0.28911728,-8.639544,-3.0283325
3.026,15.788867,4.0008783,-1.7593966,-0.28440768,-8.636468,-3.050868
3.028,15.688615,4.0100946,-1.7629321,-0.27686262,-8.627943,-3.0713506
3.03,15.581412,4.020343,-1.7656679,-0.26637682,-8.613918,-3.0897484
3.032,15.467738,4.031762,-1.767545,-0.2528314,-8.594358,-3.106035
3.034,15.34831,4.0443506,-1.768718,-0.23609984,-8.569217,-3.1202142
3.036,15.223477,4.0582657,-1.769221,-0.2160534,-8.538461,-3.1322923
3.038,15.093931,4.0733986,-1.769184,-0.192566,-8.5020685,-3.1422632
3.04,14.960197,4.0899734,-1.7686327,-0.165506,-8.460007,-3.1501365
3.042,14.8228,4.107995,-1.7677308,-0.13474542,-8.412274,-3.1559312
3.044,14.682131,4.127395,-1.766617,-0.10017872,-8.358867,-3.1596391
3.046,14.538883,4.1482058,-1.7654128,-0.061706662,-8.299796,-3.1612468
3.048,14.393562,4.1704516,-1.7641466,-0.019241214,-8.235092,-3.16073
3.05,14.246511,4.1941166,-1.7630488,0.02728057,-8.164821,-3.1580586
3.052,14.0981245,4.2192154,-1.7620895,0.0778985,-8.089088,-3.1531982
3.054,13.948967,4.2456064,-1.7613757,0.13263714,-8.00802,-3.1461287
3.056,13.799354,4.2731886,-1.7610128,0.1914792,-7.9218025,-3.136818
3.058,13.649817,4.301828,-1.7611059,0.2543782,-7.8306155,-3.1252384
3.06,13.500488,4.331493,-1.7616167,0.32127953,-7.7347155,-3.1113799
3.062,13.351665,4.361991,-1.7626233,0.3920858,-7.634329,-3.0952337
3.064,13.203669,4.3931947,-1.7640662,0.46669304,-7.529711,-3.0767872
3.066,13.056863,4.424921,-1.7659409,0.5449773,-7.4210987,-3.056063
3.068,12.911254,4.457065,-1.7680933,0.6268078,-7.30873,-3.0330617
3.07,12.7670555,4.489445,-1.7703904,0.7120521,-7.192793,-3.0077767
3.072,12.624317,4.5217915,-1.7727056,0.80058324,-7.0734606,-2.980195
3.074,12.483249,4.5539494,-1.774905,0.89227843,-6.9508677,-2.9502919
3.076,12.343818,4.585827,-1.7768383,0.98702693,-6.825124,-2.9180279
3.078,12.206199,4.6170864,-1.7782916,1.084738,-6.696299,-2.8833656
3.08,12.070208,4.647614,-1.7791256,1.1853337,-6.5644255,-2.8462582
3.082,11.935946,4.677218,-1.7790596,1.2887441,-6.4295416,-2.8066702
3.084,11.803292,4.705691,-1.7779748,1.3949008,-6.2916603,-2.7645633
3.086,11.67226,4.7328963,-1.7757453,1.5037496,-6.150775,-2.719914
3.088,11.542774,4.7586565,-1.7720525,1.6152185,-6.0068913,-2.672697
3.09,11.414667,4.7828956,-1.7667966,1.7292395,-5.8600035,-2.6229024
3.092,11.287962,4.8056555,-1.7598041,1.8457457,-5.710133,-2.5705335
3.094,11.162618,4.8267813,-1.750992,1.9646455,-5.557291,-2.515581
3.096,11.03848,4.8462944,-1.7401706,2.0858417,-5.401517,-2.4580252
3.098,10.915618,4.864187,-1.7272443,2.2092435,-5.2428675,-2.3978658
3.1,10.793934,4.8805995,-1.7120675,2.3347294,-5.081422,-2.3350854
3.102,10.673307,4.895648,-1.6946243,2.4621682,-4.917291,-2.269652
3.104,10.553845,4.909598,-1.6747601,2.5914335,-4.7506027,-2.2015378
3.106,10.435493,4.922754,-1.6524748,2.7223854,-4.5815144,-2.1307087
3.108,10.318292,4.9355,-1.6274177,2.8548658,-4.410244,-2.0571294
3.11,10.202223,4.9480596,-1.5996264,2.9887142,-4.237033,-1.9807612
3.112,10.087373,4.9609976,-1.5689744,3.123757,-4.0621696,-1.9015664
3.114,9.973751,4.974618,-1.5352087,3.2597923,-3.8859663,-1.8195189
3.116,9.861455,4.9894943,-1.4982499,3.3966177,-3.7087977,-1.7346072
3.118,9.750439,5.006012,-1.4578192,3.5339813,-3.5310612,-1.6468309
3.12,9.6408,5.0248427,-1.4136183,3.671629,-3.3532119,-1.5562044
3.122,9.532434,5.046357,-1.3654279,3.809286,-3.1757007,-1.4627897
3.124,9.425319,5.0710716,-1.3127166,3.9466517,-2.9990025,-1.3666607
3.126,9.3194065,5.0995784,-1.2551928,4.08342,-2.8236055,-1.2679261
3.128,9.214515,5.1322246,-1.1924614,4.219261,-2.649971,-1.1666964
3.13,9.110543,5.1694617,-1.1239812,4.3538594,-2.4785295,-1.0631009
3.132,9.00726,5.2116218,-1.0491533,4.486891,-2.309692,-0.9572768
3.134,8.90444,5.2591147,-0.96747327,4.61802,-2.1438174,-0.8493726
3.136,8.801746,5.3122864,-0.8782169,4.746944,-1.9811836,-0.73951066
3.138,8.698754,5.3713317,-0.7806679,4.873375,-1.8219904,-0.62781787
3.14,8.595325,5.436539,-0.67408633,4.9970727,-1.6663268,-0.51437724
3.142,8.491119,5.508004,-0.5577197,5.1178393,-1.5141648,-0.3992405
3.144,8.385573,5.585604,-0.4307631,5.23553,-1.3653321,-0.2824285
3.146,8.278396,5.669362,-0.29241627,5.350054,-1.2195287,-0.16392899
3.148,8.169326,5.7593265,-0.14195049,5.461396,-1.0763683,-0.04369247
3.15,8.057928,5.8553305,0.021355838,5.56958,-0.93535876,0.07833862
3.152,7.9436913,5.957229,0.19825909,5.674671,-0.79594207,0.20221925
3.154,7.8261857,6.0649405,0.38948816,5.7767777,-0.6575326,0.32799733
3.156,7.70475,6.1781945,0.59577656,5.8760214,-0.5195348,0.45568144
3.158,7.5791254,6.2966886,0.81774634,5.9725013,-0.38138413,0.58526015
3.16,7.449171,6.4200587,1.05615,6.066326,-0.24255681,0.71665955
3.162,7.3149295,6.5477467,1.3113608,6.1575837,-0.10256982,0.84977627
3.164,7.176333,6.6791,1.583745,6.2463226,0.038983107,0.9844395
3.166,7.0335455,6.813502,1.8734875,6.332573,0.18246698,1.1204469
3.168,6.8869467,6.950068,2.1807513,6.416354,0.32823014,1.2575748
3.17,6.7371287,7.0880547,2.50509,6.4977064,0.47665215,1.3956053
3.172,6.584733,7.226261,2.8461149,6.576685,0.62814355,1.5343056
3.174,6.4302683,7.363493,3.2029536,6.65341,0.7832196,1.6735021
3.176,6.276063,7.499234,3.5742853,6.728079,0.9425137,1.8130428
3.178,6.122335,7.63166,3.9597735,6.800959,1.1067948,1.9528005
3.18,5.9716654,7.75948,4.356833,6.872409,1.276968,2.0926785
3.182,5.824897,7.8813667,4.76396,6.9428415,1.4540014,2.2325766
3.184,5.6833405,7.996029,5.179289,7.012722,1.6389625,2.3723824
3.186,5.5488243,8.10196,5.6000247,7.082554,1.8329825,2.5119576
3.188,5.422985,8.197762,6.0233974,7.152855,2.0371723,2.6511168
3.19,5.307519,8.28209,6.4464636,7.224101,2.2526119,2.789617
3.192,5.2039213,8.353851,6.8658857,7.296689,2.480274,2.927143
3.194,5.1133986,8.412103,7.2782145,7.370887,2.720993,3.0632803
3.196,5.0370297,8.456037,7.6797357,7.446803,2.9754303,3.1975446
3.198,4.9756045,8.485106,8.066811,7.52432,3.2440255,3.3293703
3.2,4.929465,8.498754,8.435663,7.60308,3.5269642,3.4581192
3.202,4.898778,8.496744,8.782568,7.68248,3.8241105,3.5831168
3.204,4.883277,8.479198,9.10397,7.761647,4.134961,3.703746
3.206,4.882414,8.446399,9.39657,7.839569,4.4585238,3.8193521
3.208,4.8949556,8.398846,9.657288,7.9150543,4.7932067,3.9293559
3.21,4.9196467,8.337071,9.883293,7.98674,5.136853,4.033266
3.212,4.954837,8.261963,10.072165,8.053171,5.486747,4.1306224
3.214,4.9982805,8.174467,10.221893,8.112849,5.8396993,4.2210865
3.216,5.047628,8.075673,10.330996,8.164299,6.192049,4.3043456
3.218,5.1003256,7.9670224,10.398308,8.206087,6.53971,4.3801203
3.22,5.1535234,7.849909,10.423206,8.236847,6.878358,4.448125
3.222,5.2040396,7.725869,10.405432,8.255308,7.203595,4.5080347
3.224,5.2488737,7.596581,10.345215,8.26029,7.5111365,4.559471
3.226,5.284748,7.463647,10.243222,8.250723,7.7969685,4.6020145
3.228,5.308605,7.3287516,10.100517,8.225602,8.057497,4.635199
3.23,5.317154,7.193542,9.918464,8.18409,8.289697,4.6586404
3.232,5.3076873,7.0595646,9.698963,8.125467,8.491184,4.6720486
3.234,5.2771883,6.9284973,9.44412,8.049213,8.660264,4.6752872
3.236,5.223201,6.801594,9.156345,7.955031,8.795879,4.6683784
3.238,5.1435456,6.6802473,8.838381,7.842809,8.897518,4.651546
3.24,5.036461,6.565651,8.493113,7.7126894,8.965106,4.6251993
3.242,4.9003105,6.4587064,8.123696,7.565029,8.998875,4.5898337
3.244,4.733963,6.36037,7.7333546,7.4004025,8.99923,4.5460463
3.246,4.5367856,6.2714186,7.325477,7.219599,8.966659,4.494453
3.248,4.3085337,6.192452,6.9034653,7.023567,8.901683,4.4356694
3.25,4.049337,6.123908,6.4710107,6.8133645,8.804788,4.370262
3.252,3.759846,6.066116,6.0317326,6.5901475,8.676464,4.29879
3.254,3.4410212,6.0193286,5.5893764,6.355107,8.51721,4.2217746
3.256,3.0943258,5.9835453,5.1474447,6.1094527,8.32764,4.1397266
3.258,2.7213128,5.958722,4.7096815,5.8543987,8.1085,4.05314
3.26,2.3241253,5.944593,4.2793283,5.591107,7.8607635,3.962597
3.262,1.90525,5.940771,3.8597093,5.3207793,7.5857377,3.8687143
3.264,1.467291,5.946821,3.453917,5.0446405,7.2849274,3.7721574
3.266,1.0127648,5.9621735,3.064804,4.7639327,6.960101,3.6736617
3.268,0.54443526,5.9860754,2.6951067,4.47988,6.6132574,3.5739589
3.27,0.06501188,6.0177727,2.347322,4.1936703,6.2466435,3.4737601
3.272,-0.42310163,6.056505,2.0237796,3.9064856,5.8627677,3.37376
3.274,-0.9173564,6.1013255,1.7265294,3.6194668,5.4642315,3.2745476
3.276,-1.4151983,6.151004,1.4574445,3.3336835,5.0536795,3.176623
3.278,-1.9142911,6.2044706,1.2180018,3.0501394,4.6337557,3.0803628
3.28,-2.4126978,6.260139,1.0096822,2.7697663,4.2070937,2.9860368
3.282,-2.9084713,6.316963,0.83347416,2.4934096,3.7762213,2.8937812
3.284,-3.3996232,6.3735595,0.6902883,2.221779,3.343577,2.803613
3.286,-3.8859859,6.4279084,0.58082384,1.9555093,2.911499,2.7154887
3.288,-4.364978,6.478979,0.5043911,1.6951548,2.4822326,2.62934
3.29,-4.8365965,6.5254116,0.4619592,1.4411767,2.0579195,2.5450926
3.292,-5.29897,6.5656824,0.45272082,1.1940228,1.6406009,2.4626696
3.294,-5.751158,6.598324,0.47601736,0.95414245,1.2322533,2.3820293
3.296,-6.1929493,6.622169,0.53141844,0.7219953,0.8347937,2.3032165
3.298,-6.6237516,6.636039,0.61795366,0.49807146,0.450047,2.2263317
3.3,-7.043149,6.638913,0.73428804,0.28290173,0.079772055,2.1515381
3.302,-7.4507933,6.629823,0.8792026,0.077037185,-0.2744043,2.0790493
3.304,-7.8462563,6.607882,1.0511193,-0.11894661,-0.6109509,2.0091524
3.306,-8.229229,6.5725346,1.2483228,-0.30448294,-0.92849624,1.9421369
3.308,-8.599405,6.523509,1.4687849,-0.4790207,-1.2258275,1.8783188
3.31,-8.956417,6.4608474,1.7104065,-0.6420442,-1.5019212,1.8179967
3.312,-9.300152,6.3847036,1.9708495,-0.7930962,-1.7559136,1.7614567
3.314,-9.630221,6.295314,2.2475927,-0.9318135,-1.9871442,1.7089319
3.316,-9.946557,6.193316,2.537924,-1.0578978,-2.1951463,1.6605598
3.318,-10.2487335,6.079521,2.8391035,-1.171146,-2.3796387,1.6164182
3.32,-10.536671,5.954923,3.148419,-1.2714593,-2.5405188,1.576515
3.322,-10.810355,5.820587,3.462984,-1.3588597,-2.6778283,1.5407809
3.324,-11.069367,5.6777015,3.780057,-1.4334751,-2.7917635,1.5090771
3.326,-11.313763,5.527432,4.096757,-1.4955411,-2.882686,1.4811999
3.328,-11.543465,5.370969,4.4104724,-1.5454185,-2.9510832,1.456894
3.33,-11.7583475,5.209599,4.7187257,-1.5835775,-2.9975934,1.435858
3.332,-11.95828,5.0446796,5.0191855,-1.61058,-3.0229886,1.4177343
3.334,-12.14336,4.8772697,5.309591,-1.6270735,-3.0281634,1.4021308
3.336,-12.313541,4.7086377,5.587958,-1.6337585,-3.0141168,1.3886333
3.338,-12.4689455,4.5398903,5.8525453,-1.6313608,-2.9819279,1.3767953
3.34,-12.609478,4.372086,6.101724,-1.6206306,-2.9327455,1.366144
3.342,-12.735303,4.206168,6.3342857,-1.6023163,-2.8677208,1.3562152
3.344,-12.846304,4.042935,6.5490546,-1.5771425,-2.7880142,1.3465863
3.346,-12.942648,3.883376,6.745364,-1.5458332,-2.694755,1.3368812
3.348,-13.024622,3.728229,6.922622,-1.5091054,-2.5890374,1.3267745
3.35,-13.092424,3.578049,7.080526,-1.4676521,-2.4718938,1.3160203
3.352,-13.145976,3.4336307,7.2189283,-1.4221581,-2.344283,1.3044325
3.354,-13.185589,3.2952762,7.337982,-1.3732958,-2.2071,1.2919004
3.356,-13.211528,3.163452,7.437889,-1.3217175,-2.0611856,1.2783889
3.358,-13.224153,3.0386143,7.5192165,-1.2680568,-1.9073282,1.263906
3.36,-13.223754,2.9209862,7.582315,-1.2129241,-1.7462823,1.2485029
3.362,-13.21074,2.810837,7.6278944,-1.156892,-1.5787692,1.2322361
3.364,-13.18543,2.7083828,7.6566887,-1.100493,-1.4055068,1.2151825
3.366,-13.148399,2.6137526,7.669574,-1.044209,-1.2272276,1.197382
3.368,-13.09988,2.5270815,7.6673174,-0.9884503,-1.0446396,1.1788532
3.37,-13.040439,2.4483368,7.6509986,-0.9335895,-0.8584461,1.1596129
3.372,-12.97058,2.3775187,7.621402,-0.8799242,-0.66935897,1.1396316
3.374,-12.890866,2.3147087,7.5793657,-0.82771677,-0.47808477,1.1188592
3.376,-12.801668,2.2599018,7.525637,-0.7771751,-0.28533337,1.0972484
3.378,-12.703637,2.2131143,7.4609656,-0.72847563,-0.091800235,1.074752
3.38,-12.597334,2.1743152,7.3859825,-0.68176264,0.10183524,1.0513389
3.382,-12.48322,2.1433332,7.3014646,-0.6371392,0.2949229,1.02697
3.384,-12.361665,2.1202533,7.20792,-0.5946678,0.48684484,1.0016297
3.386,-12.23332,2.1049886,7.1058016,-0.5543928,0.6770405,0.97531474
3.388,-12.098638,2.0974789,6.995572,-0.5163199,0.86500174,0.9480369
3.39,-11.957822,2.0976615,6.87767,-0.48042205,1.0502762,0.9198123
3.392,-11.811386,2.1054404,6.7524676,-0.44664815,1.2324555,0.8906639
3.394,-11.65974,2.120664,6.620179,-0.4149155,1.4111814,0.8606367
3.396,-11.503004,2.1430774,6.481162,-0.38511363,1.586098,0.8297515
3.398,-11.341549,2.1727028,6.3356113,-0.35712805,1.7568728,0.79800034
3.4,-11.17589,2.2092903,6.1839795,-0.3308414,1.9231695,0.7653577
3.402,-11.006097,2.2527206,6.026473,-0.3061543,2.0846329,0.7317754
3.404,-10.832586,2.302864,5.8633304,-0.2829846,2.2408733,0.69715285
3.406,-10.655379,2.3596942,5.6948466,-0.26127827,2.3914788,0.6613893
3.408,-10.474925,2.4230285,5.5213356,-0.24102841,2.5360143,0.62436277
3.41,-10.291464,2.4928875,5.3431573,-0.2222425,2.674064,0.58594024
3.412,-10.105127,2.569088,5.160672,-0.20494074,2.805203,0.5460022
3.414,-9.916181,2.6515436,4.9742374,-0.18916258,2.9290352,0.5044636
3.416,-9.724859,2.7402022,4.784374,-0.1749536,3.045209,0.46129104
3.418,-9.531406,2.8349328,4.591465,-0.16234371,3.1534321,0.41648227
3.42,-9.335974,2.935545,4.3960743,-0.1513374,3.253469,0.3700931
3.422,-9.138832,3.042016,4.198804,-0.14193496,3.3451753,0.32222313
3.424,-8.940354,3.1542747,4.0002985,-0.13410266,3.4284723,0.2729847
3.426,-8.740623,3.27222,3.8011322,-0.12782116,3.5033648,0.22251615
3.428,-8.539967,3.3956933,3.6018772,-0.12303423,3.5699518,0.17095083
3.43,-8.338487,3.5245001,3.4032335,-0.11970685,3.628396,0.11841372
3.432,-8.136572,3.6585155,3.2058108,-0.11779018,3.6789267,0.06503442
3.434,-7.9344115,3.797643,3.0102491,-0.11724938,3.7218215,0.01091671
3.436,-7.7321067,3.9417293,2.8171825,-0.11804382,3.7573915,-0.043832272
3.438,-7.5299535,4.0905304,2.6271105,-0.120138176,3.7859678,-0.09911373
3.44,-7.328112,4.243905,2.4406528,-0.12349013,3.807886,-0.15482295
3.442,-7.1267614,4.401514,2.2583609,-0.12805106,3.8234727,-0.2108492
3.444,-6.925834,4.5631227,2.080651,-0.13378197,3.833037,-0.26707226
3.446,-6.7255917,4.72844,1.9079905,-0.14063701,3.8368793,-0.32334653
3.448,-6.5260587,4.897146,1.7407243,-0.14856333,3.8352787,-0.37953442
3.45,-6.3273816,5.068879,1.5791714,-0.15753144,3.8284922,-0.43547562
3.452,-6.1297464,5.2432995,1.423488,-0.16750737,3.8167613,-0.49101686
3.454,-5.9330506,5.4199686,1.273956,-0.1784607,3.8003106,-0.546027
3.456,-5.737251,5.59833,1.1305707,-0.1903916,3.7793386,-0.60040313
3.458,-5.5422277,5.7779593,0.99343336,-0.20330128,3.754051,-0.6540626
3.46,-5.3479033,5.9582763,0.862667,-0.21720427,3.7246542,-0.7069788
3.462,-5.154498,6.138651,0.73821294,-0.23212034,3.691338,-0.7591397
3.464,-4.9617076,6.318521,0.62005365,-0.24809021,3.6542637,-0.8105872
3.466,-4.7694974,6.4971886,0.5080567,-0.26516622,3.6135902,-0.86138564
3.468,-4.577728,6.673929,0.40212005,-0.28339395,3.5694726,-0.91163296
3.47,-4.386303,6.8481116,0.30219865,-0.30283654,3.5220335,-0.961445
3.472,-4.1951046,7.0189137,0.20808536,-0.32355744,3.4713552,-1.0109485
3.474,-4.004163,7.185698,0.11956489,-0.34563848,3.417525,-1.0602719
3.476,-3.8131433,7.347557,0.03643532,-0.3691432,3.3605723,-1.1095445
3.478,-3.6222093,7.503669,-0.04143673,-0.39416176,3.3005106,-1.158893
3.48,-3.4312706,7.653296,-0.11437279,-0.4207596,3.2373521,-1.2084279
3.482,-3.240247,7.7957187,-0.18248546,-0.44902,3.1710768,-1.2582502
3.484,-3.0491362,7.9299817,-0.24606672,-0.47902074,3.101664,-1.3084567
3.486,-2.8578966,8.055415,-0.305178,-0.51084274,3.0290961,-1.3591199
3.488,-2.6665242,8.171288,-0.3599378,-0.5445464,2.9533644,-1.4102838
3.49,-2.4752016,8.276989,-0.41050076,-0.58020574,2.8744643,-1.4619634
3.492,-2.283846,8.371981,-0.4570793,-0.617868,2.7924154,-1.5141627
