Time_s_,Acc_x_m_s_2_,Acc_y_m_s_2_,Acc_z_m_s_2_,Gyro_x_1_s_,Gyro_y_1_s_,Gyro_z_1_s_
0,-0.21310106,0.053875007,0.006723264,-0.3740335,-0.7120223,0.44300285
0.002,-0.27243254,0.08607445,0.06379023,-0.38817632,-0.7308662,0.446548
0.004,-0.33412477,0.12206772,0.11914445,-0.40284425,-0.7498464,0.45097214
0.006,-0.39835733,0.16191867,0.17118557,-0.41775477,-0.76841164,0.45630002
0.008,-0.46499234,0.20502925,0.21879509,-0.43253708,-0.785834,0.46254274
0.01,-0.5334741,0.25039363,0.26146716,-0.446701,-0.8011901,0.46967167
0.012,-0.6030053,0.29746145,0.29884923,-0.45968255,-0.81344116,0.47758788
0.014,-0.67310107,0.34638584,0.33073077,-0.47087243,-0.8214989,0.486085
0.016,-0.7436609,0.39752287,0.3564465,-0.47965413,-0.8243269,0.49481532
0.018,-0.8148303,0.45106342,0.3748256,-0.48547834,-0.8210833,0.5033233
0.02,-0.886238,0.5069314,0.38407105,-0.48794585,-0.8112476,0.51112926
0.022,-0.9574941,0.56488144,0.38296145,-0.48686218,-0.7946949,0.51781684
0.024,-1.0281273,0.62444246,0.37067544,-0.48226148,-0.77173334,0.5230951
0.026,-1.0974773,0.6847367,0.34687793,-0.4743932,-0.7430731,0.5267905
0.028,-1.1650499,0.7449352,0.31126302,-0.46407145,-0.71006846,0.5289632
0.03,-1.2301694,0.804593,0.26354587,-0.45115972,-0.6731744,0.5295904
0.032,-1.2921436,0.86323833,0.20314331,-0.4363649,-0.63365203,0.5288962
0.034,-1.3502831,0.9203793,0.12938827,-0.4203638,-0.5925844,0.5271888
0.036,-1.4039955,0.9755564,0.0415718,-0.40372533,-0.55085725,0.52468705
0.038,-1.4526865,1.0279658,-0.06074845,-0.38686612,-0.5091497,0.5215019
0.04,-1.4959121,1.076841,-0.17749533,-0.37010694,-0.46796,0.51770437
0.042,-1.5332404,1.1213652,-0.3080771,-0.35373545,-0.42765552,0.51334167
0.044,-1.5642111,1.1607815,-0.4515492,-0.3380211,-0.38859963,0.50836617
0.046,-1.5886939,1.194392,-0.60644615,-0.32316858,-0.35129154,0.50260174
0.048,-1.6063001,1.2215149,-0.77104014,-0.30933398,-0.31653625,0.49575013
0.05,-1.6168847,1.2416953,-0.9432031,-0.29668248,-0.28553927,0.48748243
0.052,-1.6204512,1.2546273,-1.1210757,-0.28544217,-0.2599157,0.47750926
0.054,-1.617033,1.2600584,-1.3023442,-0.27596554,-0.2416224,0.4656167
0.056,-1.6083105,1.258042,-1.4848268,-0.2687598,-0.23278159,0.45175967
0.058,-1.5917113,1.2479866,-1.6661552,-0.2644874,-0.2355049,0.436098
0.06,-1.5675576,1.2297331,-1.843973,-0.263923,-0.25167,0.41899005
0.062,-1.5362843,1.2032524,-2.0161057,-0.26784605,-0.2827479,0.40089798
0.064,-1.4982195,1.1686411,-2.1802275,-0.27697194,-0.32965216,0.38230366
0.066,-1.4537181,1.1256768,-2.333942,-0.2918446,-0.39264604,0.36363512
0.068,-1.402873,1.0740942,-2.4751995,-0.31274223,-0.4713018,0.34522817
0.07,-1.3461261,1.0139129,-2.6019244,-0.33959484,-0.5645381,0.3273279
0.072,-1.2837927,0.94560164,-2.7126875,-0.37193105,-0.6706658,0.31004238
0.074,-1.2161341,0.8700638,-2.8064075,-0.40890434,-0.7875038,0.2933283
0.076,-1.1435952,0.78823376,-2.882067,-0.44934762,-0.9124849,0.277038
0.078,-1.066678,0.7008887,-2.9390981,-0.49190152,-1.0428412,0.26101112
0.08,-0.98566365,0.6085178,-2.9773283,-0.535148,-1.1757519,0.2451841
0.082,-0.90071815,0.5115395,-2.9973197,-0.57773954,-1.3085154,0.22958535
0.084,-0.81216943,0.41098338,-2.999814,-0.6185038,-1.4387218,0.21435222
0.086,-0.7199868,0.30752224,-2.9859166,-0.6564859,-1.5643668,0.19965377
0.088,-0.6242254,0.20207018,-2.9570298,-0.69098765,-1.6838734,0.18570107
0.09,-0.52494335,0.09503877,-2.914817,-0.7216261,-1.796096,0.17282912
0.092,-0.4221459,-0.013156593,-2.8610005,-0.74825174,-1.9003265,0.16137373
0.094,-0.31610066,-0.12219936,-2.7970762,-0.77086496,-1.9962878,0.15155497
0.096,-0.20680904,-0.2316081,-2.7245219,-0.7895335,-2.0840845,0.14347982
0.098,-0.09458262,-0.34053403,-2.644376,-0.8043776,-2.164053,0.13724077
0.1,0.020608306,-0.44825202,-2.558083,-0.81566447,-2.2367003,0.13303736
0.102,0.13872558,-0.5542882,-2.4663212,-0.8237849,-2.30266,0.13111562
0.104,0.25970322,-0.6584068,-2.3697557,-0.8291756,-2.362655,0.13160929
0.106,0.38331497,-0.7606412,-2.2687452,-0.83233166,-2.4175606,0.13452199
0.108,0.5096234,-0.86103433,-2.1631866,-0.83374476,-2.468386,0.13976157
0.11,0.6382623,-0.9590061,-2.0528426,-0.8338995,-2.516264,0.14715561
0.112,0.7686957,-1.0544503,-1.9378271,-0.8333032,-2.5623658,0.15650707
0.114,0.90037274,-1.1477025,-1.8179954,-0.8324406,-2.6077704,0.16768095
0.116,1.0330931,-1.238627,-1.6921954,-0.8317429,-2.6533093,0.18063456
0.118,1.1660074,-1.3264804,-1.5595999,-0.83153987,-2.6994553,0.19543698
0.12,1.2985163,-1.4104847,-1.4200567,-0.8320049,-2.746197,0.21223232
0.122,1.4295872,-1.4902472,-1.2735089,-0.8331472,-2.793014,0.2311709
0.124,1.5586171,-1.5661263,-1.1199707,-0.8348255,-2.8389158,0.2523383
0.126,1.6853805,-1.6387749,-0.95922345,-0.83676463,-2.8825378,0.2757367
0.128,1.8092651,-1.7082688,-0.79166853,-0.8385712,-2.9222608,0.30123872
0.13,1.9292738,-1.7742965,-0.61756533,-0.83982074,-2.9563723,0.32861963
0.132,2.044622,-1.8365332,-0.43705258,-0.8400837,-2.9832656,0.35756305
0.134,2.154065,-1.8947167,-0.25141326,-0.83892345,-3.0015464,0.38764143
0.136,2.2569423,-1.9489034,-0.062010773,-0.83597016,-3.010161,0.41842118
0.138,2.352586,-1.999453,0.12982157,-0.8309256,-3.0083878,0.44950938
0.14,2.4402478,-2.046874,0.32263324,-0.8235835,-2.9958644,0.4805608
0.142,2.5189123,-2.091187,0.5147697,-0.81378555,-2.9725575,0.5112659
0.144,2.5880368,-2.1319807,0.7032878,-0.8013766,-2.938694,0.54139143
0.146,2.6470997,-2.1682763,0.8870727,-0.7862266,-2.8946352,0.57082427
0.148,2.6953375,-2.198788,1.0665077,-0.7681966,-2.840818,0.5995723
0.15,2.7316651,-2.2219977,1.2377156,-0.74717754,-2.7776585,0.6276942
0.152,2.7551327,-2.236659,1.3980273,-0.72311705,-2.7056012,0.6552862
0.154,2.7650156,-2.2421744,1.5464373,-0.69594145,-2.6251009,0.6824167
0.156,2.7610974,-2.237905,1.6810539,-0.6656066,-2.5366306,0.70922863
0.158,2.7425852,-2.2229962,1.7999744,-0.6321157,-2.4406433,0.7360324
0.16,2.7091525,-2.1966794,1.9015892,-0.5955584,-2.337602,0.76327336
0.162,2.6603394,-2.1580813,1.9851283,-0.55613446,-2.2280107,0.79143983
0.164,2.5956583,-2.1060812,2.0493753,-0.5140927,-2.1123352,0.8209355
0.166,2.5146618,-2.0397093,2.093652,-0.4697166,-1.9910234,0.85205734
0.168,2.4172258,-1.9577947,2.1180816,-0.4233259,-1.8644544,0.88500464
0.17,2.303505,-1.8594418,2.1226878,-0.37525928,-1.7329276,0.91988313
0.172,2.1735373,-1.7437528,2.1078212,-0.32582724,-1.5967069,0.9566774
0.174,2.0274003,-1.6098504,2.0740519,-0.27529854,-1.4560109,0.9952831
0.176,1.865732,-1.4571598,2.022076,-0.22392225,-1.3111483,1.0354792
0.178,1.6891462,-1.2853427,1.9530555,-0.17197633,-1.1625434,1.0768669
0.18,1.4985453,-1.0948437,1.8684983,-0.11973697,-1.010706,1.1189541
0.182,1.2951047,-0.8870276,1.7702687,-0.06754756,-0.85648036,1.1612643
0.184,1.0799844,-0.6638962,1.6602935,-0.01583165,-0.7008998,1.2034333
0.186,0.8549857,-0.4275788,1.5405445,0.03484744,-0.54511297,1.2452533
0.188,0.621922,-0.18070734,1.4132197,0.08372402,-0.39056846,1.2866207
0.19,0.38287228,0.07414046,1.2808783,0.12989932,-0.2389067,1.3273687
0.192,0.13962288,0.3341223,1.1466837,0.17234173,-0.09193544,1.3671422
0.194,-0.105281204,0.59527814,1.0134976,0.20994672,0.048483074,1.4052894
0.196,-0.3499058,0.85342324,0.8837627,0.24156708,0.18054861,1.4408243
0.198,-0.59155816,1.1036494,0.75936407,0.26615337,0.30257055,1.4723412
0.2,-0.82759297,1.3411717,0.64186746,0.28289872,0.413076,1.498063
0.202,-1.0553825,1.5613618,0.53228635,0.2913542,0.51094186,1.5160779
0.204,-1.2722393,1.7601992,0.43132928,0.29156637,0.5955328,1.5245634
0.206,-1.4758862,1.9343275,0.33891538,0.28415152,0.6668501,1.5220106
0.208,-1.6638669,2.080792,0.25462735,0.2702975,0.72553205,1.5074797
0.21,-1.8341769,2.1973455,0.17814858,0.2517436,0.77281654,1.4807684
0.212,-1.9849377,2.282461,0.108203195,0.23062205,0.8104143,1.4425038
0.214,-2.114341,2.3352072,0.04261351,0.20933205,0.8404362,1.3941573
0.216,-2.2213774,2.3563673,-0.023384359,0.1903066,0.8651626,1.3379165
0.218,-2.302641,2.3455594,-0.09184869,0.175755,0.8867887,1.2765204
0.22,-2.3568697,2.3032022,-0.16118197,0.16751504,0.9072983,1.2129257
0.222,-2.384391,2.230007,-0.23004985,0.16687804,0.9282491,1.1499739
0.224,-2.3844287,2.127645,-0.301062,0.17449757,0.95067346,1.0901321
0.226,-2.356114,1.9998323,-0.37864262,0.19034046,0.9750588,1.0353129
0.228,-2.2994747,1.8515944,-0.4660902,0.21374679,1.0012423,0.986814
0.23,-2.2161136,1.6880065,-0.5627738,0.2435452,1.028503,0.94540155
0.232,-2.107628,1.5137529,-0.6669154,0.2782025,1.0556042,0.9114179
0.234,-1.9753991,1.3328619,-0.7773037,0.31592178,1.0808396,0.88477606
0.236,-1.819926,1.1490493,-0.89114916,0.354801,1.1023352,0.8650168
0.238,-1.6426673,0.96597105,-1.0072434,0.3929431,1.1180272,0.851375
0.24,-1.4470348,0.7871958,-1.1244053,0.42857116,1.1259043,0.8429524
0.242,-1.2362103,0.6142503,-1.2427913,0.46009398,1.1242759,0.8389223
0.244,-1.0121682,0.4481877,-1.3615195,0.4860949,1.1117625,0.83857894
0.246,-0.7792237,0.29210812,-1.4759496,0.5053489,1.0873452,0.8414591
0.248,-0.5414928,0.14946052,-1.5801615,0.51682544,1.0503515,0.8475312
0.25,-0.3036567,0.02349034,-1.6683034,0.51974165,1.0004596,0.8568246
0.252,-0.07017723,-0.08350855,-1.7345679,0.5135472,0.9379592,0.8692939
0.254,0.15484299,-0.17034055,-1.7736202,0.4979027,0.8636034,0.8852257
0.256,0.36733562,-0.23651312,-1.783019,0.47282875,0.7784227,0.9052671
0.258,0.5635389,-0.28115752,-1.7621238,0.43861914,0.68360186,0.9299777
0.26,0.7399185,-0.30324826,-1.7073104,0.39578605,0.5805596,0.9596105
0.262,0.89282453,-0.30156416,-1.6183916,0.34511608,0.47132838,0.9941156
0.264,1.0191317,-0.2749784,-1.4983057,0.2878363,0.35869786,1.0331861
0.266,1.115871,-0.22328413,-1.3500715,0.2257345,0.24620482,1.076474
0.268,1.1812384,-0.14737165,-1.1776023,0.16117126,0.13820466,1.1234484
0.27,1.2143517,-0.048924,-0.9855181,0.09693168,0.03953767,1.1732086
0.272,1.215136,0.07001701,-0.7794305,0.036116794,-0.044525668,1.2246069
0.274,1.1848061,0.20643833,-0.56533635,-0.018095978,-0.10876546,1.2765656
0.276,1.125395,0.3568279,-0.34990326,-0.06256872,-0.14844522,1.3280556
0.278,1.0389491,0.51734316,-0.14016855,-0.09431639,-0.15954556,1.3777117
0.28,0.92883426,0.6826457,0.056738064,-0.110747255,-0.13929191,1.4236286
0.282,0.8008729,0.846511,0.23706403,-0.10993141,-0.08655061,1.463373
0.284,0.66079664,1.005493,0.39717624,-0.09083857,-0.002236031,1.4943008
0.286,0.51266533,1.1580595,0.52923554,-0.05361615,0.11041282,1.5140203
0.288,0.3612293,1.3004212,0.6251724,0.0002462268,0.2458936,1.5208504
0.29,0.21213043,1.4269962,0.68112195,0.06798145,0.39673162,1.5141506
0.292,0.07088894,1.5328429,0.6975527,0.1457029,0.5540234,1.4945663
0.294,-0.05779767,1.6150541,0.6776135,0.22876307,0.7081848,1.464015
0.296,-0.17000127,1.6723602,0.6252786,0.3122283,0.84987175,1.4255366
0.298,-0.26169854,1.7043796,0.5437525,0.39141357,0.9709117,1.3829733
0.3,-0.3302197,1.7112556,0.43583888,0.4623499,1.0651791,1.3403938
0.302,-0.37376153,1.6935563,0.3045604,0.52212584,1.1291001,1.3013649
0.304,-0.39109212,1.652784,0.15419744,0.5690577,1.1618382,1.2687838
0.306,-0.38177705,1.5913045,-0.010467209,0.6027371,1.1649508,1.244414
0.308,-0.34675434,1.512111,-0.18413547,0.6239165,1.1420941,1.2283431
0.31,-0.28757706,1.4184647,-0.36184388,0.6342008,1.0984868,1.2193063
0.312,-0.20645055,1.3134478,-0.5389745,0.6357547,1.0400755,1.2157226
0.314,-0.10592216,1.2001169,-0.71136284,0.63090175,0.97278297,1.2160097
0.316,0.011107296,1.0814309,-0.8754022,0.6217174,0.901541,1.2182752
0.318,0.14147884,0.96066415,-1.0287285,0.6098739,0.8297954,1.2204804
0.32,0.28176305,0.84097326,-1.1698394,0.5966056,0.7596091,1.221039
0.322,0.42834333,0.7254061,-1.2980995,0.5826966,0.69204444,1.2194408
0.324,0.5781197,0.6165402,-1.4124753,0.56860936,0.6276814,1.2160935
0.326,0.72805095,0.51597667,-1.5105205,0.5545718,0.56667924,1.2117196
0.328,0.87313056,0.42660138,-1.5937972,0.5406575,0.5090523,1.2068776
0.33,1.0111024,0.3500251,-1.6662376,0.52669835,0.45458713,1.2019305
0.332,1.1411321,0.28744173,-1.7291521,0.51217544,0.4025895,1.197267
0.334,1.2607677,0.2392076,-1.7799605,0.49623924,0.35197952,1.1932008
0.336,1.3676345,0.20357624,-1.8157423,0.477772,0.30129898,1.1897584
0.338,1.4607139,0.17802265,-1.8356453,0.45556408,0.2488398,1.1865551
0.34,1.5399567,0.1610631,-1.8423058,0.42856485,0.19286188,1.1828873
0.342,1.6047277,0.1521149,-1.8383605,0.39605466,0.131791,1.1779593
0.344,1.6540914,0.15124512,-1.8249547,0.35775724,0.064577326,1.1711174
0.346,1.6866055,0.1584253,-1.8033012,0.31394833,-0.008997276,1.1619416
0.348,1.7026635,0.1730183,-1.7715744,0.26544562,-0.088081285,1.1502757
0.35,1.7041506,0.19419056,-1.7283103,0.21360548,-0.1707725,1.1361433
0.352,1.691812,0.22263953,-1.6716301,0.16021311,-0.25422755,1.119663
0.354,1.6656783,0.25846738,-1.6009911,0.10733868,-0.33500677,1.1010598
0.356,1.6269518,0.29941797,-1.5206205,0.057141706,-0.4093686,1.0807024
0.358,1.5770102,0.34300685,-1.4352536,0.011669222,-0.47366595,1.0590308
0.36,1.5174334,0.38691825,-1.3486116,-0.027313165,-0.5246718,1.0365677
0.362,1.4496155,0.43004298,-1.263607,-0.05845584,-0.5598527,1.0139323
0.364,1.3740495,0.47229654,-1.1821035,-0.08093186,-0.5775342,0.9917226
0.366,1.2919849,0.51377404,-1.1058367,-0.094408646,-0.576949,0.970294
0.368,1.2044803,0.5544168,-1.03637,-0.09898195,-0.5582818,0.94993097
0.37,1.1112571,0.5945302,-0.97486997,-0.09521413,-0.52242666,0.9311833
0.372,1.0137787,0.6329472,-0.920385,-0.08418842,-0.4708695,0.9145364
0.374,0.91401696,0.6690186,-0.8722558,-0.06742362,-0.4058718,0.89987963
0.376,0.8130237,0.7032409,-0.8294476,-0.04632318,-0.32934928,0.8873314
0.378,0.71222234,0.73577774,-0.7908123,-0.023291878,-0.24674104,0.8751687
0.38,0.61292374,0.7672639,-0.7561601,-0.000110242516,-0.16136144,0.8633238
0.382,0.51619744,0.79820514,-0.72451603,0.021223396,-0.077345856,0.8514624
0.384,0.42250693,0.82925856,-0.69494414,0.038767904,0.0013608336,0.8393654
0.386,0.33204934,0.8609686,-0.6660798,0.050725147,0.071094826,0.826893
0.388,0.24588564,0.8930609,-0.63645476,0.055562377,0.12849715,0.8140197
0.39,0.16412264,0.92584705,-0.6037155,0.05204551,0.17060837,0.800918
0.392,0.08561984,0.95965296,-0.56753606,0.039254308,0.19508651,0.7879382
0.394,0.010024577,0.9920976,-0.52604055,0.01664199,0.20042202,0.7754944
0.396,-0.06135866,1.0205599,-0.47345582,-0.015859231,0.18618608,0.76398987
0.398,-0.128324,1.0457517,-0.4049578,-0.05767844,0.15323743,0.7537182
0.4,-0.19152579,1.0701007,-0.3207599,-0.107546926,0.103805415,0.7447066
0.402,-0.2513492,1.094954,-0.22363973,-0.16351902,0.041566323,0.73685485
0.404,-0.3077801,1.1201277,-0.11659137,-0.22298536,-0.028493878,0.7300382
0.406,-0.36093444,1.1449146,-0.0020763092,-0.28285488,-0.100625925,0.72396374
0.408,-0.41126734,1.169074,0.119129226,-0.33981133,-0.1687769,0.7182558
0.41,-0.45870495,1.1926543,0.24699974,-0.39063835,-0.2273002,0.71262205
0.412,-0.50349957,1.2165154,0.38038576,-0.4325562,-0.27157044,0.70688844
0.414,-0.5463219,1.2415066,0.51656306,-0.46345502,-0.29835412,0.7011054
0.416,-0.58769107,1.2680372,0.65249383,-0.48206288,-0.3060236,0.69561917
0.418,-0.62820524,1.2969414,0.78515714,-0.4879328,-0.29450816,0.69111085
0.42,-0.6687387,1.3288131,0.9114659,-0.48130828,-0.26499045,0.6886194
0.422,-0.7102067,1.3643224,1.0284773,-0.46301696,-0.21951197,0.6893433
0.424,-0.75365335,1.4036705,1.1334975,-0.43433797,-0.1604999,0.6944284
0.426,-0.7999933,1.4468985,1.2247343,-0.39686933,-0.09043969,0.7047631
0.428,-0.8500626,1.4936638,1.3010485,-0.35241288,-0.011664495,0.72068316
0.43,-0.9045383,1.5436621,1.3620087,-0.30314517,0.072913185,0.7413286
0.432,-0.9638608,1.5964595,1.4075204,-0.2506819,0.16288346,0.7665724
0.434,-1.0287492,1.6517863,1.4373059,-0.19759318,0.25493345,0.7937815
0.436,-1.0996124,1.70898,1.4515082,-0.14611605,0.34693947,0.8205125
0.438,-1.1760851,1.7669998,1.4506139,-0.09838803,0.43659344,0.844112
0.44,-1.2577236,1.8247782,1.435105,-0.056324095,0.5215079,0.862023
0.442,-1.344097,1.8811008,1.405707,-0.021457434,0.59942985,0.8720269
0.444,-1.4341685,1.9344821,1.3632236,0.0051990747,0.66836923,0.87253964
0.446,-1.5262257,1.9832782,1.3087748,0.023239821,0.72666866,0.86286265
0.448,-1.6182568,2.0262177,1.2438112,0.032924086,0.7731825,0.84323406
0.45,-1.7082448,2.0618632,1.1698269,0.035117656,0.8073743,0.8146553
0.452,-1.7936206,2.0888515,1.0882734,0.031114131,0.8292735,0.7786648
0.454,-1.871915,2.10621,1.0005487,0.02246356,0.83942425,0.7371307
0.456,-1.940784,2.1130948,0.90724957,0.010775834,0.8386964,0.6918019
0.458,-1.9979911,2.108701,0.8084947,-0.0025847256,0.82815206,0.64413095
0.46,-2.0417182,2.0924907,0.7038327,-0.016585022,0.8089758,0.59535235
0.462,-2.0692089,2.0640426,0.5924329,-0.030610532,0.78227663,0.5463214
0.464,-2.0782526,2.0232866,0.47482842,-0.044435382,0.74908644,0.49750376
0.466,-2.0666313,1.9705722,0.35202327,-0.058171332,0.7103171,0.4491602
0.468,-2.0330691,1.9062715,0.22559719,-0.0722146,0.6666929,0.4014355
0.47,-1.9763352,1.8306699,0.097713366,-0.08706446,0.61880237,0.35441524
0.472,-1.8957269,1.7442331,-0.030013844,-0.10326986,0.56713974,0.30821082
0.474,-1.7908494,1.647425,-0.15687706,-0.121357195,0.5121089,0.26300052
0.476,-1.6618078,1.5413094,-0.28218,-0.1417008,0.45410705,0.21911182
0.478,-1.5094793,1.427061,-0.40524152,-0.16447663,0.39356428,0.1770226
0.48,-1.3340082,1.3060205,-0.5251249,-0.1896693,0.33100557,0.13729796
0.482,-1.1381592,1.1812341,-0.6414371,-0.21714237,0.2670445,0.10058939
0.484,-0.92563677,1.0551035,-0.7522309,-0.24667916,0.20238793,0.067533016
0.486,-0.6988604,0.9290858,-0.8558144,-0.27804917,0.13775817,0.03867782
0.488,-0.46087605,0.80528194,-0.9513518,-0.31111634,0.07376934,0.014496092
0.49,-0.21559803,0.6850007,-1.0372207,-0.34583637,0.01091516,-0.004661903
0.492,0.032521017,0.56983507,-1.1104518,-0.38225025,-0.050425157,-0.01861418
0.494,0.28015953,0.46144444,-1.1680154,-0.42046812,-0.109996445,-0.027342524
0.496,0.5238865,0.36227715,-1.2082886,-0.46064293,-0.16760494,-0.031028803
0.498,0.7602304,0.27518427,-1.2302669,-0.50289285,-0.22306769,-0.030075494
0.5,0.9859272,0.20274103,-1.2339123,-0.54722035,-0.276087,-0.025099158
0.502,1.1982279,0.14651275,-1.2197096,-0.59339964,-0.3261196,-0.01689881
0.504,1.3946745,0.107646406,-1.1884873,-0.64090884,-0.3723601,-0.006380923
0.506,1.5732447,0.0868274,-1.1404979,-0.688902,-0.41368648,0.0055092573
0.508,1.7330413,0.08389941,-1.0769614,-0.7361724,-0.44866017,0.017814726
0.51,1.8736323,0.0980593,-0.9997024,-0.7812257,-0.47562832,0.029654324
0.512,1.9943606,0.1280824,-0.91094077,-0.8223464,-0.49279845,0.040235564
0.514,2.0947015,0.17241889,-0.8128116,-0.85775167,-0.49833366,0.0490427
0.516,2.174769,0.22914165,-0.7066539,-0.88579684,-0.49062985,0.05587922
0.518,2.2346134,0.29659262,-0.59424543,-0.90514106,-0.4684795,0.06083803
0.52,2.275077,0.37308604,-0.47836414,-0.91483617,-0.43120012,0.064248845
0.522,2.2978208,0.45685214,-0.3619494,-0.9145067,-0.3787765,0.06663136
0.524,2.3044484,0.5465065,-0.24733135,-0.9044336,-0.3119514,0.06870936
0.526,2.2961297,0.6409369,-0.13681582,-0.8855238,-0.23232535,0.07134138
0.528,2.2742128,0.7389402,-0.032753408,-0.8592639,-0.14214438,0.07533762
0.53,2.2400978,0.8393995,0.06346196,-0.827629,-0.04410562,0.081270024
0.532,2.1952324,0.9414986,0.1511085,-0.7929434,0.058805436,0.0894156
0.534,2.140632,1.0449328,0.22939438,-0.75765085,0.1635016,0.09976893
0.536,2.0772188,1.149128,0.29691923,-0.7240712,0.26701534,0.11207768
0.538,2.0060506,1.2537671,0.35259858,-0.69420874,0.36666083,0.12586229
0.54,1.9277788,1.3587699,0.395903,-0.6695564,0.46018046,0.14045033
0.542,1.8427973,1.4642667,0.4269289,-0.65097857,0.5458145,0.15505293
0.544,1.7517234,1.5703204,0.4463939,-0.6386703,0.62226576,0.16889454
0.546,1.6552773,1.6772468,0.45475945,-0.6321691,0.6886835,0.18129936
0.548,1.5537195,1.7852329,0.45248762,-0.6304895,0.74458337,0.19177237
0.55,1.4477806,1.8941109,0.44015315,-0.63234276,0.7897217,0.20007095
0.552,1.3383385,2.0036085,0.41809985,-0.6363003,0.824127,0.20611537
0.554,1.226055,2.1129904,0.38655648,-0.6410467,0.8480877,0.20991185
0.556,1.1115612,2.2216995,0.34617785,-0.64557254,0.8621243,0.21152146
0.558,0.9957187,2.3287003,0.2973508,-0.64923406,0.8670991,0.21106492
0.56,0.879277,2.4330456,0.24054414,-0.6517391,0.8642215,0.20871595
0.562,0.76336133,2.533534,0.17596924,-0.6530884,0.85494745,0.2047205
0.564,0.64879286,2.628969,0.10408431,-0.65344423,0.84088737,0.19935538
0.566,0.5367415,2.7179632,0.025477618,-0.6530414,0.8236512,0.19300765
0.568,0.42835516,2.799351,-0.05927536,-0.6520867,0.80469584,0.1861349
0.57,0.32498586,2.8718355,-0.14879057,-0.650639,0.78527945,0.1792434
0.572,0.22716737,2.9344802,-0.24169287,-0.6486235,0.7663872,0.1728648
0.574,0.13530111,2.986332,-0.33705592,-0.6458879,0.7486735,0.1674897
0.576,0.051853538,3.0256982,-0.4342966,-0.6421777,0.73248667,0.16350976
0.578,-0.023379326,3.0528064,-0.53472745,-0.63721204,0.71792805,0.16109776
0.58,-0.09149039,3.0683925,-0.6345394,-0.6307664,0.7049425,0.16021174
0.582,-0.15062034,3.0712337,-0.72536445,-0.6226814,0.6931982,0.16066152
0.584,-0.2008338,3.0614102,-0.80302733,-0.6129049,0.6821386,0.1622399
0.586,-0.2438932,3.039919,-0.8681692,-0.6014494,0.6710701,0.16469792
0.588,-0.27974343,3.0073662,-0.92138326,-0.5884278,0.65919936,0.16775319
0.59,-0.3047173,2.9620113,-0.96333843,-0.57404184,0.6456916,0.17115347
0.592,-0.32136708,2.9060626,-1.000585,-0.5585451,0.6297086,0.17477673
0.594,-0.3309316,2.8412712,-1.0275046,-0.54222405,0.6105111,0.17866546
0.596,-0.32889166,2.7653317,-1.023889,-0.5253717,0.5875441,0.18301308
0.598,-0.31736484,2.6795802,-0.9861199,-0.5082825,0.5605451,0.18807346
0.6,-0.2994491,2.5866363,-0.9229149,-0.4912007,0.52967733,0.19412808
0.602,-0.27963892,2.4897726,-0.84589994,-0.47428706,0.49556363,0.20143014
0.604,-0.25301614,2.387756,-0.7600767,-0.45757836,0.45925984,0.21018016
0.606,-0.21517307,2.27879,-0.6551654,-0.44105574,0.42212585,0.22057477
0.608,-0.16918409,2.165455,-0.5225245,-0.42456084,0.38565856,0.23272091
0.61,-0.11879921,2.0508518,-0.36620414,-0.40792596,0.35119495,0.24654122
0.612,-0.06540543,1.9365493,-0.19400536,-0.39103484,0.32004172,0.2619145
0.614,-0.009467363,1.8231366,-0.011444584,-0.37383497,0.29356456,0.27859032
0.616,0.04706508,1.7118056,0.17937133,-0.3563499,0.27282828,0.2961286
0.618,0.100934744,1.6048974,0.38043177,-0.33862215,0.25830966,0.31407747
0.62,0.14981222,1.5045598,0.5950374,-0.32085383,0.24986565,0.33204898
0.622,0.1922766,1.4127765,0.82355654,-0.30335438,0.2471168,0.3494824
0.624,0.22766227,1.3308868,1.062268,-0.28681153,0.24922457,0.36570418
0.626,0.25470275,1.2602664,1.3054652,-0.2723882,0.25521624,0.38032493
0.628,0.2717535,1.2024101,1.5482718,-0.2611504,0.26484537,0.39270326
0.63,0.2769478,1.1587293,1.7877725,-0.25391042,0.2776636,0.40187383
0.632,0.2677005,1.1312428,2.022184,-0.25108925,0.29256788,0.4072442
0.634,0.24464166,1.120037,2.2496345,-0.25267655,0.30854812,0.40887833
0.636,0.20774114,1.1254244,2.4678779,-0.25864044,0.32519305,0.40728328
0.638,0.15707093,1.1480384,2.6738183,-0.26895702,0.3429626,0.40251893
0.64,0.09312737,1.188095,2.8639765,-0.2832588,0.3628465,0.3940836
0.642,0.016489387,1.2454073,3.0342162,-0.3007541,0.38572082,0.3816958
0.644,-0.07121849,1.318948,3.180272,-0.32022673,0.4124571,0.36564347
0.646,-0.16826677,1.4077718,3.2985606,-0.34019652,0.44402298,0.3465242
0.648,-0.2724424,1.5099598,3.3856015,-0.35902706,0.4813991,0.3249224
0.65,-0.38092798,1.6231518,3.4380121,-0.3750154,0.5255661,0.30126286
0.652,-0.4906004,1.7444947,3.4529772,-0.3864415,0.5773678,0.27578795
0.654,-0.5979112,1.870909,3.428285,-0.3917473,0.63714385,0.24853987
0.656,-0.6996899,1.9992142,3.3625839,-0.38981095,0.70442367,0.21945402
0.658,-0.79292804,2.1265259,3.2555816,-0.38021356,0.7778486,0.18827038
0.66,-0.8746694,2.2501383,3.1078496,-0.3633779,0.85523033,0.15450773
0.662,-0.94193584,2.3673837,2.9212568,-0.34057337,0.93367815,0.11756111
0.664,-0.99205387,2.4758565,2.6989293,-0.31366295,1.0099056,0.076903164
0.666,-1.0226114,2.5731163,2.444502,-0.28486052,1.0803592,0.032141212
0.668,-1.0316042,2.6569932,2.1629145,-0.25646958,1.1414682,-0.016813293
0.67,-1.0172377,2.7257683,1.8592608,-0.2306286,1.1902744,-0.06966823
0.672,-0.97850925,2.7784486,1.5394509,-0.20906582,1.224749,-0.12583809
0.674,-0.91451806,2.8144255,1.2095815,-0.19277844,1.2436552,-0.18451473
0.676,-0.8249855,2.8339288,0.8758757,-0.18215479,1.2462435,-0.24453858
0.678,-0.7099607,2.8373818,0.54484165,-0.17693302,1.2325317,-0.3045972
0.68,-0.5702864,2.82602,0.22261038,-0.17643686,1.2030437,-0.36367247
0.682,-0.4068058,2.8011246,-0.08487293,-0.18020454,1.1584561,-0.42061636
0.684,-0.22059435,2.7643337,-0.37181056,-0.18788645,1.1006879,-0.47441816
0.686,-0.014722645,2.7182558,-0.6325228,-0.19917274,1.0327333,-0.5247567
0.688,0.20983887,2.6644533,-0.86245465,-0.21361725,0.9576063,-0.5717821
0.69,0.45222995,2.6043985,-1.0636035,-0.23037817,0.87804526,-0.6155989
0.692,0.7091807,2.540513,-1.2399366,-0.2483949,0.7965766,-0.65564406
0.694,0.97870684,2.4743826,-1.3902795,-0.26687148,0.715936,-0.691126
0.696,1.2589186,2.406947,-1.5100214,-0.28520787,0.63918304,-0.72185975
0.698,1.5458696,2.3400307,-1.5972911,-0.3029324,0.5689301,-0.7481433
0.7,1.8323646,2.277056,-1.6528543,-0.31963187,0.5070075,-0.7701954
0.702,2.1179261,2.2175734,-1.6744819,-0.33503008,0.4543637,-0.7879547
0.704,2.3992772,2.162578,-1.6731603,-0.34909928,0.4111068,-0.80118704
0.706,2.6678119,2.1165266,-1.6682537,-0.36211228,0.3767237,-0.8097385
0.708,2.922102,2.0792885,-1.6574603,-0.37454563,0.35043103,-0.81368065
0.71,3.1606355,2.050268,-1.6309267,-0.3868659,0.33142012,-0.81340945
0.712,3.382163,2.0284655,-1.583411,-0.39940453,0.3189138,-0.8094967
0.714,3.575269,2.01735,-1.5186174,-0.41226435,0.31222296,-0.8026074
0.716,3.7325013,2.0190606,-1.451836,-0.4253205,0.31080824,-0.7934517
0.718,3.8545074,2.031121,-1.3910161,-0.43821785,0.31426054,-0.782858
0.72,3.941142,2.0520623,-1.3309506,-0.4504435,0.32223743,-0.7718033
0.722,3.9895728,2.0825202,-1.2662332,-0.46141535,0.33458352,-0.7611794
0.724,3.9972465,2.1235006,-1.1963046,-0.47044536,0.35140672,-0.751763
0.726,3.9632146,2.1748261,-1.1244992,-0.47684336,0.37288594,-0.7443267
0.728,3.8881457,2.2353222,-1.056199,-0.48005897,0.39921138,-0.7396183
0.73,3.7727573,2.3039958,-0.9955299,-0.47965625,0.430494,-0.7383542
0.732,3.6183205,2.3797054,-0.9423802,-0.47536078,0.4667012,-0.74118274
0.734,3.426801,2.461461,-0.8928704,-0.467054,0.5075434,-0.7486706
0.736,3.2015193,2.547884,-0.8428936,-0.4548456,0.55238086,-0.7613194
0.738,2.9475071,2.636786,-0.78973806,-0.43910667,0.6002211,-0.7795023
0.74,2.6696534,2.7264428,-0.73271453,-0.4204061,0.649764,-0.8034159
0.742,2.3744416,2.8144612,-0.6723984,-0.39948952,0.6994815,-0.83304375
0.744,2.065806,2.9004478,-0.6099991,-0.3771448,0.74773175,-0.8681091
0.746,1.7496312,2.9836802,-0.5464061,-0.35414574,0.7928195,-0.9080988
0.748,1.4323528,3.0626101,-0.48187566,-0.33112252,0.83308804,-0.9522364
0.75,1.119962,3.13636,-0.4161269,-0.30854625,0.8670756,-0.9995308
0.752,0.81793875,3.2041717,-0.3475182,-0.2867141,0.8935962,-1.0488423
0.754,0.53075397,3.2657895,-0.27422947,-0.26575062,0.9118409,-1.098967
0.756,0.2649387,3.3201206,-0.1961953,-0.24565992,0.9214318,-1.1487137
0.758,0.023843646,3.367619,-0.113584876,-0.22632627,0.92245334,-1.1970279
0.76,-0.18942165,3.4085379,-0.026882976,-0.20759733,0.91539717,-1.2429273
0.762,-0.37222522,3.4431174,0.061580658,-0.18931915,0.9011324,-1.2855648
0.764,-0.52242345,3.4715054,0.15011898,-0.17137279,0.8808289,-1.3242147
0.766,-0.6385828,3.4941568,0.23797968,-0.15368968,0.8558904,-1.3582621
0.768,-0.72041756,3.5115807,0.32442078,-0.1362677,0.8278768,-1.3872142
0.77,-0.76843596,3.5243642,0.40888906,-0.119153395,0.7984504,-1.4106537
0.772,-0.7835821,3.5329432,0.48987663,-0.10239546,0.76937455,-1.4282243
0.774,-0.767897,3.5380464,0.56558454,-0.08599989,0.7423253,-1.4396445
0.776,-0.72373277,3.5405397,0.6345993,-0.06990181,0.71879286,-1.4447821
0.778,-0.65386456,3.5414598,0.6957704,-0.054091245,0.6999207,-1.4436537
0.78,-0.5613029,3.5416555,0.7490251,-0.03861767,0.68657464,-1.4363745
0.782,-0.44920254,3.5416584,0.7943295,-0.023546547,0.67934114,-1.4232306
0.784,-0.3211596,3.5418863,0.8315073,-0.009018272,0.67845577,-1.4046673
0.786,-0.18049288,3.54243,0.8603891,0.004791513,0.68380386,-1.3812621
0.788,-0.030685544,3.5434675,0.8810604,0.017635591,0.69482833,-1.3537366
0.79,0.12526262,3.5450063,0.89382803,0.029213943,0.7105975,-1.3230158
0.792,0.28426993,3.5474353,0.89939964,0.039223567,0.7298516,-1.2901145
0.794,0.443704,3.5508313,0.8985832,0.0473516,0.75105274,-1.2560897
0.796,0.601437,3.5548887,0.892553,0.053313754,0.7725117,-1.2219937
0.798,0.7557628,3.559245,0.88367295,0.05688096,0.79256654,-1.1888866
0.8,0.9046633,3.5641022,0.87427336,0.05787467,0.8096729,-1.1577945
0.802,1.0465442,3.5699193,0.8655862,0.05619943,0.82255,-1.1296494
0.804,1.1810052,3.5761466,0.8590495,0.05187378,0.83021826,-1.105236
0.806,1.3083415,3.581863,0.8551491,0.04500756,0.8320972,-1.0851828
0.808,1.4290545,3.5864308,0.854581,0.035838865,0.8279682,-1.0699297
0.81,1.5436804,3.5894089,0.85877085,0.024726607,0.81798863,-1.059701
0.812,1.6524284,3.590756,0.8689117,0.012088708,0.80263436,-1.0545212
0.814,1.7559042,3.5904531,0.8868269,-0.0016026571,0.78266495,-1.054255
0.816,1.854763,3.5882883,0.9138784,-0.015879065,0.75905776,-1.0585793
0.818,1.9500334,3.5844069,0.9505689,-0.030279182,0.7329555,-1.0670037
0.82,2.0425375,3.5788798,0.99729145,-0.04436285,0.70559585,-1.0789223
0.822,2.1328654,3.5723028,1.0535812,-0.057704754,0.67826587,-1.0936483
0.824,2.2217064,3.5652373,1.118587,-0.06990409,0.6522908,-1.110471
0.826,2.309568,3.5582883,1.191467,-0.08061348,0.6289827,-1.1286622
0.828,2.3968036,3.5520663,1.2707992,-0.08951393,0.60962147,-1.1475053
0.83,2.4835038,3.547123,1.3555434,-0.09633796,0.59535015,-1.1663523
0.832,2.5693092,3.5440774,1.4446297,-0.100881055,0.5871545,-1.1846433
0.834,2.6535397,3.5432255,1.5363019,-0.10300103,0.58573526,-1.2019081
0.836,2.7355552,3.5448203,1.628698,-0.10266489,0.59142405,-1.2177154
0.838,2.8141751,3.5490997,1.7202616,-0.09992601,0.6042153,-1.2316598
0.84,2.8878484,3.5561268,1.8095617,-0.09496036,0.6237945,-1.2433913
0.842,2.9550667,3.5662017,1.8949591,-0.08803277,0.64966846,-1.2525785
0.844,3.0142999,3.579608,1.9743142,-0.079437986,0.6811222,-1.2588903
0.846,3.0639353,3.5961995,2.0457747,-0.06954017,0.71725005,-1.2621723
0.848,3.102098,3.6160138,2.1076615,-0.058722712,0.75702757,-1.2624127
0.85,3.127761,3.6385036,2.1585062,-0.04739937,0.79931146,-1.2596722
0.852,3.1392484,3.6631446,2.1977267,-0.036001883,0.84290594,-1.2540237
0.854,3.1356592,3.6891375,2.225645,-0.024917815,0.88669205,-1.2456
0.856,3.116303,3.7154663,2.2428088,-0.014458387,0.92965996,-1.2346013
0.858,3.0801783,3.741692,2.2499647,-0.004838949,0.9710131,-1.2212797
0.86,3.0268335,3.7672176,2.247232,0.0038625523,1.0101458,-1.2059187
0.862,2.956699,3.791468,2.234253,0.011668455,1.0467045,-1.1888409
0.864,2.8705907,3.813733,2.2111619,0.018711299,1.0805678,-1.1704274
0.866,2.7678337,3.8339405,2.1796622,0.025227226,1.1117866,-1.1510772
0.868,2.6503778,3.850923,2.140874,0.03155887,1.1405612,-1.1312417
0.87,2.5199015,3.863908,2.0962667,0.03809093,1.167165,-1.1114141
0.872,2.3781192,3.8722172,2.048823,0.045184076,1.1918814,-1.0921271
0.874,2.2266033,3.875427,2.0004084,0.053136945,1.2149442,-1.0738999
0.876,2.0674438,3.8727384,1.9522464,0.062123343,1.2364618,-1.057193
0.878,1.9033313,3.863433,1.90586,0.072187126,1.2564163,-1.0423976
0.88,1.7368085,3.8469129,1.8628008,0.08324881,1.274719,-1.029856
0.882,1.570101,3.8230517,1.8252442,0.09513831,1.2912729,-1.0197877
0.884,1.4060559,3.7915692,1.7950618,0.10763019,1.3059883,-1.0122511
0.886,1.2470227,3.7521992,1.7738283,0.12050012,1.3188006,-1.007125
0.888,1.0951818,3.7047582,1.7626436,0.13355201,1.3297633,-1.0041862
0.89,0.9525008,3.6492085,1.7619902,0.14665508,1.3390322,-1.0031564
0.892,0.8204498,3.586065,1.771994,0.1597527,1.3468416,-1.0036999
0.894,0.7001538,3.5159378,1.7926226,0.1728692,1.3534422,-1.0053977
0.896,0.59231865,3.4397936,1.8241293,0.18609405,1.3590573,-1.007767
0.898,0.4975376,3.3584826,1.8667296,0.19954264,1.3639817,-1.010257
0.9,0.4157189,3.2730103,1.9198484,0.21332416,1.368536,-1.0122784
0.902,0.34632707,3.1844997,1.9819915,0.22749847,1.3730612,-1.013276
0.904,0.28849423,3.094634,2.0513797,0.24208593,1.3780267,-1.0127754
0.906,0.24067402,3.0051942,2.1262195,0.25706995,1.3839879,-1.0103599
0.908,0.20116317,2.9177284,2.204833,0.27241826,1.3916035,-1.0056505
0.91,0.16798913,2.8339143,2.285672,0.2880921,1.4015698,-0.9983789
0.912,0.13866127,2.7557635,2.3671482,0.30409133,1.4145606,-0.98837733
0.914,0.11136484,2.684957,2.4470038,0.320442,1.4312143,-0.97560924
0.916,0.08402026,2.623712,2.5207515,0.33720922,1.452018,-0.96018386
0.918,0.05243528,2.5748813,2.5844483,0.35449737,1.477288,-0.9423355
0.92,0.016604781,2.5379567,2.6414852,0.37241635,1.5071703,-0.92244565
0.922,-0.025555253,2.5137525,2.6934767,0.39107123,1.5415914,-0.9010054
0.924,-0.07897723,2.5042582,2.739466,0.4105795,1.5802803,-0.8786049
0.926,-0.14441955,2.5103714,2.774302,0.43103233,1.6227822,-0.8558699
0.928,-0.22491825,2.5336046,2.7923503,0.45248455,1.6685218,-0.8334558
0.93,-0.31924367,2.5731702,2.7916846,0.47499213,1.7168844,-0.8120445
0.932,-0.42272472,2.6252623,2.7801738,0.49860236,1.767185,-0.7923261
0.934,-0.53724515,2.6893368,2.7601137,0.52334416,1.8186657,-0.7749576
0.936,-0.6641296,2.7655735,2.726167,0.549189,1.8705385,-0.76061743
0.938,-0.7983403,2.8514042,2.6766129,0.57604414,1.9219953,-0.74999475
0.94,-0.93735206,2.945085,2.6136265,0.60372883,1.9722147,-0.7437535
0.942,-1.0814472,3.0456362,2.5410254,0.631961,2.0203335,-0.74245065
0.944,-1.228376,3.1506844,2.4623084,0.6603652,2.0653968,-0.7464886
0.946,-1.3742642,3.2576227,2.379165,0.688541,2.1064231,-0.7561071
0.948,-1.5167279,3.3647466,2.2928329,0.71607614,2.1423953,-0.77145165
0.95,-1.6541125,3.4704115,2.2040522,0.74231964,2.1722436,-0.7923727
0.952,-1.7839305,3.5723033,2.1140215,0.76655847,2.1951463,-0.81849873
0.954,-1.9035178,3.6679866,2.0251975,0.7881832,2.2106657,-0.8494168
0.956,-2.010036,3.7557554,1.940258,0.8067864,2.2185833,-0.88457006
0.958,-2.1010895,3.834186,1.8610754,0.82215,2.218696,-0.9232308
0.96,-2.1747923,3.9023848,1.7887621,0.8341673,2.2109857,-0.964516
0.962,-2.22921,3.9597154,1.7237902,0.84275454,2.196062,-1.0074942
0.964,-2.2630439,4.005704,1.6664774,0.8479228,2.1754334,-1.051678
0.966,-2.275292,4.040315,1.6172154,0.84997314,2.1506119,-1.0968994
0.968,-2.2653306,4.063477,1.5763843,0.8496438,2.1229684,-1.1426673
0.97,-2.232813,4.0751915,1.5445004,0.84800756,2.0941944,-1.1883577
0.972,-2.1779382,4.0756817,1.5215735,0.8462651,2.0661225,-1.2336946
0.974,-2.101121,4.0653534,1.5075228,0.84566295,2.0403361,-1.2785223
0.976,-2.0035114,4.0450683,1.5018911,0.8474312,2.0179667,-1.3224766
0.978,-1.8859829,4.01565,1.5044928,0.8526328,1.9996136,-1.3651102
0.98,-1.7501912,3.977975,1.5143232,0.86193633,1.9852633,-1.4060304
0.982,-1.5981658,3.93329,1.5305095,0.8754507,1.9742016,-1.4448203
0.984,-1.432743,3.883193,1.5522602,0.89265466,1.9652331,-1.4809954
0.986,-1.2566377,3.829103,1.5789059,0.91249734,1.9569888,-1.514053
0.988,-1.0728729,3.7725492,1.6101811,0.9335794,1.9481754,-1.5436378
0.99,-0.88446426,3.7148278,1.6458026,0.9543973,1.9377997,-1.5695738
0.992,-0.69461966,3.6571257,1.6855178,0.9735856,1.9252949,-1.5918163
0.994,-0.50641215,3.600459,1.729193,0.9901327,1.9105964,-1.6104434
0.996,-0.32256413,3.5458238,1.7764105,1.0034986,1.894167,-1.6256988
0.998,-0.14578259,3.4940233,1.8269258,1.0136287,1.8769021,-1.6379756
1,0.021696687,3.445662,1.8808293,1.0208461,1.859875,-1.6477427
1.002,0.178128,3.4009485,1.9384143,1.0257804,1.8441586,-1.6554376
1.004,0.32248235,3.3601608,1.9998941,1.0293515,1.8306257,-1.6615586
1.006,0.45372522,3.3233714,2.0649319,1.0323682,1.8195472,-1.666589
1.008,0.5718597,3.290399,2.1327553,1.0353246,1.8107111,-1.670888
1.01,0.6774564,3.2608287,2.203226,1.0383856,1.8037124,-1.6748914
1.012,0.7714882,3.233935,2.276613,1.0415202,1.7980634,-1.679138
1.014,0.8553308,3.2086658,2.3530397,1.0446239,1.793094,-1.6842579
1.016,0.9306518,3.1841927,2.4325485,1.0475917,1.787737,-1.690882
1.018,0.99944067,3.1596956,2.51486,1.050286,1.7807755,-1.6992891
1.02,1.0638876,3.1343787,2.5994902,1.0524197,1.7717116,-1.7097884
1.022,1.1264695,3.1073892,2.686669,1.0536311,1.7604382,-1.7230507
1.024,1.1891531,3.078286,2.7770107,1.0536685,1.7466588,-1.7395366
1.026,1.2544669,3.0460613,2.8723705,1.0525122,1.7301179,-1.7590789
1.028,1.3263491,3.0092077,2.9727058,1.0502319,1.7108705,-1.7812533
1.03,1.404682,2.969329,3.0717425,1.0469064,1.6892399,-1.80562
1.032,1.491698,2.9261532,3.167262,1.0426255,1.665723,-1.8314899
1.034,1.5914605,2.8785913,3.2603908,1.037576,1.6409838,-1.8579624
1.036,1.7030706,2.8270636,3.355641,1.0320385,1.6159085,-1.884121
1.038,1.8278886,2.771469,3.4556768,1.0263507,1.5914263,-1.9091301
1.04,1.9630278,2.7140622,3.5584886,1.0208509,1.5684856,-1.9322594
1.042,2.1042929,2.6582913,3.654517,1.015863,1.5480444,-1.9528406
1.044,2.254503,2.6037078,3.742402,1.0116968,1.5310352,-1.9702873
1.046,2.4141576,2.5498824,3.8268647,1.0086209,1.5183394,-1.9841805
1.048,2.5780594,2.4990826,3.9074507,1.0068264,1.5106704,-1.9942493
1.05,2.7445793,2.4522195,3.9795773,1.006441,1.5084727,-2.0003047
1.052,2.9145648,2.409666,4.038579,1.0075188,1.5119047,-2.002206
1.054,3.0856488,2.372908,4.082009,1.0099919,1.5208046,-1.9998939
1.056,3.2545116,2.343363,4.1098027,1.0136645,1.534707,-1.9934263
1.058,3.4193127,2.3210618,4.1219425,1.0182152,1.5528834,-1.9829857
1.06,3.5785933,2.3064861,4.1186,1.023226,1.5743879,-1.968827
1.062,3.7299457,2.300129,4.0989513,1.0282047,1.5981064,-1.9513193
1.064,3.87151,2.302007,4.0619593,1.0326468,1.6228371,-1.930942
1.066,4.001506,2.3118649,4.0059977,1.0360516,1.6474266,-1.9082687
1.068,4.1188855,2.328773,3.9309554,1.0379827,1.6708562,-1.8839118
1.07,4.223201,2.3515134,3.8374789,1.0381117,1.6923115,-1.85852
1.072,4.3145447,2.3787217,3.7265913,1.0362003,1.7111704,-1.8327837
1.074,4.3931494,2.4089675,3.5989792,1.0321279,1.7270117,-1.8073907
1.076,4.4598255,2.4405959,3.4554117,1.0258867,1.7396125,-1.7830503
1.078,4.515519,2.4720604,3.2967253,1.0175129,1.7488827,-1.760457
1.08,4.5614557,2.502085,3.1238036,1.0070523,1.754801,-1.7402956
1.082,4.5991907,2.5291092,2.937895,0.99455214,1.757314,-1.7232116
1.084,4.6303444,2.5517087,2.7403622,0.9800005,1.7562915,-1.709779
1.086,4.657099,2.5682726,2.532748,0.9633564,1.7515714,-1.7004995
1.088,4.681492,2.577548,2.316501,0.94458306,1.7429676,-1.6957574
1.09,4.7061405,2.578198,2.0930498,0.9236394,1.7302471,-1.6958507
1.092,4.7330747,2.5694575,1.8633305,0.9005728,1.71324,-1.7009575
1.094,4.764468,2.550628,1.6287857,0.8755529,1.6919754,-1.7110207
1.096,4.802642,2.5206227,1.3912692,0.84880674,1.6664605,-1.725851
1.098,4.8488884,2.479721,1.1516105,0.8206339,1.6367828,-1.7451854
1.1,4.9038906,2.4286351,0.91096115,0.7914772,1.6032228,-1.7686383
1.102,4.968247,2.3681402,0.67076993,0.7618457,1.5661653,-1.7957227
1.104,5.0419626,2.2993972,0.4324174,0.7322398,1.5260904,-1.8258736
1.106,5.124484,2.2238224,0.19704711,0.70313996,1.4835545,-1.8584771
1.108,5.21451,2.1432312,-0.033745408,0.6749695,1.439162,-1.8928906
1.11,5.310382,2.0596964,-0.25873744,0.6480768,1.3936036,-1.9284205
1.112,5.4099097,1.9755561,-0.47663903,0.62270725,1.3476129,-1.9643247
1.114,5.5104365,1.8930458,-0.6862252,0.59904706,1.3019513,-1.9998024
1.116,5.609135,1.8145335,-0.88599265,0.57727003,1.2574087,-2.0339644
1.118,5.702352,1.7424376,-1.0746057,0.5575382,1.214736,-2.0658529
1.12,5.7865405,1.6788368,-1.2510087,0.54005754,1.1745883,-2.0944867
1.122,5.8577366,1.6258328,-1.4141403,0.52508914,1.1374807,-2.1189198
1.124,5.9121823,1.5853643,-1.5628556,0.51299447,1.1038469,-2.1382751
1.126,5.9463034,1.5588651,-1.6958537,0.5042743,1.07413,-2.151666
1.128,5.9567084,1.5476414,-1.8121971,0.49941584,1.0484827,-2.1583564
1.13,5.94027,1.5524633,-1.911028,0.49890426,1.0268446,-2.1578727
1.132,5.8940115,1.5735593,-1.9917358,0.5031804,1.0089873,-2.1500082
1.134,5.8155365,1.6107862,-2.053668,0.5125681,0.9945421,-2.1348243
1.136,5.7029657,1.6636803,-2.0959525,0.52724075,0.9830405,-2.112671
1.138,5.555032,1.7312678,-2.1174777,0.5471928,0.97398597,-2.0841882
1.14,5.37145,1.8121438,-2.1174057,0.5722273,0.9668181,-2.050239
1.142,5.1523547,1.9045041,-2.0949283,0.60194135,0.9609938,-2.011862
1.144,4.8989778,2.0062413,-2.0493078,0.63579553,0.9560882,-1.970212
1.146,4.613551,2.114976,-1.9806927,0.6731213,0.95171887,-1.9265519
1.148,4.2986407,2.228044,-1.889017,0.7131802,0.94751376,-1.8822293
1.15,3.9577992,2.3425415,-1.7745013,0.75528276,0.94335055,-1.8385128
1.152,3.5948691,2.4555051,-1.6375272,0.79876965,0.9391028,-1.7965453
1.154,3.2142735,2.5640016,-1.4788096,0.843014,0.93455356,-1.7573522
1.156,2.8213305,2.6649618,-1.2990818,0.8874908,0.92946494,-1.7218345
1.158,2.4213972,2.7556853,-1.0996796,0.9317796,0.9235464,-1.6907634
1.16,2.0202098,2.8337572,-0.8818346,0.97552484,0.9164187,-1.6647446
1.162,1.6230977,2.8970437,-0.64725316,1.0184568,0.90766907,-1.6442084
1.164,1.2358031,2.9440198,-0.39807308,1.0603343,0.896822,-1.629409
1.166,0.86369795,2.9733856,-0.13685572,1.1009196,0.8833755,-1.6204802
1.168,0.51209444,2.9844892,0.13360333,1.1399329,0.86682045,-1.6174582
1.17,0.18605554,2.9769168,0.41007477,1.1770548,0.846679,-1.6202902
1.172,-0.10998565,2.9509585,0.68905157,1.2119377,0.822556,-1.6288192
1.174,-0.3723123,2.9075503,0.9661888,1.244214,0.79418284,-1.6428016
1.176,-0.59751296,2.847732,1.2376401,1.2735465,0.7614441,-1.661897
1.178,-0.78269464,2.7729797,1.4991035,1.299603,0.7243252,-1.6856623
1.18,-0.92583185,2.685254,1.7465361,1.3221245,0.6829526,-1.7136836
1.182,-1.0256875,2.5868554,1.9760258,1.3410497,0.63780904,-1.7454222
1.184,-1.0812405,2.480159,2.1841352,1.356433,0.58952224,-1.7802386
1.186,-1.0923668,2.3676455,2.3672104,1.3684511,0.5388128,-1.8174553
1.188,-1.0593326,2.2517462,2.5220509,1.3774194,0.48646417,-1.8564332
1.19,-0.9833671,2.134966,2.6460867,1.3837487,0.43327633,-1.8965613
1.192,-0.8662329,2.0201116,2.7375197,1.3879185,0.37999442,-1.9372679
1.194,-0.71009684,1.909528,2.7949944,1.3904252,0.32729685,-1.97805
1.196,-0.5174212,1.8054341,2.8174758,1.3917804,0.27576333,-2.0184598
1.198,-0.2911892,1.7096086,2.8046045,1.3924693,0.22583947,-2.0580857
1.2,-0.034573793,1.6239233,2.7568588,1.392933,0.17785537,-2.096534
1.202,0.24925318,1.5495441,2.6756501,1.3935732,0.13202953,-2.1334093
1.204,0.5571546,1.4874097,2.56263,1.394754,0.08850497,-2.1683118
1.206,0.8850461,1.4390165,2.4197912,1.3968251,0.047424316,-2.200845
1.208,1.2298708,1.4041172,2.2503023,1.4001117,0.0089431405,-2.2306123
1.21,1.588687,1.3824534,2.0573363,1.4049431,-0.026728213,-2.2572162
1.212,1.9583967,1.3736767,1.8441539,1.4116459,-0.05932498,-2.2802882
1.214,2.3360648,1.3770494,1.6143862,1.420547,-0.088544786,-2.299538
1.216,2.7189584,1.3916067,1.372149,1.4319326,-0.11406857,-2.314765
1.218,3.1048286,1.4159253,1.1209371,1.4460618,-0.13558453,-2.3258877
1.22,3.4913547,1.4486439,0.8644397,1.4631338,-0.15280437,-2.332891
1.222,3.8766296,1.4879304,0.6060912,1.4832704,-0.16551703,-2.335822
1.224,4.258751,1.5321524,0.34927076,1.5065031,-0.1736477,-2.3348217
1.226,4.63578,1.579637,0.09680271,1.5327563,-0.17722619,-2.3301146
1.228,5.006451,1.6288598,-0.14862698,1.5618733,-0.17639613,-2.3219404
1.23,5.369394,1.6784868,-0.38444275,1.5936197,-0.17139608,-2.3105702
1.232,5.7236886,1.7270744,-0.608769,1.627718,-0.1625495,-2.2963173
1.234,6.068383,1.773589,-0.82062864,1.6638343,-0.15027303,-2.2795095
1.236,6.4027367,1.8169122,-1.0196989,1.7016089,-0.13504642,-2.2605171
1.238,6.7259383,1.8561771,-1.2058011,1.740644,-0.1174199,-2.239695
1.24,7.0373616,1.8906472,-1.378994,1.7805321,-0.09806222,-2.2174187
1.242,7.3364186,1.9201356,-1.53967,1.8208355,-0.07776934,-2.1940506
1.244,7.6227956,1.9447156,-1.6888561,1.8611194,-0.05744496,-2.1699207
1.246,7.8963804,1.96433,-1.8280299,1.900964,-0.03807494,-2.1453507
1.248,8.157218,1.9790542,-1.9597051,1.9399999,-0.020676732,-2.1206617
1.25,8.404998,1.9895523,-2.0855722,1.9779017,-0.0062274635,-2.0961394
1.252,8.639725,1.9964684,-2.2075632,2.0144374,0.004380107,-2.0720465
1.254,8.86165,2.0003753,-2.3286142,2.0494845,0.010428548,-2.0486279
1.256,9.070784,2.0021265,-2.4510038,2.0830405,0.011397153,-2.0261054
1.258,9.267447,2.0025415,-2.5775814,2.1152332,0.006971091,-2.0046685
1.26,9.452133,2.0026023,-2.7111778,2.1463153,-0.0029732585,-1.9844483
1.262,9.625302,2.0034115,-2.8542633,2.17664,-0.018387944,-1.9655331
1.264,9.78766,2.0058584,-3.009571,2.2066376,-0.03916326,-1.9479556
1.266,9.939831,2.0109985,-3.179931,2.23679,-0.0651212,-1.931693
1.268,10.082645,2.0200222,-3.367929,2.267598,-0.09604424,-1.9166441
1.27,10.216634,2.033889,-3.5760224,2.2995842,-0.13172436,-1.9026475
1.272,10.342926,2.053608,-3.8061247,2.3332572,-0.17195734,-1.889472
1.274,10.462126,2.0804083,-4.058726,2.3691044,-0.21655217,-1.8768665
1.276,10.573683,2.1164136,-4.3346877,2.4075475,-0.2653184,-1.8645434
1.278,10.6776085,2.1638975,-4.636444,2.4489424,-0.31808704,-1.8521513
1.28,10.775144,2.2239337,-4.965046,2.4935932,-0.37475732,-1.8393068
1.282,10.866058,2.2977912,-5.320441,2.5416827,-0.43527013,-1.8256588
1.284,10.948392,2.3868518,-5.700595,2.5932698,-0.499648,-1.8108519
1.286,11.024668,2.4903667,-6.101168,2.648312,-0.56803125,-1.794505
1.288,11.100369,2.6066709,-6.5187263,2.706677,-0.64071584,-1.7762499
1.29,11.172239,2.7398589,-6.9584417,2.7681782,-0.7181409,-1.7557598
1.292,11.240925,2.8926265,-7.419161,2.832567,-0.8008608,-1.7327638
1.294,11.303486,3.0667856,-7.8971243,2.8995748,-0.88953954,-1.7070881
1.296,11.357052,3.262526,-8.377577,2.9688983,-0.9849247,-1.6786566
1.298,11.412532,3.4734936,-8.849079,3.0402143,-1.0878257,-1.6475435
1.3,11.473004,3.700429,-9.316691,3.1132102,-1.1990534,-1.6139349
1.302,11.532401,3.9485316,-9.785072,3.187538,-1.3193728,-1.5781208
1.304,11.58955,4.2184916,-10.252811,3.2628195,-1.449431,-1.5405171
1.306,11.649886,4.50657,-10.712443,3.3386667,-1.5897096,-1.501664
1.308,11.715747,4.8101935,-11.154126,3.414733,-1.7406311,-1.4621552
1.31,11.78717,5.1287675,-11.569567,3.4907722,-1.902415,-1.4225922
1.312,11.867524,5.4609127,-11.951478,3.5665576,-2.0751197,-1.3835903
1.314,11.959114,5.804414,-12.295255,3.6418378,-2.2587655,-1.345798
1.316,12.064554,6.1558404,-12.600139,3.7164707,-2.453242,-1.309794
1.318,12.18827,6.510888,-12.865426,3.7904618,-2.6581378,-1.2760398
1.32,12.334633,6.865387,-13.089214,3.8639073,-2.873302,-1.2450596
1.322,12.507374,7.2158346,-13.268957,3.9371,-3.0991688,-1.2174104
1.324,12.710384,7.5591593,-13.40234,4.01042,-3.336127,-1.193543
1.326,12.947765,7.891794,-13.488449,4.084038,-3.5846748,-1.173607
1.328,13.223883,8.210511,-13.528526,4.158478,-3.8441207,-1.1570156
1.33,13.540431,8.512969,-13.52555,4.2345304,-4.113985,-1.1427977
1.332,13.899039,8.79671,-13.482234,4.3130655,-4.394612,-1.1302562
1.334,14.301172,9.059057,-13.401576,4.395084,-4.685693,-1.1185852
1.336,14.746264,9.298445,-13.285997,4.48135,-4.9863005,-1.1064367
1.338,15.231878,9.514101,-13.1373625,4.5724945,-5.2945113,-1.0921123
1.34,15.754772,9.705602,-12.957759,4.6692286,-5.6071353,-1.0740945
1.342,16.310127,9.873583,-12.7491455,4.7723722,-5.9200296,-1.0513669
1.344,16.89149,10.019447,-12.513828,4.882725,-6.2282076,-1.0234687
1.346,17.490864,10.145893,-12.254193,5.000865,-6.525997,-0.99049395
1.348,18.09907,10.256456,-11.972333,5.126918,-6.807284,-0.95295197
1.35,18.706274,10.355085,-11.669094,5.260569,-7.065804,-0.91175926
1.352,19.300848,10.446172,-11.346247,5.401058,-7.295267,-0.8682252
1.354,19.870857,10.535794,-11.003686,5.54728,-7.4895763,-0.82393265
1.356,20.403751,10.629293,-10.64055,5.697955,-7.6428595,-0.7804527
1.358,20.887524,10.732581,-10.256652,5.851775,-7.7497025,-0.7391063
1.36,21.310171,10.851487,-9.852037,6.007501,-7.805451,-0.7007699
1.362,21.66075,10.991746,-9.426973,6.1641016,-7.8062353,-0.6657511
1.364,21.928843,11.159014,-8.981596,6.3208127,-7.7493963,-0.63369083
1.366,22.105803,11.358421,-8.516462,6.477228,-7.633874,-0.60365933
1.368,22.184093,11.594452,-8.0321245,6.6332316,-7.4604945,-0.5744077
1.37,22.158403,11.870698,-7.529706,6.788731,-7.2323403,-0.5446374
1.372,22.025038,12.19002,-7.0108886,6.9434233,-6.9549885,-0.5132456
1.374,21.782278,12.554425,-6.4779024,7.096744,-6.635997,-0.4794714
1.376,21.430454,12.96474,-5.9332104,7.2477117,-6.2846327,-0.4432121
1.378,20.971853,13.420767,-5.379902,7.3950276,-5.9120364,-0.40520525
1.38,20.41092,13.9214115,-4.8214197,7.537373,-5.5299597,-0.3670146
1.382,19.753199,14.464742,-4.261467,7.6730914,-5.1507573,-0.33089364
1.384,19.006062,15.047673,-3.7045853,7.800544,-4.785201,-0.29922754
1.386,18.179342,15.665662,-3.1540914,7.9186144,-4.4414687,-0.27388185
1.388,17.282967,16.313725,-2.6118011,8.0266485,-4.126567,-0.2565819
1.39,16.326538,16.987667,-2.0804853,8.1247225,-3.8456643,-0.24902904
1.392,15.321763,17.682507,-1.5633116,8.213318,-3.6020217,-0.25235796
1.394,14.281754,18.392927,-1.0641642,8.293069,-3.3970923,-0.26676744
1.396,13.215661,19.114796,-0.5870495,8.364741,-3.2304602,-0.29161954
1.398,12.131335,19.844131,-0.13343477,8.429274,-3.1002553,-0.3258261
1.4,11.045435,20.571287,0.3030529,8.487792,-3.003648,-0.36814117
1.402,9.969095,21.289621,0.72122955,8.541462,-2.9371967,-0.41738623
1.404,8.915473,21.994465,1.1184196,8.591314,-2.8971572,-0.47247225
1.406,7.895657,22.682983,1.4856644,8.638123,-2.8798113,-0.5323771
1.408,6.90826,23.357065,1.8221607,8.68239,-2.881603,-0.59622216
1.41,5.962141,24.010601,2.1424818,8.724343,-2.8992605,-0.66339004
1.412,5.072437,24.635254,2.455639,8.764063,-2.929801,-0.73352087
1.414,4.2460957,25.229448,2.7622147,8.80151,-2.9705374,-0.8064673
1.416,3.483139,25.795265,3.05799,8.836585,-3.0193374,-0.88226986
1.418,2.787242,26.33284,3.3390207,8.869123,-3.0746622,-0.96114755
1.42,2.1632707,26.840313,3.6054325,8.898966,-3.135507,-1.043369
1.422,1.6115928,27.317347,3.8591614,8.925872,-3.2014523,-1.1291724
1.424,1.1330501,27.76469,4.104841,8.94959,-3.2726493,-1.2188411
1.426,0.7274605,28.184093,4.34923,8.969888,-3.3496544,-1.3126917
1.428,0.392218,28.577812,4.5970335,8.986518,-3.433358,-1.4110502
1.43,0.12476826,28.94732,4.850174,8.999236,-3.524856,-1.5142357
1.432,-0.07730031,29.293499,5.10923,9.007771,-3.6253211,-1.6225358
1.434,-0.21716261,29.617174,5.375103,9.011813,-3.7360222,-1.7362458
1.436,-0.29870033,29.919674,5.6495457,9.011013,-3.8580387,-1.8556908
1.438,-0.3263793,30.202501,5.935754,9.005107,-3.991978,-1.9810387
1.44,-0.3030169,30.46634,6.237029,8.9938,-4.138379,-2.1124082
1.442,-0.23285127,30.712948,6.5552425,8.976882,-4.297289,-2.2499373
1.444,-0.12062693,30.944134,6.891548,8.954219,-4.46826,-2.3936768
1.446,0.029923439,31.161182,7.2462664,8.925716,-4.650499,-2.543657
1.448,0.21512175,31.365017,7.619151,8.891316,-4.8428893,-2.6998165
1.45,0.43132734,31.556608,8.010233,8.850982,-5.0440745,-2.862055
1.452,0.6747546,31.736423,8.420105,8.80472,-5.252536,-3.0302315
1.454,0.9422374,31.904577,8.84994,8.752543,-5.4666624,-3.2041657
1.456,1.2308102,32.06071,9.300637,8.694478,-5.6848183,-3.3836029
1.458,1.5378065,32.204414,9.772677,8.630579,-5.9053907,-3.5682404
1.46,1.86059,32.33528,10.265019,8.560891,-6.1267805,-3.757708
1.462,2.1977565,32.452915,10.7776,8.485509,-6.347445,-3.9515588
1.464,2.5474014,32.555733,11.308863,8.404554,-6.565917,-4.1492863
1.466,2.908453,32.64351,11.856988,8.318169,-6.7807846,-4.350318
1.468,3.2795968,32.715397,12.421448,8.22652,-6.99071,-4.5540004
1.47,3.6603801,32.770233,13.000596,8.129774,-7.1944485,-4.7596765
1.472,4.0501842,32.806915,13.592877,8.028082,-7.3908896,-4.9666357
1.474,4.448693,32.82421,14.196371,7.9215326,-7.579085,-5.1741343
1.476,4.855764,32.82071,14.808767,7.810175,-7.758219,-5.3814363
1.478,5.2718296,32.79497,15.427439,7.6939983,-7.9276314,-5.587804
1.48,5.6969743,32.745575,16.049503,7.5729513,-8.086791,-5.7925377
1.482,6.131567,32.67095,16.671946,7.446944,-8.235243,-5.9949503
1.484,6.5759873,32.569565,17.291765,7.3158545,-8.372589,-6.1943817
1.486,7.0304184,32.43998,17.905643,7.1795692,-8.498437,-6.3902235
1.488,7.49506,32.280785,18.510271,7.0379844,-8.612392,-6.581911
1.49,7.9699926,32.090706,19.102526,6.8910284,-8.714005,-6.7688403
1.492,8.455678,31.868732,19.679344,6.7386994,-8.802795,-6.9504657
1.494,8.952307,31.613941,20.237495,6.581061,-8.878229,-7.126259
1.496,9.45994,31.325716,20.77395,6.4182596,-8.93968,-7.2957006
1.498,9.978473,31.003832,21.286201,6.2505236,-8.986512,-7.4582872
1.5,10.507637,30.64812,21.77169,6.078162,-9.018119,-7.6135054
1.502,11.04712,30.258602,22.228035,5.901588,-9.033926,-7.760865
1.504,11.596285,29.835558,22.653175,5.7212596,-9.033466,-7.8998446
1.506,12.154154,29.379604,23.045347,5.537721,-9.016465,-8.029903
1.508,12.719831,28.891582,23.40334,5.351548,-8.982805,-8.15049
1.51,13.2919235,28.372585,23.726334,5.1633425,-8.932541,-8.261067
1.512,13.868989,27.82402,24.013908,4.973719,-8.865917,-8.361135
1.514,14.449378,27.247278,24.265953,4.783286,-8.783346,-8.450262
1.516,15.031051,26.644003,24.482134,4.5926247,-8.685389,-8.528098
1.518,15.611961,26.016163,24.662323,4.402274,-8.572743,-8.594375
1.52,16.189959,25.36557,24.806644,4.2127037,-8.44622,-8.648933
1.522,16.762562,24.694292,24.915604,4.024331,-8.306734,-8.691703
1.524,17.327312,24.004272,24.990053,3.8374941,-8.155264,-8.722715
1.526,17.88152,23.297749,25.030788,3.6524704,-7.9928513,-8.742087
1.528,18.422565,22.576824,25.038616,3.4694662,-7.8205643,-8.749987
1.53,18.947441,21.84371,25.014118,3.2886686,-7.639487,-8.746639
1.532,19.453678,21.100403,24.957996,3.1102223,-7.4507494,-8.7322645
1.534,19.938547,20.349232,24.871193,2.9342637,-7.2554765,-8.707081
1.536,20.399807,19.592356,24.75465,2.7609508,-7.0547757,-8.67134
1.538,20.835152,18.831755,24.609333,2.5904927,-6.8496814,-8.625279
1.54,21.242529,18.06958,24.43602,2.4231353,-6.641141,-8.56915
1.542,21.620344,17.30782,24.235413,2.2591984,-6.42997,-8.503255
1.544,21.96726,16.548397,24.008064,2.09905,-6.2168546,-8.427932
1.546,22.282076,15.793304,23.754847,1.9430842,-6.002309,-8.343559
1.548,22.564161,15.044512,23.476566,1.7917163,-5.7867284,-8.250566
1.55,22.813171,14.30383,23.174183,1.645371,-5.570385,-8.149438
1.552,23.029243,13.573059,22.84861,1.5044537,-5.3534427,-8.040734
1.554,23.21291,12.853878,22.500887,1.3693342,-5.136,-7.925051
1.556,23.364826,12.14776,22.13223,1.2403276,-4.9181323,-7.8030643
1.558,23.48605,11.456095,21.743904,1.1176977,-4.699874,-7.6754603
1.56,23.577663,10.780289,21.337347,1.0016646,-4.4812803,-7.542945
1.562,23.641514,10.121525,20.913818,0.8924093,-4.26246,-7.4062366
1.564,23.679144,9.480981,20.474646,0.7900574,-4.0435853,-7.266013
1.566,23.692657,8.859557,20.021486,0.69467044,-3.8248599,-7.122951
1.568,23.68399,8.257902,19.555626,0.60625386,-3.6065843,-6.9776917
1.57,23.655159,7.676736,19.078678,0.5247297,-3.3891208,-6.830868
1.572,23.608246,7.116336,18.5921,0.44997525,-3.1729145,-6.6830797
1.574,23.545218,6.5768886,18.097206,0.3818028,-2.9584687,-6.5348787
1.576,23.467716,6.0584273,17.595402,0.3199644,-2.7463503,-6.3867836
1.578,23.377289,5.5609403,17.087854,0.26417017,-2.5371914,-6.239279
1.58,23.275618,5.0841813,16.57605,0.21410751,-2.331634,-6.0927925
1.582,23.163837,4.6280103,16.061424,0.16942573,-2.1303582,-5.9477124
1.584,23.043037,4.1919975,15.54548,0.12979102,-1.9340245,-5.8043613
1.586,22.914316,3.775835,15.029711,0.094842434,-1.7432591,-5.663037
1.588,22.77809,3.3791451,14.515417,0.06423521,-1.5586574,-5.523993
1.59,22.634647,3.001392,14.004122,0.03760934,-1.3807435,-5.3874383
1.592,22.484499,2.6420608,13.497124,0.014605761,-1.2100143,-5.2535434
1.594,22.32743,2.3005228,12.995922,-0.005115032,-1.046907,-5.122441
1.596,22.163692,1.9761901,12.502006,-0.021894217,-0.8917865,-4.9942245
1.598,21.992924,1.6684179,12.0169735,-0.036044836,-0.74491924,-4.8689833
1.6,21.814678,1.3765755,11.542248,-0.04785824,-0.60651976,-4.746807
1.602,21.628078,1.0998821,11.079068,-0.057602882,-0.47666973,-4.627781
1.604,21.432798,0.8377018,10.628736,-0.06552982,-0.3553632,-4.5119977
1.606,21.227728,0.5893631,10.1924,-0.0718745,-0.2424931,-4.39954
1.608,21.012411,0.35411453,9.771156,-0.07682848,-0.13787383,-4.2905
1.61,20.78619,0.13145638,9.366072,-0.080589175,-0.04125917,-4.1849675
1.612,20.54843,-0.079003334,8.978227,-0.083326936,0.04761809,-4.0830183
1.614,20.298752,-0.27799416,8.608658,-0.08519387,0.12904406,-3.9847121
1.616,20.036901,-0.4658966,8.258335,-0.08632994,0.2033177,-3.8900807
1.618,19.76264,-0.64315796,7.9279633,-0.08686632,0.2707287,-3.7991242
1.62,19.476059,-0.8101063,7.618073,-0.08689332,0.3315333,-3.7117898
1.622,19.177246,-0.96697617,7.32903,-0.08648503,0.38601673,-3.6279964
1.624,18.866879,-1.1139679,7.0611577,-0.085678756,0.43446547,-3.5476394
1.626,18.545588,-1.2513885,6.814792,-0.08451778,0.47719824,-3.47059
1.628,18.21437,-1.3793488,6.5899844,-0.083022535,0.5145696,-3.3967159
1.63,17.874048,-1.4978929,6.3865533,-0.081198156,0.5469972,-3.325858
1.632,17.526127,-1.6071897,6.2042494,-0.07905376,0.57496595,-3.2578592
1.634,17.17209,-1.7071772,6.0423536,-0.07659316,0.5990105,-3.1925445
1.636,16.81359,-1.7980561,5.900345,-0.07381368,0.61972487,-3.1297426
1.638,16.45245,-1.8796864,5.777557,-0.070732296,0.6377305,-3.0693035
1.64,16.09054,-1.9522495,5.673344,-0.06734377,0.6536921,-3.01106
1.642,15.729696,-2.0156994,5.586748,-0.063660026,0.66826946,-2.9548545
1.644,15.372038,-2.0702715,5.5165825,-0.059690177,0.68212426,-2.9005485
1.646,15.019288,-2.1160665,5.461604,-0.05546224,0.69587934,-2.8480136
1.648,14.673399,-2.1530857,5.4205904,-0.051028907,0.7100718,-2.7971404
1.65,14.336309,-2.1816869,5.3925643,-0.046460032,0.72511965,-2.747816
1.652,14.00941,-2.2021399,5.376656,-0.041857988,0.7413108,-2.699921
1.654,13.694265,-2.2148695,5.3715086,-0.037341982,0.75880605,-2.653357
1.656,13.392347,-2.2202654,5.3756056,-0.033071995,0.7776066,-2.6080513
1.658,13.104706,-2.2189364,5.3876214,-0.029223025,0.7976039,-2.5639367
1.66,12.832121,-2.21137,5.406333,-0.025984466,0.81857276,-2.52098
1.662,12.575187,-2.1984143,5.430744,-0.023570448,0.8402521,-2.4791636
1.664,12.333872,-2.1805902,5.4599247,-0.022172898,0.86236846,-2.438486
1.666,12.108158,-2.1586566,5.4929276,-0.021978706,0.88469124,-2.3989577
1.668,11.897737,-2.1333103,5.528863,-0.023157388,0.9070348,-2.360588
1.67,11.702026,-2.1052585,5.566903,-0.025838703,0.9292984,-2.3233936
1.672,11.520015,-2.075326,5.6064253,-0.030116603,0.9514415,-2.2873814
1.674,11.350542,-2.0444942,5.6469173,-0.036067277,0.97348493,-2.252543
1.676,11.192257,-2.0133958,5.687933,-0.043726385,0.9954839,-2.218852
1.678,11.043647,-1.9828262,5.7294855,-0.053097427,1.0175097,-2.1862595
1.68,10.902929,-1.9534659,5.771448,-0.06415072,1.0396168,-2.154699
1.682,10.768171,-1.9258709,5.813753,-0.07683347,1.0618188,-2.124074
1.684,10.637365,-1.9005404,5.856517,-0.09107195,1.0840946,-2.0942483
1.686,10.508492,-1.8779798,5.899641,-0.10675399,1.1063637,-2.0650635
1.688,10.379589,-1.8587456,5.9433794,-0.12375097,1.1285245,-2.036385
1.69,10.248381,-1.8431787,5.987827,-0.14193875,1.1504501,-2.008052
1.692,10.113126,-1.831677,6.0330253,-0.16118686,1.1719961,-1.9798942
1.694,9.971716,-1.8243246,6.079133,-0.18134603,1.1930264,-1.9517584
1.696,9.822197,-1.8212452,6.126287,-0.20226933,1.2134247,-1.9234885
1.698,9.663095,-1.8224082,6.174965,-0.22379464,1.2331136,-1.8949312
1.7,9.492961,-1.827786,6.22573,-0.24575357,1.2520847,-1.8659604
1.702,9.31036,-1.8371801,6.279135,-0.26797235,1.2703974,-1.8364406
1.704,9.114462,-1.8503108,6.3355885,-0.29026538,1.288192,-1.8062515
1.706,8.904266,-1.8669534,6.3952065,-0.31244,1.3056761,-1.7752845
1.708,8.679478,-1.8866282,6.458161,-0.33429092,1.3231276,-1.7434236
1.71,8.43982,-1.9086337,6.524438,-0.355598,1.3408915,-1.7105608
1.712,8.185389,-1.9323087,6.594336,-0.3761476,1.3593508,-1.6766301
1.714,7.916115,-1.9568505,6.6682014,-0.39571258,1.3789359,-1.6415571
1.716,7.6326704,-1.9814534,6.7462034,-0.41407377,1.4000967,-1.6053144
1.718,7.335623,-2.005177,6.8284,-0.43102643,1.4232616,-1.5679028
1.72,7.0259337,-2.0271819,6.914649,-0.4463962,1.4488342,-1.5293772
1.722,6.7046814,-2.0463958,7.00471,-0.4600151,1.4771719,-1.4898212
1.724,6.3730307,-2.061553,7.0984507,-0.47177607,1.5085475,-1.449329
1.726,6.032196,-2.0715237,7.1955137,-0.4815954,1.5431669,-1.4080561
1.728,5.6835356,-2.07505,7.2958155,-0.48944098,1.5811378,-1.3661804
1.73,5.3283424,-2.0710158,7.399271,-0.49539083,1.6224427,-1.3239117
1.732,4.967789,-2.0584161,7.5053973,-0.49957934,1.6669639,-1.2814738
1.734,4.6028814,-2.0360372,7.6137853,-0.5022061,1.7144554,-1.239088
1.736,4.234825,-2.003001,7.7240753,-0.50352377,1.7645907,-1.1969633
1.738,3.8643034,-1.9583905,7.835991,-0.50380546,1.8169446,-1.1552944
1.74,3.4922209,-1.9014306,7.949283,-0.5033531,1.871075,-1.1142519
1.742,3.1189523,-1.8314152,8.063615,-0.5024537,1.9265327,-1.0739743
1.744,2.7446709,-1.7478569,8.178815,-0.5013828,1.9829104,-1.034596
1.746,2.3695335,-1.6502991,8.294572,-0.50040245,2.0398726,-0.99625087
1.748,1.9933932,-1.5386612,8.410739,-0.4997595,2.0971913,-0.95905554
1.75,1.615982,-1.4128661,8.527135,-0.49968165,2.1547356,-0.92316175
1.752,1.2368834,-1.272902,8.6438,-0.50040627,2.2124555,-0.88874936
1.754,0.8555217,-1.1190889,8.760675,-0.50217116,2.2703614,-0.8560406
1.756,0.4713838,-0.9518678,8.877696,-0.5052323,2.3284836,-0.825325
1.758,0.08365846,-0.7717986,8.994831,-0.50987774,2.3868384,-0.7969353
1.76,-0.30835557,-0.5793488,9.112045,-0.51639867,2.4454231,-0.77124834
1.762,-0.70497584,-0.37529588,9.229251,-0.52507806,2.504204,-0.74865603
1.764,-1.1070595,-0.16026354,9.346545,-0.53617543,2.563092,-0.7295679
1.766,-1.5149319,0.06485224,9.464014,-0.5498952,2.621989,-0.714371
1.768,-1.9287512,0.2992735,9.581562,-0.56637466,2.6808124,-0.7034523
1.77,-2.3485568,0.5424912,9.699056,-0.5856474,2.739503,-0.6971644
1.772,-2.7740343,0.7937474,9.816248,-0.6076805,2.7980824,-0.6958289
1.774,-3.2046566,1.0523236,9.9328375,-0.632349,2.856616,-0.6997628
1.776,-3.63974,1.3175701,10.048464,-0.65947026,2.9152303,-0.70926994
1.778,-4.078514,1.5890131,10.16272,-0.6888096,2.9740663,-0.7246617
1.78,-4.5199165,1.8660705,10.275166,-0.7201135,3.0332212,-0.7462133
1.782,-4.962634,2.1481144,10.385311,-0.75314254,3.0927668,-0.77420485
1.784,-5.4050493,2.4346623,10.492494,-0.78762805,3.1526892,-0.80892164
1.786,-5.845569,2.7250898,10.595725,-0.8233408,3.2128649,-0.85064596
1.788,-6.2822037,3.0189962,10.693985,-0.8600686,3.2730837,-0.89965355
1.79,-6.713105,3.3156834,10.786317,-0.8976439,3.3330026,-0.9562201
1.792,-7.136382,3.614592,10.871677,-0.9359115,3.3921905,-1.0205854
1.794,-7.5499024,3.9148388,10.948801,-0.97471833,3.4501116,-1.0929527
1.796,-7.951779,4.2156615,11.01662,-1.0139277,3.5061553,-1.1735053
1.798,-8.340193,4.5163355,11.07398,-1.0533929,3.5596478,-1.2623901
1.8,-8.713503,4.815751,11.119734,-1.0929804,3.6098313,-1.3597112
1.802,-9.070092,5.1129174,11.152621,-1.1325629,3.6558685,-1.4655234
1.804,-9.408399,5.4065285,11.171562,-1.1720625,3.6968646,-1.5797946
1.806,-9.727035,5.6953344,11.175189,-1.2114222,3.7318225,-1.7024405
1.808,-10.024914,5.978153,11.162225,-1.2506318,3.7596714,-1.8332958
1.81,-10.301571,6.2537355,11.131665,-1.28975,3.7792363,-1.9721435
1.812,-10.5555315,6.5209913,11.082999,-1.3289013,3.7892663,-2.1187143
1.814,-10.786268,6.778344,11.015574,-1.3682873,3.7884219,-2.2726736
1.816,-10.993888,7.024497,10.929622,-1.4081476,3.7753363,-2.4336457
1.818,-11.178068,7.2580147,10.824902,-1.4487487,3.7486372,-2.6012154
1.82,-11.338843,7.4775324,10.701948,-1.4904093,3.7069888,-2.7749221
1.822,-11.476099,7.6817703,10.561377,-1.5334586,3.6491587,-2.9542696
1.824,-11.589618,7.869776,10.40367,-1.5782313,3.574085,-3.138737
1.826,-11.679312,8.040421,10.230179,-1.6250393,3.4809089,-3.3277807
1.828,-11.745213,8.192758,10.042425,-1.6741482,3.3690479,-3.5208085
1.83,-11.78706,8.325943,9.842394,-1.7257721,3.2382069,-3.7172217
1.832,-11.804327,8.439237,9.632256,-1.7800381,3.0884018,-3.9164052
1.834,-11.796684,8.532051,9.414219,-1.8370144,2.9199939,-4.117751
1.836,-11.763431,8.604075,9.190734,-1.8966585,2.7336304,-4.32065
1.838,-11.703663,8.654989,8.964294,-1.9588664,2.530261,-4.5244884
1.84,-11.616328,8.684737,8.737485,-2.0234962,2.3110561,-4.7287173
1.842,-11.500151,8.693499,8.5131,-2.090322,2.0773797,-4.9328327
1.844,-11.353892,8.681517,8.293587,-2.1591244,1.8307501,-5.136407
1.846,-11.176147,8.64931,8.081412,-2.2296944,1.5728066,-5.3390636
1.848,-10.96582,8.597447,7.878853,-2.3018377,1.3052347,-5.5404615
1.85,-10.72155,8.526457,7.687938,-2.375422,1.0297043,-5.7403555
1.852,-10.442217,8.437151,7.5107117,-2.4503362,0.7479603,-5.938547
1.854,-10.126974,8.330641,7.349,-2.5265217,0.461787,-6.134877
1.856,-9.775025,8.208083,7.204542,-2.6039238,0.173033,-6.329236
1.858,-9.385843,8.070875,7.078598,-2.6824887,-0.11635399,-6.5215206
1.86,-8.959345,7.920533,6.971928,-2.762153,-0.40427732,-6.711611
1.862,-8.49576,7.7586718,6.885004,-2.8427992,-0.6884744,-6.8993883
1.864,-7.9956264,7.587075,6.818374,-2.924233,-0.96647644,-7.0846963
1.866,-7.4598684,7.407765,6.772646,-3.0061548,-1.2356527,-7.267355
1.868,-6.889568,7.222752,6.7481112,-3.0881782,-1.4932613,-7.447185
1.87,-6.286272,7.034091,6.7447367,-3.1698313,-1.7364602,-7.62399
1.872,-5.6517897,6.8441143,6.7624617,-3.2505577,-1.962429,-7.797559
1.874,-4.9878097,6.6551013,6.8008676,-3.329685,-2.1684597,-7.9676957
1.876,-4.296523,6.469343,6.8595123,-3.406465,-2.3520784,-8.134237
1.878,-3.5802073,6.289197,6.9376545,-3.4800773,-2.5111003,-8.297058
1.88,-2.840818,6.1168547,7.034335,-3.5496697,-2.6437283,-8.456094
1.882,-2.0807033,5.9547787,7.1484942,-3.614358,-2.7485986,-8.611341
1.884,-1.3017408,5.805276,7.2790966,-3.6732435,-2.8248403,-8.76289
1.886,-0.5056708,5.670599,7.424997,-3.7254388,-2.8721397,-8.910894
1.888,0.30605578,5.5527835,7.5848317,-3.7700627,-2.890773,-9.055607
1.89,1.1320138,5.4541063,7.7571497,-3.8063016,-2.8816078,-9.1973505
1.892,1.9713883,5.376733,7.940365,-3.8334122,-2.8461227,-9.336511
1.894,2.8236856,5.3222284,8.132959,-3.8507385,-2.7863672,-9.47348
1.896,3.6881926,5.2924814,8.333363,-3.8577697,-2.70495,-9.608699
1.898,4.564698,5.2890477,8.539695,-3.854097,-2.6049585,-9.742588
1.9,5.453793,5.3131695,8.750015,-3.839511,-2.4898965,-9.875602
1.902,6.3557034,5.366098,8.962694,-3.813959,-2.363544,-10.008133
1.904,7.271367,5.4491267,9.176397,-3.777538,-2.2298794,-10.140521
1.906,8.201717,5.5630474,9.389528,-3.7305396,-2.0930629,-10.273052
1.908,9.147762,5.7083015,9.600849,-3.6734285,-1.9572718,-10.405951
1.91,10.110506,5.885107,9.809335,-3.606839,-1.826592,-10.539373
1.912,11.091041,6.093385,10.013796,-3.5315423,-1.7049823,-10.673434
1.914,12.090296,6.3333955,10.213574,-3.4484508,-1.5961342,-10.808197
1.916,13.10899,6.605127,10.408813,-3.358608,-1.5034442,-10.943653
1.918,14.148237,6.908075,10.598974,-3.2631488,-1.4299631,-11.0797615
1.92,15.213801,7.237353,10.78266,-3.1632798,-1.3783226,-11.216402
1.922,16.297668,7.596558,10.961004,-3.060244,-1.3507295,-11.353425
1.924,17.401827,7.9844623,11.14114,-2.9552932,-1.3490152,-11.49057
1.926,18.535574,8.395462,11.320797,-2.849637,-1.3745689,-11.6275425
1.928,19.69401,8.832287,11.49927,-2.744441,-1.4284258,-11.764015
1.93,20.878283,9.29324,11.682079,-2.6408024,-1.5112529,-11.899595
1.932,22.091768,9.775036,11.871129,-2.539713,-1.6233921,-12.033858
1.934,23.33509,10.275792,12.068638,-2.4420142,-1.7648463,-12.166388
1.936,24.607182,10.7949505,12.276001,-2.348436,-1.9353123,-12.296782
1.938,25.908821,11.330427,12.497778,-2.2595677,-2.1341686,-12.424635
1.94,27.240871,11.879705,12.737635,-2.1758404,-2.3604994,-12.549539
1.942,28.603287,12.44087,12.998061,-2.0975437,-2.6131449,-12.671018
1.944,29.995918,13.01221,13.281787,-2.0247898,-2.8907504,-12.78858
1.946,31.418467,13.591528,13.592187,-1.9575648,-3.1918483,-12.90175
1.948,32.86915,14.177416,13.93248,-1.8957434,-3.5148578,-13.009941
1.95,34.34662,14.767969,14.305432,-1.8390756,-3.857883,-13.112192
1.952,35.849564,15.36101,14.71266,-1.7873769,-4.2193966,-13.207756
1.954,37.375923,15.954759,15.155462,-1.740274,-4.597926,-13.295805
1.956,38.92248,16.547745,15.634976,-1.6973506,-4.9912615,-13.375002
1.958,40.486675,17.137896,16.151857,-1.6582786,-5.397748,-13.44416
1.96,42.065533,17.723362,16.706131,-1.6225502,-5.8157415,-13.502157
1.962,43.655968,18.301977,17.296883,-1.5896937,-6.243181,-13.547725
1.964,45.25456,18.871853,17.92274,-1.5593014,-6.678059,-13.579648
1.966,46.85785,19.430851,18.581787,-1.5308592,-7.1182437,-13.596881
1.968,48.46295,19.976315,19.271524,-1.5037768,-7.5616646,-13.598576
1.97,50.066093,20.50599,19.989008,-1.4773551,-8.006064,-13.583998
1.972,51.664078,21.01696,20.730785,-1.4508628,-8.449214,-13.552552
1.974,53.253872,21.506378,21.492931,-1.4234872,-8.888926,-13.503767
1.976,54.83255,21.97134,22.27113,-1.394417,-9.323075,-13.437285
1.978,56.396675,22.409199,23.060917,-1.3628559,-9.74968,-13.352921
1.98,57.944042,22.817207,23.857666,-1.3280662,-10.166908,-13.250513
1.982,59.47257,23.19286,24.656729,-1.2893505,-10.573116,-13.1299
1.984,60.980206,23.533728,25.453945,-1.2460532,-10.966928,-12.990938
1.986,62.465446,23.837751,26.245182,-1.1975837,-11.347208,-12.833509
1.988,63.926838,24.102983,27.02689,-1.1433532,-11.71305,-12.657474
1.99,65.362915,24.327984,27.795712,-1.0827671,-12.063719,-12.462683
1.992,66.77293,24.511745,28.548582,-1.0151694,-12.39863,-12.24892
1.994,68.15612,24.653687,29.282623,-0.9398473,-12.717377,-12.016002
1.996,69.511604,24.754084,29.995478,-0.8560256,-13.019617,-11.763815
1.998,70.839,24.814106,30.685312,-0.7629178,-13.305092,-11.492246
2,72.137665,24.835926,31.351082,-0.6596671,-13.573565,-11.201185
2.002,73.40694,24.823025,31.992283,-0.5453442,-13.824854,-10.890607
2.004,74.6463,24.780497,32.609474,-0.419016,-14.059031,-10.560703
2.006,75.85585,24.713968,33.20391,-0.27961552,-14.2758255,-10.211396
2.008,77.03607,24.630695,33.777416,-0.12617302,-14.475199,-9.842811
2.01,78.1873,24.540033,34.331898,0.04232979,-14.657726,-9.4554205
2.012,79.31085,24.452288,34.86967,0.22704887,-14.823404,-9.049462
2.014,80.407455,24.379576,35.393745,0.4290135,-14.972504,-8.625222
2.016,81.47768,24.335867,35.90827,0.64934874,-15.105755,-8.183217
2.018,82.52219,24.336052,36.418156,0.88921547,-15.223822,-7.723949
2.02,83.54204,24.396046,36.928455,1.1496062,-15.327517,-7.2478237
2.022,84.53793,24.532728,37.445126,1.431426,-15.417677,-6.755248
2.024,85.511475,24.763332,37.973396,1.7354612,-15.49535,-6.2466736
2.026,86.46315,25.105904,38.518623,2.0624073,-15.5615425,-5.7225037
2.028,87.39377,25.579424,39.086937,2.4127817,-15.617252,-5.1830587
2.03,88.30267,26.20561,39.683563,2.7869024,-15.663458,-4.6285963
2.032,89.20131,26.996096,40.3107,3.1849265,-15.701045,-4.0593643
2.034,90.088356,27.971544,40.966698,3.6067388,-15.730802,-3.4756556
2.036,90.95868,29.155458,41.657978,4.0520115,-15.753342,-2.8778038
2.038,91.80644,30.577938,42.383698,4.520217,-15.769106,-2.2661073
2.04,92.650955,32.233162,43.151833,5.0105777,-15.778393,-1.6408002
2.042,93.489586,34.131306,43.97484,5.5221705,-15.781307,-1.0020199
2.044,94.33244,36.298584,44.864426,6.0538974,-15.7777195,-0.34971786
2.046,95.18877,38.75608,45.81659,6.6045475,-15.767289,0.31635094
2.048,96.06954,41.516403,46.80643,7.17278,-15.749458,0.99681103
2.05,96.990265,44.579124,47.811726,7.7572455,-15.723479,1.6928637
2.052,97.97049,47.954136,48.85367,8.356543,-15.688249,2.4063427
2.054,98.99794,51.66479,49.93232,8.969207,-15.642358,3.139516
2.056,100.097626,55.68656,51.042606,9.59374,-15.583871,3.895139
2.058,101.28749,60.02443,52.17,10.228687,-15.510055,4.6765337
2.06,102.564064,64.69024,53.297222,10.872576,-15.417511,5.4875016
2.062,103.9361,69.69743,54.39616,11.523904,-15.302273,6.332403
2.064,105.41605,75.034035,55.47357,12.181207,-15.159589,7.2157874
2.066,106.89991,80.69913,56.57125,12.843227,-14.983786,8.142111
2.068,108.405075,86.63491,57.761246,13.508505,-14.769028,9.114765
2.07,110.04693,92.772644,59.081547,14.1745205,-14.50921,10.137642
2.072,111.87585,99.10247,60.50164,14.839709,-14.19589,11.215607
2.074,113.948235,105.62172,61.93424,15.504661,-13.817946,12.354036
2.076,116.30598,112.36034,63.278797,16.170689,-13.363171,13.558128
2.078,118.94069,119.31833,64.54066,16.8382,-12.818223,14.832666
2.08,121.82316,126.43327,65.712906,17.505138,-12.169661,16.182186
2.082,124.94342,133.58754,66.88545,18.168274,-11.403263,17.610973
2.084,128.3066,140.7147,68.09422,18.826519,-10.498818,19.121656
2.086,131.93375,147.80363,69.33012,19.480083,-9.431107,20.714777
2.088,135.8358,154.80887,70.56141,20.127386,-8.175889,22.387054
2.09,140.01526,161.66202,71.74635,20.765438,-6.7081866,24.129269
2.092,144.47366,168.29312,72.86252,21.38929,-5.003614,25.92427
2.094,149.21349,174.6366,73.879745,21.986805,-3.0426588,27.74648
2.096,154.2129,180.61372,74.78632,22.541273,-0.8080022,29.5592
2.098,159.44548,186.15126,75.56621,23.033783,1.7124482,31.32058
2.1,164.89807,191.1726,76.19272,23.440624,4.51639,32.99201
2.102,170.54726,195.61305,76.62737,23.744013,7.59522,34.528824
2.104,176.36353,199.4259,76.8117,23.923203,10.916784,35.868603
2.106,182.33923,202.55823,76.688675,23.961868,14.442825,36.961754
2.108,188.46367,204.96405,76.20961,23.847593,18.127169,37.76904
2.11,194.69977,206.62497,75.30627,23.566116,21.90725,38.258118
2.112,201.00412,207.52632,73.89617,23.107819,25.694408,38.41343
2.114,207.32426,207.66113,71.91092,22.487116,29.408451,38.26244
2.116,213.59862,207.03665,69.28863,21.733324,32.969353,37.85194
2.118,219.77298,205.66333,65.968124,20.88852,36.293686,37.22764
2.12,225.77142,203.5676,61.9192,20.00438,39.29669,36.422585
2.122,231.5086,200.78677,57.13671,19.13631,41.900528,35.45483
2.124,236.89505,197.3647,51.61538,18.338453,44.043854,34.319393
2.126,241.84476,193.353,45.351467,17.653484,45.686367,32.985397
2.128,246.26482,188.8126,38.36242,17.105446,46.813366,31.401443
2.13,250.0567,183.81178,30.6923,16.700077,47.438732,29.508049
2.132,253.12383,178.42198,22.403816,16.423943,47.60125,27.250736
2.134,255.37721,172.71136,13.574043,16.246075,47.358795,24.59202
2.136,256.74686,166.74176,4.3004456,16.119692,46.77706,21.523071
2.138,257.17682,160.58081,-5.2932053,15.986375,45.918903,18.070723
2.14,256.6178,154.29626,-15.058479,15.785312,44.841084,14.295561
2.142,255.04483,147.94632,-24.833931,15.460798,43.588737,10.289459
2.144,252.45863,141.57652,-34.452927,14.964664,42.18645,6.1696167
2.146,248.88351,135.22974,-43.75006,14.259316,40.63935,2.0683193
2.148,244.38132,128.94104,-52.55902,13.3222065,38.93615,-1.8783627
2.15,239.00494,122.78806,-60.72982,12.142091,37.04961,-5.5397263
2.152,232.85138,116.81927,-68.11304,10.718428,34.946877,-8.803501
2.154,226.02701,111.06195,-74.57271,9.064196,32.600323,-11.582945
2.156,218.65567,105.55329,-79.98187,7.1967287,29.981445,-13.808397
2.158,210.86842,100.3374,-84.227974,5.1455574,27.077337,-15.42651
2.16,202.79947,95.46189,-87.23529,2.9423294,23.875826,-16.428976
2.162,194.5845,90.95579,-88.99475,0.6225996,20.377605,-16.837944
2.164,186.38354,86.83366,-89.50044,-1.7718525,16.607391,-16.698002
2.166,178.30746,83.14783,-88.77428,-4.204011,12.6179695,-16.079441
2.168,170.46713,79.90328,-86.86215,-6.6507554,8.462764,-15.08384
2.17,162.97647,77.091866,-83.83785,-9.082145,4.220298,-13.807531
2.172,155.91403,74.7032,-79.792984,-11.459911,-0.0022283792,-12.3303585
2.174,149.33698,72.74809,-74.87301,-13.738511,-4.0763474,-10.719217
2.176,143.37459,71.221954,-69.257484,-15.866577,-7.8661137,-9.035562
2.178,137.99475,70.161674,-63.139744,-17.791645,-11.24242,-7.333464
2.18,133.088,69.583664,-56.66655,-19.462812,-14.092221,-5.6593266
2.182,128.6311,69.43269,-49.9296,-20.835436,-16.326418,-4.0531926
2.184,124.59346,69.652596,-43.00157,-21.878576,-17.886904,-2.5493698
2.186,120.954346,70.169685,-35.981636,-22.577427,-18.750612,-1.17557
2.188,117.72326,70.9534,-29.076214,-22.934263,-18.930569,0.04833126
2.19,114.89941,72.02323,-22.45206,-22.967567,-18.472645,1.110682
2.192,112.4387,73.4174,-16.32537,-22.709848,-17.452139,2.0094829
2.194,110.275154,75.09474,-10.806334,-22.20383,-15.966293,2.7535803
2.196,108.332054,76.9647,-5.939829,-21.497562,-14.122083,3.358825
2.198,106.55095,78.983154,-1.7438183,-20.640509,-12.028257,3.8441644
2.2,104.88508,81.12543,1.7733364,-19.680637,-9.7894335,4.2298584
2.202,103.292496,83.36102,4.5894556,-18.661991,-7.498769,4.534787
2.204,101.73567,85.65262,6.7019014,-17.623543,-5.2341213,4.774205
2.206,100.201935,87.97278,8.10351,-16.598743,-3.0571804,4.9573164
2.208,98.67876,90.28593,8.808243,-15.615144,-1.012619,5.085636
2.21,97.14034,92.55956,8.852783,-14.693667,0.8720155,5.1541247
2.212,95.57364,94.75273,8.291647,-13.8483925,2.5836272,5.154306
2.214,93.96984,96.8176,7.197618,-13.087765,4.119285,5.0773816
2.216,92.30258,98.72421,5.63825,-12.416807,5.4821525,4.9178205
2.218,90.55652,100.445564,3.6722593,-11.837858,6.678517,4.6756325
2.22,88.74198,101.94312,1.3774176,-11.349697,7.7157354,4.356582
2.222,86.868484,103.19336,-1.1625853,-10.95017,8.600753,3.9719138
2.224,84.94565,104.18217,-3.8825436,-10.638355,9.337409,3.5382984
2.226,82.98219,104.8978,-6.7222843,-10.413432,9.926853,3.0760024
2.228,80.97382,105.34027,-9.61886,-10.274176,10.368373,2.605962
2.23,78.931564,105.50779,-12.530354,-10.218674,10.660797,2.1475015
2.232,76.86618,105.402374,-15.421627,-10.244474,10.804129,1.7170825
2.234,74.78577,105.03328,-18.239162,-10.348752,10.79994,1.3280756
2.236,72.69167,104.41283,-20.920738,-10.527857,10.651526,0.9897116
2.238,70.591705,103.55502,-23.415657,-10.776548,10.36443,0.70612615
2.24,68.498375,102.47656,-25.686348,-11.0878105,9.946998,0.47809702
2.242,66.42381,101.198166,-27.69949,-11.453078,9.410505,0.3050273
2.244,64.376755,99.74865,-29.424068,-11.86206,8.76891,0.18551135
2.246,62.359303,98.16268,-30.839684,-12.302837,8.038381,0.11767578
2.248,60.374916,96.467125,-31.941544,-12.762317,7.236785,0.09964216
2.25,58.435654,94.68877,-32.736042,-13.22676,6.3832855,0.12991118
2.252,56.54712,92.86073,-33.23284,-13.682339,5.4979353,0.20692539
2.254,54.713196,91.017456,-33.44221,-14.115831,4.6010175,0.3282659
2.256,52.935955,89.18691,-33.374306,-14.515278,3.7124038,0.49013567
2.258,51.21528,87.38632,-33.044746,-14.87042,2.850947,0.6874223
2.26,49.552242,85.62474,-32.477657,-15.172905,2.034102,0.9142256
2.262,47.948753,83.91361,-31.704031,-15.416275,1.2774944,1.1643705
2.264,46.405884,82.26409,-30.753584,-15.595924,0.5945406,1.4315438
2.266,44.925034,80.68228,-29.653372,-15.709,-0.0038819313,1.7093081
2.268,43.507378,79.173294,-28.431618,-15.754343,-0.5097294,1.9913802
2.27,42.154274,77.74228,-27.117975,-15.732447,-0.9179914,2.2718115
2.272,40.866264,76.39237,-25.741592,-15.645413,-1.2269337,2.5452347
2.274,39.642475,75.12529,-24.328049,-15.49688,-1.4381762,2.807148
2.276,38.48266,73.941986,-22.899036,-15.291927,-1.5565925,3.0539184
2.278,37.386505,72.84527,-21.473972,-15.036955,-1.5899392,3.2827811
2.28,36.351746,71.838646,-20.0721,-14.739471,-1.5483285,3.4918213
2.282,35.376305,70.92163,-18.71244,-14.407764,-1.4436723,3.6800203
2.284,34.45616,70.08759,-17.41173,-14.050596,-1.2889503,3.847231
2.286,33.585762,69.325455,-16.183237,-13.676668,-1.0974494,3.9940543
2.288,32.760204,68.62323,-15.035709,-13.294324,-0.8820255,4.12173
2.29,31.975136,67.97172,-13.974377,-12.9111805,-0.6545098,4.2319827
2.292,31.226154,67.36447,-13.0009165,-12.533748,-0.42512584,4.3268557
2.294,30.510063,66.79741,-12.114326,-12.167288,-0.20209229,4.408555
2.296,29.824238,66.26761,-11.312754,-11.8156805,0.008623064,4.4792757
2.298,29.165943,65.77277,-10.593415,-11.4814625,0.20334524,4.541053
2.3,28.532934,65.31077,-9.952526,-11.165882,0.3805835,4.5956707
2.302,27.92302,64.879684,-9.385548,-10.869028,0.5408403,4.644602
2.304,27.333618,64.47821,-8.887203,-10.590076,0.6862744,4.689002
2.306,26.76203,64.10498,-8.451748,-10.327487,0.8203373,4.729788
2.308,26.206135,63.758427,-8.073666,-10.0792675,0.9472923,4.767676
2.31,25.664171,63.4371,-7.747092,-9.843212,1.0717337,4.8032846
2.312,25.13464,63.139698,-7.466745,-9.617116,1.1982166,4.837203
2.314,24.617445,62.864216,-7.228063,-9.398898,1.3308212,4.8700147
2.316,24.11174,62.60916,-7.027652,-9.186771,1.472872,4.9022794
2.318,23.617662,62.372948,-6.8612385,-8.979307,1.626775,4.9344854
2.32,23.135586,62.153797,-6.7256527,-8.775463,1.7939773,4.9670143
2.322,22.666054,61.94956,-6.6189604,-8.574619,1.975002,5.0000725
2.324,22.209778,61.757614,-6.5395164,-8.376553,2.1695106,5.0336018
2.326,21.767424,61.57469,-6.485798,-8.181452,2.3764777,5.0672083
2.328,21.339241,61.39735,-6.456146,-7.9898295,2.5944276,5.100089
2.33,20.925781,61.221577,-6.4492383,-7.802485,2.8215947,5.131116
2.332,20.526226,61.043385,-6.463915,-7.6204042,3.0560358,5.1588254
2.334,20.14,60.858845,-6.499602,-7.4446874,3.2957695,5.1815553
2.336,19.76639,60.66377,-6.5558586,-7.276428,3.5388842,5.197588
2.338,19.40374,60.45453,-6.6323137,-7.1165905,3.7836165,5.205303
2.34,19.050869,60.227543,-6.729245,-6.965955,4.0284023,5.203394
2.342,18.70615,59.979713,-6.8469057,-6.8249593,4.2719297,5.1909695
2.344,18.367489,59.708145,-6.985794,-6.6936564,4.5132074,5.167658
2.346,18.033257,59.41042,-7.1467056,-6.571752,4.7515774,5.133604
2.348,17.70111,59.08464,-7.3311415,-6.4585514,4.986662,5.08943
2.35,17.369516,58.72938,-7.540349,-6.3530836,5.2184353,5.036108
2.352,17.036583,58.343773,-7.7756367,-6.2541957,5.447173,4.974822
2.354,16.700653,57.92742,-8.038154,-6.160597,5.673336,4.9068847
2.356,16.360474,57.48037,-8.3292885,-6.071016,5.8975034,4.833584
2.358,16.015358,57.003242,-8.650208,-5.984291,6.1202383,4.75612
2.36,15.664859,56.497265,-9.001945,-5.8994503,6.3419237,4.6755476
2.362,15.308811,55.963955,-9.385061,-5.815771,6.5626874,4.592779
2.364,14.947425,55.405396,-9.799934,-5.7327642,6.782325,4.508569
2.366,14.58172,54.82377,-10.247035,-5.650189,7.000209,4.423565
2.368,14.212426,54.22151,-10.726451,-5.568041,7.2152934,4.3383384
2.37,13.8409605,53.60097,-11.237933,-5.486514,7.4261055,4.253393
2.372,13.469044,52.96469,-11.780801,-5.4059534,7.630769,4.169218
2.374,13.098109,52.31532,-12.354029,-5.326775,7.8271074,4.0862856
2.376,12.730352,51.655174,-12.95614,-5.2494555,8.012718,4.005019
2.378,12.367137,50.986355,-13.585215,-5.1744704,8.185073,3.9257576
2.38,12.009797,50.31107,-14.239394,-5.102309,8.34166,3.8486896
2.382,11.659518,49.631233,-14.916087,-5.0334306,8.480085,3.773858
2.384,11.317617,48.948387,-15.612538,-4.968264,8.598154,3.7010853
2.386,10.984904,48.26399,-16.325836,-4.9072094,8.693958,3.6300154
2.388,10.661986,47.578987,-17.05273,-4.850562,8.765967,3.5600846
2.39,10.349158,46.89457,-17.790236,-4.798567,8.81306,3.490551
2.392,10.046412,46.211475,-18.535048,-4.7513824,8.8345585,3.4205759
2.394,9.7534075,45.53049,-19.28395,-4.70903,8.830227,3.3492637
2.396,9.469632,44.85202,-20.033895,-4.671398,8.800253,3.2757516
2.398,9.194451,44.17623,-20.782106,-4.638231,8.745213,3.1992497
2.4,8.926704,43.503426,-21.525883,-4.609101,8.666012,3.1191015
2.402,8.665314,42.833206,-22.263111,-4.5835,8.56394,3.0347292
2.404,8.409289,42.164898,-22.991781,-4.560849,8.440474,2.9456987
2.406,8.156958,41.497658,-23.710274,-4.540502,8.297224,2.8517237
2.408,7.907238,40.8299,-24.417116,-4.5218296,8.135958,2.7526278
2.41,7.658624,40.16006,-25.111187,-4.5042567,7.958419,2.6482985
2.412,7.4100466,39.48632,-25.791647,-4.487285,7.7662487,2.5386574
2.414,7.16026,38.806736,-26.45753,-4.4704704,7.560991,2.42369
2.416,6.9083366,38.119225,-27.107992,-4.4534683,7.343957,2.3034008
2.418,6.6533,37.421993,-27.742128,-4.436024,7.1162043,2.1778479
2.42,6.394298,36.713223,-28.359417,-4.4179134,6.878536,2.047132
2.422,6.1308184,35.991566,-28.958727,-4.3989654,6.631439,1.9114347
2.424,5.861692,35.256104,-29.538977,-4.3790097,6.3751707,1.7710412
2.426,5.5870137,34.50581,-30.098282,-4.3578963,6.1097674,1.6263409
2.428,5.3061595,33.74008,-30.635391,-4.3354726,5.835078,1.4778073
2.43,5.0188894,32.95867,-31.148548,-4.311555,5.550853,1.3260064
2.432,4.725105,32.161896,-31.635609,-4.285983,5.2568054,1.1715963
2.434,4.425125,31.350231,-32.09432,-4.258568,4.952641,1.0153368
2.436,4.119257,30.524902,-32.52237,-4.229137,4.638138,0.85805845
2.438,3.807994,29.687305,-32.91717,-4.197509,4.3131847,0.7006513
2.44,3.4915905,28.83935,-33.27641,-4.1635127,3.97783,0.5440135
2.442,3.17135,27.983294,-33.59775,-4.126963,3.6322556,0.38904393
2.444,2.848229,27.121511,-33.878754,-4.0876317,3.2768328,0.23662639
2.446,2.5230508,26.257103,-34.117096,-4.045293,2.9121418,0.087578654
2.448,2.1974795,25.392897,-34.310528,-3.9996898,2.5389335,-0.057389736
2.45,1.87293,24.532307,-34.456825,-3.9505627,2.1581354,-0.19772679
2.452,1.5511384,23.67874,-34.554073,-3.897634,1.7708521,-0.33305156
2.454,1.2339935,22.835678,-34.6006,-3.840644,1.3783661,-0.4631964
2.456,0.9230981,22.0065,-34.59508,-3.7793164,0.9820925,-0.58817375
2.458,0.6207509,21.19437,-34.536404,-3.713383,0.5835944,-0.708179
2.46,0.32914472,20.40223,-34.42401,-3.6426086,0.18456951,-0.8235681
2.462,0.050433993,19.632957,-34.25762,-3.5667517,-0.21322519,-0.9348527
2.464,-0.2133416,18.88902,-34.037422,-3.4855492,-0.6078953,-1.0425999
2.466,-0.45999563,18.172918,-33.763985,-3.3987105,-0.9974543,-1.1473768
2.468,-0.6875243,17.486595,-33.438503,-3.305934,-1.3798847,-1.2497792
2.47,-0.8939092,16.831514,-33.062294,-3.206907,-1.7531064,-1.3503491
2.472,-1.0771294,16.209295,-32.637253,-3.1012793,-2.1150074,-1.449574
2.474,-1.2354692,15.620765,-32.165546,-2.9887133,-2.463501,-1.5478811
2.476,-1.3673799,15.066582,-31.649551,-2.8688693,-2.7965052,-1.6456378
2.478,-1.4713901,14.5469675,-31.091867,-2.7414594,-3.1120458,-1.7431504
2.48,-1.5464693,14.061956,-30.495424,-2.606283,-3.4082823,-1.8406731
2.482,-1.591939,13.611211,-29.863499,-2.4632585,-3.6835837,-1.938425
2.484,-1.6072092,13.193815,-29.199493,-2.3124514,-3.9365997,-2.0366025
2.486,-1.5923648,12.808921,-28.50716,-2.1540759,-4.166316,-2.1354032
2.488,-1.5473546,12.45545,-27.790264,-1.9885635,-4.3721075,-2.2350538
2.49,-1.4723531,12.131916,-27.052662,-1.8165156,-4.553772,-2.3358245
2.492,-1.3681045,11.836457,-26.298313,-1.6386842,-4.711521,-2.437995
2.494,-1.2357612,11.567303,-25.53069,-1.4559445,-4.8459663,-2.5418525
2.496,-1.0763187,11.322405,-24.753098,-1.2692598,-4.958067,-2.6476736
2.498,-0.8913893,11.099684,-23.968266,-1.0796021,-5.049056,-2.7557273
2.5,-0.6825359,10.896871,-23.178696,-0.88787574,-5.120373,-2.8662467
2.502,-0.45161057,10.711738,-22.386509,-0.6949024,-5.1735196,-2.979371
2.504,-0.20047116,10.541792,-21.593437,-0.5013674,-5.2099686,-3.0951655
2.506,0.068691015,10.384726,-20.80095,-0.3077887,-5.231147,-3.2136118
2.508,0.35369074,10.238168,-20.010315,-0.11451852,-5.2383165,-3.3346171
2.51,0.65233445,10.099654,-19.22249,0.07827768,-5.2325315,-3.4580188
2.512,0.96232176,9.967098,-18.438042,0.27060345,-5.2146425,-3.5835686
2.514,1.2812719,9.838423,-17.6577,0.46257332,-5.185295,-3.7109528
2.516,1.6071587,9.711677,-16.881878,0.6544063,-5.1449327,-3.839794
2.518,1.9377115,9.585306,-16.1109,0.84640604,-5.093812,-3.9696772
2.52,2.270995,9.45773,-15.345081,1.0389475,-5.032049,-4.100157
2.522,2.6047628,9.327688,-14.584646,1.2324905,-4.9596195,-4.2307224
2.524,2.937401,9.194145,-13.830127,1.4275842,-4.8763804,-4.360839
2.526,3.2670856,9.056456,-13.082048,1.6248001,-4.782146,-4.4899426
2.528,3.5921047,8.913881,-12.341085,1.8247347,-4.676696,-4.6174483
2.53,3.911103,8.766018,-11.608048,2.027978,-4.5598526,-4.742774
2.532,4.2224703,8.61275,-10.88426,2.2350922,-4.431511,-4.8653264
2.534,4.5253973,8.454119,-10.1709385,2.446557,-4.291728,-4.9845433
2.536,4.8186464,8.290418,-9.469549,2.6627548,-4.1407547,-5.0998607
2.538,5.1014614,8.122017,-8.781723,2.8839517,-3.9790647,-5.210767
2.54,5.3730183,7.949736,-8.109196,3.1102831,-3.8073683,-5.3167915
2.542,5.632682,7.7746677,-7.4539332,3.3417752,-3.6265697,-5.4175177
2.544,5.8798513,7.5978937,-6.817595,3.5783525,-3.437732,-5.5125856
2.546,6.114261,7.4204197,-6.201892,3.819872,-3.2420228,-5.6017175
2.548,6.33587,7.2436295,-5.608629,4.066168,-3.0406475,-5.6846766
2.55,6.5447893,7.068924,-5.0392284,4.317051,-2.8347573,-5.7612953
2.552,6.7407584,6.897747,-4.495136,4.572362,-2.625442,-5.831479
2.554,6.9239616,6.731939,-3.977633,4.8319383,-2.413694,-5.895173
2.556,7.094692,6.57315,-3.4877994,5.095618,-2.200413,-5.95239
2.558,7.253058,6.423411,-3.0266109,5.363208,-1.9864275,-6.003181
2.56,7.399253,6.2846975,-2.5947053,5.63444,-1.772533,-6.047623
2.562,7.533577,6.158924,-2.1925786,5.908997,-1.5595124,-6.0858345
2.564,7.656417,6.0480185,-1.8205311,6.186479,-1.348122,-6.117959
2.566,7.7683177,5.9539256,-1.4785783,6.4664288,-1.1390901,-6.144185
2.568,7.8697033,5.878278,-1.166328,6.748352,-0.9331455,-6.16468
2.57,7.960899,5.822668,-0.8832882,7.0316586,-0.7309616,-6.1795597
2.572,8.042281,5.78894,-0.62879604,7.3157587,-0.53316,-6.1889477
2.574,8.114209,5.7786684,-0.40179375,7.600036,-0.3402773,-6.1929855
2.576,8.177271,5.7930403,-0.20125374,7.8838954,-0.15276594,-6.191757
2.578,8.2319,5.8333874,-0.02571021,8.166725,0.02897536,-6.1852503
2.58,8.278219,5.901012,0.12626584,8.4478855,0.20454347,-6.1733627
2.582,8.316482,5.9972014,0.25639847,8.72673,0.37349433,-6.1559343
2.584,8.347061,6.1228843,0.36630806,9.002561,0.5352742,-6.1327157
2.586,8.370385,6.278781,0.45768756,9.274658,0.6891427,-6.1034307
2.588,8.386941,6.465513,0.5323429,9.542269,0.83419466,-6.0677757
2.59,8.397602,6.683667,0.5917859,9.8045635,0.9692916,-6.0254416
2.592,8.403109,6.9339404,0.6376653,10.060673,1.0930964,-5.9761043
2.594,8.404298,7.21701,0.6718083,10.309665,1.2040769,-5.9194455
2.596,8.402091,7.5332966,0.69582057,10.550603,1.3005586,-5.855181
2.598,8.397847,7.883011,0.7110459,10.782482,1.3808097,-5.7830834
2.6,8.39281,8.266152,0.7188339,11.004308,1.4431239,-5.702927
2.602,8.388689,8.682555,0.72005403,11.215109,1.4859356,-5.614605
2.604,8.387435,9.131974,0.715603,11.413965,1.5078568,-5.5182066
2.606,8.390822,9.614158,0.7061608,11.600022,1.5077877,-5.4140553
2.608,8.401508,10.128295,0.6921092,11.77251,1.4849693,-5.3027973
2.61,8.421976,10.67346,0.6737102,11.930815,1.4390463,-5.1854258
2.612,8.454846,11.248534,0.6509683,12.074485,1.3701087,-5.0633535
2.614,8.5029545,11.852149,0.6237472,12.20324,1.2786839,-4.9383945
2.616,8.569209,12.482566,0.5918982,12.316947,1.1656506,-4.812651
2.618,8.656743,13.13777,0.55534136,12.415698,1.0321724,-4.6883626
2.62,8.768411,13.815594,0.51390505,12.499783,0.8796665,-4.567782
2.622,8.9072,14.513551,0.46750784,12.569767,0.7097326,-4.45301
2.624,9.075875,15.228895,0.41613746,12.626375,0.52406037,-4.345895
2.626,9.277106,15.958863,0.3597257,12.670414,0.32440126,-4.247837
2.628,9.51319,16.700422,0.29845428,12.702723,0.11245698,-4.159683
2.63,9.786436,17.450457,0.2323823,12.724064,-0.1102106,-4.081725
2.632,10.098643,18.205944,0.16215086,12.735134,-0.34222966,-4.013655
2.634,10.451366,18.963842,0.08845711,12.73646,-0.5824538,-3.9545429
2.636,10.846148,19.721092,0.012234688,12.728365,-0.830081,-3.9029112
2.638,11.283867,20.474634,-0.06512928,12.710926,-1.0847155,-3.8569083
2.64,11.764734,21.221584,-0.14212179,12.6839485,-1.3464454,-3.8144417
2.642,12.289047,21.958872,-0.21666384,12.647008,-1.615817,-3.7734056
2.644,12.856016,22.68363,-0.28660202,12.599473,-1.8938434,-3.7319064
2.646,13.465216,23.393257,-0.3496294,12.540499,-2.1819906,-3.6884587
2.648,14.115434,24.085213,-0.4025488,12.46905,-2.482084,-3.6421278
2.65,14.805401,24.756485,-0.4420395,12.383928,-2.7962086,-3.5926197
2.652,15.532885,25.404026,-0.464571,12.283845,-3.126583,-3.5403118
2.654,16.295343,26.025127,-0.4670763,12.167422,-3.4753802,-3.4862745
2.656,17.089647,26.617327,-0.44652176,12.033341,-3.8446271,-3.4320755
2.658,17.912783,27.17773,-0.39992523,11.8803835,-4.2360387,-3.3796287
2.66,18.761177,27.703491,-0.3248005,11.7075405,-4.650922,-3.3310664
2.662,19.631304,28.19153,-0.2186079,11.514116,-5.0901303,-3.2886138
2.664,20.51918,28.6384,-0.07909107,11.299737,-5.5540094,-3.2544603
2.666,21.420677,29.04058,0.09545326,11.064371,-6.0424433,-3.2306714
2.668,22.331459,29.394285,0.30641556,10.808306,-6.554846,-3.219116
2.67,23.247152,29.695686,0.55480003,10.532106,-7.090169,-3.2214584
2.672,24.162937,29.941086,0.8413925,10.236553,-7.6468306,-3.2391691
2.674,25.07405,30.126778,1.166275,9.922594,-8.222911,-3.2734392
2.676,25.975407,30.249208,1.5290699,9.591177,-8.816227,-3.3251925
2.678,26.862116,30.305103,1.9285355,9.243224,-9.424359,-3.3951683
2.68,27.728798,30.291294,2.3628044,8.879544,-10.0446,-3.4839134
2.682,28.570484,30.204922,2.8298492,8.500801,-10.673866,-3.5917919
2.684,29.381893,30.043947,3.3270159,8.1075535,-11.308678,-3.718945
2.686,30.157904,29.806988,3.8515797,7.700227,-11.945139,-3.865258
2.688,30.893234,29.493038,4.4000015,7.279206,-12.579019,-4.0303497
2.69,31.582823,29.101933,4.9684277,6.8449087,-13.205643,-4.213529
2.692,32.22151,28.63419,5.5523033,6.3979015,-13.819872,-4.4137
2.694,32.804375,28.091618,6.146967,5.9390807,-14.416117,-4.6293197
2.696,33.32665,27.476902,6.747164,5.469725,-14.988475,-4.8583646
2.698,33.783787,26.793516,7.347459,4.99155,-15.530858,-5.098341
2.7,34.171352,26.04551,7.9426384,4.5067506,-16.037144,-5.3463793
2.702,34.485687,25.237698,8.527153,4.017955,-16.501411,-5.599326
2.704,34.72385,24.375584,9.095356,3.5281363,-16.918158,-5.8538547
2.706,34.883175,23.46549,9.641951,3.0404663,-17.282621,-6.1066556
2.708,34.96163,22.514004,10.161653,2.5581436,-17.591011,-6.3545485
2.71,34.957928,21.52824,10.64929,2.0842657,-17.840618,-6.5945797
2.712,34.870964,20.515678,11.100115,1.621727,-18.029947,-6.824118
2.714,34.70078,19.483807,11.509384,1.1731234,-18.158768,-7.040902
2.716,34.44809,18.440413,11.872992,0.740695,-18.227985,-7.24311
2.718,34.114258,17.393469,12.187329,0.32634735,-18.239523,-7.4292912
2.72,33.701492,16.35043,12.449596,-0.06835842,-18.196194,-7.5983143
2.722,33.212673,15.318679,12.65741,-0.44210625,-18.101505,-7.7493157
2.724,32.65114,14.305388,12.809074,-0.793807,-17.959532,-7.881617
2.726,32.02086,13.3174305,12.903566,-1.1226244,-17.774813,-7.994642
2.728,31.326328,12.361281,12.940556,-1.4279461,-17.55201,-8.087863
2.73,30.572802,11.442817,12.920288,-1.7093525,-17.295765,-8.160727
2.732,29.765665,10.567471,12.843742,-1.9666481,-17.010601,-8.212554
2.734,28.910503,9.740198,12.7125,-2.199944,-16.700886,-8.242635
2.736,28.013256,8.965139,12.528832,-2.4096832,-16.37067,-8.250345
2.738,27.080402,8.245767,12.2955,-2.5967293,-16.023594,-8.235182
2.74,26.118166,7.5849667,12.015963,-2.76225,-15.662718,-8.196815
2.742,25.132814,6.984563,11.693787,-2.907673,-15.290591,-8.1351
2.744,24.130787,6.44583,11.333135,-3.034637,-14.909344,-8.050236
2.746,23.118025,5.9691367,10.938356,-3.1448832,-14.520745,-7.9428034
2.748,22.100727,5.554382,10.513914,-3.240206,-14.126318,-7.8138456
2.75,21.084938,5.2006264,10.064449,-3.3223042,-13.7273035,-7.664761
2.752,20.076237,4.9061193,9.594473,-3.3926942,-13.324785,-7.497307
2.754,19.08045,4.6685333,9.108528,-3.4526753,-12.91968,-7.3134537
2.756,18.102642,4.484772,8.611101,-3.5033,-12.512804,-7.115346
2.758,17.147923,4.3514104,8.106024,-3.54536,-12.104857,-6.905158
2.76,16.220509,4.264738,7.5970774,-3.5793734,-11.696419,-6.684987
2.762,15.325111,4.220595,7.08792,-3.6056747,-11.287912,-6.4568086
2.764,14.465535,4.2144794,6.5821733,-3.6243935,-10.879653,-6.222441
2.766,13.645134,4.241658,6.083349,-3.6355603,-10.471821,-5.9834886
2.768,12.866609,4.297352,5.594431,-3.6391122,-10.064555,-5.741294
2.77,12.132615,4.3767686,5.117999,-3.6349416,-9.657997,-5.496937
2.772,11.445157,4.4753623,4.6559286,-3.6229153,-9.252302,-5.2513046
2.774,10.805736,4.5888,4.2098618,-3.6029346,-8.847665,-5.00515
2.776,10.215414,4.7133007,3.7811828,-3.5750024,-8.4443245,-4.759116
2.778,9.674711,4.845301,3.370778,-3.5392454,-8.042592,-4.5137863
2.78,9.183756,4.981678,2.9793699,-3.4958782,-7.642825,-4.2697434
2.782,8.742482,5.119541,2.60713,-3.4452252,-7.245443,-4.0275307
2.784,8.350488,5.2564826,2.254466,-3.3877215,-6.85093,-3.7877254
2.786,8.006964,5.390263,1.9214728,-3.3238866,-6.459776,-3.5508816
2.788,7.710625,5.519348,1.6083552,-3.254301,-6.072435,-3.3175626
2.79,7.4603567,5.6424327,1.3151472,-3.179585,-5.6892986,-3.0882764
2.792,7.2543855,5.758358,1.0414739,-3.100349,-5.310668,-2.8635116
2.794,7.0910573,5.866235,0.7869297,-3.0171597,-4.936688,-2.6436758
2.796,6.9680805,5.9653177,0.5508354,-2.9305286,-4.567308,-2.4291213
2.798,6.8838067,6.055397,0.3328817,-2.840855,-4.2022786,-2.2201033
2.8,6.8361397,6.1362915,0.13255453,-2.7484696,-3.8412325,-2.0167801
2.802,6.823056,6.2078443,-0.050442576,-2.6536365,-3.4837508,-1.8192368
2.804,6.8422623,6.26998,-0.21656203,-2.556554,-3.129393,-1.6275623
2.806,6.8914275,6.32276,-0.3661828,-2.457397,-2.7777288,-1.4418218
2.808,6.968385,6.3663754,-0.4998355,-2.3563354,-2.428381,-1.2621057
2.81,7.071223,6.401189,-0.6183702,-2.253563,-2.0810204,-1.0885347
2.812,7.1976376,6.427493,-0.72252476,-2.1492949,-1.7353982,-0.9212891
2.814,7.345362,6.4456234,-0.81311786,-2.0437658,-1.3913137,-0.7605551
2.816,7.5125885,6.455904,-0.89120877,-1.9372098,-1.0486145,-0.60652524
2.818,7.697268,6.4589844,-0.9577235,-1.829818,-0.7072098,-0.45933217
2.82,7.897735,6.455366,-1.0136838,-1.7217274,-0.36703718,-0.31904262
2.822,8.112525,6.4454494,-1.0600836,-1.6129764,-0.02808778,-0.18570377
2.824,8.339973,6.429626,-1.0980521,-1.5035123,0.3095512,-0.05933925
2.826,8.578614,6.408052,-1.1286052,-1.3931781,0.64568496,0.060053185
2.828,8.82681,6.3809905,-1.1528006,-1.2817719,0.9799832,0.1724847
2.83,9.08322,6.348863,-1.1719186,-1.1690762,1.3119862,0.2778653
2.832,9.346785,6.3118505,-1.1869546,-1.0548886,1.6410902,0.37602007
2.834,9.616155,6.2701497,-1.1990356,-0.9390787,1.9665887,0.46669155
2.836,9.890357,6.2238283,-1.2091382,-0.82160354,2.287714,0.5495634
2.838,10.168076,6.172961,-1.2182912,-0.70254093,2.60366,0.6242548
2.84,10.448222,6.117377,-1.2274804,-0.5820735,2.9136703,0.69038033
2.842,10.729736,6.057063,-1.2376308,-0.46048704,3.2170463,0.7475774
2.844,11.011727,5.9918437,-1.2496666,-0.3381663,3.5131202,0.79556537
2.846,11.293037,5.921644,-1.2643574,-0.21556807,3.801274,0.834144
2.848,11.572686,5.846397,-1.2825972,-0.09324098,4.0809383,0.8632386
2.85,11.849659,5.765933,-1.3051667,0.028230011,4.3515816,0.8829035
2.852,12.122922,5.680296,-1.3327198,0.14823633,4.612696,0.8933305
2.854,12.391307,5.5894737,-1.3659192,0.26618844,4.863795,0.8948334
2.856,12.653995,5.493708,-1.4052894,0.38152108,5.1044006,0.88783544
2.858,12.909937,5.392918,-1.4512256,0.4936873,5.3339686,0.87291205
2.86,13.158428,5.2873034,-1.5041666,0.6022053,5.551902,0.850745
2.862,13.398488,5.177147,-1.5643243,0.70665956,5.7575397,0.82214284
2.864,13.628908,5.0627084,-1.6317275,0.80670726,5.9501753,0.78798693
2.866,13.848809,4.944431,-1.706428,0.9020919,6.129063,0.74921584
2.868,14.057173,4.822584,-1.7884152,0.9926455,6.2934504,0.7067824
2.87,14.253367,4.69769,-1.877511,1.0782855,6.4426107,0.6616042
2.872,14.436519,4.570167,-1.9735026,1.1589633,6.575907,0.6145114
2.874,14.606186,4.4405355,-2.0761108,1.234703,6.6928153,0.56620693
2.876,14.7617445,4.3092213,-2.1850939,1.3055921,6.792962,0.5172754
2.878,14.902509,4.1767697,-2.300072,1.3717461,6.876165,0.46813536
2.88,15.027786,4.043787,-2.420411,1.4333298,6.9424334,0.4190144
2.882,15.137125,3.9107366,-2.5455368,1.4905481,6.991933,0.36996728
2.884,15.230336,3.7780297,-2.6751359,1.5436368,7.025008,0.32097507
2.886,15.307156,3.6458182,-2.8087633,1.5928168,7.0421257,0.27194405
2.888,15.367643,3.5144823,-2.9459863,1.6383051,7.043832,0.22275424
2.89,15.411814,3.3841903,-3.0865643,1.6802933,7.0307226,0.173289
2.892,15.439846,3.2553658,-3.2300043,1.7189384,7.0033937,0.12351143
2.894,15.4517565,3.1281097,-3.3760822,1.7543397,6.962425,0.073491514
2.896,15.447973,3.0028143,-3.5245147,1.7865304,6.9083614,0.023425639
2.898,15.428936,2.8796108,-3.6750767,1.815503,6.8417263,-0.026394546
2.9,15.395218,2.75872,-3.8274827,1.8411987,6.762971,-0.07560134
2.902,15.347611,2.6401873,-3.9814913,1.86355,6.67251,-0.12377995
2.904,15.28683,2.524319,-4.136895,1.8824556,6.5706973,-0.17048353
2.906,15.213638,2.4114215,-4.2933636,1.8978132,6.4578733,-0.21528941
2.908,15.128899,2.3016,-4.450759,1.9095536,6.334367,-0.25782126
2.91,15.033794,2.1950312,-4.6087036,1.9176518,6.2005258,-0.29776907
2.912,14.929144,2.091908,-4.766715,1.922111,6.0567102,-0.33493614
2.914,14.816107,1.9924793,-4.924542,1.9229789,5.9033313,-0.36918893
2.916,14.695761,1.8970525,-5.0816674,1.9203309,5.7408514,-0.40047103
2.918,14.569224,1.8057411,-5.2376566,1.9142871,5.569781,-0.4287852
2.92,14.437458,1.718781,-5.391916,1.904983,5.3906937,-0.45421302
2.922,14.301668,1.6363413,-5.54387,1.8925489,5.204186,-0.47688988
2.924,14.163001,1.5586565,-5.69301,1.8771365,5.0108852,-0.49696758
2.926,14.022268,1.4859796,-5.83869,1.8589019,4.8114357,-0.51461554
2.928,13.88065,1.4185109,-5.980447,1.8379874,4.606466,-0.5300158
2.93,13.738969,1.3563809,-6.117682,1.8145208,4.3965836,-0.5433612
2.932,13.5982,1.2997191,-6.2497983,1.7886264,4.182351,-0.55483806
2.934,13.459157,1.248641,-6.376278,1.7603996,3.964302,-0.5646279
2.936,13.322646,1.2032862,-6.496769,1.7299278,3.742927,-0.5729227
2.938,13.189391,1.1637044,-6.610784,1.697283,3.5186644,-0.57990015
2.94,13.059961,1.1300211,-6.7178254,1.662529,3.2919364,-0.5857353
2.942,12.934789,1.1022761,-6.817586,1.62573,3.0631242,-0.5905913
2.944,12.8146,1.0805407,-6.909762,1.586971,2.832597,-0.5946124
2.946,12.69952,1.0648999,-6.994001,1.5463545,2.6007473,-0.59789413
2.948,12.590163,1.0553567,-7.0701427,1.5040278,2.3679457,-0.6005074
2.95,12.486504,1.0522208,-7.1379066,1.460184,2.1345801,-0.6024869
2.952,12.3888855,1.0554423,-7.197192,1.4150604,1.9010391,-0.6038208
2.954,12.297406,1.0650291,-7.247708,1.3689166,1.667736,-0.6044648
2.956,12.212215,1.081001,-7.289523,1.3220555,1.435086,-0.60435796
2.958,12.133219,1.1034057,-7.322491,1.274804,1.2035083,-0.603439
2.96,12.060402,1.1321054,-7.3466105,1.2274988,0.97342694,-0.6016474
2.962,11.993805,1.1670847,-7.3618517,1.1804663,0.7452414,-0.5989442
2.964,11.933379,1.2081516,-7.368305,1.1340162,0.5193385,-0.5953115
2.966,11.878921,1.2551658,-7.3661623,1.0884424,0.2960784,-0.5907546
2.968,11.830388,1.3079438,-7.355579,1.0440063,0.075766206,-0.5853419
2.97,11.787407,1.3662472,-7.3366976,1.0009327,-0.14133452,-0.5791673
2.972,11.750011,1.4297671,-7.309733,0.9594155,-0.35500896,-0.57235235
2.974,11.71785,1.4982574,-7.2751575,0.91961527,-0.56509924,-0.56503475
2.976,11.690816,1.5713067,-7.233143,0.8816663,-0.77150065,-0.55737925
2.978,11.668673,1.6485815,-7.1841073,0.84564143,-0.97414815,-0.5495686
2.98,11.65113,1.7296417,-7.1284,0.81160057,-1.1730053,-0.5418016
2.982,11.637956,1.8141847,-7.0663137,0.7795793,-1.3680418,-0.5342525
2.984,11.628904,1.9017158,-6.9982753,0.74957985,-1.5592465,-0.5270783
2.986,11.623733,1.9918168,-6.924656,0.721607,-1.7465789,-0.52041626
2.988,11.622263,2.0841124,-6.8458056,0.6956682,-1.9299955,-0.51435995
2.99,11.624206,2.1780615,-6.7621756,0.67177236,-2.1094246,-0.5089756
2.992,11.629195,2.2732687,-6.6742735,0.6499507,-2.2847667,-0.5042929
2.994,11.636986,2.3693223,-6.5823946,0.63024986,-2.4559114,-0.5002991
2.996,11.647362,2.4657836,-6.486933,0.6127158,-2.6227016,-0.49698094
2.998,11.660154,2.5622506,-6.3882046,0.5974146,-2.7849765,-0.49431723
3,11.675019,2.6583984,-6.2865973,0.5844199,-2.9425704,-0.49228817
3.002,11.691658,2.7538676,-6.182648,0.57379586,-3.0952857,-0.49087924
3.004,11.710015,2.8483677,-6.0766625,0.5656074,-3.2429347,-0.4900877
3.006,11.729828,2.9416823,-5.9690766,0.5599169,-3.3853118,-0.48992014
3.008,11.751055,3.033563,-5.860349,0.5567775,-3.5222278,-0.49039507
3.01,11.773332,3.1239195,-5.7507515,0.55624866,-3.6535099,-0.491539
3.012,11.796603,3.212628,-5.6408534,0.55838436,-3.778996,-0.49338537
3.014,11.82074,3.2993233,-5.530895,0.56323284,-3.8985498,-0.49595988
3.016,11.845609,3.3839903,-5.421299,0.5708348,-4.0120587,-0.4992997
3.018,11.871041,3.46654,-5.31252,0.5812397,-4.119423,-0.50343275
3.02,11.896919,3.5469697,-5.2048984,0.59448224,-4.2205677,-0.50837135
3.022,11.923116,3.6252005,-5.0988536,0.6105936,-4.315419,-0.5141097
3.024,11.949793,3.7012036,-4.9947023,0.6296012,-4.40392,-0.5206404
3.026,11.976652,3.7749496,-4.8928566,0.6515074,-4.48603,-0.52793443
3.028,12.003723,3.8466141,-4.7936516,0.67632073,-4.561717,-0.53593063
3.03,12.030904,3.9161096,-4.6974397,0.70402277,-4.630975,-0.54456663
3.032,12.058083,3.983586,-4.6046,0.73457605,-4.6937933,-0.5537454
3.034,12.085225,4.049128,-4.5154,0.7679127,-4.750199,-0.5633478
3.036,12.112386,4.1127367,-4.4300923,0.8039526,-4.800211,-0.57325816
3.038,12.139338,4.1744494,-4.3490114,0.8425929,-4.843894,-0.5833615
3.04,12.166131,4.2344685,-4.272264,0.8836964,-4.88133,-0.59355104
3.042,12.192724,4.2929273,-4.2002163,0.92711383,-4.9126077,-0.6037276
3.044,12.218998,4.3498297,-4.1329603,0.97269803,-4.93786,-0.6138296
3.046,12.244915,4.405384,-4.0706286,1.020273,-4.957231,-0.6238264
3.048,12.27048,4.4596167,-4.013462,1.0696814,-4.9709,-0.63372135
3.05,12.295509,4.512701,-3.9614384,1.1207654,-4.9790597,-0.6435461
3.052,12.319999,4.564722,-3.9146676,1.1733707,-4.9819174,-0.65336144
3.054,12.343737,4.615747,-3.873127,1.2273626,-4.9797077,-0.6632465
3.056,12.366772,4.665888,-3.8368704,1.2826023,-4.972666,-0.6732905
3.058,12.388852,4.7153387,-3.805719,1.3389539,-4.961042,-0.68356943
3.06,12.410089,4.764063,-3.7796848,1.3963053,-4.9450912,-0.6941402
3.062,12.43022,4.8122206,-3.7585657,1.4545416,-4.925071,-0.70502293
3.064,12.44931,4.859862,-3.7422488,1.513532,-4.9012475,-0.7162101
3.066,12.467088,4.9072003,-3.7305748,1.5731727,-4.873894,-0.7276521
3.068,12.483598,4.9542446,-3.72328,1.6333492,-4.8432903,-0.73926306
3.07,12.498834,5.0012107,-3.720124,1.6939658,-4.8097205,-0.7509204
3.072,12.5127125,5.048089,-3.720884,1.7549157,-4.773486,-0.76251304
3.074,12.525169,5.0950685,-3.7253318,1.8161095,-4.7348995,-0.77392507
3.076,12.536039,5.142216,-3.7330983,1.8774598,-4.6942706,-0.7850424
3.078,12.545521,5.1895666,-3.743948,1.9388791,-4.651909,-0.79577315
3.08,12.553673,5.237149,-3.757523,2.0003052,-4.6081095,-0.8060496
3.082,12.5603485,5.2852,-3.7735639,2.0616608,-4.56317,-0.8158376
3.084,12.565774,5.333683,-3.791598,2.1228883,-4.517347,-0.8251208
3.086,12.569818,5.3826823,-3.8115067,2.1839485,-4.470909,-0.83389914
3.088,12.57256,5.4323215,-3.8328211,2.2447824,-4.4240756,-0.8421879
3.09,12.574244,5.482558,-3.8552454,2.3053467,-4.3770666,-0.8500017
3.092,12.574929,5.5334153,-3.8784828,2.365608,-4.330058,-0.8573493
3.094,12.574539,5.585063,-3.9022348,2.4255295,-4.2832346,-0.8642149
3.096,12.573356,5.637463,-3.9261014,2.4850903,-4.2367535,-0.8705729
3.098,12.571373,5.6907535,-3.9497929,2.544276,-4.1907625,-0.87637055
3.1,12.568936,5.7449102,-3.973124,2.603083,-4.1454096,-0.8815286
3.102,12.566053,5.8000016,-3.9956234,2.6615171,-4.100833,-0.8859683
3.104,12.562864,5.856022,-4.0170803,2.7195954,-4.057171,-0.8895825
3.106,12.559517,5.913107,-4.0372834,2.7773201,-4.0145745,-0.8922689
3.108,12.555928,5.9711905,-4.0559688,2.8347137,-3.9731612,-0.8939228
3.11,12.552183,6.030262,-4.072868,2.8917866,-3.933063,-0.8944489
3.112,12.548528,6.09035,-4.0878196,2.9485688,-3.8943934,-0.89376783
3.114,12.544806,6.151535,-4.1006413,3.005053,-3.8572593,-0.89180565
3.116,12.541112,6.213727,-4.1111555,3.0612414,-3.8217597,-0.8885077
3.118,12.537374,6.2769303,-4.1190815,3.1171372,-3.787967,-0.88382804
3.12,12.533673,6.3410206,-4.124433,3.1727214,-3.7559566,-0.8777374
3.122,12.529866,6.406024,-4.1269045,3.2279809,-3.7257953,-0.8702127
3.124,12.525799,6.4718657,-4.1265554,3.2828805,-3.6975346,-0.8612616
3.126,12.521478,6.5384107,-4.1231885,3.337391,-3.6712337,-0.8508811
3.128,12.516759,6.605706,-4.116669,3.391466,-3.6469302,-0.8390765
3.13,12.511431,6.6735625,-4.1068954,3.4450693,-3.624678,-0.8258724
3.132,12.505557,6.742063,-4.0939035,3.49817,-3.6044946,-0.81128514
3.134,12.49857,6.811062,-4.0776014,3.550735,-3.5864022,-0.795323
3.136,12.490672,6.880522,-4.0578365,3.602751,-3.570397,-0.7779856
3.138,12.481633,6.9503117,-4.034669,3.6542265,-3.5564566,-0.7592704
3.14,12.471266,7.0205164,-4.0080314,3.705183,-3.544546,-0.7391652
3.142,12.459491,7.0909357,-3.9778757,3.755668,-3.5346,-0.71764886
3.144,12.446115,7.161773,-3.9442375,3.805737,-3.526544,-0.6946821
3.146,12.431122,7.2330446,-3.9071968,3.8554516,-3.5202873,-0.67024827
3.148,12.414411,7.3048286,-3.8666623,3.9048874,-3.515719,-0.6443374
3.15,12.395822,7.3772335,-3.822696,3.954113,-3.512738,-0.61695826
3.152,12.375402,7.450367,-3.7752707,4.0032034,-3.5112176,-0.58810604
3.154,12.353176,7.5245037,-3.7245543,4.0522175,-3.511028,-0.5578034
3.156,12.329046,7.599716,-3.670548,4.1012077,-3.5120502,-0.5260695
3.158,12.303131,7.676384,-3.6132464,4.1502094,-3.5141568,-0.4929247
3.16,12.275543,7.754715,-3.5527463,4.199261,-3.5172412,-0.4584118
3.162,12.246308,7.8350487,-3.4890263,4.248395,-3.521213,-0.42255342
3.164,12.215502,7.917734,-3.4221191,4.297648,-3.525981,-0.38538265
3.166,12.183331,8.003183,-3.3520248,4.3470397,-3.5314589,-0.34691727
3.168,12.149858,8.091612,-3.2787719,4.396619,-3.5375984,-0.30717993
3.17,12.115192,8.18359,-3.202201,4.4464173,-3.5443625,-0.26617837
3.172,12.079554,8.279549,-3.122315,4.4964466,-3.5517554,-0.22393918
3.174,12.043038,8.37989,-3.0389671,4.5467234,-3.5597987,-0.18048382
3.176,12.00584,8.484947,-2.9518905,4.597259,-3.568521,-0.13583922
3.178,11.968022,8.5952015,-2.8610342,4.6480656,-3.5779653,-0.090014935
3.18,11.929745,8.711109,-2.7661538,4.699125,-3.588192,-0.043028116
3.182,11.890995,8.833159,-2.6668918,4.7504373,-3.5992265,0.0051140785
3.184,11.851777,8.961742,-2.5627322,4.802005,-3.6110811,0.054418802
3.186,11.812102,9.097338,-2.4533277,4.8538294,-3.6237473,0.104911566
3.188,11.771537,9.240421,-2.3380532,4.905926,-3.6371531,0.15661931
3.19,11.730035,9.391399,-2.2163017,4.958321,-3.651196,0.20958924
3.192,11.687258,9.550394,-2.0873551,5.0110354,-3.6657171,0.26388884
3.194,11.642807,9.717784,-1.9504881,5.064091,-3.6805406,0.3195715
3.196,11.59628,9.893762,-1.8046813,5.1175156,-3.6954634,0.37670493
3.198,11.547182,10.078366,-1.6490571,5.171311,-3.7102282,0.43534517
3.2,11.494783,10.271741,-1.482626,5.2254987,-3.724578,0.49553657
3.202,11.438509,10.473768,-1.3044338,5.2800827,-3.738234,0.55730414
3.204,11.377726,10.684315,-1.1134205,5.3350663,-3.7508814,0.6206646
3.206,11.311398,10.903158,-0.90864706,5.390449,-3.7622113,0.685586
3.208,11.238728,11.129749,-0.68921113,5.446239,-3.7719026,0.75203633
3.21,11.158289,11.363953,-0.45394182,5.502432,-3.7796214,0.8199363
3.212,11.069137,11.605133,-0.20182848,5.5590467,-3.7850282,0.8891773
3.214,10.970142,11.852695,0.06810522,5.616075,-3.7877653,0.95965314
3.216,10.860346,12.105863,0.35706425,5.673513,-3.7874756,1.0311964
3.218,10.738857,12.363664,0.66597676,5.731362,-3.7837875,1.1036422
3.22,10.60461,12.62485,0.99570036,5.7896447,-3.7762856,1.1768069
3.222,10.456904,12.8882065,1.3464694,5.848399,-3.7644715,1.2505255
3.224,10.294877,13.152961,1.7193594,5.9077077,-3.7477708,1.3246512
3.226,10.118238,13.416763,2.1153421,5.9676847,-3.7255094,1.3990831
3.228,9.927539,13.677714,2.5335236,6.0284786,-3.6969147,1.4737318
3.23,9.721814,13.934002,2.9744246,6.090259,-3.6611195,1.5485287
3.232,9.501249,14.183619,3.4376612,6.1532173,-3.6171114,1.6234334
3.234,9.266449,14.424433,3.9223685,6.2175875,-3.5637555,1.6983917
3.236,9.018349,14.654119,4.4276953,6.2835736,-3.499816,1.7733784
3.238,8.757964,14.870417,4.952595,6.351408,-3.4239025,1.8484185
3.24,8.486831,15.071177,5.495526,6.4213514,-3.3345428,1.9235766
3.242,8.206332,15.254064,6.0547266,6.493686,-3.2301803,1.9989667
3.244,7.9186473,15.416944,6.628014,6.5687146,-3.1091833,2.0747669
3.246,7.6258574,15.5577,7.2128596,6.646764,-2.9699311,2.1512146
3.248,7.3301206,15.674245,7.8065233,6.728144,-2.8108633,2.2285805
3.25,7.0341067,15.764658,8.406074,6.813094,-2.6305268,2.3071814
3.252,6.7403326,15.827265,9.0082,6.901722,-2.4275644,2.3873043
3.254,6.4515676,15.860373,9.60946,6.9941726,-2.2010412,2.46915
3.256,6.1702642,15.86276,10.206349,7.0904474,-1.9502304,2.552912
3.258,5.8990226,15.833389,10.795053,7.1902804,-1.6748376,2.6386142
3.26,5.6401625,15.77156,11.37198,7.293255,-1.3749158,2.7262363
3.262,5.395574,15.677041,11.933359,7.3987913,-1.0508958,2.8156273
3.264,5.167015,15.5499,12.475666,7.50614,-0.703707,2.9065452
3.266,4.95585,15.390712,12.995363,7.6143513,-0.3348186,2.9987075
3.268,4.7629404,15.200409,13.489088,7.722293,0.05380547,3.091812
3.27,4.588826,14.980504,13.95351,7.8286285,0.4597335,3.185555
3.272,4.4333525,14.732882,14.385719,7.9318213,0.8801061,3.2796535
3.274,4.29628,14.459702,14.782743,8.030124,1.3116914,3.3738563
3.276,4.1764975,14.16363,15.141968,8.121633,1.7509898,3.4680054
3.278,4.0725727,13.847773,15.460939,8.204351,2.194334,3.561984
3.28,3.9827466,13.515399,15.73745,8.276275,2.638063,3.6557634
3.282,3.9047587,13.170139,15.969764,8.335493,3.0785713,3.7493553
3.284,3.8359087,12.815788,16.156261,8.380285,3.512413,3.8428185
3.286,3.7735305,12.456384,16.29577,8.409234,3.93639,3.9361706
3.288,3.7144847,12.096035,16.387688,8.42127,4.3476195,4.0293837
3.29,3.6553211,11.738732,16.431421,8.41571,4.74356,4.1223063
3.292,3.5929658,11.388338,16.426786,8.392249,5.12204,4.2146397
3.294,3.524273,11.048496,16.374058,8.350915,5.481272,4.305925
3.296,3.4460316,10.722737,16.273891,8.292033,5.8198543,4.395579
3.298,3.3553224,10.4142685,16.127151,8.216146,6.1367383,4.482904
3.3,3.249311,10.125916,15.9349575,8.123964,6.431295,4.567146
3.302,3.1256623,9.860104,15.698887,8.016318,6.7032485,4.647546
3.304,2.9821436,9.618837,15.420719,7.894119,6.9525733,4.7233624
3.306,2.8168712,9.403578,15.10241,7.7583294,7.17943,4.794006
3.308,2.6282814,9.215492,14.746238,7.609808,7.3843126,4.8590155
3.31,2.4154692,9.05519,14.35482,7.449498,7.5676737,4.91803
3.312,2.1773806,8.922941,13.930764,7.278441,7.730054,4.9708595
3.314,1.9136665,8.818399,13.47696,7.097596,7.871932,5.017392
3.316,1.6243855,8.741155,12.996271,6.907841,7.993705,5.057565
3.318,1.3097103,8.6903715,12.491774,6.710016,8.095765,5.0913644
3.32,0.9705199,8.664661,11.966321,6.5048738,8.178472,5.1187396
3.322,0.60748005,8.66269,11.422831,6.2930827,8.242072,5.139598
3.324,0.22156292,8.682789,10.86426,6.075208,8.286732,5.153844
3.326,-0.18610024,8.723111,10.293323,5.8517437,8.312536,5.161365
3.328,-0.6139787,8.78176,9.712898,5.623136,8.3195505,5.1620474
3.33,-1.0602288,8.856852,9.125868,5.3897786,8.307799,5.155777
3.332,-1.5233502,8.946264,8.535368,5.152015,8.277313,5.1425066
3.334,-2.0011976,9.047444,7.943433,4.9102087,8.22812,5.122224
3.336,-2.491897,9.159127,7.3523626,4.664752,8.160331,5.0949864
3.338,-2.993978,9.279156,6.7656565,4.416094,8.074141,5.060902
3.34,-3.5042114,9.405198,6.185191,4.164736,7.9698157,5.020131
3.342,-4.020393,9.535011,5.613345,3.9112601,7.8477445,4.972888
3.344,-4.540469,9.666376,5.0526395,3.6563187,7.7084,4.919388
3.346,-5.0624843,9.797218,4.5051203,3.4006238,7.5523453,4.8598723
3.348,-5.5840144,9.925127,3.9725332,3.1449428,7.3802037,4.794588
3.35,-6.102966,10.04791,3.4567552,2.8900647,7.1926365,4.723786
3.352,-6.617195,10.163444,2.9594831,2.6368065,6.9903226,4.6477027
3.354,-7.124768,10.269787,2.4824233,2.38597,6.7739067,4.56658
3.356,-7.6237955,10.365026,2.027041,2.138338,6.5440593,4.4806666
3.358,-8.112281,10.447577,1.5948715,1.8946513,6.301478,4.3901997
3.36,-8.5887,10.515863,1.1871109,1.6556004,6.046922,4.2954197
3.362,-9.051452,10.568682,0.80502963,1.4218053,5.7812138,4.196576
3.364,-9.499367,10.605061,0.44952393,1.1938004,5.5052886,4.0939364
3.366,-9.931117,10.624181,0.12137365,0.97205627,5.2202187,3.9878292
3.368,-10.345602,10.625559,-0.17869377,0.75697637,4.9272037,3.8786469
3.37,-10.741905,10.60883,-0.45047045,0.54890835,4.62758,3.7669115
3.372,-11.119162,10.574012,-0.69361115,0.34818375,4.322774,3.653256
3.374,-11.476698,10.521292,-0.9081955,0.15510869,4.0142913,3.5384183
3.376,-11.814043,10.451233,-1.0943322,-0.029983163,3.7037222,3.423249
3.378,-12.130876,10.364459,-1.2525158,-0.20674896,3.392644,3.3086307
3.38,-12.427003,10.261967,-1.3831468,-0.374848,3.0826604,3.1954606
3.382,-12.702199,10.144738,-1.4870768,-0.5339364,2.7753434,3.0845752
3.384,-12.956786,10.01424,-1.5650358,-0.6836643,2.4722517,2.9767106
3.386,-13.190847,9.871893,-1.6180816,-0.82371235,2.1748815,2.8724122
3.388,-13.404718,9.719073,-1.6472979,-0.95382905,1.8846581,2.7720332
3.39,-13.5988245,9.557237,-1.6539154,-1.0738285,1.6029327,2.6757112
3.392,-13.773646,9.3878565,-1.6394625,-1.1836488,1.3309493,2.5833664
3.394,-13.9297,9.212288,-1.605443,-1.2833437,1.069841,2.494768
3.396,-14.067816,9.031726,-1.5534577,-1.3730989,0.82058513,2.4095464
3.398,-14.188623,8.847345,-1.4853864,-1.4532036,0.5840591,2.3272803
3.4,-14.292821,8.660254,-1.4026661,-1.5240359,0.3610018,2.2475371
3.402,-14.381441,8.471471,-1.3070731,-1.5860538,0.15202707,2.169921
3.404,-14.455387,8.281784,-1.2002225,-1.6397324,-0.042364895,2.094067
3.406,-14.515516,8.09184,-1.0837073,-1.6855617,-0.22178671,2.0196948
3.408,-14.562749,7.90224,-0.9590769,-1.7240038,-0.38593304,1.9465971
3.41,-14.59817,7.7133937,-0.8275542,-1.7555051,-0.5345829,1.8746204
3.412,-14.622827,7.525753,-0.69053125,-1.7804675,-0.66759205,1.8036752
3.414,-14.637579,7.3396025,-0.54917336,-1.7992452,-0.78490007,1.7337022
3.416,-14.643225,7.155113,-0.40453053,-1.8121811,-0.8865186,1.6646919
3.418,-14.640579,6.972513,-0.25763702,-1.819571,-0.972541,1.5966374
3.42,-14.630648,6.7918005,-0.10944319,-1.8217041,-1.0431404,1.5295622
3.422,-14.613874,6.613174,0.039353848,-1.818869,-1.0985689,1.4634964
3.424,-14.590892,6.436851,0.18800545,-1.811346,-1.1391718,1.3984764
3.426,-14.562272,6.2629623,0.33593178,-1.7994227,-1.165358,1.3345622
3.428,-14.528563,6.0917263,0.48257875,-1.7833757,-1.1776202,1.2718198
3.43,-14.490123,5.923417,0.6274204,-1.7634964,-1.1765386,1.2103395
3.432,-14.447133,5.7583466,0.7700329,-1.7400575,-1.1627209,1.1502091
3.434,-14.399957,5.596837,0.90994406,-1.71332,-1.136835,1.0915307
3.436,-14.348818,5.4393816,1.0468259,-1.6835641,-1.099593,1.0343956
3.438,-14.293884,5.286345,1.1803389,-1.6510603,-1.0517148,0.9788928
3.44,-14.235352,5.1382117,1.310009,-1.6160977,-0.9939348,0.92512506
3.442,-14.173105,4.995305,1.435586,-1.5789617,-0.92697436,0.8731722
3.444,-14.107197,4.85809,1.5566845,-1.5399477,-0.85155964,0.82309043
3.446,-14.037616,4.7270126,1.67311,-1.4993274,-0.76837593,0.77492154
3.448,-13.964273,4.6024547,1.784513,-1.4573901,-0.6781034,0.72867537
3.45,-13.887005,4.484949,1.8905454,-1.4144124,-0.58136785,0.6843448
3.452,-13.805746,4.374839,1.9909849,-1.3706434,-0.47881886,0.641872
3.454,-13.720314,4.272565,2.0854726,-1.3263246,-0.3710617,0.6011672
3.456,-13.630384,4.1784186,2.1736636,-1.2816627,-0.25868568,0.5621086
3.458,-13.536052,4.0928655,2.2553873,-1.2368392,-0.1422731,0.5245675
3.46,-13.437038,4.016204,2.3305225,-1.1919956,-0.022392549,0.48839658
3.462,-13.333141,3.9486787,2.3989224,-1.1472418,0.10037649,0.4534292
3.464,-13.224148,3.8903556,2.4603043,-1.1026525,0.22545612,0.4195004
3.466,-13.110021,3.8412907,2.5145016,-1.058288,0.3522659,0.38642585
3.468,-12.9906645,3.8015528,2.5612884,-1.0141977,0.48021615,0.35401994
3.47,-12.865961,3.7710247,2.6006503,-0.97039616,0.6087134,0.32207894
3.472,-12.735924,3.749557,2.6324325,-0.9269221,0.7371456,0.29037935
3.474,-12.600512,3.7368984,2.6567864,-0.88379776,0.86491424,0.2586894
3.476,-12.459775,3.7328186,2.6736917,-0.8410312,0.99140805,0.2267488
3.478,-12.313774,3.7369485,2.6832838,-0.7986612,1.1160402,0.19428268
3.48,-12.162589,3.7490067,2.6857095,-0.7567259,1.2382417,0.16099176
3.482,-12.006357,3.7684734,2.6812234,-0.7152728,1.3574717,0.1265983
3.484,-11.845369,3.7948787,2.6700656,-0.67434865,1.4732587,0.09084234
3.486,-11.679771,3.8278413,2.65245,-0.6340113,1.5851768,0.053509504
3.488,-11.509718,3.8668866,2.6287193,-0.5942958,1.6928809,0.0144329965
