Time_s_,Acc_x_m_s_2_,Acc_y_m_s_2_,Acc_z_m_s_2_,Gyro_x_1_s_,Gyro_y_1_s_,Gyro_z_1_s_
0,0.12626298,-0.08796647,-0.089043476,0.23318349,0.54705966,0.74370813
0.002,0.054801006,-0.079863474,-0.059887804,0.2330738,0.558792,0.7419447
0.004,-0.01981505,-0.071363606,-0.025319666,0.23258635,0.5709618,0.7399754
0.006,-0.09718373,-0.062569775,0.014904554,0.23158869,0.58334196,0.7378235
0.008,-0.17724453,-0.053463064,0.06061566,0.2298858,0.5955248,0.7354986
0.01,-0.25956988,-0.04395312,0.11152417,0.22723141,0.6069118,0.7329459
0.012,-0.34381562,-0.03400758,0.16770855,0.22337025,0.61672884,0.73010826
0.014,-0.42975238,-0.023851812,0.2297579,0.2180636,0.6241279,0.72698295
0.016,-0.51708454,-0.013506755,0.29776597,0.21108449,0.6282692,0.72358257
0.018,-0.60518587,-0.0031506866,0.37200722,0.20220919,0.6282986,0.71989655
0.02,-0.6935612,0.0070438385,0.45265213,0.1912178,0.6233159,0.71585226
0.022,-0.7812076,0.016721994,0.53976935,0.17792058,0.61240935,0.71133924
0.024,-0.8673638,0.02559191,0.6329809,0.16216338,0.5947637,0.7062291
0.026,-0.95103294,0.033311933,0.7316178,0.14386253,0.5697864,0.7003467
0.028,-1.0335034,0.04100439,0.834355,0.122903675,0.5375581,0.69338316
0.03,-1.1132302,0.04729718,0.9412236,0.09966278,0.49810818,0.68527955
0.032,-1.1888298,0.04989919,1.0506049,0.07453151,0.45263302,0.6757982
0.034,-1.2577462,0.04696104,1.1624539,0.048063338,0.40288273,0.66469806
0.036,-1.3174813,0.038734585,1.2744458,0.020938218,0.35106236,0.6517606
0.038,-1.3681304,0.028206706,1.3816638,-0.0061263144,0.2995929,0.636797
0.04,-1.4095397,0.017913729,1.4799455,-0.032455042,0.2508672,0.6196577
0.042,-1.4416169,0.008235276,1.5673101,-0.05751916,0.20696184,0.60018206
0.044,-1.4639082,-0.0023941398,1.6432046,-0.08097835,0.16941187,0.57827836
0.046,-1.4764088,-0.016142428,1.7078173,-0.102683365,0.13911259,0.55392027
0.048,-1.4787751,-0.034877896,1.7612318,-0.12267296,0.11628897,0.52717376
0.05,-1.4705175,-0.05916798,1.801913,-0.14110339,0.10052602,0.49819362
0.052,-1.450613,-0.088885546,1.8271343,-0.15820724,0.09095666,0.46724668
0.054,-1.4184985,-0.12331042,1.8336266,-0.1742318,0.08645281,0.43467614
0.056,-1.3759456,-0.16155875,1.820499,-0.1894303,0.085716695,0.4008893
0.058,-1.319288,-0.2029486,1.7848328,-0.20399801,0.08741353,0.3662697
0.06,-1.2486153,-0.24652725,1.7265023,-0.21806102,0.09039503,0.33106554
0.062,-1.1641865,-0.2915089,1.6458834,-0.23166622,0.0936774,0.2956755
0.064,-1.0670074,-0.3366905,1.5441424,-0.24471591,0.09652533,0.26072899
0.066,-0.9579531,-0.3812232,1.4227865,-0.25692216,0.0986616,0.22705384
0.068,-0.83823025,-0.42464405,1.2829088,-0.26793748,0.09987873,0.19542395
0.07,-0.70921326,-0.46668264,1.126176,-0.27741584,0.099867806,0.16642272
0.072,-0.57206047,-0.50716066,0.9547937,-0.28499487,0.09840284,0.14051741
0.074,-0.42822295,-0.5455058,0.7704741,-0.29026717,0.09554432,0.118168265
0.076,-0.27891117,-0.5810859,0.5752051,-0.2927829,0.09164354,0.099978894
0.078,-0.12565282,-0.6132899,0.37104902,-0.29203904,0.08727118,0.08674303
0.08,0.02984339,-0.6412161,0.16027991,-0.28758252,0.08300899,0.07932983
0.082,0.18577057,-0.6643882,-0.054495458,-0.27915627,0.07922067,0.07842531
0.084,0.3400404,-0.68204504,-0.27068377,-0.26684365,0.07592505,0.08428297
0.086,0.49058974,-0.6938673,-0.48504254,-0.25109303,0.07289937,0.096662596
0.088,0.6357259,-0.69990677,-0.6945131,-0.23272687,0.06967636,0.11475456
0.09,0.77346224,-0.7001975,-0.89574593,-0.21279211,0.06574483,0.13726184
0.092,0.90159583,-0.6946067,-1.0870461,-0.19228676,0.06071011,0.16262946
0.094,1.0181911,-0.68307287,-1.2682394,-0.17197987,0.054439705,0.18934262
0.096,1.1219782,-0.6659294,-1.439015,-0.15223767,0.04713881,0.21623212
0.098,1.212477,-0.6436719,-1.5974277,-0.13296296,0.03939253,0.24264202
0.1,1.2892871,-0.6168047,-1.7408433,-0.113688484,0.032035455,0.26865298
0.102,1.3522526,-0.5856319,-1.8668699,-0.093664184,0.026002383,0.2950426
0.104,1.4017123,-0.5505614,-1.9738305,-0.07210272,0.022165839,0.32303122
0.106,1.4379474,-0.51183283,-2.0609148,-0.048387922,0.02108022,0.35389492
0.108,1.4611319,-0.46961522,-2.12779,-0.02229263,0.022877656,0.3886242
0.11,1.4716759,-0.42408013,-2.1747053,0.0059084147,0.027211927,0.42757452
0.112,1.4710774,-0.37606972,-2.2019267,0.03544506,0.033393085,0.47036752
0.114,1.460671,-0.32615003,-2.2101665,0.06516341,0.04038477,0.515944
0.116,1.4416153,-0.2747277,-2.2001996,0.09375539,0.047134683,0.5625244
0.118,1.4153394,-0.22248897,-2.172285,0.119949184,0.05268675,0.6080129
0.12,1.3835074,-0.1702764,-2.1264994,0.1427123,0.0561636,0.6504228
0.122,1.3482182,-0.11902794,-2.063798,0.16152586,0.057167515,0.6883959
0.124,1.3114254,-0.06925589,-1.9854153,0.17638876,0.055744693,0.72135496
0.126,1.2731547,-0.021385461,-1.8913428,0.18763384,0.052038237,0.7492916
0.128,1.2355994,0.023189098,-1.7825736,0.19571719,0.046048194,0.77250695
0.13,1.2006016,0.063587934,-1.6611273,0.2010325,0.0376285,0.7913564
0.132,1.1694717,0.09967038,-1.5282423,0.20378529,0.026485085,0.8061157
0.134,1.1426619,0.13123778,-1.3854111,0.20398523,0.012387782,0.8170508
0.136,1.1204616,0.15775457,-1.2332522,0.20153268,-0.0047412664,0.8244339
0.138,1.1053189,0.17779392,-1.0733281,0.19629794,-0.024748772,0.8285245
0.14,1.0963961,0.19243139,-0.9079598,0.18820795,-0.047296897,0.8295341
0.142,1.092839,0.20335716,-0.7378782,0.17724878,-0.07189773,0.8276885
0.144,1.0932808,0.21108675,-0.5657244,0.16345593,-0.09802987,0.8232337
0.146,1.0966846,0.21438327,-0.39187592,0.14691296,-0.12506342,0.8164311
0.148,1.1043516,0.2104752,-0.2156594,0.12779382,-0.15226811,0.8075991
0.15,1.116574,0.19863659,-0.038418673,0.1063981,-0.178785,0.7971493
0.152,1.1333337,0.18079183,0.13628146,0.083218694,-0.20360035,0.7855892
0.154,1.1541908,0.16021478,0.30406085,0.058926422,-0.22563371,0.77336526
0.156,1.1787145,0.13962734,0.46110618,0.034270987,-0.24377385,0.76074064
0.158,1.2061231,0.1205076,0.6050406,0.010170072,-0.25679526,0.74797785
0.16,1.2352946,0.102671266,0.73545957,-0.012357384,-0.26354155,0.7354874
0.162,1.264969,0.08554202,0.8529666,-0.032260664,-0.26316714,0.72355497
0.164,1.2946324,0.068258286,0.95819575,-0.048550762,-0.25516665,0.7123436
0.166,1.3236194,0.05023527,1.0509204,-0.06047477,-0.23945029,0.70191795
0.168,1.3515913,0.03145361,1.1291693,-0.067523934,-0.2162957,0.6923345
0.17,1.3789439,0.011875868,1.190941,-0.069499455,-0.18644863,0.6836467
0.172,1.4060161,-0.008327305,1.2347376,-0.06650581,-0.15092869,0.6758779
0.174,1.4337306,-0.029127657,1.2593005,-0.058905296,-0.11088564,0.6690269
0.176,1.4614046,-0.049496293,1.2649747,-0.04724858,-0.06744989,0.66312784
0.178,1.4895139,-0.06876576,1.2523822,-0.0322158,-0.021642447,0.65829223
0.18,1.5181947,-0.08654159,1.2215879,-0.01450526,0.025711477,0.6546786
0.182,1.5473142,-0.10252756,1.1732874,0.005186029,0.07398331,0.65248543
0.184,1.5768713,-0.11671609,1.1090577,0.026217617,0.12270294,0.65190774
0.186,1.6064781,-0.12932444,1.0301405,0.048018277,0.17153938,0.6531204
0.188,1.6355741,-0.14061558,0.93830025,0.0700825,0.2201702,0.6562389
0.19,1.6636891,-0.15095693,0.83505785,0.09195,0.26825413,0.66129756
0.192,1.6903286,-0.16010255,0.72147554,0.11319359,0.31539166,0.6682592
0.194,1.71507,-0.1676516,0.59903944,0.133403,0.36113825,0.6769912
0.196,1.7369008,-0.17306554,0.46860293,0.1521954,0.40499476,0.6872313
0.198,1.7553412,-0.17588043,0.33202308,0.16925254,0.4464653,0.6986739
0.2,1.7701676,-0.17572606,0.19101563,0.18430173,0.4849979,0.7109949
0.202,1.7808886,-0.17206758,0.0468468,0.19711155,0.52005756,0.7238255
0.204,1.7867067,-0.16439307,-0.09879815,0.20751615,0.551166,0.7367796
0.206,1.7871628,-0.15246242,-0.244111,0.21539018,0.577901,0.7494029
0.208,1.7814575,-0.13593894,-0.38734287,0.2206807,0.60003966,0.76125056
0.21,1.7688646,-0.114468455,-0.526588,0.22347322,0.61750835,0.77205914
0.212,1.7488352,-0.08795929,-0.6609268,0.22390746,0.630237,0.78158164
0.214,1.7215283,-0.056482136,-0.789847,0.22225843,0.6383737,0.78951204
0.216,1.6873608,-0.020275235,-0.9125745,0.21896005,0.64230955,0.79572767
0.218,1.6468673,0.020494819,-1.0285698,0.21461773,0.64259946,0.8002342
0.22,1.6006033,0.065606594,-1.1368194,0.21002911,0.63987786,0.80312264
0.222,1.5485448,0.114664376,-1.235964,0.20608012,0.63482875,0.80452967
0.224,1.4911573,0.1670013,-1.3249909,0.2036968,0.62827444,0.8046022
0.226,1.4294902,0.22157186,-1.4032059,0.20376135,0.6210329,0.8035259
0.228,1.3647168,0.2773825,-1.4702514,0.20703822,0.6139073,0.8015582
0.23,1.297298,0.33356938,-1.5261111,0.2141003,0.6076879,0.79898816
0.232,1.2282956,0.38899636,-1.5701969,0.22526309,0.60303414,0.7961134
0.234,1.158453,0.44239387,-1.6021152,0.24055791,0.6004024,0.79324067
0.236,1.0896306,0.49265963,-1.6227756,0.25974354,0.6000455,0.790701
0.238,1.0215216,0.53932005,-1.6312568,0.28228676,0.60194093,0.7888174
0.24,0.95405483,0.58099425,-1.6261019,0.30742642,0.60581136,0.78785545
0.242,0.8877076,0.61666614,-1.6087664,0.33426932,0.6111597,0.78800994
0.244,0.82491195,0.64499277,-1.5798435,0.3618542,0.6172798,0.7893929
0.246,0.7679231,0.66448176,-1.541269,0.38924995,0.6233193,0.79201525
0.248,0.7165673,0.6751058,-1.4940481,0.41560477,0.628416,0.7957803
0.25,0.66944635,0.677187,-1.4384633,0.44020718,0.6317441,0.8004886
0.252,0.62588346,0.6692464,-1.3724215,0.46248108,0.6325953,0.805889
0.254,0.58541846,0.6509515,-1.2952638,0.482064,0.6304588,0.8117564
0.256,0.54785264,0.6236559,-1.2070236,0.4988069,0.62500775,0.81793356
0.258,0.51351744,0.5889442,-1.1072551,0.5127224,0.616066,0.8243135
0.26,0.4839374,0.5469934,-0.9980592,0.52397215,0.6036214,0.830842
0.262,0.46060404,0.49731994,-0.883518,0.53286153,0.58776927,0.837497
0.264,0.4435127,0.43963522,-0.7665814,0.5397681,0.56867296,0.84414285
0.266,0.4332214,0.37384433,-0.64934695,0.5451501,0.5465526,0.8506049
0.268,0.43025786,0.30044988,-0.5340972,0.5493511,0.5214381,0.85667866
0.27,0.43500176,0.22053306,-0.42165682,0.5527078,0.49325472,0.86215204
0.272,0.44742608,0.13475382,-0.3118772,0.5555589,0.46194214,0.86684996
0.274,0.46728975,0.043858707,-0.20543286,0.5579527,0.42723054,0.8703803
0.276,0.49466085,-0.05167599,-0.10369476,0.5596713,0.38876557,0.8726066
0.278,0.5293737,-0.15132417,-0.007755086,0.5602283,0.3462396,0.87349474
0.28,0.5706619,-0.25400203,0.08127067,0.55901587,0.29958612,0.8728368
0.282,0.61748964,-0.3579712,0.16204873,0.5553228,0.24903835,0.8704216
0.284,0.6684045,-0.46130723,0.23346055,0.5484369,0.19493291,0.8663509
0.286,0.72261626,-0.5625103,0.2938176,0.53781223,0.13759491,0.8611262
0.288,0.77794975,-0.65952665,0.34212714,0.5230472,0.07747334,0.8554239
0.29,0.8325277,-0.7503034,0.3784444,0.5038403,0.015281767,0.8498134
0.292,0.88467944,-0.8332148,0.4023681,0.48000857,-0.04802504,0.8446591
0.294,0.93308914,-0.90672666,0.41388196,0.45160916,-0.11123219,0.84018517
0.296,0.97639304,-0.96912026,0.41264096,0.41913474,-0.1728793,0.83653754
0.298,1.0138259,-1.0189699,0.39804143,0.383671,-0.23129837,0.833854
0.3,1.0450546,-1.0551113,0.3694019,0.34694785,-0.28473943,0.8323193
0.302,1.0692317,-1.0769588,0.32612932,0.31126142,-0.33142033,0.8322044
0.304,1.0860835,-1.0846334,0.26752946,0.27925256,-0.3695575,0.8338858
0.306,1.0953125,-1.0829954,0.19080907,0.25357744,-0.3976477,0.8378011
0.308,1.09979,-1.0655206,0.100070626,0.23653401,-0.4146844,0.84444857
0.31,1.0997083,-1.0365436,-0.006553683,0.22975817,-0.42035007,0.85431033
0.312,1.0969198,-0.997975,-0.12781025,0.23400068,-0.41504326,0.86775005
0.314,1.0935634,-0.95194024,-0.26237226,0.24905027,-0.39983004,0.88491446
0.316,1.0935826,-0.9019154,-0.40971142,0.273787,-0.37631872,0.9056144
0.318,1.0998516,-0.8504615,-0.5704298,0.30636072,-0.34642863,0.92933244
0.32,1.1134216,-0.7997026,-0.7415366,0.34446594,-0.31220862,0.955272
0.322,1.1388617,-0.7536896,-0.9183261,0.3857696,-0.2755255,0.98250556
0.324,1.173283,-0.7120747,-1.1002246,0.4280821,-0.23804806,1.0100986
0.326,1.2187207,-0.6771286,-1.2772388,0.46957475,-0.20123048,1.0371838
0.328,1.2752525,-0.65171444,-1.4372402,0.50910467,-0.16610137,1.0632508
0.33,1.3476088,-0.6396423,-1.5790273,0.54598856,-0.13353068,1.0877954
0.332,1.440477,-0.64403236,-1.700463,0.5798683,-0.10437271,1.1106118
0.334,1.546346,-0.6605861,-1.8023006,0.61048293,-0.079567075,1.1318197
0.336,1.6566739,-0.68362564,-1.8866804,0.6376251,-0.05997348,1.1515172
0.338,1.7755716,-0.71404135,-1.9513987,0.6610609,-0.04616782,1.1695478
0.34,1.9061751,-0.753632,-1.9923393,0.6805049,-0.03828296,1.1856322
0.342,2.0431993,-0.8009012,-2.0058978,0.6957718,-0.03614208,1.1996356
0.344,2.1819503,-0.8537851,-1.9893235,0.7068913,-0.039306402,1.211658
0.346,2.3211746,-0.91131085,-1.9407781,0.7140566,-0.046934783,1.2220151
0.348,2.4572172,-0.97107357,-1.8608905,0.7175561,-0.057783693,1.2310548
0.35,2.584001,-1.0293677,-1.7512157,0.71753705,-0.07048383,1.238963
0.352,2.6960552,-1.0834126,-1.6127083,0.7139467,-0.08363441,1.2460196
0.354,2.7889667,-1.1307148,-1.4472277,0.7067596,-0.09557727,1.2524302
0.356,2.8584604,-1.1685545,-1.2558097,0.6956187,-0.10545552,1.2583479
0.358,2.9017808,-1.1951942,-1.0405589,0.6799921,-0.11282492,1.2640772
0.36,2.91713,-1.2089984,-0.80616766,0.65954447,-0.11698097,1.2698894
0.362,2.9025712,-1.2072794,-0.5605129,0.63391924,-0.11750731,1.2759254
0.364,2.855494,-1.1882391,-0.3097725,0.6029005,-0.114085406,1.2820909
0.366,2.773393,-1.1515986,-0.05788482,0.5664767,-0.10692957,1.2880002
0.368,2.6542113,-1.097065,0.19006212,0.52480066,-0.09659493,1.2933909
0.37,2.4968956,-1.0238672,0.43132967,0.47838056,-0.08284333,1.2982082
0.372,2.3015852,-0.9309759,0.6639989,0.4282444,-0.06484488,1.3023582
0.374,2.0709672,-0.81863654,0.88357455,0.37609828,-0.041848004,1.305614
0.376,1.8081703,-0.68826145,1.0837994,0.32424128,-0.013256833,1.3077905
0.378,1.5168962,-0.54227793,1.2594688,0.27534088,0.021292165,1.3088584
0.38,1.2014796,-0.38399622,1.4054681,0.2322197,0.06154965,1.3088403
0.382,0.867687,-0.21651495,1.5172844,0.19745071,0.10635747,1.3076564
0.384,0.5217664,-0.043008626,1.5930694,0.17295663,0.15369044,1.3051262
0.386,0.16983409,0.13323556,1.6321698,0.15966219,0.20082957,1.300947
0.388,-0.18220213,0.30899078,1.6349941,0.15733999,0.24468145,1.2945517
0.39,-0.528151,0.4804378,1.6029984,0.16459998,0.28210375,1.2850744
0.392,-0.8617432,0.64354926,1.538564,0.1790795,0.31036833,1.2715641
0.394,-1.1768485,0.79462445,1.444886,0.19785671,0.32744518,1.2532129
0.396,-1.4677976,0.93035513,1.3261272,0.21786505,0.3322353,1.2294213
0.398,-1.7296102,1.0485051,1.1875557,0.2364601,0.3248117,1.1998541
0.4,-1.958092,1.1472318,1.0344373,0.25175118,0.30624744,1.1646036
0.402,-2.1497219,1.2251834,0.8722633,0.26267183,0.27834615,1.1242554
0.404,-2.3017147,1.2813385,0.7061383,0.26906392,0.2434307,1.0798116
0.406,-2.4117491,1.3150507,0.5416297,0.27149972,0.20381445,1.0323968
0.408,-2.478109,1.3260297,0.3837426,0.27078786,0.16126314,0.9833335
0.41,-2.5003452,1.3146815,0.23763055,0.26807642,0.11756544,0.9339193
0.412,-2.4779997,1.2815814,0.107884146,0.26433754,0.073730946,0.88507617
0.414,-2.4114285,1.2281013,-0.0021758154,0.25997078,0.029902935,0.8375025
0.416,-2.301427,1.1592071,-0.088224575,0.25511074,-0.013755009,0.7916638
0.418,-2.1521325,1.0692956,-0.15316907,0.24953589,-0.057138413,0.7478247
0.42,-1.9646461,0.96426195,-0.19401217,0.24286842,-0.09978789,0.7060526
0.422,-1.7417582,0.84589624,-0.21113357,0.23480514,-0.14116089,0.66604185
0.424,-1.4864419,0.71594495,-0.20566607,0.22514623,-0.1812456,0.6273294
0.426,-1.2032316,0.57703793,-0.17847744,0.21381076,-0.21979208,0.58971393
0.428,-0.89529455,0.4303675,-0.13030922,0.2008252,-0.2557673,0.55324984
0.43,-0.5643666,0.27685133,-0.06577003,0.18641503,-0.28782544,0.5180624
0.432,-0.2159253,0.11915502,0.010105835,0.17099343,-0.31461114,0.48429883
0.434,0.15058842,-0.04367716,0.09652062,0.15503144,-0.33479092,0.45226663
0.436,0.5295509,-0.20921391,0.18437336,0.13905406,-0.34718364,0.42246345
0.438,0.9169965,-0.37425572,0.26627594,0.123585194,-0.35099328,0.39545283
0.44,1.3046572,-0.5348233,0.3463186,0.10905474,-0.34597057,0.37181312
0.442,1.6858907,-0.6880924,0.4255981,0.09570269,-0.33233255,0.35213417
0.444,2.0648396,-0.8374688,0.5063063,0.08356877,-0.3106451,0.33694252
0.446,2.4422803,-0.9848998,0.5894648,0.07250795,-0.28174537,0.32654405
0.448,2.8065233,-1.1245341,0.6701834,0.062206075,-0.24658836,0.3210235
0.45,3.1498117,-1.250672,0.7423184,0.052286383,-0.20624825,0.32034814
0.452,3.472822,-1.3616531,0.8017157,0.04229522,-0.16198187,0.32437727
0.454,3.7745519,-1.4561839,0.8464307,0.031839848,-0.11501966,0.3327618
0.456,4.050614,-1.5324203,0.87586015,0.020656584,-0.06656603,0.34506816
0.458,4.299027,-1.5895125,0.89052355,0.008575855,-0.017797885,0.36084855
0.46,4.5201716,-1.6276891,0.89133495,-0.004538536,0.030182518,0.37962085
0.462,4.7123957,-1.6463217,0.87899107,-0.01873852,0.076348275,0.40085787
0.464,4.873162,-1.6452314,0.8545314,-0.034095183,0.11974004,0.4240189
0.466,5.0007467,-1.6236295,0.81687486,-0.0506827,0.15958184,0.4486034
0.468,5.094511,-1.5818163,0.76654845,-0.06854207,0.19520235,0.47410795
0.47,5.1537666,-1.5200968,0.7054305,-0.087696485,0.22614917,0.50000954
0.472,5.177809,-1.438765,0.63417923,-0.108142056,0.25220293,0.5258124
0.474,5.1670103,-1.3394005,0.5542057,-0.12990445,0.2733443,0.55104196
0.476,5.1233444,-1.2246847,0.46737677,-0.15300143,0.2897715,0.5752333
0.478,5.047818,-1.0966389,0.3752002,-0.17745756,0.30178472,0.59796584
0.48,4.94121,-0.95649934,0.2779528,-0.20328538,0.3097222,0.61877126
0.482,4.8047457,-0.80617905,0.17621838,-0.23050311,0.3138907,0.6371361
0.484,4.640354,-0.64772034,0.071845844,-0.25910857,0.31458676,0.6525199
0.486,4.449937,-0.48310757,-0.032630578,-0.28905034,0.31207365,0.66437244
0.488,4.235839,-0.31448805,-0.13528635,-0.32019693,0.30651426,0.6721645
0.49,4.0009146,-0.14403558,-0.23449512,-0.3523843,0.29790768,0.6753616
0.492,3.7471495,0.026224256,-0.32850283,-0.3854253,0.28605503,0.6734283
0.494,3.4767866,0.19407547,-0.41581768,-0.41893288,0.27100044,0.66597736
0.496,3.1928449,0.35724294,-0.49428964,-0.45246214,0.25282958,0.65294033
0.498,2.8987086,0.51316905,-0.5616346,-0.48557344,0.231536,0.63440895
0.5,2.597164,0.66005874,-0.61644566,-0.5176947,0.20739444,0.61070246
0.502,2.2918673,0.79611844,-0.65771824,-0.54813576,0.18097986,0.58238244
0.504,1.9861057,0.9199549,-0.68446875,-0.57626045,0.15294474,0.55023247
0.506,1.682806,1.030485,-0.6967684,-0.6014427,0.12408891,0.5153635
0.508,1.3857342,1.1264356,-0.69470155,-0.6230447,0.095455125,0.4790759
0.51,1.0980432,1.2065499,-0.67803764,-0.6405048,0.06807807,0.44266242
0.512,0.82316077,1.2697346,-0.64656967,-0.653373,0.04286489,0.40733248
0.514,0.5635073,1.3154807,-0.60023063,-0.6613197,0.020575881,0.37408006
0.516,0.32154298,1.3434806,-0.5395699,-0.6642084,0.0017190874,0.34358034
0.518,0.101998866,1.3523469,-0.4641727,-0.66208166,-0.013559639,0.31613258
0.52,-0.09401536,1.3423402,-0.3751672,-0.65519685,-0.025530934,0.29168326
0.522,-0.26493248,1.3147478,-0.27468792,-0.6440054,-0.034823686,0.26990435
0.524,-0.40963626,1.2706186,-0.16277681,-0.6291259,-0.042439073,0.2502794
0.526,-0.5271319,1.2100614,-0.039561942,-0.61129177,-0.04965493,0.2321913
0.528,-0.6164394,1.1336064,0.093441024,-0.59128404,-0.057831496,0.2151184
0.53,-0.6775057,1.0422271,0.23464319,-0.56987834,-0.068286896,0.19871446
0.532,-0.7107336,0.9373844,0.38230908,-0.54779136,-0.082095325,0.18289155
0.534,-0.71744627,0.8208163,0.5350351,-0.52561593,-0.09992513,0.16790521
0.536,-0.6997669,0.69470537,0.6914055,-0.503793,-0.12194884,0.15425868
0.538,-0.6588858,0.56085235,0.850465,-0.4826676,-0.14789575,0.14258055
0.54,-0.5976612,0.4216166,1.0113583,-0.46251756,-0.17699802,0.13353138
0.542,-0.5193504,0.27972054,1.1730164,-0.4435546,-0.2080268,0.12770452
0.544,-0.42684448,0.13743563,1.3342237,-0.42592415,-0.23945893,0.12555492
0.546,-0.32312152,-0.0030683205,1.4934078,-0.40976337,-0.26978597,0.12732515
0.548,-0.21166167,-0.13969523,1.649025,-0.39534953,-0.2979418,0.13297656
0.55,-0.09542535,-0.27058202,1.7998072,-0.38289052,-0.32290536,0.14220081
0.552,0.022621274,-0.3936457,1.9447471,-0.37248152,-0.34387904,0.15465474
0.554,0.13954689,-0.5069701,2.082635,-0.36429343,-0.3607173,0.16982737
0.556,0.25275692,-0.60896045,2.2125564,-0.35852677,-0.37353718,0.18702254
0.558,0.35981783,-0.69844806,2.3338969,-0.35529286,-0.3824994,0.20554884
0.56,0.45892304,-0.77466094,2.44666,-0.3546616,-0.38803604,0.22466405
0.562,0.5485786,-0.8367235,2.55041,-0.35666153,-0.39074534,0.24372561
0.564,0.62795985,-0.8842033,2.6446357,-0.36115873,-0.3910136,0.26224548
0.566,0.6964526,-0.916903,2.7291682,-0.36784205,-0.38894433,0.27986032
0.568,0.7537724,-0.93493474,2.8040528,-0.3762257,-0.38437903,0.29635522
0.57,0.80003023,-0.93854,2.8694243,-0.3857194,-0.37688485,0.31161976
0.572,0.8359356,-0.928637,2.9260895,-0.39565593,-0.36575717,0.32562286
0.574,0.86148626,-0.905402,2.9741776,-0.40535372,-0.35014942,0.33840644
0.576,0.87730247,-0.87044764,3.014867,-0.41418326,-0.32920712,0.3501191
0.578,0.88410145,-0.8252324,3.048258,-0.42161053,-0.30218506,0.36099035
0.58,0.88272834,-0.7710481,3.0745258,-0.42722756,-0.2685582,0.3713141
0.582,0.8738073,-0.7089697,3.0962827,-0.43078756,-0.22814278,0.38137856
0.584,0.8570292,-0.6393093,3.1150382,-0.43220326,-0.18113601,0.39145017
0.586,0.831666,-0.56236374,3.130086,-0.4315419,-0.12809002,0.40179348
0.588,0.7977082,-0.4791971,3.142417,-0.42897418,-0.06988864,0.41261306
0.59,0.75498575,-0.3912723,3.1537812,-0.42474565,-0.007635966,0.42401752
0.592,0.703403,-0.2997948,3.1651547,-0.4191312,0.057465613,0.43600884
0.594,0.641967,-0.20538011,3.177264,-0.41243458,0.12412426,0.4484451
0.596,0.5703241,-0.108688414,3.1908925,-0.40500858,0.19109967,0.46109903
0.598,0.48746192,-0.010133207,3.2067401,-0.39722195,0.25733215,0.47370067
0.6,0.3925246,0.08978972,3.225262,-0.38941902,0.32200447,0.48600566
0.602,0.28491497,0.19055668,3.2467427,-0.3819388,0.38448697,0.49778304
0.604,0.16431952,0.29201803,3.2715735,-0.37513736,0.44424644,0.5088086
0.606,0.030094445,0.3941552,3.2999585,-0.369359,0.50103366,0.51891655
0.608,-0.11781949,0.49674433,3.3318827,-0.36482322,0.5548492,0.5281022
0.61,-0.27880546,0.59917486,3.3677735,-0.36158246,0.60571194,0.5364762
0.612,-0.45272347,0.7008376,3.407884,-0.3595645,0.65380424,0.5440836
0.614,-0.6388476,0.8012278,3.4518461,-0.35865217,0.6995877,0.55091226
0.616,-0.83527255,0.8994225,3.4998853,-0.35870785,0.7435746,0.55689776
0.618,-1.0408971,0.9948051,3.551575,-0.35956132,0.78623384,0.5619225
0.62,-1.2533224,1.0869207,3.6060407,-0.3610056,0.82797396,0.56581044
0.622,-1.4700459,1.1751641,3.6622984,-0.3628279,0.8690307,0.56832224
0.624,-1.6871768,1.2583965,3.7194867,-0.3647826,0.9095234,0.5691901
0.626,-1.9011487,1.3354155,3.7769477,-0.3666565,0.9494261,0.568113
0.628,-2.109943,1.4059639,3.83276,-0.3682859,0.9886422,0.5647226
0.63,-2.3078005,1.4680179,3.8858747,-0.3695489,1.0270184,0.5586176
0.632,-2.490367,1.5193586,3.9357579,-0.37037793,1.0643704,0.54946053
0.634,-2.653643,1.5586226,3.9802935,-0.370753,1.100544,0.53700596
0.636,-2.7940693,1.5857153,4.017833,-0.3706768,1.1354806,0.5211
0.638,-2.9086146,1.6002288,4.047704,-0.37019187,1.1692399,0.50172496
0.64,-2.99421,1.601696,4.0691595,-0.36933994,1.2019979,0.4789952
0.642,-3.0481238,1.5896175,4.0813637,-0.36819762,1.2339598,0.45321724
0.644,-3.0677817,1.563893,4.0833507,-0.366807,1.265315,0.424856
0.646,-3.0510259,1.5243359,4.074307,-0.3651931,1.2961941,0.39450642
0.648,-2.9973867,1.4714668,4.0530434,-0.3633484,1.326643,0.36290687
0.65,-2.9058487,1.4056027,4.0186143,-0.3612406,1.3565812,0.3308341
0.652,-2.7764554,1.327564,3.9705064,-0.35886785,1.3857396,0.29910633
0.654,-2.6106472,1.2388456,3.9087117,-0.35625783,1.4137061,0.2685135
0.656,-2.4104426,1.1414173,3.833641,-0.3534664,1.4399928,0.23977953
0.658,-2.177917,1.0370018,3.7458975,-0.35057786,1.4641011,0.21356255
0.66,-1.9161998,0.9276802,3.646083,-0.34769276,1.4856056,0.19043669
0.662,-1.628858,0.81559855,3.5349581,-0.34494326,1.5042368,0.170831
0.664,-1.319854,0.70291394,3.413525,-0.34247303,1.5199385,0.15507771
0.666,-0.9933717,0.5919807,3.2827806,-0.34038404,1.5328777,0.14343321
0.668,-0.6541196,0.4851216,3.1439004,-0.33872145,1.5434009,0.13611275
0.67,-0.30698612,0.38452387,2.9981756,-0.33746853,1.5520802,0.13324481
0.672,0.043105423,0.29225308,2.8473353,-0.33656347,1.5596733,0.1348263
0.674,0.39116746,0.21034494,2.692993,-0.3359288,1.5670291,0.14067897
0.676,0.7325817,0.14079088,2.5367236,-0.3354336,1.5750744,0.1504766
0.678,1.0628196,0.08512455,2.3800805,-0.33491188,1.5846956,0.16379999
0.68,1.3778965,0.044583917,2.2243276,-0.3341422,1.5966966,0.18020362
0.682,1.6739867,0.020252824,2.0705595,-0.33286119,1.611712,0.19921732
0.684,1.9482727,0.012839556,1.9199889,-0.3308133,1.6301914,0.22036526
0.686,2.197887,0.022991657,1.7744291,-0.32776397,1.6524345,0.24314576
0.688,2.420885,0.050596952,1.6363682,-0.3235153,1.6785511,0.26707572
0.69,2.6163864,0.09471834,1.5069522,-0.3178972,1.7084074,0.29171628
0.692,2.7838755,0.15463984,1.3873045,-0.31079322,1.7416424,0.31665194
0.694,2.9207888,0.22987151,1.2793434,-0.3021509,1.7776713,0.3414731
0.696,3.0285146,0.3188355,1.1839108,-0.2920074,1.8157232,0.36575985
0.698,3.1086128,0.42003238,1.1024643,-0.2805696,1.8548436,0.38913342
0.7,3.1623292,0.5315864,1.035541,-0.26814067,1.8940152,0.41121864
0.702,3.190643,0.65141404,0.98379534,-0.25513577,1.932156,0.4316353
0.704,3.19622,0.77684665,0.94723344,-0.24202609,1.9682586,0.45003158
0.706,3.1811662,0.90590143,0.9250604,-0.22930545,2.0015244,0.46606445
0.708,3.1475809,1.0369315,0.9163599,-0.21747178,2.0314145,0.47944456
0.71,3.0961866,1.1691281,0.9219514,-0.20695108,2.0577197,0.489963
0.712,3.0285413,1.3007667,0.94445205,-0.19810331,2.0805736,0.49750686
0.714,2.9458816,1.4303334,0.98223996,-0.19117576,2.100491,0.50208014
0.716,2.8496506,1.5568492,1.0341032,-0.18626869,2.1182766,0.50381637
0.718,2.7406898,1.6794605,1.1001608,-0.18332577,2.1349206,0.5029563
0.72,2.620054,1.7975811,1.178173,-0.18218261,2.151464,0.49989882
0.722,2.4893684,1.910864,1.2643489,-0.18256944,2.1687906,0.49505126
0.724,2.3497803,2.0191348,1.3557608,-0.18418038,2.187727,0.4887863
0.726,2.2016666,2.1229925,1.4502414,-0.18668705,2.2087524,0.48156318
0.728,2.045234,2.223082,1.5465271,-0.18973196,2.23191,0.4738509
0.73,1.8795464,2.3200855,1.6434069,-0.19300032,2.2569933,0.4659053
0.732,1.7036057,2.4147332,1.7394141,-0.19627148,2.2835484,0.4578075
0.734,1.5162407,2.5077438,1.8329784,-0.19941896,2.310902,0.44953257
0.736,1.3169302,2.5998073,1.9227812,-0.20234382,2.3382044,0.44100007
0.738,1.1048052,2.6915736,2.0079193,-0.20497513,2.3645558,0.43203986
0.74,0.8798003,2.7833061,2.0877333,-0.2072956,2.3889337,0.42240363
0.742,0.6425302,2.8748412,2.1618483,-0.2093333,2.4104786,0.41179487
0.744,0.3941877,2.9656081,2.22996,-0.21106106,2.4286826,0.39992514
0.746,0.13609457,3.0550027,2.291901,-0.21253985,2.4430456,0.3865216
0.748,-0.13007653,3.1421065,2.3479753,-0.21386397,2.4532094,0.3713404
0.75,-0.4024185,3.22586,2.3988397,-0.21508723,2.4590597,0.3540886
0.752,-0.67897034,3.3051438,2.4448743,-0.21622932,2.4605696,0.33436343
0.754,-0.95536494,3.3780122,2.4866068,-0.21730351,2.457779,0.31171086
0.756,-1.2265021,3.4425406,2.5294628,-0.21828657,2.4509287,0.28560814
0.758,-1.4919392,3.498329,2.5774055,-0.21912026,2.4404414,0.2554768
0.76,-1.7497047,3.5445275,2.6296475,-0.21966267,2.4269333,0.2207101
0.762,-1.9923009,3.578505,2.6848464,-0.21967638,2.411096,0.18081588
0.764,-2.2159932,3.5990953,2.743,-0.2188847,2.3935628,0.1355012
0.766,-2.4182148,3.605312,2.80602,-0.2170124,2.3747692,0.08475599
0.768,-2.5956948,3.5958407,2.8773828,-0.21392101,2.3548436,0.028861105
0.77,-2.7448378,3.569986,2.960055,-0.20969737,2.3336234,-0.031609505
0.772,-2.8631372,3.5280123,3.0542855,-0.20468998,2.3106568,-0.09582752
0.774,-2.9487255,3.470659,3.1578858,-0.19948,2.2853367,-0.16283277
0.776,-3.0003774,3.3987503,3.2686248,-0.19485569,2.2570786,-0.2316035
0.778,-3.0174792,3.313123,3.385845,-0.19170827,2.2253332,-0.30116734
0.78,-2.9997628,3.2149858,3.5100737,-0.1908896,2.1900277,-0.3707746
0.782,-2.9479568,3.1060102,3.6410937,-0.19302708,2.1516771,-0.43984205
0.784,-2.8631296,2.9881048,3.7776816,-0.1984449,2.1110263,-0.5077981
0.786,-2.746894,2.86323,3.9176579,-0.20707881,2.0693495,-0.57417583
0.788,-2.6013606,2.7337334,4.058336,-0.21850228,2.0285888,-0.63875735
0.79,-2.4293137,2.601965,4.1975493,-0.2319198,1.990797,-0.7013085
0.792,-2.2335258,2.4701977,4.333193,-0.24617049,1.9577768,-0.7613152
0.794,-2.0172012,2.34061,4.463294,-0.25999334,1.931131,-0.8181308
0.796,-1.7834691,2.2152116,4.5857697,-0.2722993,1.9118984,-0.87126076
0.798,-1.535686,2.0961528,4.6981316,-0.28234193,1.9005845,-0.9202785
0.8,-1.2774843,1.9854914,4.798964,-0.28956872,1.8976207,-0.96475804
0.802,-1.0123885,1.8846072,4.8866715,-0.29366386,1.9031247,-1.004453
0.804,-0.74118745,1.7941418,4.959362,-0.29457572,1.9167651,-1.0393692
0.806,-0.4686352,1.7156821,5.0168495,-0.29242402,1.9379137,-1.0696999
0.808,-0.19808173,1.6498897,5.0590606,-0.28743297,1.9656855,-1.0957894
0.81,0.06835747,1.5971944,5.086703,-0.2798814,1.9990637,-1.1180675
0.812,0.32867658,1.5579166,5.100463,-0.27007344,2.0369554,-1.1369838
0.814,0.58054173,1.5318426,5.101308,-0.25833136,2.0782757,-1.152924
0.816,0.8219216,1.5181462,5.0909705,-0.24498284,2.1220398,-1.1662061
0.818,1.0520191,1.5156441,5.0713673,-0.23033443,2.1673667,-1.1770097
0.82,1.2710161,1.5226622,5.0422993,-0.21469256,2.2135026,-1.1853874
0.822,1.4781904,1.5385144,5.0024166,-0.1983526,2.2598314,-1.1912773
0.824,1.6730185,1.5619676,4.9554796,-0.18158767,2.305878,-1.1945451
0.826,1.854923,1.5913475,4.9034195,-0.16465887,2.3513465,-1.1950738
0.828,2.0243464,1.6249881,4.8464212,-0.14779884,2.3960462,-1.1927912
0.83,2.1813958,1.6612223,4.7865896,-0.13118452,2.439914,-1.1876981
0.832,2.3259463,1.6982958,4.7269154,-0.11493212,2.4829948,-1.1799436
0.834,2.4585497,1.7342703,4.668806,-0.09913248,2.5253925,-1.1698468
0.836,2.5802097,1.7670029,4.6122627,-0.08385879,2.5672545,-1.1578062
0.838,2.6924326,1.794572,4.556886,-0.069129765,2.6088822,-1.1443157
0.84,2.7969894,1.8156588,4.50229,-0.054917216,2.6504455,-1.1299182
0.842,2.8953562,1.8291724,4.448098,-0.041226447,2.6918812,-1.1150806
0.844,2.9890394,1.834366,4.3942266,-0.028169155,2.7332428,-1.1003308
0.846,3.0789456,1.830959,4.34027,-0.015920639,2.7745495,-1.0862691
0.848,3.166068,1.8189571,4.285853,-0.0045706034,2.8155684,-1.0733213
0.85,3.2508154,1.7989099,4.2303853,0.0058962107,2.8559093,-1.0616183
0.852,3.332939,1.7718515,4.1731195,0.015530884,2.8949926,-1.0512631
0.854,3.4117217,1.7392308,4.113414,0.024326146,2.9320798,-1.0424006
0.856,3.4867127,1.7025558,4.0511484,0.032233536,2.9665208,-1.0350201
0.858,3.5571284,1.6635628,3.986388,0.039250374,2.997847,-1.0289223
0.86,3.6223476,1.6240822,3.9193127,0.045446455,3.0257916,-1.0238907
0.862,3.6815298,1.5862024,3.850447,0.05097437,3.0502048,-1.0197572
0.864,3.7319643,1.5525343,3.7798219,0.056055307,3.0710125,-1.0164093
0.866,3.771114,1.5257193,3.7037983,0.060928643,3.0882251,-1.0137489
0.868,3.8010302,1.5067827,3.6222904,0.065844774,3.1019354,-1.0117478
0.87,3.8211715,1.4973298,3.5397508,0.07098669,3.1123126,-1.0104687
0.872,3.8262556,1.5005493,3.4593873,0.07643747,3.1195545,-1.0100577
0.874,3.8159125,1.517612,3.3818526,0.0822404,3.1238456,-1.010716
0.876,3.7902439,1.5492476,3.3059876,0.088389814,3.125312,-1.0126246
0.878,3.7485352,1.5962906,3.2297192,0.09484273,3.1240299,-1.0159569
0.88,3.6896358,1.6587123,3.1523736,0.10155785,3.1200972,-1.0208058
0.882,3.613602,1.7353218,3.0756972,0.108514845,3.1136982,-1.0271785
0.884,3.520886,1.8246571,3.0026126,0.115736604,3.1050994,-1.0349655
0.886,3.412362,1.9251586,2.9346104,0.123325765,3.0946505,-1.0439417
0.888,3.2893066,2.0350962,2.8709397,0.13145101,3.082771,-1.0537689
0.89,3.152957,2.1522706,2.809628,0.14029443,3.0698597,-1.0640845
0.892,3.0051174,2.2742944,2.7495708,0.15001982,3.0562146,-1.0745299
0.894,2.847794,2.3984628,2.690727,0.16068578,3.041982,-1.0848038
0.896,2.6829576,2.522382,2.6335711,0.17219734,3.0270305,-1.0947123
0.898,2.512996,2.6431541,2.5783114,0.1842637,3.010969,-1.1042037
0.9,2.3406029,2.75818,2.5243554,0.19642466,2.9932432,-1.1133577
0.902,2.1683123,2.8651493,2.4707437,0.20805585,2.9730794,-1.1223525
0.904,1.9987226,2.961905,2.4166977,0.21839577,2.9495373,-1.1314807
0.906,1.8345573,3.0463033,2.362127,0.22663653,2.9217248,-1.1410704
0.908,1.6780248,3.1167283,2.3070908,0.23201194,2.8888867,-1.1514244
0.91,1.5311741,3.1720762,2.2518415,0.23383951,2.8504539,-1.1628523
0.912,1.3960814,3.2115993,2.1964755,0.23159632,2.8061774,-1.1756172
0.914,1.2745446,3.2347898,2.141075,0.22497761,2.7561321,-1.1899122
0.916,1.1680272,3.241542,2.086106,0.21388826,2.700727,-1.2058449
0.918,1.0778272,3.2321305,2.0316362,0.19847009,2.6406631,-1.2234542
0.92,1.004483,3.207096,1.9780787,0.17909601,2.5768917,-1.2427461
0.922,0.94882905,3.167203,1.9260743,0.1562779,2.510491,-1.2637148
0.924,0.910962,3.114008,1.8764102,0.13067362,2.4425752,-1.2863673
0.926,0.8913678,3.049034,1.8297751,0.10304159,2.3742182,-1.3107303
0.928,0.8898426,2.9736674,1.7865837,0.074147135,2.3063762,-1.3368121
0.93,0.9058989,2.889516,1.7479684,0.044662893,2.2397213,-1.364619
0.932,0.9387884,2.7981224,1.7151889,0.015145093,2.1746025,-1.3941149
0.934,0.9874648,2.7012393,1.6887126,-0.013995841,2.1110978,-1.4252377
0.936,1.0511934,2.6005425,1.6695378,-0.042483047,2.0491033,-1.4578199
0.938,1.1283696,2.497766,1.6587236,-0.07014567,1.9883941,-1.4915915
0.94,1.2177464,2.3943923,1.6568328,-0.09691509,1.9286718,-1.5262564
0.942,1.3179705,2.2918646,1.6637048,-0.12277498,1.8697143,-1.561475
0.944,1.4275361,2.1914876,1.6791921,-0.1477295,1.8114763,-1.5968789
0.946,1.5447832,2.094634,1.7032952,-0.17176622,1.7541567,-1.632058
0.948,1.6679401,2.0024996,1.7357241,-0.19479018,1.6982523,-1.6665801
0.95,1.795245,1.9158746,1.776674,-0.21657367,1.6445634,-1.6999984
0.952,1.9248586,1.8355602,1.8263758,-0.23676589,1.5941021,-1.7318301
0.954,2.0546286,1.7623637,1.8847548,-0.25495055,1.5479589,-1.7615744
0.956,2.1823387,1.6968381,1.9517379,-0.27064762,1.5073129,-1.7887307
0.958,2.3057516,1.6395731,2.0269384,-0.28333813,1.4732751,-1.8127761
0.96,2.4228282,1.5908648,2.1099973,-0.29251635,1.4467213,-1.8331909
0.962,2.5317516,1.5509526,2.2001302,-0.297687,1.4282175,-1.8494325
0.964,2.63113,1.5200001,2.2962291,-0.29840982,1.4179828,-1.8609877
0.966,2.719378,1.4981428,2.3969688,-0.29437652,1.4158046,-1.8673934
0.968,2.7952547,1.4854537,2.5009599,-0.28545338,1.4210403,-1.8683019
0.97,2.857524,1.4816637,2.606916,-0.27172947,1.4326458,-1.863542
0.972,2.905388,1.4863409,2.713686,-0.25353077,1.449278,-1.8531525
0.974,2.9384515,1.4990742,2.8205273,-0.23144054,1.4694655,-1.8374622
0.976,2.9564862,1.5192115,2.9267163,-0.20621273,1.4917772,-1.8170519
0.978,2.9597054,1.5459945,3.0311108,-0.17873892,1.514911,-1.7927287
0.98,2.948872,1.5785277,3.1327002,-0.14998166,1.5378225,-1.7654853
0.982,2.9250164,1.6155922,3.2308586,-0.1208874,1.5597888,-1.7364486
0.984,2.8893561,1.6560377,3.324848,-0.092264995,1.5804784,-1.7067783
0.986,2.8437767,1.6987193,3.413633,-0.06477525,1.5998851,-1.6775707
0.988,2.7903185,1.7424407,3.49641,-0.03890267,1.6181594,-1.6498275
0.99,2.7313805,1.7860138,3.5726447,-0.014968533,1.6355262,-1.6244363
0.992,2.669601,1.8282692,3.6420245,0.0068687275,1.6522106,-1.6020879
0.994,2.607864,1.8679878,3.7041726,0.026557662,1.6683484,-1.5832605
0.996,2.549295,1.9039427,3.7582488,0.044130746,1.6838901,-1.5682749
0.998,2.4970205,1.9349384,3.803313,0.0596599,1.6986455,-1.5573323
1,2.454174,1.9599144,3.8385777,0.07323046,1.7123184,-1.5505197
1.002,2.4236107,1.9777603,3.8636746,0.08489366,1.7245586,-1.5478073
1.004,2.4080443,1.9878523,3.8783998,0.094690196,1.7350544,-1.5490606
1.006,2.4099255,1.9895583,3.8827872,0.10264472,1.7435641,-1.554086
1.008,2.4313228,1.9828076,3.8768477,0.1087971,1.7499466,-1.5625921
1.01,2.4739618,1.9675629,3.8603735,0.113216154,1.7541522,-1.5741607
1.012,2.5388546,1.9439807,3.8330863,0.11598387,1.7562222,-1.5883259
1.014,2.6265988,1.9126598,3.7945352,0.11718579,1.7562431,-1.604621
1.016,2.736906,1.8744183,3.7447224,0.116882965,1.7543321,-1.6226469
1.018,2.869604,1.8299463,3.6836925,0.11514445,1.7506263,-1.6420082
1.02,3.0236094,1.7802825,3.6118083,0.11208661,1.7453235,-1.6623589
1.022,3.1970205,1.7266331,3.5298567,0.10786405,1.7386881,-1.6833785
1.024,3.387217,1.6707982,3.4385529,0.10267099,1.7310752,-1.7047552
1.026,3.5913358,1.6144923,3.3384833,0.09673047,1.7229283,-1.7261593
1.028,3.8056533,1.5594715,3.2308283,0.090301305,1.7147596,-1.7472199
1.03,4.0264473,1.5073478,3.1168568,0.08364881,1.7071209,-1.7675287
1.032,4.2497187,1.4595749,2.9977512,0.077029094,1.7005818,-1.7866273
1.034,4.471037,1.4175409,2.8745856,0.07070231,1.6956297,-1.8040212
1.036,4.6859345,1.3827589,2.7484798,0.06492345,1.692631,-1.8191911
1.038,4.8899074,1.3565465,2.621068,0.059924394,1.6917982,-1.8316288
1.04,5.07879,1.3399931,2.4937553,0.055911202,1.6931612,-1.8408891
1.042,5.248757,1.3339363,2.3679624,0.05305863,1.6965607,-1.8466119
1.044,5.396515,1.3389051,2.2448754,0.051516607,1.7016795,-1.8485479
1.046,5.5189543,1.3550562,2.125815,0.051382925,1.7080985,-1.8466016
1.048,5.6138215,1.3820951,2.0121684,0.052755713,1.7154073,-1.8408082
1.05,5.679274,1.4194294,1.9055343,0.05568006,1.7232139,-1.8313397
1.052,5.714019,1.4661872,1.8071116,0.060174935,1.7312186,-1.8184791
1.054,5.717773,1.5212517,1.7179404,0.066237986,1.7392619,-1.802634
1.056,5.690629,1.5833116,1.6386781,0.07385717,1.7473348,-1.7842994
1.058,5.633254,1.6508701,1.5699352,0.08298067,1.755534,-1.7640128
1.06,5.5469594,1.7224488,1.5119624,0.093532085,1.7640543,-1.742323
1.062,5.4334984,1.7964705,1.4647815,0.10539149,1.7731155,-1.7198033
1.064,5.2953186,1.8713126,1.4281437,0.11839461,1.7828993,-1.6970329
1.066,5.135242,1.9454721,1.4018375,0.13235624,1.7935226,-1.6745253
1.068,4.9561753,2.017536,1.3854477,0.14706822,1.8049934,-1.6527612
1.07,4.761688,2.086369,1.3783158,0.16232197,1.8172133,-1.63216
1.072,4.555294,2.1509585,1.3796203,0.17789043,1.8299648,-1.613095
1.074,4.3405943,2.210338,1.3882966,0.19353588,1.8429326,-1.5958673
1.076,4.121311,2.2638106,1.4031881,0.20904288,1.8557245,-1.5807287
1.078,3.9008234,2.3109424,1.4230615,0.22422676,1.8678898,-1.5678985
1.08,3.6825423,2.3516564,1.446578,0.23893487,1.8789599,-1.5576055
1.082,3.469671,2.386044,1.4722507,0.25306782,1.8884732,-1.5500467
1.084,3.2652485,2.4142814,1.4983501,0.26655278,1.895979,-1.5454164
1.086,3.072329,2.4368587,1.5232086,0.27939633,1.9010488,-1.543892
1.088,2.893576,2.4542286,1.5451391,0.29166153,1.9033033,-1.5456026
1.09,2.7313428,2.466785,1.5624995,0.30347767,1.9024104,-1.5506475
1.092,2.5882742,2.4747188,1.5738425,0.31504267,1.8981401,-1.559049
1.094,2.4661741,2.4784577,1.5780742,0.326637,1.8903517,-1.5707285
1.096,2.366665,2.4784107,1.5744858,0.3385873,1.8790393,-1.5855129
1.098,2.2908995,2.4749124,1.5626137,0.35122767,1.8643196,-1.6031655
1.1,2.2397447,2.4681802,1.5414805,0.36489552,1.8464066,-1.6233846
1.102,2.2138484,2.4585457,1.5104833,0.37988326,1.8255434,-1.6458111
1.104,2.2134545,2.4463131,1.4690448,0.39644304,1.8020341,-1.6700319
1.106,2.2382677,2.4317636,1.4171005,0.41473675,1.7761974,-1.6955953
1.108,2.2876866,2.4152396,1.3543961,0.43482655,1.748372,-1.7220175
1.11,2.360671,2.3970046,1.2812155,0.45671192,1.7189239,-1.7487943
1.112,2.455918,2.3774343,1.1976986,0.48032087,1.6882528,-1.7754526
1.114,2.5718124,2.3569088,1.1041732,0.50553095,1.656759,-1.8015178
1.116,2.7067935,2.3358874,1.0011314,0.5321997,1.6248511,-1.8265489
1.118,2.8587246,2.3148978,0.88939023,0.56012976,1.5929191,-1.8501422
1.12,3.0253816,2.2945268,0.7700706,0.5890973,1.5613291,-1.8719499
1.122,3.2045484,2.2755108,0.64437926,0.6188566,1.5304263,-1.8916615
1.124,3.3938296,2.2586966,0.5136944,0.6491738,1.5004798,-1.9090223
1.126,3.5912285,2.244803,0.3789786,0.6798615,1.4717034,-1.9238328
1.128,3.794107,2.2347121,0.24158788,0.7107639,1.4442301,-1.9359369
1.13,4.000532,2.2288065,0.102546334,0.7417675,1.4180943,-1.9452281
1.132,4.208501,2.2277699,-0.03716421,0.77281564,1.3932439,-1.9516408
1.134,4.416267,2.2320952,-0.17642176,0.8039084,1.3695403,-1.9551582
1.136,4.622235,2.242341,-0.3142457,0.8350746,1.3467855,-1.955843
1.138,4.8255224,2.258925,-0.44997454,0.8663961,1.3247299,-1.9537929
1.14,5.0249424,2.2825017,-0.58278453,0.89796454,1.303121,-1.949154
1.142,5.219839,2.313269,-0.71190774,0.92989236,1.2817006,-1.9421101
1.144,5.4099045,2.3512468,-0.8364152,0.962307,1.2602497,-1.9328561
1.146,5.595088,2.395938,-0.9562852,0.9953346,1.2385328,-1.9216338
1.148,5.7751894,2.4476018,-1.0713491,1.0290744,1.2163348,-1.908719
1.15,5.951031,2.5057895,-1.1817617,1.0635947,1.1934247,-1.8943961
1.152,6.1230197,2.570149,-1.287543,1.0989621,1.1695178,-1.8789456
1.154,6.291915,2.6400893,-1.3886787,1.1352087,1.1443055,-1.862642
1.156,6.4583297,2.7149854,-1.4851975,1.1723317,1.1174607,-1.845804
1.158,6.6226616,2.7943268,-1.5776037,1.2103142,1.0886151,-1.8287523
1.16,6.785534,2.8776,-1.6665034,1.2491274,1.0573845,-1.8118186
1.162,6.9473767,2.9643853,-1.7523615,1.2887005,1.0234053,-1.7952986
1.164,7.108298,3.0543628,-1.8359511,1.3289404,0.986369,-1.7794561
1.166,7.268331,3.1472144,-1.9179504,1.369746,0.94604146,-1.7644893
1.168,7.4270573,3.242865,-1.9992297,1.4109931,0.90230864,-1.7505249
1.17,7.58382,3.3413405,-2.0804029,1.4525385,0.8551867,-1.7376227
1.172,7.7378526,3.4427147,-2.1619327,1.494244,0.80482835,-1.7257657
1.174,7.887784,3.5472598,-2.2445576,1.5359484,0.7514858,-1.7148739
1.176,8.0325165,3.6554847,-2.32929,1.5775136,0.6954566,-1.704773
1.178,8.170798,3.7679214,-2.4171414,1.6188257,0.6371061,-1.6952286
1.18,8.30074,3.8853369,-2.50891,1.6598216,0.57684684,-1.6859857
1.182,8.42059,4.008493,-2.6053176,1.7005229,0.51513165,-1.6767646
1.184,8.52853,4.1383886,-2.7069168,1.7410398,0.4524473,-1.6673001
1.186,8.62295,4.2759438,-2.8145387,1.7815837,0.38928998,-1.6573626
1.188,8.702408,4.4220166,-2.9291244,1.8224676,0.32616127,-1.6467695
1.19,8.765669,4.5774527,-3.0515516,1.8641204,0.26353025,-1.6354009
1.192,8.811731,4.7429714,-3.1826468,1.9070218,0.20185107,-1.6232679
1.194,8.839882,4.919153,-3.323078,1.9517031,0.14152974,-1.6104648
1.196,8.849672,5.1064444,-3.4734468,1.9987141,0.082930565,-1.5971584
1.198,8.841236,5.305182,-3.6341863,2.048581,0.026332855,-1.5835569
1.2,8.815052,5.5157356,-3.8062701,2.101788,-0.028021634,-1.5698583
1.202,8.771726,5.7383194,-3.9907413,2.1587803,-0.07998866,-1.5562539
1.204,8.712816,5.9725056,-4.188183,2.2199173,-0.12950897,-1.5428913
1.206,8.639918,6.21798,-4.3988094,2.285449,-0.17661881,-1.5298592
1.208,8.556873,6.4739103,-4.62063,2.3555164,-0.22150153,-1.5171614
1.21,8.465172,6.7409873,-4.8526087,2.4301295,-0.26451403,-1.5047071
1.212,8.362184,7.022128,-5.0990996,2.5091796,-0.3061751,-1.4923334
1.214,8.2530575,7.3158627,-5.362427,2.5924609,-0.3471775,-1.4798503
1.216,8.141826,7.619438,-5.646065,2.679702,-0.38834244,-1.4670584
1.218,8.0309105,7.932003,-5.9474306,2.7705653,-0.430565,-1.4537681
1.22,7.9250836,8.250993,-6.261878,2.8646898,-0.47482085,-1.4398317
1.222,7.827265,8.5772085,-6.5897512,2.9617188,-0.52214175,-1.4251484
1.224,7.739112,8.911865,-6.930587,3.061325,-0.5735848,-1.4096742
1.226,7.665278,9.253373,-7.2769814,3.1632278,-0.6302556,-1.3934621
1.228,7.6090965,9.601382,-7.6372876,3.267193,-0.6932815,-1.3766769
1.23,7.5718145,9.958596,-8.020458,3.3730183,-0.76381695,-1.3596026
1.232,7.5556693,10.324227,-8.41025,3.4805093,-0.8430821,-1.3426255
1.234,7.5653496,10.692528,-8.782908,3.5894895,-0.9323196,-1.3261873
1.236,7.6103225,11.061128,-9.150036,3.6997554,-1.0328548,-1.310819
1.238,7.6893506,11.43657,-9.529671,3.8110855,-1.1460457,-1.297128
1.24,7.796233,11.822577,-9.916569,3.9232237,-1.2732713,-1.2858108
1.242,7.9357634,12.21465,-10.302832,4.035857,-1.4161563,-1.2776682
1.244,8.113816,12.606753,-10.682795,4.1487865,-1.5761743,-1.2734921
1.246,8.329979,12.997778,-11.050512,4.261726,-1.754664,-1.2739195
1.248,8.58518,13.388621,-11.398789,4.374198,-1.9530458,-1.2796295
1.25,8.881534,13.779629,-11.722434,4.4859085,-2.1721601,-1.2910978
1.252,9.220629,14.168737,-12.019726,4.5966697,-2.4124691,-1.3086901
1.254,9.603756,14.552244,-12.289705,4.706241,-2.6745636,-1.3329182
1.256,10.03044,14.927284,-12.529579,4.814419,-2.9585128,-1.3642064
1.258,10.500212,15.291302,-12.7364435,4.921239,-3.2635446,-1.4025373
1.26,11.011494,15.642786,-12.907569,5.0266767,-3.5892317,-1.4476428
1.262,11.563206,15.980405,-13.042419,5.130536,-3.9349039,-1.4992037
1.264,12.151088,16.3039,-13.142094,5.233035,-4.297278,-1.5563437
1.266,12.770575,16.612402,-13.206379,5.334936,-4.6709394,-1.6174356
1.268,13.417953,16.904282,-13.23518,5.436966,-5.051653,-1.6808354
1.27,14.087587,17.178774,-13.228363,5.5402684,-5.434094,-1.7453517
1.272,14.773015,17.436327,-13.185764,5.6461787,-5.8103814,-1.8098327
1.274,15.467176,17.677938,-13.1077385,5.7557173,-6.1720004,-1.8730326
1.276,16.162527,17.904758,-12.995303,5.870169,-6.5102863,-1.9336514
1.278,16.850887,18.118147,-12.849741,5.991227,-6.816411,-1.9904478
1.28,17.523712,18.32007,-12.672514,6.120796,-7.081546,-2.0425549
1.282,18.17209,18.513254,-12.46437,6.260635,-7.2973886,-2.0895462
1.284,18.787415,18.700739,-12.225483,6.412091,-7.4567537,-2.1311622
1.286,19.360964,18.885815,-11.955798,6.575882,-7.5539126,-2.1670907
1.288,19.884861,19.072079,-11.655251,6.752117,-7.5846953,-2.1968975
1.29,20.351707,19.263067,-11.324065,6.9403,-7.546424,-2.2199626
1.292,20.75486,19.46243,-10.962323,7.139272,-7.4379816,-2.235414
1.294,21.088688,19.673637,-10.570494,7.347282,-7.259951,-2.242231
1.296,21.348925,19.899551,-10.148755,7.5621433,-7.0142026,-2.2392135
1.298,21.532017,20.143524,-9.698905,7.7813153,-6.7040377,-2.225057
1.3,21.635056,20.408846,-9.221779,8.002308,-6.334209,-2.1985295
1.302,21.657442,20.697784,-8.719223,8.222846,-5.9107,-2.158527
1.304,21.599072,21.012436,-8.193767,8.440619,-5.4412794,-2.104559
1.306,21.461208,21.354284,-7.6485963,8.65348,-4.935099,-2.0367224
1.308,21.245932,21.724163,-7.0876164,8.859515,-4.402337,-1.9556587
1.31,20.956768,22.122358,-6.514862,9.056899,-3.8546865,-1.8628535
1.312,20.597786,22.548637,-5.935177,9.243793,-3.3050168,-1.7607291
1.314,20.173805,23.002537,-5.3541775,9.418706,-2.7658486,-1.6521482
1.316,19.690601,23.482754,-4.777376,9.580477,-2.249647,-1.5401009
1.318,19.152872,23.9878,-4.2113447,9.727861,-1.7695353,-1.4279293
1.32,18.56857,24.51438,-3.6602912,9.859838,-1.3369607,-1.3190091
1.322,17.948898,25.05742,-3.1234138,9.976217,-0.9588567,-1.2159235
1.324,17.297285,25.616344,-2.602821,10.077119,-0.64072526,-1.1204752
1.326,16.61996,26.190468,-2.09976,10.16316,-0.38700247,-1.0342116
1.328,15.9253235,26.776304,-1.6199086,10.235608,-0.19908446,-0.9584267
1.33,15.219378,27.3717,-1.1683726,10.295537,-0.07580173,-0.8941102
1.332,14.5102215,27.970802,-0.7426305,10.343823,-0.014280975,-0.8417018
1.334,13.806675,28.568422,-0.34043193,10.381343,-0.010581493,-0.80091983
1.336,13.11382,29.162611,0.036156178,10.409125,-0.059761465,-0.7710401
1.338,12.438488,29.749924,0.40081882,10.428323,-0.15608877,-0.7512429
1.34,11.788489,30.325014,0.76385784,10.440063,-0.29346895,-0.7407454
1.342,11.169481,30.88659,1.1132016,10.445282,-0.465886,-0.73878336
1.344,10.58433,31.43693,1.439126,10.444761,-0.6676634,-0.74462867
1.346,10.032458,31.973614,1.7676892,10.43921,-0.8935228,-0.75762653
1.348,9.523659,32.4873,2.1214452,10.429311,-1.1385288,-0.77718467
1.35,9.067939,32.974796,2.495635,10.415726,-1.3984013,-0.8029384
1.352,8.662427,33.44047,2.8858986,10.399033,-1.6695818,-0.83481467
1.354,8.304123,33.88807,3.2924118,10.379712,-1.9489609,-0.8729855
1.356,7.9956403,34.315304,3.7160273,10.358135,-2.2338958,-0.91772175
1.358,7.736545,34.718777,4.157382,10.334537,-2.5221672,-0.96935284
1.36,7.5245833,35.097008,4.6190557,10.309106,-2.8118486,-1.028266
1.362,7.3571925,35.451347,5.105489,10.282,-3.1012037,-1.094858
1.364,7.231457,35.783962,5.619507,10.253321,-3.3886337,-1.1694974
1.366,7.145413,36.095703,6.1605196,10.223128,-3.6725488,-1.2524731
1.368,7.095993,36.386196,6.7262297,10.191436,-3.9513583,-1.3439744
1.37,7.0796003,36.655094,7.3142557,10.158252,-4.223489,-1.4440651
1.372,7.0918713,36.902107,7.9230623,10.1235485,-4.487335,-1.5526896
1.374,7.130443,37.126587,8.551435,10.087314,-4.7412415,-1.6696906
1.376,7.1916637,37.329178,9.195674,10.049526,-4.9835196,-1.7947841
1.378,7.270688,37.51124,9.85209,10.01013,-5.212516,-1.9275703
1.38,7.3637867,37.6734,10.516692,9.969072,-5.4266825,-2.0676465
1.382,7.467673,37.815502,11.185452,9.926265,-5.62445,-2.214557
1.384,7.578999,37.937737,11.855104,9.881601,-5.804492,-2.3677118
1.386,7.694785,38.04052,12.522773,9.83499,-5.9657717,-2.5264778
1.388,7.8128934,38.12441,13.1862955,9.786415,-6.1074123,-2.6901636
1.39,7.9313984,38.189705,13.843343,9.735896,-6.2288547,-2.8580306
1.392,8.049123,38.236504,14.4913435,9.683491,-6.329855,-3.0292664
1.394,8.165361,38.264954,15.128047,9.6293335,-6.4105186,-3.2030191
1.396,8.279877,38.27544,15.751494,9.573593,-6.471287,-3.3783867
1.398,8.392449,38.26839,16.36036,9.516426,-6.5129266,-3.5544548
1.4,8.503577,38.24426,16.953548,9.457987,-6.5365496,-3.73033
1.402,8.614109,38.20376,17.530228,9.398397,-6.5435953,-3.9051774
1.404,8.724856,38.147453,18.08968,9.337707,-6.5357924,-4.078237
1.406,8.836643,38.076576,18.630795,9.275894,-6.5150924,-4.2488575
1.408,8.95121,37.99138,19.153826,9.212866,-6.48364,-4.416457
1.41,9.070523,37.891975,19.65738,9.148413,-6.443675,-4.580593
1.412,9.195516,37.779324,20.141073,9.082277,-6.397539,-4.740926
1.414,9.327917,37.65399,20.604477,9.014099,-6.347574,-4.8972282
1.416,9.469242,37.516575,21.046984,8.943447,-6.296079,-5.049384
1.418,9.621,37.36782,21.468319,8.869851,-6.245261,-5.1973686
1.42,9.784553,37.20821,21.867903,8.792811,-6.1972036,-5.3412313
1.422,9.961314,37.037994,22.245613,8.711817,-6.1537943,-5.4810677
1.424,10.1525755,36.857235,22.601206,8.626376,-6.116687,-5.617036
1.426,10.359241,36.666046,22.934267,8.536028,-6.087284,-5.749345
1.428,10.582273,36.464287,23.244116,8.44031,-6.0667205,-5.878203
1.43,10.82251,36.2518,23.530378,8.3387985,-6.0558443,-6.003846
1.432,11.080572,36.028595,23.792652,8.231123,-6.0552416,-6.1265063
1.434,11.356974,35.794205,24.03099,8.116968,-6.065219,-6.2463975
1.436,11.652373,35.548065,24.245699,7.9960947,-6.0858316,-6.3636575
1.438,11.96723,35.28954,24.436913,7.868316,-6.116898,-6.4783983
1.44,12.302388,35.017597,24.605297,7.733492,-6.15798,-6.590726
1.442,12.6585,34.7314,24.751534,7.591561,-6.2083983,-6.7007294
1.444,13.036129,34.42983,24.876482,7.4424987,-6.2672596,-6.808493
1.446,13.435773,34.111576,24.981312,7.286359,-6.3334923,-6.9141207
1.448,13.857778,33.77533,25.067017,7.1232166,-6.40582,-7.0176744
1.45,14.302317,33.419647,25.134705,6.953249,-6.4828014,-7.119212
1.452,14.76965,33.04303,25.185574,6.776721,-6.5628724,-7.218748
1.454,15.259427,32.644028,25.220621,6.5939627,-6.644352,-7.3162355
1.456,15.771176,32.22114,25.241093,6.4053745,-6.7254767,-7.4115562
1.458,16.304295,31.772993,25.248117,6.211461,-6.80445,-7.504494
1.46,16.857853,31.298212,25.242865,6.012789,-6.879481,-7.5947366
1.462,17.430613,30.795687,25.226582,5.810006,-6.9488235,-7.681913
1.464,18.021332,30.263916,25.200294,5.6038175,-7.0107784,-7.7655497
1.466,18.628408,29.701982,25.164772,5.394939,-7.0637527,-7.845127
1.468,19.249922,29.109116,25.12025,5.1841617,-7.106279,-7.9200916
1.47,19.883663,28.484566,25.066916,4.9722853,-7.137014,-7.989868
1.472,20.526888,27.828014,25.004732,4.760128,-7.154789,-8.053852
1.474,21.176828,27.139484,24.93353,4.5485425,-7.1585894,-8.111431
1.476,21.830132,26.418882,24.853031,4.338362,-7.1476135,-8.162017
1.478,22.483429,25.66688,24.762634,4.1304235,-7.121268,-8.205013
1.48,23.13296,24.88423,24.661655,3.925553,-7.079169,-8.239839
1.482,23.77472,24.072094,24.54894,3.724546,-7.021144,-8.26597
1.484,24.404346,23.231928,24.42312,3.528127,-6.9472218,-8.282925
1.486,25.017775,22.365488,24.282812,3.3369489,-6.857593,-8.290228
1.488,25.610447,21.47484,24.126627,3.1515713,-6.7526007,-8.287451
1.49,26.177664,20.562468,23.953129,2.9724522,-6.6326814,-8.274199
1.492,26.715153,19.631216,23.76103,2.7999783,-6.4983206,-8.25009
1.494,27.21873,18.684187,23.549255,2.6344676,-6.3500514,-8.214717
1.496,27.684353,17.724934,23.317005,2.4761782,-6.1883845,-8.167674
1.498,28.108147,16.757292,23.063375,2.3253386,-6.013793,-8.108545
1.5,28.486818,15.785276,22.787981,2.1821516,-5.826743,-8.036929
1.502,28.817375,14.813007,22.49073,2.0468392,-5.627692,-7.9524612
1.504,29.097307,13.844799,22.17183,1.9196393,-5.417082,-7.854845
1.506,29.324898,12.884958,21.831907,1.8008308,-5.195412,-7.7438755
1.508,29.49909,11.9378195,21.471697,1.690748,-4.9632134,-7.619491
1.51,29.619678,11.007923,21.092266,1.5897648,-4.721089,-7.4817886
1.512,29.687012,10.099328,20.694828,1.4982569,-4.469735,-7.331052
1.514,29.702448,9.216127,20.280704,1.4166114,-4.209951,-7.167779
1.516,29.667734,8.361856,19.85197,1.3451252,-3.9426892,-6.992659
1.518,29.58531,7.5398827,19.41072,1.284019,-3.6690097,-6.8065352
1.52,29.45813,6.753222,18.95908,1.2333906,-3.390085,-6.6104226
1.522,29.28953,6.004481,18.499142,1.1931813,-3.1072164,-6.405447
1.524,29.083149,5.295858,18.033134,1.1631755,-2.821782,-6.1928167
1.526,28.842968,4.629111,17.563442,1.1429882,-2.5351925,-5.9737935
1.528,28.572924,4.005355,17.092306,1.132061,-2.2488391,-5.749645
1.53,28.276756,3.425314,16.621975,1.1297027,-1.964081,-5.5216117
1.532,27.958462,2.8893814,16.15438,1.1351101,-1.6821963,-5.2908907
1.534,27.621376,2.3975496,15.691475,1.1473747,-1.4043732,-5.058625
1.536,27.268723,1.949256,15.235248,1.1655324,-1.1317267,-4.825868
1.538,26.903446,1.5437069,14.787399,1.1886039,-0.8652965,-4.593598
1.54,26.52798,1.1795063,14.349501,1.2156119,-0.6060395,-4.3627334
1.542,26.144245,0.8551378,13.922956,1.2456193,-0.35484737,-4.1341004
1.544,25.75367,0.5688391,13.508845,1.277749,-0.112535626,-3.9084845
1.546,25.35712,0.31874847,13.108302,1.3111904,0.120169185,-3.686598
1.548,24.95496,0.102734566,12.722482,1.345205,0.34263188,-3.469134
1.55,24.54748,-0.081272125,12.352168,1.3791586,0.5542917,-3.2567396
1.552,24.13456,-0.23536873,11.997785,1.4125261,0.7546858,-3.050051
1.554,23.715809,-0.36187553,11.65971,1.4448858,0.94347334,-2.8496692
1.556,23.29093,-0.4628849,11.338074,1.4759078,1.1203896,-2.6561816
1.558,22.85926,-0.54060745,11.032992,1.5053263,1.2852032,-2.470151
1.56,22.420185,-0.59721184,10.744385,1.5329417,1.437751,-2.292089
1.562,21.972946,-0.6346998,10.472252,1.5585887,1.5778964,-2.1224396
1.564,21.516954,-0.6552172,10.21627,1.5821425,1.7055372,-1.9616188
1.566,21.0517,-0.6605263,9.976076,1.6035299,1.8206182,-1.8099742
1.568,20.576504,-0.6525469,9.751101,1.6226767,1.9231517,-1.667796
1.57,20.09107,-0.63304806,9.54089,1.6395661,2.0132113,-1.5353377
1.572,19.595068,-0.60364246,9.344345,1.6541921,2.0909586,-1.4128081
1.574,19.088516,-0.56569386,9.160343,1.666555,2.1566284,-1.3003483
1.576,18.571363,-0.52047443,8.987808,1.6766651,2.210559,-1.1980771
1.578,18.0442,-0.4692526,8.825579,1.684553,2.2531908,-1.10606
1.58,17.507494,-0.41321945,8.672714,1.6902746,2.2850235,-1.0243378
1.582,16.962017,-0.35336304,8.528536,1.6939087,2.3066187,-0.95291597
1.584,16.408802,-0.29058838,8.392289,1.695551,2.318615,-0.89178336
1.586,15.848936,-0.22542572,8.263334,1.6953092,2.3216982,-0.8409046
1.588,15.283785,-0.15853071,8.140944,1.693328,2.3165812,-0.800227
1.59,14.714695,-0.09031916,8.024454,1.6897614,2.3039956,-0.7696919
1.592,14.143606,-0.021239758,7.9132557,1.6847702,2.28467,-0.7491996
1.594,13.572372,0.048436165,7.807008,1.6785231,2.2592986,-0.7386108
1.596,13.002838,0.1186285,7.705268,1.6711884,2.228528,-0.73774403
1.598,12.437212,0.1891985,7.607745,1.6629397,2.1929142,-0.746348
1.6,11.8779125,0.25992346,7.514345,1.6539272,2.1529014,-0.7641194
1.602,11.327244,0.330503,7.4250226,1.6442612,2.1088142,-0.7906944
1.604,10.787435,0.40065813,7.339616,1.6340159,2.0608563,-0.8256592
1.606,10.260862,0.47022724,7.257758,1.6232033,2.009068,-0.8685499
1.608,9.749893,0.5387392,7.1792364,1.6118172,1.9533312,-0.9188691
1.61,9.256688,0.6059065,7.1037865,1.5998002,1.8934065,-0.9760744
1.612,8.783493,0.67132854,7.030982,1.5870732,1.8289429,-1.0395973
1.614,8.332607,0.73451805,6.9607835,1.5735302,1.7594981,-1.1088622
1.616,7.9059753,0.7948618,6.8930626,1.5590569,1.6845436,-1.183295
1.618,7.5056295,0.851614,6.827757,1.5435172,1.6034806,-1.2623048
1.62,7.133212,0.90374947,6.765053,1.52675,1.5156751,-1.3453059
1.622,6.790633,0.95031285,6.7050185,1.5085917,1.4204991,-1.431721
1.624,6.4791436,0.9902754,6.6479044,1.4888525,1.3173816,-1.5209773
1.626,6.1999497,1.022685,6.5935583,1.467353,1.2058889,-1.6124841
1.628,5.95393,1.0464437,6.5421486,1.4439337,1.0857693,-1.7056841
1.63,5.7419124,1.0604413,6.4941607,1.4184467,0.9569892,-1.8000028
1.632,5.5641932,1.063262,6.450217,1.390762,0.8197652,-1.8948784
1.634,5.4208508,1.0535953,6.4109554,1.360781,0.67462647,-1.9897404
1.636,5.3113136,1.0303221,6.377144,1.3284414,0.5223744,-2.084018
1.638,5.2348695,0.9926653,6.349475,1.2937198,0.36408,-2.17716
1.64,5.1904345,0.9397106,6.328988,1.2566314,0.20099533,-2.2686393
1.642,5.176218,0.87078285,6.31675,1.2172232,0.034549873,-2.357942
1.644,5.1905756,0.78528,6.3138437,1.1755689,-0.13373792,-2.444578
1.646,5.231189,0.6827884,6.321478,1.131764,-0.30230796,-2.5280786
1.648,5.295047,0.56314516,6.340844,1.0859256,-0.46959263,-2.6079683
1.65,5.37931,0.4266522,6.373196,1.0381926,-0.6340489,-2.6837518
1.652,5.480638,0.2736261,6.4195585,0.9887407,-0.7941494,-2.7549129
1.654,5.5957212,0.10475397,6.480837,0.9378005,-0.9483928,-2.820883
1.656,5.720939,-0.079086065,6.5578213,0.885671,-1.0953131,-2.8810663
1.658,5.8528233,-0.27680087,6.6510296,0.83271444,-1.2334526,-2.9348593
1.66,5.9875784,-0.48716283,6.7608376,0.77936405,-1.36135,-2.9816709
1.662,6.121667,-0.7088175,6.8873935,0.726114,-1.4775507,-3.0209324
1.664,6.2515383,-0.9400244,7.0306215,0.6735176,-1.5806022,-3.0521264
1.666,6.3739147,-1.1791277,7.190239,0.62218904,-1.6690693,-3.0748036
1.668,6.485857,-1.4242008,7.365618,0.5727712,-1.741548,-3.0885618
1.67,6.58459,-1.6731796,7.5557,0.52591836,-1.7966653,-3.0930686
1.672,6.6676383,-1.9242799,7.758947,0.4822724,-1.8331133,-3.088031
1.674,6.7330775,-2.1754813,7.973707,0.44243395,-1.8496904,-3.0732372
1.676,6.7791204,-2.4250872,8.198107,0.4069823,-1.8453219,-3.0485168
1.678,6.8043604,-2.6711416,8.430104,0.37641883,-1.8191116,-3.0137422
1.68,6.807745,-2.9116747,8.667406,0.35117674,-1.7704153,-2.9688787
1.682,6.7885256,-3.144819,8.907839,0.3316115,-1.6988313,-2.9139166
1.684,6.746024,-3.368804,9.14892,0.3179766,-1.6042261,-2.8489344
1.686,6.680047,-3.5819314,9.387952,0.31043136,-1.4868091,-2.774087
1.688,6.59025,-3.782436,9.622494,0.3090273,-1.3471032,-2.6896226
1.69,6.476838,-3.9687197,9.849708,0.3137098,-1.1859574,-2.5958598
1.692,6.3400517,-4.139489,10.066983,0.32430398,-1.0045383,-2.493208
1.694,6.1800537,-4.2934523,10.272005,0.3405378,-0.8042657,-2.382138
1.696,5.9971595,-4.4293222,10.462336,0.36204535,-0.5868028,-2.2631912
1.698,5.7916784,-4.5460625,10.635812,0.38838843,-0.35401934,-2.1369796
1.7,5.56376,-4.642437,10.790615,0.4190495,-0.1079593,-2.004182
1.702,5.3133326,-4.7174044,10.925641,0.45344573,0.14920256,-1.8655459
1.704,5.04025,-4.7699347,11.039998,0.49094298,0.41520023,-1.7218632
1.706,4.7445245,-4.799211,11.13315,0.53086567,0.6876892,-1.5739849
1.708,4.425847,-4.8044615,11.204807,0.5725144,0.9642811,-1.4228196
1.71,4.0839663,-4.784844,11.254826,0.61513716,1.242588,-1.2693347
1.712,3.7181516,-4.7396216,11.283342,0.65796685,1.520227,-1.1145306
1.714,3.3280282,-4.668136,11.291032,0.70023364,1.7948507,-0.9594618
1.716,2.9132166,-4.570046,11.279005,0.7411717,2.0641875,-0.80524325
1.718,2.473249,-4.444788,11.248563,0.7800494,2.3260689,-0.65302473
1.72,2.0079017,-4.2921896,11.201319,0.81616217,2.5784779,-0.5039964
1.722,1.5167572,-4.112098,11.138995,0.8488537,2.8195562,-0.35938448
1.724,0.9995597,-3.9045808,11.062998,0.8775567,3.0476568,-0.22040737
1.726,0.45652035,-3.6695898,10.975036,0.90178764,3.2613273,-0.088268936
1.728,-0.11233571,-3.407115,10.876982,0.92116016,3.4593146,0.03587401
1.73,-0.7062711,-3.1175542,10.77059,0.93537736,3.6405377,0.15091276
1.732,-1.3249626,-2.8011963,10.657726,0.94425917,3.8041363,0.25581908
1.734,-1.9670167,-2.4586954,10.54004,0.947683,3.94943,0.34968752
1.736,-2.6310618,-2.09087,10.4191675,0.94559324,4.0759172,0.43167377
1.738,-3.3153245,-1.6985265,10.296716,0.93798447,4.183208,0.5010277
1.74,-4.0180464,-1.2827022,10.173964,0.92488945,4.2710686,0.5571055
1.742,-4.736721,-0.84430474,10.052021,0.90636873,4.3393474,0.59934765
1.744,-5.468782,-0.38458663,9.932019,0.8825166,4.388003,0.62728125
1.746,-6.21126,0.0950827,9.814772,0.8534608,4.417098,0.64052385
1.748,-6.960796,0.5930729,9.701301,0.81937265,4.4268293,0.63875026
1.75,-7.7139683,1.1077185,9.592295,0.78048027,4.4175467,0.62174433
1.752,-8.466614,1.6372738,9.48857,0.73707104,4.3898015,0.5893779
1.754,-9.21493,2.1799202,9.390925,0.6894846,4.3443456,0.5415991
1.756,-9.954826,2.7340126,9.2998705,0.63811684,4.2821336,0.47841358
1.758,-10.6819515,3.2975495,9.215826,0.5834112,4.204295,0.39987886
1.76,-11.39231,3.8684342,9.138851,0.5258163,4.112111,0.30608165
1.762,-12.081774,4.444652,9.069137,0.46578705,4.006995,0.19713742
1.764,-12.746426,5.024266,9.006657,0.40377998,3.8904157,0.073212385
1.766,-13.382436,5.605051,8.951343,0.3402139,3.7638283,-0.06548834
1.768,-13.986334,6.1849804,8.9030695,0.27546346,3.6286783,-0.21871853
1.77,-14.554825,6.7621455,8.861681,0.20984817,3.4863353,-0.3861736
1.772,-15.08502,7.3344164,8.826872,0.14363301,3.3380575,-0.5674521
1.774,-15.574376,7.8997307,8.7984915,0.077006936,3.1849468,-0.7620424
1.776,-16.021091,8.456185,8.775927,0.010096073,3.027965,-0.96932936
1.778,-16.423649,9.001841,8.75897,-0.057048082,2.8678794,-1.1886005
1.78,-16.781221,9.534771,8.747426,-0.12445593,2.7053163,-1.4190333
1.782,-17.093441,10.053528,8.740831,-0.19221497,2.5407457,-1.6597196
1.784,-17.360353,10.556452,8.738623,-0.26048556,2.3744528,-1.909708
1.786,-17.582853,11.04216,8.740005,-0.32949364,2.2065387,-2.168016
1.788,-17.761806,11.509068,8.744226,-0.39947546,2.0369527,-2.4336612
1.79,-17.898642,11.955645,8.75072,-0.47067595,1.8655025,-2.7056208
1.792,-17.995049,12.380413,8.759039,-0.5432998,1.6919234,-2.9828954
1.794,-18.05307,12.782142,8.768845,-0.61752176,1.5159057,-3.2645106
1.796,-18.074322,13.15971,8.77965,-0.693465,1.3371272,-3.5494876
1.798,-18.060997,13.511992,8.790897,-0.77118564,1.1553133,-3.8368573
1.8,-18.015076,13.838118,8.802086,-0.8506884,0.9702647,-4.125638
1.802,-17.938522,14.137183,8.812554,-0.9319369,0.7818643,-4.414857
1.804,-17.833208,14.408428,8.821677,-1.0148656,0.5900848,-4.703565
1.806,-17.700695,14.65099,8.8292675,-1.0994005,0.39499915,-4.990817
1.808,-17.542374,14.86439,8.83512,-1.1854779,0.19674301,-5.2756824
1.81,-17.359173,15.047846,8.8388195,-1.2730582,-0.004449606,-5.5572476
1.812,-17.152016,15.200928,8.839762,-1.3621378,-0.20826268,-5.834627
1.814,-16.92182,15.3233,8.837664,-1.4527264,-0.41430354,-6.1069684
1.816,-16.668602,15.414644,8.831987,-1.5448351,-0.62205076,-6.3734756
1.818,-16.392715,15.474725,8.822554,-1.6384482,-0.83080125,-6.6333933
1.82,-16.094893,15.503564,8.809638,-1.7335377,-1.0396056,-6.886016
1.822,-15.774522,15.501176,8.793472,-1.8300139,-1.2472689,-7.1306624
1.824,-15.431418,15.467785,8.774233,-1.9277318,-1.4523232,-7.366706
1.826,-15.065386,15.40381,8.752209,-2.026467,-1.6530194,-7.5935907
1.828,-14.675828,15.309981,8.727516,-2.1259036,-1.8473811,-7.810828
1.83,-14.262363,15.187006,8.700447,-2.2256567,-2.0332808,-8.018005
1.832,-13.824501,15.035931,8.671587,-2.325254,-2.208499,-8.214773
1.834,-13.361797,14.857746,8.64143,-2.4241533,-2.3708541,-8.400914
1.836,-12.874094,14.653663,8.610274,-2.521728,-2.5182493,-8.576319
1.838,-12.360795,14.425127,8.578423,-2.6172953,-2.6487353,-8.740966
1.84,-11.822177,14.174003,8.546273,-2.710112,-2.7605782,-8.894974
1.842,-11.257845,13.902039,8.514425,-2.7994323,-2.8522644,-9.038548
1.844,-10.668116,13.611125,8.483599,-2.8845072,-2.922567,-9.172018
1.846,-10.05324,13.303596,8.454273,-2.9645798,-2.9705439,-9.295792
1.848,-9.413802,12.981725,8.4267235,-3.0389528,-2.9955578,-9.4104
1.85,-8.750164,12.64798,8.401138,-3.106948,-2.9973044,-9.51646
1.852,-8.063375,12.304997,8.377615,-3.167941,-2.975818,-9.614668
1.854,-7.3544073,11.955621,8.356126,-3.2213874,-2.93152,-9.705809
1.856,-6.6244907,11.602491,8.336901,-3.2668085,-2.865128,-9.790712
1.858,-5.8751636,11.248576,8.319866,-3.303788,-2.777741,-9.870219
1.86,-5.108215,10.897002,8.305001,-3.3319983,-2.670803,-9.945243
1.862,-4.3258038,10.550864,8.292297,-3.3511832,-2.5460305,-10.016685
1.864,-3.5296595,10.213598,8.281504,-3.3611743,-2.4054093,-10.085417
1.866,-2.7217746,9.888269,8.272746,-3.3618727,-2.2511625,-10.15227
1.868,-1.9039371,9.578194,8.266114,-3.3532515,-2.0856571,-10.2180395
1.87,-1.0780668,9.28675,8.261984,-3.3353562,-1.9114265,-10.283467
1.872,-0.24601415,9.017272,8.2606325,-3.3082879,-1.7311192,-10.349291
1.874,0.59049755,8.772965,8.262654,-3.2722268,-1.5474257,-10.416214
1.876,1.4303335,8.557325,8.268521,-3.227402,-1.3630943,-10.484896
1.878,2.2723913,8.3734455,8.278883,-3.1740952,-1.1809402,-10.5559845
1.88,3.1161592,8.224403,8.294226,-3.1126482,-1.0038333,-10.630058
1.882,3.9613328,8.113079,8.315296,-3.0434387,-0.83466196,-10.707638
1.884,4.808223,8.042087,8.342605,-2.9668708,-0.676353,-10.789179
1.886,5.6575613,8.013652,8.377405,-2.8833833,-0.531837,-10.875052
1.888,6.510556,8.029602,8.420514,-2.7934303,-0.40397167,-10.965506
1.89,7.3684893,8.092004,8.473484,-2.6975384,-0.29553986,-11.060687
1.892,8.233386,8.201533,8.537944,-2.5962527,-0.20916986,-11.160649
1.894,9.107738,8.358763,8.614873,-2.490176,-0.14733028,-11.265408
1.896,9.993021,8.564166,8.705585,-2.3799946,-0.11231804,-11.374904
1.898,10.891419,8.81856,8.813784,-2.2664895,-0.10615158,-11.489031
1.9,11.807275,9.119734,8.939993,-2.1505723,-0.13063908,-11.607667
1.902,12.743763,9.467124,9.083544,-2.0332298,-0.18731022,-11.73059
1.904,13.702969,9.859064,9.246147,-1.9155692,-0.27742004,-11.857574
1.906,14.687041,10.29318,9.429556,-1.798797,-0.40188694,-11.98832
1.908,15.699962,10.765634,9.634638,-1.6841545,-0.5612793,-12.122441
1.91,16.74321,11.2732525,9.860753,-1.5729494,-0.7558098,-12.2595415
1.912,17.8179,11.814167,10.111071,-1.4664896,-0.9852276,-12.3991585
1.914,18.926573,12.3835125,10.386829,-1.3660433,-1.2488012,-12.540765
1.916,20.071312,12.977873,10.6889305,-1.2728271,-1.5454092,-12.683821
1.918,21.254513,13.592754,11.017563,-1.1879158,-1.8734994,-12.827745
1.92,22.477226,14.225052,11.3727455,-1.1122475,-2.231182,-12.971983
1.922,23.740578,14.870869,11.755577,-1.0465689,-2.6162364,-13.115894
1.924,25.045835,15.525816,12.166197,-0.99141645,-3.0261872,-13.258747
1.926,26.392014,16.186981,12.605547,-0.947083,-3.4584978,-13.399754
1.928,27.779278,16.850769,13.074186,-0.9136205,-3.9106572,-13.538162
1.93,29.206911,17.514645,13.571478,-0.8908148,-4.3798466,-13.672976
1.932,30.677965,18.171068,14.098574,-0.87829065,-4.863368,-13.803096
1.934,32.1839,18.822298,14.655619,-0.87543726,-5.3586283,-13.927393
1.936,33.723606,19.46591,15.24703,-0.88150215,-5.862977,-14.044677
1.938,35.299603,20.096848,15.869007,-0.8956251,-6.3736963,-14.1536665
1.94,36.908134,20.714615,16.52067,-0.9168868,-6.8880816,-14.252975
1.942,38.544407,21.318605,17.201412,-0.944283,-7.4035587,-14.341372
1.944,40.20553,21.90649,17.910295,-0.97674704,-7.9172854,-14.417589
1.946,41.887024,22.476446,18.64577,-1.0132585,-8.426583,-14.4803295
1.948,43.583153,23.027567,19.405872,-1.0528221,-8.92864,-14.5282135
1.95,45.289406,23.558502,20.18882,-1.0944562,-9.420689,-14.559964
1.952,47.000565,24.068289,20.99149,-1.1372471,-9.900008,-14.574383
1.954,48.712345,24.556444,21.81049,-1.1802711,-10.363905,-14.570255
1.956,50.419083,25.022308,22.642273,-1.2226162,-10.809832,-14.546553
1.958,52.1156,25.464954,23.482742,-1.2633042,-11.235357,-14.50239
1.96,53.796513,25.883196,24.328354,-1.3012714,-11.638367,-14.437019
1.962,55.457027,26.275423,25.175392,-1.3353567,-12.016811,-14.349708
1.964,57.092068,26.640314,26.020002,-1.3645396,-12.369273,-14.240144
1.966,58.69712,26.976582,26.857895,-1.3876238,-12.694748,-14.108333
1.968,60.267704,27.283121,27.685364,-1.4033818,-12.992378,-13.954054
1.97,61.800194,27.558676,28.499033,-1.4107862,-13.262178,-13.777304
1.972,63.29119,27.802181,29.295864,-1.4089003,-13.504577,-13.578372
1.974,64.737885,28.012295,30.073418,-1.3969579,-13.720325,-13.357555
1.976,66.13803,28.188656,30.82921,-1.3744154,-13.910667,-13.115222
1.978,67.48993,28.330679,31.561253,-1.3407636,-14.077158,-12.851871
1.98,68.79247,28.43789,32.267956,-1.295517,-14.22151,-12.567952
1.982,70.0452,28.510405,32.948097,-1.238215,-14.345541,-12.26384
1.984,71.248085,28.54872,33.600754,-1.1684008,-14.451578,-11.940076
1.986,72.401276,28.553804,34.225765,-1.0856123,-14.541721,-11.597225
1.988,73.50592,28.52754,34.823357,-0.98948884,-14.6180725,-11.235941
1.99,74.56295,28.47258,35.394257,-0.8796804,-14.682888,-10.856924
1.992,75.57441,28.39301,35.939713,-0.7558253,-14.738413,-10.460982
1.994,76.54263,28.293886,36.461258,-0.61753297,-14.786778,-10.049042
1.996,77.47049,28.181759,36.960526,-0.46438777,-14.829895,-9.621922
1.998,78.36133,28.064484,37.43956,-0.2958622,-14.869693,-9.18058
2,79.21932,27.950573,37.900913,-0.111234546,-14.907627,-8.726075
2.002,80.04848,27.851171,38.347584,0.09039271,-14.944954,-8.259503
2.004,80.85292,27.778725,38.78413,0.31006825,-14.982563,-7.781847
2.006,81.6385,27.747234,39.215027,0.54893875,-15.020979,-7.2940264
2.008,82.40945,27.771729,39.643837,0.8081878,-15.06045,-6.7969313
2.01,83.16897,27.870068,40.07773,1.0889027,-15.100896,-6.291221
2.012,83.92141,28.059149,40.524647,1.392,-15.14205,-5.777313
2.014,84.67357,28.357605,40.989727,1.7181871,-15.183432,-5.2554345
2.016,85.42924,28.7861,41.478172,2.0679317,-15.224671,-4.72562
2.018,86.191025,29.365944,41.99616,2.4415934,-15.265102,-4.1874228
2.02,86.96293,30.11768,42.55181,2.839077,-15.304163,-3.6402872
2.022,87.74895,31.060947,43.147614,3.260127,-15.341604,-3.0839558
2.024,88.55382,32.21619,43.78968,3.7044077,-15.376817,-2.518017
2.026,89.38097,33.602203,44.481426,4.171414,-15.409409,-1.9419713
2.028,90.20314,35.272686,45.225758,4.660532,-15.439077,-1.3554964
2.03,91.051315,37.21646,46.034782,5.170991,-15.465479,-0.75838137
2.032,91.939766,39.439434,46.91672,5.7017775,-15.488159,-0.15039968
2.034,92.86757,41.97689,47.881485,6.251786,-15.5065565,0.46871388
2.036,93.84234,44.8462,48.924118,6.819802,-15.519954,1.0995342
2.038,94.87016,48.05863,50.028645,7.404557,-15.527334,1.7430756
2.04,95.96164,51.62236,51.196632,8.004774,-15.527496,2.400992
2.042,97.10579,55.546616,52.42459,8.619114,-15.518921,3.075378
2.044,98.32778,59.82687,53.711517,9.246158,-15.499665,3.7688344
2.046,99.63831,64.467255,55.046024,9.88434,-15.467403,4.4845085
2.048,101.02871,69.47914,56.4189,10.532148,-15.4193,5.22598
2.05,102.50559,74.86374,57.815468,11.188141,-15.351668,5.997163
2.052,104.0753,80.601776,59.24942,11.850992,-15.260299,6.8023667
2.054,105.61829,86.704025,60.74227,12.519499,-15.140096,7.6463547
2.056,107.1539,93.11104,62.354992,13.192564,-14.985278,8.533739
2.058,108.77092,99.75516,64.11989,13.868854,-14.790206,9.46722
2.06,110.54317,106.60187,66.01531,14.546937,-14.547179,10.450506
2.062,112.51077,113.65827,67.94991,15.2258415,-14.246858,11.489674
2.064,114.701385,120.93193,69.83709,15.905676,-13.878286,12.590378
2.066,117.10385,128.43323,71.63144,16.58704,-13.427666,13.758249
2.068,119.69783,136.09496,73.36315,17.269024,-12.879096,14.998256
2.07,122.47049,143.77254,75.11442,17.948273,-12.216025,16.314884
2.072,125.43155,151.3909,76.90429,18.62213,-11.417819,17.711948
2.074,128.61044,158.93309,78.72192,19.28947,-10.45842,19.192661
2.076,132.02594,166.34305,80.52088,19.947283,-9.309422,20.759346
2.078,135.69376,173.54794,82.253525,20.590378,-7.9420342,22.410511
2.08,139.6326,180.48328,83.89177,21.212639,-6.3274555,24.136692
2.082,143.86133,187.08423,85.40201,21.802387,-4.439231,25.920221
2.084,148.39052,193.27008,86.760864,22.344856,-2.2497807,27.73329
2.086,153.198,198.97473,87.952515,22.820084,0.25947863,29.545816
2.088,158.28651,204.12692,88.95535,23.203613,3.0938115,31.331055
2.09,163.65161,208.67633,89.7164,23.47311,6.2401056,33.051105
2.092,169.28531,212.58417,90.17239,23.607311,9.668064,34.654217
2.094,175.19041,215.8073,90.26194,23.58723,13.337933,36.088387
2.096,181.35811,218.31744,89.92275,23.40061,17.197414,37.30359
2.098,187.7681,220.10022,89.07567,23.036716,21.184128,38.25138
2.1,194.37726,221.15489,87.641266,22.487099,25.193022,38.886536
2.102,201.12596,221.48805,85.565475,21.77034,29.135159,39.20755
2.104,207.95041,221.11784,82.79597,20.918907,32.922012,39.22956
2.106,214.789,220.0589,79.292145,19.9792,36.46358,38.96672
2.108,221.55908,218.33295,75.02922,19.009197,39.670723,38.42676
2.11,228.16762,215.97209,69.98455,18.070961,42.4626,37.610867
2.112,234.52126,213.0133,64.14181,17.223896,44.77769,36.508904
2.114,240.51572,209.49849,57.50148,16.514696,46.577393,35.093327
2.116,246.02911,205.47673,50.089745,15.970824,47.84848,33.323364
2.118,250.9408,201.00008,41.954582,15.598026,48.605576,31.157139
2.12,255.13817,196.12024,33.16564,15.379775,48.88746,28.55959
2.122,258.52225,190.89232,23.815296,15.279711,48.75007,25.51378
2.124,261.0068,185.37233,14.018417,15.24483,48.25881,22.031244
2.126,262.51614,179.61758,3.906334,15.20889,47.47844,18.156385
2.128,262.99268,173.6779,-6.3763275,15.10017,46.464367,13.966112
2.13,262.41275,167.58406,-16.679558,14.852335,45.257202,9.568203
2.132,260.7784,161.36653,-26.84726,14.407698,43.879356,5.0955677
2.134,258.1079,155.07472,-36.704895,13.720018,42.33338,0.69663906
2.136,254.44641,148.7626,-46.0692,12.761662,40.60338,-3.4791632
2.138,249.88768,142.44489,-54.753357,11.520633,38.655014,-7.292078
2.14,244.49104,136.19989,-62.596817,10.001528,36.449234,-10.626955
2.142,238.36133,130.08972,-69.460884,8.221928,33.94651,-13.399506
2.144,231.63152,124.1528,-75.227264,6.2050104,31.111359,-15.545753
2.146,224.43565,118.44317,-79.7858,3.9811363,27.913738,-17.02856
2.148,216.91481,113.015656,-83.04883,1.5860472,24.331165,-17.850794
2.15,209.20601,107.92105,-84.98015,-0.9417,20.36384,-18.047468
2.152,201.45386,103.20424,-85.57271,-3.556404,16.039795,-17.676258
2.154,193.76749,98.90154,-84.85127,-6.209911,11.4398365,-16.811216
2.156,186.25208,95.03562,-82.86449,-8.86722,6.644786,-15.56295
2.158,179.01352,91.61929,-79.68503,-11.4832325,1.7693787,-14.034244
2.16,172.13022,88.67133,-75.41497,-14.006603,-3.0387058,-12.308499
2.162,165.66241,86.22469,-70.20502,-16.383648,-7.6125317,-10.454393
2.164,159.74374,84.2762,-64.22145,-18.558125,-11.78355,-8.533487
2.166,154.33301,82.8732,-57.66526,-20.474451,-15.399294,-6.6029425
2.168,149.33815,82.03645,-50.70096,-22.08139,-18.334202,-4.7141924
2.17,144.70607,81.73413,-43.45102,-23.339153,-20.496862,-2.9100742
2.172,140.42444,81.89518,-36.00181,-24.224525,-21.838966,-1.2267895
2.174,136.48468,82.46032,-28.48187,-24.731447,-22.357847,0.30603695
2.176,132.90004,83.37784,-21.071884,-24.870419,-22.09271,1.6663427
2.178,129.6669,84.6635,-14.000862,-24.666765,-21.119684,2.840509
2.18,126.75592,86.36643,-7.491535,-24.15867,-19.54494,3.8251944
2.182,124.10994,88.43158,-1.6547432,-23.393438,-17.492643,4.626441
2.184,121.660675,90.751816,3.4494095,-22.424116,-15.092653,5.2563324
2.186,119.360596,93.27014,7.801964,-21.304636,-12.472109,5.7316103
2.188,117.172005,95.94285,11.385086,-20.087093,-9.747421,6.072149
2.19,115.05923,98.71576,14.17104,-18.820755,-7.017281,6.2979126
2.192,112.993225,101.536194,16.152557,-17.549782,-4.3595815,6.4253063
2.194,110.95605,104.36612,17.329344,-16.31193,-1.8315797,6.465417
2.196,108.95646,107.15288,17.713942,-15.137945,0.5283084,6.424329
2.198,106.97168,109.85353,17.34379,-14.051342,2.6974216,6.304114
2.2,104.98612,112.41243,16.294558,-13.069457,4.664453,6.1052017
2.202,102.985435,114.77769,14.649923,-12.20481,6.424864,5.8290453
2.204,100.94478,116.9155,12.488829,-11.466467,7.9770007,5.4795985
2.206,98.852264,118.790924,9.890769,-10.859919,9.320878,5.0643
2.208,96.703125,120.37228,6.948515,-10.38669,10.457175,4.5948033
2.21,94.50575,121.63339,3.74999,-10.045799,11.386318,4.0885983
2.212,92.26933,122.55925,0.35892797,-9.834753,12.108851,3.5672574
2.214,89.9931,123.14142,-3.1540594,-9.748005,12.625954,3.0512197
2.216,87.66673,123.38869,-6.721828,-9.776762,12.9410095,2.556234
2.218,85.292984,123.3125,-10.281524,-9.911254,13.059297,2.094313
2.22,82.87709,122.92409,-13.76157,-10.142127,12.987623,1.6766723
2.222,80.41869,122.2397,-17.089771,-10.459568,12.734484,1.3113532
2.224,77.92648,121.2782,-20.204565,-10.852394,12.310027,1.0002424
2.226,75.4223,120.05882,-23.058786,-11.308348,11.727087,0.7429498
2.228,72.92367,118.605194,-25.614044,-11.814471,11.001645,0.5398058
2.23,70.441376,116.94641,-27.839209,-12.357049,10.152155,0.39107966
2.232,67.98236,115.11095,-29.711988,-12.92142,9.198951,0.29644108
2.234,65.55422,113.12835,-31.219011,-13.492142,8.164016,0.25567818
2.236,63.172195,111.027985,-32.35178,-14.053535,7.0707335,0.2689469
2.238,60.849354,108.8477,-33.1081,-14.590382,5.9436154,0.3359983
2.24,58.58827,106.63524,-33.48925,-15.0886545,4.807572,0.45510054
2.242,56.39114,104.42844,-33.50444,-15.536083,3.687151,0.6226361
2.244,54.26878,102.242386,-33.185318,-15.922321,2.6059036,0.83359575
2.246,52.229836,100.08792,-32.570877,-16.239153,1.5857606,1.0822878
2.248,50.279575,97.98752,-31.706472,-16.48071,0.6462841,1.3623109
2.25,48.422302,95.95764,-30.626646,-16.643557,-0.19598532,1.6666307
2.252,46.660923,94.001366,-29.356468,-16.726686,-0.9280083,1.9877687
2.254,44.998478,92.1205,-27.923983,-16.731308,-1.5406423,2.3182144
2.256,43.435654,90.32256,-26.362272,-16.660757,-2.028905,2.6508937
2.258,41.970818,88.6169,-24.704813,-16.520233,-2.3920112,2.9794888
2.26,40.60313,87.01029,-22.98252,-16.316381,-2.6330502,3.2984843
2.262,39.331856,85.50989,-21.22303,-16.057056,-2.758609,3.6032677
2.264,38.155598,84.12317,-19.452557,-15.750871,-2.7781396,3.8902125
2.266,37.071114,82.85607,-17.695747,-15.406921,-2.7033265,4.156696
2.268,36.07247,81.708916,-15.975773,-15.034375,-2.547399,4.40102
2.27,35.151764,80.67444,-14.312088,-14.642136,-2.3243299,4.6223235
2.272,34.300034,79.741936,-12.718796,-14.2384615,-2.0481188,4.82044
2.274,33.509407,78.90203,-11.205673,-13.830721,-1.7321502,4.9958515
2.276,32.772247,78.14831,-9.778448,-13.425144,-1.3886127,5.1494627
2.278,32.083393,77.4756,-8.440226,-13.026759,-1.0280545,5.282493
2.28,31.435698,76.88025,-7.1934767,-12.639395,-0.6590573,5.3963075
2.282,30.823689,76.35893,-6.038183,-12.265678,-0.28801936,5.492335
2.284,30.242552,75.90802,-4.9737186,-11.907085,0.0807814,5.5719376
2.286,29.687784,75.523636,-3.9989586,-11.5641575,0.44503897,5.636384
2.288,29.154953,75.20085,-3.1126842,-11.236582,0.8041136,5.686848
2.29,28.639908,74.9341,-2.3135805,-10.92339,1.1587025,5.7244105
2.292,28.139414,74.716484,-1.6003523,-10.623213,1.5103521,5.7500253
2.294,27.650063,74.54095,-0.9721565,-10.334463,1.8610198,5.764571
2.296,27.168892,74.39989,-0.42815208,-10.05557,2.212671,5.7688327
2.298,26.693611,74.28536,0.032151222,-9.785113,2.5669768,5.7634745
2.3,26.22314,74.188835,0.40949678,-9.521992,2.9250765,5.7489963
2.302,25.756428,74.1022,0.70420647,-9.265534,3.2875068,5.7257404
2.304,25.293676,74.01745,0.91613483,-9.015459,3.6542099,5.6939015
2.306,24.834862,73.92676,1.0448356,-8.77191,4.0245337,5.653573
2.308,24.380505,73.822876,1.0896609,-8.535405,4.3974285,5.6047535
2.31,23.931187,73.69847,1.050081,-8.306773,4.7717056,5.5473576
2.312,23.487663,73.54659,0.9254433,-8.08689,5.146031,5.4814806
2.314,23.05076,73.36095,0.715868,-7.8766685,5.5190268,5.407324
2.316,22.621044,73.13603,0.42155612,-7.676979,5.889454,5.325198
2.318,22.199018,72.86729,0.043203592,-7.488593,6.2562366,5.2355504
2.32,21.785126,72.55121,-0.41846037,-7.3121157,6.6184554,5.1390257
2.322,21.379768,72.185425,-0.9620433,-7.1479797,6.9753146,5.0365086
2.324,20.983387,71.768585,-1.5854435,-6.9964476,7.326092,4.9290466
2.326,20.595955,71.30049,-2.285996,-6.857621,7.670082,4.817771
2.328,20.217789,70.78191,-3.0600672,-6.7314644,8.0066395,4.703853
2.33,19.848434,70.21441,-3.9033403,-6.6177444,8.335089,4.5884924
2.332,19.488186,69.600075,-4.810754,-6.5160594,8.654669,4.472892
2.334,19.136688,68.941986,-5.777298,-6.4258375,8.9645,4.358185
2.336,18.793552,68.24355,-6.7974043,-6.3463163,9.263586,4.245454
2.338,18.458218,67.508415,-7.864827,-6.276576,9.550742,4.135663
2.34,18.13065,66.74053,-8.973015,-6.215558,9.824607,4.0295887
2.342,17.810379,65.944145,-10.114878,-6.1621327,10.0836115,3.9277873
2.344,17.49675,65.12333,-11.282997,-6.115135,10.325945,3.8305218
2.346,17.189241,64.28212,-12.469812,-6.073429,10.549618,3.7376976
2.348,16.887348,63.42389,-13.668182,-6.035966,10.752502,3.6488214
2.35,16.590483,62.551895,-14.871256,-6.001851,10.932385,3.562962
2.352,16.298494,61.668274,-16.071848,-5.970348,11.087068,3.4787865
2.354,16.010555,60.77491,-17.263172,-5.940935,11.214464,3.3946157
2.356,15.725855,59.87303,-18.43897,-5.9132957,11.312662,3.3085108
2.358,15.44376,58.962944,-19.593227,-5.887388,11.380003,3.218347
2.36,15.163271,58.04474,-20.720697,-5.8633738,11.415157,3.1219726
2.362,14.883505,57.11766,-21.816513,-5.8416104,11.417187,3.0174098
2.364,14.603468,56.180622,-22.876259,-5.822591,11.385461,2.9029918
2.366,14.32234,55.2326,-23.896202,-5.806973,11.319701,2.7773957
2.368,14.039288,54.27243,-24.87335,-5.795395,11.21998,2.6399083
2.37,13.753307,53.299118,-25.8054,-5.7883577,11.086648,2.4904819
2.372,13.463587,52.311462,-26.69056,-5.7861624,10.920393,2.3296347
2.374,13.169435,51.308514,-27.527712,-5.788843,10.722277,2.158452
2.376,12.870095,50.289223,-28.316288,-5.7960815,10.493711,1.9784889
2.378,12.565019,49.252777,-29.056452,-5.807201,10.236422,1.7916698
2.38,12.253261,48.1986,-29.748516,-5.821188,9.952467,1.6001663
2.382,11.934461,47.126343,-30.393467,-5.836714,9.644146,1.4062433
2.384,11.60814,46.036304,-30.992699,-5.852329,9.313936,1.2120862
2.386,11.274263,44.928932,-31.547733,-5.866448,8.964483,1.0197148
2.388,10.931677,43.80533,-32.060944,-5.877508,8.598475,0.8308706
2.39,10.5814495,42.666725,-32.533867,-5.8841124,8.218524,0.64691114
2.392,10.223265,41.51461,-32.969498,-5.885055,7.8271422,0.46881962
2.394,9.856883,40.350853,-33.370003,-5.879409,7.4266167,0.29720306
2.396,9.482234,39.177475,-33.73748,-5.8665814,7.018961,0.132267
2.398,9.099339,37.9968,-34.07347,-5.846361,6.605885,-0.026144981
2.4,8.708473,36.810986,-34.37927,-5.818901,6.1887636,-0.17848682
2.402,8.309469,35.62239,-34.656055,-5.7846704,5.768613,-0.3254156
2.404,7.9033127,34.43286,-34.904373,-5.744423,5.346134,-0.46770692
2.406,7.4900784,33.244617,-35.1242,-5.6991224,4.921746,-0.6061652
2.408,7.069953,32.059994,-35.315086,-5.649879,4.4956145,-0.74158335
2.41,6.6427674,30.88192,-35.47651,-5.59783,4.067752,-0.87461495
2.412,6.209007,29.712206,-35.60734,-5.5440683,3.6380515,-1.0057433
2.414,5.7697153,28.552505,-35.70565,-5.489595,3.2063828,-1.1352568
2.416,5.3257113,27.404533,-35.7692,-5.435284,2.772606,-1.2632298
2.418,4.8779383,26.270674,-35.795876,-5.381788,2.3367271,-1.389498
2.42,4.427746,25.153217,-35.78338,-5.3294983,1.8989725,-1.5136889
2.422,3.9768796,24.054209,-35.72896,-5.278575,1.4597784,-1.6352634
2.424,3.526641,22.975492,-35.63036,-5.228952,1.0198166,-1.7535772
2.426,3.0789428,21.918877,-35.48537,-5.180335,0.5800487,-1.8679072
2.428,2.6358104,20.8863,-35.29222,-5.13222,0.1417185,-1.9774907
2.43,2.199617,19.879963,-35.049675,-5.0839276,-0.2936473,-2.08158
2.432,1.7726831,18.90194,-34.75718,-5.0346036,-0.7242446,-2.1794734
2.434,1.3574634,17.954561,-34.41497,-4.9832516,-1.1480556,-2.2705343
2.436,0.95599747,17.03999,-34.02361,-4.928769,-1.562817,-2.35426
2.438,0.5706749,16.160278,-33.584606,-4.869903,-1.9660649,-2.4303532
2.44,0.20363235,15.317636,-33.100048,-4.8053603,-2.3553395,-2.498807
2.442,-0.14271688,14.513953,-32.572132,-4.733841,-2.728198,-2.5598922
2.444,-0.46645164,13.750709,-32.00332,-4.6541595,-3.0823274,-2.6140287
2.446,-0.76588726,13.02954,-31.39656,-4.5652313,-3.4156382,-2.6618004
2.448,-1.0395052,12.351749,-30.7555,-4.466144,-3.7262845,-2.704075
2.45,-1.2861061,11.718476,-30.083733,-4.35617,-4.01274,-2.741966
2.452,-1.5048409,11.130466,-29.385353,-4.2347636,-4.273893,-2.776749
2.454,-1.6949446,10.588079,-28.664387,-4.101597,-4.509003,-2.8097925
2.456,-1.8561635,10.091358,-27.924768,-3.956592,-4.7177515,-2.8425665
2.458,-1.9884632,9.639795,-27.170074,-3.7998633,-4.900178,-2.876543
2.46,-2.0921876,9.232733,-26.403908,-3.6317263,-5.0566587,-2.9131553
2.462,-2.1679833,8.869257,-25.629784,-3.4526515,-5.1878166,-2.953691
2.464,-2.2166095,8.547934,-24.850899,-3.2632177,-5.2945166,-2.9992762
2.466,-2.2389882,8.266741,-24.069998,-3.0640304,-5.3777604,-3.0507984
2.468,-2.2363782,8.0238,-23.289875,-2.8556762,-5.4385896,-3.108866
2.47,-2.2100644,7.8166294,-22.512457,-2.6387062,-5.4780436,-3.1737995
2.472,-2.1615682,7.6427116,-21.739609,-2.4136448,-5.497134,-3.245645
2.474,-2.0925517,7.49936,-20.972641,-2.1810393,-5.496828,-3.3241854
2.476,-2.0044901,7.383263,-20.212627,-1.9414806,-5.47806,-3.4089532
2.478,-1.8987978,7.2911754,-19.46028,-1.6956596,-5.4417505,-3.4992747
2.48,-1.7771411,7.2199707,-18.716152,-1.4443899,-5.3888626,-3.594386
2.482,-1.6409111,7.166427,-17.98073,-1.1886605,-5.3204474,-3.6934886
2.484,-1.4913716,7.1272964,-17.254148,-0.92958605,-5.237649,-3.7957892
2.486,-1.3295898,7.099332,-16.536514,-0.6684551,-5.1417413,-3.9005487
2.488,-1.1565213,7.0796037,-15.827786,-0.4066062,-5.034026,-4.0070877
2.49,-0.9728081,7.065131,-15.127873,-0.14538085,-4.9158144,-4.1148148
2.492,-0.7792313,7.0532084,-14.436762,0.1139707,-4.788351,-4.2231874
2.494,-0.576339,7.0412164,-13.754562,0.37035805,-4.6526575,-4.3316693
2.496,-0.36434174,7.026979,-13.081454,0.62295896,-4.509514,-4.439783
2.498,-0.1435132,7.0084143,-12.417568,0.8712838,-4.359421,-4.5471945
2.5,0.08641291,6.983524,-11.7631235,1.115125,-4.202656,-4.6536226
2.502,0.32531214,6.9504905,-11.118469,1.3545663,-4.0393085,-4.75871
2.504,0.5731747,6.907773,-10.483902,1.589957,-3.869296,-4.8620486
2.506,0.83017135,6.8542376,-9.859971,1.8218453,-3.6924305,-4.963233
2.508,1.096231,6.788905,-9.247288,2.0509777,-3.508574,-5.0618763
2.51,1.3712597,6.7111144,-8.646724,2.2782273,-3.317658,-5.157607
2.512,1.6551781,6.6203055,-8.059055,2.504538,-3.1197588,-5.2500963
2.514,1.9472046,6.5164633,-7.485408,2.7308774,-2.9151049,-5.3390384
2.516,2.2473145,6.3993254,-6.9267306,2.9581714,-2.7040567,-5.424155
2.518,2.5550761,6.2688465,-6.383377,3.1872826,-2.4870589,-5.5051928
2.52,2.8700683,6.124931,-5.8560095,3.4189658,-2.2646375,-5.581917
2.522,3.1911995,5.9687366,-5.3453298,3.6538873,-2.037376,-5.654102
2.524,3.5169754,5.80168,-4.8521194,3.892648,-1.8058659,-5.7215195
2.526,3.8463848,5.6246114,-4.377057,4.135744,-1.5706732,-5.7839456
2.528,4.178067,5.4382215,-3.9204903,4.3836207,-1.3323206,-5.8411765
2.53,4.5105667,5.2437334,-3.482922,4.6366367,-1.091318,-5.8930645
2.532,4.841755,5.043037,-3.0650659,4.895053,-0.848158,-5.9394455
2.534,5.1705217,4.8380795,-2.6674461,5.1590114,-0.60333264,-5.9801445
2.536,5.495345,4.630613,-2.2902586,5.428565,-0.35734665,-6.0150337
2.538,5.8144274,4.422,-1.9336665,5.703625,-0.11073285,-6.044039
2.54,6.126306,4.213998,-1.5975072,5.9840455,0.1359505,-6.067127
2.542,6.4297347,4.0081825,-1.2815446,6.2695856,0.382115,-6.0843515
2.544,6.7231884,3.8059378,-0.98517907,6.55993,0.627161,-6.095758
2.546,7.0052414,3.6089263,-0.708076,6.854725,0.8705287,-6.1013803
2.548,7.2744975,3.4190595,-0.4498018,7.153591,1.1116862,-6.101261
2.55,7.5301337,3.2379737,-0.21007657,7.4561186,1.3501184,-6.0954227
2.552,7.7709436,3.0672772,0.011392832,7.7618837,1.5854325,-6.0838413
2.554,7.9964952,2.9084044,0.21501529,8.070432,1.8172576,-6.0664425
2.556,8.206068,2.7627718,0.4010495,8.38126,2.0452476,-6.0431323
2.558,8.399118,2.631708,0.5700512,8.693796,2.2690573,-6.0137887
2.56,8.575644,2.5160856,0.722716,9.007399,2.488292,-5.978288
2.562,8.735757,2.4169207,0.85975707,9.321302,2.7025146,-5.936537
2.564,8.879675,2.335255,0.9816134,9.634712,2.9112854,-5.888487
2.566,9.007743,2.2720716,1.0889306,9.946771,3.1140575,-5.834135
2.568,9.120472,2.2283795,1.1822388,10.256534,3.3102036,-5.773486
2.57,9.218519,2.2050235,1.2622716,10.563047,3.4990735,-5.706517
2.572,9.30258,2.2028308,1.3294444,10.865364,3.6800196,-5.63326
2.574,9.373847,2.2227335,1.3841767,11.16255,3.8523655,-5.5536895
2.576,9.433458,2.2657583,1.4268315,11.4537115,4.015432,-5.4677134
2.578,9.482719,2.3328125,1.4575918,11.738047,4.168626,-5.3752236
2.58,9.522909,2.4249542,1.4764771,12.014838,4.3114767,-5.27602
2.582,9.555535,2.5435264,1.4835634,12.283468,4.4436665,-5.169819
2.584,9.582026,2.6898527,1.4787333,12.543409,4.565094,-5.056205
2.586,9.604095,2.86559,1.4618695,12.794241,4.675932,-4.9346313
2.588,9.623423,3.0721903,1.4327717,13.035634,4.776576,-4.8043933
2.59,9.641752,3.311479,1.391232,13.267336,4.867638,-4.6646595
2.592,9.660692,3.5853248,1.3372626,13.489205,4.949851,-4.5145264
2.594,9.682127,3.8955145,1.2705076,13.701162,5.0239396,-4.353115
2.596,9.707758,4.2439384,1.1908555,13.9031315,5.090473,-4.179723
2.598,9.7391815,4.632344,1.098372,14.09505,5.1497326,-3.9939713
2.6,9.778116,5.0627103,0.99303365,14.276795,5.2015567,-3.7959366
2.602,9.826522,5.5366488,0.87520695,14.4481125,5.245286,-3.5862203
2.604,9.885967,6.055663,0.7455387,14.608656,5.279712,-3.3659377
2.606,9.958558,6.6203294,0.6046233,14.757908,5.3030257,-3.1367183
2.608,10.045955,7.231356,0.4532547,14.895138,5.3130035,-2.9006429
2.61,10.149612,7.889003,0.29255152,15.019499,5.307089,-2.6601186
2.612,10.271151,8.593319,0.12415457,15.1299715,5.282559,-2.4177642
2.614,10.412013,9.343845,-0.05017042,15.225414,5.2366853,-2.1763005
2.616,10.57365,10.139288,-0.22820187,15.304689,5.166972,-1.9383006
2.618,10.757543,10.977782,-0.40754795,15.366627,5.071189,-1.7060871
2.62,10.964882,11.856764,-0.58555603,15.410135,4.9476123,-1.4817371
2.622,11.196966,12.77286,-0.7595563,15.4342575,4.795003,-1.267096
2.624,11.454981,13.722484,-0.92649174,15.438114,4.6125813,-1.0637488
2.626,11.739815,14.701749,-1.0836143,15.42099,4.399995,-0.87286615
2.628,12.05274,15.705729,-1.2281647,15.382308,4.157282,-0.69537306
2.63,12.394892,16.728981,-1.3571577,15.321672,3.8847413,-0.53195715
2.632,12.766935,17.76574,-1.4678669,15.238794,3.5827978,-0.3831234
2.634,13.169725,18.809732,-1.557538,15.1335745,3.2519393,-0.24923992
2.636,13.603825,19.85441,-1.6235828,15.006038,2.8926277,-0.13063383
2.638,14.06971,20.892967,-1.6630955,14.856327,2.5051851,-0.027655602
2.64,14.567718,21.918787,-1.673233,14.684715,2.0897858,0.05931616
2.642,15.098743,22.92503,-1.6513567,14.491598,1.6464992,0.1297946
2.644,15.662905,23.905212,-1.5949478,14.27747,1.1752629,0.18323469
2.646,16.260061,24.853598,-1.501975,14.042889,0.6759038,0.21909904
2.648,16.89032,25.76477,-1.3707466,13.788505,0.14818954,0.23697472
2.65,17.553137,26.632874,-1.2000685,13.515121,-0.40812206,0.23672676
2.652,18.248247,27.452484,-0.98901176,13.22368,-0.9932406,0.21862173
2.654,18.975204,28.218498,-0.7372761,12.915287,-1.6072636,0.1833458
2.656,19.73385,28.925924,-0.4445362,12.59127,-2.2501228,0.13190174
2.658,20.523436,29.57019,-0.11054993,12.253143,-2.9214568,0.06551838
2.66,21.342659,30.14748,0.26454163,11.902587,-3.620567,-0.014432192
2.662,22.189753,30.654257,0.6801815,11.541408,-4.346372,-0.10663128
2.664,23.062346,31.087282,1.1354961,11.171368,-5.097407,-0.21009135
2.666,23.958233,31.443947,1.629242,10.794124,-5.871808,-0.32426763
2.668,24.875013,31.721972,2.1596565,10.411072,-6.667337,-0.4492098
2.67,25.8098,31.919338,2.7241602,10.023173,-7.481479,-0.5856443
2.672,26.75898,32.03411,3.319684,9.63083,-8.3115015,-0.7349961
2.674,27.718296,32.06456,3.9430008,9.233822,-9.1544485,-0.8991966
2.676,28.683014,32.00943,4.590498,8.83139,-10.007105,-1.0804617
2.678,29.647938,31.868183,5.2581987,8.42231,-10.866041,-1.2810657
2.68,30.607388,31.64069,5.941901,8.005001,-11.727616,-1.5031157
2.682,31.555267,31.32766,6.637335,7.577775,-12.587949,-1.7482042
2.684,32.484604,30.93015,7.339736,7.1391096,-13.442865,-2.0171776
2.686,33.388184,30.449814,8.044092,6.6879463,-14.287892,-2.3099318
2.688,34.258453,29.888815,8.745808,6.2238584,-15.118248,-2.625377
2.69,35.087887,29.25006,9.440186,5.7472053,-15.928815,-2.9615183
2.692,35.868637,28.537233,10.12264,5.2590904,-16.714085,-3.315591
2.694,36.59325,27.755035,10.78886,4.7613144,-17.46833,-3.6841474
2.696,37.254005,26.908524,11.434597,4.2563195,-18.185738,-4.0631943
2.698,37.84361,26.003546,12.055719,3.7469673,-18.860542,-4.4484396
2.7,38.35505,25.046148,12.648289,3.236289,-19.487118,-4.8355694
2.702,38.781773,24.04327,13.208682,2.7272902,-20.060184,-5.2204123
2.704,39.11787,23.002487,13.733469,2.222828,-20.574945,-5.5989532
2.706,39.35833,21.931808,14.219287,1.7256098,-21.027176,-5.9674573
2.708,39.499233,20.838852,14.66317,1.2381592,-21.413307,-6.3225
2.71,39.537727,19.731487,15.062317,0.76281357,-21.730522,-6.6609855
2.712,39.47174,18.617744,15.413954,0.30175877,-21.976875,-6.980221
2.714,39.300682,17.505669,15.715723,-0.14294052,-22.15135,-7.2779217
2.716,39.024483,16.403624,15.965574,-0.56944466,-22.253979,-7.552237
2.718,38.64473,15.319166,16.161602,-0.976079,-22.285812,-7.8016434
2.72,38.16424,14.259546,16.302067,-1.3613281,-22.249008,-8.024984
2.722,37.58703,13.231326,16.385317,-1.723793,-22.146801,-8.221437
2.724,36.918003,12.240756,16.410172,-2.0621448,-21.983452,-8.390449
2.726,36.16256,11.29384,16.37588,-2.3751516,-21.76403,-8.531689
2.728,35.32714,10.396072,16.28226,-2.6616645,-21.494251,-8.645054
2.73,34.418808,9.552393,16.12953,-2.920721,-21.18035,-8.730611
2.732,33.44512,8.767167,15.918463,-3.151582,-20.828735,-8.788539
2.734,32.4143,8.043673,15.650382,-3.3538313,-20.445778,-8.819154
2.736,31.334736,7.384626,15.327387,-3.527514,-20.037546,-8.822958
2.738,30.214733,6.792354,14.952101,-3.6733413,-19.609724,-8.800617
2.74,29.063005,6.2684555,14.527754,-3.7926793,-19.167393,-8.752917
2.742,27.888428,5.8137007,14.058254,-3.8875766,-18.714926,-8.680727
2.744,26.699583,5.428149,13.547863,-3.960584,-18.25601,-8.58502
2.746,25.504663,5.111145,13.001158,-4.0146084,-17.793669,-8.466881
2.748,24.311703,4.8610764,12.422937,-4.052725,-17.330196,-8.327597
2.75,23.12788,4.6754594,11.8182,-4.0779696,-16.867218,-8.168659
2.752,21.96022,4.5510674,11.19225,-4.0930605,-16.405722,-7.99166
2.754,20.815203,4.484039,10.5506115,-4.1001225,-15.946287,-7.798335
2.756,19.698853,4.4697223,9.898664,-4.100649,-15.489075,-7.590555
2.758,18.616766,4.5031176,9.241941,-4.0954957,-15.033907,-7.370374
2.76,17.57365,4.5792413,8.585684,-4.084954,-14.580424,-7.139904
2.762,16.573355,4.69287,7.934622,-4.068787,-14.128116,-6.9011974
2.764,15.6197605,4.83837,7.2932305,-4.0463505,-13.676354,-6.6561794
2.766,14.715515,5.01013,6.6650457,-4.0167127,-13.224439,-6.4066386
2.768,13.863,5.202164,6.0531373,-3.9787972,-12.771621,-6.154166
2.77,13.064008,5.4086204,5.460281,-3.9314823,-12.317214,-5.9001184
2.772,12.3200445,5.624055,4.8888736,-3.8737426,-11.86069,-5.6455474
2.774,11.632017,5.843444,4.3406515,-3.8048563,-11.401715,-5.3912764
2.776,11.000147,6.0617814,3.817146,-3.7244735,-10.940233,-5.137863
2.778,10.423727,6.274749,3.3194673,-3.6326015,-10.476403,-4.885611
2.78,9.901688,6.4788795,2.848966,-3.5295825,-10.010706,-4.6346097
2.782,9.433047,6.671278,2.4065843,-3.4161224,-9.543866,-4.3848543
2.784,9.016516,6.8495045,1.99283,-3.293223,-9.076726,-4.1363125
2.786,8.650664,7.0116487,1.6078156,-3.162118,-8.610127,-3.8889995
2.788,8.333591,7.1559615,1.2517207,-3.0241709,-8.144813,-3.6429334
2.79,8.063173,7.281293,0.9245288,-2.8807445,-7.6813354,-3.3981736
2.792,7.837059,7.386801,0.6261039,-2.7331166,-7.21991,-3.1549013
2.794,7.6530914,7.472286,0.35628325,-2.5823925,-6.7604003,-2.9134128
2.796,7.5091243,7.537858,0.114837885,-2.429461,-6.3023005,-2.674095
2.798,7.4028926,7.58408,-0.09890199,-2.2749531,-5.844724,-2.437357
2.8,7.331998,7.6115785,-0.28577226,-2.1192577,-5.386532,-2.2036266
2.802,7.2942457,7.6209593,-0.4468031,-1.962544,-4.9264693,-1.9733677
2.804,7.2874084,7.6128745,-0.5831388,-1.8048251,-4.4632783,-1.7470737
2.806,7.3094935,7.58865,-0.6960789,-1.6460115,-3.9958706,-1.5252571
2.808,7.358712,7.549307,-0.78690267,-1.4859972,-3.5234077,-1.3084048
2.81,7.4335747,7.496007,-0.8570236,-1.3246799,-3.0453963,-1.09697
2.812,7.5327096,7.429731,-0.9082488,-1.1619921,-2.5617256,-0.8913784
2.814,7.6545653,7.3514485,-0.94221973,-0.9979271,-2.072696,-0.69201964
2.816,7.7980433,7.262045,-0.96076095,-0.8325676,-1.5789778,-0.4992499
2.818,7.961665,7.1629696,-0.9660013,-0.6660751,-1.0816021,-0.31334484
2.82,8.144194,7.055221,-0.95976067,-0.498662,-0.5818776,-0.13449502
2.822,8.344521,6.9396973,-0.9441472,-0.33060294,-0.08131643,0.037184875
2.824,8.561581,6.817337,-0.9209531,-0.16221651,0.41844818,0.20164302
2.826,8.794288,6.6887655,-0.8919605,0.006122574,0.91572195,0.3588482
2.828,9.041622,6.5548363,-0.85879016,0.17403433,1.4088198,0.5087904
2.83,9.302301,6.416275,-0.82295334,0.341112,1.896087,0.6513994
2.832,9.575129,6.2738447,-0.7857146,0.5069165,2.375936,0.7865616
2.834,9.858866,6.1280737,-0.7483454,0.6709824,2.8468964,0.9141171
2.836,10.1522875,5.979619,-0.71189713,0.8328595,3.3076825,1.0337856
2.838,10.454223,5.828948,-0.67752844,0.9921163,3.7571518,1.1452159
2.84,10.763298,5.676672,-0.6460576,1.1483407,4.194293,1.2480514
2.842,11.077932,5.5233746,-0.61817825,1.3011491,4.6182494,1.3419541
2.844,11.396791,5.3695297,-0.5947486,1.4501925,5.028275,1.4266622
2.846,11.718268,5.215645,-0.57639194,1.5951477,5.4236917,1.5020053
2.848,12.040924,5.0623074,-0.56367093,1.7357203,5.80389,1.5679295
2.85,12.363098,4.910013,-0.55720353,1.871648,6.1683183,1.6245377
2.852,12.683118,4.7593484,-0.55733305,2.0027146,6.5164824,1.6720818
2.854,12.999414,4.6108,-0.56459653,2.1287637,6.8479514,1.7109616
2.856,13.310665,4.4650126,-0.57922864,2.2496886,7.1623535,1.7417276
2.858,13.615387,4.322605,-0.60141754,2.3654292,7.459356,1.7650504
2.86,13.912312,4.1841717,-0.6312424,2.475987,7.7387066,1.7816714
2.862,14.199968,4.050303,-0.6687818,2.5813975,8.0001545,1.7923813
2.864,14.477072,3.9216526,-0.7141435,2.6817188,8.24347,1.7980275
2.866,14.742443,3.7989528,-0.7672734,2.777027,8.468429,1.7994293
2.868,14.994955,3.6826153,-0.8281468,2.8674264,8.674865,1.7973815
2.87,15.233736,3.5731912,-0.89664716,2.9530005,8.862636,1.7926319
2.872,15.458013,3.4712043,-0.97258854,3.0338416,9.031631,1.7858173
2.874,15.66687,3.3771505,-1.0558586,3.1100202,9.181815,1.7774631
2.876,15.859857,3.291347,-1.1460786,3.1815865,9.313182,1.7679847
2.878,16.03667,3.214277,-1.2430782,3.2485971,9.425778,1.7576826
2.88,16.196705,3.1460876,-1.3465409,3.3111105,9.519716,1.7467337
2.882,16.339947,3.0870798,-1.4562566,3.36917,9.595161,1.7352748
2.884,16.466244,3.0372531,-1.5717931,3.422839,9.652309,1.7233852
2.886,16.575579,2.9967804,-1.6928823,3.4721744,9.691393,1.7110888
2.888,16.668238,2.9654841,-1.819082,3.5172498,9.712677,1.6983955
2.89,16.744703,2.9431438,-1.9501287,3.5581067,9.716416,1.6854165
2.892,16.805199,2.9296675,-2.0856454,3.5947745,9.7028885,1.6722465
2.894,16.85039,2.9247055,-2.2250457,3.6272478,9.672382,1.6589899
2.896,16.88073,2.9278142,-2.3678665,3.6554818,9.625151,1.6457272
2.898,16.89686,2.9387264,-2.5136397,3.679413,9.5615,1.632571
2.9,16.899494,2.9569364,-2.6619127,3.6989636,9.481722,1.6196392
2.902,16.88941,2.982125,-2.8121147,3.7140293,9.386135,1.6070035
2.904,16.86748,3.0137155,-2.9636416,3.7245064,9.275092,1.5947275
2.906,16.834324,3.051152,-3.1159155,3.7302682,9.148991,1.5828445
2.908,16.790785,3.0938754,-3.2683735,3.7312148,9.008276,1.5713744
2.91,16.737707,3.1413357,-3.420264,3.727237,8.853464,1.5603104
2.912,16.675798,3.1929116,-3.5710254,3.7182217,8.685112,1.549624
2.914,16.605833,3.248092,-3.720088,3.7040827,8.503837,1.5392869
2.916,16.52867,3.305955,-3.8667083,3.6847544,8.310336,1.5292673
2.918,16.445127,3.3660493,-4.010213,3.6601765,8.105332,1.5195305
2.92,16.35577,3.427782,-4.1500983,3.6303272,7.889586,1.5100613
2.922,16.261297,3.4906497,-4.285753,3.5952203,7.6638975,1.500855
2.924,16.162363,3.5540643,-4.4166565,3.5549364,7.429075,1.4919121
2.926,16.059547,3.617459,-4.5423155,3.509599,7.1859326,1.4832401
2.928,15.953502,3.6802192,-4.662245,3.459389,6.935275,1.4748764
2.93,15.844689,3.7419672,-4.7760773,3.404554,6.677882,1.4668427
2.932,15.733549,3.8023338,-4.883274,3.3453672,6.414509,1.4591682
2.934,15.620619,3.8608117,-4.983735,3.2821512,6.145854,1.4519007
2.936,15.506326,3.917118,-5.0772,3.2152514,5.8725586,1.4450567
2.938,15.390945,3.970985,-5.163499,3.1450305,5.5952005,1.4386628
2.94,15.274936,4.0221004,-5.242462,3.0718462,5.3142805,1.4327581
2.942,15.158549,4.070316,-5.3139277,2.9960585,5.030249,1.4273617
2.944,15.042068,4.115611,-5.3776083,2.918008,4.7434864,1.4224936
2.946,14.925769,4.157752,-5.4334683,2.838015,4.4543285,1.4181845
2.948,14.80982,4.1967483,-5.4812956,2.7564106,4.163083,1.4144483
2.95,14.694532,4.232571,-5.5209227,2.6734934,3.8700294,1.4112915
2.952,14.580131,4.265316,-5.5523977,2.5895414,3.5754263,1.4087086
2.954,14.466589,4.2950773,-5.575407,2.504826,3.2795477,1.4066573
2.956,14.354331,4.32184,-5.5898676,2.4196012,2.9826846,1.4051152
2.958,14.243492,4.345727,-5.5956583,2.3341353,2.6851315,1.4040213
2.96,14.134302,4.366967,-5.5926027,2.2486756,2.3872235,1.4033296
2.962,14.026923,4.3856306,-5.580756,2.1634693,2.0893369,1.4029744
2.964,13.921616,4.401952,-5.5599966,2.0787792,1.7918854,1.4028919
2.966,13.818663,4.416108,-5.5303493,1.9948612,1.4953117,1.4030272
2.968,13.718252,4.4282885,-5.4919963,1.911977,1.200066,1.4033189
2.97,13.620725,4.438694,-5.4449987,1.8303788,0.90663177,1.4036992
2.972,13.526309,4.447422,-5.389536,1.7503229,0.61550486,1.4040982
2.974,13.435152,4.4547496,-5.3258295,1.672048,0.32716596,1.4044417
2.976,13.347634,4.4607716,-5.254179,1.5957718,0.042085692,1.404643
2.978,13.263915,4.4657345,-5.1749763,1.5217154,-0.23929223,1.4046127
2.98,13.184439,4.4697037,-5.08856,1.4500594,-0.51656187,1.4042609
2.982,13.109321,4.4728613,-4.995508,1.3809643,-0.78937376,1.4034818
2.984,13.03878,4.475375,-4.896283,1.3145548,-1.0574031,1.4021764
2.986,12.973159,4.477339,-4.791504,1.2509403,-1.3203821,1.4002304
2.988,12.912377,4.4788747,-4.681758,1.1901999,-1.5780843,1.3975167
2.99,12.856888,4.4802246,-4.567691,1.1324015,-1.8303115,1.3939258
2.992,12.806571,4.4813914,-4.4498715,1.0776119,-2.07688,1.3893453
2.994,12.761727,4.4826283,-4.3289576,1.0258882,-2.3176248,1.3836824
2.996,12.722402,4.4839897,-4.2056665,0.9772952,-2.552375,1.3768672
2.998,12.688522,4.4856415,-4.0805626,0.93191177,-2.7809644,1.3688508
3,12.660113,4.487715,-3.9542086,0.88983774,-3.0032218,1.3596032
3.002,12.637168,4.4901304,-3.8271806,0.8511816,-3.218951,1.3491364
3.004,12.619549,4.4931107,-3.7000368,0.8160626,-3.4279678,1.3374655
3.006,12.607249,4.496654,-3.573395,0.78462213,-3.6300826,1.3245987
3.008,12.600069,4.5008154,-3.447646,0.7570142,-3.8251102,1.3105656
3.01,12.597913,4.5056553,-3.3231606,0.7333872,-4.0128818,1.2953644
3.012,12.600493,4.51116,-3.20038,0.7138671,-4.193229,1.278989
3.014,12.6075535,4.517276,-3.0797005,0.6985789,-4.3660145,1.2614067
3.016,12.61908,4.5240574,-2.9614923,0.6876095,-4.5310993,1.24257
3.018,12.634642,4.5314255,-2.8459558,0.6810045,-4.6883736,1.222408
3.02,12.654045,4.5393763,-2.7334049,0.6787869,-4.837743,1.2008548
3.022,12.676961,4.5479136,-2.623969,0.68092066,-4.97912,1.1778328
3.024,12.703118,4.5568285,-2.5179157,0.687346,-5.1124487,1.1532786
3.026,12.732096,4.566141,-2.4152818,0.6979705,-5.237705,1.1271307
3.028,12.763443,4.57581,-2.316261,0.71269226,-5.354869,1.099383
3.03,12.796986,4.5857463,-2.2208805,0.73136634,-5.4639697,1.0700471
3.032,12.832255,4.595714,-2.1291585,0.75382465,-5.5650444,1.0391856
3.034,12.868839,4.605809,-2.041075,0.7798893,-5.658164,1.0068811
3.036,12.90629,4.615953,-1.9565988,0.809384,-5.7434216,0.9732702
3.038,12.944236,4.6260653,-1.8757021,0.8421088,-5.8209524,0.9385276
3.04,12.982283,4.636158,-1.7982519,0.8778774,-5.8908844,0.9028413
3.042,13.020019,4.6461735,-1.7241833,0.9164948,-5.9533653,0.86640644
3.044,13.057054,4.656126,-1.653296,0.9577698,-6.008548,0.82941866
3.046,13.092985,4.666094,-1.5854809,1.0015254,-6.0566006,0.7920332
3.048,13.127641,4.6760526,-1.5205824,1.0475934,-6.0976553,0.75437665
3.05,13.160567,4.6861887,-1.4583757,1.0958204,-6.131863,0.7165394
3.052,13.191498,4.6965547,-1.3987634,1.1460679,-6.159355,0.6785848
3.054,13.220186,4.7072477,-1.3416188,1.1981966,-6.1802692,0.6405461
3.056,13.246529,4.7184467,-1.2866747,1.2520771,-6.194753,0.60242844
3.058,13.270147,4.7303753,-1.2337596,1.3075941,-6.2029533,0.5642457
3.06,13.290955,4.7432103,-1.1827073,1.3646395,-6.2050424,0.52601695
3.062,13.308876,4.75706,-1.1332495,1.4230994,-6.201214,0.4877689
3.064,13.323933,4.772133,-1.0852065,1.482883,-6.191687,0.44954038
3.066,13.335935,4.788745,-1.038445,1.5439049,-6.176711,0.41140175
3.068,13.344972,4.806942,-0.9927571,1.6061,-6.1565495,0.37342048
3.07,13.350997,4.826968,-0.9478929,1.6693921,-6.131497,0.3357029
3.072,13.354213,4.849002,-0.9036827,1.7337322,-6.101854,0.29835796
3.074,13.354489,4.8732243,-0.85995173,1.7990575,-6.0679235,0.26149583
3.076,13.352124,4.8997326,-0.816463,1.8653157,-6.030032,0.22524261
3.078,13.347129,4.928723,-0.7729845,1.9324527,-5.9885135,0.18970346
3.08,13.339781,4.9602194,-0.72935605,2.0004144,-5.9436817,0.15499091
3.082,13.330075,4.9943585,-0.68537927,2.0691383,-5.8958406,0.12120175
3.084,13.318241,5.0312014,-0.64086723,2.1385624,-5.845304,0.08841896
3.086,13.304469,5.0707054,-0.59553456,2.20861,-5.7923803,0.056717634
3.088,13.288958,5.112985,-0.5492823,2.2792163,-5.7373824,0.026165009
3.09,13.271846,5.157961,-0.5018256,2.3502736,-5.680601,-0.0032014847
3.092,13.25341,5.205537,-0.45295453,2.4216964,-5.6223297,-0.031346083
3.094,13.233869,5.2556868,-0.40252924,2.493378,-5.5628576,-0.058238983
3.096,13.213238,5.3084116,-0.35030937,2.5652199,-5.5024633,-0.08385515
3.098,13.191799,5.363535,-0.29604816,2.6371188,-5.441402,-0.10817623
3.1,13.169758,5.420822,-0.23965263,2.7089682,-5.379912,-0.1311698
3.102,13.147187,5.4802923,-0.18092513,2.7806768,-5.3182154,-0.1527996
3.104,13.124258,5.5417128,-0.11969662,2.852168,-5.256501,-0.17300487
3.106,13.10082,5.6050506,-0.055802345,2.9233778,-5.194924,-0.19173431
3.108,13.0771,5.6701546,0.010735989,2.994262,-5.133602,-0.20890665
3.11,13.053071,5.7369246,0.08009148,3.0648026,-5.072626,-0.22443223
3.112,13.02872,5.805368,0.15229893,3.134986,-5.01205,-0.23821235
3.114,13.0040865,5.8753214,0.22741055,3.204804,-4.951895,-0.2501452
3.116,12.9790125,5.9467273,0.3055544,3.2742715,-4.892146,-0.26011372
3.118,12.953378,6.0195208,0.38661623,3.3433905,-4.8328037,-0.26800227
3.12,12.927015,6.0936065,0.47064245,3.4121668,-4.773861,-0.27371597
3.122,12.89979,6.168869,0.55771744,3.4805684,-4.715332,-0.27716804
3.124,12.871488,6.2454324,0.6478361,3.5485585,-4.657255,-0.27830148
3.126,12.841555,6.323192,0.7410034,3.6160808,-4.5996985,-0.27707267
3.128,12.810024,6.402083,0.83717835,3.6830473,-4.5427637,-0.27344823
3.13,12.776492,6.482231,0.93634653,3.7493577,-4.4865656,-0.26740742
3.132,12.7405615,6.563557,1.0384276,3.814891,-4.4312267,-0.25892043
3.134,12.701871,6.646168,1.1435485,3.8795335,-4.3768816,-0.24795508
3.136,12.660142,6.7300434,1.251619,3.943173,-4.3236337,-0.23448205
3.138,12.614982,6.815254,1.3627379,4.0057235,-4.271555,-0.21844316
3.14,12.565932,6.901767,1.4769521,4.0671177,-4.220648,-0.19975662
3.142,12.512669,6.989726,1.5943077,4.1273117,-4.170888,-0.1783154
3.144,12.454706,7.0791025,1.7148788,4.1862936,-4.122213,-0.15399861
3.146,12.391724,7.1699553,1.8387794,4.244051,-4.074513,-0.126683
3.148,12.323312,7.2624326,1.9660141,4.300602,-4.0276546,-0.09622812
3.15,12.249197,7.3564014,2.0967126,4.3559427,-3.981516,-0.06250358
3.152,12.168849,7.451886,2.2310941,4.4100857,-3.9359984,-0.025389671
3.154,12.081547,7.548797,2.3689165,4.4630013,-3.8910384,0.015196085
3.156,11.987494,7.647424,2.5110621,4.5146437,-3.84661,0.059277534
3.158,11.886138,7.747204,2.6576552,4.5649366,-3.8027217,0.10685158
3.16,11.777301,7.848211,2.808778,4.613779,-3.7594194,0.15787101
3.162,11.660376,7.9502435,2.9647627,4.6610436,-3.7167923,0.21222782
3.164,11.535054,8.0531225,3.1259713,4.706594,-3.6749072,0.2697971
3.166,11.401148,8.156653,3.2925358,4.7502956,-3.633812,0.33041883
3.168,11.258487,8.260355,3.4647918,4.7920203,-3.593521,0.3939271
3.17,11.106784,8.363879,3.6430845,4.831641,-3.5539966,0.4601338
3.172,10.945913,8.466852,3.8277855,4.869055,-3.5151222,0.52888036
3.174,10.775757,8.568948,4.0192623,4.90418,-3.4767325,0.60003257
3.176,10.59639,8.669722,4.2180314,4.9369717,-3.4386039,0.6734631
3.178,10.407886,8.768785,4.4243712,4.967415,-3.4004383,0.7490697
3.18,10.210433,8.865451,4.6387057,4.9955225,-3.3618789,0.82679296
3.182,10.004128,8.959235,4.8613443,5.021352,-3.322497,0.90658593
3.184,9.789507,9.049585,5.0925527,5.044975,-3.2817523,0.9884474
3.186,9.566927,9.135942,5.332517,5.066496,-3.2391577,1.0723143
3.188,9.337111,9.217716,5.5814075,5.086101,-3.194102,1.1582508
3.19,9.100821,9.294189,5.8392954,5.103961,-3.145874,1.2462494
3.192,8.859073,9.364746,6.1060824,5.120203,-3.0938146,1.3362434
3.194,8.612781,9.4286375,6.3816223,5.1350145,-3.0371773,1.4281967
3.196,8.363089,9.485193,6.665493,5.1486254,-2.9751296,1.522041
3.198,8.111282,9.5336895,6.957273,5.1612997,-2.9068356,1.617712
3.2,7.858731,9.573554,7.256154,5.1733303,-2.8314512,1.7151217
3.202,7.606851,9.604047,7.561446,5.184999,-2.7481308,1.8141711
3.204,7.3571634,9.624581,7.8720794,5.1965976,-2.656063,1.9147651
3.206,7.1111293,9.63454,8.186908,5.208359,-2.5544896,2.0167987
3.208,6.870155,9.633593,8.5046215,5.220481,-2.4427114,2.1201558
3.21,6.6355352,9.621646,8.823975,5.233063,-2.3201232,2.224749
3.212,6.4086547,9.598537,9.143477,5.246124,-2.186236,2.3304849
3.214,6.1906033,9.564203,9.461572,5.2595835,-2.0406666,2.4373217
3.216,5.9825478,9.518716,9.7766695,5.2732863,-1.8831617,2.5452182
3.218,5.785405,9.462332,10.087093,5.28701,-1.7136089,2.654154
3.22,5.59984,9.395331,10.390966,5.300454,-1.5320543,2.764133
3.222,5.4263973,9.318233,10.686622,5.31328,-1.3387032,2.8751888
3.224,5.265114,9.23172,10.972358,5.3251143,-1.1338949,2.9873612
3.226,5.1162205,9.136682,11.246342,5.3355417,-0.91812885,3.100666
3.228,4.979723,9.034019,11.506818,5.3441253,-0.6920394,3.2150953
3.23,4.855217,8.924768,11.752185,5.3503923,-0.45641446,3.3306055
3.232,4.7421093,8.81011,11.980736,5.3538537,-0.21219099,3.4471235
3.234,4.6396484,8.691191,12.191076,5.3540006,0.039583564,3.5645118
3.236,4.5467544,8.569548,12.381894,5.3503494,0.297745,3.682599
3.238,4.462151,8.446606,12.5518675,5.342449,0.5610179,3.801187
3.24,4.3844414,8.323518,12.699892,5.329897,0.82816553,3.920121
3.242,4.3122797,8.201675,12.825167,5.312294,1.0978386,4.0390964
3.244,4.244026,8.082389,12.926516,5.2893815,1.3686813,4.1579103
3.246,4.1782146,7.9669485,13.003051,5.2609887,1.6394578,4.276365
3.248,4.113139,7.8564515,13.053867,5.226964,1.9089067,4.39419
3.25,4.04707,7.752221,13.078415,5.1872063,2.1758184,4.511123
3.252,3.9780796,7.6554847,13.076386,5.141676,2.439135,4.626855
3.254,3.9045353,7.567231,13.047565,5.0903845,2.6979296,4.7410197
3.256,3.8244734,7.4885015,12.991821,5.0333767,2.9514053,4.853177
3.258,3.7363484,7.420108,12.909084,4.9707026,3.1989188,4.9627805
3.26,3.6386535,7.36283,12.799471,4.902405,3.4399123,5.0691853
3.262,3.5299788,7.3172626,12.663116,4.828503,3.6739054,5.171654
3.264,3.4093132,7.2837343,12.500748,4.7489753,3.9004998,5.269391
3.266,3.275138,7.262209,12.311834,4.6638193,4.119346,5.3615284
3.268,3.1266625,7.2534494,12.097088,4.5729737,4.330076,5.447172
3.27,2.9630935,7.257379,11.857041,4.4763665,4.5322876,5.5255284
3.272,2.784101,7.274077,11.592243,4.3739576,4.7255125,5.5959253
3.274,2.5892978,7.303521,11.303165,4.2657485,4.9092274,5.657831
3.276,2.3783863,7.3454075,10.990767,4.151799,5.082834,5.710808
3.278,2.15141,7.399456,10.655752,4.03221,5.245577,5.754554
3.28,1.9085678,7.4649634,10.299044,3.9071097,5.3966074,5.78884
3.282,1.6501961,7.5413303,9.921617,3.7767038,5.5349975,5.813466
3.284,1.3769277,7.6275744,9.524696,3.6412373,5.659767,5.828169
3.286,1.0892711,7.722577,9.109645,3.5009694,5.7698965,5.832617
3.288,0.7882364,7.825103,8.677996,3.356197,5.86429,5.826404
3.29,0.47482365,7.9338536,8.231284,3.2072215,5.9418154,5.809057
3.292,0.15000492,8.04738,7.771428,3.054385,6.001306,5.7800827
3.294,-0.18515721,8.163965,7.3002815,2.8980567,6.041592,5.7390184
3.296,-0.52953357,8.281895,6.819837,2.7386353,6.0615554,5.6855087
3.298,-0.8817919,8.399276,6.332177,2.576555,6.0601854,5.6193166
3.3,-1.2408328,8.514184,5.8393736,2.412252,6.0366535,5.5403247
3.302,-1.6054708,8.624795,5.3437123,2.2461603,5.990378,5.448602
3.304,-1.974315,8.729104,4.847428,2.0787024,5.9210997,5.3444304
3.306,-2.3461447,8.825356,4.3529024,1.9102588,5.828903,5.228348
3.308,-2.7196817,8.911743,3.862467,1.7411621,5.7142096,5.101169
3.31,-3.0939243,8.986653,3.378417,1.5717027,5.5777802,4.963985
3.312,-3.4675949,9.048612,2.9029717,1.4021108,5.4206185,4.8181477
3.314,-3.8394916,9.096386,2.4384003,1.2325989,5.243977,4.665246
3.316,-4.208521,9.129032,1.9866521,1.0634145,5.049257,4.5070314
3.318,-4.5735164,9.145767,1.5496361,0.89483625,4.8378983,4.3453517
3.32,-4.933443,9.145994,1.1290556,0.72721106,4.611364,4.182103
3.322,-5.2874913,9.129581,0.72646475,0.56101567,4.3711185,4.0190954
3.324,-5.6347275,9.0968,0.3434018,0.3968409,4.1186314,3.8579507
3.326,-5.974289,9.048142,-0.018867657,0.2353881,3.8553429,3.7000456
3.328,-6.305675,8.984534,-0.35906053,0.07743004,3.5827124,3.5465543
3.33,-6.6283083,8.907071,-0.6761529,-0.07621646,3.3022687,3.3984435
3.332,-6.941485,8.816974,-0.9694469,-0.2247287,3.0156415,3.2564468
3.334,-7.244897,8.715785,-1.2383852,-0.36733007,2.7245545,3.121102
3.336,-7.5382094,8.60496,-1.482415,-0.50336194,2.4307861,2.9927807
3.338,-7.8212633,8.486163,-1.7012191,-0.63227,2.1361904,2.8717277
3.34,-8.093974,8.361169,-1.8949597,-0.7536307,1.8426718,2.758034
3.342,-8.356314,8.231568,-2.0637636,-0.8671677,1.552171,2.6516495
3.344,-8.60836,8.098861,-2.2079701,-0.9727505,1.2666059,2.552369
3.346,-8.849997,7.964326,-2.3281076,-1.0703573,0.9878017,2.4598365
3.348,-9.081484,7.829269,-2.4248075,-1.1600962,0.7174467,2.3735516
3.35,-9.303183,7.694888,-2.4988358,-1.2421398,0.45704085,2.29289
3.352,-9.515383,7.562191,-2.5511239,-1.3167624,0.20788495,2.2171407
3.354,-9.718541,7.4317718,-2.5824945,-1.3842876,-0.028942883,2.1455278
3.356,-9.913137,7.3041825,-2.5938814,-1.4450976,-0.25260577,2.0772333
3.358,-10.099635,7.179675,-2.586244,-1.4996132,-0.46250105,2.0114295
3.36,-10.278298,7.058177,-2.5607314,-1.5482818,-0.6582391,1.9472846
3.362,-10.449445,6.9395137,-2.5187142,-1.5915682,-0.83960974,1.8840241
3.364,-10.613451,6.823661,-2.4613457,-1.6299522,-1.0065832,1.820956
3.366,-10.770594,6.71015,-2.3896842,-1.6638963,-1.1592369,1.75752
3.368,-10.921421,6.598775,-2.3047018,-1.6938576,-1.2977833,1.6933187
3.37,-11.066214,6.4892383,-2.2073932,-1.7202835,-1.4225595,1.6281157
3.372,-11.205054,6.381151,-2.0987287,-1.7435527,-1.5339165,1.5618596
3.374,-11.338268,6.274392,-1.9796457,-1.7639878,-1.6322536,1.4946623
3.376,-11.466014,6.1686106,-1.850568,-1.7818552,-1.7179707,1.4268051
3.378,-11.588335,6.0635333,-1.7123005,-1.7973468,-1.7914764,1.3586953
3.38,-11.705162,5.9589005,-1.5654173,-1.8105888,-1.8531383,1.290823
3.382,-11.816248,5.854445,-1.4105319,-1.8216231,-1.9033071,1.2236698
3.384,-11.9216,5.7502217,-1.2482644,-1.8304403,-1.9422977,1.1577176
3.386,-12.020792,5.6462903,-1.0792136,-1.8369753,-1.9703971,1.0933871
3.388,-12.113574,5.542861,-0.90396327,-1.841136,-1.987864,1.0310327
3.39,-12.19957,5.4402375,-0.72319293,-1.8428187,-1.9949348,0.97091484
3.392,-12.278445,5.33855,-0.5375457,-1.8419137,-1.991824,0.9131748
3.394,-12.349691,5.2382007,-0.3478127,-1.8383219,-1.9787503,0.8578377
3.396,-12.412758,5.1395493,-0.15485513,-1.8319737,-1.9559335,0.8048574
3.398,-12.467355,5.042953,0.040632427,-1.8228005,-1.923574,0.75411355
3.4,-12.5130625,4.9488626,0.23784876,-1.8107923,-1.881895,0.7054465
3.402,-12.54917,4.85733,0.43594825,-1.7959512,-1.8311291,0.6586647
3.404,-12.575255,4.7688074,0.634118,-1.7783157,-1.7715312,0.61361426
3.406,-12.590843,4.6834545,0.8315109,-1.7579584,-1.7033658,0.5701338
3.408,-12.595646,4.601615,1.0272362,-1.7349887,-1.6269416,0.5281073
3.41,-12.589371,4.5236344,1.220452,-1.7095382,-1.5425763,0.4874477
3.412,-12.571475,4.449529,1.4102502,-1.6817687,-1.4506285,0.4480784
3.414,-12.541971,4.3795514,1.5955796,-1.6518552,-1.3514762,0.40996104
3.416,-12.500628,4.313732,1.7756033,-1.6199872,-1.2455356,0.37304783
3.418,-12.447429,4.25221,1.9493806,-1.5863582,-1.1332462,0.33728108
3.42,-12.382113,4.1949816,2.1161127,-1.551166,-1.0150844,0.3025671
3.422,-12.304815,4.1422276,2.2749517,-1.5145996,-0.89155614,0.26879162
3.424,-12.21584,4.093928,2.4251158,-1.4768425,-0.76317227,0.23579627
3.426,-12.115046,4.050056,2.566084,-1.4380759,-0.6304835,0.20338708
3.428,-12.002814,4.0105042,2.6971729,-1.3984545,-0.49403882,0.17135322
3.43,-11.8793125,3.9753976,2.8178203,-1.3581167,-0.35440376,0.13944499
3.432,-11.744739,3.9445071,2.9275522,-1.3171946,-0.21210264,0.10739985
3.434,-11.599535,3.9177904,3.0259018,-1.2757994,-0.06767368,0.07495701
3.436,-11.444143,3.8950663,3.112512,-1.2340287,0.07838617,0.041870676
3.438,-11.278977,3.876077,3.186993,-1.1919594,0.22560073,0.007902861
3.44,-11.104468,3.8605497,3.2490609,-1.1496658,0.37352225,-0.027159072
3.442,-10.921289,3.848343,3.2985897,-1.1072084,0.5217312,-0.06352036
3.444,-10.729868,3.8391237,3.3354492,-1.0646341,0.66983736,-0.101342544
3.446,-10.5308,3.8326926,3.3595133,-1.0219988,0.81747025,-0.14074919
3.448,-10.324849,3.8288531,3.3708405,-0.97934455,0.96429116,-0.18180579
3.45,-10.112511,3.827284,3.3695,-0.936715,1.1099755,-0.22454923
3.452,-9.894402,3.8277955,3.3556712,-0.8941594,1.2542107,-0.2689557
3.454,-9.671217,3.8302562,3.3294418,-0.8517146,1.3967061,-0.31495482
3.456,-9.443629,3.834528,3.2910306,-0.80944216,1.5371749,-0.36242816
3.458,-9.212308,3.840396,3.2407937,-0.76739,1.6753403,-0.41123277
3.46,-8.977879,3.847931,3.1790767,-0.72558683,1.810936,-0.46115506
3.462,-8.741006,3.8569756,3.1062336,-0.68405825,1.9437276,-0.5119704
3.464,-8.502216,3.867587,3.0227466,-0.6428144,2.073478,-0.56343275
3.466,-8.262062,3.8798373,2.9291692,-0.6018479,2.199964,-0.6152718
3.468,-8.021009,3.8937478,2.826071,-0.561129,2.3229702,-0.6672447
3.47,-7.7797513,3.9095075,2.7139142,-0.520623,2.442328,-0.7191098
3.472,-7.53856,3.9272118,2.593464,-0.48026663,2.5578609,-0.7706604
3.474,-7.297935,3.9467802,2.4652543,-0.43999642,2.6694143,-0.82172495
3.476,-7.058123,3.9685116,2.3299978,-0.3997478,2.7768552,-0.8721918
3.478,-6.819454,3.9925156,2.1884916,-0.35946685,2.8800392,-0.9220035
3.48,-6.5823016,4.018832,2.0413392,-0.31911865,2.9788375,-0.97114855
3.482,-6.346863,4.04769,1.8894219,-0.27869505,3.0731165,-1.0196692
3.484,-6.1133738,4.0790963,1.7334778,-0.23822898,3.1627347,-1.0676392
3.486,-5.882024,4.1132894,1.5741844,-0.19779572,3.2475145,-1.1151639
3.488,-5.6528826,4.150237,1.4124665,-0.15749976,3.3272913,-1.1623619
3.49,-5.4260783,4.1899233,1.2490416,-0.11747518,3.4018738,-1.2093644
3.492,-5.2018013,4.232558,1.0847051,-0.077895194,3.4710622,-1.2562952
3.494,-4.979974,4.278044,0.92029494,-0.038949728,3.5346596,-1.3032706
3.496,-4.760888,4.326366,0.75646824,-0.00083327293,3.5924711,-1.3503817
3.498,-4.5444827,4.3774614,0.5940256,0.036245197,3.6443238,-1.3977252
