Time_s_,Acc_x_m_s_2_,Acc_y_m_s_2_,Acc_z_m_s_2_,Gyro_x_1_s_,Gyro_y_1_s_,Gyro_z_1_s_
0,-0.20773345,0.62533975,2.3745468,0.7092358,1.5607822,0.6892749
0.002,-0.13785273,0.4604992,2.3949122,0.70348775,1.5597267,0.65694153
0.004,-0.061051417,0.29790258,2.4121478,0.6979792,1.5617495,0.6252464
0.006,0.022057151,0.13861102,2.4268308,0.69296473,1.5675958,0.5952698
0.008,0.112522975,-0.017695785,2.4391143,0.6887965,1.5780685,0.56829596
0.01,0.21149611,-0.17153132,2.447338,0.68591106,1.5939652,0.54574084
0.012,0.31965655,-0.32297176,2.4496222,0.68483186,1.6159694,0.5290077
0.014,0.43672347,-0.47112513,2.4446368,0.6860936,1.6445181,0.5193183
0.016,0.5620966,-0.61483777,2.4316,0.69017196,1.6796566,0.5175473
0.018,0.6956149,-0.75351727,2.4104598,0.6973734,1.7209362,0.52407265
0.02,0.8368185,-0.8868152,2.3819041,0.70774984,1.7673488,0.5386696
0.022,0.98483866,-1.014854,2.3468127,0.7210444,1.8173429,0.56049806
0.024,1.138429,-1.1377124,2.305615,0.7366774,1.8688877,0.588152
0.026,1.2964352,-1.2559099,2.2584877,0.7537729,1.9195986,0.6198668
0.028,1.4577723,-1.3699849,2.205262,0.7712641,1.9674318,0.6530152
0.03,1.621174,-1.4804846,2.1456459,0.78837377,2.0101614,0.6869652
0.032,1.7851826,-1.5879164,2.0796664,0.80394167,2.045647,0.7198959
0.034,1.9484104,-1.6925814,2.0075262,0.8170711,2.072364,0.75049686
0.036,2.109337,-1.7947433,1.929727,0.82718027,2.0894532,0.7779049
0.038,2.2667444,-1.8946638,1.8473146,0.83404,2.0967681,0.8017538
0.04,2.418242,-1.9918134,1.7607663,0.83783257,2.0948453,0.82229483
0.042,2.5622764,-2.0856988,1.6694487,0.83903295,2.0847375,0.8404306
0.044,2.6982305,-2.175225,1.5733706,0.8383145,2.0678284,0.85756356
0.046,2.8234887,-2.2579467,1.4721838,0.8365118,2.0457287,0.8753236
0.048,2.935554,-2.3319182,1.364332,0.83450174,2.0201385,0.89535844
0.05,3.0338817,-2.3967593,1.2494687,0.8331233,1.9927553,0.91917914
0.052,3.117623,-2.4519563,1.128543,0.8331919,1.9651917,0.9480507
0.054,3.1857274,-2.4968753,1.0028601,0.83543485,1.9389095,0.9828387
0.056,3.2401443,-2.537131,0.87300545,0.84043205,1.9151193,1.0239354
0.058,3.2781904,-2.5648763,0.738975,0.848547,1.894682,1.0712749
0.06,3.3004003,-2.5783362,0.60070133,0.8598653,1.8780148,1.124356
0.062,3.307,-2.5755823,0.4576735,0.87419057,1.8651054,1.1822877
0.064,3.2982259,-2.5556128,0.30909926,0.8910963,1.8556166,1.2438397
0.066,3.2752328,-2.518459,0.1543892,0.90996194,1.8490043,1.3075576
0.068,3.2395155,-2.4644957,-0.0071909428,0.9301111,1.8446519,1.3718626
0.07,3.1922686,-2.3945413,-0.17660958,0.950956,1.8420777,1.43517
0.072,3.1346614,-2.3096738,-0.35440648,0.9720862,1.8409599,1.4960495
0.074,3.0678117,-2.211574,-0.5403154,0.99323857,1.8410463,1.5533804
0.076,2.9931548,-2.1025875,-0.73356605,1.0142711,1.8421443,1.6062449
0.078,2.9122436,-1.9852562,-0.93225515,1.035138,1.8440084,1.6539177
0.08,2.8261032,-1.8619628,-1.1340623,1.0558312,1.8462038,1.6960263
0.082,2.7359743,-1.7356352,-1.3365412,1.0762464,1.8478695,1.7325675
0.084,2.643384,-1.6095873,-1.537069,1.0961736,1.8478965,1.7637299
0.086,2.549623,-1.4873135,-1.7324519,1.1152365,1.8448809,1.7896922
0.088,2.4558215,-1.3722183,-1.9193751,1.1327283,1.8369656,1.8104639
0.09,2.362927,-1.2675947,-2.0941763,1.1475931,1.8219357,1.825745
0.092,2.271845,-1.1760005,-2.253406,1.1583879,1.7973213,1.8348076
0.094,2.1835306,-1.0996543,-2.3937519,1.1633701,1.760607,1.8366017
0.096,2.0984836,-1.0402534,-2.5122466,1.1606758,1.7094961,1.8300012
0.098,2.017256,-0.99878544,-2.6063278,1.1486105,1.6422303,1.8140442
0.1,1.9401922,-0.97581446,-2.6735873,1.1259476,1.5578723,1.7882192
0.102,1.8676431,-0.97147334,-2.7121928,1.0921729,1.4564792,1.7527344
0.104,1.7998414,-0.9853852,-2.7211776,1.0476587,1.3392873,1.7086623
0.106,1.7364452,-1.0163741,-2.7011592,0.9936698,1.2087367,1.6579025
0.108,1.6772497,-1.0629865,-2.6525714,0.93231153,1.0684054,1.6031466
0.11,1.622596,-1.1241432,-2.5756965,0.8663812,0.9227503,1.5475233
0.112,1.5721774,-1.197774,-2.4728408,0.7990657,0.7766438,1.4941993
0.114,1.5263,-1.2818947,-2.3471668,0.73354053,0.6349005,1.4460181
0.116,1.4853883,-1.374183,-2.2016423,0.6725697,0.5017078,1.4051379
0.118,1.4488271,-1.4714354,-2.0391295,0.61817604,0.3801521,1.3727496
0.12,1.4159753,-1.5705574,-1.8620044,0.57144797,0.271926,1.3489711
0.122,1.386961,-1.6692042,-1.6726913,0.5324571,0.17724283,1.3328856
0.124,1.3623544,-1.7658446,-1.474271,0.50034946,0.09490457,1.3227029
0.126,1.34225,-1.8593118,-1.270366,0.47360277,0.022701353,1.3160824
0.128,1.3263587,-1.9483397,-1.0650345,0.45036286,-0.042063057,1.310503
0.13,1.3147801,-2.0320022,-0.8624158,0.4287572,-0.10214874,1.3038055
0.132,1.3077286,-2.10962,-0.6653199,0.40712804,-0.1598936,1.2944113
0.134,1.3057057,-2.1811056,-0.47502702,0.38425416,-0.21681976,1.2812381
0.136,1.3089826,-2.2464914,-0.2915997,0.3594298,-0.2734971,1.2637904
0.138,1.3177072,-2.3061762,-0.11426526,0.33250147,-0.32951897,1.2422802
0.14,1.3320047,-2.3606114,0.057922363,0.30384985,-0.38352138,1.2174609
0.142,1.3510995,-2.4105992,0.22565544,0.27430502,-0.4333745,1.1904125
0.144,1.3729786,-2.4572387,0.38863814,0.24499743,-0.47653598,1.1623794
0.146,1.398378,-2.5029464,0.54618615,0.21725467,-0.51032764,1.1346285
0.148,1.4269032,-2.5489225,0.6963451,0.19239047,-0.5322491,1.1082122
0.15,1.4591495,-2.5954957,0.83866876,0.1716223,-0.54024816,1.0838538
0.152,1.4946291,-2.6413739,0.9745134,0.1558864,-0.53294396,1.0620484
0.154,1.5336436,-2.6854632,1.1053588,0.14578886,-0.5097151,1.0430908
0.156,1.5773519,-2.7270563,1.2296724,0.1415947,-0.47067183,1.0270556
0.158,1.6256785,-2.7648618,1.345847,0.14317511,-0.41672856,1.0138614
0.16,1.6770512,-2.7978046,1.451661,0.15001738,-0.3495611,1.0033573
0.162,1.7310554,-2.826406,1.544305,0.16123804,-0.27152705,0.99531496
0.164,1.7869558,-2.851252,1.6234581,0.1755998,-0.18550569,0.9894916
0.166,1.843144,-2.8724742,1.6933191,0.19160286,-0.09470287,0.9856624
0.168,1.8986601,-2.8901548,1.7585018,0.20758258,-0.002586633,0.98356533
0.17,1.9532616,-2.90473,1.822068,0.2217358,0.08720963,0.9828052
0.172,2.0070198,-2.9163673,1.8859224,0.23210752,0.17096183,0.982762
0.174,2.059846,-2.9242637,1.9509606,0.23665275,0.24492644,0.9825879
0.176,2.111426,-2.927317,2.0169578,0.23346035,0.3056345,0.98141587
0.178,2.1616945,-2.9249778,2.0841975,0.22098926,0.35014215,0.97848165
0.18,2.2104795,-2.9170206,2.1540837,0.198152,0.3763091,0.97328186
0.182,2.2573402,-2.9032514,2.2276402,0.16463508,0.38316244,0.96557975
0.184,2.3019264,-2.8833086,2.3050723,0.12107653,0.37130654,0.95550734
0.186,2.3436518,-2.8566399,2.3861322,0.06913699,0.34316316,0.9435843
0.188,2.3818872,-2.822775,2.4697058,0.01145217,0.30257028,0.9306282
0.19,2.4163291,-2.7818103,2.5544086,-0.048447516,0.2546687,0.9178175
0.192,2.4464097,-2.7333772,2.638605,-0.106486514,0.20546776,0.9068201
0.194,2.471224,-2.6770272,2.7200646,-0.1584605,0.16126348,0.899817
0.196,2.4895463,-2.6125615,2.7960231,-0.2004118,0.12815279,0.89920855
0.198,2.500592,-2.5404384,2.8644333,-0.22897623,0.11155808,0.9069984
0.2,2.5032158,-2.461178,2.9235184,-0.24192101,0.11539486,0.92428005
0.202,2.4965463,-2.3758028,2.9718537,-0.23856853,0.1414063,0.95101786
0.204,2.4795914,-2.2853968,3.0085945,-0.21997806,0.18892552,0.9859172
0.206,2.451487,-2.1911557,3.0333624,-0.18873996,0.25497603,1.0263647
0.208,2.4116874,-2.094328,3.0451865,-0.14861855,0.33472368,1.0687978
0.21,2.3601966,-1.9962763,3.042974,-0.10396184,0.42223126,1.1093105
0.212,2.2969193,-1.8981214,3.0262606,-0.05898591,0.51146674,1.144363
0.214,2.222107,-1.8009675,2.9951193,-0.017125942,0.59722793,1.1713945
0.216,2.1365032,-1.7057871,2.9498494,0.019422267,0.6758372,1.1891971
0.218,2.04119,-1.6134572,2.8907077,0.04992453,0.745546,1.1980466
0.22,1.93736,-1.5246004,2.8183455,0.074996084,0.806607,1.199503
0.222,1.8266332,-1.4399097,2.7333846,0.09630906,0.8609779,1.1959646
0.224,1.710691,-1.3596013,2.6363215,0.11612048,0.9117279,1.19009
0.226,1.5911841,-1.2839556,2.5272799,0.13677318,0.9622635,1.184227
0.228,1.4699862,-1.2133191,2.4067006,0.16019863,1.0156444,1.1799805
0.23,1.34903,-1.1480904,2.2754388,0.18753676,1.0739874,1.1779566
0.232,1.229895,-1.088284,2.1343193,0.21893427,1.1380868,1.1778412
0.234,1.1147109,-1.034337,1.9843193,0.25375575,1.207395,1.1786586
0.236,1.0058304,-0.98654556,1.8269387,0.2906985,1.2802033,1.1791993
0.238,0.9049628,-0.94488645,1.663572,0.32811767,1.3539754,1.1783683
0.24,0.81366587,-0.9094165,1.4952898,0.36435917,1.4258099,1.175457
0.242,0.7333542,-0.8798313,1.3227019,0.39798343,1.4931711,1.1702149
0.244,0.6649654,-0.8560794,1.1462247,0.42785698,1.5539597,1.1626097
0.246,0.6093631,-0.83791745,0.96622324,0.45323217,1.6066352,1.1525804
0.248,0.5672328,-0.8256263,0.7832204,0.47370797,1.6501938,1.1399283
0.25,0.5392324,-0.8194603,0.59839547,0.48906243,1.6839955,1.1244826
0.252,0.5267849,-0.81957614,0.4133495,0.49919575,1.7076873,1.1063184
0.254,0.53142244,-0.82586646,0.23066078,0.50427705,1.7214417,1.0857346
0.256,0.55188316,-0.837162,0.05264172,0.50479937,1.7260307,1.0631143
0.258,0.58778477,-0.8535695,-0.11785181,0.50150985,1.7226179,1.0389489
0.26,0.6390983,-0.8762592,-0.27905017,0.49529687,1.7125589,1.0139046
0.262,0.70555806,-0.90667313,-0.43046457,0.4870821,1.6972752,0.98871917
0.264,0.785557,-0.945192,-0.5722149,0.47771162,1.6780715,0.96411073
0.266,0.87906635,-0.9917333,-0.70181847,0.46785992,1.6560533,0.9406474
0.268,0.98635334,-1.045164,-0.81708974,0.45797428,1.6320733,0.91873324
0.27,1.1070355,-1.102934,-0.9178997,0.4483015,1.6067917,0.89867103
0.272,1.2401029,-1.1621647,-1.0044965,0.43886048,1.5806894,0.88062584
0.274,1.3852473,-1.2214216,-1.079378,0.42951623,1.5541167,0.86460435
0.276,1.5421078,-1.2802323,-1.1464128,0.42003527,1.5273837,0.85049593
0.278,1.7093886,-1.3388385,-1.2080677,0.41014662,1.5008072,0.8381829
0.28,1.8858668,-1.3975656,-1.2641057,0.3996366,1.4747665,0.8275864
0.282,2.0690248,-1.4562055,-1.3123753,0.38839045,1.4497066,0.8185953
0.284,2.2566543,-1.5151393,-1.3510387,0.37636295,1.4260404,0.8111
0.286,2.4471555,-1.5744343,-1.3796129,0.36364624,1.4042485,0.80506176
0.288,2.63929,-1.6334037,-1.3984599,0.3504361,1.3847866,0.80050266
0.29,2.8316078,-1.6902931,-1.4088713,0.33699405,1.3680043,0.7975615
0.292,3.0221288,-1.7432103,-1.4126296,0.32359514,1.3541305,0.79640615
0.294,3.2091622,-1.7912434,-1.4120722,0.31047615,1.3432546,0.7971959
0.296,3.3915067,-1.8340744,-1.4096603,0.29783595,1.3352892,0.80012524
0.298,3.5675268,-1.8713757,-1.4068158,0.28582782,1.3299505,0.8054019
0.3,3.7358294,-1.9025898,-1.4040238,0.27454525,1.3267865,0.81320983
0.302,3.8944812,-1.9274718,-1.401687,0.264019,1.3252918,0.8237174
0.304,4.042375,-1.9462619,-1.4004793,0.25423318,1.3249681,0.83704597
0.306,4.1790347,-1.9591739,-1.4014256,0.24510272,1.3253925,0.8532584
0.308,4.3037376,-1.9661845,-1.4058368,0.23651654,1.3263123,0.8723903
0.31,4.415847,-1.9672081,-1.4149619,0.22835268,1.3276167,0.8944919
0.312,4.5148606,-1.9622757,-1.4293716,0.22045645,1.3293556,0.91955113
0.314,4.6005096,-1.9515343,-1.4496372,0.21263881,1.3317479,0.94749033
0.316,4.672667,-1.9350836,-1.4762346,0.20471898,1.3349652,0.97827303
0.318,4.7305293,-1.9128184,-1.5082862,0.19646856,1.3390746,1.0118821
0.32,4.773258,-1.8848667,-1.5448105,0.18757635,1.3439971,1.0482955
0.322,4.8005414,-1.8515835,-1.5848143,0.17766607,1.3495522,1.0873566
0.324,4.8121247,-1.81348,-1.6277074,0.16631204,1.3553666,1.128728
0.326,4.8084226,-1.7712582,-1.6737467,0.15312427,1.360801,1.1720096
0.328,4.788366,-1.7246938,-1.7205327,0.13779563,1.3650125,1.2167932
0.33,4.7529125,-1.6753863,-1.7625879,0.12014961,1.3670782,1.2626375
0.332,4.700571,-1.6228749,-1.8006666,0.100198,1.3661424,1.3089828
0.334,4.6304646,-1.566281,-1.8366561,0.07813838,1.3614786,1.3552005
0.336,4.544144,-1.5064877,-1.865753,0.05437416,1.3524932,1.4007539
0.338,4.440487,-1.4430286,-1.8885466,0.029485136,1.3387935,1.4452338
0.34,4.3210063,-1.3767847,-1.9062217,0.0041396916,1.3201971,1.4884009
0.342,4.1888785,-1.3115171,-1.9091579,-0.020968005,1.296793,1.5301929
0.344,4.0401587,-1.2458103,-1.8922404,-0.04512997,1.2689054,1.5707134
0.346,3.8731782,-1.1769934,-1.8642914,-0.06767653,1.2370088,1.6101747
0.348,3.7003589,-1.1103783,-1.8283827,-0.08799887,1.2017123,1.648833
0.35,3.5237272,-1.0475807,-1.7767513,-0.10560611,1.1637852,1.6869167
0.352,3.3337328,-0.98528564,-1.7054505,-0.12012841,1.1240841,1.7245376
0.354,3.131807,-0.9235178,-1.6227007,-0.13126323,1.0834789,1.761691
0.356,2.9258351,-0.8650172,-1.5339845,-0.13877776,1.0427371,1.7982149
0.358,2.71712,-0.808921,-1.4368134,-0.14259261,1.0022916,1.8336948
0.36,2.5026908,-0.7542807,-1.3274217,-0.14280841,0.9624295,1.8675573
0.362,2.2853165,-0.703757,-1.2049584,-0.13951568,0.92358047,1.899084
0.364,2.0691218,-0.6602522,-1.0701119,-0.1330219,0.8857407,1.9273545
0.366,1.8551962,-0.6241414,-0.9241984,-0.12398532,0.8483763,1.9517244
0.368,1.6450396,-0.5945744,-0.76957786,-0.113015845,0.8114756,1.9717927
0.37,1.4402745,-0.5703168,-0.60877514,-0.10087937,0.77518374,1.9868963
0.372,1.2419736,-0.55010074,-0.4435235,-0.08880205,0.7390301,1.996524
0.374,1.051672,-0.5331963,-0.27543545,-0.077823885,0.7029206,2.000668
0.376,0.87070286,-0.5189104,-0.10575274,-0.068475686,0.667278,1.9996705
0.378,0.7005998,-0.5066587,0.064097896,-0.06117747,0.632535,1.994293
0.38,0.5420925,-0.49588832,0.23270649,-0.056336887,0.5990885,1.9851885
0.382,0.39614657,-0.48620653,0.39747134,-0.053988114,0.5680864,1.9725487
0.384,0.26346397,-0.47738123,0.55532527,-0.053747326,0.5409382,1.95682
0.386,0.14553961,-0.46919924,0.70441425,-0.055105627,0.51850766,1.9391015
0.388,0.042432427,-0.4611289,0.84363085,-0.057515755,0.50152504,1.9203621
0.39,-0.044637233,-0.45358682,0.97184044,-0.060340777,0.4909538,1.9009291
0.392,-0.11413965,-0.44725233,1.0866922,-0.06278287,0.4877231,1.8809311
0.394,-0.16519633,-0.4427716,1.1858199,-0.063986555,0.492245,1.8605304
0.396,-0.1979951,-0.44041452,1.2675943,-0.06318176,0.50433236,1.8397447
0.398,-0.21220124,-0.44067872,1.3304892,-0.05982913,0.52320075,1.8183601
0.4,-0.20749599,-0.44440052,1.3737237,-0.053726986,0.5474633,1.7959716
0.402,-0.18353662,-0.4524181,1.3983235,-0.045128107,0.57521975,1.7719743
0.404,-0.14049596,-0.46501055,1.4066386,-0.034720726,0.60430104,1.7457255
0.406,-0.0790779,-0.48228216,1.401167,-0.02351899,0.63269204,1.7167463
0.408,0.00029680133,-0.5049459,1.3832736,-0.012750745,0.65873635,1.684845
0.41,0.09703788,-0.53364027,1.353703,-0.0036746827,0.6813804,1.6501545
0.412,0.21056786,-0.56884766,1.3138797,0.0026868153,0.70038885,1.6132724
0.414,0.3396531,-0.61060673,1.2661449,0.0056025423,0.7159169,1.5751709
0.416,0.48270464,-0.6586552,1.2134454,0.004475672,0.7281877,1.5370946
0.418,0.6377363,-0.7126169,1.1585059,-0.00081552565,0.7381458,1.5003814
0.42,0.8029659,-0.77210486,1.104119,-0.009936072,0.746907,1.4659978
0.422,0.9760959,-0.83620626,1.0524229,-0.022497177,0.7548004,1.4346347
0.424,1.1547922,-0.903797,1.0051183,-0.037913546,0.7620847,1.4068884
0.426,1.3367084,-0.97373533,0.9632869,-0.05542711,0.7693081,1.3827416
0.428,1.5201225,-1.0448991,0.92743856,-0.07476101,0.776318,1.3614675
0.43,1.7026925,-1.1157721,0.89783365,-0.096044175,0.7827183,1.3420506
0.432,1.8813999,-1.1849856,0.8739414,-0.11921558,0.7886807,1.3232433
0.434,2.0532796,-1.2511725,0.8547378,-0.1439951,0.7948345,1.304088
0.436,2.215997,-1.3134574,0.84029204,-0.17015493,0.8016016,1.2840524
0.438,2.3675003,-1.3714573,0.82849044,-0.19736104,0.8098239,1.2624393
0.44,2.5042732,-1.4232403,0.8146672,-0.22491623,0.82102215,1.2384808
0.442,2.62602,-1.4693313,0.80073947,-0.2519108,0.83649355,1.2121246
0.444,2.7314825,-1.5105718,0.7891915,-0.27744395,0.85695595,1.1839572
0.446,2.8165388,-1.5454949,0.77484107,-0.30078188,0.88284177,1.1544436
0.448,2.8785791,-1.5734832,0.75853616,-0.32136598,0.91453177,1.1237918
0.45,2.9199123,-1.5963907,0.73965997,-0.33881298,0.95215887,1.0921875
0.452,2.938945,-1.6123632,0.7096994,-0.35297993,0.9955422,1.0597982
0.454,2.939369,-1.624377,0.6684709,-0.3639091,1.044255,1.0267
0.456,2.9216704,-1.6341591,0.62414783,-0.3718212,1.0976053,0.9929348
0.458,2.8759415,-1.636666,0.5752805,-0.3771326,1.1545923,0.9583917
0.46,2.8043935,-1.631699,0.5125535,-0.3804524,1.213921,0.922825
0.462,2.7186694,-1.6238394,0.43685538,-0.38245475,1.2741494,0.8859561
0.464,2.617282,-1.6133412,0.36142004,-0.3837938,1.3336868,0.8476945
0.466,2.4943852,-1.5989451,0.29323897,-0.3850288,1.3908215,0.80813575
0.468,2.3528702,-1.5831356,0.23041514,-0.38653722,1.4439371,0.7675314
0.47,2.1993396,-1.5680982,0.17055324,-0.3884348,1.4916255,0.72630954
0.472,2.034437,-1.5520808,0.11462551,-0.3906786,1.532476,0.6851455
0.474,1.8591623,-1.5339427,0.06454301,-0.39310944,1.5654179,0.6448584
0.476,1.6773757,-1.5146612,0.022297774,-0.39549533,1.589793,0.606251
0.478,1.4930489,-1.4959276,-0.009845776,-0.39747745,1.6052828,0.57009125
0.48,1.3093053,-1.4789141,-0.030433796,-0.3985297,1.6123319,0.5372412
0.482,1.1296903,-1.4636176,-0.03897112,-0.3981488,1.6117799,0.5085863
0.484,0.957325,-1.4498776,-0.035047665,-0.39590102,1.6047764,0.48492062
0.486,0.7949983,-1.4375789,-0.018785253,-0.39123607,1.5928752,0.46687454
0.488,0.6448979,-1.4264688,0.009098753,-0.38374677,1.5777016,0.45486265
0.49,0.5097947,-1.4163935,0.04809752,-0.37322238,1.560838,0.44911343
0.492,0.39187294,-1.4076942,0.09796265,-0.35950625,1.5438817,0.4497545
0.494,0.29315454,-1.4005065,0.15747747,-0.34239268,1.5285327,0.45673552
0.496,0.21447301,-1.3951145,0.2232451,-0.3217004,1.5163057,0.46973062
0.498,0.15756315,-1.3918263,0.2921105,-0.29743513,1.5081654,0.48808983
0.5,0.12212485,-1.390533,0.36213657,-0.2699014,1.5042305,0.51084584
0.502,0.10815358,-1.3915961,0.432147,-0.2398532,1.5035213,0.53669405
0.504,0.115626454,-1.3954372,0.501657,-0.20863223,1.5038605,0.56394476
0.506,0.14366281,-1.4025936,0.5704705,-0.17810816,1.5020711,0.59058696
0.508,0.19021219,-1.4133508,0.63795745,-0.1505807,1.494394,0.61450726
0.51,0.2534778,-1.4279438,0.70356685,-0.12846565,1.4771502,0.63379467
0.512,0.3315134,-1.446588,0.76668894,-0.11396694,1.4473717,0.646933
0.514,0.4217217,-1.4689474,0.82678133,-0.108744085,1.4033239,0.65304875
0.516,0.52113605,-1.4945788,0.88392705,-0.11364007,1.3449227,0.652103
0.518,0.6272563,-1.5228775,0.93886375,-0.12853831,1.2737892,0.64484704
0.52,0.7367211,-1.5529859,0.9927632,-0.15241966,1.1929268,0.6327702
0.522,0.84651935,-1.5835603,1.0464779,-0.18356276,1.1061932,0.61792904
0.524,0.95392823,-1.6134483,1.1002444,-0.21988922,1.0176126,0.60262126
0.526,1.0561233,-1.6412824,1.1541777,-0.25927228,0.9308703,0.5890206
0.528,1.1509914,-1.6655571,1.208056,-0.29981306,0.84882534,0.5789219
0.53,1.2362379,-1.6848447,1.2613312,-0.3400929,0.7733513,0.57356215
0.532,1.3096508,-1.6976515,1.3136191,-0.3792197,0.70557296,0.5735216
0.534,1.3693769,-1.7026905,1.3645664,-0.4167781,0.6458083,0.5786702
0.536,1.4138191,-1.6988404,1.4136276,-0.4525665,0.59429526,0.5884439
0.538,1.4415215,-1.6853695,1.4599311,-0.4864464,0.55150497,0.6021028
0.54,1.4512451,-1.6617827,1.5021822,-0.51827437,0.5181411,0.61890507
0.542,1.4427973,-1.6277453,1.539054,-0.54759425,0.49536985,0.6382493
0.544,1.4159583,-1.582929,1.5701149,-0.5737114,0.48452193,0.6596777
0.546,1.3698986,-1.5270438,1.5945388,-0.59594727,0.48664206,0.6828206
0.548,1.3053402,-1.460883,1.6110754,-0.6138278,0.5020474,0.7074569
0.55,1.2232965,-1.3857634,1.619045,-0.62708193,0.53040785,0.7334893
0.552,1.1250782,-1.3033525,1.6178048,-0.6356317,0.57087314,0.760777
0.554,1.010963,-1.2145029,1.6052799,-0.639648,0.6220461,0.7889993
0.556,0.88145745,-1.1212504,1.583522,-0.63949,0.68220925,0.8176881
0.558,0.74108964,-1.026787,1.5556371,-0.6355977,0.7495309,0.8463069
0.56,0.5866792,-0.9292172,1.5217545,-0.6284584,0.82217216,0.8742611
0.562,0.42004585,-0.8299055,1.4816588,-0.61851144,0.89844143,0.9009188
0.564,0.24438876,-0.73189664,1.4382143,-0.60614383,0.97676355,0.9255706
0.566,0.06296483,-0.639446,1.3960897,-0.59167016,1.0557392,0.94761884
0.568,-0.122266024,-0.5545155,1.3577758,-0.5753517,1.1341797,0.96657765
0.57,-0.3073396,-0.4785035,1.324917,-0.55742043,1.2110513,0.9820966
0.572,-0.49044442,-0.41186604,1.296428,-0.5380789,1.2854546,0.994027
0.574,-0.6704955,-0.35471937,1.2709256,-0.51753616,1.3566136,1.0023631
0.576,-0.84669346,-0.30690733,1.2490096,-0.49602002,1.4239321,1.0071687
0.578,-1.0189005,-0.26792023,1.2342536,-0.47379258,1.4869777,1.0085971
0.58,-1.1858671,-0.23727,1.2307231,-0.45118043,1.5454304,1.0068842
0.582,-1.3465827,-0.21455723,1.2393544,-0.4286006,1.5989971,1.0022998
0.584,-1.5007915,-0.20048434,1.2608559,-0.4064618,1.6476115,0.99514204
0.586,-1.6474543,-0.19665825,1.2959956,-0.38518912,1.691477,0.9855845
0.588,-1.786664,-0.20364928,1.3450098,-0.365175,1.7306616,0.9738814
0.59,-1.9177804,-0.22149146,1.4093759,-0.34679967,1.7652624,0.9604415
0.592,-2.04009,-0.24979615,1.489207,-0.33047074,1.7952781,0.9455698
0.594,-2.1528144,-0.2871169,1.5823554,-0.31657296,1.82089,0.9294652
0.596,-2.2555745,-0.33205056,1.6859831,-0.305398,1.8424733,0.9123353
0.598,-2.3477938,-0.38385868,1.797278,-0.29709983,1.8602989,0.8944797
0.6,-2.429274,-0.44182098,1.9134527,-0.29169196,1.8744309,0.876222
0.602,-2.4997795,-0.50499487,2.0326989,-0.2890762,1.8850358,0.85773444
0.604,-2.559219,-0.5722388,2.1540015,-0.28911144,1.892292,0.8390329
0.606,-2.6075287,-0.64264286,2.2766101,-0.29160613,1.8963242,0.8201032
0.608,-2.6442955,-0.7155554,2.399457,-0.29624772,1.8972108,0.8009664
0.61,-2.6691208,-0.79036677,2.520542,-0.3026225,1.8948137,0.7816746
0.612,-2.6808252,-0.8665112,2.6372163,-0.31036806,1.888806,0.76226866
0.614,-2.678751,-0.94333524,2.7464375,-0.31930304,1.8786948,0.7426955
0.616,-2.6616256,-1.0203784,2.8451986,-0.32940066,1.8640503,0.72289526
0.618,-2.6284065,-1.0969138,2.9312992,-0.34064746,1.8446758,0.70294183
0.62,-2.5782394,-1.1719503,3.002722,-0.35291725,1.820441,0.6830995
0.622,-2.5106823,-1.2444476,3.0576718,-0.36589694,1.7914212,0.6637744
0.624,-2.4249957,-1.3136916,3.0952888,-0.37913448,1.757864,0.6454136
0.626,-2.3203018,-1.379276,3.114978,-0.392107,1.7201883,0.628521
0.628,-2.196499,-1.4405191,3.1164744,-0.404217,1.678941,0.6136931
0.63,-2.052783,-1.4972873,3.0998793,-0.41486746,1.6346717,0.6016822
0.632,-1.888814,-1.5495634,3.0655217,-0.42351532,1.587968,0.5932765
0.634,-1.7049245,-1.5969867,3.0133846,-0.4297538,1.539577,0.5891891
0.636,-1.499524,-1.6401892,2.9417279,-0.43337655,1.4904622,0.5899676
0.638,-1.2721337,-1.6794982,2.8470273,-0.4344375,1.4416473,0.59595317
0.64,-1.0253553,-1.7145988,2.7298486,-0.43316823,1.3942502,0.60731304
0.642,-0.756608,-1.7482167,2.596783,-0.42990455,1.3496984,0.6238692
0.644,-0.4723891,-1.7775207,2.44853,-0.42499304,1.3092484,0.6451931
0.646,-0.17445523,-1.8024716,2.2910705,-0.4186752,1.2739286,0.6708758
0.648,0.13644975,-1.8251766,2.1338687,-0.41113338,1.2442857,0.7004176
0.65,0.45662564,-1.8454361,1.9766823,-0.40251416,1.2205249,0.7331078
0.652,0.782446,-1.8625388,1.8152583,-0.3929516,1.2028513,0.7680648
0.654,1.1115999,-1.8764026,1.6491714,-0.38258615,1.1914266,0.80438346
0.656,1.4417944,-1.8869364,1.4810324,-0.37153357,1.1861627,0.84124625
0.658,1.7702783,-1.8941324,1.3134431,-0.35992235,1.1868702,0.87783384
0.66,2.0919776,-1.8980918,1.1499109,-0.34799206,1.1932954,0.9132379
0.662,2.4013863,-1.8988874,0.9928071,-0.33612567,1.2051642,0.9464977
0.664,2.7045882,-1.9027205,0.8551495,-0.3248265,1.2221364,0.97667134
0.666,2.9993606,-1.9099951,0.7464783,-0.31466538,1.2434607,1.0030383
0.668,3.2726827,-1.913441,0.66304135,-0.30616054,1.268031,1.0251336
0.67,3.517508,-1.9101477,0.6015972,-0.30006486,1.2940402,1.0424645
0.672,3.7326498,-1.9010307,0.5612663,-0.29751238,1.3191006,1.0547388
0.674,3.915854,-1.8857256,0.5431216,-0.29957762,1.3416119,1.0617368
0.676,4.061538,-1.8622527,0.55335426,-0.30744785,1.359929,1.0632861
0.678,4.165547,-1.8288189,0.59867495,-0.32222518,1.3727463,1.0595292
0.68,4.2251472,-1.7839334,0.680423,-0.3445095,1.3799871,1.0505891
0.682,4.239618,-1.7269157,0.7958162,-0.3746044,1.3820179,1.0365454
0.684,4.208314,-1.6571226,0.9408246,-0.41260657,1.3793856,1.0176004
0.686,4.130088,-1.5734202,1.1113086,-0.45830286,1.3732232,0.9939491
0.688,4.005086,-1.4744586,1.3029087,-0.51116145,1.3651483,0.9656207
0.69,3.8331327,-1.3592825,1.512504,-0.5702423,1.3568486,0.93264884
0.692,3.6157737,-1.227886,1.7383325,-0.63387823,1.3501096,0.89528716
0.694,3.3563714,-1.0798867,1.9755576,-0.69971037,1.3467888,0.85423225
0.696,3.0588768,-0.9151405,2.2167656,-0.7647244,1.3491191,0.81055444
0.698,2.728641,-0.73496974,2.454005,-0.825243,1.3593538,0.7652054
0.7,2.3707762,-0.54187,2.6788237,-0.8774465,1.3786352,0.719162
0.702,1.9913279,-0.33932066,2.8852618,-0.9179486,1.4070685,0.6737856
0.704,1.5962329,-0.13104922,3.0695853,-0.94436264,1.4441682,0.63052887
0.706,1.192126,0.079565465,3.2289903,-0.9556991,1.4889019,0.5904921
0.708,0.7854478,0.28953433,3.3609526,-0.9522823,1.539786,0.5541866
0.71,0.38241488,0.49578795,3.463027,-0.9355578,1.594933,0.5214932
0.712,-0.011354208,0.6951171,3.5332482,-0.90786475,1.6521077,0.4918044
0.714,-0.39104402,0.88420105,3.5709195,-0.8721819,1.7087888,0.46414816
0.716,-0.75211805,1.0600224,3.5765555,-0.83174336,1.7621946,0.43736076
0.718,-1.0912578,1.2203753,3.5522616,-0.7895411,1.809492,0.41025257
0.72,-1.4056352,1.3636504,3.5015092,-0.74800175,1.8481764,0.3816417
0.722,-1.6935749,1.4885024,3.4291837,-0.7089485,1.8762059,0.35051924
0.724,-1.953975,1.5940905,3.3407664,-0.6734926,1.892311,0.3162308
0.726,-2.186163,1.6799755,3.241548,-0.642189,1.8960236,0.27823773
0.728,-2.3899474,1.7462275,3.1363297,-0.615536,1.8870801,0.23631005
0.73,-2.5654347,1.7931786,3.0297406,-0.5937078,1.86651,0.19056785
0.732,-2.7130873,1.8219795,2.9260867,-0.5766809,1.8362119,0.14126702
0.734,-2.8337324,1.8341067,2.8290038,-0.5643854,1.7982181,0.089022785
0.736,-2.9282079,1.8312879,2.7414837,-0.5563824,1.7553017,0.034647062
0.738,-2.9975872,1.8152266,2.6657953,-0.5517988,1.7104945,-0.021091983
0.74,-3.0429044,1.7879316,2.6032069,-0.54954684,1.6661978,-0.07731326
0.742,-3.0649977,1.7513108,2.5543811,-0.5484168,1.6241283,-0.133028
0.744,-3.0646105,1.7071433,2.5198212,-0.54726726,1.5856341,-0.1874765
0.746,-3.0434291,1.6574303,2.500442,-0.54534185,1.551584,-0.24030147
0.748,-3.0019927,1.6035511,2.4972897,-0.5422137,1.5224495,-0.29156512
0.75,-2.9381375,1.546108,2.5063982,-0.5377972,1.4982557,-0.34146208
0.752,-2.8548825,1.4878812,2.5194628,-0.53237563,1.4790299,-0.3898981
0.754,-2.7472079,1.426481,2.5355332,-0.52626836,1.465362,-0.4368292
0.756,-2.6164498,1.3629001,2.5493355,-0.51970685,1.4575939,-0.4824773
0.758,-2.4647393,1.2996418,2.554771,-0.5127963,1.4552778,-0.52690846
0.76,-2.2914908,1.2361566,2.5563471,-0.505597,1.4574298,-0.56983656
0.762,-2.0974417,1.1718249,2.5593026,-0.4983072,1.4628022,-0.61075085
0.764,-1.8851571,1.106997,2.562857,-0.49125975,1.4701556,-0.6491701
0.766,-1.6573977,1.0423241,2.563346,-0.48471934,1.4784662,-0.6847956
0.768,-1.4164525,0.9788235,2.5581295,-0.47874498,1.4870678,-0.7175339
0.77,-1.1632781,0.9176247,2.5448854,-0.47325194,1.4956776,-0.747466
0.772,-0.89957446,0.85950655,2.5233617,-0.4681594,1.5043035,-0.7747876
0.774,-0.6354049,0.8092927,2.4855483,-0.46338594,1.5131383,-0.79967517
0.776,-0.37104276,0.76587224,2.4285347,-0.45880872,1.5225413,-0.8222441
0.778,-0.10138816,0.72284484,2.362245,-0.45425117,1.5330504,-0.8425661
0.78,0.17169422,0.6792346,2.295417,-0.44949475,1.5453305,-0.8606671
0.782,0.44081742,0.6388702,2.2293901,-0.44429913,1.5600287,-0.876495
0.784,0.700984,0.60474765,2.1606889,-0.43846083,1.5776109,-0.8900022
0.786,0.9502989,0.57746184,2.0845532,-0.4319239,1.5982203,-0.9012066
0.788,1.1858695,0.5568783,1.9990197,-0.42482972,1.6216817,-0.9102247
0.79,1.4029493,0.54327404,1.906604,-0.41743302,1.647552,-0.91721505
0.792,1.5975666,0.53774625,1.8122922,-0.41010994,1.6751757,-0.9223723
0.794,1.7670358,0.5408988,1.7204282,-0.4033266,1.7037108,-0.9259639
0.796,1.909756,0.55289006,1.6331177,-0.39756012,1.7322617,-0.92835
0.798,2.0235481,0.5731133,1.54983,-0.3932587,1.7599083,-0.9299966
0.8,2.1066267,0.6007395,1.4708205,-0.39084855,1.7857246,-0.9314849
0.802,2.1578646,0.6348598,1.3981782,-0.39065507,1.8089325,-0.93344307
0.804,2.1766005,0.67496204,1.3336859,-0.39291203,1.828886,-0.93655044
0.806,2.1625135,0.72093344,1.2787647,-0.3977632,1.8450402,-0.941572
0.808,2.1157262,0.77254844,1.2345263,-0.40522072,1.8570452,-0.94933075
0.81,2.0372994,0.8294502,1.2015746,-0.41514796,1.8647709,-0.960599
0.812,1.9280915,0.8911203,1.180555,-0.4272747,1.8683016,-0.9761054
0.814,1.7893822,0.9568671,1.1722283,-0.44119027,1.8679347,-0.996429
0.816,1.6228359,1.0254518,1.1772224,-0.4563896,1.8641812,-1.0219463
0.818,1.43005,1.0957015,1.196076,-0.47224516,1.8577136,-1.0527635
0.82,1.2131873,1.1664076,1.2296842,-0.48809555,1.8492814,-1.0886898
0.822,0.97444224,1.2366805,1.2781969,-0.5032848,1.839672,-1.1291778
0.824,0.7162087,1.3058914,1.3418946,-0.51717895,1.8297477,-1.1733421
0.826,0.4406284,1.3738736,1.4202068,-0.52921796,1.8202798,-1.2199852
0.828,0.15005082,1.4404829,1.5121064,-0.538965,1.8118584,-1.2677605
0.83,-0.15301508,1.5055064,1.6169703,-0.54616416,1.8048822,-1.3152491
0.832,-0.4660334,1.5690466,1.7346448,-0.55072284,1.7996553,-1.3609742
0.834,-0.78697604,1.6311094,1.8644915,-0.5526027,1.7964841,-1.4035354
0.836,-1.1147118,1.692257,2.0055134,-0.5518086,1.7956138,-1.4417547
0.838,-1.4470898,1.7524219,2.1570148,-0.54836345,1.7972811,-1.4747075
0.84,-1.7799288,1.8106267,2.3191228,-0.5422274,1.8018081,-1.5017502
0.842,-2.1125007,1.8675499,2.4913192,-0.53331685,1.8095206,-1.522567
0.844,-2.4418077,1.9237448,2.6707323,-0.52154326,1.8206764,-1.5372508
0.846,-2.7660677,1.9806373,2.8540475,-0.5068445,1.8353723,-1.5462139
0.848,-3.0851152,2.0387468,3.0398164,-0.48918942,1.8534926,-1.5501027
0.85,-3.396019,2.0977643,3.228344,-0.4686824,1.8745661,-1.5497335
0.852,-3.6973188,2.1575615,3.4208698,-0.44557238,1.8978139,-1.5460027
0.854,-3.9870386,2.2175722,3.6167672,-0.42019665,1.9222611,-1.5398176
0.856,-4.2625694,2.2770014,3.8142607,-0.393004,1.9467545,-1.5320563
0.858,-4.5215282,2.3348246,4.0118265,-0.36446524,1.970217,-1.5234864
0.86,-4.7616224,2.3899674,4.2081547,-0.33500507,1.9918451,-1.5147158
0.862,-4.980283,2.4416924,4.40194,-0.30502155,2.011124,-1.5061643
0.864,-5.175548,2.488987,4.592368,-0.2748034,2.027919,-1.4981254
0.866,-5.345492,2.5309918,4.778664,-0.24451798,2.0425045,-1.490722
0.868,-5.488352,2.5665889,4.9599414,-0.21418822,2.0555296,-1.4839332
0.87,-5.6020985,2.5945747,5.1353946,-0.18372405,2.0679023,-1.4775872
0.872,-5.685372,2.613932,5.304467,-0.15299845,2.0805364,-1.471448
0.874,-5.7367406,2.6235886,5.4662275,-0.121756434,2.0945268,-1.4653047
0.876,-5.7554994,2.622898,5.6199355,-0.08982694,2.1106734,-1.4590378
0.878,-5.741093,2.6111653,5.764861,-0.057221413,2.1294847,-1.4525142
0.88,-5.6936364,2.588145,5.900031,-0.024066031,2.151469,-1.4454744
0.882,-5.6133904,2.5539408,6.0241437,0.009386063,2.1770205,-1.4376675
0.884,-5.5006795,2.5085151,6.137093,0.04283905,2.206473,-1.4290087
0.886,-5.356421,2.4523377,6.2388496,0.075905204,2.239828,-1.4195089
0.888,-5.1822248,2.3865137,6.328857,0.10804176,2.2766914,-1.4091868
0.89,-4.979605,2.3120618,6.4071317,0.13867414,2.3164656,-1.3980674
0.892,-4.7504005,2.2300134,6.473547,0.1672628,2.358321,-1.386214
0.894,-4.4966626,2.141551,6.527365,0.19332129,2.401212,-1.3737977
0.896,-4.2206025,2.0482326,6.5682106,0.21647906,2.4441051,-1.3611072
0.898,-3.9245944,1.9513531,6.5958204,0.23652232,2.4861274,-1.3484669
0.9,-3.6109526,1.8525664,6.6098604,0.25344825,2.5267067,-1.3361992
0.902,-3.2823963,1.7536547,6.61045,0.26747334,2.565692,-1.3245665
0.904,-2.9417367,1.6566294,6.5983553,0.2790439,2.6033802,-1.3137447
0.906,-2.5914664,1.5628183,6.5746665,0.2887817,2.6404505,-1.3037865
0.908,-2.2341957,1.47371,6.5411468,0.29742992,2.6778045,-1.2946167
0.91,-1.8726783,1.3910012,6.497759,0.30575097,2.716385,-1.2860265
0.912,-1.5098298,1.316598,6.4438715,0.3144577,2.7569575,-1.2776716
0.914,-1.1482867,1.2516377,6.3804193,0.32410383,2.7999701,-1.2691374
0.916,-0.7901746,1.1965778,6.3088517,0.33508343,2.8455055,-1.2600245
0.918,-0.43771195,1.15187,6.2303505,0.34759992,2.8932827,-1.2499645
0.92,-0.09316039,1.1178287,6.1458445,0.36167008,2.9427004,-1.2386875
0.922,0.24186313,1.0943199,6.0553713,0.37711662,2.9929664,-1.226052
0.924,0.5655136,1.0809922,5.9595237,0.39365292,3.0432434,-1.212048
0.926,0.87634254,1.0772336,5.859207,0.41092044,3.0927892,-1.1967456
0.928,1.1733139,1.0823838,5.755662,0.4284773,3.14083,-1.1802485
0.93,1.455237,1.0955609,5.649645,0.44598937,3.1869023,-1.1627078
0.932,1.7211761,1.1155853,5.5423403,0.4631878,3.23057,-1.1443548
0.934,1.9706416,1.140976,5.4346166,0.47978377,3.2713444,-1.1255254
0.936,2.2034552,1.1699265,5.327436,0.4954726,3.3088422,-1.1064367
0.938,2.4191976,1.2007432,5.221628,0.50994897,3.342739,-1.0871563
0.94,2.6173801,1.232146,5.1176033,0.52298236,3.3729362,-1.0676954
0.942,2.797718,1.2628387,5.015446,0.53442127,3.3994675,-1.0480186
0.944,2.9606333,1.2915366,4.9159956,0.5441815,3.4223688,-1.0280385
0.946,3.1069694,1.3166671,4.8202147,0.5522382,3.4417253,-1.0076276
0.948,3.2364945,1.3375213,4.7284822,0.5586519,3.4576874,-0.9866068
0.95,3.3474584,1.3545375,4.640261,0.5635619,3.4704776,-0.96480596
0.952,3.4421883,1.3662152,4.5561543,0.5671513,3.480392,-0.94213617
0.954,3.5201068,1.3719683,4.4782457,0.5696425,3.4878342,-0.918604
0.956,3.5820832,1.3709154,4.4077067,0.57128537,3.4932714,-0.8942492
0.958,3.6301398,1.3632567,4.3436494,0.5723025,3.497231,-0.86911464
0.96,3.663031,1.3503189,4.283869,0.5728625,3.5002658,-0.8432692
0.962,3.6809502,1.3330438,4.226367,0.5730531,3.5029445,-0.8167958
0.964,3.6837945,1.3129516,4.1718545,0.5729244,3.505851,-0.789785
0.966,3.6703913,1.2915459,4.1215343,0.5725193,3.509557,-0.76232207
0.968,3.6403284,1.270118,4.0759525,0.5719391,3.5145826,-0.7344252
0.97,3.5932016,1.2499385,4.035057,0.57131994,3.5213256,-0.7060853
0.972,3.5284019,1.2320306,3.9984665,0.570878,3.530088,-0.6773255
0.974,3.445944,1.2176814,3.9655466,0.57093215,3.5411286,-0.64815307
0.976,3.3455899,1.2081201,3.9360423,0.57192063,3.5546126,-0.61854887
0.978,3.2278137,1.2044975,3.9098744,0.5743641,3.5706577,-0.5885067
0.98,3.092482,1.2082365,3.886998,0.57881856,3.5893235,-0.55800676
0.982,2.9401853,1.2202673,3.8672016,0.58581436,3.6105564,-0.5270603
0.984,2.771626,1.2414064,3.8502724,0.5957944,3.6341941,-0.49570048
0.986,2.5876362,1.2716274,3.8362572,0.6090845,3.6599627,-0.46399772
0.988,2.3901958,1.3103887,3.8258286,0.6258672,3.6874318,-0.4320581
0.99,2.1805916,1.3569697,3.820219,0.6461989,3.716034,-0.40005004
0.992,1.960142,1.4108574,3.8193479,0.6699983,3.7450914,-0.36823952
0.994,1.7304256,1.4714113,3.82373,0.69707286,3.7738974,-0.33703637
0.996,1.4941696,1.537167,3.8345308,0.7271497,3.801724,-0.30696368
0.998,1.254594,1.606113,3.8524244,0.75986814,3.8278,-0.27864063
1,1.0141982,1.6767046,3.8767524,0.79479265,3.8513074,-0.25275457
1.002,0.7751477,1.747803,3.9068003,0.8313879,3.8713694,-0.23002183
1.004,0.540298,1.8177458,3.9433484,0.8690379,3.8870754,-0.21112597
1.006,0.31194293,1.8849981,3.9871998,0.9070827,3.8975897,-0.19668388
1.008,0.0922488,1.9481978,4.0389934,0.94479483,3.9021716,-0.18722129
1.01,-0.11662471,2.005722,4.0992208,0.9814177,3.9002461,-0.18310237
1.012,-0.31235123,2.0558357,4.167822,1.0163178,3.8915262,-0.18448627
1.014,-0.4925704,2.0972319,4.244338,1.0489702,3.8759394,-0.19136775
1.016,-0.65560865,2.1289134,4.3281302,1.0789498,3.8536747,-0.2035464
1.018,-0.79960907,2.1501293,4.4185915,1.1059535,3.8251293,-0.22064722
1.02,-0.92328525,2.16044,4.515376,1.1298572,3.7910094,-0.2421596
1.022,-1.0249857,2.1594741,4.6180987,1.1507393,3.7523246,-0.2675866
1.024,-1.1032422,2.147324,4.7258563,1.1688535,3.7101877,-0.29639924
1.026,-1.1570497,2.124123,4.837516,1.1845627,3.6658466,-0.32805252
1.028,-1.1855628,2.090292,4.951412,1.1983377,3.620553,-0.36211348
1.03,-1.188362,2.046522,5.0661755,1.2106699,3.5754876,-0.39828444
1.032,-1.165467,1.99365,5.181034,1.2220387,3.531674,-0.43629372
1.034,-1.1169039,1.9326552,5.295046,1.2328804,3.4899073,-0.4758396
1.036,-1.0434719,1.8648152,5.4072247,1.2435768,3.4508367,-0.51660705
1.038,-0.94544363,1.7907705,5.5156455,1.2544578,3.4149294,-0.5582427
1.04,-0.82200444,1.7108669,5.6204076,1.2657909,3.3824787,-0.60026455
1.042,-0.67715394,1.6273336,5.7198,1.277794,3.3535686,-0.64207804
1.044,-0.5126542,1.5413206,5.8114986,1.2905874,3.3281183,-0.6829839
1.046,-0.3282851,1.4533676,5.8953996,1.3041928,3.3058732,-0.7222848
1.048,-0.12690353,1.3649038,5.9711733,1.3185366,3.2864127,-0.75930953
1.05,0.08835673,1.2769207,6.0385957,1.333442,3.2692213,-0.79349303
1.052,0.31552875,1.1899655,6.0977583,1.3486481,3.2537398,-0.8244313
1.054,0.55262864,1.1046906,6.1484227,1.3638153,3.2394202,-0.8519422
1.056,0.7966596,1.021992,6.1905136,1.3785493,3.2257347,-0.8760575
1.058,1.044983,0.9419658,6.224267,1.3924222,3.2122102,-0.8969848
1.06,1.2955877,0.8644862,6.250248,1.4050231,3.198422,-0.9150673
1.062,1.5457424,0.78965425,6.2692804,1.4160006,3.1839786,-0.93068576
1.064,1.7931653,0.7173896,6.282355,1.4250872,3.1685095,-0.94425833
1.066,2.0358083,0.64768314,6.2902155,1.4320693,3.1516187,-0.95616186
1.068,2.2722466,0.5805547,6.2935266,1.4368546,3.1329184,-0.9666337
1.07,2.5010815,0.5157144,6.2931776,1.4394088,3.112043,-0.9758948
1.072,2.7214901,0.4529426,6.289985,1.4397603,3.0887377,-0.9842936
1.074,2.9326112,0.39170575,6.2843857,1.4379066,3.0624561,-0.99213636
1.076,3.1343718,0.33178687,6.2769346,1.4338636,3.032676,-0.99958384
1.078,3.3267522,0.27297044,6.2678466,1.4276265,2.9991636,-1.006923
1.08,3.510038,0.21490765,6.257676,1.419167,2.9616675,-1.014604
1.082,3.6848564,0.15718532,6.247208,1.4084895,2.920089,-1.022997
1.084,3.8518162,0.0997262,6.2364264,1.3956854,2.8745904,-1.0324246
1.086,4.0117598,0.042636395,6.2250853,1.380901,2.8255405,-1.0432453
1.088,4.1652813,-0.013774157,6.212616,1.3643657,2.7734962,-1.055769
1.09,4.3135324,-0.06935263,6.198057,1.3463607,2.7190864,-1.0700843
1.092,4.457346,-0.12395954,6.1806555,1.3271947,2.6630535,-1.0861273
1.094,4.5973916,-0.17732501,6.159704,1.3072319,2.6062124,-1.1037588
1.096,4.734432,-0.22864199,6.1342134,1.2868347,2.5494623,-1.122711
1.098,4.8680396,-0.27674413,6.1030803,1.2663646,2.4936986,-1.142592
1.1,4.998665,-0.32077217,6.0649023,1.2461684,2.4398222,-1.1629114
1.102,5.126118,-0.36028194,6.0195417,1.2265694,2.3887198,-1.1831622
1.104,5.2500644,-0.39480567,5.965532,1.2078637,2.3412373,-1.2028329
1.106,5.3694534,-0.4234383,5.901458,1.1903292,2.2981122,-1.2213895
1.108,5.483033,-0.4453497,5.826972,1.1742201,2.2599418,-1.2383206
1.11,5.58986,-0.45996785,5.742815,1.1597749,2.227209,-1.2531264
1.112,5.6894383,-0.46709418,5.6494036,1.1472135,2.2002554,-1.2653058
1.114,5.7803216,-0.46612954,5.545774,1.1367196,2.1792347,-1.2743928
1.116,5.8616567,-0.4569726,5.4313684,1.1284014,2.1641011,-1.2800109
1.118,5.932533,-0.43964624,5.3063,1.1223066,2.154565,-1.2818633
1.12,5.9919267,-0.41416454,5.171012,1.1183667,2.1500678,-1.2797999
1.122,6.0385823,-0.3807032,5.0262513,1.1164443,2.1498537,-1.2738194
1.124,6.0715775,-0.33989286,4.8730326,1.11636,2.152919,-1.2640132
1.126,6.090423,-0.29235578,4.7128725,1.1178448,2.158058,-1.2505083
1.128,6.0947466,-0.23906851,4.547395,1.1205785,2.1642046,-1.2336398
1.13,6.0846705,-0.1809752,4.3782988,1.1241916,2.1701596,-1.2139089
1.132,6.060361,-0.11938119,4.2071195,1.1283581,2.1746354,-1.1917841
1.134,6.0225735,-0.055829525,4.035375,1.1327605,2.1765425,-1.1677661
1.136,5.9724493,0.008358479,3.8643417,1.1370219,2.1748822,-1.1425419
1.138,5.9114246,0.0713985,3.6962812,1.1407654,2.1687624,-1.1168942
1.14,5.841272,0.13216925,3.5319247,1.1436547,2.1574876,-1.0915823
1.142,5.7636576,0.1896584,3.372488,1.1453879,2.140568,-1.0673869
1.144,5.680477,0.24279666,3.2191768,1.1457186,2.1177077,-1.0451217
1.146,5.5937486,0.29070127,3.0726748,1.1444877,2.0887823,-1.0254998
1.148,5.505142,0.33296144,2.9343097,1.1416138,2.0538797,-1.0090866
1.15,5.4153996,0.3694929,2.8036895,1.1371425,2.0132492,-0.9963115
1.152,5.3297343,0.39881587,2.681991,1.13122,1.9672489,-0.98745894
1.154,5.249917,0.42106128,2.5700877,1.1240808,1.9163275,-0.98264235
1.156,5.175901,0.43698096,2.4668603,1.1160157,1.8609542,-0.9818148
1.158,5.1109934,0.44646227,2.371522,1.1073532,1.8015786,-0.98485553
1.16,5.0576844,0.44978225,2.283228,1.098409,1.7386416,-0.9916213
1.162,5.016734,0.44770312,2.200824,1.0894648,1.6725795,-1.0019433
1.164,4.988659,0.44089687,2.1235547,1.0807123,1.6037822,-1.0156692
1.166,4.9746804,0.430045,2.050538,1.0722607,1.532598,-1.0326769
1.168,4.9751782,0.4163183,1.9810479,1.0641968,1.459588,-1.052755
1.17,4.98975,0.40086186,1.9139938,1.0565362,1.3853145,-1.0756207
1.172,5.0185966,0.38462436,1.8481863,1.049227,1.310349,-1.100979
1.174,5.0610375,0.36866415,1.7825882,1.0422368,1.2354195,-1.1284606
1.176,5.116079,0.3539636,1.716625,1.0355542,1.1613332,-1.1576409
1.178,5.1821575,0.34130502,1.6494569,1.0292026,1.0889336,-1.1880116
1.18,5.2577214,0.33162975,1.5802667,1.0232584,1.0190613,-1.2189828
1.182,5.3411837,0.32491815,1.5091158,1.0178957,0.95250666,-1.2499001
1.184,5.430863,0.32167423,1.4357271,1.0133653,0.889984,-1.2800379
1.186,5.5242796,0.32259667,1.360081,1.0100007,0.8320914,-1.3086486
1.188,5.619075,0.32770646,1.2827488,1.0082234,0.7793004,-1.334991
1.19,5.712927,0.33721113,1.2040782,1.0084918,0.7319156,-1.3583652
1.192,5.803636,0.35102803,1.1244763,1.0112573,0.6900354,-1.3781809
1.194,5.888855,0.36893755,1.0447869,1.0169486,0.6535497,-1.3939517
1.196,5.9666224,0.3905493,0.9659144,1.0259513,0.6221416,-1.4053061
1.198,6.034742,0.41550314,0.8891255,1.0385507,0.5952923,-1.4120073
1.2,6.091386,0.44340277,0.8159286,1.0549173,0.5723481,-1.4139618
1.202,6.1350827,0.4739653,0.74766725,1.0750703,0.552553,-1.4112463
1.204,6.164816,0.5066704,0.685244,1.0989019,0.53510964,-1.4040282
1.206,6.180394,0.5407126,0.62956095,1.1262256,0.5192801,-1.3925703
1.208,6.1817207,0.5754094,0.5809911,1.156775,0.5043697,-1.3771999
1.21,6.1691885,0.60994685,0.5398223,1.1902212,0.4897298,-1.3583322
1.212,6.1436706,0.64354366,0.5062086,1.2262592,0.47489318,-1.3363471
1.214,6.1062837,0.67564106,0.48016188,1.2645552,0.45952016,-1.31155
1.216,6.058938,0.70555913,0.46149433,1.304718,0.44317272,-1.2843878
1.218,6.003411,0.73320603,0.44986036,1.3463522,0.42546722,-1.2554412
1.22,5.942303,0.75824636,0.44474363,1.3890278,0.40603435,-1.2253797
1.222,5.87812,0.7807842,0.44539183,1.4322548,0.38433966,-1.1950319
1.224,5.813928,0.8006735,0.45081264,1.4756236,0.3599533,-1.1652893
1.226,5.752878,0.81802124,0.45959494,1.5187626,0.3325073,-1.1370078
1.228,5.698066,0.8333174,0.47030687,1.5613414,0.3015368,-1.111008
1.23,5.6526628,0.84699804,0.4815549,1.6030976,0.26661,-1.0880333
1.232,5.6200976,0.8596464,0.49199507,1.6438714,0.22736938,-1.068703
1.234,5.6033516,0.8719996,0.50035894,1.6836011,0.18355815,-1.0534301
1.236,5.6053605,0.8847393,0.50542676,1.7223403,0.1350432,-1.042426
1.238,5.628677,0.89853215,0.50609756,1.7602392,0.08186713,-1.0357054
1.24,5.675647,0.9140427,0.5009909,1.7975254,0.024255246,-1.0331253
1.242,5.748311,0.93219805,0.4890075,1.8344879,-0.037379503,-1.0344107
1.244,5.848368,0.9538762,0.46936035,1.8714871,-0.102365196,-1.0391952
1.246,5.9769926,0.9796638,0.44149205,1.9089208,-0.1697895,-1.0470579
1.248,6.134744,1.0104439,0.40438175,1.9471996,-0.238498,-1.0575991
1.25,6.3216558,1.0462315,0.35851246,1.9867384,-0.30718493,-1.0704137
1.252,6.5376225,1.0870197,0.30388346,2.0279286,-0.37445727,-1.0850868
1.254,6.7818894,1.1328492,0.24065495,2.0710897,-0.43901342,-1.1011652
1.256,7.053134,1.1840594,0.16965342,2.1164584,-0.49974382,-1.1181434
1.258,7.3494043,1.2407435,0.091563344,2.164117,-0.55587053,-1.1354835
1.26,7.668417,1.3029377,0.0069322586,2.213974,-0.6070529,-1.1526251
1.262,8.0072155,1.3706551,-0.08322114,2.2657964,-0.65340436,-1.1690079
1.264,8.362438,1.4436747,-0.17746261,2.3192205,-0.6954155,-1.1841189
1.266,8.730564,1.521915,-0.27416095,2.3737476,-0.73398733,-1.1975433
1.268,9.107748,1.6052687,-0.3714474,2.428869,-0.77023137,-1.2089771
1.27,9.490097,1.6938202,-0.46730182,2.4841192,-0.8052178,-1.2180624
1.272,9.873734,1.7876863,-0.55995333,2.5390759,-0.84003854,-1.2244906
1.274,10.254722,1.8869605,-0.6477201,2.5934029,-0.87562275,-1.2280631
1.276,10.629278,1.9915993,-0.72904,2.6468875,-0.91263986,-1.2286525
1.278,10.993565,2.1018088,-0.8027075,2.6994116,-0.9514732,-1.2261523
1.28,11.344333,2.2173536,-0.86748624,2.7510192,-0.9922297,-1.2205131
1.282,11.678155,2.338406,-0.92226326,2.8018441,-1.0347937,-1.2117319
1.284,11.992787,2.4647937,-0.9660576,2.8521225,-1.0788281,-1.1998177
1.286,12.286186,2.5966406,-0.9983786,2.9021592,-1.1238773,-1.1848508
1.288,12.556575,2.7341666,-1.0190363,2.9523113,-1.1694528,-1.1670084
1.29,12.803093,2.8773293,-1.0284338,3.0029364,-1.2150663,-1.1465632
1.292,13.025157,3.0267458,-1.027797,3.0544114,-1.2602881,-1.1239026
1.294,13.222962,3.1822715,-1.0179422,3.107102,-1.3048003,-1.0995032
1.296,13.397457,3.3435342,-1.0003958,3.1613443,-1.3484478,-1.0739329
1.298,13.550333,3.5103452,-0.97727615,3.21744,-1.391265,-1.0478196
1.3,13.684103,3.681986,-0.95042086,3.275663,-1.4335275,-1.0218092
1.302,13.801256,3.8579786,-0.9215797,3.3362532,-1.4757595,-0.9964997
1.304,13.90441,4.0381126,-0.89299476,3.3993776,-1.5187465,-0.9724488
1.306,13.996038,4.2226324,-0.8674904,3.465159,-1.5634977,-0.9501505
1.308,14.079279,4.411394,-0.8481798,3.5336585,-1.6111926,-0.93003356
1.31,14.157071,4.603932,-0.837319,3.6048539,-1.6631434,-0.91245854
1.312,14.231779,4.7996335,-0.8365516,3.678656,-1.7207246,-0.8977145
1.314,14.307073,4.997788,-0.84802645,3.7549088,-1.785275,-0.88602936
1.316,14.382375,5.1990747,-0.8739306,3.8334002,-1.8580894,-0.87756324
1.318,14.462787,5.401053,-0.9130477,3.9139009,-1.9403418,-0.8723992
1.32,14.552571,5.601804,-0.9608931,3.9961734,-2.0330303,-0.87058276
1.322,14.648447,5.8023276,-1.0139709,4.079971,-2.1369336,-0.87208223
1.324,14.753234,6.002158,-1.0699799,4.1650796,-2.2525935,-0.8767997
1.326,14.871168,6.2004027,-1.1342115,4.2513003,-2.380321,-0.8845412
1.328,15.004332,6.3982406,-1.2139096,4.338461,-2.5202093,-0.89500266
1.33,15.151702,6.5971675,-1.3146557,4.426349,-2.6721587,-0.9077806
1.332,15.311765,6.798303,-1.4348788,4.5147557,-2.8358636,-0.92237556
1.334,15.485275,7.0010605,-1.5669782,4.6034355,-3.0108876,-0.9382266
1.336,15.671441,7.205186,-1.703157,4.692157,-3.1966457,-0.9547239
1.338,15.868872,7.4111195,-1.8363855,4.780677,-3.3924787,-0.9712938
1.34,16.078325,7.6184072,-1.962011,4.86872,-3.5976987,-0.98740184
1.342,16.300024,7.8269644,-2.07979,4.9560127,-3.8115811,-1.0025479
1.344,16.53322,8.036557,-2.1913946,5.0423584,-4.033373,-1.0163071
1.346,16.778461,8.24626,-2.298513,5.1275477,-4.262536,-1.0284417
1.348,17.03807,8.454887,-2.4001403,5.2114935,-4.498467,-1.0387274
1.35,17.313465,8.661984,-2.4938958,5.294224,-4.7405024,-1.046956
1.352,17.606064,8.868076,-2.578447,5.375812,-4.9881535,-1.052817
1.354,17.917168,9.074061,-2.6534894,5.456891,-5.240383,-1.0556918
1.356,18.25205,9.279604,-2.7199485,5.538547,-5.4957232,-1.054806
1.358,18.613817,9.485439,-2.7816916,5.622083,-5.7530475,-1.0494287
1.36,19.004002,9.693391,-2.8415616,5.709046,-6.0112453,-1.0385941
1.362,19.425833,9.904015,-2.8992898,5.8010736,-6.2689834,-1.0209588
1.364,19.883228,10.11716,-2.9536624,5.899973,-6.524379,-0.9947909
1.366,20.378218,10.332774,-3.0037255,6.0077825,-6.774789,-0.9582094
1.368,20.911146,10.55156,-3.0491288,6.1265855,-7.01732,-0.9095618
1.37,21.481651,10.773693,-3.0890615,6.2583704,-7.2487807,-0.8476621
1.372,22.088299,10.99878,-3.1224532,6.4046607,-7.4663925,-0.77211404
1.374,22.727798,11.22662,-3.1482253,6.5660396,-7.668318,-0.6834842
1.376,23.394949,11.457409,-3.1649356,6.7420015,-7.8533916,-0.58324707
1.378,24.082561,11.6916895,-3.169571,6.9307833,-8.02107,-0.4737705
1.38,24.782099,11.930411,-3.1584625,7.129472,-8.17105,-0.3582163
1.382,25.483698,12.1748295,-3.1274471,7.3343544,-8.302689,-0.24032152
1.384,26.176373,12.42669,-3.0724194,7.541277,-8.414678,-0.124093056
1.386,26.848083,12.687676,-2.9894228,7.7461257,-8.504673,-0.013358116
1.388,27.48651,12.959858,-2.8747318,7.9452624,-8.569225,0.08860421
1.39,28.079044,13.245333,-2.7249243,8.135813,-8.60427,0.17929673
1.392,28.613249,13.546873,-2.5375478,8.315965,-8.605542,0.25731075
1.394,29.077284,13.867152,-2.309772,8.484995,-8.569216,0.32244802
1.396,29.460154,14.209082,-2.0398893,8.643108,-8.492766,0.3754984
1.398,29.75301,14.575531,-1.7262673,8.791131,-8.37568,0.4180231
1.4,29.947144,14.969972,-1.3694296,8.930291,-8.219694,0.4521482
1.402,30.037043,15.394925,-0.9697871,9.061778,-8.029028,0.48010015
1.404,30.018906,15.852653,-0.52911496,9.186583,-7.809965,0.5039649
1.406,29.890923,16.345028,-0.049360275,9.305418,-7.570065,0.525409
1.408,29.65307,16.873657,0.46667242,9.418389,-7.3178806,0.5453892
1.41,29.307415,17.43948,1.0154943,9.525387,-7.0617256,0.5643239
1.412,28.858093,18.042297,1.5928888,9.626347,-6.808459,0.58215857
1.414,28.311174,18.68058,2.1950564,9.721137,-6.5637774,0.59806633
1.416,27.674356,19.351845,2.8183522,9.809636,-6.3322487,0.6105921
1.418,26.95589,20.053087,3.4590034,9.891595,-6.117434,0.6180122
1.42,26.16508,20.780796,4.112175,9.966668,-5.921882,0.6188209
1.422,25.312494,21.53066,4.772829,10.034547,-5.7470202,0.6119993
1.424,24.407545,22.297794,5.4368973,10.095042,-5.593513,0.59703517
1.426,23.463037,23.075855,6.1003757,10.148221,-5.4611564,0.5740311
1.428,22.486115,23.86085,6.7566786,10.194555,-5.349064,0.5435457
1.43,21.485657,24.647568,7.3981967,10.23467,-5.2563353,0.5063338
1.432,20.476677,25.428017,8.020512,10.269344,-5.1819487,0.46340203
1.434,19.466331,26.196625,8.62161,10.299395,-5.1247787,0.41597533
1.436,18.460806,26.948563,9.205654,10.325535,-5.0836887,0.36534715
1.438,17.468557,27.678005,9.775742,10.34848,-5.0572553,0.31271434
1.44,16.499895,28.380177,10.330374,10.368866,-5.043832,0.2590673
1.442,15.563565,29.052078,10.861425,10.387299,-5.0415626,0.20513082
1.444,14.66515,29.693216,11.3583145,10.404305,-5.048344,0.15139008
1.446,13.811009,30.303131,11.814323,10.420307,-5.062179,0.098017216
1.448,13.006828,30.88104,12.226696,10.435575,-5.081304,0.04494238
1.45,12.255613,31.427717,12.596705,10.450281,-5.1042166,-0.008005142
1.452,11.560525,31.943945,12.929926,10.464512,-5.129696,-0.061009645
1.454,10.925333,32.431164,13.232098,10.478259,-5.156806,-0.11430168
1.456,10.351678,32.891747,13.507383,10.491474,-5.1849637,-0.1681819
1.458,9.839693,33.328327,13.756899,10.504045,-5.2138796,-0.22302294
1.46,9.390146,33.74289,13.981362,10.51582,-5.2435255,-0.2792549
1.462,9.003269,34.136826,14.183327,10.52657,-5.274143,-0.33736944
1.464,8.678587,34.5119,14.366476,10.536018,-5.3061533,-0.39790058
1.466,8.411768,34.871395,14.535713,10.543888,-5.340118,-0.46143198
1.468,8.200852,35.217354,14.697994,10.549913,-5.376667,-0.5285487
1.47,8.044687,35.551296,14.857774,10.553811,-5.4164505,-0.599854
1.472,7.939083,35.875893,15.016369,10.555257,-5.460189,-0.67599297
1.474,7.8788705,36.19394,15.175276,10.553886,-5.508671,-0.75764465
1.476,7.860318,36.50736,15.337324,10.549307,-5.56266,-0.8454304
1.478,7.879649,36.81724,15.50619,10.541081,-5.622977,-0.9399147
1.48,7.9325624,37.12498,15.685681,10.528774,-5.6904182,-1.041636
1.482,8.014386,37.43162,15.87926,10.511908,-5.7657843,-1.1510425
1.484,8.12131,37.73741,16.09009,10.489996,-5.8497195,-1.268466
1.486,8.249654,38.04151,16.320353,10.462536,-5.9428024,-1.3942585
1.488,8.395974,38.34245,16.570625,10.429005,-6.0454865,-1.5287514
1.49,8.556951,38.63821,16.841188,10.388927,-6.157986,-1.6722288
1.492,8.729443,38.926445,17.132236,10.341841,-6.2803435,-1.8248868
1.494,8.910619,39.20475,17.443686,10.287341,-6.412422,-1.9868274
1.496,9.098271,39.470768,17.775215,10.225139,-6.553905,-2.1580129
1.498,9.290668,39.72192,18.125784,10.155066,-6.7043176,-2.3382215
1.5,9.486491,39.95598,18.493858,10.0770645,-6.86303,-2.5270548
1.502,9.685326,40.169846,18.877934,9.991183,-7.029257,-2.7239366
1.504,9.886978,40.3609,19.275543,9.897579,-7.202079,-2.9281073
1.506,10.0919285,40.526173,19.684834,9.796509,-7.3804154,-3.138654
1.508,10.300801,40.66302,20.103134,9.68832,-7.563053,-3.354545
1.51,10.515543,40.768307,20.528843,9.573416,-7.74863,-3.574681
1.512,10.736784,40.83998,20.958744,9.452259,-7.935698,-3.7979302
1.514,10.966044,40.87611,21.390362,9.325301,-8.122721,-4.0231524
1.516,11.205298,40.87466,21.8208,9.192968,-8.308138,-4.249222
1.518,11.456628,40.833675,22.247414,9.055596,-8.490446,-4.47507
1.52,11.721675,40.75179,22.66766,8.913478,-8.668306,-4.6997004
1.522,12.002353,40.627697,23.079144,8.766778,-8.840555,-4.922173
1.524,12.300769,40.46035,23.479595,8.615573,-9.006239,-5.1416316
1.526,12.618305,40.249,23.8666,8.459836,-9.164616,-5.3573313
1.528,12.956785,39.992947,24.237896,8.299433,-9.315076,-5.5686073
1.53,13.317666,39.691673,24.591751,8.134214,-9.457134,-5.7748914
1.532,13.701571,39.344795,24.92654,7.963977,-9.590333,-5.975717
1.534,14.10901,38.952015,25.240948,7.7885137,-9.714229,-6.170715
1.536,14.5401535,38.513065,25.533966,7.6076746,-9.828362,-6.359574
1.538,14.994799,38.02772,25.805,7.4213057,-9.932186,-6.5420423
1.54,15.472107,37.495937,26.053463,7.22935,-10.025121,-6.717865
1.542,15.970657,36.91765,26.278835,7.0317826,-10.106566,-6.886799
1.544,16.488605,36.293095,26.480652,6.8286633,-10.175933,-7.0485435
1.546,17.02354,35.62267,26.659016,6.6201277,-10.23266,-7.2027626
1.548,17.57325,34.906246,26.813557,6.4063687,-10.276204,-7.349055
1.55,18.133633,34.145103,26.944458,6.1876874,-10.306037,-7.486923
1.552,18.70109,33.34051,27.052687,5.964455,-10.32164,-7.615837
1.554,19.271902,32.49401,27.13882,5.737146,-10.322468,-7.7351484
1.556,19.841833,31.607517,27.203957,5.506339,-10.307962,-7.844142
1.558,20.406513,30.683605,27.249256,5.272682,-10.2775755,-7.942024
1.56,20.961334,29.724903,27.275723,5.036901,-10.2307825,-8.027943
1.562,21.50196,28.734602,27.284584,4.7998176,-10.167115,-8.100992
1.564,22.023949,27.716204,27.276758,4.5623145,-10.086193,-8.160201
1.566,22.522957,26.67376,27.253483,4.3253427,-9.987754,-8.204599
1.568,22.994877,25.61164,27.216143,4.0899305,-9.871702,-8.233273
1.57,23.436392,24.53434,27.166054,3.8571417,-9.738058,-8.245389
1.572,23.844398,23.446747,27.104404,3.6281161,-9.586993,-8.240232
1.574,24.216667,22.35382,27.032501,3.404008,-9.418748,-8.217284
1.576,24.551632,21.260555,26.951504,3.1860247,-9.233564,-8.176232
1.578,24.848167,20.172169,26.862452,2.9753776,-9.031673,-8.116969
1.58,25.105656,19.093338,26.766462,2.7732441,-8.813463,-8.039675
1.582,25.324297,18.029003,26.664768,2.5807896,-8.579261,-7.9448223
1.584,25.50491,16.983744,26.558277,2.3990812,-8.329351,-7.833109
1.586,25.648743,15.961618,26.44729,2.2290645,-8.064089,-7.7054424
1.588,25.757687,14.966239,26.332115,2.0715232,-7.7838664,-7.562953
1.59,25.833584,14.00054,26.212362,1.9270613,-7.4891524,-7.406965
1.592,25.878763,13.067211,26.087486,1.7960784,-7.1805396,-7.238929
1.594,25.895317,12.168425,25.956644,1.6787627,-6.858712,-7.0603967
1.596,25.885708,11.306025,25.818722,1.5751112,-6.5245194,-6.8730063
1.598,25.85216,10.481238,25.672718,1.484894,-6.1789603,-6.678435
1.6,25.796692,9.694807,25.517056,1.4076734,-5.8231974,-6.4783587
1.602,25.721073,8.947048,25.349953,1.3428476,-5.458521,-6.274419
1.604,25.626923,8.237761,25.169563,1.2896621,-5.0863085,-6.068157
1.606,25.5154,7.5665493,24.973997,1.2472401,-4.7080283,-5.86097
1.608,25.387045,6.9328136,24.761827,1.2146018,-4.3252306,-5.6541123
1.61,25.242195,6.335498,24.531546,1.1907039,-3.9395287,-5.4486885
1.612,25.080812,5.7736626,24.281675,1.1744639,-3.5525548,-5.2456083
1.614,24.902493,5.2462215,24.01065,1.1647841,-3.1660075,-5.0456657
1.616,24.706825,4.752022,23.717098,1.1605536,-2.7816424,-4.8495183
1.618,24.493004,4.289777,23.399937,1.1607231,-2.401247,-4.657739
1.62,24.26043,3.858265,23.058737,1.1642959,-2.0266364,-4.4708176
1.622,24.008583,3.456252,22.69376,1.1703644,-1.659596,-4.2891436
1.624,23.736702,3.0824184,22.305252,1.1781112,-1.3019153,-4.1130733
1.626,23.44426,2.7355242,21.893774,1.1868025,-0.95529807,-3.9429064
1.628,23.130724,2.4145775,21.460089,1.1957977,-0.6213687,-3.778895
1.63,22.795937,2.1184626,21.005291,1.204519,-0.3016379,-3.6212862
1.632,22.440016,1.8461351,20.530863,1.2124819,0.0025197268,-3.4703028
1.634,22.063118,1.5965729,20.038683,1.2192578,0.28999645,-3.3260896
1.636,21.665813,1.3688269,19.531027,1.2244387,0.5596969,-3.188773
1.638,21.248714,1.1619749,19.010468,1.227649,0.8106335,-3.058469
1.64,20.813007,0.975152,18.479412,1.2285452,1.0419724,-2.9352715
1.642,20.360073,0.8073702,17.940771,1.2267926,1.2529722,-2.8192294
1.644,19.891441,0.6577263,17.39731,1.2220669,1.4429805,-2.7103555
1.646,19.408833,0.5252056,16.851894,1.214062,1.6114557,-2.6086469
1.648,18.91411,0.40878963,16.307411,1.2025007,1.7579956,-2.5140574
1.65,18.409386,0.3073635,15.766773,1.1871488,1.8823547,-2.426484
1.652,17.896915,0.21993446,15.232874,1.1678447,1.9844708,-2.3457885
1.654,17.37899,0.14531803,14.708525,1.1445302,2.0644932,-2.271806
1.656,16.858006,0.0824852,14.196123,1.1172183,2.1228144,-2.2043579
1.658,16.335981,0.030742645,13.698327,1.0860136,2.1600537,-2.1432714
1.66,15.815963,-0.011331558,13.21742,1.051091,2.1770942,-2.0884094
1.662,15.300288,-0.04485607,12.754944,1.0126865,2.1750412,-2.0396497
1.664,14.790622,-0.070804596,12.312751,0.9710775,2.1551902,-1.9968954
1.666,14.289094,-0.09019232,11.892405,0.92655385,2.1189687,-1.9600861
1.668,13.797762,-0.104162216,11.495096,0.8794078,2.0679107,-1.9291698
1.67,13.318375,-0.11360836,11.122159,0.829902,2.0036125,-1.9041097
1.672,12.852285,-0.11943579,10.774453,0.77826613,1.9276755,-1.8848644
1.674,12.400754,-0.122387886,10.453061,0.72471416,1.841712,-1.8713597
1.676,11.965098,-0.123328686,10.158529,0.6694537,1.7472982,-1.8634937
1.678,11.5462265,-0.122909546,9.890956,0.6127043,1.6459959,-1.8611035
1.68,11.144455,-0.121807575,9.650504,0.55469286,1.5393289,-1.8639649
1.682,10.76021,-0.12054491,9.437023,0.49566567,1.4288005,-1.8717785
1.684,10.393345,-0.11952829,9.249963,0.43591315,1.3158922,-1.8841898
1.686,10.043389,-0.11900234,9.088647,0.37572974,1.2020555,-1.9008156
1.688,9.709966,-0.11941671,8.952207,0.31544423,1.0886931,-1.9212438
1.69,9.392338,-0.12080526,8.83978,0.25538906,0.97713584,-1.9450542
1.692,9.089563,-0.12339687,8.750208,0.19591501,0.8686223,-1.9718344
1.694,8.800582,-0.12720299,8.682076,0.13737386,0.7642857,-2.0011759
1.696,8.524341,-0.1323266,8.633993,0.0800827,0.66511977,-2.032685
1.698,8.259769,-0.13903093,8.604381,0.024349451,0.57198083,-2.065985
1.7,8.005652,-0.14715052,8.591505,-0.02952557,0.48556662,-2.1006937
1.702,7.760686,-0.15682316,8.593571,-0.08127321,0.40641612,-2.13644
1.704,7.5237427,-0.16806412,8.608799,-0.13063303,0.3349442,-2.1728578
1.706,7.293662,-0.1808393,8.635682,-0.17737354,0.27144948,-2.2095854
1.708,7.0695105,-0.19512415,8.67231,-0.22130388,0.21611354,-2.2462695
1.71,6.8503323,-0.21083641,8.717062,-0.26226202,0.16901702,-2.2825682
1.712,6.6356335,-0.22803402,8.768266,-0.30013213,0.13019995,-2.3181293
1.714,6.424718,-0.24669957,8.824221,-0.33482802,0.09965733,-2.352606
1.716,6.2169285,-0.26685,8.883055,-0.3663031,0.077371866,-2.3856535
1.718,6.0121713,-0.28855467,8.942938,-0.39456823,0.06326264,-2.416925
1.72,5.8101664,-0.31172633,9.00234,-0.41966063,0.057229787,-2.446074
1.722,5.610843,-0.33643436,9.059938,-0.4416686,0.059141397,-2.4727306
1.724,5.414261,-0.36264515,9.114732,-0.46072322,0.06881282,-2.4965367
1.726,5.220327,-0.39035583,9.165715,-0.47700018,0.08601299,-2.5171356
1.728,5.0292387,-0.41953492,9.212325,-0.49072695,0.11043605,-2.5342045
1.73,4.840945,-0.44982338,9.25395,-0.502158,0.14172634,-2.5474365
1.732,4.655656,-0.4811175,9.290052,-0.51158315,0.17947438,-2.5565524
1.734,4.473774,-0.51315,9.320293,-0.5192862,0.22318432,-2.561297
1.736,4.2954607,-0.5456295,9.344568,-0.5255704,0.27231303,-2.5614688
1.738,4.1211157,-0.57826376,9.362895,-0.5307348,0.326278,-2.5569007
1.74,3.9509592,-0.6106639,9.375541,-0.53506136,0.384489,-2.547455
1.742,3.7852263,-0.6425431,9.383067,-0.5388289,0.4463709,-2.5330498
1.744,3.623935,-0.6733103,9.386087,-0.54227644,0.51138234,-2.5136325
1.746,3.4673424,-0.70265865,9.385527,-0.545636,0.57902026,-2.4891887
1.748,3.31527,-0.7299528,9.382349,-0.54911214,0.6488404,-2.4597602
1.75,3.1672797,-0.7545986,9.377732,-0.55287975,0.7204735,-2.4254324
1.752,3.02287,-0.77577174,9.372677,-0.55712444,0.79362977,-2.3863404
1.754,2.8815217,-0.792881,9.368385,-0.56200546,0.8680684,-2.3426695
1.756,2.7423568,-0.8050257,9.365921,-0.56767386,0.9435976,-2.2946494
1.758,2.6041856,-0.8114077,9.366343,-0.5743128,1.0200295,-2.2425437
1.76,2.466264,-0.811221,9.3707,-0.58209306,1.0971892,-2.186655
1.762,2.3271213,-0.80382514,9.3798275,-0.59118736,1.1749204,-2.1273062
1.764,2.184837,-0.78854275,9.39463,-0.60177016,1.2530699,-2.0648408
1.766,2.0375254,-0.76461935,9.415662,-0.61401033,1.3314675,-1.9996295
1.768,1.8832695,-0.73121417,9.443545,-0.62806535,1.4099574,-1.9320468
1.77,1.7200372,-0.68775845,9.478643,-0.6440433,1.4884222,-1.8624758
1.772,1.5457315,-0.6335324,9.520951,-0.66198766,1.5668304,-1.7913148
1.774,1.3582809,-0.56781626,9.5704365,-0.68188965,1.6452258,-1.7189633
1.776,1.155585,-0.4900862,9.62675,-0.7036644,1.723732,-1.6458323
1.778,0.9357869,-0.39980555,9.689393,-0.72714245,1.8025665,-1.5723338
1.78,0.6969851,-0.2965188,9.757579,-0.7521056,1.8820128,-1.4989078
1.782,0.43752044,-0.17982984,9.830556,-0.77827406,1.9623959,-1.4260262
1.784,0.15594,-0.049520373,9.907341,-0.8053526,2.044042,-1.3542051
1.786,-0.14897406,0.09462738,9.986857,-0.8330353,2.1272526,-1.2840209
1.788,-0.47781253,0.25282013,10.068001,-0.8610249,2.2123013,-1.2160895
1.79,-0.8308531,0.42537522,10.149601,-0.8890307,2.2993824,-1.1510558
1.792,-1.2080222,0.61236835,10.230494,-0.9168131,2.388629,-1.0896211
1.794,-1.6086562,0.8139924,10.309491,-0.9441622,2.4800944,-1.0324512
1.796,-2.0319297,1.0303367,10.385202,-0.97089106,2.5737584,-0.98020864
1.798,-2.4766977,1.261508,10.455938,-0.99684745,2.6695266,-0.9335338
1.8,-2.9412186,1.5073853,10.520393,-1.0219042,2.7672472,-0.8930448
1.802,-3.4237115,1.767968,10.577121,-1.0459402,2.866698,-0.85932714
1.804,-3.9220347,2.0431678,10.624887,-1.0688832,2.9675689,-0.8329636
1.806,-4.434048,2.3329763,10.662621,-1.0906727,3.0694802,-0.8145015
1.808,-4.9571257,2.6374788,10.689018,-1.1112976,3.1720142,-0.804469
1.81,-5.488504,2.9563844,10.703067,-1.1307598,3.2746758,-0.80336255
1.812,-6.025481,3.2895114,10.703585,-1.1490786,3.376934,-0.8116213
1.814,-6.565413,3.6364403,10.689537,-1.1663,3.4782004,-0.82962847
1.816,-7.105651,3.9965425,10.659843,-1.1824894,3.577864,-0.85768294
1.818,-7.6434717,4.369283,10.613774,-1.1977069,3.6752958,-0.89601505
1.82,-8.176191,4.7539425,10.5506,-1.2120231,3.7698698,-0.94478244
1.822,-8.701327,5.149773,10.469988,-1.2255065,3.8609464,-1.0040791
1.824,-9.216417,5.555806,10.371671,-1.2382454,3.9478765,-1.0739604
1.826,-9.718618,5.970859,10.255707,-1.2503213,4.0300207,-1.1544516
1.828,-10.205737,6.3937635,10.121925,-1.2618248,4.106739,-1.245579
1.83,-10.675418,6.822936,9.970524,-1.2728323,4.1774035,-1.347364
1.832,-11.125536,7.2569017,9.801706,-1.2834144,4.2413893,-1.4598373
1.834,-11.554046,7.694032,9.615735,-1.29363,4.298064,-1.5830112
1.836,-11.9588785,8.132581,9.413163,-1.3035249,4.3467827,-1.7168677
1.838,-12.338253,8.570639,9.194407,-1.313137,4.386872,-1.8613596
1.84,-12.690382,9.0058155,8.960479,-1.3224877,4.4176188,-2.0163708
1.842,-13.013915,9.436085,8.712369,-1.3316189,4.4382453,-2.181755
1.844,-13.307738,9.859331,8.451218,-1.3405759,4.4478903,-2.3572633
1.846,-13.570677,10.273319,8.17816,-1.3494104,4.4455953,-2.542582
1.848,-13.802236,10.675901,7.894385,-1.3581991,4.4303627,-2.7373433
1.85,-14.001871,11.0649605,7.6009893,-1.3670747,4.40116,-2.941095
1.852,-14.169358,11.438467,7.2990932,-1.3762,4.356947,-3.1533196
1.854,-14.304359,11.794342,6.990006,-1.3858037,4.296732,-3.3734307
1.856,-14.40716,12.13061,6.675065,-1.396157,4.2196407,-3.6007874
1.858,-14.477978,12.445428,6.355646,-1.4075568,4.1249723,-3.834695
1.86,-14.517242,12.736991,6.033279,-1.4203476,4.0121994,-4.07442
1.862,-14.525538,13.0037,5.709407,-1.4348668,3.8810415,-4.319185
1.864,-14.503569,13.244129,5.3855524,-1.4514445,3.7314854,-4.56818
1.866,-14.452185,13.456999,5.0635033,-1.4703864,3.5638123,-4.820587
1.868,-14.371876,13.641113,4.744754,-1.4919682,3.378603,-5.075542
1.87,-14.264025,13.795698,4.4309,-1.5163957,3.1767812,-5.332186
1.872,-14.129385,13.92027,4.12364,-1.5437918,2.9596114,-5.5896287
1.874,-13.967635,14.014627,3.824439,-1.5741665,2.7286887,-5.846979
1.876,-13.778926,14.078085,3.5346313,-1.6074585,2.485901,-6.1033607
1.878,-13.563892,14.110621,3.2556596,-1.6435096,2.2334175,-6.3579636
1.88,-13.322636,14.112378,2.9890995,-1.6821011,1.9735816,-6.610018
1.882,-13.055209,14.08374,2.7362528,-1.7229455,1.7088861,-6.85884
1.884,-12.761254,14.025244,2.4985867,-1.7657089,1.4418678,-7.103826
1.886,-12.440357,13.937759,2.2774515,-1.8100673,1.1750346,-7.3444567
1.888,-12.092335,13.82243,2.0739923,-1.8556952,0.9107709,-7.5802975
1.89,-11.716974,13.680386,1.8894281,-1.9022722,0.65129733,-7.8109813
1.892,-11.3141165,13.513062,1.7249815,-1.9494926,0.39861155,-8.036181
1.894,-10.883733,13.321915,1.5816205,-1.997091,0.15446162,-8.255611
1.896,-10.425925,13.108678,1.460078,-2.0448241,-0.07963896,-8.468996
1.898,-9.941377,12.875206,1.3606994,-2.092487,-0.30238223,-8.676122
1.9,-9.43068,12.623404,1.2836883,-2.139877,-0.5126116,-8.876772
1.902,-8.894679,12.355417,1.2291911,-2.186826,-0.70934033,-9.070771
1.904,-8.334882,12.073318,1.1975622,-2.2331023,-0.8916726,-9.257959
1.906,-7.7524943,11.7792635,1.1891198,-2.2784739,-1.0587344,-9.438241
1.908,-7.149184,11.475628,1.2043433,-2.3226318,-1.2097228,-9.611547
1.91,-6.5269394,11.165009,1.243196,-2.3651881,-1.3438425,-9.777819
1.912,-5.887595,10.850116,1.3060088,-2.4056835,-1.4603219,-9.937096
1.914,-5.2333083,10.53384,1.3925488,-2.443553,-1.5584235,-10.089441
1.916,-4.566006,10.2192135,1.5025046,-2.4781685,-1.637547,-10.235005
1.918,-3.8878098,9.909357,1.6355326,-2.5088453,-1.6971691,-10.373985
1.92,-3.2005343,9.607613,1.79107,-2.5348306,-1.7369685,-10.506652
1.922,-2.5059066,9.317337,1.9687638,-2.555316,-1.7568965,-10.633364
1.924,-1.8053167,9.041978,2.168189,-2.5695071,-1.7572544,-10.754584
1.926,-1.0998967,8.785228,2.3886561,-2.57662,-1.7387176,-10.870874
1.928,-0.39066315,8.55076,2.62954,-2.5759215,-1.702338,-10.982863
1.93,0.32150388,8.342216,2.890102,-2.5667083,-1.6495485,-11.091253
1.932,1.0361428,8.163284,3.1692653,-2.5483646,-1.5821676,-11.1968
1.934,1.7534223,8.01726,3.4659667,-2.520381,-1.5022869,-11.300283
1.936,2.473267,7.9075227,3.7788024,-2.4824007,-1.4123044,-11.402478
1.938,3.1963902,7.8370113,4.1064844,-2.4342177,-1.3148031,-11.504147
1.94,3.923352,7.808584,4.4472895,-2.3757682,-1.2125976,-11.605978
1.942,4.655095,7.824537,4.79967,-2.3071494,-1.108613,-11.708594
1.944,5.3923073,7.886832,5.162244,-2.2286599,-1.0058947,-11.812534
1.946,6.13622,7.996819,5.5334697,-2.1407561,-0.9075575,-11.918191
1.948,6.8883476,8.155271,5.911891,-2.0440426,-0.8166952,-12.025879
1.95,7.649667,8.3625965,6.2954993,-1.9392736,-0.73634005,-12.135758
1.952,8.420519,8.619043,6.683568,-1.827344,-0.6693802,-12.247859
1.954,9.203596,8.922928,7.075035,-1.7092164,-0.61846066,-12.362075
1.956,9.9995165,9.273285,7.4674454,-1.5859401,-0.58592033,-12.47818
1.958,10.810769,9.667524,7.8615427,-1.458632,-0.5737965,-12.595849
1.96,11.63615,10.104157,8.257062,-1.328402,-0.5837996,-12.714672
1.962,12.479063,10.57941,8.656181,-1.1963716,-0.6173036,-12.834219
1.964,13.34233,11.089633,9.057433,-1.0636764,-0.6754379,-12.954041
1.966,14.226829,11.632366,9.46102,-0.9314027,-0.7591696,-13.073643
1.968,15.13571,12.202106,9.868492,-0.80060387,-0.86928177,-13.192589
1.97,16.069132,12.79448,10.280797,-0.67227936,-1.0064778,-13.310438
1.972,17.02895,13.404879,10.70163,-0.5473666,-1.171335,-13.426801
1.974,18.016956,14.028592,11.131995,-0.4267316,-1.364315,-13.5413
1.976,19.035742,14.661454,11.573862,-0.31113386,-1.5856583,-13.653572
1.978,20.08644,15.299604,12.030247,-0.2012167,-1.8353202,-13.763218
1.98,21.170582,15.939107,12.503998,-0.09752321,-2.1130214,-13.869829
1.982,22.289724,16.576038,12.997303,-0.0005264282,-2.4182463,-13.973039
1.984,23.444057,17.206808,13.513017,0.08948898,-2.750084,-14.07233
1.986,24.633657,17.829067,14.053286,0.17226028,-3.107317,-14.167177
1.988,25.860666,18.438194,14.619729,0.24767542,-3.4885497,-14.257007
1.99,27.122196,19.032097,15.215063,0.31569386,-3.8920925,-14.341291
1.992,28.415995,19.610252,15.84293,0.37641,-4.316111,-14.419378
1.994,29.743456,20.16969,16.503548,0.43000317,-4.758312,-14.490435
1.996,31.104061,20.709278,17.197424,0.47668314,-5.216532,-14.553768
1.998,32.4955,21.228521,17.925037,0.5167799,-5.6883802,-14.60866
2,33.916306,21.726479,18.685934,0.55059814,-6.171321,-14.654409
2.002,35.36434,22.201939,19.479877,0.5785284,-6.662907,-14.690308
2.004,36.836975,22.654102,20.305752,0.6010771,-7.160416,-14.715553
2.006,38.331375,23.082125,21.162151,0.6187911,-7.661289,-14.729366
2.008,39.844986,23.484915,22.047638,0.63227177,-8.162829,-14.731054
2.01,41.375126,23.86175,22.95975,0.64213324,-8.662216,-14.719957
2.012,42.919113,24.212034,23.895163,0.6490059,-9.1565075,-14.695432
2.014,44.47424,24.534822,24.850443,0.6535554,-9.642925,-14.656739
2.016,46.03717,24.829033,25.822254,0.65646935,-10.118554,-14.603299
2.018,47.60488,25.093225,26.806484,0.65844584,-10.580517,-14.534516
2.02,49.1748,25.325539,27.79902,0.6601634,-11.026131,-14.449766
2.022,50.744553,25.523949,28.795591,0.6624136,-11.453007,-14.348426
2.024,52.3114,25.686594,29.792479,0.6660938,-11.858924,-14.229718
2.026,53.873188,25.81165,30.786,0.6721177,-12.242211,-14.092823
2.028,55.427612,25.897331,31.772104,0.68144417,-12.601588,-13.937003
2.03,56.972446,25.941898,32.746548,0.69502926,-12.936189,-13.761585
2.032,58.50564,25.944176,33.705353,0.71378994,-13.245572,-13.565962
2.034,60.025032,25.903133,34.64465,0.7386651,-13.529569,-13.349649
2.036,61.52859,25.81785,35.560905,0.7705951,-13.788343,-13.112258
2.038,63.01422,25.687977,36.45053,0.8104596,-14.022397,-12.853515
2.04,64.47972,25.514326,37.310112,0.85915804,-14.232355,-12.573191
2.042,65.92294,25.298494,38.136875,0.9174962,-14.418896,-12.271118
2.044,67.34117,25.043713,38.928535,0.98621273,-14.582894,-11.947157
2.046,68.73218,24.754305,39.683895,1.0659099,-14.72522,-11.601349
2.048,70.09353,24.435863,40.40267,1.1571133,-14.846954,-11.233809
2.05,71.42342,24.095291,41.085228,1.2603753,-14.948958,-10.844451
2.052,72.719666,23.741234,41.732597,1.3761804,-15.032238,-10.43324
2.054,73.981285,23.383734,42.345985,1.5050473,-15.097873,-10.000142
2.056,75.20709,23.034752,42.927345,1.647502,-15.146951,-9.545242
2.058,76.39564,22.707994,43.48015,1.8040577,-15.18078,-9.068744
2.06,77.54645,22.418371,44.008972,1.9753782,-15.200511,-8.570821
2.062,78.659836,22.181435,44.518715,2.162232,-15.207458,-8.051646
2.064,79.73417,22.01511,45.01609,2.3655179,-15.203018,-7.511519
2.066,80.76934,21.937405,45.509663,2.5861826,-15.188554,-6.9508433
2.068,81.76464,21.967667,46.00526,2.8251069,-15.165298,-6.3701134
2.07,82.72337,22.123716,46.510784,3.0830746,-15.1346445,-5.769724
2.072,83.64181,22.429325,47.031612,3.360655,-15.098014,-5.1501274
2.074,84.5142,22.91132,47.579903,3.6581757,-15.056806,-4.5118403
2.076,85.36178,23.569551,48.1593,3.975567,-15.012355,-3.8553586
2.078,86.18211,24.422726,48.77289,4.312433,-14.966075,-3.1813238
2.08,86.97597,25.498835,49.435852,4.668135,-14.919102,-2.4903193
2.082,87.745445,26.822628,50.14805,5.041757,-14.872507,-1.7829074
2.084,88.49575,28.414173,50.918198,5.432264,-14.82718,-1.0596659
2.086,89.23584,30.284412,51.74446,5.8384714,-14.783795,-0.32116097
2.088,89.97762,32.439407,52.622143,6.259115,-14.7427,0.43210888
2.09,90.72231,34.89904,53.5409,6.6929464,-14.703781,1.1997489
2.092,91.468056,37.686684,54.49684,7.138692,-14.666612,1.9815795
2.094,92.227806,40.811543,55.49858,7.595107,-14.630531,2.7778363
2.096,93.016624,44.276295,56.55866,8.06097,-14.594494,3.5891888
2.098,93.832214,48.090786,57.673195,8.535075,-14.557074,4.416807
2.1,94.68445,52.248505,58.827538,9.016114,-14.516563,5.2623672
2.102,95.57808,56.757828,60.004807,9.502615,-14.471034,6.127667
2.104,96.50816,61.626858,61.195885,9.992781,-14.418261,7.0142775
2.106,97.49046,66.88092,62.346855,10.48501,-14.355163,7.9246116
2.108,98.54019,72.50348,63.468372,10.9774685,-14.27911,8.862222
2.11,99.597626,78.46694,64.62209,11.468834,-14.186036,9.830521
2.112,100.656845,84.73404,65.85472,11.958414,-14.070452,10.832279
2.114,101.72021,91.26311,67.21089,12.444874,-13.926917,11.869663
2.116,102.84449,97.99979,68.72449,12.927254,-13.749491,12.9453125
2.118,104.0922,104.95427,70.31529,13.405825,-13.530996,14.06251
2.12,105.484245,112.122375,71.91122,13.881439,-13.263414,15.223687
2.122,107.01113,119.44739,73.483444,14.354477,-12.937588,16.430199
2.124,108.66398,126.89522,75.05321,14.822962,-12.543834,17.683039
2.126,110.42412,134.42493,76.63691,15.284304,-12.071027,18.982769
2.128,112.27327,141.94498,78.286194,15.736317,-11.5048,20.328411
2.13,114.2563,149.36174,80.04516,16.175842,-10.829366,21.715927
2.132,116.38176,156.60347,81.96801,16.597038,-10.030277,23.137497
2.134,118.6853,163.61581,84.06616,16.990032,-9.094111,24.582787
2.136,121.18123,170.34908,86.34011,17.34087,-8.01417,26.038357
2.138,123.89519,176.72412,88.77736,17.633755,-6.7871423,27.491116
2.14,126.84895,182.6385,91.36128,17.851696,-5.4051323,28.927065
2.142,130.06947,187.99928,94.07468,17.973766,-3.8644564,30.332716
2.144,133.57585,192.73256,96.89326,17.981743,-2.167675,31.69767
2.146,137.37418,196.787,99.78463,17.866491,-0.31257677,33.013016
2.148,141.47054,200.11922,102.70524,17.62451,1.7121534,34.266785
2.15,145.8987,202.67091,105.60715,17.246838,3.8890562,35.442245
2.152,150.68402,204.4136,108.410904,16.737385,6.209199,36.54087
2.154,155.82391,205.35155,111.01792,16.113863,8.660001,37.56131
2.156,161.31926,205.49217,113.318756,15.402261,11.224264,38.49547
2.158,167.16588,204.85797,115.21749,14.631519,13.890724,39.33307
2.16,173.34108,203.50824,116.63566,13.839674,16.637373,40.070797
2.162,179.80223,201.52766,117.49223,13.071815,19.434742,40.7047
2.164,186.49724,198.99509,117.68447,12.3715105,22.243847,41.220047
2.166,193.35216,195.99307,117.10985,11.778393,25.011051,41.584778
2.168,200.27164,192.6146,115.67601,11.32295,27.671421,41.74788
2.17,207.15358,188.9531,113.30734,11.017685,30.149849,41.646667
2.172,213.88913,185.0997,109.950714,10.855879,32.369854,41.21831
2.174,220.35683,181.14532,105.5756,10.817649,34.268246,40.40908
2.176,226.42554,177.17471,100.179306,10.872808,35.802807,39.179256
2.178,231.95587,173.2633,93.782684,10.985415,36.960052,37.505054
2.18,236.81693,169.46562,86.43043,11.117844,37.756496,35.381706
2.182,240.89282,165.81366,78.19101,11.236317,38.23393,32.8261
2.184,244.07916,162.32516,69.16179,11.313264,38.453884,29.875137
2.186,246.26442,159.02744,59.475,11.324412,38.48318,26.583115
2.188,247.385,155.91435,49.285606,11.244574,38.375355,23.02043
2.19,247.39952,152.96179,38.76216,11.045879,38.164387,19.27115
2.192,246.28764,150.14368,28.103798,10.695816,37.854176,15.426776
2.194,244.05014,147.43684,17.506989,10.156059,37.40956,11.588219
2.196,240.71443,144.82248,7.168289,9.386459,36.770096,7.864065
2.198,236.33577,142.27908,-2.7228851,8.3452835,35.859455,4.3653975
2.2,231.00461,139.77048,-11.981537,6.994972,34.589745,1.2015591
2.202,224.83194,137.26706,-20.442558,5.316009,32.878876,-1.5260677
2.204,217.93369,134.76346,-27.970291,3.3194966,30.692375,-3.736021
2.206,210.44017,132.26476,-34.452957,1.0326729,28.01089,-5.392071
2.208,202.50607,129.77165,-39.79299,-1.4950838,24.855368,-6.4827676
2.21,194.27905,127.29793,-43.92047,-4.190181,21.287752,-7.0260835
2.212,185.90765,124.842964,-46.802834,-6.9610057,17.398788,-7.075442
2.214,177.53584,122.41237,-48.44952,-9.713188,13.315559,-6.7186384
2.216,169.27866,119.996605,-48.870506,-12.354008,9.184176,-6.0569906
2.218,161.2428,117.62539,-48.172962,-14.795405,5.1567903,-5.1893044
2.22,153.57796,115.32876,-46.51216,-16.962626,1.383692,-4.2059317
2.222,146.34767,113.13514,-44.018795,-18.797047,-2.0006514,-3.1869612
2.224,139.59274,111.06482,-40.81893,-20.257029,-4.886365,-2.2046447
2.226,133.29909,109.138115,-37.029816,-21.322418,-7.198581,-1.3227296
2.228,127.45649,107.31293,-32.685528,-21.997648,-8.904331,-0.59104204
2.23,122.09136,105.5747,-27.872179,-22.307213,-10.008465,-0.04000187
2.232,117.23694,103.95497,-22.735836,-22.292141,-10.54982,0.32199764
2.234,112.898964,102.4518,-17.458366,-22.006884,-10.594517,0.50599813
2.236,109.06968,101.067566,-12.189455,-21.514305,-10.227796,0.5373807
2.238,105.72118,99.8414,-7.0800037,-20.878199,-9.546671,0.45289373
2.24,102.76373,98.79375,-2.236391,-20.15663,-8.649467,0.2963667
2.242,100.152565,97.9152,2.2565765,-19.399216,-7.6281853,0.11301875
2.244,97.822655,97.18402,6.376032,-18.64777,-6.5661697,-0.052717686
2.246,95.736755,96.58504,10.1133175,-17.935253,-5.5340075,-0.15969849
2.248,93.85078,96.1364,13.471209,-17.282696,-4.582399,-0.17546129
2.25,92.1308,95.87018,16.451935,-16.699625,-3.7406285,-0.07947588
2.252,90.54383,95.79845,19.054035,-16.18665,-3.0186453,0.13654351
2.254,89.06794,95.91381,21.27967,-15.737402,-2.4094126,0.46944046
2.256,87.6936,96.19525,23.133736,-15.340956,-1.8925033,0.9060464
2.258,86.40672,96.62663,24.624552,-14.984785,-1.4391952,1.4259013
2.26,85.16886,97.21285,25.757298,-14.656683,-1.0170672,2.0045676
2.262,83.957245,97.93464,26.556517,-14.344928,-0.59372306,2.6159682
2.264,82.773544,98.755615,27.047012,-14.037783,-0.14042544,3.234763
2.266,81.60752,99.6536,27.246815,-13.724246,0.36573052,3.838838
2.268,80.447845,100.60466,27.15151,-13.396376,0.9397719,4.411015
2.27,79.29268,101.565704,26.74481,-13.049795,1.5868566,4.940103
2.272,78.145744,102.4919,26.024738,-12.683381,2.3028595,5.4208584
2.274,77.00418,103.362305,25.018072,-12.299082,3.0759103,5.852773
2.276,75.871155,104.16008,23.753937,-11.901836,3.8883116,6.2380066
2.278,74.75325,104.86408,22.257683,-11.49919,4.7188425,6.579336
2.28,73.64688,105.456665,20.552324,-11.100615,5.5454392,6.87847
2.282,72.54402,105.92232,18.658108,-10.716829,6.3470383,7.1348968
2.284,71.44139,106.24429,16.597942,-10.359136,7.103971,7.3453107
2.286,70.339325,106.40834,14.396212,-10.038433,7.7980833,7.5044413
2.288,69.24034,106.40517,12.084011,-9.764558,8.412985,7.60713
2.29,68.13904,106.237495,9.6976,-9.545916,8.934472,7.6504207
2.292,67.02558,105.91274,7.2759037,-9.388776,9.351216,7.634223
2.294,65.89516,105.43641,4.8520756,-9.2966795,9.655239,7.5610123
2.296,64.74551,104.81379,2.4550762,-9.270302,9.841929,7.435634
2.298,63.571213,104.051865,0.11187267,-9.307615,9.91006,7.2650824
2.3,62.367294,103.15831,-2.153306,-9.404246,9.861868,7.0577874
2.302,61.131023,102.14379,-4.317168,-9.55389,9.702791,6.8226047
2.304,59.863495,101.017914,-6.3523254,-9.748924,9.440795,6.568016
2.306,58.564526,99.791306,-8.225699,-9.981144,9.0855255,6.3019037
2.308,57.23414,98.47793,-9.909926,-10.2423115,8.647662,6.0316153
2.31,55.873512,97.09351,-11.387047,-10.524337,8.138616,5.7639585
2.312,54.48443,95.65044,-12.647418,-10.819555,7.5701814,5.5051622
2.314,53.068645,94.15853,-13.684705,-11.121033,6.954111,5.260537
2.316,51.629883,92.62704,-14.493687,-11.422642,6.3019114,5.0342517
2.318,50.172398,91.069115,-15.069559,-11.71899,5.6246796,4.8294277
2.32,48.70095,89.50049,-15.41075,-12.005253,4.9330425,4.6481667
2.322,47.221474,87.93722,-15.520081,-12.276989,4.2371745,4.4916925
2.324,45.741463,86.39546,-15.403938,-12.529934,3.5467632,4.3604727
2.326,44.268944,84.89198,-15.07148,-12.759962,2.8710139,4.254363
2.328,42.81201,83.441635,-14.535908,-12.962992,2.2185946,4.172776
2.33,41.376343,82.0537,-13.814919,-13.134962,1.5975564,4.1147757
2.332,39.965504,80.73135,-12.929924,-13.271997,1.015316,4.0789824
2.334,38.581512,79.474106,-11.903602,-13.370537,0.47858143,4.0636315
2.336,37.226,78.28057,-10.757841,-13.4275,-0.006761074,4.0665836
2.338,35.90072,77.14958,-9.51387,-13.440352,-0.43574214,4.0854974
2.34,34.60817,76.08155,-8.193101,-13.407297,-0.8043487,4.1179237
2.342,33.35108,75.07837,-6.817275,-13.327393,-1.1095481,4.161427
2.344,32.13202,74.142166,-5.4078746,-13.200553,-1.3492732,4.2136374
2.346,30.953377,73.27392,-3.9857183,-13.027583,-1.5224373,4.272325
2.348,29.81649,72.47328,-2.5714455,-12.810096,-1.6288548,4.335482
2.35,28.722794,71.73764,-1.1854903,-12.550454,-1.6691928,4.4014072
2.352,27.673033,71.06269,0.15259373,-12.251668,-1.6449082,4.468731
2.354,26.667309,70.44358,1.4245284,-11.917227,-1.5581715,4.5364914
2.356,25.706264,69.87495,2.613684,-11.550938,-1.4117618,4.6041646
2.358,24.79004,69.35152,3.705725,-11.156814,-1.2090151,4.6715903
2.36,23.918373,68.86855,4.6880794,-10.738915,-0.95364213,4.7389746
2.362,23.090761,68.42178,5.5504403,-10.301268,-0.64958906,4.806814
2.364,22.307375,68.00697,6.2844996,-9.847874,-0.30093336,4.875719
2.366,21.567654,67.62014,6.8838863,-9.382666,0.088165045,4.9463067
2.368,20.870731,67.256905,7.343957,-8.909479,0.51355505,5.019089
2.37,20.216076,66.912674,7.6619635,-8.432121,0.9710984,5.0943956
2.372,19.602905,66.583084,7.8365364,-7.954355,1.4567125,5.172253
2.374,19.03033,66.26393,7.867715,-7.479912,1.9663901,5.2523317
2.376,18.497509,65.950775,7.757188,-7.012508,2.4961367,5.3339195
2.378,18.00306,65.63961,7.5077753,-6.555807,3.0418987,5.4159107
2.38,17.545761,65.3264,7.1234975,-6.1133623,3.5995462,5.4968424
2.382,17.12424,65.0072,6.609129,-5.6886086,4.1648073,5.574956
2.384,16.736906,64.67845,5.9704857,-5.2848206,4.733281,5.6482277
2.386,16.3821,64.33667,5.214707,-4.9049816,5.300375,5.714589
2.388,16.05772,63.97867,4.3495,-4.551743,5.861363,5.771934
2.39,15.762051,63.601448,3.3829174,-4.227369,6.411474,5.8182287
2.392,15.492701,63.201927,2.3236594,-3.9337254,6.9459352,5.8515453
2.394,15.24745,62.77711,1.1809092,-3.6722188,7.460046,5.8701706
2.396,15.024435,62.32435,-0.03573513,-3.4438004,7.9492598,5.8727636
2.398,14.821295,61.841324,-1.316494,-3.2489138,8.409254,5.8584642
2.4,14.635637,61.326218,-2.6513467,-3.0874977,8.835975,5.8269663
2.402,14.46521,60.77792,-4.0299616,-2.9590025,9.22573,5.7784734
2.404,14.307114,60.19593,-5.4422894,-2.862364,9.575281,5.713721
2.406,14.15901,59.580433,-6.8782682,-2.7960305,9.881961,5.6338935
2.408,14.0192375,58.931274,-8.327992,-2.7580483,10.143715,5.5404987
2.41,13.885286,58.24906,-9.782578,-2.746132,10.359154,5.435196
2.412,13.754398,57.5347,-11.233178,-2.7577465,10.527616,5.3196697
2.414,13.623869,56.789616,-12.671333,-2.790221,10.64912,5.195472
2.416,13.490852,56.01564,-14.088979,-2.840837,10.724349,5.0639524
2.418,13.352785,55.214832,-15.478738,-2.9069192,10.754627,4.9261236
2.42,13.207005,54.3892,-16.834116,-2.985903,10.741842,4.7826843
2.422,13.051096,53.540474,-18.149244,-3.0753896,10.688341,4.6340113
2.424,12.882441,52.67016,-19.419193,-3.1732106,10.596823,4.480219
2.426,12.698763,51.77983,-20.639084,-3.27744,10.470163,4.321215
2.428,12.497957,50.87101,-21.804623,-3.386435,10.311323,4.156822
2.43,12.278355,49.945293,-22.911926,-3.4987583,10.123203,3.9868946
2.432,12.038343,49.004192,-23.957249,-3.6132288,9.908565,3.8114116
2.434,11.776749,48.049408,-24.937712,-3.728815,9.669942,3.6305437
2.436,11.492435,47.08282,-25.850767,-3.8446167,9.409633,3.4447515
2.438,11.184647,46.106064,-26.69454,-3.9597857,9.129667,3.2547941
2.44,10.853109,45.120934,-27.467733,-4.0734596,8.831852,3.061751
2.442,10.49774,44.12929,-28.169369,-4.184727,8.5178585,2.8670056
2.444,10.118856,43.133102,-28.798725,-4.2925754,8.189289,2.672145
2.446,9.717106,42.13452,-29.35567,-4.395893,7.8477664,2.4788983
2.448,9.293507,41.135727,-29.84053,-4.493449,7.4950337,2.2890413
2.45,8.84918,40.139103,-30.254286,-4.583967,7.1329536,2.104312
2.452,8.385403,39.1473,-30.598278,-4.666152,6.763574,1.9262321
2.454,7.9040756,38.162746,-30.874496,-4.738735,6.389154,1.7560296
2.456,7.4070473,37.18804,-31.085102,-4.800557,6.0121107,1.5946062
2.458,6.8967285,36.22533,-31.232903,-4.850664,5.6349387,1.442461
2.46,6.3751583,35.27675,-31.320942,-4.8883476,5.2600713,1.2996943
2.462,5.844885,34.34423,-31.352676,-4.913175,4.889843,1.1660578
2.464,5.3086233,33.429134,-31.331745,-4.9250164,4.5263476,1.041002
2.466,4.768505,32.53265,-31.262054,-4.9240546,4.171329,0.92372704
2.468,4.2271194,31.655766,-31.147755,-4.9107423,3.8261433,0.813277
2.47,3.6870632,30.798811,-30.992886,-4.8857393,3.4917037,0.70859194
2.472,3.150755,29.96196,-30.801678,-4.849882,3.168476,0.60864925
2.474,2.6204243,29.144962,-30.578346,-4.8041244,2.8564882,0.51246667
2.476,2.0980673,28.347496,-30.326702,-4.7494597,2.5553827,0.41917372
2.478,1.5861015,27.568876,-30.050282,-4.6868854,2.264511,0.32803023
2.48,1.0862017,26.808577,-29.752377,-4.617342,1.983025,0.23848927
2.482,0.60015583,26.065666,-29.435951,-4.5416813,1.7099735,0.15015852
2.484,0.12968922,25.3392,-29.103567,-4.4606667,1.4444039,0.06278086
2.486,-0.32373524,24.628365,-28.757832,-4.374933,1.1854367,-0.023737669
2.488,-0.7587223,23.932175,-28.40061,-4.2850227,0.93232334,-0.1093961
2.49,-1.1740551,23.249685,-28.033695,-4.1913805,0.6844938,-0.19410908
2.492,-1.5689163,22.58016,-27.658226,-4.094344,0.44158542,-0.27772167
2.494,-1.9421501,21.922928,-27.27541,-3.9941747,0.20342743,-0.36007673
2.496,-2.2933073,21.277784,-26.88628,-3.8910584,-0.029973388,-0.44103488
2.498,-2.6216502,20.644243,-26.491816,-3.7851186,-0.2584628,-0.5204914
2.5,-2.9268932,20.022362,-26.092957,-3.676443,-0.48175657,-0.59838974
2.502,-3.2085142,19.41202,-25.690516,-3.5650675,-0.69951314,-0.67473376
2.504,-3.4664497,18.81355,-25.285341,-3.4510021,-0.9113142,-0.74961466
2.506,-3.7006807,18.227175,-24.878181,-3.3342652,-1.1167434,-0.8231566
2.508,-3.9111571,17.653166,-24.469671,-3.2148564,-1.3153836,-0.895517
2.51,-4.098183,17.092012,-24.060463,-3.0928023,-1.506844,-0.9668998
2.512,-4.2621517,16.544165,-23.651249,-2.968122,-1.6907665,-1.0375153
2.514,-4.403379,16.009941,-23.242443,-2.8408332,-1.866814,-1.1075412
2.516,-4.522482,15.489954,-22.83448,-2.7109385,-2.034694,-1.1771361
2.518,-4.619974,14.984787,-22.427773,-2.578463,-2.1941526,-1.2464482
2.52,-4.6964917,14.494931,-22.02258,-2.443423,-2.3449588,-1.3155806
2.522,-4.752745,14.021062,-21.619318,-2.30586,-2.4869182,-1.3846117
2.524,-4.78931,13.563532,-21.218174,-2.1658368,-2.6198797,-1.4535959
2.526,-4.8068385,13.122788,-20.819252,-2.0234418,-2.7437415,-1.5226085
2.528,-4.806202,12.699255,-20.42262,-1.8788135,-2.8584433,-1.5917146
2.53,-4.788061,12.293329,-20.028313,-1.7321239,-2.963971,-1.6609738
2.532,-4.75347,11.905324,-19.63646,-1.5835674,-3.0603857,-1.7304666
2.534,-4.702099,11.535566,-19.246738,-1.4333544,-3.1477911,-1.8002869
2.536,-4.635171,11.184219,-18.860054,-1.2817115,-3.2263598,-1.8705136
2.538,-4.553213,10.851004,-18.476074,-1.1288606,-3.2963092,-1.9412407
2.54,-4.4573293,10.535898,-18.094664,-0.975012,-3.3578835,-2.012573
2.542,-4.347866,10.238813,-17.715714,-0.82036626,-3.4113505,-2.0845988
2.544,-4.2257957,9.959416,-17.339056,-0.66510797,-3.457007,-2.1573896
2.546,-4.091624,9.697119,-16.964321,-0.50941956,-3.4951262,-2.2309968
2.548,-3.946163,9.451404,-16.591394,-0.35348606,-3.5259776,-2.3054643
2.55,-3.7901726,9.22172,-16.219948,-0.19747794,-3.5498044,-2.3808122
2.552,-3.624309,9.007371,-15.849798,-0.041550398,-3.5668092,-2.457025
2.554,-3.449287,8.8075,-15.480488,0.11414158,-3.5771646,-2.5340843
2.556,-3.2658865,8.621148,-15.11189,0.26945984,-3.5809832,-2.6119642
2.558,-3.0748496,8.447555,-14.743603,0.4243201,-3.5783389,-2.6906147
2.56,-2.876742,8.28555,-14.375357,0.5786727,-3.5692568,-2.7699924
2.562,-2.6723845,8.13408,-14.007032,0.73250514,-3.5537877,-2.850019
2.564,-2.462611,7.992071,-13.638395,0.8858652,-3.5319257,-2.9306688
2.566,-2.2479687,7.8584404,-13.269329,1.0387881,-3.5036922,-3.0119658
2.568,-2.0291336,7.7320447,-12.899762,1.1913098,-3.4691467,-3.0938554
2.57,-1.8067658,7.6119065,-12.529666,1.3435256,-3.4283316,-3.1762788
2.572,-1.5813758,7.496867,-12.159245,1.4955512,-3.381369,-3.2592068
2.574,-1.3536708,7.385789,-11.788498,1.6474924,-3.3284132,-3.3426278
2.576,-1.1240625,7.277752,-11.4177685,1.799443,-3.2696648,-3.4265268
2.578,-0.8931699,7.171776,-11.047345,1.9514686,-3.2053714,-3.5108564
2.58,-0.6615362,7.066979,-10.677574,2.103623,-3.1358037,-3.5955458
2.582,-0.4295156,6.962521,-10.308741,2.2559383,-3.0612562,-3.6805274
2.584,-0.19772363,6.8577423,-9.9412565,2.4084468,-2.9820182,-3.7656941
2.586,0.033523798,6.7519727,-9.575469,2.5611792,-2.8983347,-3.8508976
2.588,0.26366448,6.6447005,-9.211957,2.714184,-2.8104453,-3.9359326
2.59,0.49229956,6.535506,-8.851121,2.8675437,-2.718533,-4.020541
2.592,0.71880627,6.4242887,-8.493472,3.0213902,-2.6227682,-4.104406
2.594,0.94272995,6.310971,-8.139559,3.1758926,-2.5233035,-4.1871624
2.596,1.1638117,6.1955037,-7.7897186,3.331266,-2.4202883,-4.268405
2.598,1.3814268,6.0779676,-7.444515,3.4877524,-2.3138897,-4.347714
2.6,1.5951877,5.9586935,-7.104433,3.6456058,-2.2043114,-4.4246726
2.602,1.8046601,5.838296,-6.7698073,3.805079,-2.0917935,-4.49887
2.604,2.0094256,5.7171946,-6.441108,3.966394,-1.9766117,-4.569926
2.606,2.2088249,5.5960045,-6.118793,4.1297274,-1.8590897,-4.637528
2.608,2.4023788,5.4755063,-5.803133,4.2952347,-1.7395715,-4.701437
2.61,2.5896316,5.356469,-5.4944854,4.4630117,-1.6184123,-4.7614837
2.612,2.770003,5.239885,-5.1932907,4.633094,-1.495961,-4.8175745
2.614,2.943262,5.126569,-4.899925,4.8054957,-1.3725657,-4.8696613
2.616,3.1089668,5.017494,-4.614516,4.980206,-1.2485257,-4.917775
2.618,3.266228,4.914151,-4.337268,5.1571774,-1.1241727,-4.9619474
2.62,3.414708,4.817477,-4.068333,5.33638,-0.9998101,-5.0022397
2.622,3.5542889,4.728207,-3.8079004,5.517739,-0.87573016,-5.0388656
2.624,3.6845994,4.6470346,-3.5562732,5.7011204,-0.75224054,-5.072013
2.626,3.805249,4.574892,-3.313419,5.886381,-0.62961483,-5.1018414
2.628,3.9159954,4.5125117,-3.079396,6.073372,-0.5081767,-5.12849
2.63,4.016687,4.460831,-2.8543448,6.261907,-0.3882221,-5.152148
2.632,4.107334,4.420408,-2.6381621,6.451809,-0.27004385,-5.172997
2.634,4.187681,4.39209,-2.4307554,6.6428823,-0.15394855,-5.191193
2.636,4.257962,4.376472,-2.232109,6.8349133,-0.040208578,-5.206876
2.638,4.318261,4.3740783,-2.0421386,7.0276566,0.07090688,-5.2201495
2.64,4.3688703,4.385323,-1.8606764,7.220822,0.17913651,-5.231058
2.642,4.410426,4.410584,-1.6877236,7.414101,0.2842729,-5.2396135
2.644,4.4426293,4.4501634,-1.5233982,7.607116,0.38611245,-5.2457147
2.646,4.4666605,4.5043173,-1.3669868,7.7994423,0.4844861,-5.2491584
2.648,4.483013,4.5737495,-1.2188302,7.9906406,0.579298,-5.2497387
2.65,4.4928656,4.6585093,-1.0790181,8.180292,0.6705291,-5.247234
2.652,4.496789,4.758843,-0.94749665,8.367939,0.7581618,-5.241352
2.654,4.496084,4.8751426,-0.82412183,8.553129,0.8421631,-5.231715
2.656,4.4918127,5.0080104,-0.7089475,8.735413,0.922493,-5.2178974
2.658,4.48535,5.1579423,-0.60175854,8.914345,0.9990833,-5.199489
2.66,4.478169,5.325277,-0.5025833,9.08953,1.0717993,-5.1761146
2.662,4.4719696,5.510395,-0.41131014,9.260626,1.1404295,-5.147452
2.664,4.4684014,5.714032,-0.3278923,9.427305,1.2047007,-5.113262
2.666,4.4692373,5.9369783,-0.2523718,9.58934,1.2642615,-5.0733995
2.668,4.4763412,6.1802387,-0.18477166,9.746551,1.318757,-5.027801
2.67,4.49168,6.4446936,-0.12511998,9.898793,1.3677609,-4.976424
2.672,4.5175657,6.730898,-0.07333809,10.046015,1.4108052,-4.9192567
2.674,4.5563626,7.03954,-0.029269993,10.188197,1.4473987,-4.856245
2.676,4.610173,7.3713126,0.007105708,10.3253565,1.4769806,-4.7873373
2.678,4.6811824,7.7269917,0.03614235,10.457485,1.4989122,-4.712488
2.68,4.771444,8.107216,0.058172584,10.5845785,1.5124799,-4.6317034
2.682,4.883033,8.512718,0.073854685,10.706607,1.5169278,-4.5450983
2.684,5.0179424,8.944122,0.08359337,10.8235035,1.511416,-4.452947
2.686,5.1779857,9.401912,0.088284135,10.935156,1.4950451,-4.3557587
2.688,5.3649063,9.886293,0.088694334,11.041392,1.4669253,-4.254344
2.69,5.5799427,10.397599,0.0858016,11.141944,1.42616,-4.149812
2.692,5.824229,10.935754,0.08071017,11.236483,1.3718922,-4.0434914
2.694,6.098879,11.50055,0.07584989,11.324663,1.3033911,-3.9368744
2.696,6.404743,12.091773,0.07258403,11.406113,1.2200327,-3.8315518
2.698,6.7431154,12.707761,0.07166362,11.4804,1.1213763,-3.7292047
2.7,7.114467,13.346236,0.07403374,11.547087,1.007157,-3.6314802
2.702,7.518505,14.005462,0.081444025,11.605656,0.8772623,-3.5398393
2.704,7.9545913,14.684025,0.095713615,11.655588,0.7317357,-3.4555163
2.706,8.422353,15.379925,0.118537426,11.696417,0.5708356,-3.3795648
2.708,8.92123,16.090845,0.15182066,11.727724,0.39498812,-3.3128
2.71,9.45047,16.813768,0.19703054,11.749186,0.20473509,-3.2557425
2.712,10.0091095,17.545334,0.2558627,11.760573,0.0006708093,-3.2085476
2.714,10.595747,18.282238,0.33014488,11.7617235,-0.21665084,-3.1710386
2.716,11.209073,19.021004,0.4216423,11.752544,-0.4467422,-3.142754
2.718,11.847902,19.758114,0.53206587,11.73299,-0.6893002,-3.1229482
2.72,12.510948,20.489374,0.66318893,11.703032,-0.9442627,-3.1106853
2.722,13.196682,21.21015,0.81625175,11.662663,-1.211875,-3.104844
2.724,13.903446,21.91537,0.99246264,11.611925,-1.4927479,-3.1043043
2.726,14.629623,22.599762,1.1924481,11.550751,-1.7875952,-3.1081662
2.728,15.374492,23.257519,1.4167709,11.47897,-2.0972571,-3.1158445
2.73,16.136951,23.883049,1.6658211,11.396301,-2.4228714,-3.1269712
2.732,16.915585,24.470844,1.9397063,11.302532,-2.7657516,-3.1414618
2.734,17.709238,25.015284,2.2381916,11.197484,-3.1272495,-3.1597915
2.736,18.516815,25.510273,2.560358,11.080935,-3.5087678,-3.183093
2.738,19.337053,25.949759,2.9052844,10.952498,-3.911715,-3.2130659
2.74,20.168728,26.327524,3.2719545,10.811556,-4.337515,-3.2518032
2.742,21.010353,26.638094,3.6586962,10.657235,-4.787524,-3.3015509
2.744,21.860264,26.87665,4.063497,10.488468,-5.262916,-3.3645148
2.746,22.716715,27.038784,4.4843054,10.303888,-5.7646785,-3.4427123
2.748,23.577473,27.121029,4.918904,10.101807,-6.293503,-3.5378268
2.75,24.44033,27.120125,5.36483,9.880341,-6.849618,-3.6510715
2.752,25.302364,27.033722,5.81957,9.637569,-7.432718,-3.7830174
2.754,26.160234,26.86052,6.2804418,9.371702,-8.041923,-3.9335442
2.756,27.010515,26.600288,6.744715,9.08126,-8.675734,-4.10197
2.758,27.848522,26.253742,7.2095103,8.76525,-9.332034,-4.287156
2.76,28.66848,25.822235,7.6725335,8.4233265,-10.008089,-4.4875937
2.762,29.467197,25.30952,8.132088,8.055867,-10.700581,-4.7015386
2.764,30.240587,24.719757,8.586146,7.6639338,-11.405675,-4.9271173
2.766,30.983742,24.056713,9.032983,7.249268,-12.119045,-5.1624603
2.768,31.69045,23.32506,9.470585,6.8141313,-12.835975,-5.405766
2.77,32.353832,22.529776,9.897008,6.361166,-13.551468,-5.6552625
2.772,32.966858,21.67752,10.310604,5.8932147,-14.260291,-5.90921
2.774,33.524307,20.775501,10.709569,5.4131536,-14.957087,-6.1659513
2.776,34.02087,19.831379,11.093084,4.923768,-15.636513,-6.4239006
2.778,34.450863,18.852959,11.4604435,4.4276776,-16.293245,-6.6813774
2.78,34.808025,17.848259,11.811084,3.9273686,-16.922308,-6.9366236
2.782,35.086437,16.825142,12.144237,3.4251814,-17.518885,-7.1877785
2.784,35.28072,15.791376,12.4592495,2.9233546,-18.07816,-7.432947
2.786,35.385906,14.754739,12.755583,2.4239607,-18.595573,-7.670113
2.788,35.398083,13.722874,13.032581,1.9289532,-19.066826,-7.897042
2.79,35.314137,12.70286,13.28957,1.4402852,-19.487755,-8.111245
2.792,35.131607,11.701519,13.525845,0.960402,-19.85457,-8.3100395
2.794,34.849144,10.725017,13.74058,0.49204826,-20.163864,-8.490919
2.796,34.466053,9.779312,13.9327345,0.037979126,-20.412655,-8.651738
2.798,33.982944,8.870045,14.100937,-0.39913416,-20.598423,-8.79066
2.8,33.40182,8.002018,14.24363,-0.816525,-20.719145,-8.905956
2.802,32.725594,7.1798687,14.358946,-1.2112403,-20.77341,-8.995958
2.804,31.958462,6.407481,14.443989,-1.5802617,-20.76073,-9.059143
2.806,31.105652,5.6878424,14.497105,-1.9206982,-20.681597,-9.094318
2.808,30.17296,5.024452,14.517023,-2.2299213,-20.5374,-9.1006975
2.81,29.16785,4.419886,14.501772,-2.5056038,-20.330322,-9.077856
2.812,28.099197,3.8748937,14.448518,-2.7458668,-20.063349,-9.025681
2.814,26.976204,3.389275,14.354668,-2.9493623,-19.74018,-8.944452
2.816,25.808172,2.9627514,14.218058,-3.1153917,-19.365154,-8.834946
2.818,24.604868,2.5947213,14.036748,-3.2439036,-18.942963,-8.698377
2.82,23.37636,2.2840376,13.809737,-3.3355393,-18.47855,-8.536333
2.822,22.132618,2.0290937,13.535967,-3.3916597,-17.976927,-8.350646
2.824,20.883772,1.827473,13.214995,-3.4142816,-17.443163,-8.143318
2.826,19.6397,1.6765008,12.847038,-3.4060216,-16.882317,-7.916302
2.828,18.409027,1.5727702,12.433374,-3.3700142,-16.29948,-7.671377
2.83,17.20062,1.512742,11.975903,-3.3097064,-15.699784,-7.4101286
2.832,16.023201,1.4926783,11.47774,-3.2287726,-15.088401,-7.1339774
2.834,14.884169,1.5085547,10.942469,-3.1309443,-14.470569,-6.844233
2.836,13.7896805,1.5562196,10.374518,-3.0198526,-13.8514805,-6.5422673
2.838,12.744275,1.6315331,9.778968,-2.8989472,-13.236194,-6.229644
2.84,11.752163,1.7302662,9.161308,-2.771341,-12.629404,-5.908174
2.842,10.817356,1.8480747,8.527447,-2.639655,-12.035376,-5.579888
2.844,9.943166,1.9804132,7.8836436,-2.50601,-11.457775,-5.2470856
2.846,9.132389,2.122923,7.2364616,-2.372291,-10.8994055,-4.9123697
2.848,8.386709,2.2715836,6.592364,-2.2398317,-10.362175,-4.578275
2.85,7.707153,2.4228652,5.9577775,-2.109247,-9.847115,-4.2471476
2.852,7.094386,2.573045,5.339057,-1.9806572,-9.354358,-3.921155
2.854,6.5486455,2.7183695,4.7421856,-1.8539473,-8.883233,-3.6022744
2.856,6.0697174,2.8555136,4.172635,-1.7288462,-8.432247,-3.292123
2.858,5.657418,2.9814713,3.635273,-1.6048802,-7.999008,-2.9918242
2.86,5.310667,3.0942535,3.134449,-1.4813112,-7.580328,-2.7019007
2.862,5.0286994,3.1920836,2.6739118,-1.3572508,-7.172591,-2.422382
2.864,4.810542,3.2732308,2.256915,-1.2318003,-6.7719727,-2.1529539
2.866,4.6546555,3.3362005,1.8859572,-1.1040895,-6.374486,-1.8930757
2.868,4.5602794,3.3798897,1.562959,-0.9733136,-5.9761443,-1.6420982
2.87,4.52642,3.4040856,1.2886534,-0.83879566,-5.5732117,-1.3993807
2.872,4.5494905,3.4074597,1.0629315,-0.7000572,-5.1625156,-1.1643854
2.874,4.626883,3.3899984,0.88575745,-0.55688643,-4.7415733,-0.93671525
2.876,4.7568326,3.3529806,0.7563273,-0.40931287,-4.3086467,-0.71611655
2.878,4.938308,3.2977948,0.67390585,-0.2576171,-3.8626983,-0.5024185
2.88,5.169784,3.2262292,0.6372499,-0.10228479,-3.4032767,-0.2954749
2.882,5.4493146,3.1390092,0.6443811,0.056060404,-2.9303634,-0.09507108
2.884,5.7733903,3.0369616,0.6932276,0.21668875,-2.444285,0.09916437
2.886,6.138802,2.9209487,0.78086054,0.37888765,-1.9456289,0.2877807
2.888,6.5429487,2.7923486,0.90392375,0.54196805,-1.4352063,0.4714513
2.89,7.0033245,2.6470942,1.0593498,0.7053031,-0.9140215,0.6509118
2.892,7.483895,2.4968953,1.2438971,0.86834854,-0.38325742,0.8268883
2.894,7.996727,2.3391156,1.4541948,1.0306861,0.15572873,1.0000231
2.896,8.539117,2.1752176,1.6867706,1.1919795,0.7013737,1.1708062
2.898,9.1078005,2.0064852,1.9380884,1.3519877,1.2519071,1.3394915
2.9,9.69931,1.8342648,2.2046454,1.5105596,1.8054072,1.5061042
2.902,10.310012,1.6597817,2.4828205,1.6676378,2.3597684,1.6704099
2.904,10.936473,1.4841344,2.769188,1.823244,2.912784,1.8318805
2.906,11.575186,1.308064,3.0606384,1.9774563,3.4622455,1.9897053
2.908,12.221949,1.1321545,3.354494,2.1304255,4.006057,2.1427875
2.91,12.8729925,0.9567332,3.6478748,2.2823126,4.5422354,2.289761
2.912,13.524427,0.7815883,3.9379277,2.4332232,5.068877,2.4290488
2.914,14.17215,0.60656404,4.221845,2.5831342,5.584176,2.5588758
2.916,14.8119545,0.43169332,4.496958,2.7319305,6.086542,2.6774526
2.918,15.439855,0.25667715,4.760765,2.8793569,6.574601,2.7830734
2.92,16.051857,0.08150315,5.0108366,3.0250106,7.0471716,2.8742442
2.922,16.643948,-0.094041586,5.244913,3.1683755,7.503256,2.9498098
2.924,17.21227,-0.26997566,5.461108,3.3088305,7.9420457,3.0090086
2.926,17.753048,-0.44647813,5.657503,3.445671,8.362959,3.051494
2.928,18.262829,-0.62378335,5.832665,3.5781639,8.765581,3.0773122
2.93,18.73829,-0.80167294,5.984914,3.7055583,9.1495905,3.0869126
2.932,19.176517,-0.9798696,6.113085,3.8270893,9.514651,3.081099
2.934,19.574821,-1.1581414,6.2166023,3.9420502,9.860357,3.0610657
2.936,19.930906,-1.3362553,6.2948446,4.0497713,10.186127,3.028315
2.938,20.242815,-1.5134451,6.347147,4.149744,10.49124,2.9846172
2.94,20.50889,-1.6888719,6.3735957,4.2416725,10.774891,2.9319463
2.942,20.72785,-1.8615022,6.3744483,4.325488,11.036179,2.872436
2.944,20.899542,-2.030291,6.3501797,4.40138,11.27409,2.8082395
2.946,21.024582,-2.1944966,6.3013635,4.4697685,11.487581,2.7414155
2.948,21.104023,-2.3534627,6.2290745,4.53125,11.675631,2.6737337
2.95,21.139017,-2.5062976,6.134409,4.586546,11.837353,2.6065598
2.952,21.130732,-2.6521232,6.018728,4.636395,11.972046,2.5408416
2.954,21.080763,-2.789928,5.883468,4.681489,12.079206,2.4770737
2.956,20.990974,-2.9188643,5.7301626,4.7223606,12.158602,2.41544
2.958,20.864061,-3.0383837,5.560273,4.759332,12.210215,2.3558712
2.96,20.702877,-3.1480114,5.375382,4.7924805,12.23425,2.298129
2.962,20.510149,-3.2472394,5.177155,4.821602,12.231064,2.2419944
2.964,20.289059,-3.3356965,4.9673834,4.84632,12.201189,2.187437
2.966,20.042355,-3.4129086,4.747719,4.866105,12.145327,2.1345916
2.968,19.77295,-3.478684,4.5198855,4.880392,12.064213,2.0837774
2.97,19.483839,-3.5330062,4.2855787,4.8886347,11.95866,2.0354457
2.972,19.177803,-3.5758514,4.04628,4.8903737,11.829597,1.9900622
2.974,18.857649,-3.607165,3.8034153,4.8852134,11.678053,1.9480157
2.976,18.525858,-3.6268344,3.5583694,4.872848,11.505112,1.9095592
2.978,18.184835,-3.635067,3.3124506,4.853091,11.311977,1.8747435
2.98,17.836826,-3.6320724,3.0670168,4.825858,11.099954,1.8434181
2.982,17.4838,-3.618018,2.8230815,4.7911425,10.870385,1.8152165
2.984,17.127869,-3.5934253,2.581931,4.7490315,10.624662,1.7895985
2.986,16.77068,-3.5585814,2.344632,4.6996794,10.364227,1.7659397
2.988,16.4138,-3.5140426,2.1119478,4.64329,10.090554,1.7436051
2.99,16.058945,-3.4605627,1.8847716,4.5801706,9.805189,1.7220511
2.992,15.707524,-3.398716,1.6636801,4.510641,9.509651,1.70084
2.994,15.360579,-3.329164,1.4491622,4.4350286,9.205382,1.6796498
2.996,15.019311,-3.2524135,1.2416067,4.3536854,8.893797,1.658273
2.998,14.684685,-3.1691492,1.0413458,4.266979,8.576232,1.6366045
3,14.342736,-3.0756433,0.8483927,4.1752453,8.253913,1.6146016
3.002,14.027919,-2.9825516,0.66303587,4.078807,7.9279413,1.5922914
3.004,13.721582,-2.8850493,0.48515964,3.977972,7.599276,1.5697196
3.006,13.424491,-2.784127,0.31473017,3.8730493,7.268719,1.5469234
3.008,13.13738,-2.6805918,0.15158463,3.7643428,6.936929,1.52392
3.01,12.861047,-2.5753384,-0.004480839,3.6521869,6.6044445,1.5007081
3.012,12.596132,-2.4692318,-0.15364718,3.536917,6.2716503,1.4772587
3.014,12.342634,-2.3629751,-0.29607272,3.4189038,5.938824,1.4535868
3.016,12.101044,-2.2572803,-0.43228292,3.2985039,5.6061563,1.429703
3.018,11.87191,-2.1527946,-0.5624881,3.1760125,5.273718,1.4055471
3.02,11.655018,-2.0500286,-0.68678427,3.0516796,4.9415045,1.3810697
3.022,11.450296,-1.949234,-0.80498505,2.9256961,4.6095004,1.3562365
3.024,11.257735,-1.8508515,-0.91662455,2.7981758,4.277645,1.3310101
3.026,11.07752,-1.7554643,-1.021357,2.6692033,3.9457889,1.305357
3.028,10.909313,-1.6634855,-1.1186862,2.5388463,3.6137776,1.2792412
3.03,10.753111,-1.5754628,-1.2079618,2.4071867,3.2814927,1.2526469
3.032,10.608622,-1.4915724,-1.2885175,2.274292,2.9488416,1.2255754
3.034,10.475607,-1.4123101,-1.3597682,2.1402647,2.6157568,1.1980348
3.036,10.353901,-1.3378758,-1.4209497,2.005252,2.2822444,1.1700509
3.038,10.24332,-1.2685142,-1.4715629,1.8694322,1.9483767,1.1416659
3.04,10.143589,-1.2044353,-1.5105982,1.7330143,1.6143124,1.1129248
3.042,10.0544815,-1.1458368,-1.5374005,1.5962532,1.2802892,1.0838573
3.044,9.975868,-1.0927739,-1.5515954,1.459418,0.9466331,1.0544832
3.046,9.907505,-1.0453427,-1.5526509,1.3228054,0.6137402,1.0248089
3.048,9.84938,-1.0035338,-1.5400219,1.1867533,0.28208113,0.994835
3.05,9.801111,-0.9674728,-1.5135314,1.0515848,-0.047845565,0.9645546
3.052,9.762451,-0.93716335,-1.4730797,0.91762275,-0.375518,0.93394995
3.054,9.733125,-0.9126482,-1.4185295,0.78518075,-0.70039564,0.9029999
3.056,9.712978,-0.8938861,-1.3499403,0.65457785,-1.0219647,0.87168396
3.058,9.701904,-0.88083005,-1.2677014,0.5260999,-1.3397509,0.8399798
3.06,9.699627,-0.8735869,-1.1721592,0.40003008,-1.6533074,0.80785835
3.062,9.705952,-0.8720889,-1.0637751,0.27662057,-1.9622649,0.7753054
3.064,9.720727,-0.8762524,-0.9433334,0.156106,-2.2662807,0.7423248
3.066,9.743742,-0.8858428,-0.811594,0.038712025,-2.5650678,0.70894456
3.068,9.774618,-0.90055084,-0.6694155,-0.0753479,-2.858354,0.6752176
3.07,9.813162,-0.92021704,-0.51784587,-0.18586063,-3.1458766,0.6412171
3.072,9.859371,-0.9446027,-0.35785222,-0.2926036,-3.4273794,0.60706514
3.074,9.912564,-0.97331333,-0.19058776,-0.39537215,-3.7025843,0.5729133
3.076,9.972618,-1.0060351,-0.017083406,-0.49396002,-3.9711823,0.5389137
3.078,10.039074,-1.0423052,0.16157174,-0.58816314,-4.232834,0.505218
3.08,10.111665,-1.0816901,0.34416533,-0.6778066,-4.4871607,0.4719938
3.082,10.1899395,-1.1237988,0.5298164,-0.7627424,-4.733745,0.439376
3.084,10.273342,-1.1680818,0.717402,-0.8428502,-4.9721503,0.4074613
3.086,10.361496,-1.2140067,0.9059148,-0.9180205,-5.2019377,0.37633836
3.088,10.453826,-1.261065,1.094548,-0.98819804,-5.422653,0.34607744
3.09,10.550045,-1.3085954,1.2822964,-1.0533385,-5.6338415,0.31672466
3.092,10.6495075,-1.3561666,1.4685442,-1.1133939,-5.835082,0.2883284
3.094,10.751555,-1.4031165,1.6524019,-1.1683109,-6.0259776,0.26092517
3.096,10.855788,-1.4490628,1.8333471,-1.2180266,-6.2061863,0.23453903
3.098,10.961628,-1.4934909,2.0107527,-1.262482,-6.3754063,0.20918775
3.1,11.068548,-1.5358527,2.1840973,-1.3016016,-6.5333967,0.18487406
3.102,11.17588,-1.5757127,2.3530428,-1.3353382,-6.680006,0.16160059
3.104,11.2831545,-1.6126603,2.5172782,-1.3636273,-6.8151245,0.13935208
3.106,11.389834,-1.6462448,2.6764374,-1.386435,-6.938732,0.11809635
3.108,11.495343,-1.6761585,2.8303912,-1.4037519,-7.0509095,0.09780574
3.11,11.599313,-1.7020465,2.9790494,-1.415615,-7.151814,0.07843757
3.112,11.701166,-1.7236078,3.1222584,-1.422106,-7.2416773,0.059962273
3.114,11.800468,-1.7407079,3.2601118,-1.4233329,-7.3208423,0.04235792
3.116,11.896669,-1.7531251,3.3927002,-1.4194548,-7.389704,0.025603771
3.118,11.989521,-1.7607147,3.520145,-1.4106684,-7.4487514,0.009702206
3.12,12.078503,-1.7633832,3.6426709,-1.3971894,-7.498521,-0.005334139
3.122,12.163238,-1.7610259,3.7605116,-1.3792591,-7.5395837,-0.0195055
3.124,12.243513,-1.7535889,3.8740592,-1.3571377,-7.5725164,-0.032821894
3.126,12.318919,-1.741077,3.983756,-1.33109,-7.597864,-0.045305014
3.128,12.389127,-1.7235819,4.089837,-1.3013613,-7.6161366,-0.0570004
3.13,12.453888,-1.7010926,4.1928234,-1.2681857,-7.6277666,-0.06796765
3.132,12.512929,-1.6736438,4.2931204,-1.2317716,-7.6330843,-0.07827902
3.134,12.566153,-1.6413625,4.3910747,-1.1922868,-7.6323237,-0.088009596
3.136,12.613015,-1.6043892,4.4870462,-1.1498452,-7.6256027,-0.09725046
3.138,12.653799,-1.5628383,4.5813427,-1.1045282,-7.61292,-0.10606384
3.14,12.688078,-1.516909,4.6742797,-1.056375,-7.594176,-0.11451578
3.142,12.715959,-1.4668248,4.766176,-1.0053554,-7.5691814,-0.12264013
3.144,12.737324,-1.4126937,4.8570566,-0.951426,-7.537695,-0.13043618
3.146,12.752084,-1.3547721,4.9470286,-0.89452195,-7.499428,-0.1378789
3.148,12.76015,-1.2931178,5.036143,-0.83456993,-7.4540825,-0.14491892
3.15,12.761661,-1.2281395,5.12424,-0.7715007,-7.401379,-0.15148878
3.152,12.756626,-1.159964,5.211307,-0.7052578,-7.341075,-0.1574812
3.154,12.7450695,-1.0887655,5.2971187,-0.63583124,-7.272992,-0.16278243
3.156,12.727234,-1.0147418,5.3814974,-0.5632446,-7.197025,-0.16724873
3.158,12.703281,-0.9382923,5.4640417,-0.48756552,-7.113162,-0.17072701
3.16,12.673289,-0.8594934,5.544401,-0.4089043,-7.021484,-0.17304635
3.162,12.637545,-0.77866185,5.6222863,-0.3274132,-6.9221582,-0.17405367
3.164,12.596214,-0.695918,5.697392,-0.24328434,-6.815457,-0.17358565
3.166,12.549473,-0.6116793,5.769429,-0.15672266,-6.7017183,-0.1715002
3.168,12.4976,-0.5261397,5.8381424,-0.06795335,-6.5813403,-0.16767359
3.17,12.440748,-0.43948048,5.903308,0.022786498,-6.454773,-0.16199851
3.172,12.379215,-0.35196096,5.9645596,0.115265846,-6.322504,-0.15439391
3.174,12.313212,-0.26389426,6.0220366,0.20925564,-6.1849985,-0.14480233
3.176,12.242985,-0.17563319,6.0754633,0.3045388,-6.0427303,-0.1331811
3.178,12.1688595,-0.08735323,6.1248717,0.4009133,-5.8961554,-0.11948252
3.18,12.0909605,0.00061428547,6.1702757,0.49817348,-5.7456937,-0.10369277
3.182,12.0092325,0.08800852,6.211725,0.59612125,-5.5917273,-0.085803986
3.184,11.924148,0.17455614,6.2494116,0.6945678,-5.4346266,-0.065806985
3.186,11.83575,0.26002073,6.283469,0.793319,-5.2747254,-0.043685794
3.188,11.744195,0.3440603,6.3140383,0.89218724,-5.1123395,-0.019438863
3.19,11.649513,0.42651868,6.3414335,0.99098194,-4.9477844,0.0069355965
3.192,11.551739,0.5072092,6.3658276,1.0895268,-4.781373,0.035437703
3.194,11.451018,0.58590555,6.387567,1.1876366,-4.6134386,0.066051245
3.196,11.347487,0.6623564,6.407025,1.2851208,-4.444302,0.098780274
3.198,11.241034,0.7365688,6.4244404,1.3818008,-4.2743096,0.13361192
3.2,11.131566,0.8083044,6.4402075,1.4775097,-4.103809,0.1705519
3.202,11.019404,0.8775439,6.454743,1.572082,-3.9331698,0.20961356
3.204,10.904391,0.94422567,6.4683,1.6653332,-3.7627568,0.25081766
3.206,10.786507,1.0083697,6.4813457,1.7570983,-3.5929127,0.29418445
3.208,10.665932,1.0698907,6.494269,1.8472154,-3.4239855,0.33974183
3.21,10.542585,1.1290246,6.507424,1.9355334,-3.256282,0.38750595
3.212,10.416552,1.1857488,6.521291,2.0218954,-3.0900676,0.437523
3.214,10.287922,1.240328,6.536212,2.1061568,-2.9255562,0.48982453
3.216,10.156725,1.2928866,6.55277,2.1881988,-2.7629142,0.54447496
3.218,10.023155,1.3438016,6.571287,2.267922,-2.6022496,0.6015258
3.22,9.887273,1.3932532,6.5922985,2.3452485,-2.4436052,0.66103184
3.222,9.749279,1.441609,6.6162605,2.420112,-2.2869766,0.72304666
3.224,9.609378,1.489334,6.6436033,2.4924743,-2.132307,0.78761744
3.226,9.46796,1.5364492,6.6747265,2.5623176,-1.9795072,0.8547763
3.228,9.324964,1.5834657,6.710115,2.6296291,-1.8284819,0.9245476
3.23,9.180763,1.630795,6.7500877,2.694396,-1.6791182,0.99692684
3.232,9.035766,1.6787819,6.7950025,2.756609,-1.5312877,1.0718884
3.234,8.890245,1.7275689,6.845175,2.8162587,-1.3848803,1.1494005
3.236,8.744321,1.7776554,6.900362,2.8733501,-1.2397747,1.2293956
3.238,8.598134,1.8293543,6.9618864,2.927859,-1.095837,1.3117952
3.24,8.452595,1.8829241,7.0293255,2.9797735,-0.95294577,1.3965008
3.242,8.308103,1.938431,7.1026363,3.0290828,-0.810967,1.4834095
3.244,8.164337,1.9961652,7.1821012,3.0757778,-0.6697352,1.5724385
3.246,8.021997,2.056251,7.2676754,3.1198618,-0.52908,1.6634885
3.248,7.881038,2.118792,7.359229,3.1613474,-0.38881886,1.7564586
3.25,7.742103,2.1838398,7.45663,3.2002525,-0.248743,1.8512629
3.252,7.605371,2.251318,7.5596523,3.2365973,-0.108623445,1.9478164
3.254,7.4711604,2.3212838,7.668089,3.2704008,0.0317685,2.0460281
3.256,7.3396535,2.3936543,7.781605,3.301692,0.17269892,2.1458068
3.258,7.211243,2.468164,7.899704,3.3305156,0.31442094,2.2470565
3.26,7.085909,2.5448394,8.021994,3.356902,0.45720422,2.3496804
3.262,6.9639077,2.6233187,8.147789,3.3808782,0.6013236,2.4535575
3.264,6.8454156,2.703406,8.276472,3.4024558,0.74706936,2.5585647
3.266,6.7303867,2.7849169,8.407392,3.4216237,0.89471847,2.6645508
3.268,6.6189275,2.867702,8.539915,3.4384089,1.044475,2.7713556
3.27,6.511148,2.9515684,8.673376,3.4528456,1.1966214,2.8788743
3.272,6.406863,3.036398,8.806881,3.4648824,1.3513792,2.9869077
3.274,6.3063135,3.1219819,8.939604,3.4744394,1.5088711,3.0953097
3.276,6.2095246,3.2082605,9.070576,3.4814482,1.6692283,3.203979
3.278,6.11646,3.2950737,9.198935,3.4858463,1.832531,3.3127873
3.28,6.027014,3.3824165,9.3238125,3.487546,1.998775,3.4216352
3.282,5.9411783,3.4701858,9.444476,3.48645,2.1678832,3.5304513
3.284,5.85873,3.5585113,9.559843,3.4824853,2.3396935,3.6391664
3.286,5.7796125,3.6474018,9.669141,3.475565,2.5139658,3.7476988
3.288,5.703758,3.7367392,9.771467,3.4655998,2.6903715,3.8559585
3.29,5.631027,3.8267343,9.865908,3.452495,2.8685088,3.96384
3.292,5.5612173,3.9174562,9.951794,3.4361773,3.0478902,4.071204
3.294,5.493931,4.0092406,10.028458,3.4165807,3.2279801,4.177887
3.296,5.4289565,4.1022477,10.095184,3.3936756,3.408213,4.2837205
3.298,5.3658266,4.1966925,10.151479,3.367453,3.5879738,4.3884807
3.3,5.304081,4.292766,10.19681,3.3379452,3.7666712,4.491924
3.302,5.2433505,4.3907447,10.2307415,3.3052337,3.943743,4.5937853
3.304,5.1827936,4.4909306,10.252778,3.2694292,4.1186223,4.693762
3.306,5.121681,4.5936527,10.262584,3.2306685,4.2907815,4.7915535
3.308,5.0592465,4.6991067,10.259928,3.1891065,4.4597263,4.8868384
3.31,4.9947186,4.807601,10.244535,3.1449034,4.6250086,4.97926
3.312,4.9268556,4.919475,10.216242,3.0981936,4.7862086,5.06841
3.314,4.854764,5.034959,10.175097,3.0490758,4.94297,5.1538267
3.316,4.777346,5.154379,10.120902,2.9976215,5.094964,5.2349772
3.318,4.693386,5.2777786,10.053813,2.9438338,5.241863,5.311281
3.32,4.601863,5.405068,9.97377,2.887693,5.3833666,5.3821354
3.322,4.5018864,5.53632,9.880856,2.8290787,5.5192385,5.4469004
3.324,4.392285,5.6715264,9.775063,2.7678452,5.649134,5.504869
3.326,4.272294,5.8107057,9.656253,2.7038622,5.7728024,5.555455
3.328,4.141223,5.9537344,9.524558,2.63694,5.889965,5.5980253
3.33,3.9983492,6.1003757,9.379942,2.5668242,6.0003004,5.6320114
3.332,3.8432233,6.250469,9.2224865,2.4932408,6.1034565,5.6569405
3.334,3.6756206,6.4035583,9.052141,2.4159112,6.1990566,5.672392
3.336,3.495407,6.5595064,8.869241,2.3345895,6.28669,5.6779995
3.338,3.3028884,6.7175956,8.673766,2.249018,6.365878,5.6734605
3.34,3.0984204,6.877243,8.466029,2.1590314,6.4360905,5.6585307
3.342,2.8823981,7.03779,8.246214,2.0645053,6.4967427,5.6330237
3.344,2.6557286,7.1986027,8.014572,1.9654021,6.5471964,5.596802
3.346,2.4195676,7.35852,7.771787,1.8617673,6.586791,5.549747
3.348,2.175221,7.516632,7.5171824,1.7537317,6.614837,5.491838
3.35,1.9232595,7.67197,7.2518435,1.6414942,6.630631,5.423131
3.352,1.6650858,7.82352,6.976312,1.5253354,6.6335125,5.3438196
3.354,1.4027121,7.970062,6.690793,1.4056065,6.622881,5.254222
3.356,1.1372583,8.110504,6.395911,1.2826984,6.598193,5.1547613
3.358,0.8703668,8.243667,6.092369,1.1570523,6.5590734,5.0459785
3.36,0.6026237,8.368781,5.7806826,1.0291102,6.5053105,4.9285645
3.362,0.33456755,8.486,5.460917,0.8993032,6.436857,4.803351
3.364,0.06597924,8.595642,5.1332197,0.76803684,6.3538494,4.6713486
3.366,-0.20067143,8.696166,4.7978134,0.635674,6.2566404,4.5337305
3.368,-0.46386123,8.784878,4.4570646,0.50252914,6.145738,4.3918066
3.37,-0.7238052,8.8606205,4.112566,0.3688593,6.0218015,4.2469726
3.372,-0.98069024,8.923009,3.764505,0.23490071,5.8856645,4.1006603
3.374,-1.2348368,8.970895,3.4138706,0.10084963,5.7382417,3.9542527
3.376,-1.4852701,9.003618,3.062418,-0.033082485,5.580522,3.8091002
3.378,-1.7310915,9.023378,2.7096465,-0.16667593,5.413515,3.6663995
3.38,-1.973097,9.03461,2.3531191,-0.29964697,5.238212,3.5271282
3.382,-2.21207,9.0401325,1.9911226,-0.43167734,5.0556197,3.3919997
3.384,-2.447368,9.040868,1.6231699,-0.5624068,4.8667145,3.2614605
3.386,-2.6769261,9.035809,1.2481309,-0.6914718,4.672462,3.13572
3.388,-2.9022613,9.024881,0.86667156,-0.81851697,4.473818,3.0148168
3.39,-3.124653,9.008382,0.47882962,-0.94324136,4.2717066,2.8985918
3.392,-3.345307,8.986456,0.0837965,-1.0653647,4.0670586,2.7866592
3.394,-3.5645056,8.959059,-0.31929493,-1.1846359,3.8607664,2.6782987
3.396,-3.781343,8.926433,-0.73189926,-1.3007836,3.6536977,2.5726337
3.398,-3.9953856,8.890333,-1.1548479,-1.4135044,3.446715,2.4688685
3.4,-4.2061987,8.852737,-1.5884025,-1.5223625,3.2408335,2.3662744
3.402,-4.412418,8.814968,-2.0341406,-1.6268106,3.037143,2.2638848
3.404,-4.6125336,8.777701,-2.4944043,-1.7260778,2.8367667,2.1605287
3.406,-4.805113,8.741381,-2.9714,-1.8190114,2.6412187,2.055409
3.408,-4.988154,8.7066765,-3.4665968,-1.9040239,2.4525769,1.9483861
3.41,-5.15975,8.674112,-3.98106,-1.9789422,2.2733455,1.8395582
3.412,-5.3182926,8.643624,-4.5159783,-2.0409217,2.1065202,1.7291178
3.414,-5.4613643,8.61584,-5.071595,-2.0868206,1.9557018,1.6175823
3.416,-5.5874524,8.589652,-5.64828,-2.1136777,1.8245337,1.5061233
3.418,-5.6949296,8.564104,-6.2444,-2.1186795,1.7168903,1.3965743
3.42,-5.7825456,8.5378475,-6.85699,-2.0991344,1.636956,1.2910938
3.422,-5.849014,8.508634,-7.4825335,-2.0527315,1.5886412,1.1917105
3.424,-5.8933635,8.473453,-8.116371,-1.9779727,1.5750434,1.0999882
3.426,-5.9150367,8.429454,-8.752672,-1.8746792,1.5978407,1.0167358
3.428,-5.9140987,8.3739395,-9.385008,-1.7444696,1.6566719,0.94159395
3.43,-5.8909492,8.304019,-10.006216,-1.5908344,1.7488713,0.8727259
3.432,-5.846591,8.216809,-10.608622,-1.4190346,1.869387,0.8068663
3.434,-5.7821126,8.109195,-11.183808,-1.235785,2.0108843,0.7397748
3.436,-5.6992016,7.9783964,-11.723269,-1.048655,2.1642628,0.6669278
3.438,-5.5997777,7.822019,-12.2187395,-0.86535597,2.3194842,0.58425415
3.44,-5.485911,7.638424,-12.662422,-0.69291675,2.4666085,0.48883322
3.442,-5.359584,7.426465,-13.047062,-0.5368962,2.5968008,0.37945238
3.444,-5.223451,7.186125,-13.366349,-0.40078998,2.7031329,0.25694525
3.446,-5.0797853,6.9178963,-13.615635,-0.2857888,2.7811055,0.12427664
3.448,-4.930621,6.6229243,-13.791505,-0.19082016,2.828842,-0.013821214
3.45,-4.778125,6.303431,-13.892108,-0.11290702,2.8469803,-0.1517148
3.452,-4.6243653,5.9622765,-13.916943,-0.047787473,2.838202,-0.28371137
3.454,-4.470904,5.6026607,-13.8677635,0.009216927,2.8064122,-0.40454367
3.456,-4.319087,5.228544,-13.747749,0.062490087,2.7562375,-0.5097189
3.458,-4.1703415,4.844281,-13.561328,0.11547146,2.692339,-0.5961504
3.46,-4.025594,4.4546146,-13.314024,0.17018507,2.6185975,-0.66279083
3.462,-3.8855186,4.0640936,-13.01247,0.2271736,2.5378308,-0.7103636
3.464,-3.7509553,3.6771882,-12.663686,0.2855648,2.4519222,-0.74055064
3.466,-3.6224647,3.2979903,-12.275066,0.34335628,2.3618114,-0.7556558
3.468,-3.5008411,2.930286,-11.854286,0.3980888,2.2675407,-0.75860286
3.47,-3.3859477,2.5769858,-11.408551,0.44730684,2.1688602,-0.75271946
3.472,-3.277602,2.2398906,-10.944374,0.4884796,2.0649805,-0.7412628
3.474,-3.175526,1.9204726,-10.468018,0.519129,1.9546967,-0.7269765
3.476,-3.0818372,1.621989,-9.9852915,0.5372449,1.8370034,-0.71186745
3.478,-2.9974432,1.3473684,-9.502799,0.5415797,1.7112713,-0.6972712
3.48,-2.9213026,1.0971882,-9.024973,0.5318277,1.5772908,-0.68398213
3.482,-2.853065,0.87101823,-8.553986,0.50860983,1.4353701,-0.67228806
3.484,-2.792594,0.6690169,-8.092158,0.47323525,1.2861472,-0.66198206
3.486,-2.7409296,0.4905782,-7.641814,0.42743582,1.1304843,-0.6525506
3.488,-2.6985822,0.3327291,-7.2024207,0.37321854,0.96946,-0.6434766
3.49,-2.6645122,0.1919356,-6.7721996,0.31271422,0.8042926,-0.634416
3.492,-2.6378722,0.06767471,-6.350546,0.24807462,0.6362244,-0.6251949
3.494,-2.6192646,-0.03858304,-5.9384203,0.1813522,0.46645814,-0.61573195
3.496,-2.6097908,-0.12420568,-5.535683,0.11434731,0.29613942,-0.6060231
3.498,-2.6066353,-0.18852542,-5.14381,0.048564076,0.126356,-0.59616196
3.5,-2.608014,-0.23178077,-4.762903,-0.0148229,-0.041872762,-0.58633727
3.502,-2.6125867,-0.2541818,-4.3920813,-0.07499221,-0.20766757,-0.5767106
3.504,-2.6199121,-0.256241,-4.0302854,-0.13145334,-0.37040213,-0.5673706
3.506,-2.6304107,-0.23886493,-3.6761625,-0.18399644,-0.5297011,-0.5583776
3.508,-2.6436222,-0.20431194,-3.3292356,-0.2325658,-0.68537503,-0.5498379
