Time_s_,Acc_x_m_s_2_,Acc_y_m_s_2_,Acc_z_m_s_2_,Gyro_x_1_s_,Gyro_y_1_s_,Gyro_z_1_s_
0,0.61998403,0.9135038,0.359741,-0.04261993,-0.08395807,-0.0011533797
0.002,0.7125005,0.90460247,0.29083574,-0.04227682,-0.08984152,-0.0074650142
0.004,0.80813223,0.8962598,0.22020066,-0.041925877,-0.096265644,-0.014482347
0.006,0.90656257,0.8885564,0.14788589,-0.041569337,-0.10316363,-0.022250257
0.008,1.0074602,0.8814188,0.07382125,-0.04121535,-0.11039848,-0.030770179
0.01,1.1104052,0.87499917,-0.0017210245,-0.040874016,-0.11776167,-0.040007155
0.012,1.2150328,0.8697202,-0.078238815,-0.040535863,-0.12496312,-0.049886942
0.014,1.3204579,0.8657841,-0.15530348,-0.040195215,-0.13163775,-0.060295373
0.016,1.4258243,0.86352396,-0.23250985,-0.039839428,-0.13736805,-0.071038246
0.018,1.5302958,0.86330676,-0.30934396,-0.03944858,-0.14174064,-0.08184985
0.02,1.6326499,0.86536545,-0.38506734,-0.038996182,-0.14438392,-0.09240836
0.022,1.731766,0.86995214,-0.4588843,-0.038450107,-0.14501543,-0.102380194
0.024,1.8264308,0.8772867,-0.5301223,-0.037784696,-0.14345658,-0.111436374
0.026,1.9154042,0.8875299,-0.5980594,-0.03697607,-0.13965811,-0.11929962
0.028,1.9972646,0.9008985,-0.6619892,-0.035975125,-0.13381256,-0.12603828
0.03,2.070655,0.91735363,-0.72098505,-0.034814935,-0.12589256,-0.13105968
0.032,2.1341972,0.9371488,-0.774006,-0.03346757,-0.11614164,-0.13431782
0.034,2.1867127,0.9603152,-0.8202659,-0.031923153,-0.104800746,-0.13583967
0.036,2.2271724,0.98678064,-0.8591875,-0.03021134,-0.0921349,-0.13570261
0.038,2.2547486,1.0162926,-0.89031196,-0.028384764,-0.078411825,-0.13406737
0.04,2.268774,1.048371,-0.9130392,-0.026529875,-0.063882306,-0.13110453
0.042,2.2687557,1.0825365,-0.9269278,-0.024735663,-0.0487675,-0.12701377
0.044,2.2546523,1.1183035,-0.93157,-0.023126224,-0.03324208,-0.122019574
0.046,2.226583,1.1549809,-0.92689717,-0.021817304,-0.017432332,-0.11636549
0.048,2.184886,1.1918523,-0.91290355,-0.02091964,-0.0014156513,-0.11030646
0.05,2.130203,1.2283008,-0.8896698,-0.020498462,0.014755126,-0.10410843
0.052,2.063639,1.2634529,-0.85736907,-0.020610355,0.031082656,-0.09801571
0.054,1.9863513,1.2966442,-0.8163524,-0.021229696,0.047570154,-0.092279844
0.056,1.9019347,1.3271022,-0.769426,-0.022291295,0.0642414,-0.087100975
0.058,1.8090802,1.354131,-0.7139493,-0.023685105,0.08110158,-0.08267243
0.06,1.7095832,1.3769064,-0.6506466,-0.025271988,0.09811738,-0.07914179
0.062,1.6050863,1.3950223,-0.58052045,-0.026899703,0.11522538,-0.07662877
0.064,1.4979144,1.4076132,-0.504912,-0.02843028,0.13234067,-0.07522936
0.066,1.3903898,1.4140146,-0.42381522,-0.029769424,0.14936215,-0.0750056
0.068,1.2826246,1.4145386,-0.33843526,-0.030843258,0.16619189,-0.07599603
0.07,1.1760144,1.40939,-0.2501591,-0.031612128,0.18274358,-0.07820946
0.072,1.0717854,1.3989491,-0.15921825,-0.032067124,0.1989935,-0.081618205
0.074,0.9710772,1.3833364,-0.06579745,-0.032216746,0.21499349,-0.08616098
0.076,0.8747575,1.3624501,0.02862385,-0.032079767,0.23083393,-0.09170882
0.078,0.7833419,1.3366958,0.122503415,-0.031668566,0.24663848,-0.09810342
0.08,0.6974742,1.3068836,0.2146634,-0.031005668,0.26254505,-0.105152614
0.082,0.6174483,1.2737834,0.30430943,-0.030098338,0.27869144,-0.112669565
0.084,0.5433351,1.238041,0.390809,-0.028958108,0.29518217,-0.12049903
0.086,0.47505346,1.2001246,0.47318184,-0.027589347,0.31209087,-0.12849642
0.088,0.41216648,1.1607112,0.55055726,-0.026023814,0.32945284,-0.1365489
0.09,0.35401967,1.120501,0.6218583,-0.024273537,0.34725136,-0.14455728
0.092,0.30016637,1.0803239,0.6861514,-0.02236844,0.36544734,-0.15243499
0.094,0.25008866,1.0409105,0.7421941,-0.020342775,0.38394096,-0.16013911
0.096,0.20299375,1.0029804,0.7890757,-0.01826157,0.40254313,-0.16764958
0.098,0.15798527,0.9672388,0.8262251,-0.01617762,0.42114952,-0.17494199
0.1,0.11426273,0.9340824,0.8535392,-0.014149178,0.43956798,-0.18191537
0.102,0.07104224,0.9039985,0.8710463,-0.012210358,0.45762226,-0.18846352
0.104,0.02754742,0.87739855,0.8783798,-0.010366529,0.4752345,-0.19454099
0.106,-0.016813725,0.8545962,0.8752805,-0.00867584,0.4923208,-0.20010163
0.108,-0.06259799,0.8357721,0.8617135,-0.007229235,0.5087225,-0.20502752
0.11,-0.11032073,0.8210219,0.8379871,-0.0060940236,0.52426714,-0.20918134
0.112,-0.16047606,0.81058466,0.80463576,-0.005277943,0.53884584,-0.21242613
0.114,-0.21322295,0.8043108,0.7625079,-0.004751265,0.5524781,-0.21472572
0.116,-0.26869428,0.80216944,0.7123393,-0.004434757,0.5652934,-0.21608116
0.118,-0.3262253,0.8038341,0.6553868,-0.0041916296,0.5775043,-0.21648529
0.12,-0.38541076,0.8087578,0.5929441,-0.0038373694,0.58941615,-0.21595109
0.122,-0.4469372,0.8170019,0.5252123,-0.0031700581,0.60138905,-0.21452868
0.124,-0.5107624,0.8288008,0.453304,-0.001964502,0.6137877,-0.21232958
0.126,-0.5767927,0.8440729,0.37923527,-3.322214e-05,0.626931,-0.20948052
0.128,-0.64405257,0.8617509,0.30464596,0.0027405843,0.6410182,-0.20611909
0.13,-0.7113752,0.88081396,0.23012829,0.00642135,0.65615785,-0.20242672
0.132,-0.7793001,0.9010864,0.155675,0.01097513,0.67233914,-0.19862576
0.134,-0.84467137,0.92111766,0.082061395,0.016284011,0.689446,-0.19499335
0.136,-0.9049731,0.94019186,0.009009466,0.022130013,0.7072516,-0.19183016
0.138,-0.962971,0.960023,-0.06290336,0.028247848,0.72548497,-0.1894417
0.14,-1.0189238,0.9807094,-0.12944834,0.03434153,0.7438197,-0.18810639
0.142,-1.0695448,1.0013108,-0.19005021,0.040119186,0.76194185,-0.18807963
0.144,-1.1136653,1.0211289,-0.24633293,0.045290083,0.77957386,-0.18958066
0.146,-1.1515517,1.0393041,-0.29835498,0.0495966,0.79646254,-0.19277215
0.148,-1.1848949,1.0568944,-0.34648544,0.052809805,0.81232584,-0.1977324
0.15,-1.213449,1.0739326,-0.38876104,0.054769203,0.82692343,-0.20447293
0.152,-1.2360058,1.0891913,-0.42171794,0.05541186,0.8399891,-0.21290845
0.154,-1.2525237,1.1023254,-0.44442117,0.05473213,0.85129875,-0.22290352
0.156,-1.2631431,1.1139009,-0.45970172,0.052778512,0.8606562,-0.23427345
0.158,-1.2674997,1.124091,-0.47065598,0.04966917,0.86799705,-0.2467749
0.16,-1.2657317,1.1325641,-0.47729376,0.045620576,0.87343544,-0.26015002
0.162,-1.2585769,1.1393892,-0.47760677,0.04088746,0.8772503,-0.2741313
0.164,-1.2467215,1.1445725,-0.4693776,0.03569518,0.8796615,-0.28838354
0.166,-1.2309396,1.1484122,-0.4514995,0.030308343,0.8810719,-0.30255985
0.168,-1.2119875,1.1507871,-0.42404085,0.02494657,0.8819145,-0.31625742
0.17,-1.1906084,1.1517274,-0.3877033,0.019744545,0.88251597,-0.32901785
0.172,-1.1674781,1.1512684,-0.342737,0.014890581,0.88350207,-0.34059072
0.174,-1.1438229,1.1498326,-0.2888815,0.010557614,0.88555694,-0.35085616
0.176,-1.1209129,1.147964,-0.22674812,0.0068265125,0.88924944,-0.35951385
0.178,-1.098165,1.1453859,-0.1557619,0.0036930814,0.8949215,-0.3664507
0.18,-1.0767264,1.1423428,-0.075488195,0.0010325834,0.90250915,-0.37183252
0.182,-1.0572704,1.1388316,0.013159782,-0.0013233423,0.9118781,-0.37577996
0.184,-1.0407627,1.1353524,0.10942136,-0.0035514906,0.9228593,-0.378387
0.186,-1.027745,1.1325272,0.21332267,-0.0057818443,0.93513477,-0.37993628
0.188,-1.0187178,1.1305311,0.32465792,-0.00815779,0.9481905,-0.38083124
0.19,-1.0143498,1.129325,0.44249946,-0.010838889,0.9615828,-0.38145477
0.192,-1.0151066,1.1290736,0.56539536,-0.013961427,0.975233,-0.38212198
0.194,-1.0211526,1.1300803,0.69206023,-0.01752168,0.9895995,-0.3831412
0.196,-1.03253,1.1328648,0.82126516,-0.021337584,1.0056134,-0.38476238
0.198,-1.0490785,1.137604,0.9515686,-0.025074378,1.0244374,-0.38717875
0.2,-1.0705714,1.1444149,1.081671,-0.02836842,1.0471547,-0.3904528
0.202,-1.0966146,1.1533632,1.210299,-0.03087052,1.0745589,-0.39455238
0.204,-1.1269226,1.1645072,1.3366792,-0.03235604,1.1068914,-0.39933723
0.206,-1.1608872,1.177868,1.4597684,-0.032783665,1.1437376,-0.40466782
0.208,-1.197983,1.193439,1.5784401,-0.0322818,1.1841506,-0.41045055
0.21,-1.2374442,1.2110395,1.6916457,-0.031143561,1.2266853,-0.41661686
0.212,-1.278754,1.2306442,1.7986053,-0.029826581,1.2695732,-0.4231627
0.214,-1.3210151,1.2521544,1.8988881,-0.028852642,1.3111356,-0.4302064
0.216,-1.3635263,1.2753491,1.9923092,-0.028737798,1.3500394,-0.43800303
0.218,-1.4055802,1.300064,2.078717,-0.029885203,1.3854865,-0.44685227
0.22,-1.4465638,1.3260974,2.1580367,-0.032590955,1.4170203,-0.45700514
0.222,-1.4859799,1.3531529,2.2303052,-0.036900684,1.4446969,-0.4686855
0.224,-1.5233349,1.3808861,2.2957447,-0.042662784,1.4690192,-0.4821058
0.226,-1.5584722,1.409177,2.355266,-0.04967968,1.4904484,-0.49724635
0.228,-1.5917735,1.4380989,2.4093785,-0.057669103,1.5095733,-0.51398194
0.23,-1.622993,1.4675505,2.458548,-0.06627762,1.5270516,-0.53228265
0.232,-1.6511443,1.496867,2.5041142,-0.07519406,1.5435393,-0.55183506
0.234,-1.6760998,1.5255417,2.5464993,-0.08413104,1.5596882,-0.5721575
0.236,-1.6979543,1.5534554,2.58547,-0.09292233,1.5758803,-0.592903
0.238,-1.7176931,1.5813622,2.6215353,-0.101507984,1.5924,-0.6137327
0.24,-1.7359277,1.6096704,2.6558495,-0.10985161,1.6096549,-0.63414526
0.242,-1.752039,1.6378311,2.6901212,-0.11787048,1.6281943,-0.6536436
0.244,-1.7687546,1.6664776,2.7248294,-0.12542677,1.6484383,-0.6718985
0.246,-1.7872014,1.6953137,2.760918,-0.13241331,1.6704799,-0.68869096
0.248,-1.8035556,1.7221799,2.798168,-0.1388115,1.6941322,-0.7038357
0.25,-1.8180931,1.7473449,2.833262,-0.14469135,1.7190276,-0.7172071
0.252,-1.8338501,1.771763,2.8673577,-0.1501329,1.7448381,-0.72878695
0.254,-1.8510025,1.7959679,2.9031427,-0.15516374,1.7713093,-0.7387003
0.256,-1.8684437,1.820412,2.9408386,-0.15980764,1.7982261,-0.7471516
0.258,-1.8844439,1.8439119,2.9805913,-0.16406116,1.8253764,-0.7544255
0.26,-1.8995677,1.8667133,3.0200694,-0.1679306,1.8525535,-0.7608288
0.262,-1.9150462,1.8900009,3.0569036,-0.17141104,1.8795568,-0.76663584
0.264,-1.9307421,1.9137172,3.0918834,-0.17450505,1.9061868,-0.7721022
0.266,-1.9460094,1.937142,3.1287355,-0.17718261,1.93223,-0.77746105
0.268,-1.9604828,1.9601946,3.169412,-0.17942631,1.9574395,-0.78293693
0.27,-1.9734462,1.9831696,3.2120373,-0.18124369,1.981522,-0.78870016
0.272,-1.9837333,2.0062122,3.2536798,-0.18264708,2.0041723,-0.7949025
0.274,-1.9903136,2.0293531,3.2924938,-0.18367806,2.0250394,-0.8016628
0.276,-1.9921875,2.0526648,3.3281977,-0.1843997,2.043774,-0.8090903
0.278,-1.9885745,2.076581,3.3615713,-0.18488371,2.0600476,-0.8172961
0.28,-1.9784992,2.1012588,3.3933654,-0.18521892,2.0735419,-0.82638246
0.282,-1.9612336,2.1267605,3.4236534,-0.18548702,2.0840166,-0.836475
0.284,-1.9358263,2.1530917,3.452012,-0.18577215,2.091318,-0.84769106
0.286,-1.9017392,2.1800334,3.4779558,-0.18615013,2.095388,-0.860139
0.288,-1.8584397,2.2076645,3.501108,-0.18666992,2.0962887,-0.87387776
0.29,-1.8054501,2.2360396,3.5212362,-0.18736383,2.0941637,-0.8889364
0.292,-1.742881,2.2656744,3.5382624,-0.18825065,2.0892794,-0.90528
0.294,-1.6704317,2.296666,3.552022,-0.18932489,2.0819898,-0.922824
0.296,-1.5883036,2.3290186,3.5625267,-0.19056135,2.0727131,-0.94143695
0.298,-1.4964238,2.3625956,3.5696414,-0.1919592,2.0618606,-0.96093047
0.3,-1.3950996,2.3971696,3.5731888,-0.19351375,2.0498643,-0.98110443
0.302,-1.284596,2.4324303,3.5734673,-0.19527127,2.037105,-1.0017314
0.304,-1.1654527,2.4681036,3.5704393,-0.19729786,2.0239244,-1.0225892
0.306,-1.0384681,2.503856,3.5643303,-0.19970311,2.0105405,-1.0434661
0.308,-0.9045094,2.5395296,3.5552642,-0.20266469,1.9970503,-1.0641917
0.31,-0.76438725,2.57491,3.5434358,-0.20640631,1.9834472,-1.0846634
0.312,-0.6192038,2.60962,3.5287585,-0.2111615,1.9696528,-1.1048014
0.314,-0.46997237,2.6433911,3.5111525,-0.21715747,1.9555324,-1.1245497
0.316,-0.31792045,2.6762028,3.4909494,-0.22462037,1.9409419,-1.1438881
0.318,-0.16407275,2.7077136,3.4686306,-0.23370707,1.9257581,-1.1628304
0.32,-0.009804964,2.7379727,3.4445572,-0.24453115,1.9099113,-1.1814121
0.322,0.14399028,2.7668176,3.4191127,-0.25712612,1.8934127,-1.1996552
0.324,0.2960143,2.7942145,3.3927083,-0.27144775,1.87633,-1.2176197
0.326,0.44532847,2.8201876,3.3653731,-0.28740364,1.8588057,-1.2353635
0.328,0.5908538,2.8447926,3.3371053,-0.30481052,1.8411044,-1.2529324
0.33,0.73170495,2.868175,3.3078384,-0.32341206,1.8235464,-1.2703573
0.332,0.86703515,2.8904233,3.2777917,-0.34288305,1.8065687,-1.2876432
0.334,0.99602175,2.9119334,3.247219,-0.36284533,1.7906657,-1.3047689
0.336,1.1182445,2.932804,3.2160492,-0.38286915,1.7763342,-1.3216636
0.338,1.2330568,2.9532447,3.1843388,-0.40248072,1.764084,-1.3382609
0.34,1.3399465,2.9736567,3.1518898,-0.42119768,1.7543734,-1.3544782
0.342,1.4387001,2.9942832,3.1187892,-0.43857872,1.7475656,-1.3702389
0.344,1.5291255,3.0155864,3.0849943,-0.4542039,1.7439364,-1.385467
0.346,1.6111774,3.0379534,3.0505333,-0.4677116,1.7436008,-1.4000788
0.348,1.6846895,3.0616899,3.0150342,-0.47883725,1.7465302,-1.4140065
0.35,1.7498285,3.087065,2.9785392,-0.48739746,1.7525307,-1.4272052
0.352,1.8066797,3.114491,2.9407787,-0.4933093,1.7612697,-1.4396627
0.354,1.8554993,3.1441479,2.9016676,-0.49661028,1.77223,-1.4513798
0.356,1.8967702,3.176342,2.861447,-0.49743786,1.7847778,-1.4624057
0.358,1.9306643,3.2110963,2.8204117,-0.49604455,1.7981648,-1.472821
0.36,1.9575741,3.2486503,2.7790244,-0.4927367,1.8116157,-1.4827123
0.362,1.9780413,3.2889533,2.7376537,-0.4878326,1.8243843,-1.492161
0.364,1.9923733,3.3319736,2.6966763,-0.48164204,1.8357884,-1.5012586
0.366,2.0011444,3.377707,2.6565228,-0.47449857,1.8452147,-1.5101202
0.368,2.004743,3.4261336,2.617577,-0.46669793,1.8521708,-1.5188625
0.37,2.003846,3.4771852,2.580593,-0.45846942,1.8562908,-1.5275846
0.372,1.9992689,3.5305047,2.5459518,-0.44998392,1.8573328,-1.5363228
0.374,1.991714,3.5857346,2.5140176,-0.4413274,1.8551933,-1.545071
0.376,1.9817785,3.642579,2.4850926,-0.4325071,1.8498904,-1.553775
0.378,1.9697797,3.7006686,2.4596782,-0.42347583,1.8415761,-1.5622885
0.38,1.9566038,3.7595353,2.438123,-0.41411525,1.8304913,-1.570427
0.382,1.9428725,3.818688,2.4205933,-0.4042968,1.816944,-1.5779828
0.384,1.9294722,3.8774714,2.4070385,-0.39388928,1.8013079,-1.5847503
0.386,1.9170847,3.935206,2.3977156,-0.38277557,1.7839853,-1.5905648
0.388,1.9064759,3.991088,2.3929613,-0.37088278,1.7653995,-1.5953109
0.39,1.8983549,4.044513,2.392695,-0.3581878,1.7459583,-1.5989478
0.392,1.8934718,4.0946946,2.3967588,-0.34474513,1.7260282,-1.6014937
0.394,1.8925533,4.1408296,2.4049754,-0.33067447,1.705888,-1.6030432
0.396,1.8965542,4.182182,2.417062,-0.3161359,1.6857321,-1.6037532
0.398,1.906357,4.2179756,2.432798,-0.30134767,1.6656904,-1.6038113
0.4,1.9226135,4.247556,2.4518738,-0.2865344,1.6458199,-1.6034565
0.402,1.9456979,4.2702255,2.474089,-0.27192804,1.6261504,-1.6029236
0.404,1.976225,4.2854548,2.4992325,-0.2577395,1.6067219,-1.6024103
0.406,2.0146892,4.2928,2.527014,-0.2441288,1.5875944,-1.6020795
0.408,2.0614653,4.292057,2.5571218,-0.23119557,1.5688978,-1.6020613
0.41,2.1168268,4.2829885,2.5893211,-0.21898347,1.5507879,-1.6024439
0.412,2.1809316,4.2655425,2.6229873,-0.2074902,1.5334859,-1.6032636
0.414,2.25379,4.2396955,2.6576355,-0.19667503,1.5172409,-1.6045117
0.416,2.33535,4.2056503,2.6926818,-0.1864819,1.5022845,-1.6061356
0.418,2.4252734,4.163483,2.727734,-0.17684984,1.4888302,-1.6080192
0.42,2.5231984,4.113475,2.762431,-0.16769713,1.4770275,-1.6100168
0.422,2.6285453,4.0562167,2.7965884,-0.15898603,1.4669433,-1.6119697
0.424,2.740662,3.9922614,2.829796,-0.1506947,1.4585801,-1.6137116
0.426,2.858971,3.9221864,2.861355,-0.14284459,1.4518758,-1.6150825
0.428,2.9823585,3.8467216,2.8906121,-0.1354731,1.4466906,-1.6159399
0.43,3.1100733,3.7665098,2.917004,-0.12864089,1.4428422,-1.6161625
0.432,3.2410984,3.6822648,2.9400692,-0.12237835,1.4401371,-1.6156454
0.434,3.374193,3.5947971,2.9594302,-0.11672619,1.4383819,-1.6143105
0.436,3.5080972,3.5049474,2.9748878,-0.11168736,1.4374154,-1.6120889
0.438,3.6416237,3.4135575,2.9862466,-0.1072306,1.4371092,-1.6089249
0.44,3.7735648,3.321363,2.9933136,-0.103304535,1.4373531,-1.6047363
0.442,3.9027493,3.229222,2.9957225,-0.09984088,1.4380848,-1.5994418
0.444,4.0280714,3.137709,2.9932036,-0.09676382,1.4392502,-1.592957
0.446,4.148142,3.0476902,2.985641,-0.0939745,1.4407985,-1.5851847
0.448,4.2622437,2.9598172,2.972962,-0.09137982,1.4426892,-1.5760251
0.45,4.369263,2.8746006,2.955445,-0.08889064,1.444848,-1.5653862
0.452,4.4683657,2.792522,2.9331255,-0.08643162,1.4471674,-1.5531939
0.454,4.558926,2.7138243,2.906159,-0.0839296,1.4495381,-1.5393806
0.456,4.640231,2.638816,2.8747349,-0.08129954,1.4518204,-1.5239264
0.458,4.7119713,2.5675218,2.839085,-0.07848185,1.4538801,-1.5068678
0.46,4.7736173,2.5001645,2.7993686,-0.07541999,1.4556012,-1.48828
0.462,4.8251486,2.436537,2.7557209,-0.072089806,1.4568713,-1.4682755
0.464,4.866348,2.3766,2.7083917,-0.068475455,1.4576279,-1.4470036
0.466,4.896991,2.3201542,2.6575375,-0.06459278,1.4578246,-1.4246148
0.468,4.9172707,2.2670557,2.6032128,-0.06047912,1.4574305,-1.4012866
0.47,4.927473,2.2169206,2.5454545,-0.056183696,1.4564356,-1.3771856
0.472,4.9276495,2.169559,2.4843047,-0.05177453,1.454834,-1.3524746
0.474,4.9181843,2.1246815,2.4198983,-0.04732597,1.4526451,-1.3272929
0.476,4.8992996,2.0818858,2.3524323,-0.04291904,1.4498533,-1.3017645
0.478,4.8714905,2.0407073,2.2820053,-0.038673833,1.4463751,-1.2760181
0.48,4.835055,2.0007703,2.2086883,-0.034690112,1.4420676,-1.2501655
0.482,4.790436,1.9617265,2.1325414,-0.03109859,1.4367433,-1.2243127
0.484,4.7380877,1.9233919,2.0537515,-0.02800639,1.4301734,-1.1985669
0.486,4.6786604,1.8853319,1.9725841,-0.025505938,1.4221281,-1.1730517
0.488,4.6128674,1.8472272,1.8892415,-0.023655713,1.412403,-1.1478878
0.49,4.541209,1.8088796,1.8039322,-0.022480793,1.4008366,-1.1232182
0.492,4.464384,1.7698532,1.7168882,-0.02198007,1.387336,-1.0991892
0.494,4.383062,1.7299521,1.6284933,-0.022084855,1.3719156,-1.0759822
0.496,4.2979326,1.6889644,1.5389057,-0.0226961,1.354649,-1.0537692
0.498,4.2097025,1.6468127,1.4483408,-0.023699798,1.3357239,-1.0327234
0.5,4.1190557,1.6032586,1.3572285,-0.024977386,1.3153957,-1.0130086
0.502,4.026765,1.5582885,1.2658753,-0.026391275,1.2939817,-0.9947398
0.504,3.9334567,1.5118321,1.1746153,-0.027830064,1.2718345,-0.977993
0.506,3.8398352,1.4640003,1.0837874,-0.029179335,1.249335,-0.96277463
0.508,3.7464478,1.4146918,0.9937222,-0.0303397,1.2268486,-0.94902664
0.51,3.6540136,1.3638425,0.90479517,-0.03122989,1.2047075,-0.93662727
0.512,3.5632691,1.3114809,0.8173599,-0.03177739,1.1831911,-0.92542434
0.514,3.4746351,1.2576149,0.73160505,-0.03192907,1.1624966,-0.9152264
0.516,3.3885083,1.2024202,0.6478503,-0.03162732,1.1427501,-0.90583503
0.518,3.305231,1.1458946,0.5664189,-0.030848265,1.1239784,-0.8970393
0.52,3.2251172,1.0883018,0.4875654,-0.02957628,1.1061243,-0.888669
0.522,3.148291,1.0298332,0.41157544,-0.027827367,1.0890481,-0.88055533
0.524,3.0749047,0.97068125,0.33880723,-0.025626011,1.0725584,-0.87256384
0.526,3.0052361,0.91094613,0.2695161,-0.023011327,1.056412,-0.86459327
0.528,2.9392414,0.85093725,0.20397735,-0.020026587,1.0403562,-0.8565661
0.53,2.87685,0.79083973,0.14232802,-0.016713984,1.024168,-0.84842324
0.532,2.8179202,0.7307466,0.084726095,-0.013094112,1.0076963,-0.84011924
0.534,2.762404,0.6709404,0.031497717,-0.009199202,0.9908619,-0.83162117
0.536,2.7099054,0.61154515,-0.017130136,-0.0050384104,0.9736608,-0.8229006
0.538,2.6602433,0.55277526,-0.060889482,-0.00062356144,0.9561677,-0.81391335
0.54,2.6132867,0.49464107,-0.099576235,0.004042864,0.9385184,-0.8046283
0.542,2.5686452,0.43732554,-0.13319826,0.008962691,0.9209144,-0.79499745
0.544,2.5262113,0.38095862,-0.16164136,0.01412756,0.9035726,-0.78498495
0.546,2.4858074,0.32549658,-0.18489033,0.019527834,0.88672364,-0.77455324
0.548,2.4472692,0.27096936,-0.2030459,0.025146734,0.8705592,-0.7636812
0.55,2.4104948,0.21727112,-0.21632755,0.030967299,0.8552569,-0.7523734
0.552,2.3751864,0.16432986,-0.22518432,0.036975138,0.84094054,-0.74065065
0.554,2.3412402,0.11213368,-0.22982192,0.04315798,0.8277043,-0.7285482
0.556,2.308722,0.06050414,-0.2306214,0.049487907,0.81560487,-0.7161354
0.558,2.2773046,0.009460241,-0.2277106,0.05593987,0.80467725,-0.7034988
0.56,2.246946,-0.04108733,-0.22155279,0.06247979,0.79489934,-0.69071686
0.562,2.217532,-0.09111184,-0.21264273,0.069079,0.78621924,-0.6778631
0.564,2.1889765,-0.14060298,-0.20147866,0.07570619,0.7785594,-0.6649976
0.566,2.1613905,-0.18961373,-0.18866402,0.082318574,0.77177453,-0.65215975
0.568,2.1348171,-0.23803237,-0.17466438,0.08886108,0.7656946,-0.63937986
0.57,2.1092567,-0.28596023,-0.16007063,0.09526297,0.7600896,-0.62667114
0.572,2.0846798,-0.3332354,-0.14553833,0.1014381,0.75469863,-0.614042
0.574,2.061178,-0.37984285,-0.13150463,0.10730484,0.7492378,-0.60149056
0.576,2.038976,-0.42590582,-0.1184966,0.11276666,0.7434413,-0.5890367
0.578,2.0177898,-0.47118992,-0.10688403,0.11772561,0.737075,-0.57670647
0.58,1.9977736,-0.51572,-0.09700632,0.1221039,0.7299637,-0.5645183
0.582,1.9788855,-0.5593585,-0.08910021,0.12583369,0.7219919,-0.552527
0.584,1.9611409,-0.6019043,-0.083456546,0.12887745,0.7131201,-0.54077953
0.586,1.9444315,-0.6432176,-0.08022842,0.13120803,0.7033497,-0.5293117
0.588,1.928797,-0.6830802,-0.079622924,0.13285089,0.6927527,-0.51817286
0.59,1.9142929,-0.72132295,-0.08184001,0.13384733,0.6814449,-0.50739306
0.592,1.9008328,-0.75782984,-0.08696583,0.13427085,0.66958535,-0.4969949
0.594,1.8883305,-0.7924406,-0.09505363,0.13419713,0.65736204,-0.48696908
0.596,1.8768145,-0.8250693,-0.106158,0.13373399,0.64496046,-0.4773252
0.598,1.8662734,-0.8556498,-0.120304435,0.13297993,0.63259345,-0.46802613
0.6,1.8566722,-0.8841009,-0.13721372,0.13203818,0.6204455,-0.4590343
0.602,1.8479882,-0.910413,-0.15686975,0.13098262,0.6086818,-0.4502923
0.604,1.8400668,-0.9344168,-0.17906982,0.1298943,0.59742963,-0.44173348
0.606,1.8330358,-0.95622337,-0.2035661,0.12885001,0.586765,-0.43329966
0.608,1.826788,-0.97574246,-0.23011853,0.12789655,0.57671696,-0.42493626
0.61,1.8213084,-0.9930607,-0.25831664,0.12706725,0.5672417,-0.4165918
0.612,1.8166578,-1.0082515,-0.28781012,0.12640536,0.55824065,-0.40822092
0.614,1.8125826,-1.02128,-0.3181231,0.12591499,0.5495662,-0.3998168
0.616,1.8090904,-1.0323732,-0.34889746,0.12558003,0.54102516,-0.3913883
0.618,1.8060662,-1.0413105,-0.37978804,0.12537555,0.53239125,-0.38295272
0.62,1.8034765,-1.0481279,-0.41037634,0.12526837,0.5234481,-0.37455067
0.622,1.8011233,-1.0528471,-0.44030732,0.12522237,0.5139719,-0.36622858
0.624,1.7989514,-1.0554448,-0.46901858,0.12519503,0.5037933,-0.35804185
0.626,1.7968549,-1.0559834,-0.49598363,0.12515095,0.49279952,-0.35004336
0.628,1.7945181,-1.0543464,-0.5207689,0.12506175,0.48094246,-0.34228146
0.63,1.7919323,-1.0508155,-0.5429274,0.12490165,0.4682282,-0.33478108
0.632,1.7888288,-1.0452892,-0.562031,0.124662995,0.45469806,-0.32755527
0.634,1.7851833,-1.037704,-0.57781017,0.12434257,0.44046152,-0.320617
0.636,1.7806836,-1.0281881,-0.59004796,0.12393819,0.42562655,-0.31395137
0.638,1.7753572,-1.0167687,-0.5985211,0.12345368,0.4103455,-0.30756342
0.64,1.7690028,-1.0034918,-0.6030235,0.12289922,0.39478877,-0.3014561
0.642,1.7615598,-0.9883908,-0.6034303,0.122280166,0.3791237,-0.295606
0.644,1.7529659,-0.9717392,-0.5997801,0.12161405,0.36352566,-0.29000124
0.646,1.7431762,-0.9536089,-0.59198713,0.12091501,0.34815955,-0.2846137
0.648,1.7322903,-0.9341763,-0.580197,0.120200686,0.33317968,-0.2794149
0.65,1.7200658,-0.9135072,-0.5646498,0.11949082,0.31873822,-0.27436772
0.652,1.7065592,-0.8917679,-0.5455062,0.118819304,0.30495578,-0.26944506
0.654,1.691863,-0.8692526,-0.52310765,0.118206166,0.29193866,-0.264616
0.656,1.6759574,-0.84600604,-0.49781412,0.11767726,0.2797588,-0.2598569
0.658,1.6589875,-0.8223468,-0.46988994,0.11722774,0.26844862,-0.2551622
0.66,1.6410419,-0.79838806,-0.43982148,0.11684598,0.25802785,-0.2505239
0.662,1.622305,-0.7743789,-0.40781796,0.11651558,0.24846056,-0.24596462
0.664,1.6028224,-0.7505263,-0.37458098,0.11621645,0.23969777,-0.24152544
0.666,1.5825665,-0.72696835,-0.34037954,0.11589926,0.2316712,-0.23724678
0.668,1.5616213,-0.7038922,-0.3058796,0.115516104,0.22429985,-0.23317124
0.67,1.5401527,-0.681399,-0.2714846,0.11502123,0.2175176,-0.2293435
0.672,1.5182163,-0.65970135,-0.23755305,0.114373356,0.21124808,-0.22579189
0.674,1.4959072,-0.6388429,-0.20456764,0.11353504,0.2054227,-0.22253683
0.676,1.4730314,-0.6189173,-0.17287603,0.11247995,0.19998987,-0.21958245
0.678,1.4496242,-0.59998894,-0.14285976,0.111205205,0.1949224,-0.21691379
0.68,1.4257505,-0.5820229,-0.11489917,0.109719455,0.19019069,-0.21449433
0.682,1.401295,-0.56509227,-0.08915431,0.10804093,0.18579298,-0.21226789
0.684,1.3762159,-0.54922104,-0.06594448,0.10622299,0.18175615,-0.21017942
0.686,1.350303,-0.5342254,-0.045455128,0.10431037,0.17809601,-0.20816472
0.688,1.3237662,-0.52009535,-0.027862474,0.10234987,0.17481336,-0.20614809
0.69,1.2964386,-0.50674325,-0.013338059,0.10039801,0.1719244,-0.20408398
0.692,1.2683233,-0.49412295,-0.0019726306,0.09850073,0.16940877,-0.2019192
0.694,1.2394885,-0.4822185,0.0062396824,0.09669598,0.16722621,-0.19961567
0.696,1.2100332,-0.4708684,0.011353165,0.09500871,0.16530645,-0.1971729
0.698,1.1799815,-0.4601174,0.01346153,0.093474634,0.16356716,-0.19458772
0.7,1.1492693,-0.4498902,0.012684241,0.092114955,0.16190651,-0.19190511
0.702,1.1182232,-0.439972,0.009239703,0.09095319,0.16023754,-0.18917225
0.704,1.0870697,-0.43053684,0.0032979846,0.09002225,0.15847848,-0.18643999
0.706,1.0558032,-0.42131066,-0.005014792,0.089347646,0.1565715,-0.18377623
0.708,1.024697,-0.41236854,-0.015376203,0.0889726,0.15448451,-0.18124077
0.71,0.9940008,-0.4037138,-0.027703978,0.08892618,0.15222155,-0.17888592
0.712,0.96397984,-0.39513984,-0.04163242,0.089245625,0.14981055,-0.1767471
0.714,0.9349582,-0.38688132,-0.05708549,0.08994823,0.14730674,-0.1748599
0.716,0.9070631,-0.37883317,-0.073775664,0.091063604,0.14479499,-0.17323829
0.718,0.8806624,-0.3709986,-0.091519274,0.09258966,0.14236894,-0.17185894
0.72,0.85580534,-0.36339396,-0.1101921,0.09452836,0.14011209,-0.17071438
0.722,0.832806,-0.35600734,-0.12964739,0.096870676,0.13811354,-0.16978815
0.724,0.8117947,-0.34881762,-0.1498041,0.099585146,0.13642105,-0.16905324
0.726,0.79290277,-0.3417793,-0.17036232,0.10261741,0.13507392,-0.16850132
0.728,0.7762727,-0.33495307,-0.19118834,0.105908744,0.13405718,-0.16811152
0.73,0.76167554,-0.32830364,-0.21209052,0.109372064,0.1333286,-0.16787875
0.732,0.74932504,-0.3218202,-0.2329469,0.11291925,0.13279636,-0.16780889
0.734,0.7390016,-0.31560352,-0.25370055,0.11644398,0.132347,-0.16791324
0.736,0.7305446,-0.30952907,-0.27427688,0.11985053,0.13183229,-0.16821115
0.738,0.7240162,-0.3037553,-0.29443952,0.123041555,0.13108373,-0.16870679
0.74,0.71900076,-0.29795235,-0.3141685,0.125949,0.12994215,-0.1694033
0.742,0.7154865,-0.29230946,-0.33331758,0.12851144,0.1282531,-0.17030266
0.744,0.71289915,-0.2868852,-0.35169065,0.13068429,0.12588131,-0.17137778
0.746,0.7111989,-0.28153607,-0.36910838,0.13244992,0.1227278,-0.17260905
0.748,0.70997906,-0.27630973,-0.3855133,0.13381402,0.118753105,-0.17395464
0.75,0.7091383,-0.27122697,-0.40069288,0.1348059,0.11399535,-0.17536986
0.752,0.7081645,-0.2662163,-0.41462857,0.13546596,0.10852909,-0.17680314
0.754,0.7068237,-0.2611763,-0.4271102,0.13586001,0.102485485,-0.17818025
0.756,0.7049675,-0.25616172,-0.4380668,0.13606185,0.09601778,-0.17943753
0.758,0.7022501,-0.25108328,-0.44733784,0.13614216,0.08928641,-0.1805233
0.76,0.6984933,-0.2459136,-0.45471254,0.13618936,0.08247377,-0.18139857
0.762,0.6935139,-0.24062343,-0.4601084,0.13627054,0.07574412,-0.18204431
0.764,0.68723536,-0.23528472,-0.46345592,0.1364638,0.06922518,-0.18245223
0.766,0.6794811,-0.22983839,-0.46469736,0.1368227,0.0630207,-0.18262477
0.768,0.67013353,-0.2242032,-0.46397078,0.13737315,0.057186216,-0.18257809
0.77,0.65920323,-0.21837632,-0.46126553,0.13812323,0.051760223,-0.18234819
0.772,0.6466538,-0.21227506,-0.45648348,0.13906732,0.046767533,-0.18198872
0.774,0.63252693,-0.2057896,-0.44964293,0.14017874,0.04222473,-0.18153162
0.776,0.61691964,-0.19898078,-0.44086084,0.14142096,0.038133107,-0.1810145
0.778,0.5999967,-0.19191693,-0.43017477,0.14275444,0.034505107,-0.18045725
0.78,0.58174795,-0.18458734,-0.41778114,0.14415707,0.03135448,-0.17986794
0.782,0.56224096,-0.17697686,-0.40392303,0.1456063,0.028694674,-0.17924118
0.784,0.54155517,-0.16918251,-0.3886994,0.14709425,0.026517797,-0.17856073
0.786,0.5200634,-0.16127291,-0.37239528,0.14860864,0.024802517,-0.17778596
0.788,0.49770498,-0.15315232,-0.3550173,0.15015021,0.02351049,-0.17689286
0.79,0.47460163,-0.1449866,-0.33674335,0.15171263,0.022599641,-0.17586376
0.792,0.4508864,-0.13677067,-0.317832,0.15327585,0.022000719,-0.17468637
0.794,0.4266751,-0.12843779,-0.29838577,0.15481232,0.021640364,-0.17335647
0.796,0.40219662,-0.12024346,-0.27863178,0.15628906,0.021425974,-0.17186081
0.798,0.3774385,-0.11220024,-0.2588044,0.1576541,0.021276306,-0.17020038
0.8,0.35253263,-0.10429445,-0.23903665,0.15885268,0.021094386,-0.16838369
0.802,0.32767317,-0.09663211,-0.21956709,0.159826,0.020780396,-0.16641483
0.804,0.3029236,-0.08925809,-0.20049489,0.16051908,0.020243417,-0.16429265
0.806,0.27851903,-0.08234684,-0.1820086,0.16090614,0.01942733,-0.16201264
0.808,0.2545262,-0.075816296,-0.16409588,0.1609685,0.018302936,-0.15957846
0.81,0.23109141,-0.0697404,-0.14682281,0.16072972,0.016879713,-0.15699123
0.812,0.20819592,-0.064193085,-0.13028665,0.16023137,0.015210664,-0.15425748
0.814,0.18606669,-0.05909599,-0.11451849,0.15952872,0.013365086,-0.15138757
0.816,0.16476797,-0.05443214,-0.09961239,0.15870081,0.011448346,-0.14841482
0.818,0.14442268,-0.05009312,-0.08566765,0.15782309,0.009590872,-0.14538634
0.82,0.12517497,-0.04608433,-0.07273053,0.15697761,0.007930221,-0.1423503
0.822,0.10697676,-0.042278454,-0.060856573,0.15623224,0.006582031,-0.13935253
0.824,0.09000021,-0.038479537,-0.04996661,0.15563458,0.005635835,-0.13643579
0.826,0.07427038,-0.034768615,-0.040125437,0.1552156,0.0051303413,-0.13362855
0.828,0.05981649,-0.031083371,-0.03135164,0.15498392,0.005074775,-0.13094667
0.83,0.046762485,-0.027152292,-0.023721129,0.15493743,0.0054377913,-0.12839964
0.832,0.03501282,-0.022995964,-0.017180033,0.15506531,0.0061534867,-0.12598333
0.834,0.02476958,-0.018444989,-0.011668451,0.15533432,0.0071241725,-0.12367044
0.836,0.015883397,-0.013408182,-0.0072956453,0.15571725,0.008252813,-0.12143409
0.838,0.008418452,-0.007850655,-0.0037927493,0.15619427,0.009439537,-0.11924644
0.84,0.0023492884,-0.0015228302,-0.0012277663,0.15674977,0.010591308,-0.11709559
0.842,-0.0024467753,0.0055873645,0.00061739003,0.15736358,0.011634627,-0.11495588
0.844,-0.006010715,0.013600893,0.0017663143,0.15801258,0.012491844,-0.11281435
0.846,-0.008250216,0.022532621,0.0023387503,0.15868665,0.013113018,-0.11067844
0.848,-0.009392864,0.03247911,0.00239145,0.15936552,0.013461436,-0.108558014
0.85,-0.009373644,0.043275625,0.0020877058,0.16003399,0.0135169,-0.10646645
0.852,-0.008433678,0.05509148,0.0015368443,0.16068092,0.013278748,-0.10442054
0.854,-0.006371484,0.06784283,0.00094149075,0.16129416,0.01278389,-0.10244624
0.856,-0.0035053855,0.081392586,0.00040221587,0.16186509,0.012081148,-0.10057061
0.858,0.00021801889,0.09571481,6.508082e-05,0.16239676,0.011233222,-0.0988169
0.86,0.0043551885,0.11077918,-2.0232052e-05,0.16288903,0.01032001,-0.09721527
0.862,0.009124534,0.12641767,0.0004973188,0.16335467,0.0094388435,-0.09577367
0.864,0.0140675865,0.14257975,0.0016193166,0.16380191,0.008683002,-0.094505414
0.866,0.019126318,0.1592915,0.0034880117,0.1642464,0.008152772,-0.093415044
0.868,0.024299182,0.17633508,0.006271176,0.164703,0.007923087,-0.092504025
0.87,0.029355034,0.19359949,0.0099269,0.16517822,0.008057971,-0.091769114
0.872,0.03422036,0.2109194,0.014500149,0.16568354,0.008606315,-0.09121861
0.874,0.038530618,0.22841892,0.019944854,0.16622275,0.009590869,-0.090855494
0.876,0.04217546,0.24593845,0.026303187,0.16681154,0.011033756,-0.090671554
0.878,0.04509037,0.26335225,0.033717215,0.1674665,0.01294056,-0.09065229
0.88,0.046919324,0.28068063,0.042304754,0.16819797,0.015323458,-0.09078293
0.882,0.047606427,0.29786986,0.051927656,0.16903298,0.018186722,-0.09103738
0.884,0.046904586,0.31479272,0.062704705,0.16998787,0.021556506,-0.09136459
0.886,0.044762257,0.33155066,0.074422985,0.17109132,0.025443705,-0.091713585
0.888,0.041027345,0.348131,0.08703812,0.17237416,0.029855773,-0.09201983
0.89,0.035779357,0.3644932,0.10039547,0.17385422,0.034772437,-0.09220858
0.892,0.02890513,0.3806942,0.11435888,0.17553492,0.04015786,-0.09220917
0.894,0.020337895,0.39672464,0.12887305,0.17742056,0.045940503,-0.091970615
0.896,0.010120422,0.41256773,0.14385915,0.1795006,0.052032445,-0.09146796
0.898,-0.0016973317,0.42817158,0.15914077,0.18175992,0.05833528,-0.09070049
0.9,-0.01499033,0.44360107,0.17453873,0.18417235,0.06474052,-0.0896807
0.902,-0.029630378,0.45885837,0.19005173,0.18670285,0.07112553,-0.08843493
0.904,-0.045440108,0.47396165,0.20549841,0.18930764,0.07737115,-0.08700642
0.906,-0.06238328,0.4890336,0.22078723,0.19195263,0.08335247,-0.08543201
0.908,-0.08010657,0.50401163,0.2356328,0.19458908,0.08896124,-0.083758235
0.91,-0.09842861,0.5189017,0.2498917,0.1971901,0.094123825,-0.08204168
0.912,-0.117061675,0.5337381,0.26343688,0.19973968,0.098792985,-0.0803359
0.914,-0.13579085,0.5485812,0.27613825,0.20223083,0.10295498,-0.07870674
0.916,-0.15430272,0.56333596,0.2878639,0.20466095,0.10660846,-0.07722305
0.918,-0.17244984,0.5780207,0.29862946,0.20704345,0.109793395,-0.07593839
0.92,-0.189746,0.5925518,0.30824527,0.20940432,0.11257327,-0.0749069
0.922,-0.20600079,0.6069304,0.31684977,0.21178022,0.115035854,-0.07417158
0.924,-0.22086762,0.62128556,0.32429236,0.21420974,0.11726628,-0.073774114
0.926,-0.23412889,0.6354324,0.3306576,0.2167398,0.11937009,-0.07372862
0.928,-0.24547987,0.64941025,0.33589196,0.21941735,0.12146849,-0.074042805
0.93,-0.25472257,0.66323113,0.3400005,0.22228989,0.123658046,-0.07471682
0.932,-0.26156604,0.67670286,0.34321532,0.22538881,0.12600145,-0.075742565
0.934,-0.26591128,0.68984616,0.34557727,0.22874448,0.12853983,-0.07711074
0.936,-0.26747912,0.7029165,0.3472209,0.23236214,0.13128227,-0.078813866
0.938,-0.2662272,0.71571845,0.34828967,0.23623377,0.13418771,-0.08084388
0.94,-0.26210436,0.7281498,0.34890926,0.24032994,0.1371929,-0.08318939
0.942,-0.2549411,0.7403293,0.34900415,0.24461383,0.14022279,-0.08584595
0.944,-0.24489255,0.7521596,0.3487355,0.24905087,0.14320129,-0.08880516
0.946,-0.23196244,0.76368284,0.34829414,0.2535967,0.14607471,-0.092042014
0.948,-0.21638052,0.7749337,0.34769744,0.25822031,0.14881895,-0.09551533
0.95,-0.19824702,0.78593206,0.34715444,0.26289102,0.15141164,-0.0991841
0.952,-0.17780907,0.7967007,0.34667644,0.26757237,0.15386444,-0.10301464
0.954,-0.15534121,0.8073616,0.34637517,0.27224553,0.15619937,-0.1069737
0.956,-0.13128754,0.8178786,0.34639525,0.27688828,0.15843321,-0.11103328
0.958,-0.10597277,0.82838154,0.34679234,0.2814772,0.1605761,-0.115163215
0.96,-0.07998037,0.83896494,0.34770525,0.28598183,0.1626297,-0.119335406
0.962,-0.05360861,0.84967566,0.34924397,0.29038876,0.16455643,-0.12352345
0.964,-0.027494371,0.86074865,0.35141128,0.2946808,0.16630301,-0.12768644
0.966,-0.0020207763,0.87229407,0.3542208,0.29883963,0.16781473,-0.13179314
0.968,0.022374839,0.8843769,0.35778803,0.30285844,0.16901457,-0.1358154
0.97,0.045298263,0.89717853,0.3623485,0.30673546,0.16982377,-0.1397354
0.972,0.06605169,0.9109323,0.3679328,0.31046528,0.17014927,-0.14353985
0.974,0.08465347,0.92556703,0.3748071,0.31404984,0.16988796,-0.14720741
0.976,0.10046393,0.9411999,0.38303834,0.31749332,0.16894276,-0.15073
0.978,0.11308746,0.95800066,0.3926069,0.32081205,0.16721915,-0.15410443
0.98,0.12229124,0.9761745,0.4037462,0.32401505,0.16464989,-0.1573527
0.982,0.12788075,0.9958551,0.41660538,0.32711795,0.16120146,-0.16050325
0.984,0.1298233,1.0168883,0.4314024,0.3301416,0.15688291,-0.16359322
0.986,0.12809348,1.039432,0.44825822,0.3331146,0.15175952,-0.16665779
0.988,0.122412756,1.0636132,0.46727628,0.33606315,0.1459285,-0.1697268
0.99,0.113086775,1.089307,0.48848766,0.33902073,0.13952163,-0.1728458
0.992,0.10021222,1.1165886,0.51181716,0.34202218,0.13270076,-0.17606162
0.994,0.08396712,1.1454463,0.5372902,0.34509122,0.12566346,-0.17941375
0.996,0.064376146,1.1757507,0.56505316,0.34825101,0.11857983,-0.18293989
0.998,0.04187119,1.2074119,0.59508604,0.35151967,0.111610375,-0.18666635
1,0.016579032,1.2403294,0.6274786,0.35491708,0.10490368,-0.19061744
1.002,-0.011252046,1.274544,0.66215456,0.3584331,0.098606244,-0.19480732
1.004,-0.04078257,1.3094952,0.69875354,0.36206833,0.09285693,-0.19924936
1.006,-0.07200104,1.3453325,0.73714525,0.3658174,0.08777469,-0.20393786
1.008,-0.10443947,1.38186,0.777121,0.36966935,0.08345849,-0.20886354
1.01,-0.1375086,1.4187491,0.81841576,0.37362882,0.080010846,-0.21399823
1.012,-0.17088795,1.4558542,0.8607422,0.3776976,0.07747975,-0.21930309
1.014,-0.20416099,1.4929035,0.9038625,0.3818582,0.075904936,-0.22471747
1.016,-0.23684269,1.5296271,0.94758296,0.38610128,0.075310886,-0.23016267
1.018,-0.2684917,1.5658371,0.9917525,0.39041057,0.07569512,-0.235583
1.02,-0.29855233,1.6012881,1.0360864,0.39478254,0.07703193,-0.24090251
1.022,-0.32675904,1.6357769,1.0803249,0.39922178,0.07929057,-0.24606335
1.024,-0.3527755,1.6689587,1.1240015,0.4037271,0.082438,-0.25102276
1.026,-0.3761645,1.7008016,1.1668564,0.40829298,0.086429425,-0.25577676
1.028,-0.3965677,1.7310858,1.2086236,0.41291675,0.091201045,-0.2603579
1.03,-0.41385555,1.7596706,1.2492006,0.4175846,0.096676335,-0.26483187
1.032,-0.4277413,1.7865322,1.288465,0.4222745,0.102782816,-0.26929456
1.034,-0.4381467,1.8114474,1.3264148,0.4269586,0.10942926,-0.27379927
1.036,-0.4449064,1.8344452,1.3629978,0.4315735,0.1164742,-0.27838972
1.038,-0.44791073,1.8556371,1.3980882,0.43604925,0.12381291,-0.28312978
1.04,-0.44717634,1.8748735,1.4316597,0.44030803,0.13130389,-0.28805786
1.042,-0.44262964,1.8923866,1.4635947,0.44426632,0.13880278,-0.29315463
1.044,-0.4343931,1.9081371,1.4939728,0.4478455,0.14620256,-0.29834503
1.046,-0.4226737,1.9221594,1.5229201,0.45098996,0.15341559,-0.3035272
1.048,-0.40748364,1.9344482,1.5505863,0.45367032,0.16037872,-0.30856964
1.05,-0.38910437,1.9453294,1.5772057,0.45589575,0.16711472,-0.3133074
1.052,-0.3679964,1.9548899,1.6030107,0.45769584,0.17370059,-0.31758618
1.054,-0.34431207,1.963314,1.6281157,0.45912847,0.18024048,-0.3212532
1.056,-0.31849664,1.9707669,1.6526797,0.46027043,0.18687597,-0.3241663
1.058,-0.29087287,1.9774444,1.6768566,0.46121034,0.19378981,-0.32621104
1.06,-0.26189464,1.9835181,1.7008368,0.4620251,0.20116805,-0.32731366
1.062,-0.23201126,1.9892211,1.724917,0.46277505,0.20918652,-0.32745656
1.064,-0.20175415,1.9946339,1.7491894,0.46349308,0.21798506,-0.3266433
1.066,-0.17160219,2.0000062,1.7737038,0.46419984,0.22768867,-0.32489306
1.068,-0.14215845,2.0055099,1.7986374,0.4649109,0.23835403,-0.322229
1.07,-0.1137687,2.011373,1.8241266,0.46560597,0.24999458,-0.3186671
1.072,-0.08717412,2.0177972,1.8501425,0.46627584,0.2626002,-0.31419653
1.074,-0.06267512,2.0248172,1.8768345,0.46689752,0.27613515,-0.3087963
1.076,-0.040881693,2.0326633,1.9043152,0.46744815,0.29056513,-0.30240458
1.078,-0.022146225,2.0415936,1.9324677,0.46793288,0.30581987,-0.29494467
1.08,-0.006855607,2.0517368,1.961041,0.46836266,0.32180566,-0.2863332
1.082,0.004879236,2.0631914,1.9901166,0.46873719,0.3384117,-0.27649447
1.084,0.012558341,2.0762305,2.0197086,0.46905684,0.35551035,-0.26539037
1.086,0.016171634,2.090876,2.0500133,0.46932277,0.3729666,-0.25302225
1.088,0.015560329,2.1071985,2.0810835,0.46952754,0.3906337,-0.23950727
1.09,0.010748565,2.125044,2.1129005,0.46967098,0.40840822,-0.22502561
1.092,0.0017498732,2.1445634,2.1452255,0.46973208,0.42617145,-0.20978028
1.094,-0.011559486,2.1659224,2.1779847,0.46968508,0.44385833,-0.19405195
1.096,-0.028917432,2.1889043,2.2110798,0.46951097,0.4614181,-0.17818257
1.098,-0.050008476,2.2134557,2.2444682,0.4691927,0.47882414,-0.16253059
1.1,-0.07486367,2.2394698,2.2781417,0.4687177,0.49609047,-0.14746542
1.102,-0.10305065,2.266853,2.312115,0.46809003,0.5132431,-0.13336083
1.104,-0.13436604,2.295577,2.3464184,0.4673191,0.5303349,-0.12054914
1.106,-0.16826355,2.3254418,2.380971,0.46640718,0.54742455,-0.10930613
1.108,-0.20477754,2.3563247,2.4155703,0.46536,0.5645723,-0.099859595
1.11,-0.24332947,2.3880475,2.4499726,0.4641793,0.5818123,-0.092396885
1.112,-0.2834952,2.4201927,2.4840317,0.46284342,0.5991724,-0.08701751
1.114,-0.32548153,2.4531002,2.5176773,0.46134937,0.61665094,-0.08373916
1.116,-0.3686332,2.4862225,2.550867,0.45969868,0.63426065,-0.08249119
1.118,-0.4125386,2.5193841,2.583302,0.45790926,0.65199995,-0.08314642
1.12,-0.4572277,2.5525656,2.6149664,0.4560124,0.6698277,-0.08551028
1.122,-0.50237155,2.585567,2.645554,0.45405322,0.6876924,-0.08933896
1.124,-0.54778695,2.618218,2.6750326,0.45210254,0.70552444,-0.094377965
1.126,-0.59329116,2.6504161,2.7031136,0.45022553,0.72323585,-0.10036257
1.128,-0.63880754,2.6819367,2.7296686,0.44852003,0.7407501,-0.10706961
1.13,-0.6843133,2.7127845,2.7545304,0.44706848,0.7580026,-0.11429402
1.132,-0.72950494,2.7428272,2.7775497,0.44593263,0.7749875,-0.12186602
1.134,-0.7741909,2.772166,2.7987623,0.44515818,0.79171216,-0.12967643
1.136,-0.8185222,2.800662,2.8180203,0.4447599,0.8082011,-0.13767385
1.138,-0.86222196,2.8280962,2.835074,0.444735,0.8244816,-0.1458297
1.14,-0.9052812,2.854473,2.8499155,0.4450362,0.84055287,-0.15414563
1.142,-0.9477515,2.87973,2.862368,0.44557887,0.85636467,-0.16263771
1.144,-0.9897038,2.9040208,2.8724272,0.44626755,0.8718337,-0.17131773
1.146,-1.0308764,2.9272375,2.8801548,0.44698745,0.8868232,-0.18020615
1.148,-1.071348,2.9493036,2.8857615,0.4476266,0.90115345,-0.1893323
1.15,-1.1109587,2.9704528,2.889378,0.44806778,0.91464144,-0.19871518
1.152,-1.149618,2.990592,2.8908668,0.44822735,0.9270939,-0.20837328
1.154,-1.1870813,3.0097718,2.89029,0.44803464,0.938345,-0.21829551
1.156,-1.2231256,3.0278945,2.8875523,0.44744176,0.94827837,-0.22846827
1.158,-1.2575225,3.045135,2.882635,0.44643307,0.95682025,-0.23890412
1.16,-1.2898548,3.0613728,2.8754566,0.44503072,0.9639545,-0.24961364
1.162,-1.3196914,3.0765991,2.866054,0.44327083,0.969712,-0.26062006
1.164,-1.3466958,3.0906096,2.8545766,0.4411906,0.9741534,-0.27196306
1.166,-1.3704984,3.103464,2.8411217,0.43882948,0.9773271,-0.28371328
1.168,-1.3907309,3.1151104,2.8256772,0.43621832,0.97928405,-0.29596767
1.17,-1.4069738,3.1253972,2.808251,0.43338364,0.9800416,-0.308821
1.172,-1.4188572,3.134273,2.788917,0.43034515,0.97963,-0.32235697
1.174,-1.4258227,3.1418009,2.7680244,0.42712396,0.97810507,-0.3366388
1.176,-1.4276487,3.147903,2.7458682,0.4237398,0.9755105,-0.35172856
1.178,-1.4237347,3.1524658,2.7224483,0.4201997,0.9718969,-0.367619
1.18,-1.4138436,3.1553855,2.697927,0.41650563,0.96734345,-0.38427818
1.182,-1.3975649,3.156561,2.6724763,0.4126545,0.96193445,-0.40164065
1.184,-1.3748522,3.1561723,2.6463735,0.40864336,0.9557744,-0.41962373
1.186,-1.3454787,3.1542034,2.6199348,0.40446812,0.94896734,-0.43811375
1.188,-1.3094444,3.1506538,2.5937428,0.4001389,0.94164014,-0.45693037
1.19,-1.2665536,3.1456003,2.5683167,0.39569488,0.9339435,-0.47588322
1.192,-1.2171357,3.139103,2.5437882,0.3911637,0.9260329,-0.49479964
1.194,-1.1611854,3.1313381,2.5204597,0.38661203,0.91815203,-0.5134799
1.196,-1.0988727,3.1223612,2.4984894,0.3821199,0.9105784,-0.5317404
1.198,-1.0304735,3.112313,2.4782856,0.37775427,0.9035673,-0.5494383
1.2,-0.9565002,3.1015437,2.4601593,0.3735829,0.8973838,-0.5664458
1.202,-0.8772589,3.090144,2.4445915,0.36965066,0.89226913,-0.5826501
1.204,-0.7932632,3.0782983,2.4317973,0.36598274,0.888404,-0.59797895
1.206,-0.70503515,3.0662675,2.4218915,0.36255834,0.8859288,-0.61236954
1.208,-0.6130107,3.0542445,2.4148135,0.35934737,0.88492507,-0.6258149
1.21,-0.517939,3.042641,2.410553,0.35627854,0.8854005,-0.63831204
1.212,-0.42070413,3.0317066,2.4090576,0.35326365,0.8872881,-0.64985484
1.214,-0.3219183,3.0215387,2.4103062,0.35020334,0.8904686,-0.6604498
1.216,-0.2222631,3.0123668,2.4141233,0.34701934,0.894789,-0.6701051
1.218,-0.12236905,3.0043688,2.4202,0.3436468,0.9000975,-0.6788386
1.22,-0.023298621,2.9977236,2.4282784,0.34005353,0.90625876,-0.68670434
1.222,0.07414901,2.9927847,2.4381344,0.3362189,0.91315126,-0.6937562
1.224,0.16935885,2.989655,2.4493876,0.33211696,0.920647,-0.70006573
1.226,0.2613876,2.9886267,2.4615664,0.32772836,0.9286012,-0.70570505
1.228,0.34952164,2.9898276,2.4744291,0.32302374,0.9368545,-0.7107397
1.23,0.4331829,2.9933543,2.487473,0.3179712,0.9452541,-0.71519685
1.232,0.5117829,2.9992714,2.5003226,0.31254256,0.95363986,-0.71912026
1.234,0.58445966,3.0078719,2.5124652,0.30671042,0.9618389,-0.72254556
1.236,0.650856,3.0192862,2.5235696,0.30044955,0.96971256,-0.7254949
1.238,0.71039623,3.033584,2.5332847,0.2937514,0.9771692,-0.7280077
1.24,0.7626504,3.050681,2.5412366,0.2866419,0.98421556,-0.7301136
1.242,0.8071712,3.070609,2.5472138,0.27915996,0.99093,-0.7318463
1.244,0.8436507,3.0933187,2.5509932,0.27138212,0.99743587,-0.73323816
1.246,0.87180454,3.1188173,2.5524206,0.26340464,1.0039201,-0.7343405
1.248,0.89160943,3.1471598,2.551295,0.25532195,1.010551,-0.7352058
1.25,0.90300745,3.1781979,2.5473313,0.24725908,1.0175207,-0.7358653
1.252,0.90611386,3.211822,2.5404482,0.23933229,1.0250102,-0.7363371
1.254,0.90104806,3.2478423,2.5305948,0.23166358,1.0331583,-0.7366611
1.256,0.88790226,3.2862022,2.5176868,0.2243496,1.0420712,-0.73691165
1.258,0.86686605,3.3266459,2.5015075,0.21748443,1.0518111,-0.73715544
1.26,0.83837986,3.3689523,2.4819975,0.21112645,1.0623708,-0.7374682
1.262,0.8028842,3.4128954,2.4593613,0.20531793,1.0737121,-0.73789793
1.264,0.7608675,3.458197,2.433641,0.20009522,1.0857581,-0.73851854
1.266,0.71281755,3.5046217,2.4049363,0.19548154,1.0983882,-0.7394056
1.268,0.659272,3.5518997,2.3732543,0.1914778,1.1114467,-0.7406372
1.27,0.6009586,3.5996387,2.3386705,0.1880643,1.1247334,-0.7422761
1.272,0.538546,3.6476457,2.3013134,0.1852227,1.137981,-0.74437845
1.274,0.47276413,3.6957107,2.2612505,0.1828965,1.1508955,-0.7469992
1.276,0.40439558,3.7434645,2.2187212,0.18103299,1.1631675,-0.75022614
1.278,0.33416152,3.7906456,2.174078,0.17959282,1.1744883,-0.75413907
1.28,0.26263848,3.8371081,2.1275873,0.17851183,1.1845363,-0.75882334
1.282,0.1905312,3.8825414,2.0794659,0.17771494,1.1930128,-0.76435715
1.284,0.11837357,3.9266028,2.03006,0.17712764,1.19964,-0.7708075
1.286,0.046850085,3.9689474,1.9795115,0.17668587,1.2041961,-0.778197
1.288,-0.023715794,4.009502,1.9284148,0.17634289,1.2065027,-0.78651834
1.29,-0.0928427,4.048053,1.8772302,0.17606218,1.2064162,-0.79573834
1.292,-0.160003,4.0842786,1.82658,0.17580515,1.2038412,-0.80579305
1.294,-0.22480905,4.1179395,1.776652,0.17554681,1.1987058,-0.8166267
1.296,-0.2871601,4.1488457,1.7278526,0.17526269,1.1909984,-0.82815987
1.298,-0.34687972,4.176787,1.6805519,0.17490396,1.1807151,-0.8402973
1.3,-0.4038192,4.201585,1.6352562,0.17442964,1.1678624,-0.8529357
1.302,-0.4578368,4.223155,1.592901,0.1737944,1.1524712,-0.86600715
1.304,-0.5090785,4.2413473,1.55406,0.17294756,1.1346009,-0.8794201
1.306,-0.5574392,4.256134,1.519181,0.17184928,1.1143674,-0.89309514
1.308,-0.60283244,4.2673516,1.4885418,0.17046052,1.0918895,-0.9069544
1.31,-0.6451417,4.2748556,1.4623072,0.16878067,1.0673318,-0.9209115
1.312,-0.684481,4.278608,1.4408016,0.16682173,1.0408998,-0.93489677
1.314,-0.72074485,4.278533,1.4244432,0.1646579,1.0128616,-0.94884014
1.316,-0.7541251,4.274671,1.4135635,0.16239889,0.98352826,-0.96269214
1.318,-0.78472435,4.2671103,1.4084327,0.16017441,0.953236,-0.976398
1.32,-0.81238914,4.2557597,1.4090829,0.1581249,0.92235976,-0.9899178
1.322,-0.83688843,4.240634,1.4154277,0.15642878,0.89132303,-1.0032293
1.324,-0.858305,4.2221417,1.4270835,0.15527155,0.8605698,-1.0163236
1.326,-0.87674314,4.2004814,1.4438756,0.1548298,0.8305522,-1.0292027
1.328,-0.89221656,4.1759286,1.4655994,0.155286,0.8017275,-1.0418528
1.33,-0.90454537,4.1487007,1.4916769,0.15679291,0.7745302,-1.0542783
1.332,-0.9138068,4.118874,1.5213113,0.15947777,0.74935406,-1.066469
1.334,-0.91994375,4.086846,1.5539055,0.1634492,0.72656035,-1.0783916
1.336,-0.9230155,4.052943,1.5886962,0.1687744,0.7064008,-1.0900109
1.338,-0.92284995,4.0174475,1.6250569,0.17548175,0.68900776,-1.1012745
1.34,-0.91944957,3.9807036,1.6621768,0.18355128,0.6744011,-1.1121256
1.342,-0.9127947,3.9429536,1.6992604,0.19293122,0.6624956,-1.1224986
1.344,-0.90256673,3.904344,1.7353644,0.20355497,0.65314686,-1.13232
1.346,-0.8888731,3.8650703,1.7698843,0.21533911,0.6461469,-1.141527
1.348,-0.87161154,3.8253613,1.8020754,0.22816515,0.64124477,-1.1500372
1.35,-0.85061324,3.785481,1.8312721,0.2419125,0.63816607,-1.1578085
1.352,-0.8258004,3.7453666,1.8568814,0.25644615,0.6366571,-1.1648186
1.354,-0.7972358,3.7051423,1.8785123,0.2716207,0.6364715,-1.1710633
1.356,-0.7647239,3.6648593,1.8960493,0.28728604,0.63738745,-1.1765765
1.358,-0.7284545,3.6245275,1.9093606,0.30329943,0.639207,-1.1814125
1.36,-0.68823713,3.5841842,1.9183655,0.3195222,0.6417549,-1.1856357
1.362,-0.6443401,3.5438235,1.9229805,0.33583915,0.644933,-1.1893115
1.364,-0.59686124,3.5033255,1.9233357,0.35216737,0.6486852,-1.1924909
1.366,-0.54602045,3.4627466,1.9196856,0.36843398,0.6530191,-1.1952248
1.368,-0.492053,3.4221723,1.9126744,0.38458323,0.6579819,-1.1975534
1.37,-0.4351753,3.3815348,1.9028249,0.40055597,0.66366065,-1.1994666
1.372,-0.3757472,3.3409638,1.8905517,0.41631815,0.67015934,-1.2009254
1.374,-0.31412345,3.3004706,1.876251,0.43181282,0.6775322,-1.2018663
1.376,-0.2506554,3.2600646,1.860406,0.4469815,0.6857511,-1.2022038
1.378,-0.18574136,3.219678,1.8437091,0.4617325,0.6947347,-1.2018718
1.38,-0.11994424,3.1793659,1.8265238,0.4759706,0.70434105,-1.2008336
1.382,-0.053655863,3.1390715,1.8094225,0.48958665,0.7143558,-1.1990836
1.384,0.012680016,3.0989788,1.7928524,0.50248003,0.7245471,-1.196622
1.386,0.078689285,3.0591598,1.7772199,0.51457006,0.7346982,-1.193504
1.388,0.14404759,3.0196455,1.7628081,0.5258102,0.744633,-1.189822
1.39,0.20842007,2.9803836,1.7498722,0.53620106,0.75428027,-1.1856754
1.392,0.2715465,2.9414062,1.738477,0.5457678,0.7636671,-1.181177
1.394,0.33297706,2.9026337,1.7287635,0.55458426,0.7728905,-1.1764264
1.396,0.39258182,2.8641884,1.7209067,0.56273544,0.7821406,-1.1715055
1.398,0.45016292,2.8261023,1.7149864,0.57033527,0.7916404,-1.1664764
1.4,0.5055754,2.7883584,1.7107198,0.5775366,0.8016309,-1.1613672
1.402,0.5586668,2.751144,1.7078811,0.5844679,0.8123527,-1.1562084
1.404,0.60935396,2.7144005,1.7065299,0.5912441,0.82399416,-1.1509739
1.406,0.65778154,2.6781316,1.7063944,0.59798896,0.8366601,-1.1456277
1.408,0.7039653,2.6423595,1.7072313,0.6047945,0.8503739,-1.140099
1.41,0.7478187,2.6071198,1.7087514,0.6117252,0.8650556,-1.134305
1.412,0.78956145,2.5725527,1.7104437,0.6188417,0.8805716,-1.1281592
1.414,0.8293197,2.5386994,1.7119362,0.62617624,0.89671284,-1.12157
1.416,0.8671767,2.505711,1.7131615,0.6337395,0.9132463,-1.1144819
1.418,0.9032086,2.4735818,1.7140188,0.6414839,0.92988515,-1.1068859
1.42,0.93768144,2.4423099,1.7144815,0.64934087,0.94632304,-1.0988156
1.422,0.9706382,2.4118266,1.7143145,0.6572015,0.9622405,-1.090345
1.424,1.0024148,2.3822863,1.7131754,0.66495204,0.97733134,-1.0815965
1.426,1.0332434,2.3536596,1.7108719,0.67245954,0.9913531,-1.072737
1.428,1.0634251,2.3258345,1.7072484,0.67960805,1.0041076,-1.0639746
1.43,1.0933243,2.2988915,1.7022809,0.6862755,1.0154728,-1.0555339
1.432,1.1230822,2.2727954,1.6958854,0.6923818,1.0254055,-1.0476359
1.434,1.1531485,2.2473404,1.6880431,0.69786423,1.0339359,-1.0404814
1.436,1.1837946,2.2225006,1.6788024,0.70271796,1.0411848,-1.034256
1.438,1.2154208,2.1982994,1.6680497,0.7069559,1.047344,-1.0291015
1.44,1.2483442,2.1746397,1.6557174,0.71062404,1.052621,-1.0250944
1.442,1.2830651,2.1514251,1.6417811,0.7137916,1.057227,-1.0222566
1.444,1.3194566,2.128532,1.6260998,0.7165391,1.0613599,-1.0205339
1.446,1.358031,2.1059809,1.6085241,0.718963,1.0651661,-1.019841
1.448,1.39861,2.0838077,1.5889152,0.7211406,1.0687451,-1.0200641
1.45,1.4415226,2.062149,1.5672866,0.7231325,1.0721048,-1.0210656
1.452,1.4870591,2.0410757,1.543594,0.7249651,1.0751908,-1.022699
1.454,1.5352826,2.0207226,1.517868,0.7266401,1.0778741,-1.024828
1.456,1.5864296,2.0010846,1.4899257,0.72815806,1.0799831,-1.0273428
1.458,1.640598,1.9821715,1.4596037,0.7295051,1.0813441,-1.0301812
1.46,1.6977684,1.9640555,1.4266914,0.73063827,1.0817893,-1.0333108
1.462,1.7577884,1.9470868,1.3909602,0.73152626,1.0811894,-1.0367421
1.464,1.8207958,1.9312301,1.3524237,0.73215055,1.0794832,-1.0404948
1.466,1.886642,1.9166529,1.3107941,0.7325022,1.076658,-1.0446038
1.468,1.9552462,1.9034114,1.2661792,0.7326324,1.0727987,-1.0490962
1.47,2.026322,1.8917313,1.218317,0.73261154,1.0680634,-1.0540043
1.472,2.0998516,1.8816779,1.1670527,0.7325727,1.0627233,-1.0593287
1.474,2.1755915,1.8734069,1.1122093,0.73265827,1.057092,-1.0650362
1.476,2.2531643,1.8670489,1.0538478,0.7330098,1.051483,-1.0710903
1.478,2.3323028,1.8626553,0.9916488,0.73375076,1.0461742,-1.0774626
1.48,2.4124544,1.8604232,0.9255328,0.7349709,1.0413791,-1.0840962
1.482,2.4933739,1.86045,0.8554986,0.73672915,1.0372417,-1.0909055
1.484,2.5746906,1.8628426,0.78159946,0.73905206,1.0337728,-1.0978155
1.486,2.6560879,1.8677499,0.7039437,0.7419199,1.0308791,-1.1047658
1.488,2.737259,1.8752805,0.6225985,0.7452941,1.028392,-1.1116747
1.49,2.8179946,1.8854661,0.5376942,0.7490879,1.0260311,-1.1184707
1.492,2.8978822,1.8983076,0.44912976,0.753232,1.0234365,-1.1250813
1.494,2.9767718,1.9136698,0.35704654,0.7576664,1.0202554,-1.1314521
1.496,3.0544517,1.9315233,0.2618751,0.7623304,1.0161371,-1.1375451
1.498,3.130598,1.9519386,0.1642412,0.7671909,1.0107776,-1.1433485
1.5,3.2051158,1.9748483,0.06472063,0.77222586,1.0039201,-1.148856
1.502,3.2779398,2.0001934,-0.036277354,0.77743864,0.99536717,-1.1540867
1.504,3.349202,2.0278435,-0.13836265,0.78283364,0.9850014,-1.159076
1.506,3.4187992,2.05761,-0.24118483,0.78841585,0.9727722,-1.1638741
1.508,3.4868846,2.0891209,-0.3443553,0.79419655,0.9586997,-1.1685343
1.51,3.5534081,2.1223097,-0.4469487,0.80017465,0.94282365,-1.1731111
1.512,3.6184592,2.1568139,-0.5483469,0.80634314,0.9252067,-1.1776636
1.514,3.6821795,2.1925178,-0.6481222,0.8126921,0.9059174,-1.1822382
1.516,3.74491,2.229061,-0.7459588,0.8192032,0.88500375,-1.1868812
1.518,3.806809,2.2664294,-0.8415344,0.8258504,0.8624996,-1.1916414
1.52,3.8679562,2.3043644,-0.9345514,0.8326194,0.83844525,-1.1965622
1.522,3.9285872,2.3426914,-1.0247384,0.83948725,0.81288844,-1.2016615
1.524,3.9888527,2.3812032,-1.1117135,0.8464518,0.78588986,-1.206941
1.526,4.0489206,2.4196343,-1.195447,0.85352695,0.75752294,-1.2124038
1.528,4.1088667,2.458052,-1.2759144,0.8607482,0.7279002,-1.218073
1.53,4.1689014,2.496397,-1.3531939,0.86816615,0.69718415,-1.223967
1.532,4.2292647,2.5346594,-1.4275779,0.8758471,0.6655641,-1.2300899
1.534,4.2898726,2.5727446,-1.4991724,0.88385475,0.6332407,-1.2364666
1.536,4.350796,2.6106877,-1.5682976,0.89224875,0.6004126,-1.2431226
1.538,4.4119654,2.6486754,-1.6350797,0.9010859,0.56729794,-1.2500628
1.54,4.473384,2.6868017,-1.6998627,0.910416,0.5341227,-1.2572958
1.542,4.534895,2.7252314,-1.7629385,0.9202722,0.5010961,-1.2648401
1.544,4.596488,2.7641308,-1.8246537,0.9306619,0.468418,-1.2726961
1.546,4.6579137,2.8037808,-1.8854252,0.941576,0.43627766,-1.2808396
1.548,4.7192745,2.8443077,-1.9454294,0.95300615,0.4048052,-1.2892065
1.55,4.78028,2.8861072,-2.0048869,0.9649616,0.3741185,-1.2977085
1.552,4.840828,2.929446,-2.0640993,0.97745645,0.34429866,-1.3062353
1.554,4.9010468,2.9745371,-2.1233733,0.9905297,0.315421,-1.3146574
1.556,4.960608,3.0215218,-2.182609,1.0042326,0.28752816,-1.3228434
1.558,5.0195694,3.0706792,-2.2419455,1.0186465,0.26063985,-1.3306775
1.56,5.077814,3.1220927,-2.301348,1.0338742,0.23476952,-1.3380564
1.562,5.1351705,3.1759038,-2.3609135,1.05002,0.20992261,-1.3449017
1.564,5.1918097,3.232118,-2.4208164,1.0672113,0.18611348,-1.3511381
1.566,5.2474723,3.2910266,-2.4811172,1.0855776,0.16332376,-1.3567308
1.568,5.302262,3.3525949,-2.5416079,1.105248,0.14154422,-1.3616797
1.57,5.356329,3.4169898,-2.6021345,1.1263399,0.12074947,-1.3660238
1.572,5.4098563,3.4840088,-2.6626108,1.1489593,0.10091084,-1.3698124
1.574,5.4628844,3.5536036,-2.7233746,1.1731907,0.081986904,-1.3731031
1.576,5.515743,3.6256402,-2.7845683,1.1991042,0.06390792,-1.3759692
1.578,5.568672,3.7000365,-2.8464026,1.226749,0.0465765,-1.3784757
1.58,5.6220336,3.7764957,-2.9088063,1.2561436,0.02987647,-1.3806813
1.582,5.676024,3.8548203,-2.9721339,1.2872853,0.013636708,-1.3826032
1.584,5.7310133,3.9347506,-3.0368795,1.3201472,-0.0023687482,-1.384231
1.586,5.7873926,4.015951,-3.1039276,1.3546658,-0.01840663,-1.385535
1.588,5.8456407,4.098163,-3.1737874,1.3907619,-0.034801483,-1.3864939
1.59,5.906134,4.181156,-3.247259,1.4283278,-0.0518924,-1.3871018
1.592,5.9694915,4.264675,-3.3250456,1.4672303,-0.07006496,-1.387361
1.594,6.0362906,4.3484583,-3.4080572,1.5073195,-0.089713395,-1.3872547
1.596,6.107017,4.4320993,-3.4973388,1.5484622,-0.111186385,-1.386784
1.598,6.1823096,4.5153894,-3.5941617,1.5905647,-0.13475168,-1.3859462
1.6,6.262811,4.5979443,-3.6994941,1.6335433,-0.16059756,-1.3847351
1.602,6.349153,4.6797657,-3.8143482,1.677352,-0.18882322,-1.383139
1.604,6.4420767,4.760716,-3.939954,1.7219875,-0.2194705,-1.3811061
1.606,6.542312,4.8406467,-4.077544,1.7674897,-0.25249815,-1.3785638
1.608,6.6507688,4.919324,-4.2280912,1.8139313,-0.28782272,-1.375385
1.61,6.7680483,4.996881,-4.392724,1.861415,-0.32533967,-1.3714385
1.612,6.8947735,5.073472,-4.572153,1.9100579,-0.3649543,-1.3665607
1.614,7.0316544,5.14939,-4.7671995,1.9599743,-0.40662956,-1.3605793
1.616,7.1795526,5.224762,-4.9775825,2.0112739,-0.45040148,-1.3533556
1.618,7.3382564,5.3005085,-5.202988,2.0640547,-0.49639076,-1.3447742
1.62,7.5076785,5.377772,-5.4456916,2.1184096,-0.54477745,-1.3347616
1.622,7.6888065,5.457275,-5.7066836,2.1744099,-0.5958139,-1.3232961
1.624,7.882717,5.5387163,-5.9846706,2.232122,-0.6497877,-1.3103962
1.626,8.091209,5.621791,-6.275809,2.2915792,-0.707042,-1.2961473
1.628,8.310071,5.709331,-6.5785036,2.352778,-0.76798916,-1.280665
1.63,8.540641,5.8029413,-6.892979,2.415704,-0.8330654,-1.2640859
1.632,8.784541,5.902356,-7.217193,2.4803047,-0.9027293,-1.2465582
1.634,9.040875,6.0088954,-7.548254,2.546507,-0.9774438,-1.228236
1.636,9.303387,6.1267805,-7.8841715,2.6141968,-1.0577261,-1.209294
1.638,9.573498,6.2565312,-8.223487,2.6832216,-1.1440859,-1.1899207
1.64,9.849979,6.3978295,-8.564394,2.753407,-1.2370174,-1.1702938
1.642,10.132339,6.5500417,-8.899752,2.8245609,-1.3369882,-1.150583
1.644,10.42092,6.7125196,-9.222005,2.8964617,-1.4443839,-1.1309683
1.646,10.715386,6.8876004,-9.536711,2.9688768,-1.5594823,-1.1116667
1.648,11.008424,7.0808506,-9.841491,3.0415802,-1.6824099,-1.0929186
1.65,11.296084,7.291206,-10.1174755,3.1143777,-1.8131533,-1.0749369
1.652,11.585647,7.5153375,-10.363526,3.1871119,-1.9516933,-1.0579119
1.654,11.872069,7.757448,-10.588545,3.2596142,-2.097885,-1.0420412
1.656,12.148682,8.020302,-10.790598,3.3317075,-2.2513716,-1.0274775
1.658,12.414784,8.302288,-10.962851,3.4032853,-2.4115605,-1.0143478
1.66,12.670947,8.60167,-11.100644,3.4743676,-2.577899,-1.0027688
1.662,12.91452,8.9171715,-11.200694,3.5450602,-2.74965,-0.9929431
1.664,13.144144,9.247931,-11.262232,3.6155148,-2.9258463,-0.9850167
1.666,13.357796,9.593606,-11.283128,3.6859639,-3.1054657,-0.9790757
1.668,13.5537,9.952213,-11.261597,3.756736,-3.2873397,-0.97524977
1.67,13.7324295,10.320472,-11.19902,3.8282094,-3.4700775,-0.97362214
1.672,13.89519,10.6950865,-11.097467,3.9007468,-3.6523018,-0.9741147
1.674,14.041992,11.073435,-10.959066,3.9749231,-3.8322096,-0.9764339
1.676,14.173995,11.452944,-10.786018,4.0515404,-4.0079165,-0.98024815
1.678,14.292749,11.830822,-10.580875,4.1311836,-4.1788836,-0.9854967
1.68,14.400689,12.203453,-10.3471155,4.214468,-4.3444066,-0.99191034
1.682,14.500333,12.567894,-10.089987,4.3024836,-4.502441,-0.9984939
1.684,14.59232,12.922228,-9.814123,4.3961267,-4.652604,-1.004432
1.686,14.6779375,13.263851,-9.5227995,4.496301,-4.7955914,-1.0092286
1.688,14.759663,13.589886,-9.21914,4.6039276,-4.931648,-1.0120945
1.69,14.839183,13.897771,-8.906587,4.71965,-5.060988,-1.0120512
1.692,14.917811,14.185483,-8.587943,4.844031,-5.183581,-1.0081716
1.694,14.996216,14.451524,-8.265551,4.977676,-5.2986326,-0.9996443
1.696,15.07447,14.694508,-7.940848,5.1210513,-5.404838,-0.98613393
1.698,15.152197,14.913406,-7.6158237,5.2743278,-5.500183,-0.96792746
1.7,15.22884,15.107684,-7.2923565,5.4372106,-5.5818315,-0.9457302
1.702,15.302571,15.277843,-6.9716244,5.6088448,-5.6465755,-0.9204898
1.704,15.371422,15.425159,-6.6539717,5.787881,-5.690995,-0.8933487
1.706,15.433258,15.5515175,-6.3393455,5.972604,-5.711552,-0.86549973
1.708,15.485492,15.659164,-6.027317,6.161112,-5.7048883,-0.83800316
1.71,15.525552,15.751255,-5.717781,6.351501,-5.6679277,-0.81151056
1.712,15.550515,15.831225,-5.410387,6.5419464,-5.5980206,-0.7861185
1.714,15.557434,15.903337,-5.104596,6.730877,-5.493092,-0.7612729
1.716,15.543488,15.972162,-4.799975,6.917155,-5.351918,-0.73569024
1.718,15.505777,16.042809,-4.4963555,7.100125,-5.174113,-0.7075653
1.72,15.442104,16.120277,-4.193681,7.2794394,-4.960328,-0.67480373
1.722,15.350468,16.20969,-3.8922484,7.454982,-4.712591,-0.6352209
1.724,15.22924,16.316109,-3.5926518,7.6266475,-4.434567,-0.5869508
1.726,15.076877,16.444504,-3.2959857,7.7941704,-4.1314025,-0.5288432
1.728,14.892973,16.598946,-3.0033617,7.956791,-3.809998,-0.4605378
1.73,14.677267,16.783016,-2.713735,8.1133375,-3.4783788,-0.38240063
1.732,14.428549,17.000393,-2.427712,8.262603,-3.1445122,-0.29546255
1.734,14.146464,17.254673,-2.1476274,8.403134,-2.8175364,-0.20188373
1.736,13.830707,17.548185,-1.8768165,8.533087,-2.5072682,-0.10489842
1.738,13.486407,17.879446,-1.6152365,8.651183,-2.220843,-0.0076180696
1.74,13.112969,18.248104,-1.3609656,8.756441,-1.9638608,0.086978376
1.742,12.710375,18.654293,-1.1146685,8.84831,-1.741338,0.17562045
1.744,12.281877,19.095678,-0.87698215,8.9268675,-1.5565296,0.25525802
1.746,11.834262,19.566977,-0.64712214,8.992493,-1.4111397,0.32341385
1.748,11.3666725,20.066101,-0.4237929,9.04577,-1.3056278,0.3782487
1.75,10.881381,20.590748,-0.20597778,9.087606,-1.2391292,0.41878152
1.752,10.380819,21.137398,0.0034292638,9.119237,-1.2100561,0.44472387
1.754,9.867131,21.701683,0.20343786,9.142093,-1.2164009,0.45618844
1.756,9.344049,22.276064,0.4047078,9.157687,-1.2556804,0.4535647
1.758,8.82089,22.85171,0.6073501,9.16742,-1.3251524,0.43761653
1.76,8.301937,23.42694,0.79932344,9.172556,-1.421956,0.40946138
1.762,7.782343,24.000753,0.9887352,9.174241,-1.5431483,0.3704344
1.764,7.271021,24.564932,1.1892381,9.17346,-1.6857138,0.32189888
1.766,6.776325,25.11454,1.4000094,9.171089,-1.8464608,0.26516348
1.768,6.2995353,25.649189,1.6166451,9.167889,-2.0219417,0.20143521
1.77,5.8421264,26.16786,1.8384013,9.164454,-2.2087579,0.1316821
1.772,5.408768,26.668787,2.066228,9.161171,-2.4037929,0.056599677
1.774,5.002592,27.149977,2.3026733,9.158233,-2.6041145,-0.023307145
1.776,4.627067,27.609423,2.5482793,9.155616,-2.8071332,-0.10770619
1.778,4.2847095,28.0469,2.8037162,9.153155,-3.010632,-0.1964171
1.78,3.9756532,28.463118,3.072116,9.150596,-3.212821,-0.2893889
1.782,3.6998973,28.858574,3.3557038,9.147615,-3.4123352,-0.38673902
1.784,3.4586334,29.232853,3.6554384,9.143863,-3.6080651,-0.48873103
1.786,3.2517304,29.585697,3.9711628,9.138969,-3.7991412,-0.59566116
1.788,3.078895,29.917387,4.302313,9.132581,-3.9849293,-0.7078371
1.79,2.9385824,30.228975,4.6487093,9.124425,-4.164974,-0.8255472
1.792,2.829545,30.521048,5.0110264,9.114251,-4.338963,-0.94908404
1.794,2.7518778,30.793705,5.388726,9.101881,-4.5067167,-1.0787187
1.796,2.7039728,31.047995,5.779826,9.08714,-4.668155,-1.2146728
1.798,2.6830044,31.285397,6.1824875,9.069913,-4.823307,-1.3570628
1.8,2.6868453,31.507109,6.595457,9.050134,-4.972306,-1.5059221
1.802,2.713509,31.714025,7.017538,9.027755,-5.115437,-1.6611814
1.804,2.7609587,31.906868,7.447236,9.002744,-5.2530804,-1.8226705
1.806,2.8272653,32.08649,7.8831463,8.975073,-5.3857164,-1.9901154
1.808,2.910513,32.253635,8.324865,8.944709,-5.513902,-2.1631749
1.81,3.0086975,32.408833,8.772169,8.911604,-5.6382637,-2.3414328
1.812,3.1203456,32.551983,9.224289,8.87571,-5.759495,-2.524434
1.814,3.2439604,32.683083,9.680104,8.83692,-5.878324,-2.7117355
1.816,3.378038,32.80198,10.138356,8.795063,-5.995535,-2.9028792
1.818,3.5214229,32.9085,10.598088,8.749945,-6.1119137,-3.097432
1.82,3.6730914,33.002205,11.058564,8.701323,-6.2282357,-3.2949934
1.822,3.8325868,33.082638,11.5188875,8.648947,-6.345219,-3.4951804
1.824,3.9996495,33.149353,11.978375,8.592552,-6.463555,-3.6976306
1.826,4.17431,33.201622,12.436237,8.531908,-6.583776,-3.9019911
1.828,4.3571897,33.23847,12.891659,8.466834,-6.706321,-4.1079082
1.83,4.5482492,33.259308,13.344198,8.397146,-6.8314667,-4.315014
1.832,4.7480483,33.263184,13.79323,8.322704,-6.959405,-4.5229015
1.834,4.9572983,33.249107,14.238323,8.243376,-7.090287,-4.7311506
1.836,5.1768756,33.216095,14.678732,8.159046,-7.2241783,-4.939277
1.838,5.4078197,33.163292,15.114159,8.069601,-7.3611207,-5.1467733
1.84,5.651293,33.089653,15.544117,7.974883,-7.5011044,-5.353157
1.842,5.908499,32.994125,15.96825,7.8747177,-7.6440153,-5.5579147
1.844,6.1804676,32.87556,16.386236,7.7689066,-7.7896314,-5.7605805
1.846,6.4679785,32.733078,16.797552,7.6572733,-7.9375577,-5.9607086
1.848,6.7716765,32.566067,17.201706,7.5396566,-8.087219,-6.157881
1.85,7.0925565,32.373558,17.598448,7.415921,-8.237801,-6.3517027
1.852,7.430852,32.155025,17.98746,7.285962,-8.388295,-6.541807
1.854,7.7866426,31.909855,18.368673,7.149698,-8.537504,-6.7278576
1.856,8.159648,31.638405,18.742512,7.007083,-8.68406,-6.9095187
1.858,8.551129,31.338263,19.108395,6.858119,-8.826472,-7.086444
1.86,8.959609,31.009485,19.465288,6.7027893,-8.963249,-7.2582827
1.862,9.3842,30.651722,19.813072,6.5411234,-9.092926,-7.424673
1.864,9.824463,30.264294,20.151056,6.3731375,-9.214082,-7.585236
1.866,10.278467,29.847626,20.478745,6.1988945,-9.325439,-7.7395844
1.868,10.74488,29.401634,20.79713,6.0185003,-9.425799,-7.887316
1.87,11.2245655,28.922674,21.103806,5.832116,-9.5140505,-8.02801
1.872,11.71183,28.413754,21.397692,5.6399403,-9.589214,-8.161251
1.874,12.20552,27.873623,21.680141,5.442226,-9.650385,-8.286614
1.876,12.704441,27.30237,21.94931,5.239272,-9.696726,-8.403643
1.878,13.205528,26.700714,22.20474,5.0314636,-9.727434,-8.511879
1.88,13.706537,26.068947,22.4462,4.819263,-9.741725,-8.610906
1.882,14.204796,25.407639,22.672874,4.603179,-9.738929,-8.700243
1.884,14.697678,24.717363,22.884533,4.3838177,-9.718451,-8.779406
1.886,15.182522,23.999119,23.080486,4.161866,-9.679665,-8.847931
1.888,15.656496,23.254292,23.260368,3.938088,-9.62192,-8.905296
1.89,16.11705,22.484514,23.423782,3.7132704,-9.544898,-8.950986
1.892,16.561495,21.691528,23.570198,3.488292,-9.448296,-8.984505
1.894,16.987238,20.877546,23.699286,3.2640278,-9.331983,-9.005369
1.896,17.391783,20.04507,23.811205,3.0413184,-9.196072,-9.013157
1.898,17.772556,19.196999,23.906092,2.8210902,-9.040491,-9.007473
1.9,18.127497,18.336414,23.984,2.6041946,-8.865285,-8.987774
1.902,18.454493,17.466831,24.04494,2.391377,-8.671267,-8.953788
1.904,18.75172,16.59186,24.089027,2.1835508,-8.458792,-8.905257
1.906,19.017742,15.715444,24.116396,1.9815553,-8.228326,-8.84183
1.908,19.251196,14.841787,24.127335,1.7861819,-7.980572,-8.763268
1.91,19.451145,13.975216,24.122227,1.5982606,-7.7162123,-8.669425
1.912,19.616987,13.11988,24.101206,1.4186028,-7.436035,-8.560267
1.914,19.7487,12.279942,24.064533,1.2479997,-7.1408563,-8.435873
1.916,19.84649,11.45937,24.01237,1.0871911,-6.831617,-8.296479
1.918,19.911007,10.6621065,23.94489,0.9368479,-6.509327,-8.142514
1.92,19.943596,9.891761,23.86242,0.7975365,-6.1750636,-7.9746065
1.922,19.946,9.151557,23.765263,0.6697084,-5.8299994,-7.7935944
1.924,19.920383,8.444265,23.654003,0.553687,-5.475365,-7.6005006
1.926,19.869213,7.7723503,23.52896,0.44964695,-5.1124244,-7.3965287
1.928,19.795261,7.137705,23.390244,0.35760868,-4.7424417,-7.183085
1.93,19.701456,6.541767,23.237999,0.27743232,-4.3666816,-6.961725
1.932,19.590937,5.9852195,23.072376,0.2088201,-3.9863746,-6.734065
1.934,19.466707,5.4683294,22.893347,0.15130436,-3.602732,-6.5017214
1.936,19.33188,4.9909544,22.700949,0.10432243,-3.216879,-6.266372
1.938,19.18935,4.5524445,22.495422,0.067179084,-2.829985,-6.029636
1.94,19.042004,4.15143,22.276676,0.03907478,-2.4433422,-5.793011
1.942,18.892351,3.7864194,22.044748,0.01914078,-2.0582945,-5.557897
1.944,18.742008,3.4555407,21.799494,0.0064836144,-1.6760268,-5.3255258
1.946,18.592636,3.1565557,21.540749,0.00018149614,-1.2978971,-5.096923
1.948,18.445337,2.887023,21.268372,-0.00067055225,-0.92524457,-4.8729315
1.95,18.30037,2.6445494,20.98236,0.0030595064,-0.5593391,-4.654218
1.952,18.15778,2.4265118,20.682692,0.010444701,-0.20169473,-4.441311
1.954,18.01704,2.2304587,20.369678,0.02064386,0.14638248,-4.234751
1.956,17.877142,2.0538344,20.043676,0.03290759,0.48412594,-4.034768
1.958,17.737097,1.8938622,19.705193,0.046336733,0.8100594,-3.8416266
1.96,17.594797,1.7485619,19.354689,0.060207274,1.1229337,-3.655649
1.962,17.448616,1.6157136,18.993425,0.073866,1.4216543,-3.4770522
1.964,17.296707,1.4934263,18.62233,0.086685106,1.705016,-3.306041
1.966,17.137117,1.379292,18.242332,0.098122835,1.9718826,-3.1428595
1.968,16.966383,1.2738256,17.855701,0.10771093,2.2211502,-2.9877408
1.97,16.78389,1.1749129,17.464808,0.11506674,2.4518354,-2.8409026
1.972,16.58777,1.0813823,17.071182,0.11989206,2.6630778,-2.702533
1.974,16.376034,0.992599,16.676945,0.12197262,2.854207,-2.572763
1.976,16.147612,0.90748453,16.28452,0.12117118,3.024797,-2.451663
1.978,15.901367,0.8255997,15.895301,0.117426336,3.174719,-2.3392403
1.98,15.634468,0.7495303,15.513966,0.11073899,3.3041286,-2.2354174
1.982,15.350545,0.6756954,15.143215,0.101175964,3.4134548,-2.1400082
1.984,15.047873,0.60554934,14.783539,0.08885878,3.5034246,-2.05279
1.986,14.725864,0.5389991,14.438709,0.07392961,3.5750284,-1.9734762
1.988,14.385893,0.4759717,14.110453,0.05657226,3.629447,-1.9017434
1.99,14.028664,0.417058,13.80049,0.036980867,3.6680236,-1.8372115
1.992,13.655415,0.36281776,13.5107765,0.0153846145,3.6922307,-1.7794791
1.994,13.267478,0.3137846,13.242647,-0.007981718,3.7036176,-1.7281264
1.996,12.866331,0.27034473,12.997295,-0.0328874,3.7036986,-1.68277
1.998,12.453918,0.23279047,12.775597,-0.059115946,3.6939664,-1.6430838
2,12.032005,0.20171547,12.577967,-0.0864982,3.6758235,-1.608802
2.002,11.602596,0.17740202,12.4048815,-0.114884436,3.650546,-1.5797329
2.004,11.167692,0.1602602,12.256266,-0.14414722,3.6192775,-1.555745
2.006,10.729351,0.1505518,12.131638,-0.17417783,3.583004,-1.5367888
2.008,10.289457,0.14856482,12.030319,-0.20490652,3.5425696,-1.5228572
2.01,9.849958,0.15435219,11.951682,-0.23626095,3.4987092,-1.5139787
2.012,9.412708,0.16796541,11.894741,-0.26819772,3.4520533,-1.5101961
2.014,8.979398,0.18958855,11.858014,-0.30068344,3.4031649,-1.5115513
2.016,8.55158,0.21913314,11.839968,-0.33367544,3.35255,-1.518049
2.018,8.1306305,0.2564752,11.839161,-0.36715615,3.3006632,-1.5296526
2.02,7.717723,0.30126762,11.85416,-0.40111193,3.2479258,-1.5462904
2.022,7.313616,0.35338593,11.883561,-0.43553647,3.1947498,-1.5678762
2.024,6.918965,0.4126892,11.925737,-0.4704418,3.141536,-1.594277
2.026,6.53424,0.47897172,11.978897,-0.50584966,3.0886965,-1.6253353
2.028,6.159552,0.55186486,12.041145,-0.5417893,3.0366232,-1.6608866
2.03,5.794657,0.6310656,12.110839,-0.57830256,2.985702,-1.7007531
2.032,5.4391155,0.7160995,12.1863,-0.6154274,2.9363146,-1.7447098
2.034,5.0921993,0.8065913,12.265845,-0.65318394,2.8888068,-1.7925227
2.036,4.7531605,0.9020083,12.348068,-0.6915911,2.843496,-1.8439583
2.038,4.420977,1.0018764,12.431548,-0.73065555,2.8006606,-1.8987666
2.04,4.0946646,1.1057858,12.515,-0.77035904,2.7604809,-1.956705
2.042,3.7731657,1.2132928,12.597172,-0.81069094,2.7230837,-2.017513
2.044,3.4554358,1.3239691,12.677149,-0.85160995,2.688542,-2.080947
2.046,3.1402385,1.4374726,12.7539215,-0.89307886,2.6568482,-2.1467288
2.048,2.8265688,1.5534863,12.826542,-0.93504083,2.6279051,-2.2146058
2.05,2.513739,1.6717103,12.894574,-0.9774334,2.6015475,-2.284315
2.052,2.2009861,1.7917988,12.9574585,-1.0201824,2.5775247,-2.355554
2.054,1.8880627,1.9133945,13.014778,-1.0631942,2.5555215,-2.428016
2.056,1.5746927,2.0361552,13.066285,-1.1063695,2.5351574,-2.5014088
2.058,1.2606568,2.1598878,13.111798,-1.1496313,2.516004,-2.5754387
2.06,0.94619465,2.284418,13.151485,-1.1929246,2.497598,-2.6498501
2.062,0.63168764,2.409871,13.185885,-1.2362149,2.4794226,-2.7244332
2.064,0.31779432,2.5360081,13.21512,-1.2795324,2.4609492,-2.79904
2.066,0.005226612,2.663026,13.239934,-1.3229356,2.4416528,-2.8736076
2.068,-0.30525303,2.7910893,13.260813,-1.3665185,2.4210382,-2.9481146
2.07,-0.6126275,2.9206011,13.278496,-1.4104006,2.398675,-3.0226138
2.072,-0.91582394,3.0519788,13.293776,-1.4547176,2.3742533,-3.097217
2.074,-1.2138028,3.1856332,13.307545,-1.4996221,2.3475866,-3.172049
2.076,-1.5053272,3.322195,13.320841,-1.5452693,2.3186245,-3.2472587
2.078,-1.78935,3.4621465,13.334389,-1.591815,2.2874541,-3.3229966
2.08,-2.064942,3.6060648,13.349099,-1.6393976,2.2543032,-3.3994067
2.082,-2.3309717,3.754831,13.365948,-1.6881616,2.2195654,-3.476613
2.084,-2.5865917,3.9092379,13.385956,-1.7382269,2.1837497,-3.5547314
2.086,-2.8305507,4.069919,13.409843,-1.7896729,2.1474454,-3.633875
2.088,-3.062119,4.2375803,13.438122,-1.8425398,2.1113145,-3.7141466
2.09,-3.2805185,4.41288,13.471024,-1.8968139,2.0760303,-3.7956533
2.092,-3.4849815,4.596341,13.508642,-1.9524324,2.0422118,-3.878504
2.094,-3.6747394,4.788308,13.551048,-2.0093148,2.0104651,-3.9628682
2.096,-3.8491955,4.9889927,13.5982275,-2.0673602,1.9812263,-4.04894
2.098,-4.0077043,5.1983423,13.649941,-2.1264477,1.9547664,-4.136931
2.1,-4.149687,5.4162264,13.70557,-2.186456,1.931146,-4.227126
2.102,-4.2746296,5.6422443,13.764316,-2.247285,1.9102638,-4.3197827
2.104,-4.381956,5.8759604,13.825112,-2.3088262,1.891838,-4.415163
2.106,-4.4710345,6.11655,13.88678,-2.3710122,1.8754259,-4.513522
2.108,-4.541535,6.363081,13.947859,-2.4337888,1.8604962,-4.61507
2.11,-4.5931454,6.614257,14.006874,-2.4971135,1.8464507,-4.719914
2.112,-4.625512,6.868661,14.062166,-2.5609553,1.8326573,-4.8280735
2.114,-4.638374,7.1246653,14.11216,-2.6252675,1.8184932,-4.939456
2.116,-4.631767,7.380324,14.1551285,-2.6900277,1.8033953,-5.053897
2.118,-4.605678,7.634035,14.1895275,-2.7552254,1.7868425,-5.171147
2.12,-4.5597095,7.8834667,14.213401,-2.8208528,1.7683798,-5.2909155
2.122,-4.494398,8.126487,14.225609,-2.886934,1.7475972,-5.41288
2.124,-4.410203,8.360897,14.224936,-2.953489,1.7240918,-5.536674
2.126,-4.3072877,8.584792,14.210057,-3.0205255,1.6974978,-5.661935
2.128,-4.1860905,8.796133,14.180084,-3.0880592,1.6675088,-5.7883263
2.13,-4.0471992,8.992982,14.134233,-3.1560748,1.6338539,-5.915505
2.132,-3.8911953,9.173632,14.071821,-3.2245555,1.5963385,-6.0431566
2.134,-3.718687,9.336248,13.992672,-3.2934413,1.5548675,-6.170986
2.136,-3.530497,9.4793415,13.8967705,-3.3626323,1.5094426,-6.2987065
2.138,-3.3273768,9.601622,13.784456,-3.4320073,1.4602149,-6.4260316
2.14,-3.110179,9.702038,13.6558485,-3.501431,1.4074752,-6.5527177
2.142,-2.8792977,9.780039,13.511282,-3.570743,1.3516619,-6.6785192
2.144,-2.635366,9.83507,13.351325,-3.639741,1.293364,-6.8032064
2.146,-2.3789577,9.86694,13.176807,-3.7082198,1.23336,-6.926604
2.148,-2.1105433,9.875685,12.988552,-3.7758737,1.1725068,-7.048501
2.15,-1.8303881,9.861597,12.787437,-3.8423781,1.1118529,-7.1687813
2.152,-1.5387549,9.825041,12.5741825,-3.9074228,1.052526,-7.2873745
2.154,-1.2357712,9.766746,12.349588,-3.9706051,0.995801,-7.404174
2.156,-0.9213977,9.68746,12.114673,-4.0314884,0.9429109,-7.519164
2.158,-0.595613,9.588142,11.87023,-4.089623,0.89510036,-7.6323967
2.16,-0.258173,9.469965,11.617089,-4.144514,0.85357904,-7.743955
2.162,0.09121275,9.334392,11.356117,-4.1956806,0.81945014,-7.853967
2.164,0.45280504,9.182866,11.088158,-4.2426596,0.79366636,-7.962611
2.166,0.826684,9.016905,10.813895,-4.285022,0.77699137,-8.070089
2.168,1.2133307,8.838307,10.534027,-4.3223777,0.7699466,-8.176609
2.17,1.6126454,8.64871,10.248916,-4.3543816,0.77279043,-8.28236
2.172,2.0247183,8.44983,9.959042,-4.380731,0.785511,-8.387509
2.174,2.44951,8.243616,9.665058,-4.4011884,0.80781794,-8.492201
2.176,2.886942,8.031754,9.367513,-4.415542,0.8391671,-8.596575
2.178,3.3368545,7.8161826,9.067462,-4.4236493,0.87881374,-8.700745
2.18,3.7986436,7.598693,8.765693,-4.4253845,0.925827,-8.804783
2.182,4.2716403,7.381315,8.463209,-4.4206715,0.97913885,-8.908731
2.184,4.755026,7.166007,8.161243,-4.4094715,1.0376167,-9.012623
2.186,5.247708,6.955017,7.8610706,-4.3917623,1.1000757,-9.11647
2.188,5.7488203,6.7506514,7.5644226,-4.367563,1.165329,-9.220252
2.19,6.25754,6.5551367,7.2730627,-4.3369126,1.2321963,-9.32394
2.192,6.7725925,6.370535,6.9888897,-4.299859,1.2994895,-9.427521
2.194,7.2932034,6.1990166,6.714065,-4.2564626,1.3660083,-9.530964
2.196,7.8183174,6.042915,6.451031,-4.2067933,1.4305096,-9.634262
2.198,8.347088,5.9044385,6.202513,-4.1509705,1.4917006,-9.737454
2.2,8.879125,5.785985,5.9711895,-4.0890894,1.5482125,-9.840616
2.202,9.414146,5.689612,5.759804,-4.0212817,1.5986423,-9.943866
2.204,9.952185,5.6175337,5.570879,-3.947693,1.6414747,-10.047304
2.206,10.493554,5.5714865,5.4068747,-3.8684385,1.67518,-10.151075
2.208,11.03889,5.5533304,5.2703114,-3.78371,1.6982074,-10.25536
2.21,11.589339,5.564579,5.1635284,-3.6937146,1.7090645,-10.360281
2.212,12.146403,5.606286,5.088568,-3.5986567,1.7063193,-10.465935
2.214,12.711821,5.679385,5.0470715,-3.498795,1.6886053,-10.572363
2.216,13.287144,5.784699,5.040442,-3.394428,1.6547236,-10.679533
2.218,13.874492,5.92271,5.0701356,-3.2859073,1.6036477,-10.7873535
2.22,14.476575,6.0932183,5.1369314,-3.173648,1.5345559,-10.89566
2.222,15.096163,6.2951264,5.2404923,-3.0581326,1.4468374,-11.004237
2.224,15.733255,6.5288925,5.380913,-2.939903,1.3400936,-11.112783
2.226,16.390808,6.794242,5.5599103,-2.819561,1.2141223,-11.22095
2.228,17.073479,7.087936,5.7762046,-2.697752,1.0689502,-11.328369
2.23,17.779995,7.4130583,6.0307336,-2.5751567,0.9047737,-11.434616
2.232,18.515257,7.7654376,6.3228827,-2.4524724,0.72194004,-11.5393
2.234,19.283342,8.143383,6.6493096,-2.330367,0.52087355,-11.6420765
2.236,20.083069,8.545307,7.009545,-2.2094836,0.30211067,-11.742604
2.238,20.915195,8.970293,7.404811,-2.0904193,0.06626177,-11.840596
2.24,21.783527,9.414473,7.83332,-1.9736993,-0.18599701,-11.935833
2.242,22.68793,9.877589,8.292683,-1.8597758,-0.45393944,-12.028149
2.244,23.627907,10.359214,8.782644,-1.7490094,-0.736773,-12.117396
2.246,24.605669,10.857122,9.302519,-1.6417019,-1.033659,-12.203449
2.248,25.621868,11.369591,9.85079,-1.5380478,-1.34371,-12.286202
2.25,26.67537,11.896036,10.426537,-1.4381461,-1.6659832,-12.3655405
2.252,27.765806,12.435101,11.028782,-1.3420241,-1.9995184,-12.44123
2.254,28.893183,12.984827,11.656183,-1.2496849,-2.3434575,-12.513062
2.256,30.05563,13.544319,12.3083,-1.1610551,-2.6969724,-12.580769
2.258,31.249983,14.113942,12.9855585,-1.076005,-3.0590804,-12.6439085
2.26,32.475346,14.692228,13.687222,-0.9945055,-3.4293122,-12.702208
2.262,33.73123,15.278539,14.411205,-0.916446,-3.8069742,-12.755159
2.264,35.015263,15.872668,15.155752,-0.8417914,-4.1914134,-12.802111
2.266,36.32524,16.473715,15.919468,-0.7706456,-4.5822973,-12.842482
2.268,37.658802,17.079967,16.701078,-0.703048,-4.979375,-12.875759
2.27,39.01276,17.690031,17.499123,-0.6390333,-5.3822007,-12.901298
2.272,40.38393,18.30233,18.311865,-0.57865715,-5.7904367,-12.918449
2.274,41.769638,18.915005,19.13767,-0.5219226,-6.203717,-12.926641
2.276,43.166824,19.52631,19.974516,-0.46881962,-6.621467,-12.925301
2.278,44.572563,20.133362,20.820057,-0.4193051,-7.0428762,-12.913908
2.28,45.98394,20.733337,21.671944,-0.37328243,-7.466904,-12.892005
2.282,47.397373,21.323387,22.527885,-0.33055043,-7.892367,-12.859129
2.284,48.809948,21.900253,23.385647,-0.2908547,-8.317953,-12.8147745
2.286,50.2189,22.46037,24.243013,-0.25387216,-8.74226,-12.758431
2.288,51.621403,22.999825,25.097593,-0.21922064,-9.164002,-12.689606
2.29,53.015266,23.514788,25.94732,-0.18632936,-9.581967,-12.607695
2.292,54.398365,24.001377,26.790007,-0.15456271,-9.99514,-12.51197
2.294,55.768616,24.456043,27.623688,-0.12324095,-10.402732,-12.401727
2.296,57.124542,24.87515,28.446533,-0.091627836,-10.804056,-12.276292
2.298,58.464703,25.255245,29.256828,-0.05889976,-11.198475,-12.134968
2.3,59.787693,25.593674,30.053074,-0.024125218,-11.585224,-11.977085
2.302,61.09288,25.88834,30.833551,0.013770103,-11.963446,-11.80205
2.304,62.379158,26.137924,31.596636,0.055957437,-12.332073,-11.609341
2.306,63.64586,26.341623,32.34098,0.10371506,-12.6898985,-11.398596
2.308,64.892296,26.499796,33.06554,0.15838772,-13.035439,-11.1695
2.31,66.11765,26.613836,33.76969,0.22129107,-13.367186,-10.921856
2.312,67.32106,26.686548,34.453083,0.29375446,-13.683725,-10.655604
2.314,68.50173,26.722149,35.115566,0.37713265,-13.983275,-10.370527
2.316,69.65911,26.726221,35.757526,0.47262758,-14.264528,-10.066711
2.318,70.79294,26.705467,36.37986,0.58146584,-14.526196,-9.744271
2.32,71.90258,26.667984,36.983833,0.7048441,-14.766859,-9.403251
2.322,72.98785,26.62361,37.571156,0.84384155,-14.9852915,-9.043716
2.324,74.04831,26.583689,38.143703,0.9995347,-15.180624,-8.666016
2.326,75.08415,26.560696,38.70419,1.173084,-15.351981,-8.270556
2.328,76.09518,26.56807,39.25589,1.3656315,-15.498681,-7.857834
2.33,77.08133,26.62045,39.803284,1.5783674,-15.620363,-7.4285045
2.332,78.04143,26.734896,40.352562,1.8124626,-15.716889,-6.9832726
2.334,78.9778,26.92624,40.909946,2.0689857,-15.788412,-6.5228395
2.336,79.888435,27.211695,41.480057,2.348826,-15.835332,-6.047879
2.338,80.77171,27.610443,42.06844,2.652693,-15.858322,-5.5589895
2.34,81.63121,28.136604,42.68013,2.981058,-15.858402,-5.0565205
2.342,82.46489,28.811829,43.322662,3.3340645,-15.836802,-4.540557
2.344,83.271515,29.65254,44.000507,3.7115054,-15.795126,-4.0110855
2.346,84.056885,30.674753,44.715744,4.112865,-15.73521,-3.4678726
2.348,84.81918,31.900667,45.47242,4.5373325,-15.659019,-2.910394
2.35,85.54217,33.367714,46.265636,4.983781,-15.56868,-2.337977
2.352,86.24965,35.06633,47.096638,5.4507976,-15.466408,-1.7498636
2.354,86.923935,37.001724,47.98996,5.936671,-15.354426,-1.1452093
2.356,87.58365,39.192787,48.96866,6.439501,-15.234723,-0.5230341
2.358,88.23825,41.65763,50.017433,6.9572735,-15.108982,0.11777496
2.36,88.88373,44.421494,51.106503,7.4879017,-14.978466,0.77857375
2.362,89.54262,47.481438,52.22908,8.029374,-14.843903,1.4609215
2.364,90.21205,50.85844,53.393867,8.579706,-14.705534,2.166637
2.366,90.891914,54.56395,54.614296,9.137068,-14.562889,2.8978977
2.368,91.60155,58.5779,55.879276,9.699872,-14.414683,3.6572099
2.37,92.33301,62.91802,57.169067,10.266679,-14.258995,4.4474444
2.372,93.1108,67.58154,58.478718,10.836233,-14.093074,5.2717285
2.374,93.95087,72.56849,59.798645,11.407675,-13.913136,6.1336985
2.376,94.851,77.85745,61.160007,11.980425,-13.714642,7.0375104
2.378,95.75792,83.4465,62.584366,12.554089,-13.492272,7.9870334
2.38,96.66598,89.31348,64.097725,13.128641,-13.239642,8.985075
2.382,97.628944,95.40932,65.736664,13.703102,-12.950326,10.035378
2.384,98.72345,101.69461,67.50613,14.274754,-12.618341,11.142266
2.386,100.03709,108.16796,69.33838,14.843729,-12.233053,12.310768
2.388,101.61179,114.8327,71.16614,15.41142,-11.781143,13.546444
2.39,103.42526,121.66714,72.98357,15.977491,-11.249311,14.853531
2.392,105.449295,128.5539,74.78618,16.538284,-10.626006,16.235085
2.394,107.673615,135.4569,76.62256,17.08931,-9.896912,17.69259
2.396,110.1085,142.31438,78.524155,17.625486,-9.042875,19.226889
2.398,112.85542,149.04825,80.51532,18.13984,-8.042962,20.840267
2.4,115.91482,155.64651,82.61127,18.625473,-6.874256,22.533308
2.402,119.31116,162.09143,84.8127,19.073605,-5.5163293,24.303556
2.404,123.05414,168.29417,87.06961,19.473248,-3.9507074,26.144974
2.406,127.16103,174.17441,89.365265,19.81047,-2.1605608,28.046562
2.408,131.62659,179.60297,91.66912,20.070393,-0.12979448,29.990261
2.41,136.43837,184.49153,93.94978,20.237377,2.1527486,31.957863
2.412,141.58794,188.79933,96.1918,20.29671,4.6836348,33.92546
2.414,147.05223,192.51686,98.351425,20.231491,7.447398,35.850986
2.416,152.84895,195.58345,100.39642,20.023615,10.424251,37.69558
2.418,158.96265,197.96786,102.262314,19.664553,13.581475,39.423794
2.42,165.36539,199.6559,103.86409,19.155964,16.882378,40.994896
2.422,172.02615,200.63477,105.096115,18.498133,20.26971,42.351017
2.424,178.90646,200.8826,105.86568,17.697735,23.679775,43.438828
2.426,185.94862,200.40948,106.10997,16.780357,27.046562,44.227486
2.428,193.09254,199.25496,105.802185,15.779208,30.297459,44.700447
2.43,200.27922,197.47614,104.89206,14.728691,33.351646,44.84442
2.432,207.4437,195.13138,103.28725,13.666136,36.128613,44.644615
2.434,214.49516,192.28923,100.90734,12.627567,38.551033,44.083714
2.436,221.337,189.01588,97.70204,11.6401005,40.54103,43.143665
2.438,227.86545,185.37434,93.642746,10.720233,42.027355,41.820076
2.44,233.97498,181.42686,88.72302,9.875339,42.960735,40.125553
2.442,239.55812,177.23952,82.96064,9.105274,43.32647,38.082134
2.444,244.50476,172.88158,76.40802,8.409253,43.14967,35.716537
2.446,248.70126,168.41331,69.125984,7.7876897,42.494324,33.0546
2.448,252.05823,163.8777,61.1805,7.239329,41.45496,30.120209
2.45,254.51852,159.30827,52.636993,6.7615204,40.147915,26.935158
2.452,256.02277,154.72385,43.608757,6.34784,38.69488,23.52097
2.454,256.53162,150.13693,34.24671,5.979286,37.202255,19.90731
2.456,256.02557,145.5611,24.723373,5.6231976,35.747116,16.138622
2.458,254.51361,141.00117,15.220131,5.2358837,34.36577,12.278725
2.46,252.03027,136.45233,5.9318924,4.764759,33.05061,8.409904
2.462,248.59827,131.94484,-2.954605,4.1488495,31.746838,4.6314096
2.464,244.30441,127.48439,-11.280739,3.3247018,30.36317,1.051053
2.466,239.21707,123.06769,-18.890244,2.2323074,28.791853,-2.2154799
2.468,233.43541,118.7,-25.606346,0.82634735,26.920544,-5.049599
2.47,227.08359,114.39016,-31.271133,-0.91741943,24.64576,-7.3613005
2.472,220.2698,110.18144,-35.780884,-3.0029306,21.898998,-9.089935
2.474,213.13565,106.094376,-39.07277,-5.405613,18.650042,-10.200958
2.476,205.81662,102.16171,-41.118187,-8.063324,14.9309225,-10.683789
2.478,198.42584,98.43967,-41.90101,-10.896644,10.821973,-10.574456
2.48,191.0886,94.94355,-41.438316,-13.823744,6.4401083,-9.955191
2.482,183.88696,91.704346,-39.796276,-16.749031,1.9374628,-8.925075
2.484,176.9048,88.74208,-37.067528,-19.568123,-2.506621,-7.582212
2.486,170.22571,86.09009,-33.40492,-22.181036,-6.7071757,-6.022061
2.488,163.94939,83.757706,-28.958818,-24.49634,-10.486057,-4.340093
2.49,158.09793,81.76861,-23.890564,-26.432716,-13.68034,-2.6338658
2.492,152.63132,80.15791,-18.37006,-27.927553,-16.161968,-1.0050349
2.494,147.50444,78.92998,-12.536564,-28.94608,-17.857006,0.45339203
2.496,142.67758,78.04603,-6.4762583,-29.479664,-18.747303,1.6727705
2.498,138.15623,77.46901,-0.3036852,-29.548225,-18.867706,2.613413
2.5,133.98706,77.184845,5.804011,-29.197142,-18.300816,3.2638803
2.502,130.18613,77.24478,11.691278,-28.491909,-17.169155,3.636278
2.504,126.726326,77.59469,17.18895,-27.512297,-15.62258,3.761697
2.506,123.5532,78.202484,22.191729,-26.344013,-13.819517,3.685977
2.508,120.54507,79.04257,26.63675,-25.069546,-11.913437,3.4645877
2.51,117.69826,80.03074,30.497673,-23.763569,-10.042664,3.156815
2.512,114.98168,81.11161,33.78128,-22.491873,-8.323269,2.8214085
2.514,112.38017,82.301445,36.545193,-21.306683,-6.841883,2.515739
2.516,109.87159,83.59503,38.8117,-20.242657,-5.646465,2.2909393
2.518,107.45517,85.01799,40.619537,-19.31655,-4.747492,2.1857784
2.52,105.129875,86.541336,42.007946,-18.528933,-4.125915,2.2243264
2.522,102.885704,88.10095,43.002853,-17.868637,-3.7417016,2.4158657
2.524,100.72258,89.63112,43.657112,-17.317852,-3.5417924,2.7555242
2.526,98.60293,91.13583,44.006996,-16.855377,-3.4671125,3.2271695
2.528,96.527405,92.5982,44.11141,-16.457989,-3.4583921,3.807282
2.53,94.502,94.000015,44.030342,-16.101788,-3.4641933,4.4676037
2.532,92.52773,95.33745,43.818604,-15.760188,-3.4437828,5.180044
2.534,90.60472,96.622314,43.498474,-15.406608,-3.3615575,5.9197454
2.536,88.74137,97.84229,43.05845,-15.020893,-3.1922493,6.6640167
2.538,86.93556,98.9735,42.46604,-14.590045,-2.9245226,7.3930597
2.54,85.17706,99.99501,41.727505,-14.107391,-2.5577066,8.092426
2.542,83.45668,100.900925,40.888725,-13.572245,-2.0991921,8.753023
2.544,81.78306,101.686295,39.975147,-12.989152,-1.5615916,9.368906
2.546,80.15852,102.35596,38.985497,-12.366492,-0.96032643,9.934729
2.548,78.58394,102.9189,37.912632,-11.714996,-0.31203842,10.444248
2.55,77.056335,103.381714,36.749367,-11.046813,0.36714482,10.890754
2.552,75.57335,103.74338,35.489944,-10.374976,1.062553,11.268399
2.554,74.13404,103.99916,34.12481,-9.71257,1.7609731,11.573463
2.556,72.74309,104.14985,32.666252,-9.071624,2.4505107,11.805394
2.558,71.385895,104.20631,31.142962,-8.462089,3.1207998,11.967076
2.56,70.03627,104.17776,29.59148,-7.891288,3.7634919,12.064277
2.562,68.69252,104.07595,28.012804,-7.3640485,4.372651,12.104833
2.564,67.35221,103.908264,26.39712,-6.8831124,4.944755,12.097656
2.566,66.01181,103.67398,24.733686,-6.449349,5.4781084,12.051481
2.568,64.66829,103.37131,23.020092,-6.0619364,5.9719567,11.973343
2.57,63.323463,102.99982,21.262255,-5.7188,6.4258704,11.867986
2.572,61.97959,102.56288,19.469467,-5.417347,6.8394136,11.738434
2.574,60.637196,102.064835,17.654985,-5.155081,7.2118983,11.586592
2.576,59.295097,101.50725,15.83511,-4.9298525,7.5421143,11.41386
2.578,57.955345,100.88974,14.024027,-4.739758,7.828396,11.221483
2.58,56.619717,100.20963,12.231865,-4.5831633,8.068757,11.010571
2.582,55.287857,99.464645,10.466303,-4.458929,8.26101,10.782214
2.584,53.95842,98.65551,8.73531,-4.366006,8.403562,10.537338
2.586,52.629852,97.786224,7.0510406,-4.303129,8.49569,10.276786
2.588,51.3023,96.862434,5.428379,-4.268874,8.537447,10.001531
2.59,49.97931,95.89106,3.8811321,-4.2615776,8.529808,9.712642
2.592,48.663162,94.881256,2.4183006,-4.27944,8.474474,9.411241
2.594,47.355347,93.842285,1.0482197,-4.320668,8.373697,9.098703
2.596,46.056465,92.7798,-0.22119331,-4.3834496,8.230121,8.776738
2.598,44.76606,91.693634,-1.3835754,-4.465952,8.046551,8.447407
2.6,43.481743,90.58162,-2.4339151,-4.5663586,7.8258605,8.113076
2.602,42.202248,89.441086,-3.368978,-4.6829057,7.5710607,7.7763333
2.604,40.92484,88.27351,-4.1864476,-4.8139086,7.285213,7.4399843
2.606,39.64952,87.08343,-4.8856606,-4.9577627,6.9714274,7.107047
2.608,38.37927,85.87711,-5.4653716,-5.112916,6.6328645,6.780644
2.61,37.114326,84.66337,-5.923387,-5.277765,6.27283,6.4641094
2.612,35.8549,83.45116,-6.2582216,-5.4505863,5.8947253,6.1609387
2.614,34.601753,82.2488,-6.4706116,-5.629472,5.5021048,5.8746324
2.616,33.354984,81.06389,-6.564138,-5.8122287,5.098754,5.608588
2.618,32.114666,79.90237,-6.5439076,-5.996409,4.688746,5.3659077
2.62,30.881237,78.76848,-6.416005,-6.1792946,4.2764025,5.1492066
2.622,29.65527,77.6652,-6.187213,-6.3580523,3.8663538,4.960474
2.624,28.43808,76.5952,-5.8647346,-6.5296736,3.463433,4.8010473
2.626,27.231436,75.56116,-5.4560785,-6.6911163,3.0727162,4.671475
2.628,26.037535,74.56576,-4.969118,-6.8394136,2.699478,4.571506
2.63,24.859306,73.61098,-4.412451,-6.9717607,2.349133,4.5001826
2.632,23.699768,72.69858,-3.7959452,-7.0855837,2.027151,4.4559336
2.634,22.561836,71.82916,-3.1308632,-7.1785574,1.7389873,4.4367366
2.636,21.448845,71.002495,-2.4296541,-7.2486515,1.4899782,4.4402857
2.638,20.364075,70.21677,-1.7064266,-7.2941184,1.2852769,4.464125
2.64,19.311398,69.469635,-0.97590446,-7.3135386,1.129718,4.505769
2.642,18.294865,68.75764,-0.252779,-7.305847,1.0276859,4.5627766
2.644,17.31811,68.07733,0.44795418,-7.2703314,0.9829832,4.6327915
2.646,16.384722,67.4249,1.1116276,-7.206686,0.9987102,4.7135506
2.648,15.4983225,66.79612,1.7239475,-7.115064,1.0770506,4.802845
2.65,14.66178,66.186775,2.2715225,-6.996182,1.2191353,4.89849
2.652,13.877632,65.59302,2.7415886,-6.8513594,1.424907,4.998268
2.654,13.147878,65.01056,3.122324,-6.6824694,1.6930125,5.1000214
2.656,12.474403,64.43564,3.4035892,-6.491921,2.0206747,5.2016845
2.658,11.858799,63.864323,3.576439,-6.2825813,2.40375,5.3013215
2.66,11.301767,63.293182,3.6330929,-6.0576944,2.8368115,5.397133
2.662,10.803529,62.718925,3.5678692,-5.8207364,3.313272,5.487561
2.664,10.3635645,62.13871,3.3769493,-5.5753202,3.8255517,5.5712767
2.666,9.980692,61.55023,3.0583954,-5.3250446,4.3653183,5.647175
2.668,9.65343,60.95135,2.6124,-5.0734406,4.9237576,5.714302
2.67,9.379571,60.34027,2.041359,-4.823867,5.4918594,5.7717996
2.672,9.156144,59.715683,1.3493786,-4.579442,6.0607157,5.818821
2.674,8.980047,59.076225,0.54249954,-4.3430166,6.621781,5.8544636
2.676,8.8481455,58.42042,-0.3715706,-4.1171527,7.167036,5.87775
2.678,8.756517,57.746994,-1.3841553,-3.90419,7.6891994,5.8875227
2.68,8.700446,57.05505,-2.485365,-3.7061353,8.181732,5.882636
2.682,8.67522,56.34369,-3.6640205,-3.5246148,8.6389475,5.861971
2.684,8.6757145,55.61209,-4.9077625,-3.3609,9.056059,5.824472
2.686,8.6972065,54.859505,-6.2038517,-3.2159276,9.429068,5.769214
2.688,8.734583,54.085243,-7.539131,-3.0903008,9.7548275,5.69545
2.69,8.782845,53.28875,-8.900543,-2.9843233,10.03087,5.6026945
2.692,8.837021,52.46971,-10.275269,-2.8980074,10.255398,5.4907846
2.694,8.8924265,51.62803,-11.650587,-2.8311443,10.427194,5.3599033
2.696,8.944885,50.763752,-13.014466,-2.7832894,10.545624,5.210573
2.698,8.990232,49.87726,-14.355352,-2.7538161,10.610591,5.0437126
2.7,9.023983,48.969204,-15.662475,-2.7418993,10.622532,4.8606195
2.702,9.04339,48.04055,-16.925364,-2.746469,10.582432,4.6629457
2.704,9.04553,47.091934,-18.136045,-2.7662706,10.491841,4.4526777
2.706,9.0273,46.124363,-19.287376,-2.799824,10.35293,4.2320776
2.708,8.986433,45.13949,-20.372915,-2.8454237,10.1684675,4.0035877
2.71,8.921728,44.138737,-21.38777,-2.9011972,9.9418335,3.769722
2.712,8.83196,43.124336,-22.328457,-2.9651313,9.676937,3.533007
2.714,8.716674,42.09859,-23.192814,-3.035038,9.378195,3.2959013
2.716,8.575732,41.06403,-23.980135,-3.108666,9.05044,3.0607152
2.718,8.409563,40.023224,-24.690731,-3.1836994,8.698817,2.8295426
2.72,8.218988,38.97896,-25.326292,-3.2578068,8.328652,2.604216
2.722,8.005269,37.93404,-25.889421,-3.328662,7.945256,2.3862672
2.724,7.769907,36.89098,-26.383888,-3.3940566,7.553816,2.176852
2.726,7.5145607,35.852016,-26.813923,-3.451962,7.159185,1.9767582
2.728,7.2410827,34.819286,-27.184351,-3.5005984,6.765701,1.7863326
2.73,6.9513755,33.794563,-27.500338,-3.5385509,6.3771048,1.6054859
2.732,6.647484,32.779423,-27.766975,-3.564825,5.996358,1.4337323
2.734,6.3314714,31.7753,-27.989323,-3.5789783,5.6255794,1.2702214
2.736,6.0054445,30.783497,-28.172274,-3.581134,5.265995,1.1138242
2.738,5.6711855,29.805002,-28.32021,-3.5719535,4.917952,0.96324146
2.74,5.33083,28.840834,-28.437214,-3.5526311,4.581037,0.8171344
2.742,4.9864717,27.891546,-28.526627,-3.5247502,4.2541456,0.67423344
2.744,4.639763,26.957708,-28.591187,-3.4901834,3.9356828,0.53342235
2.746,4.2922583,26.039568,-28.633148,-3.4509163,3.6237154,0.39382958
2.748,3.9455595,25.137445,-28.653954,-3.4089122,3.3161728,0.2548449
2.75,3.600913,24.251411,-28.654476,-3.3659782,3.010991,0.11616397
2.752,3.2595901,23.381725,-28.634726,-3.323648,2.7062697,-0.022248745
2.754,2.9225008,22.52922,-28.594505,-3.2831342,2.4003868,-0.16020662
2.756,2.5907354,21.69445,-28.533264,-3.2452986,2.0920503,-0.29731655
2.758,2.2652605,20.878061,-28.450348,-3.2106183,1.7803609,-0.4330613
2.76,1.9470103,20.080618,-28.344576,-3.1792486,1.4648039,-0.5668387
2.762,1.6369939,19.30275,-28.214882,-3.151052,1.1452285,-0.69803077
2.764,1.3361554,18.545416,-28.059921,-3.1256568,0.8218463,-0.8260257
2.766,1.045527,17.809198,-27.878754,-3.1024823,0.49518457,-0.9502952
2.768,0.7658851,17.095005,-27.670418,-3.0808475,0.16604486,-1.0704044
2.77,0.49807382,16.403864,-27.434149,-3.0599637,-0.16453451,-1.1860317
2.772,0.24275899,15.736933,-27.169693,-3.0389655,-0.4952803,-1.29698
2.774,0.0006747246,15.095035,-26.877035,-3.016963,-0.82472086,-1.4031708
2.776,-0.22733521,14.479132,-26.556465,-2.9930532,-1.1512172,-1.5046637
2.778,-0.44073224,13.890203,-26.20868,-2.9662974,-1.4730495,-1.6016521
2.78,-0.63898206,13.328898,-25.834831,-2.9357502,-1.7884192,-1.6943865
2.782,-0.82139444,12.796078,-25.43628,-2.9005163,-2.0954528,-1.7831383
2.784,-0.9873105,12.292368,-25.014416,-2.859723,-2.3923173,-1.8682313
2.786,-1.1366032,11.818195,-24.571224,-2.8125823,-2.6772742,-1.9500332
2.788,-1.2688308,11.373973,-24.108622,-2.7583716,-2.9487507,-2.028901
2.79,-1.3837498,10.959772,-23.628633,-2.6964805,-3.2053764,-2.1051984
2.792,-1.4810284,10.575541,-23.133574,-2.6264184,-3.446018,-2.179268
2.794,-1.560674,10.221232,-22.625774,-2.5478537,-3.6698174,-2.2514584
2.796,-1.6225055,9.896675,-22.107586,-2.4606478,-3.8761792,-2.322083
2.798,-1.6666399,9.6014,-21.581354,-2.3648367,-4.064789,-2.3914335
2.8,-1.6932465,9.334784,-21.049324,-2.2606678,-4.2355814,-2.4598083
2.802,-1.7024057,9.096092,-20.513577,-2.1485534,-4.388707,-2.5275207
2.804,-1.6944206,8.884226,-19.976238,-2.029097,-4.524535,-2.594884
2.806,-1.6695486,8.6981125,-19.439178,-1.9030321,-4.6435976,-2.6622539
2.808,-1.6282737,8.536374,-18.904018,-1.7712109,-4.746524,-2.729991
2.81,-1.5709418,8.397467,-18.372154,-1.6345413,-4.834031,-2.7984972
2.812,-1.4982501,8.27964,-17.844782,-1.493931,-4.906882,-2.868175
2.814,-1.4107227,8.181122,-17.322672,-1.3502672,-4.9658337,-2.939444
2.816,-1.3090549,8.100063,-16.806314,-1.2043407,-5.0115952,-3.0126834
2.818,-1.1938736,8.034535,-16.296122,-1.0568234,-5.0448213,-3.0882266
2.82,-1.0660996,7.9825735,-15.792131,-0.90826744,-5.066081,-3.1663513
2.822,-0.92630947,7.942052,-15.294159,-0.7590652,-5.07586,-3.2472234
2.824,-0.7752429,7.9110603,-14.802,-0.6094551,-5.0745635,-3.3309276
2.826,-0.6136008,7.887441,-14.315212,-0.45952722,-5.062523,-3.4174476
2.828,-0.4420334,7.8691387,-13.833277,-0.3092699,-5.040012,-3.5066662
2.83,-0.26125902,7.854269,-13.355703,-0.15858096,-5.007259,-3.598376
2.832,-0.072014034,7.8409653,-12.881977,-0.007303685,-4.964443,-3.692305
2.834,0.12516862,7.827503,-12.411511,0.14474261,-4.9117613,-3.7881682
2.836,0.3298186,7.8123665,-11.944056,0.29779342,-4.849412,-3.8856785
2.838,0.54128754,7.7939515,-11.479216,0.45206037,-4.7775965,-3.9845207
2.84,0.75928104,7.7710123,-11.016728,0.60775954,-4.696516,-4.0843725
2.842,0.9832283,7.742283,-10.55635,0.7650832,-4.6063657,-4.184952
2.844,1.2127715,7.7068877,-10.098064,0.9241968,-4.5073614,-4.2860146
2.846,1.4474286,7.6640477,-9.6418915,1.0852479,-4.3997626,-4.3873653
2.848,1.6868916,7.6130133,-9.18801,1.2483615,-4.283845,-4.4887886
2.85,1.9305501,7.5532227,-8.736538,1.4136642,-4.1599026,-4.590111
2.852,2.1779342,7.484267,-8.28779,1.5812627,-4.028249,-4.691153
2.854,2.4286642,7.4058285,-7.8422804,1.7512536,-3.8892007,-4.791691
2.856,2.682073,7.317725,-7.400472,1.9237294,-3.743095,-4.891449
2.858,2.9375622,7.219942,-6.9630914,2.0987706,-3.590255,-4.99011
2.86,3.1944988,7.112806,-6.5309753,2.2764533,-3.4310074,-5.08731
2.862,3.4521854,6.9963975,-6.1050873,2.4568827,-3.265713,-5.18266
2.864,3.710114,6.8707104,-5.6864204,2.640135,-3.0947165,-5.27575
2.866,3.9671955,6.7363772,-5.2758665,2.8262813,-2.9183774,-5.366169
2.868,4.2227154,6.5940294,-4.8743696,3.0154295,-2.7370625,-5.4535017
2.87,4.4761157,6.444247,-4.482985,3.2076516,-2.5511572,-5.5373983
2.872,4.7267294,6.287561,-4.102401,3.4030209,-2.3610516,-5.6175275
2.874,4.9734726,6.124672,-3.7336493,3.601598,-2.1671333,-5.693606
2.876,5.2155905,5.956576,-3.3774214,3.803433,-1.969811,-5.7654443
2.878,5.452565,5.7841225,-3.0346482,4.00854,-1.7695146,-5.8328805
2.88,5.6835613,5.60806,-2.7059026,4.216902,-1.5666788,-5.8957744
2.882,5.907894,5.4295063,-2.3915067,4.4284687,-1.3617463,-5.9540534
2.884,6.124645,5.2499094,-2.091992,4.643144,-1.1552038,-6.007657
2.886,6.3329487,5.0703993,-1.8077799,4.860811,-0.9475468,-6.056547
2.888,6.5325265,4.8921657,-1.5392661,5.0813227,-0.73925066,-6.1006804
2.89,6.722885,4.7163715,-1.2866954,5.3045044,-0.5307887,-6.1400485
2.892,6.9035196,4.544174,-1.05029,5.5301976,-0.32262126,-6.1746483
2.894,7.073999,4.376939,-0.8300019,5.758232,-0.11516479,-6.204466
2.896,7.234159,4.2159185,-0.62571084,5.988467,0.09117648,-6.229481
2.898,7.383804,4.062475,-0.4372515,6.220789,0.2960858,-6.2496405
2.9,7.5227985,3.9178522,-0.2643758,6.4550805,0.49929425,-6.264871
2.902,7.651076,3.7834148,-0.106576756,6.691215,0.70049477,-6.2750535
2.904,7.7686834,3.6602318,0.036490053,6.929023,0.89938116,-6.2800083
2.906,7.8756804,3.549523,0.16524321,7.1683393,1.0956498,-6.2795343
2.908,7.9724135,3.4522648,0.2802444,7.4089227,1.2889147,-6.2734404
2.91,8.059172,3.3696141,0.3818901,7.6504316,1.4786687,-6.2615333
2.912,8.136336,3.3025627,0.47055885,7.8924074,1.6642827,-6.243611
2.914,8.204311,3.2521982,0.5467628,8.134323,1.8450917,-6.2195406
2.916,8.263642,3.2195535,0.61087495,8.37559,2.0204542,-6.189277
2.918,8.315017,3.2056513,0.6633243,8.615581,2.1897707,-6.1527724
2.92,8.359154,3.2113516,0.7043052,8.853681,2.3525133,-6.1099577
2.922,8.397033,3.237432,0.734248,9.089274,2.5083156,-6.0607357
2.924,8.42958,3.2847333,0.75329065,9.3218155,2.6569548,-6.0049663
2.926,8.45804,3.3540158,0.7614436,9.550839,2.798366,-5.9425154
2.928,8.483404,3.4460924,0.75881374,9.775953,2.9325876,-5.8732333
2.93,8.506838,3.5619202,0.7453855,9.996853,3.0596943,-5.7969785
2.932,8.529757,3.702354,0.72105324,10.213271,3.1797214,-5.7136393
2.934,8.55344,3.8682632,0.68587196,10.424941,3.2925634,-5.6231894
2.936,8.579514,4.0607004,0.63969696,10.631586,3.397928,-5.5256295
2.938,8.609345,4.280746,0.582353,10.832884,3.4953158,-5.4210052
2.94,8.644836,4.5294647,0.5139775,11.028421,3.583979,-5.309429
2.942,8.687461,4.8079834,0.43466747,11.217719,3.6629434,-5.191044
2.944,8.738762,5.117437,0.3446951,11.400219,3.7310615,-5.0660057
2.946,8.800223,5.459045,0.2444737,11.575301,3.7870998,-4.9345555
2.948,8.873695,5.833464,0.13452625,11.742302,3.8297968,-4.7970576
2.95,8.960644,6.241231,0.015568137,11.900517,3.8579183,-4.654051
2.952,9.062771,6.6829314,-0.111439824,12.049252,3.8702834,-4.5062513
2.954,9.181292,7.1588516,-0.24518514,12.187873,3.8658745,-4.3545732
2.956,9.317728,7.6694083,-0.38447642,12.315821,3.8438785,-4.2001653
2.958,9.473243,8.214837,-0.5282899,12.432631,3.8036327,-4.044415
2.96,9.649181,8.79469,-0.67545426,12.537838,3.7445889,-3.8889015
2.962,9.84644,9.408237,-0.8243762,12.631098,3.6663818,-3.73536
2.964,10.0657425,10.054557,-0.9732754,12.7121105,3.568788,-3.5856044
2.966,10.308052,10.73253,-1.1201031,12.78061,3.4516554,-3.4414353
2.968,10.574175,11.440491,-1.2624917,12.836332,3.314821,-3.3044918
2.97,10.864789,12.176273,-1.3979406,12.87903,3.1581323,-3.1761928
2.972,11.180613,12.937314,-1.5236921,12.908487,2.9814773,-3.0577111
2.974,11.522306,13.720575,-1.6372726,12.924526,2.784782,-2.9499352
2.976,11.890458,14.522691,-1.7361565,12.92702,2.5679736,-2.8533847
2.978,12.285734,15.339791,-1.8180535,12.915898,2.3309684,-2.7681992
2.98,12.708469,16.167898,-1.880568,12.891128,2.0736575,-2.6941097
2.982,13.159031,17.002678,-1.9214058,12.852693,1.7958697,-2.6305604
2.984,13.637995,17.83947,-1.9381118,12.800633,1.4973578,-2.5767882
2.986,14.145322,18.67355,-1.9285712,12.734954,1.1778431,-2.5319493
2.988,14.680959,19.500349,-1.890729,12.655635,0.83695024,-2.4952116
2.99,15.24539,20.314985,-1.8229604,12.562597,0.47417572,-2.4658008
2.992,15.838843,21.111917,-1.7239752,12.455706,0.08886635,-2.4429655
2.994,16.461916,21.885462,-1.5923004,12.334731,-0.3197325,-2.4260316
2.996,17.1148,22.63031,-1.4267635,12.199391,-0.7525015,-2.4144435
2.998,17.797512,23.341106,-1.2264996,12.049313,-1.2103786,-2.4078255
3,18.510223,24.012611,-0.99093914,11.884072,-1.6943223,-2.4059322
3.002,19.253159,24.639378,-0.72005844,11.703266,-2.205155,-2.4087172
3.004,20.02586,25.216015,-0.41443634,11.506561,-2.7434924,-2.4163997
3.006,20.828316,25.737259,-0.07464218,11.293705,-3.3097434,-2.4295235
3.008,21.659756,26.198029,0.29803085,11.064542,-3.904098,-2.4489934
3.01,22.519917,26.593466,0.7022953,10.819055,-4.5264764,-2.4761057
3.012,23.407288,26.919144,1.1363869,10.55734,-5.1764603,-2.5125065
3.014,24.320045,27.170723,1.5982895,10.279591,-5.853368,-2.560128
3.016,25.254684,27.343838,2.0854626,9.986002,-6.556305,-2.6211123
3.018,26.207043,27.434502,2.5950966,9.676627,-7.2841015,-2.6978192
3.02,27.17458,27.440376,3.1253262,9.351327,-8.035234,-2.7926602
3.022,28.15468,27.359846,3.6741562,9.0097,-8.807895,-2.9078512
3.024,29.143036,27.191586,4.2391224,8.6510725,-9.6,-3.0452619
3.026,30.133793,26.935211,4.816887,8.27459,-10.409116,-3.2062757
3.028,31.120367,26.589825,5.4035416,7.879384,-11.232378,-3.3916674
3.03,32.093925,26.15642,5.996599,7.464709,-12.066467,-3.6015
3.032,33.04638,25.636524,6.5924063,7.0301623,-12.90752,-3.835134
3.034,33.96925,25.032925,7.187542,6.575823,-13.751134,-4.0912676
3.036,34.853703,24.350075,7.779413,6.1024094,-14.5923395,-4.3679094
3.038,35.691044,23.593374,8.365337,5.611287,-15.425641,-4.6624804
3.04,36.471394,22.768742,8.943001,5.1045046,-16.245134,-4.971886
3.042,37.18476,21.882631,9.510198,4.5846896,-17.044495,-5.2926826
3.044,37.820763,20.942242,10.064596,4.0548873,-17.817041,-5.621354
3.046,38.369644,19.955208,10.6039505,3.5183148,-18.555716,-5.9543705
3.048,38.82187,18.929941,11.125925,2.978241,-19.253162,-6.288067
3.05,39.168713,17.875381,11.628634,2.4381762,-19.902185,-6.6185
3.052,39.402958,16.800257,12.110455,1.9017181,-20.495846,-6.941717
3.054,39.51801,15.713478,12.5698595,1.3723288,-21.027481,-7.253912
3.056,39.508278,14.623906,13.005457,0.85343647,-21.490887,-7.5514183
3.058,39.36921,13.540972,13.415402,0.34837914,-21.880672,-7.830631
3.06,39.097923,12.473837,13.797545,-0.13950825,-22.192196,-8.088092
3.062,38.693398,11.431036,14.149529,-0.60672855,-22.421738,-8.320468
3.064,38.15652,10.420624,14.468824,-1.0496588,-22.566887,-8.524506
3.066,37.48934,9.449807,14.753351,-1.4644861,-22.626667,-8.69726
3.068,36.695827,8.525199,15.000643,-1.8473597,-22.60148,-8.836345
3.07,35.781174,7.6531897,15.208162,-2.1946669,-22.493061,-8.940027
3.072,34.7525,6.8392754,15.373087,-2.5031204,-22.30437,-9.007231
3.074,33.618294,6.087888,15.492915,-2.7700891,-22.039448,-9.037567
3.076,32.387856,5.4024553,15.56512,-2.9937286,-21.703125,-9.031423
3.078,31.071564,4.7856636,15.587489,-3.1731043,-21.300856,-8.989799
3.08,29.680439,4.239279,15.558338,-3.308353,-20.838528,-8.914238
3.082,28.22617,3.764553,15.476555,-3.4006906,-20.322311,-8.80666
3.084,26.720898,3.3616962,15.3421755,-3.4522457,-19.758396,-8.669048
3.086,25.177101,3.0298958,15.155642,-3.465982,-19.152887,-8.503378
3.088,23.607004,2.7677279,14.918297,-3.4454436,-18.511753,-8.311415
3.09,22.022861,2.572884,14.632028,-3.3945737,-17.84079,-8.094774
3.092,20.43648,2.442236,14.299696,-3.3174963,-17.145601,-7.854853
3.094,18.860237,2.3714504,13.924741,-3.218349,-16.431593,-7.5929446
3.096,17.306236,2.3552747,13.511461,-3.1011376,-15.703876,-7.310217
3.098,15.785118,2.3880544,13.064834,-2.9695582,-14.967203,-7.0077443
3.1,14.305737,2.4641497,12.590383,-2.8268623,-14.226004,-6.6866875
3.102,12.876688,2.5780218,12.093764,-2.6758332,-13.484222,-6.3484893
3.104,11.505707,2.7240264,11.580587,-2.5189042,-12.74502,-5.9948964
3.106,10.200538,2.8960266,11.0565815,-2.357928,-12.010842,-5.627757
3.108,8.96818,3.087793,10.5274105,-2.194058,-11.283619,-5.249034
3.11,7.8149734,3.2930176,9.998697,-2.0279598,-10.564802,-4.860862
3.112,6.74606,3.5057797,9.475951,-1.8597895,-9.855093,-4.465664
3.114,5.7664003,3.7206037,8.96434,-1.6893984,-9.154815,-4.0660715
3.116,4.8798046,3.9322028,8.46826,-1.5165291,-8.463935,-3.6648269
3.118,4.089573,4.1356525,7.991839,-1.3409096,-7.7820745,-3.2647746
3.12,3.398118,4.326641,7.5383396,-1.1622884,-7.1086564,-2.868576
3.122,2.8075795,4.5013056,7.1106195,-0.98040736,-6.442912,-2.478568
3.124,2.3193145,4.656479,6.711002,-0.794988,-5.7840157,-2.0967371
3.126,1.9347486,4.789787,6.3413897,-0.60589355,-5.1311827,-1.7247877
3.128,1.6541362,4.899377,6.003072,-0.41312516,-4.4835587,-1.3641126
3.13,1.4748101,4.9825115,5.6959825,-0.21683347,-3.8401344,-1.0157654
3.132,1.3934631,5.037571,5.4201,-0.017299294,-3.1997862,-0.68046254
3.134,1.4073179,5.0639944,5.175509,0.18504941,-2.5614736,-0.35862207
3.136,1.5139669,5.061694,4.9629254,0.38962233,-1.9244044,-0.050487876
3.138,1.7100507,5.032003,4.782609,0.5956614,-1.2881426,0.24385643
3.14,1.9929085,4.9753733,4.632962,0.8022155,-0.6526947,0.52455705
3.142,2.3570251,4.8929796,4.5132346,1.0081602,-0.018421963,0.7920771
3.144,2.7958875,4.7860126,4.422165,1.2122653,0.61404026,1.0472357
3.146,3.302462,4.6558824,4.3578024,1.4132831,1.2438095,1.2911763
3.148,3.869281,4.5043063,4.3182554,1.6100361,1.8697522,1.5253638
3.15,4.4896317,4.333733,4.3013544,1.8014765,2.4904766,1.7514184
3.152,5.156054,4.14721,4.305132,1.9866978,3.1043775,1.9709532
3.154,5.861471,3.9474773,4.3278155,2.1649847,3.7096956,2.185443
3.156,6.5981884,3.73696,4.3678913,2.3358274,4.3045363,2.3961053
3.158,7.3581963,3.5179677,4.4237714,2.4988694,4.886863,2.6036975
3.16,8.133459,3.2924526,4.492982,2.653934,5.4545717,2.8084042
3.162,8.916041,3.062581,4.5730095,2.8009558,6.005598,3.0097327
3.164,9.698726,2.830057,4.661325,2.939974,6.537977,3.206503
3.166,10.474675,2.5964236,4.755383,3.071076,7.0499845,3.396923
3.168,11.2372675,2.3628821,4.853294,3.1944265,7.540254,3.5787034
3.17,11.980397,2.1302152,4.9532638,3.3102539,8.007812,3.7492101
3.172,12.698336,1.8991544,5.053205,3.4188132,8.452064,3.9057124
3.174,13.385757,1.6700063,5.151245,3.5202866,8.872683,4.0455365
3.176,14.03838,1.4429016,5.245277,3.6147447,9.269562,4.166171
3.178,14.652135,1.2180095,5.33384,3.7021825,9.642891,4.265488
3.18,15.224018,0.99488735,5.415135,3.7824936,9.99307,4.341959
3.182,15.751236,0.77322674,5.4874887,3.8554962,10.320524,4.394815
3.184,16.231827,0.55272675,5.5493355,3.9209323,10.625528,4.4241247
3.186,16.664293,0.33302212,5.599056,3.9785511,10.908252,4.4308863
3.188,17.048069,0.11383581,5.63519,4.028181,11.168695,4.416896
3.19,17.38292,-0.10494423,5.656636,4.0698433,11.406729,4.384622
3.192,17.669115,-0.32365417,5.662331,4.1038227,11.622102,4.33691
3.194,17.907253,-0.5421834,5.6510844,4.130627,11.814443,4.276717
3.196,18.098337,-0.76043177,5.622434,4.1509485,11.983209,4.2068315
3.198,18.243702,-0.9780717,5.5758724,4.1655884,12.127731,4.1296887
3.2,18.345045,-1.194696,5.5110626,4.175362,12.247395,4.047248
3.202,18.4045,-1.4094849,5.4276695,4.180993,12.341651,3.9609032
3.204,18.423458,-1.6211729,5.325821,4.1830077,12.410047,3.8716514
3.206,18.403517,-1.8283377,5.205802,4.181698,12.452184,3.7802122
3.208,18.347466,-2.029787,5.0678816,4.177109,12.467693,3.6871803
3.21,18.258472,-2.224204,4.9127207,4.169023,12.456222,3.5931146
3.212,18.139265,-2.4105558,4.74119,4.1570697,12.417462,3.498695
3.214,17.992203,-2.5878491,4.554358,4.1407948,12.351123,3.404792
3.216,17.819227,-2.7546954,4.3533754,4.119751,12.256968,3.3123875
3.218,17.622374,-2.9098153,4.139652,4.0936193,12.134994,3.222509
3.22,17.403858,-3.0519204,3.9145417,4.062236,11.985425,3.136118
3.222,17.166004,-3.1799636,3.679495,4.0256133,11.808842,3.0539784
3.224,16.911085,-3.2931514,3.4360936,3.9839163,11.606287,2.976512
3.226,16.64124,-3.3906813,3.186142,3.937499,11.379312,2.9037876
3.228,16.35874,-3.4718108,2.9314296,3.8868542,11.12998,2.8356194
3.23,16.065496,-3.5363903,2.6736164,3.8325238,10.860725,2.7716756
3.232,15.763564,-3.5843077,2.4143736,3.7750492,10.574217,2.7115135
3.234,15.454838,-3.6155891,2.1553423,3.7149558,10.273361,2.6546016
3.236,15.140985,-3.6304145,1.8980035,3.6526957,9.961244,2.600419
3.238,14.823664,-3.629209,1.6437186,3.5886514,9.640965,2.5484414
3.24,14.504492,-3.6124167,1.3936877,3.5231175,9.315573,2.4982502
3.242,14.184904,-3.5808582,1.1488106,3.4563258,8.987941,2.4495234
3.244,13.866362,-3.5353837,0.90981215,3.3883867,8.660622,2.402018
3.246,13.549875,-3.4770737,0.677151,3.3193102,8.335764,2.355545
3.248,13.23638,-3.4068785,0.4513346,3.24906,8.015169,2.3099842
3.25,12.926283,-3.3256388,0.23285615,3.1775508,7.700265,2.265293
3.252,12.620501,-3.2344928,0.021876797,3.1046433,7.392113,2.221487
3.254,12.320052,-3.1349254,-0.18158332,3.0302124,7.0913754,2.1786287
3.256,12.025739,-3.0285497,-0.37774178,2.954142,6.7983565,2.136825
3.258,11.738005,-2.916634,-0.56686485,2.8763857,6.5130873,2.0961232
3.26,11.457049,-2.8004088,-0.7492082,2.7969098,6.2352924,2.0565157
3.262,11.183239,-2.6809583,-0.92502296,2.7157009,5.964471,2.0179482
3.264,10.916706,-2.5591755,-1.0947714,2.6327682,5.699917,1.9803367
3.266,10.657429,-2.435689,-1.2587703,2.5481305,5.440784,1.9435717
3.268,10.405863,-2.3113012,-1.4171034,2.4617991,5.1861324,1.9075263
3.27,10.162109,-2.1869102,-1.5694966,2.3737955,4.934976,1.8720636
3.272,9.92602,-2.0630794,-1.715636,2.2841148,4.6863165,1.8370534
3.274,9.697523,-1.9404802,-1.8549724,2.1927757,4.4392076,1.8023845
3.276,9.476673,-1.8198073,-1.9871037,2.099811,4.1927447,1.7679727
3.278,9.263813,-1.7020864,-2.111445,2.0052803,3.946165,1.7337809
3.28,9.058874,-1.587919,-2.2274067,1.9092697,3.6988492,1.6997807
3.282,8.861895,-1.4779391,-2.3341596,1.8118566,3.4502811,1.6659392
3.284,8.672857,-1.3723767,-2.4311073,1.7131594,3.2000859,1.6321877
3.286,8.491867,-1.2715056,-2.5175176,1.6133319,2.948084,1.5984869
3.288,8.31922,-1.1755953,-2.592793,1.5125763,2.6942403,1.5648158
3.29,8.15499,-1.084691,-2.6560624,1.4111065,2.4386365,1.5311495
3.292,7.9994183,-0.998924,-2.7067277,1.3091897,2.1815066,1.4974854
3.294,7.8524446,-0.91833997,-2.7443266,1.207136,1.9232007,1.4638227
3.296,7.714423,-0.8430414,-2.7681756,1.1052829,1.6641891,1.4301891
3.298,7.585382,-0.7730534,-2.7778418,1.0039922,1.4050351,1.3966055
3.3,7.465373,-0.70831704,-2.7730782,0.90363705,1.1463529,1.3631167
3.302,7.354652,-0.6488371,-2.753884,0.80461437,0.88880825,1.3297508
3.304,7.25337,-0.5946348,-2.7200284,0.7073258,0.633074,1.296521
3.306,7.1616435,-0.54553366,-2.671843,0.6121712,0.3798324,1.2634318
3.308,7.0795345,-0.5013802,-2.609484,0.5195146,0.1297289,1.2304803
3.31,7.0069513,-0.4618914,-2.5334496,0.42969158,-0.1166389,1.1976011
3.312,6.9438667,-0.42700338,-2.4443128,0.34299922,-0.35875204,1.1647074
3.314,6.890382,-0.39674044,-2.3426304,0.25969267,-0.5961459,1.1316706
3.316,6.8465576,-0.3709123,-2.2293193,0.17997894,-0.828439,1.0983343
3.318,6.812155,-0.34922218,-2.1050959,0.1040014,-1.0553144,1.0645101
3.32,6.7871895,-0.33160758,-1.9710877,0.031861365,-1.276525,1.0300046
3.322,6.7715864,-0.31776857,-1.8281581,-0.036387026,-1.4918671,0.99465144
3.324,6.765232,-0.3074124,-1.6774297,-0.10073781,-1.7011751,0.95834863
3.326,6.767901,-0.30033827,-1.5200033,-0.16121525,-1.9043345,0.9210295
3.328,6.779455,-0.29614115,-1.3571178,-0.21784979,-2.1012435,0.88270384
3.33,6.7994366,-0.2944882,-1.1898742,-0.27069265,-2.2918336,0.8434516
3.332,6.8279157,-0.2951243,-1.0194076,-0.3197912,-2.4760513,0.80341953
3.334,6.8645587,-0.2977407,-0.84671223,-0.3652053,-2.6538982,0.7628039
3.336,6.9089937,-0.30204582,-0.6728657,-0.40697956,-2.8253982,0.72180146
3.338,6.960942,-0.30784845,-0.49884605,-0.4451717,-2.9906003,0.6806311
3.34,7.0199003,-0.3146844,-0.3254485,-0.47983825,-3.1495974,0.6394671
3.342,7.0856223,-0.3222611,-0.1535069,-0.5110631,-3.302505,0.5984311
3.344,7.1576405,-0.330348,0.016269758,-0.53894114,-3.4494605,0.55759233
3.346,7.235491,-0.3387146,0.18327665,-0.56357706,-3.5905972,0.5169701
3.348,7.318822,-0.34714437,0.34700096,-0.58510697,-3.7260616,0.4765229
3.35,7.4070487,-0.35541987,0.5069648,-0.60367775,-3.8560185,0.43617228
3.352,7.49974,-0.36332345,0.6627992,-0.61945164,-3.980615,0.395815
3.354,7.5963907,-0.37076426,0.8141739,-0.632589,-4.100005,0.35532957
3.356,7.6963835,-0.3777008,0.9609157,-0.643247,-4.2143307,0.31460297
3.358,7.7992086,-0.38396144,1.1029079,-0.65158606,-4.323717,0.27354106
3.36,7.9043503,-0.3896041,1.2399944,-0.6577461,-4.4283,0.23205197
3.362,8.011329,-0.39460564,1.3721498,-0.6618625,-4.528196,0.19006124
3.364,8.119482,-0.3989222,1.4992896,-0.66405535,-4.623515,0.14753087
3.366,8.228374,-0.40262294,1.6214045,-0.6644412,-4.714361,0.10442276
3.368,8.337513,-0.405797,1.7385483,-0.6631274,-4.8008313,0.060706064
3.37,8.446451,-0.40857005,1.8507912,-0.6602218,-4.883005,0.01635775
3.372,8.554735,-0.41104126,1.9580082,-0.65582037,-4.9609737,-0.028631032
3.374,8.6619835,-0.41327333,2.0603964,-0.650028,-5.0348105,-0.074279726
3.376,8.7677765,-0.4153955,2.1579568,-0.6429486,-5.104601,-0.120601326
3.378,8.871889,-0.41755676,2.2506955,-0.63468814,-5.1704264,-0.16759932
3.38,8.973845,-0.4196906,2.338714,-0.62534785,-5.2323656,-0.21526718
3.382,9.073511,-0.4220233,2.4219632,-0.61504316,-5.290519,-0.26358843
3.384,9.170619,-0.424546,2.5003397,-0.6038892,-5.344986,-0.31253716
3.386,9.265109,-0.4274621,2.574025,-0.5919974,-5.3958883,-0.36205584
3.388,9.356575,-0.43047953,2.6428094,-0.57947755,-5.4433575,-0.41207764
3.39,9.44516,-0.43380833,2.7066858,-0.56645775,-5.4875298,-0.46250898
3.392,9.530661,-0.43737698,2.765574,-0.55305386,-5.5285673,-0.5132437
3.394,9.613082,-0.44122744,2.8194911,-0.53938055,-5.56664,-0.5641539
3.396,9.692406,-0.44532013,2.8683727,-0.5255561,-5.601924,-0.61509305
3.398,9.768663,-0.44967794,2.9121118,-0.51168895,-5.6346207,-0.66590786
3.4,9.841661,-0.45424795,2.9506717,-0.49789405,-5.6649346,-0.71645063
3.402,9.911555,-0.458951,2.9839582,-0.48426604,-5.693091,-0.766572
3.404,9.978402,-0.4638133,3.0120497,-0.47090483,-5.719301,-0.816135
3.406,10.042167,-0.46863508,3.0348792,-0.4579134,-5.743811,-0.86501396
3.408,10.102839,-0.47343206,3.0524957,-0.4453969,-5.766859,-0.91311044
3.41,10.160589,-0.4782219,3.0648699,-0.43345857,-5.7887163,-0.9603301
3.412,10.21538,-0.48285723,3.0722017,-0.4222107,-5.809648,-1.006617
3.414,10.267265,-0.48729277,3.0746164,-0.41178012,-5.8299313,-1.0519416
3.416,10.316112,-0.49144554,3.0721772,-0.40230203,-5.8498516,-1.096272
3.418,10.362069,-0.49532127,3.0650067,-0.39392185,-5.8696914,-1.139622
3.42,10.405018,-0.49898577,3.053327,-0.3868034,-5.889727,-1.1819896
3.422,10.444954,-0.5022297,3.0374455,-0.38109803,-5.910201,-1.2233782
3.424,10.4818535,-0.5050187,3.0173726,-0.37694907,-5.93134,-1.2637964
3.426,10.5155735,-0.5073843,2.993458,-0.37448502,-5.9532986,-1.3032384
3.428,10.546133,-0.50936794,2.9659102,-0.37380457,-5.9761934,-1.3416672
3.43,10.573411,-0.51089096,2.9350193,-0.37496448,-6.0000744,-1.3790382
3.432,10.597317,-0.5118427,2.9010015,-0.37798524,-6.024948,-1.415288
3.434,10.617687,-0.51219916,2.8640265,-0.3828385,-6.050762,-1.4503411
3.436,10.634481,-0.51194024,2.8244188,-0.38946748,-6.0774093,-1.4841154
3.438,10.647562,-0.5110471,2.7824826,-0.3977704,-6.1047487,-1.516527
3.44,10.656946,-0.50942326,2.7384558,-0.40761256,-6.1326003,-1.5475003
3.442,10.662285,-0.5069413,2.6924217,-0.4188578,-6.160778,-1.576949
3.444,10.663636,-0.5035014,2.644667,-0.43136287,-6.189067,-1.6048062
3.446,10.660901,-0.49904776,2.5954225,-0.44499063,-6.2172594,-1.6310174
3.448,10.653857,-0.49344635,2.544808,-0.4596026,-6.2451487,-1.6555314
3.45,10.642612,-0.48666453,2.4931278,-0.47507453,-6.2725325,-1.6783029
3.452,10.626955,-0.47860956,2.4404883,-0.4912901,-6.29922,-1.6992891
