Time_s_,Acc_x_m_s_2_,Acc_y_m_s_2_,Acc_z_m_s_2_,Gyro_x_1_s_,Gyro_y_1_s_,Gyro_z_1_s_
0,-1.3750374,1.4719658,3.75855,-0.6349546,1.9043231,-0.3099391
0.002,-1.3503749,1.4664906,3.7390938,-0.6295419,1.9187002,-0.31001312
0.004,-1.3226184,1.4612615,3.7171357,-0.6236263,1.9345767,-0.31025288
0.006,-1.2915363,1.4560935,3.6927676,-0.6171775,1.9519856,-0.31073284
0.008,-1.2566228,1.4510064,3.6660483,-0.6101784,1.9708954,-0.31154472
0.01,-1.2179313,1.4463108,3.636827,-0.602622,1.991174,-0.31278655
0.012,-1.174993,1.4421241,3.6048536,-0.5945525,2.012609,-0.31457627
0.014,-1.1274582,1.4384544,3.5698497,-0.58605355,2.034893,-0.3170616
0.016,-1.0748119,1.4353449,3.5313318,-0.5772486,2.0576458,-0.320387
0.018,-1.0167854,1.4327463,3.488898,-0.5682894,2.0804477,-0.3247036
0.02,-0.9530136,1.430685,3.4425032,-0.55935293,2.1028848,-0.33013073
0.022,-0.8832671,1.4293838,3.392154,-0.55062884,2.124598,-0.33676893
0.024,-0.8075801,1.4290266,3.3377912,-0.5422928,2.1453035,-0.34468424
0.026,-0.7258222,1.429693,3.2793257,-0.5344908,2.164829,-0.35391128
0.028,-0.6379329,1.4312712,3.216529,-0.5270552,2.1837325,-0.36449185
0.03,-0.54401267,1.4339657,3.1494062,-0.5204538,2.2012415,-0.37637043
0.032,-0.44424552,1.4380598,3.0784829,-0.51465917,2.2175288,-0.3893536
0.034,-0.3388762,1.4437786,3.0042398,-0.50955206,2.2328653,-0.40335676
0.036,-0.22824228,1.4514022,2.927026,-0.50507915,2.2475383,-0.41828424
0.038,-0.11280066,1.4611653,2.8473682,-0.50116813,2.261701,-0.43395638
0.04,0.0069242716,1.4730225,2.7658837,-0.49767774,2.275517,-0.45019072
0.042,0.13026637,1.4870473,2.6834502,-0.49447536,2.2891169,-0.46680725
0.044,0.2566005,1.5031548,2.6010106,-0.4914369,2.3025136,-0.48358345
0.046,0.3849616,1.5212631,2.5195253,-0.48839164,2.315631,-0.5002877
0.048,0.51454043,1.5412954,2.4398878,-0.48515254,2.3283691,-0.5167351
0.05,0.64431024,1.5630511,2.3633957,-0.48155367,2.3405862,-0.53274673
0.052,0.773247,1.5863951,2.2914052,-0.47740948,2.35216,-0.5481294
0.054,0.9005219,1.6112002,2.2253268,-0.47259086,2.363034,-0.56273013
0.056,1.0271578,1.6375321,2.1649714,-0.46697873,2.3732095,-0.57643044
0.058,1.1505271,1.6643771,2.113305,-0.46049374,2.3827522,-0.58911943
0.06,1.2691523,1.6923074,2.0718906,-0.45310825,2.3917565,-0.6006951
0.062,1.3824879,1.7208736,2.0409544,-0.44483316,2.400338,-0.6110717
0.064,1.4905425,1.7498307,2.0210505,-0.43571544,2.4086692,-0.6201937
0.066,1.5924143,1.7788146,2.0139759,-0.4258167,2.4169137,-0.6280085
0.068,1.6877403,1.807076,2.0207543,-0.4152205,2.4251904,-0.63447833
0.07,1.7763857,1.8344324,2.0417855,-0.40402943,2.433589,-0.6395679
0.072,1.858122,1.8608648,2.0774264,-0.3923359,2.4421377,-0.64324653
0.074,1.9329371,1.886194,2.1272573,-0.38022166,2.4508224,-0.6455024
0.076,2.0010443,1.9100477,2.190749,-0.3677225,2.4596226,-0.64632666
0.078,2.0632381,1.9317545,2.2672136,-0.3548481,2.468525,-0.6457193
0.08,2.1186757,1.9522794,2.357031,-0.34157252,2.4775233,-0.6436823
0.082,2.1652536,1.9717975,2.4621854,-0.3278647,2.4866204,-0.6402342
0.084,2.2046134,1.9909117,2.5806572,-0.31368655,2.4958675,-0.6354474
0.086,2.2387457,2.0093727,2.709291,-0.29901272,2.5053759,-0.6294196
0.088,2.267069,2.0266058,2.8450375,-0.2838393,2.5152903,-0.62229025
0.09,2.289352,2.0424967,2.9868731,-0.26819694,2.5257764,-0.61421275
0.092,2.3063414,2.0572464,3.133145,-0.25218678,2.537009,-0.60537076
0.094,2.3177445,2.0716803,3.28228,-0.2359283,2.549132,-0.59593624
0.096,2.3230565,2.0864973,3.4324493,-0.21957731,2.5622668,-0.58605695
0.098,2.3211632,2.1022043,3.5827718,-0.20327246,2.576546,-0.5759026
0.1,2.311775,2.1190946,3.7317188,-0.18715167,2.592126,-0.5656601
0.102,2.2953563,2.1368065,3.876328,-0.1713525,2.6091313,-0.5555615
0.104,2.272215,2.155179,4.0123253,-0.15599442,2.6276662,-0.5458822
0.106,2.242798,2.1741438,4.136419,-0.14116514,2.6477985,-0.53687245
0.108,2.2072182,2.19421,4.2469735,-0.12692297,2.6695342,-0.52874744
0.11,2.165188,2.2162366,4.3431454,-0.11328912,2.6928654,-0.5217501
0.112,2.1164875,2.2409096,4.424082,-0.10030615,2.717918,-0.5161352
0.114,2.0613136,2.2685268,4.4885583,-0.087871075,2.7447355,-0.51196015
0.116,1.9992577,2.2999768,4.5337358,-0.07586634,2.7730727,-0.50927234
0.118,1.9291718,2.3363585,4.5583205,-0.06420171,2.8027167,-0.5081247
0.12,1.8510627,2.3770597,4.563262,-0.052835107,2.8333828,-0.5083345
0.122,1.7649778,2.4210157,4.5497184,-0.041689515,2.8646255,-0.5096169
0.124,1.6714456,2.4675462,4.519287,-0.030602336,2.8958669,-0.51178
0.126,1.5710382,2.5167747,4.474032,-0.019383192,2.9265065,-0.51470536
0.128,1.4645861,2.5695472,4.4145975,-0.00784421,2.9558904,-0.5183381
0.13,1.3539057,2.625749,4.340043,0.0041968822,2.983428,-0.52267486
0.132,1.2410704,2.684522,4.2492123,0.016973615,3.0085864,-0.5277911
0.134,1.128031,2.744809,4.1429844,0.030720234,3.0308852,-0.5338571
0.136,1.0159354,2.8061302,4.024437,0.045618534,3.0499,-0.5410764
0.138,0.90588236,2.8683949,3.897851,0.06174946,3.0653443,-0.54962605
0.14,0.7992072,2.930871,3.7668688,0.07913506,3.0771465,-0.5597413
0.142,0.69750595,2.9925203,3.6331878,0.09775233,3.0854626,-0.5716819
0.144,0.60221565,3.0522604,3.4978218,0.1175679,3.0905771,-0.5857107
0.146,0.5149642,3.1089594,3.3621888,0.13860667,3.0928593,-0.6019627
0.148,0.43729138,3.1616864,3.2282372,0.16086519,3.0924578,-0.6204669
0.15,0.37084675,3.2098222,3.0981183,0.18422747,3.0893073,-0.6411501
0.152,0.31693363,3.2524633,2.9736474,0.2084378,3.08323,-0.6637683
0.154,0.27626812,3.288946,2.8572135,0.2331847,3.073841,-0.6879143
0.156,0.24976027,3.3183537,2.7511764,0.2581789,3.0606792,-0.7130913
0.158,0.23909748,3.339732,2.6578002,0.28310746,3.0432544,-0.7388795
0.16,0.24425828,3.3534179,2.5775108,0.3075019,3.0210128,-0.76508135
0.162,0.2648363,3.3593082,2.511226,0.33072782,2.9935176,-0.7917118
0.164,0.3000902,3.357263,2.4606314,0.3520543,2.9606643,-0.8188594
0.166,0.34987593,3.346981,2.428413,0.37094182,2.9227686,-0.8466321
0.168,0.41366792,3.3286936,2.4163222,0.38702583,2.8809023,-0.87525135
0.17,0.49058127,3.3027594,2.424498,0.40040982,2.836902,-0.9047666
0.172,0.57999825,3.269631,2.4517536,0.41164678,2.7927566,-0.9349849
0.174,0.6811359,3.2296188,2.4961429,0.42157787,2.750463,-0.9656016
0.176,0.7930163,3.1832771,2.5563476,0.4311236,2.7117622,-0.99595493
0.178,0.9143758,3.1314812,2.6316943,0.4410951,2.6778507,-1.0250883
0.18,1.0437675,3.0747824,2.722745,0.45210862,2.6492686,-1.0520207
0.182,1.1796021,3.0138586,2.829317,0.46449023,2.6259685,-1.0760243
0.184,1.3203871,2.9495108,2.9498086,0.47823423,2.607356,-1.0966871
0.186,1.4642581,2.8827355,3.0819979,0.4929878,2.5925927,-1.1139185
0.188,1.6105199,2.8141265,3.223521,0.5082325,2.5807557,-1.1279017
0.19,1.7601097,2.7428765,3.3737993,0.52343667,2.5709558,-1.1391575
0.192,1.9115851,2.670891,3.5298762,0.5380707,2.5622678,-1.148416
0.194,2.0601661,2.5993237,3.6907754,0.5516317,2.5538092,-1.1563165
0.196,2.2046785,2.5291128,3.855205,0.5637923,2.544814,-1.1633601
0.198,2.345205,2.4616861,4.0215054,0.5744387,2.5346894,-1.1699092
0.2,2.4803007,2.397317,4.1877794,0.5835758,2.5228605,-1.1762176
0.202,2.6086948,2.3357518,4.3541594,0.59129715,2.5088563,-1.1823719
0.204,2.7304053,2.2766728,4.519363,0.5977683,2.4921765,-1.1882937
0.206,2.8454034,2.2204394,4.681057,0.6031234,2.4723802,-1.193856
0.208,2.9541707,2.1672144,4.836174,0.6074237,2.4494622,-1.1989906
0.21,3.0562775,2.1173782,4.9832635,0.61066204,2.4239888,-1.2036755
0.212,3.1506903,2.071597,5.1236596,0.6129372,2.3971977,-1.2078695
0.214,3.237306,2.0302596,5.2592573,0.6146369,2.3708959,-1.2115128
0.216,3.3164754,1.9934661,5.389718,0.6163463,2.347076,-1.2145295
0.218,3.389012,1.9607391,5.513003,0.6186465,2.3274202,-1.2168821
0.22,3.456142,1.93134,5.6269493,0.6218752,2.3130023,-1.2185973
0.222,3.518837,1.904769,5.7300043,0.62612927,2.3043377,-1.2197726
0.224,3.5778034,1.881072,5.821609,0.6313667,2.3011107,-1.2204341
0.226,3.6346264,1.8598235,5.902356,0.63752186,2.3024502,-1.220496
0.228,3.6908903,1.8404186,5.971491,0.6444813,2.307243,-1.2198915
0.23,3.7470584,1.8240807,6.0269327,0.6520033,2.3142993,-1.2186846
0.232,3.8033423,1.8118625,6.067481,0.6598109,2.3225858,-1.2168691
0.234,3.8596234,1.8040812,6.092459,0.667737,2.3314095,-1.2143975
0.236,3.9158254,1.8000417,6.1012664,0.67572767,2.3403668,-1.2112372
0.238,3.9719374,1.7984147,6.0948954,0.683763,2.3492985,-1.2074289
0.24,4.027219,1.7990944,6.0751934,0.691814,2.358152,-1.2031145
0.242,4.0809193,1.8024292,6.04369,0.699795,2.3669322,-1.1985017
0.244,4.1327677,1.8087716,5.999816,0.70763385,2.375629,-1.1938118
0.246,4.1829624,1.8177998,5.9415064,0.7153171,2.3841634,-1.1892987
0.248,4.23139,1.82898,5.867166,0.7228541,2.392257,-1.1852816
0.25,4.2773886,1.8421707,5.776723,0.73015827,2.399468,-1.1820561
0.252,4.3200445,1.8573861,5.6720786,0.73706174,2.4052951,-1.1797752
0.254,4.3586802,1.8744903,5.5555334,0.7434362,2.4093904,-1.1784334
0.256,4.392338,1.8934195,5.428974,0.74926,2.411644,-1.177912
0.258,4.4202847,1.9138737,5.2935104,0.7545805,2.4121702,-1.1780314
0.26,4.441598,1.9355934,5.1500354,0.7594789,2.4111905,-1.17856
0.262,4.456089,1.9582715,4.999733,0.764023,2.4089444,-1.1792474
0.264,4.463772,1.9815006,4.8432555,0.768287,2.4055932,-1.1799
0.266,4.46452,2.0050564,4.681802,0.77233255,2.4012165,-1.1804314
0.268,4.4573703,2.028712,4.5168166,0.7761558,2.3958435,-1.1808877
0.27,4.4434834,2.0512364,4.351097,0.7797453,2.389438,-1.1814599
0.272,4.4237638,2.0722795,4.18626,0.7831084,2.3819199,-1.1824113
0.274,4.3990073,2.0916662,4.0231843,0.78627336,2.3730927,-1.1840067
0.276,4.369583,2.1093066,3.8620791,0.7891951,2.3624845,-1.1864662
0.278,4.3362656,2.1248379,3.7042513,0.7916639,2.3496706,-1.1900901
0.28,4.2998943,2.1379683,3.5525403,0.79336655,2.334165,-1.1953108
0.282,4.261146,2.1485012,3.409915,0.7940154,2.3154364,-1.2024825
0.284,4.2208376,2.156357,3.2790627,0.79340655,2.2930055,-1.2118106
0.286,4.1802626,2.1612515,3.1610107,0.79133314,2.2664292,-1.2234702
0.288,4.1407366,2.1627815,3.056095,0.7875748,2.2353752,-1.2375345
0.29,4.103297,2.160803,2.9638274,0.7819613,2.1997924,-1.2539375
0.292,4.0690413,2.1551704,2.8846307,0.77447945,2.1599047,-1.2725158
0.294,4.038931,2.1458173,2.8199406,0.76529175,2.1161606,-1.2929866
0.296,4.0140915,2.1323578,2.7710223,0.75469893,2.0691257,-1.3149501
0.298,3.994083,2.115004,2.738918,0.7430698,2.0194473,-1.3378808
0.3,3.9791403,2.093853,2.7218742,0.7308346,1.9678506,-1.3611937
0.302,3.971787,2.067677,2.7197363,0.71845853,1.9151282,-1.3843114
0.304,3.9734285,2.0361156,2.733653,0.70641816,1.8621007,-1.4066982
0.306,3.9823651,1.9998038,2.7641816,0.69517326,1.8095871,-1.4279081
0.308,3.9987912,1.9588706,2.810638,0.6851114,1.758352,-1.4475725
0.31,4.02355,1.9137485,2.8705273,0.6765231,1.709087,-1.4653844
0.312,4.0561543,1.8649514,2.940865,0.6695887,1.6623414,-1.4811065
0.314,4.0956106,1.8127799,3.0205107,0.6643678,1.6185254,-1.4945683
0.316,4.1411796,1.7575198,3.1092882,0.6608006,1.5778776,-1.5056657
0.318,4.1918755,1.6997362,3.2065969,0.65872854,1.5404804,-1.5143597
0.32,4.2466717,1.639932,3.3107305,0.6578998,1.5062475,-1.5206844
0.322,4.3047233,1.5786192,3.4186218,0.65800476,1.4749266,-1.5247436
0.324,4.3647056,1.5161084,3.5275846,0.6586924,1.4461194,-1.5267091
0.326,4.4249406,1.4529858,3.635933,0.65957075,1.4192967,-1.5267999
0.328,4.4839697,1.3899369,3.7425017,0.66024566,1.3938725,-1.5252407
0.33,4.5404215,1.3278205,3.8459563,0.66037333,1.3693126,-1.5222348
0.332,4.5927014,1.2676561,3.9451442,0.659678,1.3451558,-1.5179985
0.334,4.639488,1.2102544,4.038396,0.657932,1.3210735,-1.5127113
0.336,4.6792836,1.1562238,4.124152,0.65502614,1.2968805,-1.5065559
0.338,4.7106647,1.1062884,4.2008677,0.65092456,1.272544,-1.4997349
0.34,4.7322674,1.0607767,4.2672606,0.6457022,1.2481523,-1.4924715
0.342,4.7429,1.0201364,4.322365,0.6394898,1.2239225,-1.4849762
0.344,4.741514,0.98493195,4.365363,0.6325023,1.200152,-1.4774554
0.346,4.727444,0.9555793,4.395873,0.62501496,1.1771698,-1.4701229
0.348,4.700059,0.93273926,4.4133143,0.6173253,1.155323,-1.4632056
0.35,4.658888,0.9165969,4.417235,0.6097436,1.13498,-1.4568954
0.352,4.603899,0.9073255,4.407332,0.6025675,1.1164649,-1.4513389
0.354,4.535441,0.90492225,4.3832808,0.5960647,1.1000443,-1.4466147
0.356,4.454097,0.90930176,4.3452106,0.59047496,1.085914,-1.4427335
0.358,4.36057,0.9203415,4.2930326,0.58600545,1.0741745,-1.4396443
0.36,4.256071,0.93788767,4.226927,0.58282685,1.0648012,-1.437266
0.362,4.141772,0.96166754,4.14756,0.5810697,1.0576669,-1.4354895
0.364,4.018716,0.99139476,4.0557184,0.5808106,1.0525067,-1.4342
0.366,3.8884592,1.0264282,3.9521184,0.58211225,1.0489695,-1.4332398
0.368,3.7523882,1.0662825,3.8376708,0.58501977,1.0466039,-1.43243
0.37,3.6124384,1.110197,3.7135792,0.58955514,1.0449283,-1.4315541
0.372,3.4702249,1.1575501,3.5811868,0.59572524,1.0434623,-1.4303877
0.374,3.327654,1.2076433,3.4419222,0.6035431,1.0417907,-1.4287263
0.376,3.1866996,1.2597097,3.29698,0.6130257,1.039611,-1.426386
0.378,3.0490167,1.3128201,3.1475964,0.62417924,1.0367215,-1.4232188
0.38,2.9161155,1.3661586,2.9950113,0.63701296,1.033072,-1.4191152
0.382,2.7895172,1.4188393,2.8407593,0.65151405,1.0286951,-1.4140068
0.384,2.6705866,1.470011,2.6861944,0.6676185,1.0236585,-1.4078629
0.386,2.5602596,1.5190198,2.5328407,0.6852368,1.0180899,-1.4006635
0.388,2.4595242,1.5650617,2.3820093,0.7042346,1.0120994,-1.3924398
0.39,2.3690896,1.6072935,2.2346578,0.72441024,1.005785,-1.3832562
0.392,2.2893047,1.6449485,2.0916839,0.745532,0.99921775,-1.373204
0.394,2.2206223,1.6773272,1.9538845,0.767321,0.992434,-1.3624119
0.396,2.1630406,1.7038302,1.8221085,0.7894854,0.9853936,-1.3510259
0.398,2.1166441,1.7239406,1.6970212,0.8117498,0.97802424,-1.3391943
0.4,2.0811756,1.7374308,1.5791764,0.8338542,0.97024,-1.327065
0.402,2.056331,1.7439775,1.469253,0.85557103,0.96191704,-1.3147945
0.404,2.0414581,1.74333,1.3678582,0.87669677,0.9529266,-1.3025523
0.406,2.0360558,1.7353635,1.2754315,0.8970631,0.9431321,-1.2905198
0.408,2.0397255,1.7200506,1.191886,0.91655344,0.9324126,-1.2788672
0.41,2.0519001,1.6973433,1.1171165,0.93509495,0.92064786,-1.2677326
0.412,2.0721004,1.6674759,1.0508254,0.95265704,0.90775543,-1.2572324
0.414,2.0997362,1.6306763,0.9927999,0.96924996,0.89367163,-1.2474501
0.416,2.1345189,1.5873904,0.9429564,0.9849219,0.8783896,-1.2384804
0.418,2.1760824,1.5379207,0.9011357,0.9997627,0.8619548,-1.2303731
0.42,2.2239218,1.4828665,0.8671242,1.0138795,0.8444445,-1.2231705
0.422,2.2777748,1.4229409,0.8404875,1.0273981,0.82594955,-1.2168835
0.424,2.3376243,1.3585734,0.8209566,1.0404439,0.8065407,-1.2115097
0.426,2.4030514,1.2904987,0.80811274,1.0531199,0.78627217,-1.207028
0.428,2.4738536,1.2196047,0.8014635,1.0654864,0.765151,-1.2033918
0.43,2.5501087,1.1466835,0.80025166,1.0775853,0.74313116,-1.2005475
0.432,2.631426,1.0726054,0.80386496,1.0894037,0.7201526,-1.1984262
0.434,2.717595,0.99819934,0.8117117,1.1009047,0.696123,-1.1969529
0.436,2.808476,0.9243123,0.8232455,1.1120441,0.67097867,-1.1960604
0.438,2.9036012,0.85179865,0.8378961,1.1227704,0.64468944,-1.1956615
0.44,3.0025496,0.78142256,0.85541993,1.1330322,0.6172982,-1.1956657
0.442,3.1048555,0.7139698,0.8753717,1.1428183,0.58894956,-1.1959488
0.444,3.2097018,0.65030855,0.897658,1.1521397,0.55988884,-1.1963606
0.446,3.3164203,0.5913755,0.92212677,1.1610494,0.53047186,-1.196757
0.448,3.4243171,0.5378888,0.9485463,1.1696368,0.5011567,-1.1969721
0.45,3.5327077,0.4905765,0.9765567,1.1780448,0.47247863,-1.1968523
0.452,3.6404495,0.4499181,1.0058124,1.1864274,0.44501454,-1.1962384
0.454,3.7465396,0.4161889,1.0361507,1.1949629,0.41931462,-1.1949329
0.456,3.849616,0.3898669,1.0676086,1.2038515,0.39587882,-1.1927419
0.458,3.948742,0.37116104,1.1003203,1.2132858,0.37508726,-1.1894723
0.46,4.0428348,0.36034292,1.1345683,1.2234125,0.35717413,-1.1849325
0.462,4.1309924,0.35736883,1.1702899,1.2343549,0.34221223,-1.178959
0.464,4.212179,0.3618968,1.2074802,1.2461777,0.3301189,-1.1714326
0.466,4.2854495,0.3737619,1.2461835,1.2588995,0.32065642,-1.1622735
0.468,4.3500237,0.3925606,1.2866676,1.2724899,0.31348306,-1.1514664
0.47,4.405159,0.41781437,1.3290861,1.2868645,0.30819008,-1.1390551
0.472,4.4503503,0.4490807,1.3731421,1.3019048,0.30432016,-1.1251788
0.474,4.485362,0.48566735,1.4185693,1.3174602,0.30139706,-1.1100687
0.476,4.5099716,0.52703506,1.4650598,1.3333482,0.2989621,-1.0940212
0.478,4.524131,0.57252365,1.5123951,1.3493825,0.29657933,-1.077387
0.48,4.5279794,0.6215326,1.5604708,1.3653643,0.29383698,-1.0605532
0.482,4.5217104,0.6735426,1.6088432,1.3810935,0.29037702,-1.0439464
0.484,4.5059004,0.72778726,1.6574595,1.3964006,0.28592098,-1.0279595
0.486,4.4812174,0.78358793,1.7060572,1.4111723,0.2802692,-1.0129553
0.488,4.448613,0.840446,1.7542613,1.4253381,0.2733062,-0.9992475
0.49,4.4092965,0.89774096,1.8014607,1.438878,0.26502034,-0.98708344
0.492,4.364306,0.95498246,1.8470614,1.4518456,0.2555067,-0.9766581
0.494,4.3147726,1.0117413,1.8906307,1.4643366,0.24492112,-0.96808505
0.496,4.2621007,1.0678048,1.9314741,1.4764874,0.2334541,-0.9614196
0.498,4.207561,1.1228292,1.9690193,1.4884802,0.22132559,-0.9566693
0.5,4.152773,1.1767228,2.002731,1.5005182,0.20874305,-0.95379573
0.502,4.099182,1.2293155,2.0319657,1.51281,0.19590752,-0.95276296
0.504,4.047997,1.2805978,2.0560608,1.5255438,0.18300283,-0.9535281
0.506,4.0007057,1.3304859,2.0743399,1.5389103,0.17019568,-0.9560412
0.508,3.9581242,1.378925,2.0862424,1.5531038,0.15765695,-0.9602531
0.51,3.9218297,1.4259307,2.0913148,1.5682933,0.14553209,-0.9661075
0.512,3.8926132,1.4717504,2.0891526,1.5846411,0.13398889,-0.97356
0.514,3.8717601,1.5164022,2.07937,1.6022704,0.12315934,-0.98257214
0.516,3.8597214,1.5602221,2.0618706,1.6212462,0.11312536,-0.9931018
0.518,3.8572097,1.603475,2.0367517,1.6415808,0.1038767,-1.00512
0.52,3.8646064,1.6463388,2.0039315,1.6632175,0.095282815,-1.0185918
0.522,3.88224,1.6891046,1.9635056,1.6860446,0.08710143,-1.0334523
0.524,3.9105217,1.7318721,1.915592,1.7099017,0.07897587,-1.0496323
0.526,3.9492006,1.77487,1.8603259,1.7345909,0.070500135,-1.0670443
0.528,3.9980795,1.8185196,1.7981762,1.7599055,0.06125419,-1.0855522
0.53,4.0568266,1.8630464,1.7296737,1.7856541,0.05084288,-1.1049953
0.532,4.125124,1.9085637,1.6553761,1.8116688,0.038961604,-1.1251646
0.534,4.202578,1.9553839,1.5759583,1.8378382,0.025413081,-1.1458454
0.536,4.2885113,2.0036225,1.4921539,1.8641007,0.010144055,-1.1667908
0.538,4.382265,2.053388,1.4046205,1.8903904,-0.0067991912,-1.1877791
0.54,4.4827657,2.105099,1.314204,1.9166881,-0.02526337,-1.2085946
0.542,4.589152,2.1587703,1.2217015,1.9430009,-0.04501687,-1.2290386
0.544,4.7006373,2.214521,1.1277182,1.9693695,-0.065808475,-1.2489401
0.546,4.8163404,2.2723634,1.0329143,1.9958408,-0.087388486,-1.2681534
0.548,4.9353037,2.332356,0.93774354,2.0224729,-0.10951646,-1.2865871
0.55,5.056558,2.394589,0.8425846,2.0493283,-0.13198414,-1.3041936
0.552,5.1793113,2.459008,0.7479764,2.0764732,-0.15467146,-1.3209734
0.554,5.302875,2.5254478,0.65443814,2.1039674,-0.17749646,-1.336946
0.556,5.4265466,2.5935988,0.56252956,2.1318562,-0.20045409,-1.3521603
0.558,5.549791,2.6632044,0.47266653,2.1601775,-0.22360557,-1.3667066
0.56,5.672072,2.7340505,0.3851344,2.1889613,-0.24705762,-1.3807013
0.562,5.793446,2.8059247,0.29986835,2.2182062,-0.27094862,-1.3942924
0.564,5.913699,2.8784094,0.21671325,2.2479076,-0.29540697,-1.4076207
0.566,6.033019,2.9508433,0.13547128,2.2780728,-0.32056403,-1.4208019
0.568,6.151259,3.0229223,0.056203365,2.308725,-0.34649056,-1.4339591
0.57,6.2687683,3.094205,-0.021483898,2.3399208,-0.37320685,-1.4471791
0.572,6.385794,3.164395,-0.0980089,2.371752,-0.40065193,-1.4605212
0.574,6.5031605,3.23308,-0.17376891,2.4043412,-0.4286918,-1.4740269
0.576,6.621557,3.2998822,-0.24901074,2.437839,-0.4571455,-1.4876982
0.578,6.7397423,3.3655236,-0.3247855,2.4724166,-0.48579842,-1.5015005
0.58,6.858115,3.4299798,-0.40247464,2.5082624,-0.51443404,-1.5153774
0.582,6.9776354,3.4926138,-0.48321283,2.5455685,-0.54288435,-1.5292641
0.584,7.099659,3.5522175,-0.5668701,2.5844846,-0.57107145,-1.5430787
0.586,7.2241907,3.6089003,-0.653311,2.6251466,-0.5990275,-1.5567569
0.588,7.352017,3.6632786,-0.74310213,2.6676342,-0.6269189,-1.570201
0.59,7.4831457,3.7161932,-0.8371973,2.7119918,-0.6550804,-1.5833449
0.592,7.6178684,3.768327,-0.93718106,2.7582438,-0.68396556,-1.59613
0.594,7.755993,3.820632,-1.0443658,2.8063598,-0.71417165,-1.6085112
0.596,7.89779,3.8736122,-1.1586545,2.856288,-0.74638367,-1.6204307
0.598,8.043035,3.9279397,-1.2797679,2.90799,-0.78127515,-1.631833
0.6,8.191,3.9845297,-1.4076078,2.961423,-0.81951123,-1.642699
0.602,8.34199,4.0437627,-1.5428686,3.0165746,-0.8616867,-1.653046
0.604,8.496387,4.105584,-1.6864108,3.073425,-0.9082755,-1.6628929
0.606,8.654229,4.170213,-1.8379083,3.1319616,-0.95963407,-1.6722858
0.608,8.815523,4.238614,-1.996342,3.1921833,-1.0160685,-1.6812873
0.61,8.981305,4.3110237,-2.1595802,3.2540975,-1.0778029,-1.6899575
0.612,9.152669,4.3884664,-2.3208427,3.3176813,-1.1449467,-1.6984178
0.614,9.319386,4.4768763,-2.4814904,3.3828104,-1.2176473,-1.7067716
0.616,9.483595,4.578249,-2.6451979,3.449328,-1.2960683,-1.7150558
0.618,9.64494,4.690543,-2.8102791,3.517028,-1.3804919,-1.7233219
0.62,9.802383,4.8115396,-2.9744012,3.585667,-1.471276,-1.7316626
0.622,9.960907,4.9381466,-3.136037,3.6549504,-1.5688785,-1.7401818
0.624,10.120174,5.0715265,-3.2966635,3.7245045,-1.6738904,-1.7489702
0.626,10.276085,5.213813,-3.4450698,3.7939196,-1.7868962,-1.7581073
0.628,10.433428,5.361576,-3.5645423,3.8628113,-1.9083894,-1.7676735
0.63,10.594241,5.515743,-3.6622567,3.93081,-2.0387943,-1.777787
0.632,10.754236,5.6807947,-3.7495096,3.9975996,-2.1783695,-1.7885947
0.634,10.91091,5.857654,-3.8261645,4.0628853,-2.3272076,-1.8002368
0.636,11.066895,6.0441437,-3.8869736,4.126408,-2.485242,-1.8128176
0.638,11.224085,6.2382326,-3.9239974,4.1879945,-2.6521568,-1.8264121
0.64,11.382982,6.4392886,-3.9308357,4.247471,-2.827424,-1.8411057
0.642,11.540177,6.6492,-3.9050133,4.304737,-3.0100896,-1.8570292
0.644,11.6978855,6.866851,-3.8453865,4.359874,-3.1986756,-1.8742905
0.646,11.858686,7.08895,-3.7540555,4.413259,-3.3915493,-1.8929348
0.648,12.023269,7.312935,-3.634502,4.4653797,-3.5868113,-1.9131002
0.65,12.193466,7.5366077,-3.4882903,4.516616,-3.782112,-1.9348086
0.652,12.371295,7.758535,-3.316239,4.5675387,-3.974859,-1.9576781
0.654,12.557888,7.977515,-3.1181622,4.6190295,-4.162522,-1.9812334
0.656,12.755268,8.191942,-2.895843,4.6719384,-4.3430605,-2.0050979
0.658,12.965542,8.400072,-2.6534147,4.7276683,-4.513093,-2.02838
0.66,13.19024,8.600334,-2.394963,4.7881804,-4.6684527,-2.0498157
0.662,13.430664,8.7914505,-2.1246417,4.855379,-4.806671,-2.068442
0.664,13.688062,8.972191,-1.8467841,4.931198,-4.9257073,-2.0832207
0.666,13.962497,9.142424,-1.5656744,5.0171356,-5.023478,-2.0925777
0.668,14.253348,9.30166,-1.2838782,5.1140947,-5.0983725,-2.0945234
0.67,14.560203,9.448944,-1.0036615,5.222698,-5.148832,-2.0867915
0.672,14.881272,9.583798,-0.7265918,5.3432503,-5.17359,-2.06735
0.674,15.213553,9.706316,-0.45389128,5.4754605,-5.17193,-2.0349402
0.676,15.553188,9.817041,-0.18679869,5.6183467,-5.1435313,-1.9891924
0.678,15.89539,9.91628,0.07386136,5.7700853,-5.0888615,-1.9307286
0.68,16.234327,10.004786,0.32760835,5.928215,-5.0093274,-1.8611251
0.682,16.563377,10.083669,0.5743693,6.0897884,-4.907142,-1.7829223
0.684,16.87483,10.154686,0.81451726,6.2515726,-4.7851124,-1.6995256
0.686,17.16086,10.219668,1.0486617,6.410324,-4.6463943,-1.614816
0.688,17.415314,10.279966,1.2780814,6.5630283,-4.494298,-1.5327113
0.69,17.630032,10.3381195,1.5040889,6.707197,-4.3320756,-1.4567161
0.692,17.796785,10.397347,1.7270491,6.841086,-4.162586,-1.3895245
0.694,17.908043,10.461319,1.9459907,6.963868,-3.988129,-1.3327633
0.696,17.958426,10.532269,2.1602826,7.0756054,-3.8105752,-1.287017
0.698,17.943123,10.612408,2.369875,7.1770124,-3.6314096,-1.2519565
0.7,17.858784,10.704272,2.5748448,7.2693286,-3.4513984,-1.2264636
0.702,17.703306,10.810881,2.7757907,7.354237,-3.2712235,-1.2087686
0.704,17.47613,10.935133,2.9722166,7.433662,-3.0919137,-1.1969585
0.706,17.177845,11.080096,3.1625714,7.5091896,-2.9148402,-1.1893324
0.708,16.811123,11.248348,3.3460002,7.5818977,-2.7416978,-1.1841717
0.71,16.379892,11.442019,3.5221667,7.652544,-2.5745025,-1.179907
0.712,15.888712,11.662998,3.691625,7.7210836,-2.4169512,-1.1757578
0.714,15.343344,11.912979,3.855154,7.786998,-2.2728963,-1.1713529
0.716,14.750999,12.192311,4.0127873,7.8499193,-2.1444042,-1.1663117
0.718,14.119779,12.500438,4.164581,7.9093904,-2.0337687,-1.1608813
0.72,13.457089,12.83648,4.3105593,7.9651194,-1.943428,-1.156096
0.722,12.771515,13.198357,4.448343,8.016921,-1.8750782,-1.1533827
0.724,12.080612,13.579485,4.5845385,8.064268,-1.829915,-1.154287
0.726,11.387902,13.978434,4.725833,8.106652,-1.8082217,-1.1600087
0.728,10.700617,14.396024,4.872485,8.143874,-1.8093829,-1.1713237
0.73,10.025935,14.831124,5.0246406,8.176061,-1.8322179,-1.188889
0.732,9.3666,15.281658,5.183695,8.203644,-1.8749194,-1.2132922
0.734,8.730554,15.740877,5.353306,8.2270775,-1.9353881,-1.2449768
0.736,8.127879,16.20189,5.52606,8.246773,-2.011526,-1.2840545
0.738,7.5587792,16.663229,5.6945167,8.263155,-2.1013966,-1.3302853
0.74,7.0272045,17.118792,5.87471,8.276571,-2.2032619,-1.3832381
0.742,6.5418644,17.560719,6.079097,8.287363,-2.315448,-1.4424217
0.744,6.106638,17.9863,6.304662,8.295798,-2.4363432,-1.5073824
0.746,5.72031,18.39548,6.5441685,8.302029,-2.564488,-1.5777178
0.748,5.3824234,18.787464,6.790126,8.306161,-2.6985135,-1.6531079
0.75,5.0937767,19.159962,7.0389423,8.308253,-2.8370538,-1.7332718
0.752,4.8572865,19.509449,7.291514,8.308347,-2.9788194,-1.8180046
0.754,4.6693068,19.83611,7.5491705,8.306447,-3.1226888,-1.9072268
0.756,4.526725,20.141722,7.8148956,8.302534,-3.2675653,-2.0009165
0.758,4.428053,20.42685,8.090682,8.296575,-3.412361,-2.0990622
0.76,4.3706217,20.691526,8.374994,8.288502,-3.5560372,-2.201669
0.762,4.3516636,20.93547,8.665318,8.2782955,-3.6975937,-2.3087418
0.764,4.368638,21.15875,8.95878,8.265936,-3.8361242,-2.4203012
0.766,4.418233,21.362082,9.254742,8.251423,-3.9707766,-2.5363839
0.768,4.4968348,21.54675,9.554342,8.234695,-4.100798,-2.6569726
0.77,4.6013803,21.713951,9.857879,8.215704,-4.2255707,-2.7820032
0.772,4.728614,21.86498,10.165087,8.194376,-4.344594,-2.9113417
0.774,4.874965,22.001368,10.47549,8.170633,-4.4575005,-3.0447624
0.776,5.037499,22.12391,10.788633,8.144396,-4.56402,-3.182
0.778,5.2134943,22.234186,11.102904,8.115602,-4.663952,-3.3227184
0.78,5.399571,22.334267,11.417403,8.084187,-4.757111,-3.4665513
0.782,5.593112,22.42572,11.731484,8.050129,-4.8433447,-3.6131146
0.784,5.7922626,22.509577,12.044616,8.013461,-4.922499,-3.7619903
0.786,5.995355,22.586641,12.356668,7.9742465,-4.9944453,-3.9127297
0.788,6.2007017,22.657799,12.667408,7.932585,-5.059147,-4.0648785
0.79,6.4071684,22.723753,12.976658,7.88859,-5.1166825,-4.2179613
0.792,6.6141353,22.78482,13.284153,7.8423953,-5.167318,-4.3714957
0.794,6.8212914,22.840948,13.589493,7.794113,-5.2115583,-4.524992
0.796,7.028686,22.89199,13.891848,7.7438316,-5.2501807,-4.6779656
0.798,7.236195,22.937689,14.190653,7.691594,-5.284183,-4.8299465
0.8,7.4440613,22.977695,14.485203,7.63742,-5.314756,-4.9805174
0.802,7.652886,23.011684,14.775213,7.5812817,-5.343224,-5.129298
0.804,7.86326,23.039143,15.0601845,7.523129,-5.370881,-5.2759624
0.806,8.076057,23.059383,15.339485,7.462915,-5.398943,-5.4202514
0.808,8.2921715,23.071787,15.612324,7.40059,-5.4284277,-5.561944
0.81,8.512676,23.075436,15.878109,7.336125,-5.4600577,-5.7008696
0.812,8.738654,23.06949,16.136242,7.269494,-5.4942994,-5.836876
0.814,8.971041,23.053228,16.386333,7.200668,-5.5313687,-5.969841
0.816,9.210581,23.025995,16.628046,7.129593,-5.5712814,-6.0996523
0.818,9.457897,22.987041,16.860931,7.0561886,-5.613917,-6.2261977
0.82,9.713445,22.935747,17.08486,6.9803085,-5.6590886,-6.3493366
0.822,9.977396,22.871721,17.299767,6.9017763,-5.706537,-6.4689693
0.824,10.249931,22.794527,17.505814,6.8203726,-5.756013,-6.584952
0.826,10.530748,22.703938,17.703194,6.7358403,-5.807265,-6.6971335
0.828,10.8195305,22.599579,17.89229,6.6479087,-5.8600097,-6.8053913
0.83,11.116022,22.4815,18.073465,6.5563197,-5.913865,-6.9095893
0.832,11.419576,22.349657,18.247028,6.460825,-5.9683843,-7.009573
0.834,11.729294,22.204245,18.413376,6.361231,-6.023015,-7.1051893
0.836,12.0442095,22.045322,18.573036,6.257394,-6.0770736,-7.196293
0.838,12.363196,21.873169,18.72672,6.1492496,-6.1297174,-7.28277
0.84,12.685095,21.68801,18.875122,6.0368185,-6.179962,-7.364547
0.842,13.008234,21.490232,19.01867,5.920204,-6.226684,-7.4415874
0.844,13.331456,21.280296,19.1578,5.7995663,-6.268665,-7.513891
0.846,13.653446,21.05864,19.292736,5.6751475,-6.3046155,-7.581466
0.848,13.972942,20.825771,19.423935,5.5472574,-6.333262,-7.6443214
0.85,14.288523,20.582064,19.551615,5.4162636,-6.353323,-7.702428
0.852,14.598732,20.328094,19.676014,5.2825737,-6.3636403,-7.755712
0.854,14.902128,20.064508,19.79732,5.1466036,-6.363179,-7.8040605
0.856,15.1972885,19.791784,19.91576,5.008814,-6.351081,-7.8472767
0.858,15.483148,19.510391,20.031439,4.8696413,-6.3266997,-7.8851166
0.86,15.758348,19.220825,20.144598,4.7295012,-6.2895956,-7.9172764
0.862,16.021719,18.923704,20.25509,4.5888104,-6.239562,-7.9434223
0.864,16.272354,18.619644,20.362644,4.447952,-6.176584,-7.9632106
0.866,16.509266,18.30931,20.466774,4.307275,-6.1008677,-7.9763274
0.868,16.731873,17.993484,20.566933,4.167144,-6.012762,-7.9824924
0.87,16.939398,17.67287,20.662704,4.0279174,-5.912748,-7.9814687
0.872,17.131325,17.347929,20.753435,3.8899527,-5.801401,-7.973072
0.874,17.307232,17.01956,20.838268,3.7536306,-5.679408,-7.957209
0.876,17.46669,16.688631,20.916336,3.6193123,-5.54753,-7.933846
0.878,17.609512,16.355907,20.986761,3.4873347,-5.406602,-7.903039
0.88,17.735428,16.02214,21.048529,3.3580036,-5.2574925,-7.864886
0.882,17.844625,15.688099,21.10067,3.2315946,-5.1011434,-7.8195786
0.884,17.937109,15.354297,21.142326,3.108298,-4.9385324,-7.767387
0.886,18.013126,15.02145,21.172424,2.9882326,-4.770607,-7.7086744
0.888,18.072754,14.690045,21.190052,2.8714352,-4.5982785,-7.643869
0.89,18.116318,14.360402,21.19413,2.7578745,-4.4224453,-7.573455
0.892,18.144222,14.032965,21.183388,2.6474497,-4.2439384,-7.4979415
0.894,18.156998,13.708149,21.156532,2.5400176,-4.063544,-7.4178762
0.896,18.15506,13.386145,21.112686,2.435423,-3.8819256,-7.333788
0.898,18.13907,13.067148,21.05127,2.3335016,-3.699675,-7.246205
0.9,18.109486,12.751141,20.971975,2.2340865,-3.5172966,-7.155645
0.902,18.066494,12.438354,20.874754,2.137022,-3.3351893,-7.062588
0.904,18.010742,12.128926,20.759314,2.042185,-3.153695,-6.9674687
0.906,17.942745,11.822823,20.625618,1.9494973,-2.9730992,-6.8706913
0.908,17.863163,11.5202265,20.474037,1.8588973,-2.7936652,-6.772602
0.91,17.772415,11.22108,20.30515,1.7703552,-2.615631,-6.673512
0.912,17.671013,10.925549,20.119617,1.6838875,-2.439269,-6.5737014
0.914,17.559698,10.633576,19.918509,1.5995219,-2.2648668,-6.4733796
0.916,17.439178,10.345279,19.702852,1.5172772,-2.092787,-6.372728
0.918,17.30992,10.060585,19.474098,1.4371796,-1.9234717,-6.271895
0.92,17.172731,9.779582,19.233746,1.3592169,-1.7574389,-6.1709976
0.922,17.027905,9.502523,18.983612,1.2833202,-1.5953043,-6.070146
0.924,16.876268,9.229413,18.725513,1.2093861,-1.4377706,-5.969465
0.926,16.71857,8.960337,18.461107,1.1372762,-1.2855815,-5.8691063
0.928,16.555523,8.695387,18.192146,1.066813,-1.1394699,-5.769231
0.93,16.387915,8.43457,17.920197,0.99783564,-1.0000886,-5.6700177
0.932,16.216415,8.177917,17.646944,0.9302052,-0.86796427,-5.571656
0.934,16.041615,7.9254484,17.373648,0.8637995,-0.7434675,-5.474345
0.936,15.864176,7.677226,17.101925,0.7985204,-0.6267723,-5.378286
0.938,15.68474,7.4333467,16.833267,0.73429394,-0.51789,-5.2836556
0.94,15.503471,7.193768,16.569141,0.6710891,-0.4166829,-5.190578
0.942,15.320741,6.958729,16.310925,0.6088749,-0.32286608,-5.099174
0.944,15.136938,6.728438,16.059727,0.5476152,-0.23604974,-5.009517
0.946,14.952518,6.502863,15.816702,0.4872984,-0.15576446,-4.9216394
0.948,14.767622,6.2821965,15.5826435,0.4279063,-0.081503004,-4.835541
0.95,14.582334,6.0665536,15.358293,0.36940023,-0.01276347,-4.7512197
0.952,14.396998,5.855961,15.144247,0.31174725,0.050988376,-4.6686597
0.954,14.211438,5.650449,14.940923,0.25492114,0.11028397,-4.5878325
0.956,14.025539,5.4502325,14.748892,0.19891301,0.1656312,-4.5087233
0.958,13.839111,5.2555013,14.568528,0.14369974,0.21750718,-4.4313474
0.96,13.65203,5.0665073,14.400143,0.0892688,0.2663902,-4.3557444
0.962,13.463861,4.883392,14.244036,0.03564219,0.3127502,-4.281968
0.964,13.27416,4.706324,14.10014,-0.017139807,0.35704455,-4.2100945
0.966,13.082439,4.53565,13.968157,-0.069023475,0.39972353,-4.1401834
0.968,12.888035,4.3715568,13.847811,-0.11992794,0.441217,-4.0723205
0.97,12.690651,4.214324,13.738453,-0.16978218,0.48196077,-4.006552
0.972,12.489712,4.0639634,13.63977,-0.21851079,0.5223778,-3.9429035
0.974,12.28443,3.920683,13.5510235,-0.2660594,0.5628457,-3.8813887
0.976,12.074291,3.7846804,13.471648,-0.3123994,0.6036585,-3.8220108
0.978,11.858532,3.6560078,13.401146,-0.35755783,0.6450263,-3.7647564
0.98,11.636665,3.534677,13.338791,-0.40160412,0.6870607,-3.7096114
0.982,11.407972,3.4210405,13.28388,-0.44463047,0.7297412,-3.6565585
0.984,11.172178,3.3150525,13.23564,-0.48676986,0.7729731,-3.6055944
0.986,10.9289,3.2166743,13.193263,-0.5281683,0.816595,-3.5567324
0.988,10.6779175,3.1258202,13.155995,-0.56895196,0.860422,-3.5099936
0.99,10.41894,3.0426116,13.123102,-0.60923666,0.9042748,-3.465389
0.992,10.151659,2.9669828,13.093884,-0.6491199,0.9480531,-3.422959
0.994,9.876106,2.8991013,13.067714,-0.6886984,0.99168867,-3.3827536
0.996,9.592321,2.8387814,13.044163,-0.728037,1.0351745,-3.344811
0.998,9.300211,2.7860012,13.022722,-0.76720387,1.0785445,-3.3091776
1,8.999857,2.7408156,13.003193,-0.8062832,1.1218424,-3.2759051
1.002,8.691291,2.7031546,12.98555,-0.84535533,1.165131,-3.2450533
1.004,8.374826,2.6729264,12.969962,-0.8844737,1.2084899,-3.2166722
1.006,8.05076,2.6500883,12.956407,-0.92369735,1.2519531,-3.1908019
1.008,7.7196245,2.6345172,12.944752,-0.9630733,1.2955207,-3.167492
1.01,7.3819036,2.6262522,12.935065,-1.0026375,1.33917,-3.1467896
1.012,7.0383368,2.625111,12.927477,-1.0424229,1.3828545,-3.1287496
1.014,6.6893253,2.6310668,12.922493,-1.0824449,1.4264979,-3.1134286
1.016,6.3354273,2.6440067,12.920476,-1.1227106,1.469969,-3.1009042
1.018,5.9774323,2.6636848,12.9214325,-1.1632408,1.5131133,-3.091286
1.02,5.6161985,2.6901672,12.925574,-1.2040392,1.5557657,-3.0846837
1.022,5.252601,2.723209,12.93334,-1.2451206,1.5977428,-3.0812154
1.024,4.8872247,2.7628012,12.944989,-1.2864916,1.6388674,-3.081026
1.026,4.5207405,2.8087478,12.960842,-1.3281814,1.6789453,-3.0842514
1.028,4.1542397,2.8607621,12.98091,-1.37023,1.7177718,-3.091014
1.03,3.7883434,2.9187274,13.005085,-1.4126998,1.755123,-3.1014056
1.032,3.424299,2.982137,13.033162,-1.4556675,1.7907227,-3.1154993
1.034,3.0629368,3.0507855,13.064863,-1.4992422,1.824236,-3.1333287
1.036,2.7049675,3.124493,13.100134,-1.5435847,1.8552722,-3.1549096
1.038,2.3512983,3.2030032,13.138646,-1.5888987,1.8833848,-3.180221
1.04,2.0026972,3.2860003,13.180401,-1.6354182,1.9081196,-3.2092192
1.042,1.6600764,3.3732603,13.224969,-1.6834031,1.9290059,-3.2418535
1.044,1.3242462,3.464526,13.272095,-1.7331241,1.9456245,-3.2780867
1.046,0.9961128,3.559413,13.321043,-1.7848682,1.9575888,-3.317882
1.048,0.67640567,3.6575475,13.371009,-1.8389039,1.9646153,-3.3612309
1.05,0.36605453,3.758546,13.420994,-1.895477,1.9664937,-3.40815
1.052,0.06597328,3.861868,13.470215,-1.9547806,1.9631108,-3.4587092
1.054,-0.22313881,3.967032,13.517935,-2.0169735,1.9544632,-3.513009
1.056,-0.5005748,4.073594,13.563053,-2.0821517,1.9406471,-3.57119
1.058,-0.7652886,4.1810737,13.604704,-2.1503677,1.9218223,-3.6334217
1.06,-1.0162501,4.2887077,13.641725,-2.2216086,1.8982432,-3.6998787
1.062,-1.2526383,4.3958225,13.673236,-2.2957902,1.870245,-3.77073
1.064,-1.4735576,4.5016856,13.698214,-2.372757,1.8382081,-3.8460908
1.066,-1.6774645,4.605337,13.715359,-2.4522834,1.8025681,-3.9260476
1.068,-1.8633795,4.70579,13.723464,-2.5340712,1.7638026,-4.010595
1.07,-2.0307841,4.8020096,13.721807,-2.6177745,1.7224151,-4.0996823
1.072,-2.1784987,4.8929243,13.709245,-2.7030058,1.6789043,-4.193182
1.074,-2.3052454,4.977263,13.68501,-2.7893567,1.6337647,-4.290914
1.076,-2.4106236,5.053858,13.648382,-2.8764057,1.5874345,-4.3926454
1.078,-2.4937096,5.1216288,13.598309,-2.9637482,1.5402594,-4.498091
1.08,-2.554088,5.1794615,13.534294,-3.051021,1.4925189,-4.606955
1.082,-2.5913107,5.2263055,13.455597,-3.1378844,1.4444008,-4.718899
1.084,-2.604869,5.261201,13.361801,-3.2240262,1.3960228,-4.833603
1.086,-2.5946178,5.2833786,13.252758,-3.3091807,1.3474402,-4.9507685
1.088,-2.5604925,5.2922115,13.128379,-3.3931096,1.2986311,-5.070102
1.09,-2.5025134,5.2871504,12.988711,-3.475579,1.2495539,-5.1913214
1.092,-2.420219,5.2676277,12.833976,-3.5563564,1.2001563,-5.314178
1.094,-2.316904,5.238948,12.665049,-3.635233,1.1503922,-5.438444
1.096,-2.1846893,5.190241,12.482914,-3.7119713,1.1002834,-5.5639024
1.098,-2.0327652,5.128275,12.285155,-3.786376,1.0499138,-5.690367
1.1,-1.8589522,5.053726,12.075663,-3.8582606,0.9994556,-5.817685
1.102,-1.6618798,4.9660926,11.854744,-3.9274287,0.9491646,-5.945729
1.104,-1.4430976,4.867106,11.623496,-3.9937286,0.89938414,-6.074427
1.106,-1.2030857,4.758174,11.383427,-4.0570154,0.85057735,-6.2036815
1.108,-0.9420435,4.640283,11.136019,-4.1171417,0.8032812,-6.3334312
1.11,-0.6606094,4.5149245,10.882721,-4.173963,0.75810957,-6.4636316
1.112,-0.35935917,4.383522,10.625031,-4.227306,0.715817,-6.594247
1.114,-0.039011493,4.2477484,10.364766,-4.2769804,0.67722535,-6.7252407
1.116,0.29959798,4.1094694,10.10373,-4.322764,0.6432116,-6.8565755
1.118,0.6556108,3.9706368,9.843866,-4.364374,0.614692,-6.9882126
1.12,1.0281643,3.8333068,9.586933,-4.401502,0.5925627,-7.12004
1.122,1.4163331,3.6996517,9.334707,-4.433833,0.57757735,-7.2519307
1.124,1.8199224,3.5718005,9.088798,-4.4610815,0.57037973,-7.3840747
1.126,2.2380838,3.4509718,8.85034,-4.482809,0.57195807,-7.5162487
1.128,2.6697016,3.3406441,8.621681,-4.498719,0.5822542,-7.6480904
1.13,3.1147199,3.2425704,8.404155,-4.508411,0.6013677,-7.7797937
1.132,3.572884,3.1588035,8.199151,-4.511518,0.6293278,-7.9114223
1.134,4.044204,3.0914533,8.007829,-4.507787,0.66572595,-8.042997
1.136,4.5288725,3.0426235,7.8312345,-4.496978,0.7099359,-8.174711
1.138,5.026897,3.0143237,7.6705317,-4.4789286,0.7610252,-8.306779
1.14,5.538991,3.0084867,7.5267467,-4.4535127,0.81778073,-8.43943
1.142,6.065496,3.0271382,7.4011497,-4.4206557,0.87870765,-8.572935
1.144,6.6072474,3.0719748,7.294754,-4.380336,0.9420409,-8.707552
1.146,7.1653194,3.1441965,7.208244,-4.332592,1.0057683,-8.843494
1.148,7.7408867,3.2451084,7.1424356,-4.277542,1.0677412,-8.980921
1.15,8.335294,3.3755364,7.097556,-4.215417,1.1257098,-9.119936
1.152,8.949507,3.5364752,7.074389,-4.1465254,1.1775181,-9.260592
1.154,9.58511,3.7281609,7.073652,-4.0713415,1.2211304,-9.40291
1.156,10.243178,3.9509673,7.09597,-3.9904785,1.2546241,-9.546683
1.158,10.924805,4.2048116,7.1416187,-3.9045706,1.2764044,-9.691685
1.16,11.631061,4.489808,7.21129,-3.8143387,1.28514,-9.837724
1.162,12.362646,4.8052635,7.3051744,-3.720548,1.2797728,-9.984456
1.164,13.120808,5.1496286,7.4226494,-3.6239352,1.25946,-10.131478
1.166,13.905499,5.521136,7.563331,-3.5251956,1.2234869,-10.278375
1.168,14.714711,5.919207,7.7285275,-3.4249578,1.1712174,-10.424698
1.17,15.548746,6.344328,7.922391,-3.323748,1.1020491,-10.56999
1.172,16.412073,6.792727,8.143349,-3.222037,1.0153635,-10.713809
1.174,17.305109,7.262127,8.388332,-3.1201935,0.91052604,-10.855795
1.176,18.224604,7.7543883,8.65883,-3.018522,0.7868979,-10.995619
1.178,19.174162,8.263593,8.954833,-2.917262,0.64383864,-11.132818
1.18,20.154299,8.789316,9.275055,-2.816771,0.48037338,-11.267476
1.182,21.164406,9.329566,9.620641,-2.7172637,0.29636526,-11.399678
1.184,22.20543,9.882351,9.9911,-2.6191227,0.09111714,-11.52907
1.186,23.2804,10.443637,10.38647,-2.5226924,-0.13603735,-11.655655
1.188,24.387157,11.013898,10.806654,-2.4282954,-0.38545656,-11.779484
1.19,25.527008,11.590534,11.252521,-2.3363426,-0.6575134,-11.900459
1.192,26.701859,12.1711,11.723267,-2.247295,-0.952471,-12.018468
1.194,27.912117,12.7536545,12.218439,-2.161653,-1.2704179,-12.133226
1.196,29.157675,13.335944,12.738024,-2.079938,-1.6113245,-12.244288
1.198,30.437708,13.916094,13.282156,-2.0026612,-1.9750844,-12.351082
1.2,31.751741,14.491819,13.850866,-1.9302754,-2.361484,-12.453058
1.202,33.098183,15.061412,14.44328,-1.8631454,-2.7697566,-12.549244
1.204,34.477947,15.618582,15.058511,-1.8016434,-3.1989565,-12.638468
1.206,35.88144,16.172117,15.695995,-1.7460952,-3.6481504,-12.719784
1.208,37.315998,16.71207,16.357382,-1.6966891,-4.1155844,-12.791915
1.21,38.774597,17.23716,17.038006,-1.6536002,-4.5991344,-12.853722
1.212,40.25257,17.746733,17.737656,-1.6167974,-5.096431,-12.9039955
1.214,41.747856,18.23798,18.454546,-1.5860105,-5.604601,-12.941542
1.216,43.25627,18.709375,19.186909,-1.5608029,-6.1203675,-12.965268
1.218,44.77373,19.15974,19.933088,-1.5406551,-6.6403646,-12.9742565
1.22,46.29598,19.587458,20.691158,-1.5249071,-7.1610928,-12.967722
1.222,47.818764,19.991114,21.459148,-1.5128117,-7.6789455,-12.944942
1.224,49.33751,20.36947,22.234787,-1.5036006,-8.190494,-12.905384
1.226,50.84793,20.720844,23.015524,-1.4964819,-8.692488,-12.848693
1.228,52.346134,21.043648,23.798878,-1.4906936,-9.181911,-12.774692
1.23,53.827744,21.336517,24.582624,-1.4854379,-9.656019,-12.683306
1.232,55.28897,21.598124,25.364326,-1.4798589,-10.112409,-12.574457
1.234,56.725548,21.82756,26.141819,-1.4730382,-10.549003,-12.448098
1.236,58.13396,22.024733,26.913567,-1.4639707,-10.964061,-12.304247
1.238,59.51116,22.187557,27.677122,-1.451582,-11.356146,-12.142921
1.24,60.85315,22.31602,28.430908,-1.434742,-11.724197,-11.964184
1.242,62.15672,22.410072,29.173306,-1.4122782,-12.067439,-11.768116
1.244,63.419003,22.470182,29.90269,-1.3830538,-12.385383,-11.5547905
1.246,64.63754,22.497086,30.617912,-1.3459086,-12.67787,-11.324344
1.248,65.81045,22.492155,31.317686,-1.299716,-12.9450245,-11.076931
1.25,66.935776,22.457382,32.00109,-1.2433894,-13.187208,-10.812752
1.252,68.012344,22.395218,32.667328,-1.1758602,-13.404982,-10.531993
1.254,69.038956,22.30925,33.316544,-1.0960433,-13.599087,-10.234779
1.256,70.01528,22.204088,33.94908,-1.00284,-13.77072,-9.921538
1.258,70.94126,22.085241,34.5657,-0.89499664,-13.920995,-9.592644
1.26,71.81797,21.959148,35.167503,-0.7712331,-14.050945,-9.248261
1.262,72.64754,21.832672,35.755714,-0.63029575,-14.162194,-8.888973
1.264,73.43196,21.714478,36.33153,-0.47090328,-14.256207,-8.515396
1.266,74.17464,21.613913,36.897034,-0.29195762,-14.334491,-8.128288
1.268,74.879395,21.541624,37.454838,-0.09247619,-14.398697,-7.7286115
1.27,75.55071,21.509094,38.00789,0.12843418,-14.450494,-7.3175087
1.272,76.193375,21.528824,38.55991,0.37155434,-14.491419,-6.8961363
1.274,76.81228,21.61458,39.11524,0.63739645,-14.523075,-6.465643
1.276,77.41381,21.78031,39.678677,0.9262319,-14.54718,-6.027268
1.278,78.005135,22.039518,40.253506,1.2381078,-14.565392,-5.582059
1.28,78.591324,22.405514,40.841263,1.5728028,-14.579394,-5.1308436
1.282,79.17497,22.895706,41.44961,1.9298944,-14.590842,-4.674283
1.284,79.76313,23.52514,42.08662,2.3087277,-14.601347,-4.212888
1.286,80.365326,24.305119,42.75506,2.7084703,-14.612369,-3.7470052
1.288,80.98402,25.254284,43.458817,3.1281652,-14.625191,-3.276825
1.29,81.62533,26.385181,44.201847,3.5667992,-14.640885,-2.8023272
1.292,82.29343,27.714659,44.983414,4.0233545,-14.660263,-2.323321
1.294,82.99254,29.253563,45.80963,4.4968166,-14.6837435,-1.8395165
1.296,83.72093,31.019371,46.690155,4.9862056,-14.71136,-1.3504472
1.298,84.472694,33.032684,47.627865,5.490602,-14.742699,-0.85544574
1.3,85.24958,35.31139,48.616806,6.0091014,-14.776894,-0.3536725
1.302,86.08224,37.828606,49.655792,6.5408134,-14.81269,0.15591538
1.304,86.95657,40.61153,50.74716,7.0848775,-14.848431,0.6746676
1.306,87.87219,43.676563,51.884224,7.6403885,-14.882197,1.2042162
1.308,88.83245,47.036118,53.052094,8.206404,-14.91176,1.74648
1.31,89.84833,50.701855,54.258644,8.781922,-14.934576,2.3037019
1.312,90.91463,54.693,55.514774,9.3658085,-14.947898,2.8785012
1.314,92.028275,58.98596,56.811577,9.956816,-14.948814,3.4738142
1.316,93.1978,63.579407,58.146675,10.553643,-14.934245,4.0928907
1.318,94.4228,68.47408,59.516144,11.155027,-14.900976,4.7394075
1.32,95.7074,73.68411,60.888084,11.759827,-14.845539,5.417339
1.322,97.057625,79.19335,62.275795,12.3671255,-14.764027,6.130906
1.324,98.39427,85.00712,63.69496,12.975702,-14.65287,6.8844724
1.326,99.65566,91.09473,65.20627,13.5842285,-14.508479,7.6824193
1.328,100.89847,97.38855,66.869,14.192275,-14.325877,8.528484
1.33,102.21601,103.83095,68.703735,14.79982,-14.098839,9.426592
1.332,103.68625,110.40883,70.66107,15.406812,-13.820264,10.382542
1.334,105.35501,117.143265,72.645805,16.013956,-13.481744,11.401693
1.336,107.144936,124.05068,74.60628,16.622828,-13.071158,12.489098
1.338,109.068375,131.06573,76.54585,17.234306,-12.574162,13.65015
1.34,111.1334,138.09308,78.485374,17.847343,-11.975439,14.890511
1.342,113.34922,145.02684,80.479004,18.461296,-11.255626,16.215435
1.344,115.74017,151.79825,82.561066,19.07584,-10.390543,17.630373
1.346,118.35418,158.40572,84.79974,19.690365,-9.353241,19.141443
1.348,121.24258,164.85037,87.20243,20.302052,-8.116238,20.753325
1.35,124.42247,171.01126,89.69492,20.906126,-6.6516886,22.467968
1.352,127.92649,176.81705,92.21933,21.493458,-4.9325933,24.279228
1.354,131.77307,182.15076,94.735085,22.049835,-2.9348993,26.168999
1.356,135.98898,186.93123,97.22535,22.557041,-0.63686895,28.114859
1.358,140.59827,191.10345,99.65152,22.99336,1.9765222,30.093243
1.36,145.58928,194.63599,101.96651,23.335665,4.9003925,32.06487
1.362,150.96584,197.48593,104.11726,23.559288,8.121784,33.9828
1.364,156.72661,199.61877,106.035614,23.641865,11.614521,35.79301
1.366,162.87299,201.00952,107.65129,23.568935,15.339783,37.434612
1.368,169.39949,201.65817,108.87915,23.329563,19.247417,38.847446
1.37,176.27527,201.57845,109.61554,22.913689,23.2658,39.9624
1.372,183.45163,200.79092,109.74971,22.319195,27.290695,40.719986
1.374,190.8654,199.32338,109.18409,21.567745,31.223675,41.107956
1.376,198.44188,197.21432,107.82373,20.69297,34.966187,41.135014
1.378,206.09247,194.51817,105.592316,19.740828,38.420567,40.808125
1.38,213.71196,191.29405,102.43457,18.7654,41.49259,40.13038
1.382,221.18462,187.59637,98.31772,17.818766,44.093666,39.105465
1.384,228.38304,183.48674,93.22879,16.947117,46.149235,37.740948
1.386,235.17563,179.03189,87.16382,16.188272,47.61789,36.04622
1.388,241.4415,174.29144,80.139915,15.566227,48.492596,34.02734
1.39,247.05635,169.32793,72.20365,15.089786,48.79556,31.683193
1.392,251.89294,164.20601,63.425266,14.7552,48.581367,29.009243
1.394,255.834,158.97311,53.893806,14.546424,47.9315,26.004723
1.396,258.78534,153.6676,43.722366,14.432532,46.940037,22.678831
1.398,260.66843,148.33075,33.04973,14.371406,45.70272,19.052618
1.4,261.42496,142.9948,22.043015,14.311942,44.306015,15.162284
1.402,261.02145,137.68079,10.892471,14.195926,42.81421,11.067207
1.404,259.44568,132.4115,-0.2099762,13.959904,41.260162,6.852994
1.406,256.7186,127.202126,-11.074707,13.541088,39.643784,2.6322336
1.408,252.89517,122.06717,-21.507576,12.882943,37.935745,-1.4627075
1.41,248.0427,117.03631,-31.317986,11.93944,36.08376,-5.297986
1.412,242.23212,112.17503,-40.332382,10.68024,34.02541,-8.747423
1.414,235.60088,107.488884,-48.39776,9.094639,31.705135,-11.69085
1.416,228.28152,103.00006,-55.37738,7.1961365,29.069536,-14.037164
1.418,220.41347,98.73477,-61.15588,5.0179577,26.082422,-15.731199
1.42,212.13626,94.71886,-65.667274,2.6070776,22.728397,-16.757425
1.422,203.60521,90.97127,-68.870316,0.02627182,19.016003,-17.144981
1.424,194.96687,87.54405,-70.7343,-2.6540112,14.987177,-16.953722
1.426,186.34912,84.453064,-71.2705,-5.371396,10.716869,-16.280218
1.428,177.87811,81.70578,-70.522964,-8.080348,6.2774887,-15.258952
1.43,169.6637,79.2926,-68.54459,-10.734674,1.7605075,-14.010187
1.432,161.79852,77.22956,-65.45904,-13.289582,-2.721569,-12.622927
1.434,154.42358,75.50568,-61.4008,-15.699642,-7.04007,-11.165573
1.436,147.61453,74.13678,-56.547577,-17.915787,-11.05858,-9.695758
1.438,141.32027,73.15168,-51.063904,-19.890003,-14.64702,-8.2642765
1.44,135.47989,72.54435,-45.074627,-21.579952,-17.700333,-6.911688
1.442,130.07048,72.25984,-38.65904,-22.950983,-20.13802,-5.6621733
1.444,125.104034,72.22487,-31.894365,-23.98021,-21.904924,-4.524806
1.446,120.67787,72.3918,-24.930696,-24.660221,-22.979298,-3.4994907
1.448,116.76113,72.791176,-17.96614,-24.998466,-23.373405,-2.5805454
1.45,113.31799,73.45556,-11.187323,-25.01493,-23.12948,-1.7568378
1.452,110.30414,74.39864,-4.7739716,-24.741383,-22.315321,-1.0102329
1.454,107.658844,75.583565,1.1529083,-24.21754,-21.016945,-0.31752872
1.456,105.3071,76.92325,6.47604,-23.486643,-19.329384,0.34395075
1.458,103.18451,78.35921,11.165009,-22.593262,-17.350885,0.9931803
1.46,101.265274,79.9511,15.260708,-21.581732,-15.178336,1.6438293
1.462,99.5073,81.6887,18.76602,-20.495058,-12.901918,2.3030438
1.464,97.88338,83.59415,21.662996,-19.372997,-10.601062,2.97023
1.466,96.35744,85.64136,23.91965,-18.250658,-8.341324,3.6355157
1.468,94.89877,87.78377,25.537355,-17.158283,-6.173212,4.2801814
1.47,93.50495,89.9671,26.530611,-16.121225,-4.132786,4.879861
1.472,92.14862,92.16319,26.922115,-15.157668,-2.2419624,5.4084263
1.474,90.80417,94.34429,26.750368,-14.278006,-0.5093317,5.842744
1.476,89.44131,96.48245,26.054993,-13.486382,1.0667233,6.1673265
1.478,88.03675,98.537796,24.888136,-12.779894,2.494411,6.376216
1.48,86.58579,100.47447,23.31436,-12.14895,3.786695,6.4713736
1.482,85.08895,102.265,21.39649,-11.58273,4.9591894,6.460718
1.484,83.547424,103.887474,19.18183,-11.071727,6.0259085,6.357828
1.486,81.96003,105.320206,16.718575,-10.608523,6.997866,6.180129
1.488,80.32701,106.53801,14.045378,-10.188751,7.8819256,5.94568
1.49,78.653076,107.523094,11.196508,-9.810864,8.681087,5.670888
1.492,76.94206,108.270035,8.206638,-9.475726,9.395344,5.3697715
1.494,75.199814,108.77075,5.116335,-9.186551,10.021942,5.0538707
1.496,73.430435,109.01718,1.9798634,-8.948267,10.555544,4.732073
1.498,71.62848,109.01213,-1.1494925,-8.766433,10.988646,4.4105124
1.5,69.79694,108.75725,-4.2257957,-8.646329,11.312933,4.0932245
1.502,67.94775,108.25569,-7.204863,-8.592277,11.520773,3.7832775
1.504,66.090935,107.52748,-10.041962,-8.606941,11.605913,3.483378
1.506,64.22749,106.5973,-12.699654,-8.690542,11.564281,3.1963096
1.508,62.362274,105.48271,-15.15064,-8.840571,11.3945,2.925092
1.51,60.50119,104.20784,-17.380053,-9.051957,11.098282,2.673032
1.512,58.649223,102.80113,-19.379845,-9.317331,10.68096,2.4437513
1.514,56.812637,101.290054,-21.138706,-9.627394,10.151709,2.240802
1.516,54.993614,99.69885,-22.643446,-9.97143,9.5230255,2.067386
1.518,53.192024,98.0462,-23.88371,-10.337985,8.810176,1.9262023
1.52,51.408073,96.34555,-24.852804,-10.715492,8.030566,1.8190808
1.522,49.642387,94.610855,-25.550884,-11.092822,7.203146,1.7468976
1.524,47.898605,92.857834,-25.984152,-11.459733,6.3477106,1.7095962
1.526,46.18209,91.10365,-26.16159,-11.807148,5.484071,1.7062323
1.528,44.498688,89.365135,-26.096537,-12.127317,4.6313887,1.7350922
1.53,42.85462,87.65761,-25.806776,-12.413889,3.8076723,1.7937398
1.532,41.257877,85.99335,-25.313143,-12.661947,3.0291054,1.8791778
1.534,39.71513,84.38266,-24.638306,-12.86796,2.309549,1.988025
1.536,38.233063,82.83402,-23.804216,-13.029699,1.6602104,2.1166987
1.538,36.816757,81.35408,-22.83093,-13.146166,1.0893254,2.2615356
1.54,35.46891,79.94845,-21.739809,-13.217536,0.60198474,2.418826
1.542,34.19085,78.619354,-20.55513,-13.245058,0.20014644,2.58499
1.544,32.983936,77.36481,-19.302551,-13.231009,-0.11723733,2.7566538
1.546,31.847477,76.18186,-18.00679,-13.178552,-0.35398746,2.9308004
1.548,30.78051,75.06679,-16.690228,-13.09154,-0.51623607,3.1048617
1.55,29.782179,74.01617,-15.373337,-12.974312,-0.6118798,3.2767463
1.552,28.851433,73.027054,-14.073828,-12.831476,-0.6499359,3.444787
1.554,27.986435,72.097626,-12.806384,-12.667616,-0.639851,3.607726
1.556,27.184372,71.22696,-11.582901,-12.487139,-0.59094065,3.7646832
1.558,26.442385,70.41382,-10.413142,-12.29397,-0.51183075,3.9150648
1.56,25.757366,69.65674,-9.305166,-12.091442,-0.4100501,4.0585127
1.562,25.125483,68.954285,-8.265705,-11.882151,-0.29169625,4.194762
1.564,24.542664,68.30481,-7.3000984,-11.667946,-0.16133842,4.323558
1.566,24.004507,67.706566,-6.412447,-11.450016,-0.021986082,4.444601
1.568,23.506355,67.15792,-5.605871,-11.228907,0.124760725,4.5575914
1.57,23.04365,66.657104,-4.8826103,-11.004681,0.27851498,4.6621885
1.572,22.611607,66.20258,-4.243371,-10.777077,0.4398087,4.7579875
1.574,22.205608,65.79227,-3.6883445,-10.545656,0.6098879,4.844534
1.576,21.821684,65.423615,-3.2173753,-10.309995,0.7904576,4.9213686
1.578,21.4558,65.09412,-2.83009,-10.069761,0.9834431,4.988081
1.58,21.104675,64.80037,-2.5259848,-9.824837,1.1907723,5.0443144
1.582,20.766106,64.53828,-2.304134,-9.575403,1.4142239,5.089779
1.584,20.43786,64.303085,-2.164132,-9.321959,1.6552166,5.1243076
1.586,20.118196,64.08928,-2.1055367,-9.065332,1.9147317,5.147862
1.588,19.805372,63.891052,-2.127506,-8.806694,2.193153,5.160484
1.59,19.498415,63.701874,-2.2290237,-8.547479,2.4902,5.1622686
1.592,19.196417,63.514965,-2.408936,-8.289412,2.8049157,5.1533513
1.594,18.898663,63.32309,-2.6657143,-8.034402,3.1357036,5.133945
1.596,18.605005,63.119137,-2.997401,-7.784459,3.4804277,5.1043463
1.598,18.314972,62.896484,-3.4012914,-7.541543,3.836512,5.064971
1.6,18.027895,62.649082,-3.8743157,-7.307474,4.2011194,5.0163507
1.602,17.743782,62.37131,-4.413067,-7.0838766,4.571328,4.959067
1.604,17.462063,62.058426,-5.013737,-6.8720827,4.944275,4.8938103
1.606,17.18242,61.70658,-5.672477,-6.6731205,5.3172817,4.8213406
1.608,16.904362,61.31266,-6.385126,-6.4876857,5.6879387,4.7424703
1.61,16.627575,60.87441,-7.14741,-6.316126,6.0541677,4.6580467
1.612,16.351694,60.390633,-7.955027,-6.158493,6.4142613,4.5689936
1.614,16.076117,59.86121,-8.803776,-6.01453,6.766846,4.47631
1.616,15.800321,59.287098,-9.689415,-5.883713,7.110748,4.3810415
1.618,15.523946,58.669926,-10.607389,-5.7652893,7.444929,4.284261
1.62,15.246589,58.01198,-11.5534725,-5.6583395,7.768361,4.187005
1.622,14.967562,57.31609,-12.523347,-5.561857,8.079945,4.090225
1.624,14.68645,56.585854,-13.513158,-5.474805,8.378444,3.9947321
1.626,14.402342,55.825207,-14.518748,-5.3962007,8.662417,3.9011226
1.628,14.114567,55.037907,-15.535921,-5.325196,8.930147,3.809703
1.63,13.822346,54.22779,-16.560297,-5.2611036,9.179638,3.7204332
1.632,13.52491,53.398636,-17.587585,-5.2035184,9.4086275,3.6329107
1.634,13.222158,52.554077,-18.613052,-5.1522903,9.614603,3.546388
1.636,12.913332,51.69738,-19.63186,-5.107572,9.79486,3.4598658
1.638,12.598173,50.831524,-20.639408,-5.0697336,9.946613,3.3722138
1.64,12.276365,49.95904,-21.631489,-5.039283,10.067087,3.2822974
1.642,11.947929,49.081894,-22.604141,-5.016759,10.153709,3.1890838
1.644,11.612619,48.20159,-23.553185,-5.002634,10.204205,3.0917585
1.646,11.270283,47.31907,-24.47472,-4.9971924,10.216749,2.9898076
1.648,10.920834,46.434883,-25.365025,-5.000471,10.190084,2.883017
1.65,10.564333,45.549232,-26.220575,-5.0122156,10.1236,2.7714581
1.652,10.201284,44.66159,-27.03815,-5.031853,10.017441,2.655438
1.654,9.831884,43.77173,-27.815393,-5.058524,9.872433,2.5354805
1.656,9.456814,42.87906,-28.549965,-5.0911264,9.690127,2.4122386
1.658,9.076839,41.98294,-29.240082,-5.128333,9.472696,2.2864013
1.66,8.692881,41.08265,-29.884796,-5.1687145,9.222803,2.1586194
1.662,8.305824,40.177246,-30.483555,-5.2107964,8.943473,2.0294242
1.664,7.91675,39.26594,-31.03615,-5.2531595,8.637995,1.8991871
1.666,7.5266037,38.34785,-31.542896,-5.294462,8.309789,1.7681413
1.668,7.136566,37.42225,-32.004383,-5.3335104,7.9622006,1.6363573
1.67,6.747465,36.4887,-32.421143,-5.369276,7.59843,1.5037539
1.672,6.3600407,35.54707,-32.79381,-5.4009094,7.2214327,1.3701704
1.674,5.9751225,34.59753,-33.12332,-5.4277267,6.8339005,1.2354293
1.676,5.593547,33.640205,-33.410522,-5.449196,6.438205,1.0993752
1.678,5.2158556,32.67532,-33.656284,-5.4649096,6.036403,0.9619355
1.68,4.8423986,31.703426,-33.86142,-5.474537,5.6302824,0.8231492
1.682,4.473857,30.724987,-34.02671,-5.477786,5.221431,0.6831858
1.684,4.110525,29.740646,-34.152603,-5.4744005,4.811262,0.54236794
1.686,3.752224,28.75179,-34.239174,-5.464146,4.401061,0.40112853
1.688,3.399064,27.759613,-34.286358,-5.44686,3.9920437,0.26001644
1.69,3.0509558,26.765802,-34.293976,-5.422449,3.5853043,0.119627
1.692,2.70786,25.772284,-34.2619,-5.3909354,3.181818,-0.019402742
1.694,2.3694715,24.78132,-34.18973,-5.3524647,2.7823973,-0.1563859
1.696,2.0360203,23.795506,-34.077183,-5.3073406,2.3876593,-0.29063702
1.698,1.7073202,22.817627,-33.923943,-5.25597,1.9980575,-0.42142522
1.7,1.3833017,21.850788,-33.72998,-5.198844,1.6138029,-0.54802
1.702,1.0644112,20.898102,-33.495335,-5.136456,1.2349954,-0.66969025
1.704,0.7506933,19.96282,-33.220333,-5.0692544,0.8616357,-0.78576624
1.706,0.44257355,19.04816,-32.90567,-4.9975834,0.49370515,-0.8956405
1.708,0.14072895,18.157103,-32.552254,-4.9216094,0.13132179,-0.99880755
1.71,-0.1541996,17.292498,-32.16123,-4.8412714,-0.22521603,-1.0948985
1.712,-0.44169712,16.457096,-31.733995,-4.756311,-0.5753391,-1.1837435
1.714,-0.7207947,15.653224,-31.272335,-4.66627,-0.9181807,-1.2653885
1.716,-0.99058056,14.882973,-30.777992,-4.5705347,-1.2526069,-1.3400812
1.718,-1.2502003,14.148146,-30.25319,-4.4683957,-1.5772177,-1.408275
1.72,-1.4985847,13.450162,-29.700264,-4.3591022,-1.890445,-1.4706025
1.722,-1.7347546,12.789956,-29.121946,-4.2419233,-2.1906004,-1.5278361
1.724,-1.957428,12.168369,-28.521116,-4.116191,-2.4759488,-1.5808156
1.726,-2.1656466,11.585449,-27.90067,-3.9813612,-2.7448373,-1.6304563
1.728,-2.358272,11.041365,-27.263645,-3.8370426,-2.9957669,-1.677673
1.73,-2.534389,10.535751,-26.613146,-3.683031,-3.2274468,-1.7233391
1.732,-2.6927385,10.067835,-25.952345,-3.519323,-3.4388478,-1.7682592
1.734,-2.8326778,9.636681,-25.284113,-3.3461487,-3.629248,-1.8131369
1.736,-2.9534287,9.24101,-24.611515,-3.1639519,-3.7982318,-1.8585577
1.738,-3.054439,8.879463,-23.93726,-2.9733648,-3.9456987,-1.9050257
1.74,-3.1350565,8.550324,-23.264313,-2.7751894,-4.0718346,-1.9529257
1.742,-3.195014,8.251811,-22.595234,-2.570356,-4.1771097,-2.0025887
1.744,-3.234535,7.982003,-21.93249,-2.35989,-4.2622037,-2.0542915
1.746,-3.2534168,7.738877,-21.278257,-2.1448817,-4.328007,-2.1082568
1.748,-3.252186,7.520256,-20.634407,-1.9264419,-4.3755445,-2.1646934
1.75,-3.2311387,7.323881,-20.002325,-1.7056623,-4.4059777,-2.2237923
1.752,-3.1909041,7.1475043,-19.38326,-1.4835896,-4.420558,-2.2857351
1.754,-3.1322143,6.989004,-18.778027,-1.2611741,-4.420544,-2.3506563
1.756,-3.0560517,6.846233,-18.187193,-1.0392852,-4.4072466,-2.4186368
1.758,-2.9633882,6.717043,-17.610926,-0.8186778,-4.381939,-2.4896753
1.76,-2.8554125,6.5992985,-17.049248,-0.59996825,-4.345846,-2.5637264
1.762,-2.7335248,6.4911585,-16.50206,-0.3836336,-4.3001375,-2.6406577
1.764,-2.5989604,6.390521,-15.9688225,-0.17001283,-4.24588,-2.7202435
1.766,-2.4531317,6.2956023,-15.449019,0.04067731,-4.18404,-2.8021677
1.768,-2.2976227,6.2049055,-14.942194,0.24834257,-4.11545,-2.8860254
1.77,-2.1336474,6.1169243,-14.44755,0.45299947,-4.04084,-2.971358
1.772,-1.9626014,6.0303593,-13.9644785,0.65474856,-3.9608302,-3.0576673
1.774,-1.7859776,5.9440956,-13.492235,0.8537548,-3.8759456,-3.144451
1.776,-1.6046655,5.85715,-13.030161,1.0502301,-3.7866383,-3.2312007
1.778,-1.4200721,5.768879,-12.577546,1.2444178,-3.6933203,-3.3174431
1.78,-1.2332854,5.67869,-12.1338215,1.4366039,-3.5963557,-3.4027312
1.782,-1.045044,5.5860176,-11.698565,1.6270726,-3.4960852,-3.486685
1.784,-0.8562813,5.4905744,-11.271282,1.8161175,-3.3928428,-3.5690103
1.786,-0.66772676,5.3923063,-10.851385,2.0040305,-3.2869852,-3.6494575
1.788,-0.47992158,5.2912064,-10.438599,2.191101,-3.1788483,-3.7278218
1.79,-0.2934308,5.1874,-10.032625,2.3775954,-3.0687728,-3.803936
1.792,-0.10888481,5.0810966,-9.633374,2.5637722,-2.957111,-3.8776612
1.794,0.07336235,4.9725504,-9.240827,2.7498808,-2.8441973,-3.948898
1.796,0.2530334,4.8622427,-8.854792,2.9361434,-2.7303379,-4.017503
1.798,0.43014193,4.7506714,-8.475525,3.1227546,-2.6158156,-4.0833216
1.8,0.6043837,4.6385584,-8.103186,3.3098874,-2.5008678,-4.146221
1.802,0.7755666,4.526485,-7.7379994,3.4976752,-2.3856783,-4.2060533
1.804,0.94374084,4.415007,-7.3802767,3.6862144,-2.270369,-4.262649
1.806,1.1087198,4.3049107,-7.0303736,3.8755798,-2.154972,-4.3158555
1.808,1.2705803,4.1968822,-6.6886578,4.065824,-2.0394585,-4.3655295
1.81,1.4295597,4.091541,-6.35561,4.256973,-1.9237144,-4.41156
1.812,1.5854828,3.9897537,-6.0319233,4.449033,-1.8075775,-4.45386
1.814,1.7385159,3.892517,-5.717761,4.642009,-1.6908207,-4.492384
1.816,1.8884373,3.80061,-5.4136286,4.8358727,-1.5732025,-4.5271087
1.818,2.0354156,3.7145233,-5.119941,5.030573,-1.4544854,-4.5580444
1.82,2.179625,3.6348462,-4.8372684,5.22607,-1.3344572,-4.5852222
1.822,2.3211164,3.562062,-4.565983,5.422311,-1.2129686,-4.6087027
1.824,2.45993,3.4970245,-4.3064656,5.6192145,-1.0899775,-4.6285496
1.826,2.5959897,3.4403658,-4.059023,5.816676,-0.96556926,-4.6448255
1.828,2.7295141,3.3925958,-3.8237104,6.0145645,-0.83995795,-4.6575913
1.83,2.8606422,3.3542035,-3.600575,6.2127323,-0.7135068,-4.6669188
1.832,2.9893205,3.325796,-3.3894508,6.4109964,-0.586702,-4.6728373
1.834,3.1155455,3.307744,-3.1899192,6.609152,-0.46014547,-4.6753597
1.836,3.239392,3.300776,-3.0016923,6.806993,-0.33458853,-4.6744423
1.838,3.36104,3.3050623,-2.8241692,7.0042973,-0.21082366,-4.6699963
1.84,3.4805748,3.3211522,-2.656816,7.200839,-0.089712024,-4.6619077
1.842,3.5979445,3.3496277,-2.4989297,7.396392,0.027893305,-4.650038
1.844,3.7132099,3.390959,-2.349769,7.590772,0.14117754,-4.63424
1.846,3.8266585,3.445747,-2.208478,7.783774,0.24941325,-4.614408
1.848,3.9382563,3.5144856,-2.0743418,7.9752073,0.35198236,-4.590456
1.85,4.0482354,3.5978196,-1.9465305,8.164881,0.44839668,-4.562311
1.852,4.1569004,3.696196,-1.8242501,8.352587,0.53832376,-4.529915
1.854,4.26455,3.8102982,-1.7067802,8.538097,0.6215972,-4.493205
1.856,4.3713856,3.9407568,-1.5934002,8.721192,0.6982173,-4.4521723
1.858,4.4779506,4.0882807,-1.4834616,8.901626,0.768306,-4.4068317
1.86,4.584748,4.253602,-1.3764563,9.079129,0.83207464,-4.357233
1.862,4.692286,4.4375205,-1.2719728,9.253418,0.8897995,-4.3034244
1.864,4.8012724,4.6409407,-1.1698306,9.424209,0.94175446,-4.2454586
1.866,4.912511,4.864666,-1.0697646,9.591184,0.9881536,-4.1833744
1.868,5.0266423,5.1097546,-0.97173476,9.754025,1.0290886,-4.1171875
1.87,5.144594,5.3772316,-0.8756417,9.912384,1.0645422,-4.0469017
1.872,5.267241,5.6681414,-0.781603,10.065917,1.0943044,-3.9725091
1.874,5.3954787,5.9835763,-0.6896646,10.214244,1.1179695,-3.8939812
1.876,5.5301876,6.3245864,-0.6000329,10.356988,1.1349775,-3.8113194
1.878,5.6727858,6.6919894,-0.51261306,10.49379,1.1446565,-3.7245607
1.88,5.824088,7.0867834,-0.4275818,10.624323,1.1462246,-3.6338344
1.882,5.9852996,7.5098443,-0.34489226,10.748321,1.1388547,-3.5393445
1.884,6.1577253,7.961804,-0.26465392,10.865549,1.1217341,-3.4414535
1.886,6.342387,8.443164,-0.18650246,10.975876,1.0940565,-3.3406854
1.888,6.5406437,8.953995,-0.11019039,11.079216,1.0551157,-3.2377415
1.89,6.753726,9.494347,-0.035475492,11.175528,1.0043511,-3.1334486
1.892,6.9826107,10.063993,0.038458347,11.264798,0.9413334,-3.0287805
1.894,7.2283993,10.662538,0.11228204,11.347006,0.8657932,-2.924778
1.896,7.492426,11.289311,0.18678284,11.42207,0.77758634,-2.822514
1.898,7.775664,11.943033,0.2628212,11.489807,0.67669666,-2.7230635
1.9,8.079108,12.62224,0.34126186,11.54998,0.5632216,-2.6274095
1.902,8.403442,13.324984,0.4231043,11.602244,0.43735525,-2.5364614
1.904,8.749221,14.04926,0.5094323,11.646225,0.2993662,-2.451038
1.906,9.116942,14.792624,0.6013217,11.681498,0.14953285,-2.3718157
1.908,9.506669,15.552504,0.70020485,11.707653,-0.01185298,-2.2993002
1.91,9.918812,16.326023,0.8076854,11.724326,-0.18451893,-2.2338428
1.912,10.353577,17.110239,0.92527485,11.731218,-0.3682441,-2.1756706
1.914,10.81119,17.901808,1.0546427,11.728132,-0.56287193,-2.1249342
1.916,11.291433,18.697126,1.1973281,11.714957,-0.76833415,-2.0817332
1.918,11.794266,19.492369,1.3547869,11.691645,-0.9846823,-2.0461564
1.92,12.319483,20.283485,1.5284057,11.658205,-1.2121232,-2.0182986
1.922,12.866781,21.066048,1.7194691,11.614678,-1.4509985,-1.9982748
1.924,13.436302,21.835527,1.9290438,11.5610895,-1.7018344,-1.9862566
1.926,14.027776,22.587536,2.1581717,11.497414,-1.9653298,-1.9824643
1.928,14.640911,23.317451,2.4075832,11.42354,-2.242373,-1.987153
1.93,15.274612,24.020811,2.6780462,11.339224,-2.534037,-2.0006258
1.932,15.928438,24.692898,2.9697027,11.244106,-2.8415694,-2.0231698
1.934,16.601767,25.328255,3.282569,11.137722,-3.1663008,-2.0550475
1.936,17.293938,25.921478,3.6163454,11.019554,-3.5096428,-2.096511
1.938,18.004242,26.467398,3.9704723,10.888991,-3.8730183,-2.1478179
1.94,18.73196,26.960896,4.344036,10.745371,-4.2578077,-2.209245
1.942,19.476501,27.39713,4.736104,10.588012,-4.6653023,-2.2811158
1.944,20.236961,27.771633,5.1458464,10.416294,-5.0966682,-2.3638015
1.946,21.012022,28.08012,5.5723276,10.229662,-5.5528293,-2.457716
1.948,21.800339,28.318542,6.014122,10.0277,-6.0344253,-2.5633261
1.95,22.60073,28.482935,6.4696684,9.810194,-6.541786,-2.6811302
1.952,23.411425,28.569748,6.9371486,9.577061,-7.0749087,-2.8116345
1.954,24.230616,28.575844,7.414198,9.3283615,-7.6334705,-2.9553523
1.956,25.055498,28.498947,7.8987417,9.064311,-8.216723,-3.1128712
1.958,25.883356,28.33727,8.388353,8.785115,-8.82353,-3.2848127
1.96,26.710693,28.089462,8.88072,8.49102,-9.452278,-3.4717622
1.962,27.533611,27.75501,9.373489,8.18216,-10.100841,-3.6743395
1.964,28.347673,27.333939,9.864443,7.8585353,-10.76659,-3.8932035
1.966,29.14789,26.827202,10.351141,7.5199866,-11.446366,-4.128869
1.968,29.928715,26.236702,10.831249,7.1662703,-12.136501,-4.381587
1.97,30.684004,25.565718,11.302511,6.7970405,-12.832935,-4.6512856
1.972,31.407576,24.818544,11.763118,6.411972,-13.531189,-4.9374595
1.974,32.093117,24.000317,12.211315,6.0108852,-14.226445,-5.239104
1.976,32.734154,23.117014,12.6453905,5.593871,-14.913535,-5.5546546
1.978,33.32422,22.175323,13.063931,5.161438,-15.587056,-5.8819094
1.98,33.856915,21.182413,13.465409,4.714577,-16.241436,-6.217992
1.982,34.326015,20.146412,13.848289,4.254821,-16.8711,-6.559377
1.984,34.72556,19.076077,14.211129,3.7843094,-17.470581,-6.9020023
1.986,35.049908,17.980488,14.552662,3.3057957,-18.034636,-7.2414446
1.988,35.294037,16.868715,14.871553,2.8226037,-18.558357,-7.5731583
1.99,35.45404,15.7497,15.166478,2.3384814,-19.037256,-7.8926635
1.992,35.526478,14.632323,15.436098,1.8575497,-19.467377,-8.195772
1.994,35.50888,13.525137,15.679123,1.3840427,-19.845285,-8.47877
1.996,35.399994,12.43614,15.894115,0.922143,-20.16816,-8.738632
1.998,35.19908,11.3732815,16.079739,0.47568226,-20.433876,-8.973069
2,34.90681,10.343502,16.2347,0.047926903,-20.641064,-9.180592
2.002,34.52454,9.3530855,16.357393,-0.3584633,-20.789171,-9.360435
2.004,34.054832,8.407538,16.446453,-0.7415409,-20.87843,-9.512371
2.006,33.500664,7.5115137,16.500374,-1.1000504,-20.909992,-9.636586
2.008,32.866234,6.669127,16.517927,-1.4333811,-20.885818,-9.733422
2.01,32.156666,5.8835673,16.497889,-1.7414017,-20.808739,-9.803211
2.012,31.377644,5.1574707,16.439236,-2.0243144,-20.682184,-9.846197
2.014,30.53554,4.4923987,16.340942,-2.2825456,-20.510136,-9.862612
2.016,29.637281,3.8890524,16.202118,-2.5165792,-20.296791,-9.852554
2.018,28.690117,3.3475294,16.022083,-2.726912,-20.046295,-9.816111
2.02,27.701538,2.8674026,15.80023,-2.9140158,-19.762554,-9.753489
2.022,26.679182,2.4477167,15.5365715,-3.0783873,-19.449112,-9.665066
2.024,25.630842,2.0871627,15.231333,-3.2205403,-19.108984,-9.551371
2.026,24.564405,1.7838149,14.88541,-3.3410368,-18.74473,-9.413089
2.028,23.48751,1.5355306,14.499989,-3.4405854,-18.358604,-9.251086
2.03,22.407587,1.3396561,14.076739,-3.5200195,-17.952667,-9.066427
2.032,21.332233,1.1933972,13.617685,-3.580282,-17.52892,-8.8604145
2.034,20.267845,1.093657,13.125036,-3.6224184,-17.089382,-8.634558
2.036,19.22108,1.0370188,12.6018,-3.6475139,-16.636196,-8.390501
2.038,18.197891,1.0199182,12.051266,-3.656723,-16.171642,-8.129986
2.04,17.204203,1.03824,11.4768505,-3.6512794,-15.698166,-7.8547454
2.042,16.244656,1.0880256,10.882479,-3.632475,-15.218343,-7.5664506
2.044,15.323337,1.1655133,10.272107,-3.601567,-14.734722,-7.2666683
2.046,14.443583,1.2670918,9.64993,-3.5598352,-14.249707,-6.9568696
2.048,13.60811,1.3886774,9.020393,-3.508532,-13.765463,-6.6383944
2.05,12.818922,1.5263376,8.388017,-3.4488559,-13.283813,-6.312458
2.052,12.07786,1.6760089,7.757124,-3.3819277,-12.806101,-5.980225
2.054,11.385858,1.8338058,7.1319647,-3.3087437,-12.333172,-5.6428185
2.056,10.743773,1.9962678,6.5169954,-3.2302015,-11.865312,-5.301326
2.058,10.151627,2.160498,5.916867,-3.1470318,-11.4022665,-4.956841
2.06,9.608987,2.323824,5.3360615,-3.0597491,-10.943241,-4.610463
2.062,9.115575,2.4838197,4.779024,-2.9687047,-10.487045,-4.2633333
2.064,8.6708355,2.638313,4.2499843,-2.8740807,-10.032066,-3.9165845
2.066,8.274368,2.7852156,3.7525086,-2.775845,-9.576298,-3.5712793
2.068,7.9253535,2.923074,3.289993,-2.6737797,-9.11746,-3.2283347
2.07,7.622972,3.0508199,2.865288,-2.567552,-8.653097,-2.8885398
2.072,7.366398,3.1674454,2.4805446,-2.456737,-8.180737,-2.5526078
2.074,7.1550655,3.2719939,2.1375597,-2.34084,-7.6979747,-2.22118
2.076,6.9885535,3.363725,1.8377178,-2.2193837,-7.2026386,-1.8949385
2.078,6.8661256,3.4419374,1.5817509,-2.091918,-6.6928806,-1.5746468
2.08,6.7875257,3.505689,1.3698875,-1.958106,-6.167328,-1.261198
2.082,6.751959,3.5544267,1.2015096,-1.8177549,-5.6252003,-0.9555695
2.084,6.7587337,3.587844,1.0755874,-1.6708694,-5.066361,-0.6588079
2.086,6.8069158,3.6059384,0.9906586,-1.5176648,-4.491268,-0.37195683
2.088,6.895978,3.6091104,0.9447373,-1.358557,-3.9009776,-0.096017
2.09,7.0251584,3.5980525,0.93556046,-1.1941624,-3.2970028,0.1682213
2.092,7.1934876,3.5734975,0.9606676,-1.0252879,-2.6812358,0.42025852
2.094,7.399953,3.5361533,1.0170605,-0.85288,-2.0558798,0.65997624
2.096,7.6436133,3.4868393,1.1015089,-0.6780262,-1.4233313,0.8876853
2.098,7.922913,3.4266295,1.210744,-0.5019292,-0.7860838,1.104064
2.1,8.235969,3.357062,1.3413074,-0.3258476,-0.1466501,1.3100528
2.102,8.581036,3.2796826,1.4895371,-0.15105562,0.49248213,1.5067697
2.104,8.955913,3.1960332,1.651671,0.0211903,1.1288857,1.6953756
2.106,9.357996,3.1077929,1.8241341,0.18971103,1.7602026,1.8769544
2.108,9.784621,3.0160823,2.003353,0.35347065,2.38416,2.0523567
2.11,10.232932,2.9225638,2.1859002,0.51158535,2.9985528,2.2220752
2.112,10.700091,2.8286529,2.368694,0.6633528,3.6012719,2.3861797
2.114,11.182534,2.735588,2.5487905,0.8083089,4.190362,2.5443552
2.116,11.677124,2.6446064,2.7235904,0.946211,4.76404,2.6958785
2.118,12.18046,2.5568256,2.8907652,1.0769622,5.3206544,2.839723
2.12,12.689163,2.472964,3.0484805,1.2005606,5.858724,2.9746206
2.122,13.199623,2.3936925,3.195003,1.3170786,6.3769855,3.0991294
2.124,13.708569,2.3194275,3.3288367,1.42661,6.874425,3.211751
2.126,14.2123785,2.2506123,3.4487565,1.5292139,7.3502965,3.3110662
2.128,14.708074,2.187377,3.553568,1.6249092,7.804143,3.395824
2.13,15.192497,2.1298952,3.6425126,1.713695,8.235753,3.4651077
2.132,15.662887,2.078105,3.7147357,1.7955366,8.645081,3.5183098
2.134,16.116676,2.0320077,3.7697513,1.8703858,9.032241,3.555165
2.136,16.551598,1.9915886,3.8070843,1.9381586,9.397486,3.5757594
2.138,16.965464,1.956696,3.8266342,1.9987936,9.741144,3.5805566
2.14,17.356525,1.9275508,3.8284538,2.0522308,10.063518,3.5702982
2.142,17.723316,1.9039718,3.8126836,2.098452,10.364876,3.5460021
2.144,18.064924,1.8858061,3.779454,2.137491,10.645406,3.5088973
2.146,18.380293,1.873087,3.7290802,2.1694784,10.905164,3.4603822
2.148,18.668999,1.8660727,3.6619513,2.1946642,11.144076,3.4019828
2.15,18.930813,1.865065,3.578638,2.21345,11.361892,3.3352606
2.152,19.165731,1.870251,3.4798265,2.226384,11.558161,3.261797
2.154,19.373856,1.8818176,3.3663774,2.2341032,11.732267,3.1831193
2.156,19.555494,1.8998338,3.2391598,2.2373292,11.883551,3.1005692
2.158,19.711086,1.9245167,3.0990336,2.2368205,12.01135,3.015249
2.16,19.841272,1.9559312,2.94692,2.2332997,12.1151285,2.9279518
2.162,19.94652,1.9943064,2.7837248,2.2273943,12.194557,2.839157
2.164,20.027798,2.0396051,2.6100776,2.2195947,12.249605,2.749076
2.166,20.086018,2.0916536,2.4267445,2.2102416,12.280538,2.6576996
2.168,20.12234,2.1501443,2.2343993,2.1994987,12.287914,2.5649157
2.17,20.13781,2.2150214,2.033611,2.1873798,12.27252,2.470633
2.172,20.133326,2.2858052,1.8248881,2.1737661,12.235352,2.3747864
2.174,20.109972,2.3622613,1.6088307,2.1584244,12.177448,2.277439
2.176,20.068968,2.4437745,1.385923,2.1410303,12.099864,2.178894
2.178,20.011581,2.529553,1.1565502,2.1212692,12.003582,2.0796533
2.18,19.939005,2.618854,0.9210875,2.0988338,11.889442,1.9803162
2.182,19.852531,2.7109513,0.6800411,2.0734372,11.758127,1.8815103
2.184,19.753313,2.805075,0.43365598,2.0448284,11.610193,1.7838182
2.186,19.642336,2.9003358,0.18228054,2.012827,11.446106,1.6877408
2.188,19.521027,2.9956803,-0.07360315,1.9773529,11.266274,1.593606
2.19,19.390238,3.0901663,-0.33369827,1.9383991,11.071076,1.501512
2.192,19.251171,3.1824765,-0.5975039,1.896002,10.860872,1.4113271
2.194,19.10483,3.2715428,-0.8644495,1.8502035,10.636079,1.322726
2.196,18.95227,3.3561513,-1.1340353,1.8010216,10.397177,1.2352738
2.198,18.794247,3.4351418,-1.4054983,1.7484045,10.144738,1.1484787
2.2,18.631645,3.507259,-1.6781216,1.6922256,9.879463,1.0618789
2.202,18.465347,3.5712895,-1.951129,1.6322687,9.602188,0.9751127
2.204,18.296099,3.6262708,-2.2236009,1.5682539,9.313875,0.88801
2.206,18.124346,3.6713943,-2.494693,1.499879,9.015585,0.8005645
2.208,17.950716,3.7060246,-2.7635682,1.4268726,8.70844,0.71295047
2.21,17.775818,3.7293005,-3.0291739,1.3489832,8.3935585,0.62551165
2.212,17.599794,3.7406392,-3.290366,1.2660514,8.072035,0.5387068
2.214,17.423147,3.7396736,-3.5459492,1.1780152,7.7448606,0.4530661
2.216,17.24614,3.7260022,-3.7949336,1.0849259,7.4128895,0.36913753
2.218,17.06909,3.6996903,-4.0360365,0.98693824,7.076831,0.28743505
2.22,16.892101,3.6607003,-4.268139,0.8842704,6.7372255,0.20841241
2.222,16.71539,3.6091075,-4.490175,0.7772176,6.3944798,0.13242126
2.224,16.539152,3.5455565,-4.7010717,0.6660893,6.0488596,0.059740305
2.226,16.363396,3.4705524,-4.89977,0.55122125,5.700525,-0.0094025135
2.228,16.188213,3.3848925,-5.085266,0.43297625,5.3496227,-0.07483232
2.23,16.013622,3.2894478,-5.256714,0.3117137,4.9963036,-0.13647246
2.232,15.839789,3.1852503,-5.4133296,0.18776107,4.6407566,-0.19431138
2.234,15.666679,3.0734334,-5.5540977,0.06146407,4.2832527,-0.24833405
2.236,15.494463,2.9551263,-5.678293,-0.066815734,3.9241765,-0.29857266
2.238,15.322965,2.8315196,-5.785164,-0.1966964,3.5639682,-0.3450874
2.24,15.152445,2.7035098,-5.8741436,-0.3277774,3.2031803,-0.387959
2.242,14.982977,2.5722117,-5.944707,-0.45962352,2.8424568,-0.42727697
2.244,14.81464,2.4387627,-5.9965982,-0.5917749,2.4824944,-0.46312377
2.246,14.647561,2.3042011,-6.029808,-0.72373873,2.1240575,-0.49555576
2.248,14.4820795,2.1694765,-6.044486,-0.8549774,1.7679365,-0.524604
2.25,14.31827,2.035418,-6.0409145,-0.9849467,1.4149294,-0.5503227
2.252,14.156075,1.9029579,-6.019541,-1.1130663,1.0658286,-0.5727686
2.254,13.995611,1.7729564,-5.9808087,-1.238784,0.7213777,-0.59202385
2.256,13.837207,1.646194,-5.9257145,-1.3615419,0.3822856,-0.6081879
2.258,13.680797,1.523377,-5.8550344,-1.480827,0.04920447,-0.62141246
2.26,13.526661,1.4050899,-5.769747,-1.5961754,-0.27728397,-0.63186115
2.262,13.375024,1.2918768,-5.6710963,-1.7071948,-0.5966689,-0.6397338
2.264,13.226076,1.184176,-5.5603704,-1.8135477,-0.90849996,-0.6452397
2.266,13.080242,1.0824237,-5.439003,-1.9149635,-1.2123905,-0.6485802
2.268,12.937512,0.98685837,-5.308376,-2.0112305,-1.508014,-0.64994603
2.27,12.798059,0.897624,-5.1697216,-2.10218,-1.7951083,-0.6494962
2.272,12.662088,0.81465006,-5.024394,-2.1876683,-2.0734642,-0.6473498
2.274,12.529613,0.73799706,-4.8735676,-2.2675517,-2.3429153,-0.6436053
2.276,12.400962,0.6676378,-4.7186136,-2.3416882,-2.6033528,-0.6383119
2.278,12.276182,0.60345316,-4.5606747,-2.4099183,-2.8546982,-0.6315014
2.28,12.155371,0.5451813,-4.400729,-2.4720712,-3.0969408,-0.62320375
2.282,12.038656,0.49279547,-4.2399583,-2.5279837,-3.3301048,-0.61344564
2.284,11.926163,0.44596434,-4.0793447,-2.577494,-3.5542588,-0.6022748
2.286,11.81793,0.40441418,-3.9197335,-2.6204426,-3.7694988,-0.5897138
2.288,11.713994,0.36805487,-3.762055,-2.6567154,-3.9759474,-0.57583463
2.29,11.614386,0.33651543,-3.6070476,-2.6862206,-4.1737494,-0.5607089
2.292,11.519269,0.30961037,-3.4554071,-2.7089028,-4.3630486,-0.5444126
2.294,11.42861,0.28713608,-3.3076572,-2.7247472,-4.544015,-0.5270463
2.296,11.342422,0.26885796,-3.1642327,-2.7337697,-4.716821,-0.50871825
2.298,11.260698,0.25462103,-3.0255716,-2.7360222,-4.8816,-0.48955178
2.3,11.183383,0.2441616,-2.891934,-2.7315876,-5.038469,-0.4696977
2.302,11.110646,0.23744583,-2.763443,-2.7205777,-5.187532,-0.4493233
2.304,11.042223,0.23411512,-2.6404037,-2.7031224,-5.3288417,-0.42861176
2.306,10.978016,0.23411345,-2.5229402,-2.679382,-5.4623985,-0.40776622
2.308,10.918386,0.2371831,-2.4111931,-2.649537,-5.5881577,-0.3870119
2.31,10.86286,0.24346352,-2.3052459,-2.6137853,-5.7060294,-0.36658788
2.312,10.81142,0.25285625,-2.2051835,-2.5723286,-5.8158636,-0.34671807
2.314,10.763909,0.26507688,-2.111061,-2.5253863,-5.917479,-0.32762837
2.316,10.720326,0.28004503,-2.0229242,-2.4731643,-6.0106483,-0.30952096
2.318,10.680546,0.29766107,-1.9407526,-2.415868,-6.0951357,-0.2925638
2.32,10.644371,0.31786275,-1.8646376,-2.3537133,-6.170679,-0.2769016
2.322,10.611798,0.34073162,-1.7946945,-2.286889,-6.2370214,-0.26259887
2.324,10.582539,0.3661883,-1.7309552,-2.2155964,-6.2939143,-0.2496978
2.326,10.556584,0.39439344,-1.6734399,-2.1400106,-6.341142,-0.23817635
2.328,10.533872,0.42524457,-1.6223435,-2.0603218,-6.378524,-0.2279489
2.33,10.514168,0.45877957,-1.5775948,-1.9767094,-6.405941,-0.2189002
2.332,10.497375,0.49513602,-1.5393107,-1.8893449,-6.4233217,-0.21086335
2.334,10.483389,0.5343058,-1.5073978,-1.7984072,-6.4306736,-0.20365727
2.336,10.472074,0.57636404,-1.4819852,-1.7040689,-6.428073,-0.19708514
2.338,10.463376,0.6214409,-1.462926,-1.6065259,-6.41567,-0.19091976
2.34,10.457224,0.66955304,-1.4502294,-1.5059986,-6.3937063,-0.18497324
2.342,10.453664,0.7208235,-1.4437691,-1.4026935,-6.3624964,-0.17914283
2.344,10.452514,0.7753153,-1.4434974,-1.2968483,-6.322445,-0.17335331
2.346,10.4538145,0.83320546,-1.4492664,-1.1887126,-6.274004,-0.16754949
2.348,10.45761,0.89444184,-1.4607893,-1.078558,-6.217701,-0.16172433
2.35,10.463799,0.95918155,-1.4779172,-0.96667325,-6.154117,-0.15591347
2.352,10.472399,1.0274274,-1.500449,-0.85334927,-6.0838723,-0.1502037
2.354,10.483444,1.0990295,-1.528077,-0.7388963,-6.007576,-0.14471424
2.356,10.496927,1.1740675,-1.5604948,-0.62361085,-5.9258447,-0.1396029
2.358,10.512718,1.2524939,-1.5973576,-0.50778496,-5.8392754,-0.13503826
2.36,10.531042,1.33411,-1.6384369,-0.3916862,-5.7484455,-0.1312145
2.362,10.551842,1.4188225,-1.6832837,-0.27555603,-5.6538563,-0.12832355
2.364,10.574984,1.5065029,-1.731598,-0.15960956,-5.555991,-0.1265428
2.366,10.600509,1.5969653,-1.782898,-0.044021964,-5.4552894,-0.12605119
2.368,10.628428,1.6900394,-1.8368968,0.07105172,-5.3521585,-0.12697697
2.37,10.658579,1.785423,-1.8933098,0.18549013,-5.246973,-0.12940645
2.372,10.691022,1.8828557,-1.9516928,0.29919088,-5.1400986,-0.13337457
2.374,10.725664,1.9822016,-2.0118175,0.41206384,-5.0319,-0.13887763
2.376,10.76239,2.0831099,-2.0734346,0.52402246,-4.9227457,-0.14585745
2.378,10.801239,2.185311,-2.1362195,0.6350039,-4.813002,-0.15421355
2.38,10.842107,2.288495,-2.200061,0.7449468,-4.703049,-0.16383004
2.382,10.884846,2.3925796,-2.2647262,0.85379833,-4.5932813,-0.17456853
2.384,10.929627,2.4972796,-2.3300297,0.9615105,-4.4840856,-0.18630707
2.386,10.976184,2.602381,-2.3957572,1.068043,-4.375873,-0.19891226
2.388,11.024505,2.7077224,-2.461848,1.1733581,-4.269025,-0.21228135
2.39,11.074523,2.813149,-2.5281894,1.2774212,-4.16392,-0.22631729
2.392,11.126467,2.9185572,-2.5945754,1.3802125,-4.0609264,-0.2409637
2.394,11.180144,3.02378,-2.6609294,1.4817152,-3.9603806,-0.2561283
2.396,11.235542,3.1288168,-2.7272048,1.5819044,-3.862607,-0.27168274
2.398,11.292582,3.2334788,-2.793164,1.6807783,-3.7678833,-0.287539
2.4,11.351517,3.337837,-2.8587186,1.7783415,-3.676478,-0.30363214
2.402,11.412098,3.4418287,-2.9237552,1.8746103,-3.5886197,-0.31987488
2.404,11.474423,3.5455976,-2.9880946,1.9696066,-3.5044956,-0.33616936
2.406,11.538597,3.649115,-3.0515938,2.0633605,-3.424275,-0.35240066
2.408,11.604499,3.7524142,-3.1141765,2.155906,-3.3481097,-0.36845893
2.41,11.67219,3.8557875,-3.1754718,2.2472754,-3.2761393,-0.38424283
2.412,11.741602,3.9593267,-3.2353978,2.337495,-3.208475,-0.3996547
2.414,11.812813,4.0633664,-3.2936943,2.4265802,-3.1452339,-0.41461474
2.416,11.885721,4.168036,-3.3498569,2.514547,-3.086551,-0.42906457
2.418,11.959999,4.2736483,-3.4037547,2.6013947,-3.0325303,-0.44294393
2.42,12.035946,4.3803425,-3.454932,2.6871047,-2.9833097,-0.4561954
2.422,12.113327,4.488557,-3.5030282,2.771668,-2.9390192,-0.46875983
2.424,12.191987,4.5988436,-3.5476265,2.8550525,-2.8998072,-0.48058254
2.426,12.271674,4.711606,-3.5881872,2.9372423,-2.8658192,-0.49157786
2.428,12.352151,4.8272204,-3.6242235,3.0182374,-2.837203,-0.50164086
2.43,12.433163,4.946157,-3.6552136,3.098045,-2.8140922,-0.5106594
2.432,12.514414,5.0687485,-3.680448,3.176696,-2.7965922,-0.51849777
2.434,12.595619,5.195565,-3.6995664,3.2542367,-2.784799,-0.52499163
2.436,12.676355,5.326986,-3.7117953,3.3307476,-2.7787704,-0.52996075
2.438,12.7561655,5.4635067,-3.7166345,3.4063303,-2.7785177,-0.53322047
2.44,12.834589,5.6055236,-3.7135618,3.4810944,-2.784016,-0.53457505
2.442,12.911254,5.7533665,-3.7018728,3.5551586,-2.7952075,-0.53383434
2.444,12.985579,5.9074335,-3.6811738,3.6286325,-2.8119833,-0.5308247
2.446,13.057099,6.0679855,-3.6507893,3.701621,-2.8341875,-0.5253856
2.448,13.125156,6.2351003,-3.6104789,3.774228,-2.861631,-0.51738435
2.45,13.189133,6.4091587,-3.5596523,3.8465223,-2.8940988,-0.506711
2.452,13.248383,6.5901394,-3.498012,3.9185553,-2.9313498,-0.49327946
2.454,13.30232,6.7780695,-3.4252563,3.990364,-2.9731278,-0.47702932
2.456,13.350256,6.9728594,-3.3411212,4.0619664,-3.0191565,-0.4579209
2.458,13.391427,7.1746144,-3.2454293,4.1333675,-3.06917,-0.4359342
2.46,13.425124,7.3831825,-3.1379962,4.2045636,-3.1228714,-0.41107452
2.462,13.450575,7.598337,-3.0187507,4.275554,-3.1799726,-0.38335574
2.464,13.466953,7.8200245,-2.8875651,4.3463163,-3.240149,-0.35279703
2.466,13.473355,8.047888,-2.7445297,4.4168572,-3.303095,-0.31943
2.468,13.468763,8.281807,-2.5895724,4.487178,-3.3684692,-0.28326786
2.47,13.451941,8.521461,-2.4226646,4.557294,-3.4358938,-0.24432969
2.472,13.422054,8.766753,-2.2439258,4.627223,-3.5050044,-0.20265174
2.474,13.37795,9.017377,-2.0528808,4.697003,-3.575396,-0.15823472
2.476,13.31843,9.272859,-1.8493662,4.766674,-3.6466615,-0.11109722
2.478,13.24161,9.533455,-1.6329503,4.8362923,-3.7183921,-0.06122482
2.48,13.147846,9.797884,-1.4048643,4.905898,-3.790186,-0.008605599
2.482,13.033928,10.066155,-1.1633053,4.975534,-3.86169,0.04677224
2.484,12.898671,10.33815,-0.90790224,5.045221,-3.9325697,0.104938865
2.486,12.740969,10.613323,-0.6384926,5.1149535,-4.0025373,0.16592312
2.488,12.5591345,10.891633,-0.35439444,5.184728,-4.0713406,0.22973204
2.49,12.351767,11.173044,-0.054886818,5.2544856,-4.1387672,0.29637623
2.492,12.117072,11.457594,0.26078367,5.3241735,-4.2046223,0.36587465
2.494,11.853442,11.744768,0.5933757,5.3937283,-4.26871,0.43823874
2.496,11.55989,12.03353,0.943779,5.4630623,-4.3308153,0.51349366
2.498,11.235437,12.32283,1.3130002,5.5321336,-4.3906507,0.59168947
2.5,10.879132,12.611673,1.7022505,5.600915,-4.447816,0.6729083
2.502,10.490055,12.89909,2.1127286,5.6694303,-4.501771,0.7572701
2.504,10.068212,13.184011,2.5456553,5.737769,-4.5518303,0.84491813
2.506,9.613972,13.465317,3.0022016,5.8060255,-4.5970616,0.9360106
2.508,9.128104,13.741514,3.4832354,5.8743052,-4.636217,1.0307336
2.51,8.611612,14.011029,3.9897037,5.9428353,-4.6679296,1.1294127
2.512,8.066657,14.272344,4.522526,6.0118685,-4.6905665,1.2324843
2.514,7.4956574,14.523224,5.0816097,6.081748,-4.702131,1.3403248
2.516,6.901757,14.761092,5.6666884,6.152798,-4.700463,1.4533218
2.518,6.2885747,14.983339,6.2772408,6.2253876,-4.683257,1.571877
2.52,5.660662,15.187069,6.9121847,6.2999587,-4.647968,1.6963544
2.522,5.02303,15.369244,7.569971,6.3770967,-4.5918727,1.8270365
2.524,4.381469,15.526668,8.24859,6.4574556,-4.5121784,1.9641473
2.526,3.7422962,15.656324,8.945469,6.5417438,-4.406087,2.1078906
2.528,3.111877,15.755107,9.657754,6.630782,-4.2708564,2.2584202
2.53,2.4971836,15.820002,10.381961,6.7255316,-4.103791,2.415803
2.532,1.905381,15.848137,11.114166,6.827119,-3.9022617,2.5799382
2.534,1.3437462,15.836952,11.849936,6.936757,-3.6638448,2.7505672
2.536,0.81942433,15.784035,12.584561,7.055634,-3.38651,2.9272287
2.538,0.33904845,15.687562,13.313179,7.184746,-3.0687757,3.1092513
2.54,-0.0913336,15.546153,14.030924,7.324744,-2.7099285,3.2958004
2.542,-0.4663179,15.359178,14.732687,7.4757853,-2.3102756,3.4859648
2.544,-0.78157777,15.126552,15.413705,7.6373043,-1.8710923,3.6787453
2.546,-1.0331933,14.848931,16.069027,7.8080163,-1.3947204,3.873282
2.548,-1.2190002,14.52787,16.694199,7.985959,-0.8844905,4.068959
2.55,-1.3379163,14.16549,17.285229,8.168611,-0.34453142,4.2653694
2.552,-1.3901489,13.764574,17.83821,8.352971,0.22042644,4.462275
2.554,-1.3770412,13.328454,18.349485,8.535806,0.8054011,4.659559
2.556,-1.3013754,12.861118,18.81583,8.713795,1.4054865,4.85711
2.558,-1.1669084,12.36697,19.234379,8.883722,2.0160909,5.0547004
2.56,-0.9782629,11.850544,19.602173,9.042619,2.6330614,5.251854
2.562,-0.741554,11.317453,19.91643,9.18781,3.2527285,5.4477777
2.564,-0.46373934,10.77384,20.174362,9.316896,3.8720808,5.641305
2.566,-0.15246245,10.225438,20.373325,9.427851,4.4884424,5.831047
2.568,0.1844703,9.677982,20.510849,9.518949,5.099353,6.01558
2.57,0.53910106,9.13693,20.584925,9.588802,5.7026515,6.19339
2.572,0.90296936,8.607592,20.593733,9.636258,6.296239,6.3629704
2.574,1.2683139,8.095047,20.53562,9.660292,6.8778176,6.5228753
2.576,1.6269975,7.604524,20.409508,9.660025,7.444865,6.671711
2.578,1.9716867,7.1409044,20.21468,9.634793,7.99459,6.808059
2.58,2.2968946,6.707293,19.951283,9.584144,8.523883,6.930437
2.582,2.5967157,6.3065605,19.619856,9.5077095,9.029257,7.037324
2.584,2.866443,5.941115,19.221163,9.405215,9.506691,7.1271973
2.586,3.1024036,5.6127405,18.75679,9.2765465,9.95176,7.198592
2.588,3.3025172,5.3216724,18.229017,9.121845,10.359848,7.2500963
2.59,3.463542,5.069118,17.642164,8.941547,10.726284,7.2804756
2.592,3.5867918,4.8536787,16.998297,8.736376,11.046528,7.2886295
2.594,3.6720226,4.6736116,16.302277,8.507372,11.316473,7.273588
2.596,3.7196286,4.527178,15.5597,8.25584,11.532772,7.2345266
2.598,3.731489,4.411592,14.776216,7.983361,11.692844,7.170924
2.6,3.7099156,4.3237224,13.957947,7.6916256,11.795209,7.082547
2.602,3.6578343,4.260037,13.111635,7.382409,11.8396,6.9696045
2.604,3.578309,4.2176566,12.244212,7.057558,11.826944,6.8329344
2.606,3.4744942,4.1938057,11.3625145,6.7189975,11.75927,6.6740108
2.608,3.349513,4.1855397,10.473563,6.3687873,11.639556,6.4949656
2.61,3.2071114,4.1896567,9.584145,6.0090666,11.47148,6.2986803
2.612,3.0508156,4.2031784,8.70072,5.642052,11.259074,6.088802
2.614,2.883618,4.2235994,7.829671,5.270011,11.006536,5.8694735
2.616,2.7083435,4.248706,6.9768715,4.8953147,10.718035,5.645154
2.618,2.5278215,4.276784,6.147687,4.5204134,10.3975315,5.4203215
2.62,2.344588,4.3065157,5.3468513,4.147853,10.048776,5.199191
2.622,2.1604314,4.3367276,4.578391,3.78027,9.675324,4.9854493
2.624,1.9771688,4.367056,3.846305,3.420278,9.280537,4.781962
2.626,1.796103,4.397443,3.1534798,3.0704865,8.867841,4.5905857
2.628,1.6182485,4.4277368,2.5020823,2.7333393,8.440842,4.4121084
2.63,1.444155,4.4578724,1.8936008,2.4110217,8.003325,4.246269
2.632,1.2739334,4.48779,1.3288453,2.105297,7.559307,4.091894
2.634,1.1074581,4.5174317,0.80807483,1.8174025,7.11289,3.9470413
2.636,0.9444105,4.5465813,0.33075902,1.5480253,6.6681824,3.8092613
2.638,0.784289,4.574915,-0.10394141,1.2972556,6.2291594,3.6758504
2.64,0.6261097,4.602219,-0.49731368,1.0645921,5.799474,3.5440974
2.642,0.4689756,4.628112,-0.8510258,0.8490248,5.3822494,3.4115026
2.644,0.31172398,4.6520524,-1.167031,0.6492213,4.9800806,3.2759557
2.646,0.15298122,4.673565,-1.447468,0.46369648,4.5949583,3.1358676
2.648,-0.00807561,4.6918826,-1.6947598,0.29091036,4.2282066,2.9902797
2.65,-0.17234209,4.706427,-1.9114406,0.129421,3.880518,2.8387938
2.652,-0.34091416,4.7164025,-2.0999677,-0.022014499,3.55202,2.681527
2.654,-0.5146113,4.7214384,-2.2628329,-0.16445553,3.2423587,2.5190177
2.656,-0.6943325,4.7208233,-2.4023585,-0.29877782,2.9507089,2.3521667
2.658,-0.8804971,4.714275,-2.5207727,-0.42570925,2.6759248,2.1822011
2.66,-1.0735024,4.7016544,-2.6202466,-0.54589,2.4166033,2.010612
2.662,-1.2737331,4.6831155,-2.7025695,-0.6599208,2.1711152,1.8390404
2.664,-1.4812485,4.6590242,-2.7689419,-0.7683483,1.9377348,1.6690768
2.666,-1.6958758,4.6298466,-2.8205647,-0.8716775,1.7147703,1.5021741
2.668,-1.9177147,4.596194,-2.8581872,-0.9704065,1.5005808,1.3396696
2.67,-2.1466446,4.558889,-2.8820798,-1.0650673,1.2936292,1.1826825
2.672,-2.3818903,4.5183434,-2.8922641,-1.1562169,1.0925577,1.0320523
2.674,-2.6226916,4.474859,-2.8883686,-1.2444228,0.8961688,0.88837516
2.676,-2.8681931,4.4292307,-2.8699808,-1.3302346,0.70348245,0.7520021
2.678,-3.1178086,4.3822627,-2.8367782,-1.4141265,0.51378596,0.6231246
2.68,-3.3706176,4.334832,-2.7884834,-1.4965234,0.32651758,0.5018068
2.682,-3.625607,4.2875986,-2.724695,-1.5777533,0.14135313,0.38798106
2.684,-3.881856,4.240802,-2.645071,-1.6580341,-0.041805804,0.28146982
2.686,-4.1381063,4.1942663,-2.5493102,-1.7374539,-0.22287446,0.1820007
2.688,-4.393244,4.1477623,-2.437377,-1.8159515,-0.40159395,0.089218676
2.69,-4.647256,4.1021743,-2.3093462,-1.8933384,-0.5775618,0.002687633
2.692,-4.899006,4.0574574,-2.165265,-1.9693112,-0.7502732,-0.078089416
2.694,-5.1473,4.013439,-2.0051184,-2.04346,-0.91915804,-0.15365869
2.696,-5.3914385,3.9699807,-1.828944,-2.1153004,-1.0835748,-0.22459334
2.698,-5.630688,3.9269004,-1.6369855,-2.1842766,-1.2428541,-0.29146403
2.7,-5.8641443,3.8839028,-1.4297729,-2.2498033,-1.396316,-0.35482025
2.702,-6.0912704,3.840869,-1.2080035,-2.3112946,-1.5432788,-0.41515404
2.704,-6.311311,3.79775,-0.97249436,-2.368194,-1.6830617,-0.47289485
2.706,-6.523575,3.754129,-0.7242391,-2.4199727,-1.8149976,-0.52838737
2.708,-6.7273135,3.7097328,-0.46451712,-2.4661815,-1.9384613,-0.5818497
2.71,-6.9221168,3.664434,-0.19449854,-2.5064597,-2.0528617,-0.63341993
2.712,-7.1071796,3.618065,0.08446169,-2.5405464,-2.1576645,-0.6831242
2.714,-7.2821903,3.5703306,0.37092376,-2.5682805,-2.252397,-0.7309058
2.716,-7.4468756,3.5211575,0.6634333,-2.5895956,-2.3366568,-0.77665794
2.718,-7.6006165,3.4701962,0.9603367,-2.6045015,-2.4101157,-0.8202375
2.72,-7.7432785,3.4174433,1.2600105,-2.6130607,-2.4725413,-0.86148953
2.722,-7.874718,3.3627224,1.5608332,-2.6154013,-2.5237908,-0.90026593
2.724,-7.9945145,3.305828,1.8611047,-2.6116624,-2.563823,-0.9364553
2.726,-8.1026325,3.2467299,2.1593063,-2.6019926,-2.5926657,-0.96997845
2.728,-8.198971,3.1855044,2.4539807,-2.5865598,-2.610438,-1.0008116
2.73,-8.283542,3.1221888,2.7435105,-2.565539,-2.6173115,-1.0289841
2.732,-8.356126,3.0569263,3.026485,-2.5391247,-2.6135488,-1.054584
2.734,-8.416823,2.9898977,3.3015544,-2.5075498,-2.5994613,-1.0777382
2.736,-8.465794,2.9214826,3.5674646,-2.4710317,-2.575414,-1.0985799
2.738,-8.502833,2.8518808,3.8229218,-2.4298117,-2.541816,-1.1172751
2.74,-8.528233,2.7812672,4.066787,-2.3841538,-2.4991186,-1.1339952
2.742,-8.542091,2.7100563,4.2982216,-2.334324,-2.4477835,-1.1489068
2.744,-8.544642,2.6385746,4.5162773,-2.2805836,-2.388313,-1.1621851
2.746,-8.536152,2.5668855,4.7203646,-2.2231934,-2.321198,-1.1739806
2.748,-8.516921,2.4954243,4.909805,-2.1624053,-2.246956,-1.1844385
2.75,-8.4871645,2.4243548,5.0840874,-2.098466,-2.166115,-1.193697
2.752,-8.447355,2.3539145,5.2429094,-2.0316296,-2.07922,-1.2018551
2.754,-8.397867,2.2843866,5.386026,-1.9621352,-1.9868064,-1.2089965
2.756,-8.339081,2.2161632,5.5132246,-1.8902293,-1.8894104,-1.2151796
2.758,-8.271512,2.149539,5.6244087,-1.8161503,-1.7875537,-1.2204307
2.76,-8.195624,2.0847683,5.7195854,-1.7401643,-1.681765,-1.2247822
2.762,-8.111827,2.0221775,5.798894,-1.6625155,-1.5725379,-1.2282475
2.764,-8.020567,1.9619284,5.862474,-1.5834613,-1.4603703,-1.2308439
2.766,-7.922534,1.9046061,5.910594,-1.5032706,-1.3457377,-1.2325878
2.768,-7.8181763,1.8502212,5.9437194,-1.4222158,-1.2291138,-1.2335151
2.77,-7.707865,1.7991213,5.962144,-1.3405622,-1.1109707,-1.233667
2.772,-7.5921736,1.7516134,5.9665337,-1.2585863,-0.99177825,-1.2330999
2.774,-7.47167,1.7079265,5.9573727,-1.1765627,-0.8720289,-1.2318869
2.776,-7.3468513,1.6682978,5.9353333,-1.0947509,-0.7522307,-1.2301359
2.778,-7.218003,1.6329832,5.901085,-1.0134194,-0.6329182,-1.2279817
2.78,-7.0856256,1.6021655,5.855422,-0.9328417,-0.51464957,-1.2255722
2.782,-6.9501586,1.5758905,5.799205,-0.853279,-0.39800218,-1.2230848
2.784,-6.811964,1.5543091,5.7331634,-0.7749982,-0.28356948,-1.2207122
2.786,-6.6715436,1.5375233,5.6581535,-0.6982614,-0.17192276,-1.2186444
2.788,-6.5291653,1.5256016,5.5750823,-0.6233252,-0.06361194,-1.2170742
2.79,-6.3853097,1.5185599,5.4847236,-0.55043566,0.040855125,-1.2161789
2.792,-6.240299,1.5164057,5.3879137,-0.47980148,0.14103583,-1.2161012
2.794,-6.094398,1.5192851,5.2856283,-0.4116029,0.23656046,-1.216982
2.796,-5.9477324,1.5270703,5.1785617,-0.345983,0.32712355,-1.2189393
2.798,-5.8007097,1.5397388,5.067613,-0.2830527,0.41250795,-1.2220545
2.8,-5.6535845,1.5572588,4.953518,-0.22290221,0.49254224,-1.2264076
2.802,-5.506388,1.5795532,4.836908,-0.16557854,0.5671303,-1.2320576
2.804,-5.359429,1.6065273,4.7185564,-0.111126125,0.6362278,-1.2390581
2.806,-5.2127037,1.6380424,4.599035,-0.059573352,0.69982123,-1.2474747
2.808,-5.0662994,1.6740448,4.478887,-0.0109606385,0.7579245,-1.2573396
2.81,-4.9202557,1.7143784,4.3587465,0.0346756,0.81058186,-1.2686849
2.812,-4.7746716,1.7590923,4.2389555,0.07729721,0.8578772,-1.281533
2.814,-4.6294856,1.8078016,4.119912,0.116876066,0.89991647,-1.2958905
2.816,-4.484569,1.8604598,4.001957,0.15337905,0.93682545,-1.3117425
2.818,-4.3399725,1.9168502,3.8854399,0.1868012,0.96874255,-1.3290431
2.82,-4.195615,1.9768689,3.7706246,0.21716619,0.9958205,-1.3477514
2.822,-4.0514803,2.0403025,3.6575632,0.24450696,1.0182135,-1.3678006
2.824,-3.9074383,2.1070445,3.5465045,0.26888174,1.036093,-1.3891231
2.826,-3.7631872,2.1767395,3.4376273,0.29036844,1.0496206,-1.411652
2.828,-3.6188416,2.2493665,3.3309236,0.30905056,1.058966,-1.4353075
2.83,-3.4742296,2.3246467,3.22654,0.3250062,1.0643038,-1.4599867
2.832,-3.329223,2.4023988,3.1245375,0.33832964,1.0658134,-1.4856052
2.834,-3.1838188,2.482568,3.0249557,0.349115,1.063688,-1.5120798
2.836,-3.0378196,2.5647793,2.9277403,0.35745084,1.0581331,-1.5393194
2.838,-2.8912349,2.6488657,2.8329802,0.36340994,1.0493433,-1.5672446
2.84,-2.7482367,2.7323618,2.7424345,0.36706752,1.0375246,-1.5958011
2.842,-2.6057396,2.8167758,2.6546535,0.36850232,1.022887,-1.6249478
2.844,-2.4638906,2.901745,2.5696745,0.36777985,1.0056252,-1.6546836
2.846,-2.3228223,2.9868565,2.48763,0.36495787,0.98591876,-1.6850363
2.848,-2.1830757,3.071825,2.4085948,0.36009026,0.9639367,-1.7160598
2.85,-2.0448003,3.1563272,2.3325908,0.35320634,0.9398195,-1.747843
2.852,-1.9083726,3.2399848,2.2595866,0.34433454,0.91368735,-1.7805051
2.854,-1.7741699,3.3223863,2.1896532,0.33348882,0.8856562,-1.8141721
2.856,-1.642544,3.4033651,2.122708,0.32065326,0.8558078,-1.8489834
2.858,-1.5137991,3.4824188,2.0588295,0.3058048,0.82419974,-1.885054
2.86,-1.38826,3.5592744,1.9980295,0.2888931,0.7909047,-1.9224828
2.862,-1.2662864,3.633739,1.9402921,0.26986706,0.75597256,-1.9613376
2.864,-1.1481662,3.7056115,1.8856225,0.24868155,0.71944356,-2.0016637
2.866,-1.0340304,3.774577,1.8339669,0.22527826,0.68135476,-2.043461
2.868,-0.92419946,3.840585,1.7853392,0.20101935,0.64346594,-2.0849206
2.87,-0.8188199,3.9034655,1.7396464,0.1753524,0.60509545,-2.1267629
2.872,-0.7179288,3.9631734,1.696742,0.1486072,0.5666721,-2.1685417
2.874,-0.62156594,4.019663,1.6566172,0.12118745,0.52865094,-2.2097468
2.876,-0.5297986,4.072913,1.6191337,0.09355581,0.49151015,-2.2498522
2.878,-0.4425425,4.123051,1.5841193,0.066176414,0.45570508,-2.2883525
2.88,-0.3598812,4.170133,1.5515351,0.039492726,0.42164186,-2.3248148
2.882,-0.28163055,4.2142496,1.52119,0.01389575,0.38964695,-2.3589056
2.884,-0.20765,4.255468,1.4929938,-0.010311604,0.3599273,-2.3904183
2.886,-0.13782775,4.294018,1.4668345,-0.032931805,0.3325929,-2.4192462
2.888,-0.071971714,4.329956,1.442522,-0.05385554,0.30765486,-2.445405
2.89,-0.009922564,4.3634367,1.4199193,-0.07306075,0.28503877,-2.4689932
