Time_s_,Acc_x_m_s_2_,Acc_y_m_s_2_,Acc_z_m_s_2_,Gyro_x_1_s_,Gyro_y_1_s_,Gyro_z_1_s_
0,1.0560433,0.53614306,-0.021710351,0.11692216,-0.21085252,-0.1716182
0.002,1.0444378,0.5386492,-0.026367087,0.11725786,-0.20928939,-0.17067267
0.004,1.0322019,0.541119,-0.031338125,0.11760687,-0.20774344,-0.16960777
0.006,1.0194477,0.5436449,-0.036691014,0.11795531,-0.20625527,-0.16842766
0.008,1.0060751,0.5463575,-0.042196162,0.11828601,-0.2048998,-0.16713074
0.01,0.9922589,0.5491518,-0.04794084,0.11858544,-0.20376465,-0.16571909
0.012,0.97782964,0.5520504,-0.054051075,0.118820086,-0.20294635,-0.16420908
0.014,0.9629364,0.5550854,-0.06057723,0.11897676,-0.20254353,-0.16262639
0.016,0.94776607,0.5581099,-0.06759501,0.11903621,-0.20264734,-0.16100663
0.018,0.93232954,0.56109846,-0.075129375,0.11898537,-0.20332952,-0.15938608
0.02,0.9166955,0.56403935,-0.0831333,0.11882342,-0.20462044,-0.15780365
0.022,0.90109956,0.5669168,-0.09155086,0.118553996,-0.20651397,-0.15629679
0.024,0.88565046,0.5696856,-0.100480594,0.118202746,-0.2089588,-0.15489016
0.026,0.870532,0.5722599,-0.109831065,0.11779982,-0.2118528,-0.15360776
0.028,0.8558749,0.5745927,-0.119736545,0.117389716,-0.2150469,-0.15242492
0.03,0.84180796,0.57680345,-0.13023984,0.11699322,-0.21845926,-0.15140133
0.032,0.8285461,0.57869184,-0.14126715,0.116664834,-0.22191137,-0.15055275
0.034,0.8162685,0.5802225,-0.15283307,0.11643163,-0.2252757,-0.14987524
0.036,0.8052449,0.5813362,-0.1649796,0.11630803,-0.22844599,-0.14936504
0.038,0.7953868,0.58212477,-0.17762873,0.11630639,-0.231347,-0.14903958
0.04,0.7869378,0.5824126,-0.19078985,0.11641976,-0.23392686,-0.14890055
0.042,0.7798516,0.5821972,-0.2044909,0.11663155,-0.23619694,-0.14895521
0.044,0.7742677,0.5814792,-0.21865365,0.11692007,-0.23817605,-0.14920713
0.046,0.7702288,0.58019686,-0.23319289,0.11726021,-0.23991054,-0.14965121
0.048,0.7676225,0.5783349,-0.24801227,0.117623895,-0.24143764,-0.15025426
0.05,0.7665471,0.5759104,-0.2630834,0.11799795,-0.24281447,-0.150979
0.052,0.7668387,0.5729198,-0.27828804,0.11838164,-0.24406835,-0.15177473
0.054,0.76840854,0.5693391,-0.29360282,0.11879383,-0.24520841,-0.15255734
0.056,0.7707931,0.56520355,-0.3091784,0.11927104,-0.24623,-0.15324089
0.058,0.7742716,0.5604312,-0.3246225,0.11983717,-0.24711944,-0.15374987
0.06,0.77880645,0.5550611,-0.33986968,0.120534144,-0.24785487,-0.1539956
0.062,0.7842064,0.5490641,-0.35476238,0.121399105,-0.24841616,-0.15390776
0.064,0.79016274,0.54247063,-0.36912256,0.12244524,-0.24879585,-0.15342678
0.066,0.7966091,0.53533137,-0.38272637,0.12368307,-0.24901305,-0.15251896
0.068,0.8032607,0.5275775,-0.39547822,0.12508959,-0.24909787,-0.15116869
0.07,0.8099916,0.51939815,-0.4072903,0.1266408,-0.24910198,-0.14938718
0.072,0.81663615,0.5107367,-0.41818622,0.12828504,-0.2490844,-0.14720276
0.074,0.8230666,0.501661,-0.4280016,0.12998033,-0.24912447,-0.14467469
0.076,0.82905275,0.49231076,-0.43666458,0.13167639,-0.24927735,-0.14185528
0.078,0.83451873,0.4828085,-0.444002,0.13332172,-0.249586,-0.13882387
0.08,0.8392748,0.47306806,-0.44993842,0.13486713,-0.25008902,-0.13566399
0.082,0.8432815,0.46327937,-0.4543928,0.13627942,-0.25079218,-0.13244997
0.084,0.8464224,0.4534995,-0.45737234,0.13755034,-0.2516915,-0.12924412
0.086,0.8486649,0.44384015,-0.45875075,0.13866583,-0.25278044,-0.12609746
0.088,0.84995073,0.4343582,-0.458454,0.13963294,-0.2540115,-0.12304209
0.09,0.8502371,0.42502084,-0.45644534,0.14046298,-0.25535667,-0.12010362
0.092,0.84940183,0.41604173,-0.452542,0.14117275,-0.25677294,-0.11727151
0.094,0.8475608,0.40733665,-0.4467351,0.14178728,-0.2582254,-0.11452213
0.096,0.8445371,0.39902684,-0.43896613,0.14232405,-0.2596616,-0.1118217
0.098,0.8404022,0.39108598,-0.42926344,0.14280036,-0.26104936,-0.10911787
0.1,0.8351798,0.3835383,-0.4177942,0.14322188,-0.26237288,-0.106372625
0.102,0.82881933,0.3763664,-0.40443817,0.14359246,-0.2636261,-0.103553124
0.104,0.82134426,0.36959323,-0.38925683,0.14391571,-0.2647931,-0.10063229
0.106,0.81287146,0.36307296,-0.3722903,0.14416763,-0.2658734,-0.09759922
0.108,0.80341226,0.35688874,-0.35358894,0.14434037,-0.26683062,-0.09446446
0.11,0.7930526,0.3509218,-0.3333772,0.14444242,-0.26759925,-0.09124056
0.112,0.78168356,0.34517315,-0.311849,0.14448597,-0.26808447,-0.087953925
0.114,0.7694529,0.33955985,-0.28925484,0.14448202,-0.26818466,-0.084648125
0.116,0.7561924,0.33396536,-0.26578155,0.14442675,-0.26778537,-0.08137394
0.118,0.74214065,0.32820848,-0.24174716,0.144332,-0.2667879,-0.07818273
0.12,0.7271868,0.3222252,-0.2172205,0.14418583,-0.26512447,-0.07511726
0.122,0.7113834,0.31603792,-0.19227299,0.14397714,-0.2627569,-0.07222634
0.124,0.69466144,0.30948785,-0.1671865,0.14368483,-0.25968617,-0.069552965
0.126,0.67680514,0.30261526,-0.14220463,0.1432818,-0.25593847,-0.06715146
0.128,0.6579981,0.2953752,-0.11763768,0.14272922,-0.2515653,-0.06504675
0.13,0.6381946,0.2878229,-0.0937427,0.14199871,-0.24663861,-0.06327641
0.132,0.6173173,0.27988464,-0.07070804,0.14106952,-0.24123526,-0.061835833
0.134,0.5952839,0.2716731,-0.048668675,0.13994937,-0.23539227,-0.06070724
0.136,0.57210875,0.26320162,-0.027925,0.1386419,-0.22912474,-0.05986374
0.138,0.5477748,0.25447312,-0.008516331,0.13717423,-0.22242714,-0.059257824
0.14,0.5223117,0.245438,0.009600698,0.13558047,-0.21527542,-0.058831308
0.142,0.49570993,0.23621614,0.02619753,0.13389736,-0.20767103,-0.058517613
0.144,0.46802884,0.2269238,0.041182473,0.13216555,-0.19960615,-0.058239188
0.146,0.43921,0.2175691,0.05479289,0.13041888,-0.19111943,-0.0579236
0.148,0.40958604,0.20805813,0.066950284,0.12867516,-0.18226862,-0.057524327
0.15,0.37909785,0.19851372,0.0777925,0.12694761,-0.17314169,-0.056989264
0.152,0.34802336,0.18896344,0.08744568,0.12523665,-0.16384819,-0.056307487
0.154,0.31638208,0.17930324,0.09598464,0.123531446,-0.15451014,-0.05546452
0.156,0.28435957,0.16962424,0.10343949,0.12178989,-0.14526564,-0.054479156
0.158,0.252284,0.15976082,0.11000202,0.11997502,-0.13626519,-0.053395268
0.16,0.2201275,0.14967702,0.11585394,0.11804719,-0.12763317,-0.052255668
0.162,0.18815903,0.13933787,0.12132566,0.115959354,-0.11949568,-0.051122207
0.164,0.15656036,0.12869075,0.12663223,0.113662355,-0.11193786,-0.050054945
0.166,0.12546287,0.11769912,0.13190332,0.11114173,-0.10499017,-0.04911773
0.168,0.09513156,0.106282935,0.13735533,0.10838405,-0.098627746,-0.0483592
0.17,0.065499075,0.09428434,0.14317591,0.10539845,-0.092794195,-0.047818165
0.172,0.036668476,0.08186065,0.14954008,0.102198765,-0.0873878,-0.0475119
0.174,0.008838031,0.0688883,0.15649578,0.098816365,-0.08228111,-0.047435034
0.176,-0.01805027,0.05535574,0.16409759,0.09527215,-0.07734729,-0.047581982
0.178,-0.043904044,0.041186303,0.1726047,0.09159604,-0.07244475,-0.047916714
0.18,-0.06878021,0.026390802,0.18224889,0.08782226,-0.06745504,-0.048402615
0.182,-0.092834786,0.011040427,0.19303384,0.083963856,-0.06224385,-0.048995018
0.184,-0.11613008,-0.004825104,0.20489696,0.080036834,-0.05670847,-0.04965512
0.186,-0.13879387,-0.021083247,0.21781719,0.07604328,-0.0507491,-0.05035041
0.188,-0.16117263,-0.037570108,0.23173474,0.07199299,-0.04429175,-0.05103299
0.19,-0.1833729,-0.05416009,0.24671541,0.06790817,-0.037261777,-0.051659074
0.192,-0.20567495,-0.070642285,0.2626591,0.06380211,-0.029581822,-0.052184373
0.194,-0.2281841,-0.08690818,0.27965534,0.059716087,-0.021180527,-0.052556407
0.196,-0.25106192,-0.1027918,0.29757056,0.05568829,-0.011974912,-0.052735962
0.198,-0.27462432,-0.11811726,0.3162422,0.051752742,-0.0019244011,-0.05267752
0.2,-0.2990333,-0.13276805,0.33557472,0.04793602,0.008984337,-0.052353658
0.202,-0.32435495,-0.14664188,0.35540143,0.044252302,0.020709334,-0.051733926
0.204,-0.3508027,-0.15958133,0.37581575,0.04068455,0.03316844,-0.050820284
0.206,-0.37840536,-0.17157018,0.39671645,0.03720605,0.046219364,-0.049625542
0.208,-0.4071819,-0.1824385,0.41796526,0.03376707,0.059685916,-0.04819416
0.21,-0.4371349,-0.19215514,0.4396075,0.030311689,0.07336323,-0.046573255
0.212,-0.46831292,-0.200761,0.46150613,0.026771016,0.08704637,-0.044817816
0.214,-0.5005248,-0.20829725,0.48364612,0.023081046,0.10053274,-0.043024372
0.216,-0.53384715,-0.21475226,0.5059686,0.019191936,0.1136588,-0.041278336
0.218,-0.56811833,-0.22032756,0.52831566,0.015076648,0.12630731,-0.03966154
0.22,-0.60303664,-0.2249602,0.55073255,0.010716561,0.13840921,-0.038254354
0.222,-0.63853586,-0.22871995,0.57328063,0.00612035,0.14997229,-0.037148066
0.224,-0.6744046,-0.23170538,0.59604937,0.0013114847,0.16105588,-0.036410213
0.226,-0.71044934,-0.23411691,0.619011,-0.003685739,0.17175312,-0.036110524
0.228,-0.74660105,-0.2359788,0.6420703,-0.008850887,0.1821834,-0.03629945
0.23,-0.78264695,-0.23730664,0.6650612,-0.014173571,0.19246559,-0.03700594
0.232,-0.8182867,-0.23835832,0.6879575,-0.019647494,0.20271508,-0.038261052
0.234,-0.85358846,-0.23908602,0.7108304,-0.025279604,0.21305048,-0.04004789
0.236,-0.8882611,-0.23965572,0.733603,-0.031079706,0.22356232,-0.04236915
0.238,-0.92251176,-0.24015084,0.7562349,-0.037070274,0.23435105,-0.0451919
0.24,-0.95626426,-0.2406478,0.7787169,-0.043264035,0.24551423,-0.048470438
0.242,-0.9895363,-0.24112676,0.8010181,-0.04968717,0.2571439,-0.052155543
0.244,-1.0222607,-0.2416647,0.8231715,-0.056360025,0.269323,-0.05617656
0.246,-1.0545968,-0.2422678,0.845234,-0.06330353,0.2821241,-0.060449928
0.248,-1.0865829,-0.24291965,0.8671859,-0.07054472,0.29558393,-0.06488114
0.25,-1.1183093,-0.2438012,0.88889694,-0.07810958,0.30970195,-0.06935591
0.252,-1.1500114,-0.2447297,0.9104458,-0.086022824,0.3244544,-0.07376389
0.254,-1.1817292,-0.2458798,0.9318547,-0.09431419,0.3397833,-0.07799626
0.256,-1.2137774,-0.2471374,0.953022,-0.10300507,0.35560882,-0.08194056
0.258,-1.2462368,-0.24843225,0.9740005,-0.11210648,0.37183034,-0.08549567
0.26,-1.2792186,-0.24982907,0.9947476,-0.12163483,0.38835424,-0.088583834
0.262,-1.3129356,-0.25126982,1.0155123,-0.13157661,0.40510184,-0.09114787
0.264,-1.3474815,-0.2527141,1.0363638,-0.14192235,0.42202613,-0.093176
0.266,-1.3830184,-0.2541448,1.0574498,-0.15264936,0.4391282,-0.09468712
0.268,-1.419701,-0.2554165,1.0789156,-0.16371872,0.45646578,-0.095712766
0.27,-1.4574604,-0.256557,1.1008332,-0.1750958,0.4741341,-0.09633229
0.272,-1.4963078,-0.25747907,1.1229308,-0.18673405,0.49225327,-0.096656986
0.274,-1.5364125,-0.25809363,1.1452588,-0.19859028,0.51098067,-0.09680442
0.276,-1.577588,-0.2584399,1.1679401,-0.21060859,0.5304448,-0.0969202
0.278,-1.619925,-0.25831166,1.190959,-0.22275473,0.55076486,-0.09714873
0.28,-1.663431,-0.25775915,1.2144374,-0.23500387,0.57201296,-0.09762768
0.282,-1.7079573,-0.2568277,1.2384125,-0.24732655,0.5942033,-0.09848746
0.284,-1.7535454,-0.25534725,1.2628703,-0.25970513,0.6173045,-0.09982796
0.286,-1.7999794,-0.25333536,1.2879232,-0.272131,0.6412289,-0.10172976
0.288,-1.8471786,-0.25062388,1.3133729,-0.28458977,0.66583794,-0.1042479
0.29,-1.8951524,-0.2472535,1.339286,-0.29707313,0.69098306,-0.10737803
0.292,-1.9435897,-0.24326256,1.3657882,-0.30955005,0.716536,-0.111078806
0.294,-1.9922738,-0.23880103,1.3928432,-0.3219917,0.74236983,-0.11527348
0.296,-2.0411525,-0.23388481,1.4204017,-0.33435962,0.7683882,-0.119858064
0.298,-2.0899377,-0.22867262,1.4483986,-0.3466156,0.7945323,-0.124707066
0.3,-2.1382923,-0.22305155,1.4767716,-0.35872543,0.82074517,-0.12967247
0.302,-2.1860464,-0.217376,1.5056909,-0.37066457,0.8469837,-0.13461131
0.304,-2.2330954,-0.21160966,1.5351601,-0.3824271,0.87319696,-0.13939025
0.306,-2.2790697,-0.20590305,1.5653467,-0.394014,0.8993129,-0.14390318
0.308,-2.3237252,-0.20035869,1.5963473,-0.405409,0.9252479,-0.14806458
0.31,-2.3667634,-0.19501132,1.6281778,-0.41660953,0.9509381,-0.1518459
0.312,-2.4081361,-0.1899988,1.6609315,-0.42761862,0.976314,-0.15523818
0.314,-2.447423,-0.18537772,1.6946815,-0.43841714,1.0013452,-0.15826404
0.316,-2.484508,-0.18119031,1.7297685,-0.44900298,1.026024,-0.16097635
0.318,-2.5194197,-0.17755848,1.7663581,-0.45934844,1.0503881,-0.16343775
0.32,-2.5518174,-0.17443681,1.8045366,-0.4694615,1.0744829,-0.16572973
0.322,-2.581409,-0.17178291,1.8443983,-0.47936094,1.098401,-0.16792974
0.324,-2.6082392,-0.16955549,1.8859582,-0.48906034,1.1222566,-0.17009984
0.326,-2.632029,-0.16764742,1.9293497,-0.49858123,1.1462001,-0.172297
0.328,-2.652771,-0.16600984,1.9747297,-0.5079509,1.1703819,-0.17455408
0.33,-2.6706653,-0.16455853,2.022069,-0.51719916,1.1949865,-0.17687045
0.332,-2.6853685,-0.16316348,2.07124,-0.52633137,1.2202301,-0.17923301
0.334,-2.6970716,-0.16156924,2.1219964,-0.53533894,1.2463293,-0.1816076
0.336,-2.7058685,-0.15949804,2.174235,-0.5442013,1.2735205,-0.18395019
0.338,-2.7120862,-0.15669727,2.2279553,-0.5528886,1.3020046,-0.18621619
0.34,-2.7159877,-0.15287125,2.283001,-0.56137574,1.3319651,-0.18835698
0.342,-2.717667,-0.14755398,2.3390799,-0.56963784,1.3635325,-0.19033107
0.344,-2.7174773,-0.14052492,2.3958657,-0.57767546,1.3967707,-0.19211559
0.346,-2.7157006,-0.1313895,2.4530416,-0.5855304,1.4316617,-0.19372499
0.348,-2.7124827,-0.11985737,2.5100658,-0.59324884,1.4681221,-0.19519164
0.35,-2.7083278,-0.10560703,2.566392,-0.60091347,1.5059955,-0.19655879
0.352,-2.7033873,-0.08845025,2.6214893,-0.6086213,1.545038,-0.1978969
0.354,-2.6978788,-0.068110764,2.674979,-0.6164873,1.5849679,-0.19928747
0.356,-2.6920357,-0.044405878,2.7263548,-0.624626,1.6254634,-0.20081285
0.358,-2.6861217,-0.017142236,2.775152,-0.63314915,1.6661868,-0.20254655
0.36,-2.6802301,0.013922036,2.8207877,-0.6421409,1.7068117,-0.20454696
0.362,-2.674272,0.04849589,2.862864,-0.6516884,1.747008,-0.20686585
0.364,-2.6683254,0.086612225,2.9010985,-0.66181326,1.7864777,-0.20954151
0.366,-2.6622317,0.12817043,2.9351819,-0.6725116,1.824977,-0.2126212
0.368,-2.6558793,0.17290461,2.965002,-0.68375325,1.8623104,-0.21615928
0.37,-2.6492257,0.2207151,2.990375,-0.69545686,1.8983424,-0.22020558
0.372,-2.6418388,0.27114522,3.011104,-0.7075131,1.9329994,-0.22483313
0.374,-2.6333888,0.3239832,3.0271764,-0.71977955,1.9662771,-0.23011613
0.376,-2.6234608,0.37875366,3.0387356,-0.73210293,1.9981985,-0.23612839
0.378,-2.6116157,0.4349478,3.0460367,-0.7443491,2.0288208,-0.24293123
0.38,-2.597546,0.4921521,3.0496142,-0.75636274,2.0582075,-0.25055492
0.382,-2.5811038,0.54995567,3.0499585,-0.7680059,2.0864267,-0.25901175
0.384,-2.5618343,0.60800654,3.047605,-0.779159,2.1135495,-0.26826966
0.386,-2.539553,0.66581887,3.0433185,-0.78972083,2.1396105,-0.27828526
0.388,-2.5136423,0.72280884,3.0378036,-0.7996389,2.164623,-0.28898063
0.39,-2.4838495,0.7787903,3.0316846,-0.80889004,2.1885827,-0.30027083
0.392,-2.4500375,0.8334243,3.0256164,-0.8174875,2.211467,-0.3120612
0.394,-2.4119794,0.8865131,3.02032,-0.8254619,2.2332408,-0.32425216
0.396,-2.3696723,0.9379312,3.0164535,-0.8328783,2.2538867,-0.33674854
0.398,-2.3228905,0.9873095,3.0148208,-0.8398071,2.27342,-0.34943986
0.4,-2.2717674,1.0346371,3.0159585,-0.8463156,2.2919085,-0.36221516
0.402,-2.2164028,1.0799643,3.02038,-0.852494,2.3094826,-0.37496176
0.404,-2.1571417,1.1233664,3.0285213,-0.8584155,2.3263023,-0.387561
0.406,-2.0941734,1.165041,3.0406032,-0.86413366,2.3425992,-0.39988896
0.408,-2.02792,1.2052245,3.0567846,-0.8696965,2.358621,-0.411819
0.41,-1.9588989,1.2440495,3.0771294,-0.87514675,2.3746243,-0.4232373
0.412,-1.8875507,1.2819768,3.1014602,-0.8805042,2.3908617,-0.43405896
0.414,-1.8142017,1.3192505,3.1296213,-0.88579583,2.4075398,-0.4442134
0.416,-1.7395606,1.3561829,3.161243,-0.89101326,2.4248533,-0.4536676
0.418,-1.6639454,1.3931221,3.1958299,-0.89615536,2.4429438,-0.46240774
0.42,-1.5879214,1.4304501,3.2328296,-0.90121645,2.4618857,-0.47042578
0.422,-1.5118908,1.468531,3.2714734,-0.9062004,2.481684,-0.47774276
0.424,-1.4364438,1.50759,3.3111382,-0.9111208,2.5022788,-0.48440772
0.426,-1.361953,1.5479854,3.3510594,-0.91598135,2.523554,-0.4904851
0.428,-1.2886899,1.5898433,3.3907368,-0.92076486,2.545355,-0.49607158
0.43,-1.2172966,1.6333776,3.4295633,-0.9254532,2.567509,-0.5012838
0.432,-1.1482704,1.6786659,3.4669802,-0.93001986,2.5898147,-0.50625634
0.434,-1.081855,1.7257828,3.502525,-0.9344518,2.6120622,-0.51113814
0.436,-1.0185002,1.7747658,3.5357893,-0.93871003,2.63404,-0.51610434
0.438,-0.95837235,1.8256333,3.5664473,-0.9427601,2.655524,-0.5213347
0.44,-0.9014463,1.87835,3.5945141,-0.9465898,2.6763284,-0.52699924
0.442,-0.8481822,1.9327245,3.6199958,-0.9501794,2.6962776,-0.5332489
0.444,-0.7983837,1.9885193,3.6432455,-0.95352995,2.7152102,-0.5402112
0.446,-0.7521721,2.0454607,3.6644464,-0.95664346,2.7329953,-0.5479886
0.448,-0.70942867,2.1032248,3.6838117,-0.95953137,2.749567,-0.55663353
0.45,-0.6702616,2.161514,3.7018375,-0.96220714,2.7648919,-0.56615394
0.452,-0.634948,2.2201023,3.7191834,-0.9646657,2.7789743,-0.5765153
0.454,-0.6031699,2.2787688,3.736615,-0.96688676,2.7918854,-0.5876123
0.456,-0.5750569,2.337356,3.7549038,-0.9688315,2.803758,-0.59928906
0.458,-0.5505519,2.3957098,3.7748997,-0.97043216,2.8148148,-0.61136985
0.46,-0.5293553,2.4536848,3.7971764,-0.97161746,2.8252826,-0.6236439
0.462,-0.51150525,2.511201,3.8222811,-0.972306,2.8354115,-0.6359135
0.464,-0.4967308,2.5681176,3.8507009,-0.9724287,2.845449,-0.6479857
0.466,-0.4846052,2.624216,3.8829873,-0.9719311,2.8555856,-0.65968
0.468,-0.47469664,2.6793559,3.9195318,-0.97079325,2.8659916,-0.6708698
0.47,-0.4665668,2.7333171,3.960746,-0.96901834,2.8767507,-0.6814948
0.472,-0.45985937,2.7861497,4.0067654,-0.9666487,2.8878713,-0.69156855
0.474,-0.4537859,2.8376958,4.057623,-0.96373904,2.8993018,-0.70117784
0.476,-0.44770336,2.8877792,4.113257,-0.96037805,2.9109273,-0.7104656
0.478,-0.44088864,2.9363513,4.1734657,-0.95667297,2.9225874,-0.71961397
0.48,-0.43244147,2.983397,4.2382,-0.95273787,2.9340463,-0.72882885
0.482,-0.42172194,3.028862,4.3069844,-0.948701,2.9450407,-0.7383443
0.484,-0.4078443,3.0725644,4.3793764,-0.9446777,2.955286,-0.74839276
0.486,-0.3900838,3.1144893,4.454888,-0.94078314,2.9645112,-0.759199
0.488,-0.36757064,3.1546626,4.532723,-0.9371313,2.9724607,-0.7709628
0.49,-0.33962703,3.1931036,4.6119823,-0.9338439,2.9789107,-0.7838367
0.492,-0.30538654,3.2296894,4.692246,-0.93104005,2.9837096,-0.79792094
0.494,-0.26441193,3.264351,4.772811,-0.92881286,2.9867716,-0.8132536
0.496,-0.21628284,3.2973142,4.852831,-0.92725617,2.9881303,-0.82980067
0.498,-0.16090655,3.3286526,4.9314976,-0.9264545,2.9879177,-0.84744364
0.5,-0.09795046,3.3584514,5.008297,-0.9264544,2.9863696,-0.8660045
0.502,-0.027246475,3.3867865,5.0825195,-0.9272766,2.9838066,-0.8852546
0.504,0.050967216,3.413714,5.153577,-0.9288856,2.980645,-0.90492326
0.506,0.13656521,3.4394867,5.2208366,-0.9312214,2.9773617,-0.9247176
0.508,0.22912359,3.464322,5.283868,-0.93419504,2.974449,-0.94435924
0.51,0.32847857,3.488398,5.342181,-0.9376776,2.9723992,-0.96361023
0.512,0.43390942,3.5120177,5.3953753,-0.9415445,2.9716756,-0.98227525
0.514,0.5450885,3.5353272,5.443081,-0.9456707,2.9727063,-1.0002234
0.516,0.66128635,3.5585215,5.485105,-0.949914,2.9758308,-1.0173558
0.518,0.7818544,3.581886,5.521254,-0.9541397,2.9813023,-1.0336298
0.52,0.9060943,3.6055927,5.5513673,-0.9582355,2.9892628,-1.0490526
0.522,1.0333738,3.6299763,5.575532,-0.96207756,2.9997444,-1.0636543
0.524,1.1628323,3.655278,5.5938625,-0.9655672,3.0126667,-1.0774785
0.526,1.293653,3.6818771,5.606685,-0.96861565,3.0278456,-1.0905793
0.528,1.4252002,3.709851,5.614269,-0.9711339,3.0450177,-1.1030098
0.53,1.556736,3.7393184,5.6169214,-0.97304755,3.0638242,-1.1148257
0.532,1.6875868,3.7704391,5.6148643,-0.974306,3.0838401,-1.1260861
0.534,1.8171649,3.8034735,5.6083474,-0.9749,3.1046095,-1.1368446
0.536,1.9448774,3.838511,5.597615,-0.97482806,3.1256344,-1.1471369
0.538,2.0699744,3.8758526,5.582842,-0.97411567,3.1464238,-1.1570048
0.54,2.1921084,3.9154525,5.5644126,-0.9727894,3.1665022,-1.1664813
0.542,2.3106797,3.957436,5.5426674,-0.9708943,3.1854224,-1.1756074
0.544,2.425288,4.0017996,5.518241,-0.9684777,3.2028046,-1.1844158
0.546,2.5355287,4.04838,5.491493,-0.9655989,3.218312,-1.1929419
0.548,2.641016,4.097168,5.462771,-0.9623265,3.2316802,-1.2012111
0.55,2.7413,4.1478386,5.432172,-0.9587314,3.242711,-1.2092476
0.552,2.8361495,4.2002296,5.399987,-0.9548653,3.2512786,-1.2170488
0.554,2.9250786,4.2542043,5.3664694,-0.9507991,3.2573295,-1.2245936
0.556,3.0080698,4.309477,5.3320937,-0.9465861,3.2608788,-1.2318597
0.558,3.0849175,4.365926,5.297241,-0.94227207,3.2620144,-1.238788
0.56,3.1557527,4.4232984,5.2622595,-0.9378804,3.260871,-1.2453119
0.562,3.2206059,4.4811654,5.2272944,-0.93341935,3.257634,-1.2513492
0.564,3.279521,4.5392222,5.192526,-0.9288653,3.2525148,-1.2567933
0.566,3.3326068,4.5971575,5.15827,-0.9241842,3.2457535,-1.2615523
0.568,3.3800116,4.6545672,5.124768,-0.91931075,3.237634,-1.26554
0.57,3.4219337,4.7111163,5.0923758,-0.9141993,3.2284865,-1.2686962
0.572,3.458681,4.7666,5.0612535,-0.90877944,3.21864,-1.270964
0.574,3.4905572,4.820877,5.0313554,-0.9029818,3.2084737,-1.2723141
0.576,3.5180879,4.873818,5.002612,-0.8967436,3.1983356,-1.2727484
0.578,3.5416622,4.9252744,4.974812,-0.8900036,3.188559,-1.2723038
0.58,3.5618625,4.974997,4.9478536,-0.88271576,3.179415,-1.2710576
0.582,3.5792618,5.0228996,4.921388,-0.8748547,3.171098,-1.269128
0.584,3.5943105,5.068803,4.895012,-0.8664127,3.1637013,-1.2666409
0.586,3.6078963,5.112508,4.8683124,-0.8573894,3.157216,-1.263749
0.588,3.6206036,5.153855,4.840987,-0.8478143,3.1515136,-1.2606411
0.59,3.6331248,5.1925306,4.812524,-0.8377368,3.1463907,-1.2575085
0.592,3.6462271,5.22834,4.7825484,-0.8272395,3.1415527,-1.2545384
0.594,3.6603003,5.261107,4.750899,-0.81644636,3.13663,-1.2519045
0.596,3.676188,5.2905884,4.7170987,-0.80550027,3.131219,-1.249758
0.598,3.6943054,5.316677,4.6809645,-0.7945685,3.1248963,-1.2482394
0.6,3.7153382,5.339058,4.642416,-0.783825,3.1172576,-1.2474608
0.602,3.7396173,5.357609,4.6010146,-0.77344763,3.107936,-1.2475061
0.604,3.7674525,5.3722305,4.556646,-0.7636031,3.0966237,-1.2484267
0.606,3.7989411,5.3828096,4.5094333,-0.7544487,3.0831125,-1.250259
0.608,3.8341932,5.3893175,4.4597273,-0.74609894,3.067321,-1.2529873
0.61,3.873055,5.3917828,4.407666,-0.73861444,3.0492952,-1.2565539
0.612,3.915287,5.3902965,4.35365,-0.73199797,3.0292544,-1.2608865
0.614,3.9606347,5.3849897,4.2980094,-0.7261896,3.0075834,-1.2658725
0.616,4.0087285,5.3759327,4.2412877,-0.7210642,2.984802,-1.271371
0.618,4.0591764,5.3634033,4.1840715,-0.7164478,2.9615223,-1.2771972
0.62,4.111216,5.3477097,4.1270256,-0.71211666,2.9383786,-1.283129
0.622,4.1643257,5.3290787,4.0708137,-0.70785993,2.9159567,-1.2889346
0.624,4.217764,5.3079433,4.016037,-0.7034316,2.8947375,-1.2943772
0.626,4.2706714,5.2846823,3.9635208,-0.6986471,2.8750682,-1.2992531
0.628,4.32243,5.2596874,3.9138665,-0.6933376,2.857112,-1.303366
0.63,4.37216,5.2335258,3.8677711,-0.68740183,2.840897,-1.3065747
0.632,4.419042,5.206607,3.82573,-0.680785,2.8262918,-1.30879
0.634,4.462324,5.1794147,3.7880826,-0.6734822,2.8130758,-1.3099834
0.636,4.5014534,5.152187,3.755323,-0.66551596,2.8010037,-1.310178
0.638,4.5354643,5.12571,3.7279553,-0.6569278,2.7898226,-1.3094586
0.64,4.5638766,5.1004267,3.706372,-0.647769,2.7793384,-1.3079175
0.642,4.58619,5.0768023,3.6909294,-0.63808155,2.769406,-1.3056543
0.644,4.6017904,5.055168,3.6815236,-0.6279226,2.7599247,-1.3027987
0.646,4.6103497,5.0359116,3.6782188,-0.61732733,2.750861,-1.2994511
0.648,4.611726,5.0192413,3.6810076,-0.60631603,2.7422273,-1.2957027
0.65,4.6057,5.005413,3.6896665,-0.59492016,2.734049,-1.291638
0.652,4.592313,4.994664,3.7039504,-0.58315974,2.7263174,-1.2873195
0.654,4.571415,4.987179,3.723167,-0.5710812,2.7190065,-1.2828221
0.656,4.543254,4.9830527,3.746848,-0.5587405,2.7120328,-1.2781882
0.658,4.508202,4.982357,3.774605,-0.546188,2.7052827,-1.2734797
0.66,4.466612,4.9851203,3.805976,-0.53349364,2.6985881,-1.2687418
0.662,4.4190636,4.991293,3.840241,-0.52070254,2.6917498,-1.2640351
0.664,4.3664284,5.0005546,3.8767452,-0.50787723,2.6845596,-1.2594217
0.666,4.309313,5.0127463,3.9146955,-0.49504894,2.6767955,-1.2549437
0.668,4.248563,5.0274134,3.9533703,-0.48224193,2.6682587,-1.2506155
0.67,4.1851993,5.044053,3.991942,-0.46947494,2.6587892,-1.2464589
0.672,4.1201215,5.062285,4.0297675,-0.4567483,2.6482859,-1.2424856
0.674,4.054336,5.0816483,4.0661964,-0.44405672,2.6366882,-1.2387154
0.676,3.988891,5.1015673,4.1004663,-0.43137482,2.6239648,-1.2351661
0.678,3.9247227,5.1216145,4.132249,-0.41871044,2.6101456,-1.2318554
0.68,3.8626513,5.1411924,4.161071,-0.40604454,2.595294,-1.228808
0.682,3.803461,5.159861,4.1866455,-0.3934032,2.5794845,-1.2260658
0.684,3.7477589,5.177077,4.208643,-0.38080472,2.562809,-1.2236688
0.686,3.6960175,5.1923785,4.226717,-0.3682858,2.5453613,-1.2216485
0.688,3.6489742,5.2052355,4.240789,-0.35589632,2.5272255,-1.2200383
0.69,3.6067443,5.215456,4.25045,-0.34370565,2.508466,-1.2188592
0.692,3.5697165,5.222803,4.255686,-0.3317878,2.4891512,-1.2180966
0.694,3.537881,5.226964,4.256394,-0.32022664,2.469335,-1.2177175
0.696,3.5111303,5.2278786,4.25263,-0.30908287,2.449093,-1.2176385
0.698,3.489269,5.2254796,4.244312,-0.29838967,2.4284976,-1.2177299
0.7,3.4721289,5.2198114,4.2316713,-0.2881931,2.4076395,-1.2178388
0.702,3.4593616,5.2110686,4.2148046,-0.2785127,2.3866148,-1.2177675
0.704,3.450728,5.1993055,4.193774,-0.2693235,2.365534,-1.2173029
0.706,3.4457078,5.184564,4.1687403,-0.26058906,2.3445177,-1.2162206
0.708,3.4441051,5.166965,4.1396832,-0.25222048,2.3236735,-1.2142916
0.71,3.445506,5.1467204,4.1066275,-0.24412264,2.303101,-1.2113632
0.712,3.4495842,5.124284,4.0697546,-0.23620112,2.2828758,-1.2073141
0.714,3.4561386,5.0999045,4.029327,-0.22834423,2.26305,-1.2021092
0.716,3.4649749,5.0738096,3.985307,-0.22045608,2.2436488,-1.1957731
0.718,3.475958,5.0462403,3.9378397,-0.21243797,2.2246811,-1.1883745
0.72,3.489153,5.0173297,3.8870351,-0.20418108,2.2061632,-1.1800343
0.722,3.5044177,4.9871826,3.8330572,-0.19557579,2.1881132,-1.1709218
0.724,3.5218596,4.9560194,3.7760642,-0.18649861,2.1705453,-1.1611825
0.726,3.5415654,4.9240255,3.71609,-0.17685454,2.1534874,-1.1509708
0.728,3.5636463,4.891303,3.6531742,-0.16655363,2.1369643,-1.1404058
0.73,3.5883546,4.857972,3.5874274,-0.15551674,2.1209776,-1.1295964
0.732,3.6158752,4.823991,3.5191913,-0.14368148,2.1054494,-1.118647
0.734,3.6464553,4.789425,3.4488893,-0.13102682,2.0902443,-1.1076561
0.736,3.680416,4.754175,3.3766732,-0.11757022,2.07514,-1.0967207
0.738,3.7178886,4.718218,3.3029337,-0.1033873,2.0598197,-1.0859346
0.74,3.7590952,4.6814265,3.2279615,-0.088601425,2.043921,-1.0754142
0.742,3.804083,4.643731,3.1521442,-0.07335926,2.0270433,-1.065271
0.744,3.8529935,4.605029,3.0760689,-0.05784094,2.0087924,-1.0556101
0.746,3.9056125,4.5653553,3.0001454,-0.04223308,1.9888657,-1.0465416
0.748,3.9620192,4.52448,2.9248261,-0.02670663,1.9670553,-1.0381122
0.75,4.0218353,4.4825006,2.8506057,-0.011425836,1.9432712,-1.0303246
0.752,4.0847483,4.439477,2.778041,0.0034663863,1.9175649,-1.0231156
0.754,4.1503696,4.395454,2.7077308,0.017889574,1.890091,-1.0163535
0.756,4.218072,4.3504634,2.6400266,0.031790685,1.8611196,-1.0098532
0.758,4.2871456,4.3046913,2.5753136,0.04513607,1.8310083,-1.0033766
0.76,4.356866,4.258448,2.5138512,0.05794374,1.8001652,-0.9966733
0.762,4.4264812,4.21193,2.4558203,0.070247196,1.7690485,-0.9894881
0.764,4.49522,4.1654096,2.4016035,0.08210017,1.738125,-0.9815593
0.766,4.562074,4.11926,2.3513348,0.09356666,1.7078549,-0.97268045
0.768,4.62602,4.0736456,2.304892,0.10470567,1.6786711,-0.96268725
0.77,4.6862116,4.028943,2.2623615,0.11557542,1.6509777,-0.9514695
0.772,4.741706,3.9853826,2.2237344,0.1262308,1.6250943,-0.93897325
0.774,4.7914176,3.9435282,2.1888878,0.13669837,1.6012698,-0.92519915
0.776,4.8345003,3.9035954,2.1575422,0.14701134,1.5796523,-0.91017354
0.778,4.8701897,3.8659325,2.129416,0.1571988,1.56031,-0.89395744
0.78,4.8974266,3.8308353,2.1041956,0.16730593,1.543214,-0.87666714
0.782,4.9159064,3.7984326,2.0814788,0.17736043,1.5282614,-0.8584395
0.784,4.924725,3.7689638,2.0609632,0.18739793,1.5153081,-0.8394363
0.786,4.923394,3.742488,2.0423803,0.19745298,1.5041673,-0.8198404
0.788,4.911545,3.7190146,2.0252213,0.20756423,1.4946216,-0.7998326
0.79,4.88897,3.6986587,2.0091634,0.21778515,1.4864691,-0.7795707
0.792,4.855383,3.6812713,1.9939818,0.22818457,1.4795083,-0.75920624
0.794,4.8109236,3.6666288,1.9795606,0.23882979,1.4735471,-0.73885584
0.796,4.755489,3.654643,1.9656217,0.2497771,1.4683968,-0.7186149
0.798,4.6890464,3.6451173,1.9518521,0.26107565,1.4638612,-0.6985492
0.8,4.6121273,3.6377697,1.9381859,0.27276474,1.4597092,-0.67869717
0.802,4.525051,3.6322887,1.9244438,0.2848734,1.4557132,-0.65911657
0.804,4.4283376,3.6285005,1.910753,0.2974186,1.4516412,-0.63986534
0.806,4.3227673,3.6259332,1.8971472,0.31039116,1.4472646,-0.6210066
0.808,4.2091775,3.6242013,1.8835833,0.32375845,1.442347,-0.6026511
0.81,4.088293,3.6227763,1.8699512,0.3374524,1.4366611,-0.58492994
0.812,3.9612286,3.6212373,1.856179,0.35140046,1.4299866,-0.5679852
0.814,3.8290515,3.6192288,1.8422263,0.36551073,1.4221324,-0.5519513
0.816,3.6926236,3.6164591,1.8283682,0.37971136,1.4129242,-0.53699386
0.818,3.553103,3.612537,1.8149061,0.39392653,1.4022467,-0.52327466
0.82,3.4116325,3.6072373,1.8020961,0.40808338,1.3900076,-0.510944
0.822,3.2696881,3.5998669,1.7900007,0.42210737,1.3761477,-0.50014067
0.824,3.1281648,3.590293,1.778582,0.4359251,1.3606195,-0.49101126
0.826,2.9881873,3.5781164,1.7678986,0.44946307,1.3433993,-0.4836629
0.828,2.8508968,3.5631166,1.7579894,0.462655,1.3244559,-0.4781629
0.83,2.717182,3.5451035,1.7491333,0.4754329,1.3037667,-0.4745421
0.832,2.5880861,3.5241313,1.7412646,0.4877395,1.281319,-0.47279245
0.834,2.4645243,3.4999883,1.7344297,0.49953628,1.257132,-0.47285315
0.836,2.3471088,3.4725485,1.7285402,0.51082027,1.2312942,-0.47464445
0.838,2.2364771,3.4418068,1.723722,0.5216189,1.2039483,-0.4780329
0.84,2.1331015,3.4076889,1.719903,0.5319777,1.1752938,-0.48284426
0.842,2.0373456,3.3702788,1.7169886,0.54195416,1.1455643,-0.48891756
0.844,1.9493651,3.3296518,1.7148522,0.5516094,1.1150092,-0.4960848
0.846,1.8693832,3.286003,1.7134666,0.5609807,1.0839103,-0.5041661
0.848,1.7972481,3.2394867,1.7128091,0.5701143,1.0525702,-0.5129964
0.85,1.7328279,3.1904192,1.7130115,0.5790429,1.0212957,-0.5224137
0.852,1.6759195,3.138926,1.7140392,0.587798,0.9904024,-0.5322939
0.854,1.6260033,3.0854034,1.715926,0.5964077,0.960224,-0.5425174
0.856,1.5827882,3.030209,1.7188079,0.604879,0.93108994,-0.5529563
0.858,1.5456597,2.9735475,1.7227436,0.6132394,0.90331364,-0.5634698
0.86,1.5140884,2.915783,1.7277699,0.6215309,0.87716717,-0.5739237
0.862,1.4877173,2.8571494,1.7340202,0.6298048,0.85288644,-0.584171
0.864,1.4660051,2.7979202,1.7414858,0.6381061,0.83061695,-0.5940906
0.866,1.448487,2.738438,1.7502723,0.6464795,0.8104542,-0.60360426
0.868,1.4347807,2.6790304,1.7602564,0.65495896,0.79243433,-0.61267567
0.87,1.4242976,2.6198297,1.7716559,0.6635719,0.7765175,-0.6212914
0.872,1.4166136,2.561153,1.7844889,0.6723359,0.76259685,-0.6295061
0.874,1.4115376,2.5031648,1.7986047,0.68126315,0.7505601,-0.6373947
0.876,1.4088498,2.4461374,1.8138582,0.6903624,0.74027675,-0.6450734
0.878,1.4083837,2.3903153,1.8299179,0.69963187,0.7315977,-0.65266514
0.88,1.4100997,2.335967,1.8464175,0.7090602,0.7243703,-0.66029954
0.882,1.4139647,2.2831845,1.8629599,0.71861744,0.7184235,-0.66809225
0.884,1.4200604,2.2319918,1.8792318,0.7282719,0.7135757,-0.6761285
0.886,1.4285878,2.1825547,1.8948054,0.7379875,0.70962024,-0.68446976
0.888,1.4395747,2.1350477,1.9091768,0.7477334,0.70632565,-0.6931242
0.89,1.4533775,2.089673,1.9219584,0.7574703,0.7034405,-0.7020769
0.892,1.4698538,2.0466874,1.9325457,0.767166,0.7007328,-0.7112988
0.894,1.4894359,2.0062132,1.9403216,0.77683914,0.6980129,-0.72072315
0.896,1.5124546,1.9683735,1.9447435,0.78651893,0.6951333,-0.7302479
0.898,1.5389726,1.9333106,1.9453936,0.7962467,0.6919967,-0.7397646
0.9,1.568994,1.9011211,1.9419267,0.80609447,0.6885369,-0.7491427
0.902,1.6025103,1.8718865,1.9340003,0.8161203,0.6847054,-0.7582469
0.904,1.6393477,1.8458564,1.9213754,0.8263914,0.6805143,-0.7669296
0.906,1.6795325,1.8231206,1.9040012,0.83695847,0.67599,-0.7750443
0.908,1.7228882,1.803811,1.8817954,0.84786814,0.6711843,-0.7824801
0.91,1.7690381,1.7879744,1.8546647,0.8591556,0.6661802,-0.7891362
0.912,1.817592,1.775652,1.8225497,0.8708235,0.6610751,-0.79493445
0.914,1.8682417,1.7670548,1.7853284,0.8828681,0.6560058,-0.79980934
0.916,1.9201698,1.7622887,1.7431226,0.8952629,0.65112025,-0.80370593
0.918,1.9727333,1.7615145,1.696399,0.9080043,0.64659214,-0.8065912
0.92,2.025527,1.7648435,1.6457391,0.9210602,0.6425596,-0.8084457
0.922,2.0776968,1.7721466,1.5916365,0.9343953,0.6391362,-0.80927336
0.924,2.128469,1.7836092,1.534562,0.94796896,0.6364236,-0.8091004
0.926,2.1774158,1.7991498,1.4747977,0.96174186,0.634483,-0.80796826
0.928,2.2237415,1.818689,1.4126122,0.97566384,0.63328606,-0.80596524
0.93,2.266897,1.84219,1.3483531,0.98965484,0.6327359,-0.80319965
0.932,2.306101,1.8697168,1.2826567,1.003615,0.6326846,-0.79981256
0.934,2.3411171,1.9010993,1.2161149,1.0174476,0.6329092,-0.7959684
0.936,2.3715775,1.9363075,1.1494055,1.0310526,0.6331117,-0.7918756
0.938,2.397063,1.9752618,1.0831509,1.0443015,0.6329434,-0.78776175
0.94,2.4173813,2.0178666,1.0176325,1.0570712,0.6320234,-0.78387964
0.942,2.4323332,2.0637074,0.9535317,1.0692382,0.62997466,-0.7804974
0.944,2.441827,2.1125715,0.891306,1.0807213,0.6264656,-0.7778762
0.946,2.4461846,2.1643448,0.8316598,1.0914619,0.62121665,-0.7762724
0.948,2.445476,2.2187824,0.77493316,1.1014408,0.6140652,-0.7758906
0.95,2.4403853,2.275448,0.72154117,1.1106974,0.60498375,-0.7768681
0.952,2.4313192,2.3341231,0.6715975,1.1193255,0.5940728,-0.77926654
0.954,2.4188957,2.3942835,0.6251804,1.1274637,0.58156693,-0.7830528
0.956,2.403813,2.4555957,0.58226216,1.1352993,0.56780916,-0.7881185
0.958,2.3870914,2.5176346,0.5430583,1.1430489,0.5532044,-0.79427326
0.96,2.3695502,2.5798867,0.50756013,1.1509475,0.53821176,-0.8012538
0.962,2.3521335,2.6421204,0.47584617,1.1592331,0.5232621,-0.808758
0.964,2.3360054,2.703899,0.44765663,1.1681149,0.5087555,-0.8164933
0.966,2.3221555,2.7647705,0.42261684,1.1777877,0.49501532,-0.82416666
0.968,2.3115928,2.8245406,0.40042233,1.1884103,0.4822387,-0.83152914
0.97,2.3055413,2.8827662,0.38078487,1.2000856,0.47049186,-0.838379
0.972,2.304784,2.93932,0.3632189,1.2128552,0.45970482,-0.8445731
0.974,2.3102167,2.9940724,0.34736097,1.2267479,0.449708,-0.85003895
0.976,2.3227727,3.0467176,0.33289433,1.2417424,0.44023815,-0.85477346
0.978,2.3429792,3.0970697,0.31950235,1.2577792,0.4309557,-0.8588445
0.98,2.3716,3.1450858,0.30661166,1.2747709,0.42148304,-0.8623806
0.982,2.4090254,3.1905406,0.29386187,1.2925984,0.41147253,-0.8655484
0.984,2.4553418,3.2333798,0.28116548,1.3111211,0.40059853,-0.86854064
0.986,2.5105784,3.273593,0.26841736,1.3301653,0.3885713,-0.87156737
0.988,2.5745978,3.311266,0.25577438,1.3495455,0.37519744,-0.87484944
0.99,2.6468215,3.3464708,0.24313843,1.3690711,0.36039928,-0.87856364
0.992,2.7268813,3.3794332,0.23063111,1.3885609,0.34420842,-0.8828802
0.994,2.8139417,3.4102788,0.21816003,1.40785,0.32674736,-0.8879288
0.996,2.9070199,3.439162,0.20616591,1.4268073,0.30826458,-0.89378154
0.998,3.005037,3.4662876,0.19475222,1.4453346,0.28908485,-0.90044713
1,3.106842,3.4918404,0.18408895,1.463394,0.26961064,-0.90784544
1.002,3.2111502,3.5159974,0.17448688,1.4809965,0.2502969,-0.9158551
1.004,3.3166995,3.539186,0.16591299,1.4982078,0.23163739,-0.9242959
1.006,3.4219816,3.5617352,0.15853763,1.5151398,0.21415713,-0.93292224
1.008,3.525809,3.5839155,0.15256572,1.5319469,0.19836369,-0.94146335
1.01,3.6270092,3.6058998,0.14830756,1.5488166,0.18470693,-0.9496369
1.012,3.7244935,3.6279583,0.14591455,1.5659341,0.17354736,-0.95719767
1.014,3.8173158,3.650187,0.14554524,1.5834717,0.16511199,-0.9639379
1.016,3.9045606,3.67271,0.14700627,1.6015726,0.15945834,-0.96971834
1.018,3.9855268,3.6957176,0.15038133,1.6203367,0.1564365,-0.97447085
1.02,4.059555,3.7193906,0.1556027,1.6398062,0.15570885,-0.9782328
1.022,4.126401,3.7438636,0.16254234,1.6599618,0.15676308,-0.9811046
1.024,4.18572,3.7693276,0.17101204,1.68076,0.1589461,-0.98325527
1.026,4.2378254,3.7959769,0.1806444,1.7021083,0.16150427,-0.98488235
1.028,4.282853,3.823966,0.19095027,1.7238815,0.16362858,-0.986228
1.03,4.3211613,3.8534737,0.201383,1.7459595,0.16451764,-0.9875188
1.032,4.353256,3.8847249,0.21181,1.768222,0.16343212,-0.9889709
1.034,4.380046,3.9177675,0.2222358,1.7905675,0.15973371,-0.99079955
1.036,4.402044,3.9528372,0.2325939,1.8129185,0.15290427,-0.99319506
1.038,4.4201035,3.9900498,0.24277854,1.8352145,0.14258635,-0.9963161
1.04,4.435163,4.029571,0.2526164,1.8574197,0.12858945,-1.0002899
1.042,4.4482336,4.071562,0.2616439,1.8795015,0.110865235,-1.0051925
1.044,4.460316,4.116143,0.26957262,1.9014696,0.08947414,-1.0110705
1.046,4.4720945,4.1636133,0.27629793,1.9233423,0.064570725,-1.0179172
1.048,4.4846435,4.2139206,0.28182232,1.9451517,0.036408186,-1.0257132
1.05,4.498857,4.267104,0.28627765,1.966928,0.0052828193,-1.0344234
1.052,4.5154448,4.323293,0.28966606,1.9887117,-0.028444886,-1.0440094
1.054,4.5350194,4.3825216,0.29190803,2.0105457,-0.06437123,-1.0544411
1.056,4.55804,4.4446588,0.2930299,2.0324535,-0.10203767,-1.0656633
1.058,4.584799,4.5094557,0.29331076,2.0544686,-0.14094979,-1.0776185
1.06,4.6155443,4.5768056,0.293144,2.0766337,-0.18055451,-1.0902374
1.062,4.650492,4.6465073,0.29290152,2.0990095,-0.22021914,-1.1034219
1.064,4.6896343,4.7183332,0.2928481,2.1216743,-0.25923538,-1.1170377
1.066,4.732883,4.7918453,0.2933247,2.1447387,-0.29688025,-1.1309472
1.068,4.779944,4.866494,0.29427338,2.1683302,-0.33246863,-1.1450082
1.07,4.830616,4.9418955,0.2957741,2.1925726,-0.36538118,-1.1590626
1.072,4.884541,5.0173855,0.29784942,2.2175946,-0.3951429,-1.1729754
1.074,4.9411592,5.0924845,0.30069005,2.243494,-0.42144102,-1.1866155
1.076,5.0000243,5.1666164,0.30425608,2.2703385,-0.44416982,-1.1998866
1.078,5.060523,5.2392144,0.30840778,2.2981517,-0.46340203,-1.2127475
1.08,5.121868,5.309804,0.31293488,2.3269112,-0.4793887,-1.22517
1.082,5.183385,5.3777575,0.31771398,2.3565621,-0.49251902,-1.2371465
1.084,5.2443714,5.442641,0.3228879,2.3870094,-0.5032785,-1.2486798
1.086,5.304124,5.5042267,0.32839298,2.4181411,-0.51222485,-1.2597814
1.088,5.362045,5.562196,0.33389425,2.4498448,-0.51990914,-1.2704396
1.09,5.417473,5.6163206,0.33872104,2.481998,-0.5268948,-1.2806569
1.092,5.470246,5.666436,0.34201932,2.5144935,-0.5337068,-1.2904341
1.094,5.51991,5.7126255,0.34240222,2.5472412,-0.5408499,-1.2997831
1.096,5.5664473,5.7548504,0.33868432,2.5801876,-0.5487895,-1.3087318
1.098,5.609742,5.793376,0.32982445,2.6133094,-0.5578929,-1.3173337
1.1,5.65006,5.8285675,0.31474638,2.6466434,-0.56844974,-1.3256335
1.102,5.687531,5.860806,0.29229522,2.680283,-0.5806607,-1.3336928
1.104,5.722934,5.89073,0.26119113,2.714389,-0.5946555,-1.3415821
1.106,5.7568765,5.9190865,0.21979427,2.749185,-0.6104855,-1.3493689
1.108,5.7903347,5.9465394,0.16655993,2.7849336,-0.62817824,-1.3571256
1.11,5.824394,5.9739094,0.09966016,2.8219104,-0.6477909,-1.3649145
1.112,5.860554,6.0019464,0.017539263,2.8604,-0.669415,-1.3727818
1.114,5.9001575,6.031475,-0.08112025,2.9006634,-0.6932527,-1.3807554
1.116,5.9449587,6.063513,-0.19767165,2.942905,-0.7196304,-1.3888768
1.118,5.99681,6.099048,-0.33347964,2.9873095,-0.7490455,-1.3972061
1.12,6.0573015,6.139159,-0.48961306,3.0339658,-0.78212756,-1.4058152
1.122,6.128557,6.1847897,-0.66670775,3.0829291,-0.8196105,-1.4147952
1.124,6.2124166,6.2367725,-0.8642607,3.1342034,-0.86228275,-1.4242473
1.126,6.3096547,6.296666,-1.080898,3.1877704,-0.9109016,-1.4342738
1.128,6.4194126,6.3666716,-1.3192679,3.2436173,-0.966113,-1.4449756
1.13,6.545286,6.4473267,-1.5807916,3.301753,-1.028326,-1.4564475
1.132,6.6895714,6.5375605,-1.8637047,3.3622134,-1.0976992,-1.4687195
1.134,6.8550215,6.6358814,-2.1655912,3.4250708,-1.1741065,-1.4818107
1.136,7.043605,6.742069,-2.4850354,3.4903908,-1.2572037,-1.495678
1.138,7.2580457,6.856268,-2.8193605,3.5582325,-1.3464837,-1.5102496
1.14,7.497711,6.980382,-3.16145,3.6286006,-1.4413369,-1.5254004
1.142,7.752225,7.1198235,-3.5109403,3.701445,-1.5411607,-1.5409997
1.144,8.0222025,7.275485,-3.8683195,3.7766442,-1.6454082,-1.5568591
1.146,8.318965,7.4401407,-4.22809,3.8540256,-1.75367,-1.5728047
1.148,8.637867,7.6143794,-4.589589,3.9333322,-1.8656809,-1.5886569
1.15,8.969226,7.804005,-4.9515686,4.0142193,-1.9813707,-1.6042659
1.152,9.316892,8.007762,-5.3074083,4.096263,-2.1008935,-1.6195155
1.154,9.679531,8.222696,-5.6481395,4.1789556,-2.224627,-1.6343855
1.156,10.059966,8.446331,-5.9687877,4.2617207,-2.3530498,-1.6489229
1.158,10.450301,8.682712,-6.271955,4.3440022,-2.4867587,-1.6632365
1.16,10.84762,8.933408,-6.554475,4.4253035,-2.6266081,-1.6774437
1.162,11.2522,9.196226,-6.8096437,4.5051174,-2.773489,-1.6917862
1.164,11.658289,9.4722,-7.0353217,4.582903,-2.9280994,-1.7065799
1.166,12.061548,9.76251,-7.229683,4.6581283,-3.09103,-1.7220632
1.168,12.460177,10.06654,-7.3872876,4.730349,-3.262816,-1.7384241
1.17,12.8506775,10.38328,-7.50242,4.799328,-3.4435167,-1.75591
1.172,13.230824,10.710923,-7.570798,4.8650627,-3.632588,-1.7748682
1.174,13.599078,11.0468235,-7.590207,4.927858,-3.8293543,-1.7954808
1.176,13.953632,11.388548,-7.5598507,4.98821,-4.032518,-1.8175807
1.178,14.293476,11.733768,-7.4804535,5.0465603,-4.2402964,-1.8409193
1.18,14.618083,12.0801325,-7.3539553,5.103207,-4.451455,-1.8653338
1.182,14.926854,12.425588,-7.1822596,5.158819,-4.6644187,-1.8903798
1.184,15.21981,12.767756,-6.9671135,5.214179,-4.877017,-1.9153223
1.186,15.497295,13.104061,-6.709953,5.270332,-5.0864263,-1.9393518
1.188,15.761067,13.431485,-6.412735,5.3286495,-5.2899475,-1.9619497
1.19,16.00994,13.748207,-6.0782113,5.3905973,-5.485476,-1.982971
1.192,16.244587,14.051506,-5.71122,5.4578505,-5.670469,-2.0021105
1.194,16.466831,14.337803,-5.317235,5.531982,-5.842453,-2.018908
1.196,16.676643,14.603934,-4.900461,5.6144776,-5.99924,-2.0328107
1.198,16.873987,14.8470955,-4.4645157,5.706736,-6.1385927,-2.0431848
1.2,17.058643,15.064809,-4.0124826,5.809709,-6.2581587,-2.0495622
1.202,17.229897,15.25519,-3.5469234,5.9237466,-6.355597,-2.0518565
1.204,17.386827,15.416561,-3.0710871,6.048483,-6.4288464,-2.0502965
1.206,17.528093,15.548176,-2.5894794,6.182881,-6.4762726,-2.0454345
1.208,17.652155,15.649766,-2.106655,6.325343,-6.4966745,-2.0381076
1.21,17.75705,15.722136,-1.6265581,6.4738884,-6.4893904,-2.0293708
1.212,17.84039,15.767101,-1.1527953,6.626376,-6.4541144,-2.020336
1.214,17.899704,15.787301,-0.6884651,6.7808304,-6.390567,-2.0119004
1.216,17.932896,15.786314,-0.23639297,6.935751,-6.2984033,-2.004375
1.218,17.93759,15.76834,0.2008977,7.090274,-6.1771374,-1.9973371
1.22,17.911469,15.738485,0.6207049,7.2440357,-6.026051,-1.9897112
1.222,17.852562,15.702271,1.0201769,7.397178,-5.844091,-1.9796464
1.224,17.759232,15.665502,1.396682,7.550091,-5.6306305,-1.9645553
1.226,17.62989,15.634588,1.7477303,7.703153,-5.385894,-1.9415262
1.228,17.46353,15.616108,2.071491,7.8566175,-5.110928,-1.9079651
1.23,17.259844,15.616484,2.366527,8.010408,-4.808717,-1.8619932
1.232,17.018759,15.641876,2.6319747,8.164084,-4.4842224,-1.8024569
1.234,16.740763,15.697933,2.8668451,8.316698,-4.143617,-1.7291273
1.236,16.427717,15.789118,3.0708988,8.466373,-3.7952623,-1.6431866
1.238,16.082645,15.91875,3.2480443,8.610887,-3.4490366,-1.5470629
1.24,15.704648,16.090935,3.4010758,8.747767,-3.1152554,-1.4440117
1.242,15.294993,16.309586,3.5304365,8.87459,-2.8031526,-1.3376875
1.244,14.855415,16.576843,3.6378517,8.989353,-2.5202603,-1.2320089
1.246,14.38874,16.89213,3.7272565,9.090472,-2.272997,-1.1312754
1.248,13.897637,17.253191,3.802211,9.177037,-2.0657065,-1.0395588
1.25,13.387865,17.655582,3.8640072,9.248646,-1.9005755,-0.9602656
1.252,12.871809,18.09227,3.9214597,9.305354,-1.7781425,-0.8959075
1.254,12.348881,18.560902,3.9827576,9.347844,-1.6975611,-0.847844
1.256,11.811627,19.064247,4.0504694,9.377293,-1.6567731,-0.8163719
1.258,11.270243,19.595097,4.132188,9.395261,-1.6527535,-0.80107385
1.26,10.735924,20.14245,4.2336345,9.4034195,-1.6818925,-0.8010134
1.262,10.205875,20.70327,4.3555694,9.403434,-1.7404268,-0.81491184
1.264,9.683953,21.27474,4.4976196,9.396831,-1.824573,-0.84129345
1.266,9.171107,21.85236,4.6642656,9.384926,-1.9307363,-0.8786747
1.268,8.677836,22.426126,4.8650684,9.368779,-2.055612,-0.9257379
1.27,8.207607,22.99033,5.101307,9.349214,-2.1962082,-0.98142403
1.272,7.7605844,23.543785,5.370813,9.326788,-2.349774,-1.0449793
1.274,7.3437357,24.0809,5.675872,9.301903,-2.5136423,-1.1158475
1.276,6.9611783,24.59684,6.016909,9.274759,-2.6854277,-1.193686
1.278,6.6126094,25.090698,6.3908477,9.245452,-2.862938,-1.2783494
1.28,6.3007903,25.560837,6.7945566,9.214038,-3.0441391,-1.3697414
1.282,6.0268908,26.006016,7.226367,9.180473,-3.227284,-1.4677367
1.284,5.791098,26.42576,7.686061,9.144717,-3.4108124,-1.5722071
1.286,5.594128,26.818874,8.173044,9.106725,-3.5933366,-1.6829418
1.288,5.4357243,27.18423,8.686407,9.066395,-3.7737768,-1.7997437
1.29,5.3156414,27.520382,9.224332,9.023638,-3.9512122,-1.9224023
1.292,5.233637,27.82615,9.783242,8.978375,-4.1248655,-2.0507054
1.294,5.1888466,28.100758,10.358503,8.930508,-4.294139,-2.1844387
1.296,5.180156,28.34394,10.944904,8.879921,-4.45861,-2.3233616
1.298,5.2054214,28.555935,11.537516,8.826531,-4.6179667,-2.4672067
1.3,5.265134,28.736118,12.13183,8.770265,-4.77196,-2.6156633
1.302,5.3571463,28.885227,12.724771,8.711041,-4.9203787,-2.7683866
1.304,5.4784703,29.004925,13.312904,8.648929,-5.0628424,-2.925097
1.306,5.627721,29.09607,13.89157,8.583989,-5.198888,-3.0853937
1.308,5.803262,29.159664,14.456267,8.516285,-5.3280134,-3.2488496
1.31,6.003014,29.196634,15.003126,8.445958,-5.449592,-3.4150982
1.312,6.2247996,29.207947,15.528528,8.373112,-5.5629935,-3.5837305
1.314,6.4665184,29.19469,16.03061,8.297861,-5.6675997,-3.7543097
1.316,6.7260103,29.157715,16.50877,8.220297,-5.762846,-3.9263692
1.318,7.0011516,29.09806,16.962275,8.140497,-5.848305,-4.0994167
1.32,7.289989,29.016563,17.390135,8.058516,-5.9236293,-4.2729235
1.322,7.590517,28.914139,17.791733,7.9743757,-5.988577,-4.4463177
1.324,7.900612,28.791637,18.166996,7.8881288,-6.043014,-4.618991
1.326,8.218158,28.649925,18.516336,7.799821,-6.0869074,-4.7902975
1.328,8.541262,28.490238,18.840593,7.709521,-6.1202807,-4.959607
1.33,8.8682995,28.313612,19.141245,7.617287,-6.143265,-5.1262846
1.332,9.197662,28.121237,19.42022,7.5231905,-6.156039,-5.2897105
1.334,9.527878,27.91423,19.679401,7.427293,-6.1589203,-5.449293
1.336,9.857785,27.693245,19.920938,7.3296423,-6.1523857,-5.6045027
1.338,10.18612,27.45894,20.146599,7.230259,-6.137083,-5.754836
1.34,10.511887,27.211937,20.358019,7.1291533,-6.1138434,-5.899874
1.342,10.834034,26.952797,20.55666,7.0263085,-6.083662,-6.039262
1.344,11.151864,26.682053,20.74395,6.921712,-6.047655,-6.172741
1.346,11.464822,26.399866,20.921207,6.815289,-6.007063,-6.300089
1.348,11.772289,26.106417,21.089718,6.7069902,-5.9631643,-6.4211693
1.35,12.074183,25.801802,21.250282,6.5967827,-5.9172077,-6.535886
1.352,12.3704605,25.48593,21.40359,6.484641,-5.870394,-6.6441884
1.354,12.6611805,25.158865,21.549747,6.370585,-5.8237596,-6.74605
1.356,12.9465065,24.820389,21.688637,6.2547016,-5.778131,-6.8414283
1.358,13.22674,24.470526,21.819738,6.1370363,-5.734214,-6.9302087
1.36,13.502006,24.109339,21.942312,6.0177703,-5.6924686,-7.0124216
1.362,13.772749,23.736765,22.055628,5.8971424,-5.6530523,-7.088045
1.364,14.039099,23.35286,22.159111,5.7753725,-5.616004,-7.1569715
1.366,14.30166,22.957792,22.252092,5.6527114,-5.581157,-7.2191153
1.368,14.560802,22.55162,22.333931,5.5294156,-5.548263,-7.274385
1.37,14.817234,22.134575,22.403864,5.405724,-5.5169907,-7.322701
1.372,15.071629,21.70699,22.461178,5.281867,-5.486937,-7.363967
1.374,15.324446,21.269215,22.505737,5.158066,-5.4576683,-7.3981133
1.376,15.576225,20.821697,22.537231,5.034522,-5.428719,-7.4250517
1.378,15.827379,20.364956,22.555569,4.9114494,-5.39956,-7.4447412
1.38,16.078259,19.89952,22.560795,4.789044,-5.3696256,-7.4571834
1.382,16.32967,19.42552,22.553013,4.6674843,-5.3383074,-7.462444
1.384,16.580936,18.94429,22.532253,4.5469165,-5.304942,-7.460665
1.386,16.831638,18.45708,22.49898,4.42745,-5.268905,-7.452073
1.388,17.08256,17.963745,22.453228,4.3091354,-5.229543,-7.43693
1.39,17.332718,17.465332,22.395493,4.1919756,-5.186293,-7.415545
1.392,17.581263,16.962915,22.326214,4.075925,-5.1386676,-7.388233
1.394,17.827543,16.457392,22.245623,3.9609041,-5.086256,-7.355284
1.396,18.070536,15.949758,22.153858,3.8468037,-5.028716,-7.3169127
1.398,18.308926,15.4408455,22.05141,3.733514,-4.9657702,-7.2732334
1.4,18.541157,14.931572,21.93873,3.6209507,-4.8971996,-7.2242966
1.402,18.765518,14.422865,21.816288,3.5090427,-4.822842,-7.1700735
1.404,18.980316,13.91563,21.684093,3.397745,-4.7425923,-7.1105156
1.406,19.183884,13.410893,21.541872,3.287076,-4.6563587,-7.0455422
1.408,19.374462,12.909555,21.389376,3.1770937,-4.5640864,-6.9751015
1.41,19.550465,12.412585,21.226494,3.067903,-4.465781,-6.899202
1.412,19.710396,11.920706,21.053123,2.9596608,-4.361455,-6.8179154
1.414,19.853079,11.434572,20.869081,2.8525639,-4.2511783,-6.731372
1.416,19.97718,10.955158,20.674105,2.7468207,-4.135061,-6.639817
1.418,20.081596,10.483015,20.468048,2.642699,-4.013227,-6.5435476
1.42,20.165424,10.018812,20.250538,2.540476,-3.885874,-6.4429474
1.422,20.228426,9.562996,20.021378,2.4404109,-3.753232,-6.338454
1.424,20.270699,9.116131,19.780565,2.3427432,-3.6155949,-6.2305174
1.426,20.292143,8.678539,19.528214,2.2476625,-3.473375,-6.1196203
1.428,20.29328,8.250462,19.264774,2.1553004,-3.3270845,-6.006253
1.43,20.274618,7.832275,18.99088,2.0657434,-3.177326,-5.8909073
1.432,20.237268,7.4241285,18.706945,1.9790158,-3.0247724,-5.7740397
1.434,20.182213,7.0260963,18.413563,1.8951155,-2.870171,-5.6561
1.436,20.110811,6.638369,18.111446,1.8140254,-2.7143111,-5.537515
1.438,20.024376,6.2608023,17.801445,1.7356921,-2.5579696,-5.4187317
1.44,19.92423,5.893319,17.484665,1.6600571,-2.4019198,-5.3002043
1.442,19.811747,5.535694,17.162148,1.5870651,-2.2468927,-5.182389
1.444,19.688444,5.187845,16.83511,1.5166582,-2.0935755,-5.065744
1.446,19.555773,4.8496475,16.50462,1.4488001,-1.9426343,-4.950712
1.448,19.41507,4.521026,16.171772,1.3834395,-1.794704,-4.8377385
1.45,19.267359,4.201976,15.83783,1.3205271,-1.6504169,-4.7272587
1.452,19.113699,3.8922236,15.503937,1.2599952,-1.5103796,-4.619705
1.454,18.955086,3.591661,15.17107,1.2017646,-1.3752105,-4.5154843
1.456,18.792126,3.300131,14.840193,1.1457391,-1.2454888,-4.414962
1.458,18.625732,3.0173726,14.512019,1.0917943,-1.1218066,-4.318458
1.46,18.455992,2.7433546,14.187234,1.0397959,-1.0047429,-4.226244
1.462,18.283243,2.4779744,13.866484,0.9895818,-0.8948657,-4.1385393
1.464,18.107698,2.2209303,13.550235,0.94099176,-0.7926779,-4.05551
1.466,17.929483,1.9721122,13.239246,0.89387923,-0.69860315,-3.9772522
1.468,17.748585,1.7313819,12.934301,0.8480952,-0.61297417,-3.9037948
1.47,17.564934,1.4985726,12.63579,0.803537,-0.5360296,-3.835097
1.472,17.378168,1.273577,12.344028,0.7600962,-0.467878,-3.7710733
1.474,17.188265,1.0562544,12.059141,0.71770036,-0.40850383,-3.711568
1.476,16.994745,0.8465829,11.781196,0.6762979,-0.35777676,-3.6563873
1.478,16.797182,0.64465857,11.510475,0.6358534,-0.31545928,-3.605312
1.48,16.595394,0.4501152,11.247294,0.59634066,-0.28121033,-3.5581336
1.482,16.388863,0.2630062,10.991906,0.5577258,-0.25457007,-3.5146186
1.484,16.177559,0.08306837,10.744587,0.5199769,-0.23501082,-3.474532
1.486,15.961291,-0.08982563,10.505611,0.4830702,-0.22192824,-3.4376597
1.488,15.739958,-0.25574303,10.275015,0.44698203,-0.21462677,-3.40378
1.49,15.513829,-0.4148469,10.052868,0.4117071,-0.21234272,-3.372651
1.492,15.28312,-0.5673075,9.839226,0.37726945,-0.21427737,-3.3440073
1.494,15.048332,-0.71339893,9.634092,0.34370506,-0.21960522,-3.317574
1.496,14.8098755,-0.85322285,9.437482,0.31106842,-0.22751622,-3.2930763
1.498,14.568756,-0.9871564,9.249493,0.2794391,-0.23719092,-3.2702281
1.5,14.325694,-1.1154804,9.070103,0.24889642,-0.24783489,-3.2487454
1.502,14.081814,-1.2385368,8.899322,0.21953344,-0.25872114,-3.2283487
1.504,13.838383,-1.3565216,8.737163,0.19143444,-0.26916233,-3.2087674
1.506,13.596464,-1.4697652,8.583624,0.16465992,-0.27856132,-3.1897516
1.508,13.357613,-1.5785012,8.43825,0.13924277,-0.28641436,-3.1710792
1.51,13.123023,-1.6830072,8.300594,0.115201056,-0.29231846,-3.1525252
1.512,12.893999,-1.7835283,8.170127,0.09251928,-0.29595888,-3.1338887
1.514,12.671778,-1.8803425,8.04654,0.07116383,-0.29711732,-3.1149926
1.516,12.457265,-1.9737229,7.929673,0.05109507,-0.2956419,-3.0956478
1.518,12.251538,-2.0640602,7.819195,0.032261193,-0.2914682,-3.0756924
1.52,12.05531,-2.1515431,7.7145286,0.0145943165,-0.28457865,-3.054979
1.522,11.869407,-2.2363682,7.615158,-0.0019612908,-0.27498597,-3.0334005
1.524,11.693987,-2.3186631,7.520533,-0.017477393,-0.2626961,-3.0108502
1.526,11.529587,-2.3987808,7.4303684,-0.032029927,-0.24774498,-2.9872735
1.528,11.376103,-2.47689,7.344285,-0.04569441,-0.2301271,-2.962658
1.53,11.233577,-2.5532517,7.261865,-0.058561444,-0.20983231,-2.937028
1.532,11.10144,-2.6280274,7.182682,-0.07072061,-0.18686333,-2.9104195
1.534,10.978928,-2.7013545,7.1064196,-0.082267225,-0.1612243,-2.8828778
1.536,10.865385,-2.7733116,7.032774,-0.09328234,-0.13297161,-2.854477
1.538,10.759769,-2.8439827,6.961802,-0.10385686,-0.10221645,-2.8252914
1.54,10.66119,-2.91365,6.8935394,-0.11405593,-0.06908801,-2.7954035
1.542,10.568381,-2.9823365,6.828102,-0.12393981,-0.03374055,-2.7648869
1.544,10.480358,-3.0500517,6.7654343,-0.13355148,0.0036563575,-2.733842
1.546,10.395718,-3.1167789,6.705616,-0.14292246,0.042948812,-2.7023492
1.548,10.313,-3.18251,6.6491785,-0.1520626,0.08399594,-2.6705132
1.55,10.231079,-3.2473254,6.5963902,-0.16098401,0.1266751,-2.6384163
1.552,10.148626,-3.3110414,6.5479083,-0.1696975,0.17086893,-2.6061609
1.554,10.064301,-3.3737936,6.5043507,-0.17822984,0.21641159,-2.573832
1.556,9.976776,-3.4353514,6.466257,-0.18664807,0.2630972,-2.5415287
1.558,9.884783,-3.4955971,6.4342804,-0.19503951,0.3106226,-2.5093522
1.56,9.787142,-3.554423,6.4087343,-0.20353428,0.35861006,-2.4774137
1.562,9.682601,-3.611457,6.390205,-0.2122778,0.4065976,-2.445834
1.564,9.569628,-3.6665015,6.3794074,-0.22145051,0.45405567,-2.4147546
1.566,9.447072,-3.7191908,6.376647,-0.23123011,0.500431,-2.3843174
1.568,9.31357,-3.7691467,6.382552,-0.24180466,0.54516137,-2.3546717
1.57,9.16799,-3.8160217,6.3974915,-0.25333017,0.5877522,-2.325957
1.572,9.009092,-3.8594518,6.4218946,-0.2659402,0.62780184,-2.2982707
1.574,8.83572,-3.89897,6.4563107,-0.27973044,0.66500396,-2.2716808
1.576,8.646894,-3.9342058,6.5007806,-0.2947649,0.69914323,-2.2462068
1.578,8.44158,-3.9647908,6.5552797,-0.31108102,0.73011905,-2.2218478
1.58,8.218895,-3.9902625,6.6197033,-0.32867402,0.7579479,-2.198514
1.582,7.978103,-4.0103116,6.693885,-0.3475122,0.7827188,-2.1760852
1.584,7.7185245,-4.024441,6.7777443,-0.36753884,0.8046361,-2.1544082
1.586,7.439873,-4.032138,6.8712773,-0.38865754,0.8239896,-2.133303
1.588,7.142252,-4.03298,6.9741964,-0.41074216,0.8411392,-2.1125846
1.59,6.825788,-4.0265226,7.0862546,-0.43362352,0.8565364,-2.092058
1.592,6.490985,-4.0123987,7.2071977,-0.45711005,0.8707068,-2.0715325
1.594,6.1384516,-3.9901514,7.3364434,-0.48102373,0.88421035,-2.050826
1.596,5.7692633,-3.959292,7.4733753,-0.50515795,0.8976424,-2.029774
1.598,5.384823,-3.9196444,7.6174374,-0.5293147,0.91160625,-2.008218
1.6,4.98653,-3.8708332,7.7678294,-0.5533091,0.926677,-1.9860339
1.602,4.5762534,-3.812693,7.9239116,-0.5770017,0.943383,-1.9631116
1.604,4.1557717,-3.7449327,8.084925,-0.6003181,0.9621555,-1.9393898
1.606,3.7272909,-3.6674893,8.250002,-0.6232374,0.9833321,-1.9148414
1.608,3.2929444,-3.5800438,8.418362,-0.6457828,1.007176,-1.8894932
1.61,2.855049,-3.482574,8.589228,-0.66800857,1.0338356,-1.8634192
1.612,2.4157326,-3.3750277,8.762011,-0.6900139,1.0633795,-1.8367621
1.614,1.9771522,-3.257514,8.936,-0.71193117,1.0957719,-1.8097333
1.616,1.5414076,-3.130117,9.110677,-0.733945,1.1308969,-1.7826025
1.618,1.1100807,-2.9930239,9.285552,-0.7562461,1.1685529,-1.7556909
1.62,0.68482244,-2.8463717,9.460007,-0.77907145,1.2084699,-1.7293494
1.622,0.2666676,-2.6904752,9.63357,-0.8026867,1.2503406,-1.7039342
1.624,-0.14367509,-2.5255325,9.805814,-0.82738376,1.2937758,-1.6798167
1.626,-0.54576313,-2.3518476,9.976457,-0.8534703,1.3383548,-1.6573511
1.628,-0.939576,-2.169563,10.145129,-0.88127714,1.3836436,-1.6368686
1.63,-1.3254693,-1.9791257,10.311766,-0.9111242,1.4292423,-1.6186762
1.632,-1.704045,-1.7807082,10.476171,-0.9433142,1.4747664,-1.6030343
1.634,-2.0761912,-1.5746396,10.638135,-0.978088,1.5199236,-1.5901955
1.636,-2.4430542,-1.3611138,10.797515,-1.0156522,1.564533,-1.5803876
1.638,-2.805882,-1.1403189,10.954258,-1.0561056,1.6085287,-1.5738324
1.64,-3.1664345,-0.91243327,11.108508,-1.0995045,1.6519847,-1.5707573
1.642,-3.5260293,-0.6776305,11.260393,-1.1458254,1.6950763,-1.5714083
1.644,-3.8861425,-0.4359753,11.40984,-1.1950036,1.738014,-1.5760599
1.646,-4.247885,-0.18752676,11.556825,-1.2469054,1.7810248,-1.5850224
1.648,-4.612298,0.06760836,11.700975,-1.3013637,1.8243163,-1.5986174
1.65,-4.9800854,0.32937312,11.842086,-1.3581872,1.868018,-1.6172047
1.652,-5.3517923,0.5976969,11.979788,-1.4171431,1.9121889,-1.6411644
1.654,-5.727797,0.87260413,12.113821,-1.4779681,1.9567984,-1.6708803
1.656,-6.107755,1.1539481,12.243807,-1.5403628,2.0017505,-1.7067332
1.658,-6.490704,1.4415969,12.3691845,-1.6040026,2.0468974,-1.7490908
1.66,-6.875804,1.7355313,12.489437,-1.6685646,2.0920126,-1.7982742
1.662,-7.2616262,2.0356133,12.603744,-1.7337693,2.136794,-1.854573
1.664,-7.6464076,2.3416216,12.711594,-1.7993908,2.1808376,-1.9182179
1.666,-8.028204,2.653203,12.812576,-1.8652481,2.2236247,-1.9893919
1.668,-8.404891,2.9697003,12.906022,-1.9312326,2.2645216,-2.0682116
1.67,-8.774225,3.2906222,12.991442,-1.9973035,2.3027892,-2.154731
1.672,-9.133875,3.6152267,13.068012,-2.0634873,2.337566,-2.248946
1.674,-9.481452,3.9426441,13.1349125,-2.1298459,2.367908,-2.350802
1.676,-9.814733,4.271863,13.191591,-2.1965044,2.3928065,-2.4601998
1.678,-10.131617,4.601667,13.237326,-2.2636056,2.411253,-2.5769696
1.68,-10.430179,4.9306474,13.271663,-2.3313076,2.4222944,-2.7008815
1.682,-10.7086735,5.257453,13.293974,-2.399754,2.4250793,-2.8316128
1.684,-10.965591,5.580417,13.303682,-2.4690745,2.4188604,-2.9687786
1.686,-11.1997,5.897925,13.300443,-2.5393932,2.403057,-3.111945
1.688,-11.409897,6.2080307,13.284165,-2.610808,2.377214,-3.260623
1.69,-11.595354,6.50915,13.254709,-2.6834002,2.3410091,-3.4142468
1.692,-11.755065,6.7996607,13.212444,-2.7572484,2.2942495,-3.572211
1.694,-11.887902,7.075815,13.156827,-2.8323917,2.236827,-3.7339053
1.696,-11.994356,7.336767,13.0877,-2.9088733,2.1687112,-3.8986874
1.698,-12.073408,7.5803814,13.005759,-2.986744,2.0899444,-4.0659385
1.7,-12.124712,7.8049364,12.911472,-3.0660439,2.000629,-4.2350197
1.702,-12.147643,8.008753,12.805845,-3.1467834,1.9009447,-4.40532
1.704,-12.142403,8.189685,12.688139,-3.2289524,1.7911582,-4.5762143
1.706,-12.109436,8.346796,12.560944,-3.3125262,1.671628,-4.747095
1.708,-12.047756,8.478705,12.425409,-3.3974254,1.5428736,-4.9173512
1.71,-11.957405,8.584632,12.2824135,-3.4835153,1.4055605,-5.0863733
1.712,-11.8386,8.664061,12.133195,-3.5706122,1.2605171,-5.25356
1.714,-11.691479,8.7165165,11.979141,-3.6584983,1.1087675,-5.4183187
1.716,-11.516691,8.741991,11.821635,-3.746911,0.95150876,-5.5800705
1.718,-11.314591,8.740673,11.661564,-3.8355737,0.7901068,-5.7382574
1.72,-11.085642,8.713419,11.499966,-3.9242353,0.626019,-5.892381
1.722,-10.830578,8.661196,11.338003,-4.0126114,0.46094394,-6.042054
1.724,-10.550024,8.585285,11.176551,-4.100381,0.2967372,-6.1868134
1.726,-10.244495,8.487249,11.016591,-4.187239,0.13518214,-6.3263197
1.728,-9.914804,8.368866,10.858823,-4.2728353,-0.021760225,-6.460349
1.73,-9.56193,8.232023,10.703759,-4.356776,-0.17201567,-6.5887194
1.732,-9.18639,8.078899,10.551548,-4.438591,-0.31333923,-6.7113323
1.734,-8.788783,7.9115562,10.4023,-4.5178556,-0.44383812,-6.8281527
1.736,-8.369957,7.7321024,10.256105,-4.5940247,-0.56160164,-6.9392514
1.738,-7.9308147,7.5428367,10.1130905,-4.6664805,-0.66458845,-7.044746
1.74,-7.472088,7.3461304,9.973089,-4.7346087,-0.75105906,-7.1447744
1.742,-6.994527,7.1440983,9.836014,-4.7977858,-0.8194835,-7.239528
1.744,-6.498741,6.9388905,9.701705,-4.855401,-0.86858106,-7.329262
1.746,-5.98552,6.7325945,9.56987,-4.9068875,-0.8974216,-7.414262
1.748,-5.455683,6.527241,9.440184,-4.951727,-0.90543485,-7.4948215
1.75,-4.9096947,6.3245506,9.312286,-4.989497,-0.8924098,-7.571287
1.752,-4.3485074,6.126313,9.185954,-5.0198298,-0.8585024,-7.644052
1.754,-3.7730882,5.9338984,9.061331,-5.0424566,-0.80419636,-7.7135553
1.756,-3.1847725,5.748821,8.938545,-5.0572205,-0.7302747,-7.780286
1.758,-2.5846257,5.5725636,8.817837,-5.064041,-0.63774395,-7.84477
1.76,-1.9740837,5.406487,8.699705,-5.0628953,-0.5277839,-7.907563
1.762,-1.3542917,5.251854,8.584635,-5.053813,-0.40177822,-7.969255
1.764,-0.7265835,5.10985,8.472702,-5.0368605,-0.2612748,-8.030462
1.766,-0.092312336,4.981659,8.364195,-5.0121136,-0.107975006,-8.091842
1.768,0.547317,4.86856,8.259327,-4.979662,0.05624199,-8.154078
1.77,1.1908317,4.771598,8.158797,-4.939597,0.22930765,-8.21786
1.772,1.8375232,4.692031,8.063682,-4.892017,0.40894032,-8.283903
1.774,2.4865284,4.6312203,7.974678,-4.837016,0.5926304,-8.352898
1.776,3.1367266,4.5912857,7.892937,-4.7747355,0.7776041,-8.42548
1.778,3.7896514,4.5720086,7.8187103,-4.705345,0.9609661,-8.502377
1.78,4.443117,4.575951,7.753689,-4.6290097,1.1399231,-8.584157
1.782,5.0980015,4.60438,7.6987906,-4.5459485,1.3114896,-8.671267
1.784,5.7548823,4.6585274,7.654658,-4.456422,1.4727397,-8.764073
1.786,6.414296,4.739903,7.6221766,-4.360756,1.6208105,-8.862825
1.788,7.0775166,4.8498306,7.602154,-4.259254,1.7532768,-8.967634
1.79,7.7458973,4.989366,7.595638,-4.1523576,1.8676486,-9.078487
1.792,8.420646,5.1597385,7.6046495,-4.0406027,1.9614227,-9.195284
1.794,9.103588,5.361862,7.630563,-3.9245257,2.0324695,-9.31784
1.796,9.797025,5.5965815,7.6740885,-3.8047738,2.0788426,-9.445882
1.798,10.503347,5.8644342,7.73577,-3.682054,2.0987654,-9.579122
1.8,11.224049,6.165796,7.8170395,-3.557135,2.0907354,-9.717205
1.802,11.962288,6.500017,7.919284,-3.4308279,2.053537,-9.859777
1.804,12.720352,6.8680587,8.0434475,-3.303956,1.9862461,-10.006455
1.806,13.500167,7.270073,8.192484,-3.177363,1.8883305,-10.15687
1.808,14.305603,7.703519,8.366157,-3.0519183,1.7594218,-10.310652
1.81,15.139462,8.16824,8.563499,-2.9283924,1.599484,-10.467355
1.812,16.004108,8.661881,8.785744,-2.8075016,1.4088097,-10.626662
1.814,16.901978,9.182629,9.035095,-2.6899312,1.1878781,-10.788225
1.816,17.834969,9.728258,9.310808,-2.5762882,0.9374299,-10.951665
1.818,18.804403,10.297385,9.613779,-2.4670732,0.6584711,-11.116551
1.82,19.814198,10.886442,9.944257,-2.3626852,0.35222483,-11.282381
1.822,20.86506,11.492853,10.302702,-2.2634337,0.020115376,-11.448594
1.824,21.956745,12.115681,10.691207,-2.1695163,-0.3361292,-11.614492
1.826,23.091658,12.750998,11.110334,-2.081007,-0.71450853,-11.779215
1.828,24.270193,13.396297,11.560108,-1.99787,-1.1128488,-11.94177
1.83,25.491041,14.04929,12.041203,-1.9199995,-1.5289192,-12.101133
1.832,26.75353,14.707132,12.554003,-1.8471668,-1.9603541,-12.256074
1.834,28.056368,15.366745,13.098762,-1.7791178,-2.404794,-12.405314
1.836,29.395973,16.026514,13.676281,-1.7155627,-2.8601682,-12.547787
1.838,30.769512,16.684616,14.287294,-1.6560618,-3.3240314,-12.682181
1.84,32.174725,17.33892,14.931276,-1.6002237,-3.7941785,-12.807235
1.842,33.607765,17.987968,15.607624,-1.5476214,-4.2686176,-12.921779
1.844,35.064327,18.630432,16.314987,-1.4977802,-4.745167,-13.024658
1.846,36.540302,19.264914,17.052149,-1.4502246,-5.2217236,-13.11486
1.848,38.03131,19.88964,17.817532,-1.4044037,-5.696203,-13.191376
1.85,39.53199,20.503815,18.609396,-1.359713,-6.16652,-13.25318
1.852,41.03797,21.105705,19.425596,-1.315637,-6.630692,-13.299322
1.854,42.544548,21.694345,20.26307,-1.2716722,-7.086885,-13.32904
1.856,44.04718,22.268505,21.118526,-1.2273095,-7.5333285,-13.341564
1.858,45.541786,22.826931,21.988623,-1.1820883,-7.9684954,-13.336239
1.86,47.024353,23.368303,22.869684,-1.1355807,-8.391191,-13.312599
1.862,48.491203,23.890745,23.757437,-1.0873411,-8.80031,-13.270303
1.864,49.93898,24.392813,24.647497,-1.037023,-9.195097,-13.209208
1.866,51.364548,24.87292,25.535873,-0.9842578,-9.5750885,-13.129297
1.868,52.764927,25.329695,26.418356,-0.92858887,-9.939975,-13.030739
1.87,54.137867,25.76163,27.290777,-0.8695284,-10.289678,-12.913796
1.872,55.481407,26.167053,28.149734,-0.80658555,-10.624289,-12.77885
1.874,56.793926,26.544765,28.992208,-0.7392348,-10.943991,-12.626297
1.876,58.074028,26.893803,29.81523,-0.6669291,-11.248983,-12.456507
1.878,59.32076,27.213293,30.6162,-0.58912605,-11.539537,-12.269854
1.88,60.534027,27.502972,31.39255,-0.50523543,-11.81599,-12.066683
1.882,61.71349,27.762487,32.14217,-0.41462868,-12.078624,-11.847203
1.884,62.85953,27.99242,32.863716,-0.31661668,-12.327786,-11.611494
1.886,63.973293,28.193314,33.556286,-0.21052185,-12.563965,-11.359634
1.888,65.05395,28.368414,34.220367,-0.09560953,-12.787739,-11.091642
1.89,66.10462,28.51918,34.85542,0.028889894,-12.999588,-10.80739
1.892,67.12601,28.64927,35.46259,0.16369265,-13.200505,-10.506983
1.894,68.119675,28.763296,36.043434,0.30961627,-13.391289,-10.190447
1.896,69.08786,28.866495,36.59964,0.4674853,-13.572609,-9.857785
1.898,70.03267,28.965279,37.133568,0.63809156,-13.745283,-9.509116
1.9,70.956406,29.067278,37.647972,0.8222692,-13.90988,-9.144624
1.902,71.86233,29.181011,38.14521,1.020807,-14.066765,-8.764658
1.904,72.75333,29.316547,38.628563,1.2345006,-14.216101,-8.369705
1.906,73.632065,29.485062,39.10222,1.4641955,-14.357756,-7.9602566
1.908,74.5016,29.698923,39.57115,1.71068,-14.491385,-7.5368724
1.91,75.36524,29.971697,40.04029,1.9746203,-14.616607,-7.100235
1.912,76.22445,30.317833,40.515064,2.2566285,-14.732885,-6.650997
1.914,77.08157,30.752367,41.002117,2.5571713,-14.839695,-6.1897893
1.916,77.93967,31.288721,41.506237,2.8765838,-14.936621,-5.7172422
1.918,78.79877,31.944498,42.03462,3.2150943,-15.02333,-5.2339377
1.92,79.66112,32.734596,42.594906,3.572815,-15.099659,-4.740345
1.922,80.528275,33.676544,43.192924,3.94972,-15.165612,-4.2368684
1.924,81.40195,34.786987,43.833508,4.3457136,-15.22126,-3.7238255
1.926,82.28267,36.08248,44.5202,4.760659,-15.266727,-3.201356
1.928,83.16962,37.580124,45.2574,5.1943493,-15.302242,-2.669419
1.93,84.05677,39.29847,46.047287,5.646457,-15.328033,-2.1277027
1.932,84.93211,41.26322,46.896378,6.1165314,-15.344332,-1.5756438
1.934,85.789536,43.496223,47.80327,6.603938,-15.351229,-1.0123508
1.936,86.67606,45.957664,48.78351,7.1078796,-15.348759,-0.4366312
1.938,87.56821,48.68962,49.841698,7.627406,-15.336779,0.15306449
1.94,88.46982,51.7155,50.977997,8.161424,-15.314934,0.75858927
1.942,89.38475,55.054554,52.169544,8.708694,-15.282585,1.3821447
1.944,90.31333,58.719307,53.39631,9.26794,-15.238873,2.0262737
1.946,91.2572,62.69902,54.664543,9.837863,-15.182497,2.6938043
1.948,92.1988,66.99422,55.985535,10.41718,-15.111728,3.3878446
1.95,93.16687,71.58469,57.37938,11.004621,-15.024431,4.1118493
1.952,94.14683,76.486244,58.824455,11.599041,-14.91798,4.869549
1.954,95.15304,81.69861,60.307953,12.19947,-14.789085,5.664834
1.956,96.129776,87.237564,61.820526,12.805148,-14.633848,6.501807
1.958,97.074585,93.054344,63.428074,13.415478,-14.447658,7.384583
1.96,97.98815,99.10772,65.17743,14.030045,-14.224916,8.317152
1.962,98.96216,105.338615,67.0963,14.648682,-13.958502,9.30288
1.964,100.07745,111.71326,69.1712,15.270875,-13.640235,10.345281
1.966,101.40212,118.26307,71.282776,15.895907,-13.259752,11.450808
1.968,102.87163,125.016884,73.374146,16.523998,-12.804628,12.624986
1.97,104.51184,131.92859,75.460205,17.156216,-12.259228,13.873165
1.972,106.334335,138.88861,77.57883,17.793898,-11.604567,15.202631
1.974,108.34541,145.75558,79.75586,18.436237,-10.820247,16.61802
1.976,110.578415,152.4671,81.96712,19.07873,-9.886869,18.121466
1.978,113.08728,159.02107,84.25028,19.716837,-8.779666,19.715864
1.98,115.92567,165.4097,86.68339,20.347153,-7.4698224,21.405203
1.982,119.13576,171.5837,89.23229,20.964708,-5.928385,23.19049
1.984,122.7417,177.43462,91.81489,21.561117,-4.125846,25.066828
1.986,126.77531,182.88715,94.37492,22.122677,-2.0404236,27.012098
1.988,131.25394,187.82884,96.88132,22.63095,0.34511793,29.003384
1.99,136.19827,192.17729,99.31115,23.064514,3.0397942,31.011818
1.992,141.59413,195.88562,101.62308,23.403692,6.042742,32.99581
1.994,147.43915,198.90424,103.76582,23.625221,9.339895,34.907673
1.996,153.73083,201.19095,105.687775,23.70877,12.902558,36.69411
1.998,160.4573,202.73657,107.32352,23.644297,16.691597,38.290436
2,167.60902,203.53516,108.57918,23.422451,20.65913,39.629578
2.002,175.14041,203.5943,109.363914,23.031887,24.735794,40.643063
2.004,182.9886,202.92953,109.59555,22.470264,28.821417,41.26726
2.006,191.07991,201.56342,109.195,21.75993,32.82473,41.477222
2.008,199.3298,199.53073,108.087715,20.936497,36.647556,41.27477
2.01,207.63626,196.88249,106.206764,20.041676,40.19283,40.669453
2.012,215.89038,193.6737,103.50526,19.125687,43.37157,39.6692
2.014,223.97305,189.96005,99.95612,18.23956,46.101707,38.28558
2.016,231.76265,185.79962,95.53924,17.428024,48.31178,36.5363
2.018,239.13164,181.25784,90.241135,16.726759,49.95244,34.448
2.02,245.94331,176.39848,84.07669,16.16041,51.005547,32.050537
2.022,252.07065,171.28204,77.08445,15.739638,51.484146,29.374966
2.024,257.38785,165.97037,69.3245,15.460963,51.427402,26.450016
2.026,261.7765,160.52704,60.871128,15.309335,50.898327,23.301037
2.028,265.13602,155.00568,51.814484,15.261967,49.98275,19.952972
2.03,267.39282,149.44789,42.263474,15.287101,48.775955,16.426792
2.032,268.48773,143.89319,32.34684,15.340277,47.36355,12.740564
2.034,268.3809,138.36777,22.217018,15.366823,45.815258,8.921015
2.036,267.063,132.88991,12.037254,15.307471,44.18028,5.0159645
2.038,264.55447,127.47969,1.9734344,15.100848,42.479786,1.0988216
2.04,260.91043,122.16734,-7.806267,14.687882,40.7101,-2.7279224
2.042,256.21902,116.98274,-17.143639,14.016499,38.839043,-6.3547487
2.044,250.57742,111.962524,-25.87825,13.047245,36.81576,-9.662185
2.046,244.05357,107.18759,-33.867462,11.756012,34.57976,-12.5280695
2.048,236.81207,102.64393,-40.97242,10.143133,32.070908,-14.850538
2.05,228.99445,98.34917,-47.074516,8.227827,29.237549,-16.558828
2.052,220.74908,94.3284,-52.061867,6.043151,26.041546,-17.616173
2.054,212.22986,90.60967,-55.859516,3.642418,22.46635,-18.03245
2.056,203.58514,87.232666,-58.445705,1.0926161,18.532362,-17.859493
2.058,194.96822,84.21399,-59.82315,-1.543231,14.298619,-17.184574
2.06,186.47966,81.57548,-60.01999,-4.219196,9.828921,-16.133911
2.062,178.2509,79.29828,-59.049747,-6.889595,5.216795,-14.83294
2.064,170.36984,77.379486,-56.96789,-9.505261,0.5788556,-13.383636
2.066,162.96481,75.800835,-53.86311,-12.02132,-3.9519734,-11.862448
2.068,156.08063,74.59454,-49.90748,-14.393629,-8.230948,-10.331893
2.07,149.74385,73.75836,-45.245464,-16.57828,-12.114899,-8.845589
2.072,143.8951,73.28724,-40.00472,-18.535452,-15.479927,-7.451995
2.074,138.50745,73.137726,-34.285236,-20.232508,-18.232395,-6.1895247
2.076,133.5746,73.21599,-28.126404,-21.643831,-20.308674,-5.081675
2.078,129.19055,73.45972,-21.671835,-22.75227,-21.676105,-4.1377625
2.08,125.32286,73.88544,-15.132064,-23.551407,-22.336897,-3.3545318
2.082,121.94347,74.54436,-8.708723,-24.04624,-22.328821,-2.7160125
2.084,119.01664,75.47583,-2.559105,-24.251106,-21.7154,-2.193674
2.086,116.47604,76.62209,3.2242584,-24.188538,-20.578838,-1.7518487
2.088,114.24434,77.88635,8.507526,-23.888832,-19.014587,-1.3553619
2.09,112.25654,79.21048,13.161505,-23.388409,-17.125057,-0.97343445
2.092,110.467545,80.59213,17.190971,-22.727158,-15.012402,-0.58122516
2.094,108.85037,82.07497,20.631226,-21.946932,-12.772403,-0.1611836
2.096,107.3685,83.65479,23.47729,-21.09064,-10.490021,0.29406762
2.098,105.997925,85.3525,25.703869,-20.200375,-8.237072,0.77942294
2.1,104.708435,87.14874,27.293314,-19.314232,-6.070733,1.2788975
2.102,103.49585,88.99623,28.25814,-18.464003,-4.032337,1.7706146
2.104,102.33336,90.86395,28.626738,-17.673817,-2.1483383,2.2306376
2.106,101.1904,92.72355,28.4323,-16.958988,-0.43251848,2.6364434
2.108,100.04234,94.52992,27.724754,-16.32661,1.1117334,2.9713795
2.11,98.85995,96.253044,26.576511,-15.777729,2.4885087,3.2270763
2.112,97.642006,97.86614,25.048496,-15.307388,3.7067719,3.4026375
2.114,96.38914,99.349144,23.19072,-14.904322,4.779071,3.502773
2.116,95.09705,100.68663,21.052208,-14.555932,5.7203484,3.5375767
2.118,93.75992,101.86166,18.681395,-14.25162,6.5430546,3.520269
2.12,92.377174,102.85276,16.126205,-13.982576,7.2563004,3.46314
2.122,90.94387,103.64582,13.42524,-13.742252,7.8665285,3.3758261
2.124,89.45763,104.23346,10.615002,-13.527048,8.377763,3.2668004
2.126,87.91446,104.610504,7.7424545,-13.3359375,8.79204,3.144327
2.128,86.31579,104.76976,4.861847,-13.169948,9.1096325,3.0158582
2.13,84.67188,104.70917,2.0138206,-13.032193,9.32917,2.8867025
2.132,82.98606,104.43338,-0.7653885,-12.926676,9.448772,2.75963
2.134,81.267845,103.94636,-3.440876,-12.857299,9.467364,2.6363819
2.136,79.52895,103.25282,-5.975277,-12.827173,9.385135,2.518694
2.138,77.77558,102.368546,-8.333683,-12.837777,9.203859,2.4085832
2.14,76.00691,101.31821,-10.48904,-12.8884945,8.926923,2.308397
2.142,74.2319,100.12364,-12.4244,-12.976573,8.559346,2.2207026
2.144,72.46124,98.81503,-14.134151,-13.097172,8.108006,2.1479874
2.146,70.69961,97.42189,-15.613956,-13.243608,7.5816507,2.0926604
2.148,68.94842,95.96529,-16.859207,-13.40765,6.990718,2.056985
2.15,67.20593,94.45551,-17.867416,-13.579876,6.34705,2.0428803
2.152,65.4708,92.90012,-18.638527,-13.750172,5.663843,2.0516884
2.154,63.748924,91.30946,-19.178478,-13.90833,4.955373,2.0838566
2.156,62.05076,89.70118,-19.501526,-14.044867,4.2365303,2.1385984
2.158,60.38316,88.09592,-19.619896,-14.151783,3.5220501,2.213857
2.16,58.753647,86.50865,-19.544666,-14.22297,2.8259146,2.3066826
2.162,57.169395,84.95134,-19.289185,-14.254404,2.1607797,2.4136286
2.164,55.636757,83.43494,-18.86958,-14.244272,1.5374689,2.5311031
2.166,54.16281,81.96825,-18.304005,-14.192716,0.96461105,2.6556182
2.168,52.753944,80.55819,-17.61137,-14.101591,0.44838428,2.7839952
2.17,51.412144,79.21155,-16.811495,-13.974068,-0.007478237,2.9135728
2.172,50.14042,77.93018,-15.925493,-13.814121,-0.4015547,3.0423598
2.174,48.936928,76.713585,-14.973656,-13.626176,-0.73443043,3.1691704
2.176,47.799335,75.55875,-13.972437,-13.4146805,-1.0082732,3.293643
2.178,46.723866,74.46385,-12.934225,-13.183779,-1.226305,3.4160976
2.18,45.70739,73.42865,-11.871384,-12.937114,-1.3922534,3.537391
2.182,44.747562,72.45358,-10.797506,-12.677744,-1.5099043,3.6586876
2.184,43.84162,71.53846,-9.72695,-12.408087,-1.5826677,3.7812152
2.186,42.98558,70.68215,-8.673466,-12.129988,-1.6133075,3.9060297
2.188,42.17562,69.88285,-7.6485195,-11.844871,-1.6039245,4.033834
2.19,41.406883,69.139046,-6.6611385,-11.553834,-1.5560427,4.164899
2.192,40.67488,68.44983,-5.7179985,-11.257856,-1.470844,4.2990103
2.194,39.975506,67.81463,-4.8246536,-10.957931,-1.3493527,4.4355574
2.196,39.304394,67.232635,-3.9852753,-10.655116,-1.1927134,4.5736904
2.198,38.656963,66.703735,-3.2033415,-10.350557,-1.0023798,4.7124715
2.2,38.029182,66.22697,-2.4819403,-10.045498,-0.78022325,4.8509645
2.202,37.416924,65.8012,-1.8236847,-9.741236,-0.52855515,4.988367
2.204,36.816185,65.42529,-1.2306986,-9.439138,-0.25007406,5.1240044
2.206,36.223064,65.09757,-0.70478725,-9.140535,0.052157342,5.257355
2.208,35.634586,64.81558,-0.2465601,-8.846743,0.3748766,5.3879313
2.21,35.047432,64.57608,0.1439619,-8.558992,0.7147703,5.515224
2.212,34.459328,64.37553,0.46811152,-8.27841,1.0685732,5.6386333
2.214,33.868958,64.209435,0.727201,-8.006044,1.4332124,5.757392
2.216,33.275375,64.073,0.9224434,-7.742839,1.8058921,5.870584
2.218,32.67862,63.960545,1.0545759,-7.4896197,2.1842194,5.977056
2.22,32.07905,63.866035,1.1241274,-7.2471905,2.566216,6.0754375
2.222,31.477135,63.7828,1.1316934,-7.0162454,2.9503295,6.1642056
2.224,30.87393,63.703896,1.0784847,-6.797419,3.3353653,6.241846
2.226,30.270405,63.622715,0.9665253,-6.591261,3.7203467,6.306942
2.228,29.667679,63.532692,0.7983608,-6.398176,4.104398,6.3583074
2.23,29.067118,63.428284,0.5766978,-6.218419,4.4866304,6.395131
2.232,28.470284,63.30444,0.3045044,-6.0520763,4.8659844,6.417011
2.234,27.878706,63.156273,-0.015984535,-5.8990483,5.2412505,6.4239664
2.236,27.294006,62.979824,-0.38337326,-5.7590604,5.6110244,6.4163656
2.238,26.717184,62.7715,-0.7969589,-5.6317124,5.973706,6.394864
2.24,26.149647,62.52835,-1.2559099,-5.516503,6.3275833,6.36033
2.242,25.592142,62.248196,-1.7590895,-5.4127936,6.670895,6.313781
2.244,25.044771,61.930347,-2.3054123,-5.3198977,7.0019717,6.256222
2.246,24.507608,61.574947,-2.893426,-5.237095,7.3193493,6.188646
2.248,23.980444,61.183495,-3.521698,-5.1636066,7.6218424,6.1120396
2.25,23.462793,60.757954,-4.1886463,-5.098631,7.908589,6.027399
2.252,22.953732,60.30139,-4.8931026,-5.0413055,8.179103,5.935787
2.254,22.45224,59.81707,-5.633484,-4.990681,8.433249,5.8383565
2.256,21.957151,59.308743,-6.4081974,-4.945747,8.671198,5.7362986
2.258,21.467257,58.780174,-7.215313,-4.9054728,8.893315,5.630822
2.26,20.981224,58.23492,-8.052677,-4.8688517,9.100072,5.523022
2.262,20.497427,57.67634,-8.917597,-4.835025,9.291842,5.4137545
2.264,20.01437,57.107536,-9.806963,-4.8033504,9.468813,5.303528
2.266,19.530735,56.530884,-10.7171955,-4.7734632,9.630796,5.1924467
2.268,19.045141,55.94821,-11.644173,-4.7453647,9.777173,5.0802546
2.27,18.55658,55.36052,-12.583132,-4.719307,9.90679,4.966344
2.272,18.064226,54.767952,-13.528988,-4.695807,10.017958,4.8498583
2.274,17.567768,54.17032,-14.476078,-4.6755233,10.108568,4.729823
2.276,17.06679,53.56656,-15.4181595,-4.6591773,10.176199,4.6052566
2.278,16.561522,52.955227,-16.348688,-4.6474237,10.218298,4.4752493
2.28,16.052462,52.334557,-17.260674,-4.640805,10.232382,4.3390603
2.282,15.54055,51.702503,-18.147205,-4.639719,10.216263,4.1962047
2.284,15.026892,51.05711,-19.00142,-4.6443477,10.168209,4.046466
2.286,14.512864,50.396362,-19.816845,-4.6546497,10.087169,3.8899744
2.288,14.000007,49.71869,-20.587566,-4.670342,9.972786,3.7271955
2.29,13.489972,49.022713,-21.308311,-4.6908693,9.825548,3.5590053
2.292,12.984597,48.307194,-21.97462,-4.7154517,9.646755,3.386609
2.294,12.485853,47.5711,-22.583324,-4.7430334,9.438524,3.2114713
2.296,11.994923,46.813812,-23.132275,-4.7723794,9.2036915,3.035254
2.298,11.513397,46.03502,-23.620771,-4.8019767,8.94569,2.8597577
2.3,11.042755,45.23476,-24.049355,-4.830145,8.668386,2.6867177
2.302,10.584072,44.413864,-24.419903,-4.855096,8.375978,2.5177069
2.304,10.138492,43.57322,-24.73512,-4.875009,8.072813,2.3539493
2.306,9.706701,42.71449,-24.99913,-4.888165,7.763195,2.196224
2.308,9.28935,41.839397,-25.216766,-4.893091,7.4512615,2.0448873
2.31,8.886778,40.94993,-25.39348,-4.888612,7.1407957,1.8998288
2.312,8.498892,40.048138,-25.535585,-4.8739395,6.835094,1.7605463
2.314,8.125422,39.13571,-25.649654,-4.848766,6.536848,1.6262223
2.316,7.765862,38.214043,-25.741962,-4.8132086,6.24807,1.4958436
2.318,7.4193163,37.28458,-25.818607,-4.767845,5.9700356,1.3682859
2.32,7.084957,36.348495,-25.884947,-4.713622,5.703282,1.2423873
2.322,6.761359,35.406727,-25.946314,-4.6518216,5.447623,1.1170231
2.324,6.446822,34.459766,-26.006731,-4.5840507,5.202216,0.9911777
2.326,6.1397934,33.508324,-26.069391,-4.512087,4.965632,0.8640381
2.328,5.8386655,32.553112,-26.136074,-4.43779,4.735994,0.73498726
2.33,5.542105,31.594757,-26.207771,-4.363019,4.5110564,0.60364056
2.332,5.2489324,30.63395,-26.284706,-4.289537,4.2884045,0.46987623
2.334,4.957932,29.67142,-26.36613,-4.2189126,4.065569,0.3338288
2.336,4.668383,28.707954,-26.450733,-4.1524677,3.8401656,0.1958443
2.338,4.379078,27.744629,-26.536545,-4.0912333,3.610039,0.056512833
2.34,4.088965,26.782621,-26.621077,-4.0359564,3.3733008,-0.08342469
2.342,3.7973895,25.823126,-26.701189,-3.9870386,3.1284823,-0.22307801
2.344,3.5040526,24.867855,-26.773056,-3.9445486,2.8745785,-0.3614173
2.346,3.2089348,23.91861,-26.832523,-3.9082286,2.6111023,-0.49732286
2.348,2.9122171,22.977425,-26.87521,-3.877535,2.3380604,-0.6296228
2.35,2.614235,22.046488,-26.897278,-3.8516748,2.0559373,-0.75717163
2.352,2.3156338,21.12813,-26.895214,-3.829644,1.7656965,-0.8788657
2.354,2.01785,20.224392,-26.865883,-3.8102565,1.4687011,-0.99372613
2.356,1.7216082,19.337498,-26.806465,-3.7922125,1.1666613,-1.1009723
2.358,1.4280252,18.4696,-26.714834,-3.7741716,0.8615384,-1.2000371
2.36,1.138536,17.622812,-26.589727,-3.754797,0.5554652,-1.2906376
2.362,0.85430765,16.799301,-26.430038,-3.732812,0.25064278,-1.3728008
2.364,0.57685614,16.001,-26.235535,-3.707089,-0.050761223,-1.4468441
2.366,0.30736685,15.22978,-26.006477,-3.6766572,-0.34669033,-1.5133485
2.368,0.04698801,14.48745,-25.743904,-3.640744,-0.6352836,-1.5731313
2.37,-0.20321321,13.775652,-25.449118,-3.5987854,-0.9149396,-1.6271694
2.372,-0.44210577,13.095579,-25.124058,-3.5504098,-1.184372,-1.6765262
2.374,-0.6686845,12.448387,-24.77082,-3.4954233,-1.442615,-1.7223015
2.376,-0.88233185,11.834831,-24.391834,-3.4337919,-1.6890256,-1.7655379
2.378,-1.0821924,11.255588,-23.989662,-3.3655682,-1.9232705,-1.8071449
2.38,-1.2676077,10.710943,-23.567219,-3.290882,-2.1452477,-1.8479209
2.382,-1.4383287,10.201197,-23.127285,-3.209932,-2.3551028,-1.8884981
2.384,-1.5939307,9.725983,-22.672655,-3.1229362,-2.5530736,-1.9293349
2.386,-1.734056,9.285049,-22.206284,-3.0301375,-2.739502,-1.9707294
2.388,-1.8587875,8.877962,-21.73069,-2.9317827,-2.9147487,-2.0128677
2.39,-1.9679799,8.50383,-21.248528,-2.8281152,-3.079144,-2.0558317
2.392,-2.0617604,8.161892,-20.762154,-2.7193756,-3.2329807,-2.099678
2.394,-2.140148,7.8509693,-20.273561,-2.6057763,-3.3764446,-2.1443834
2.396,-2.2034905,7.5698996,-19.784714,-2.4875352,-3.5096655,-2.1899557
2.398,-2.2519226,7.3173623,-19.297108,-2.3648646,-3.6327128,-2.2364411
2.4,-2.2857618,7.0919476,-18.812214,-2.2379649,-3.7455962,-2.283908
2.402,-2.3053741,6.892124,-18.331245,-2.1070418,-3.8482857,-2.332457
2.404,-2.3113694,6.716382,-17.854872,-1.9722886,-3.9407294,-2.3821993
2.406,-2.3036327,6.562959,-17.383871,-1.8339201,-4.0229,-2.4332905
2.408,-2.2828171,6.43017,-16.918362,-1.6921923,-4.0948234,-2.4858947
2.41,-2.2495067,6.3163137,-16.458447,-1.5473647,-4.1565485,-2.5401723
2.412,-2.2038379,6.219489,-16.004023,-1.3997144,-4.2081823,-2.5962718
2.414,-2.1463888,6.13791,-15.554811,-1.249526,-4.249885,-2.6543093
2.416,-2.0774503,6.069773,-15.110406,-1.0970786,-4.2818584,-2.714377
2.418,-1.9974662,6.013254,-14.6705265,-0.9426285,-4.304328,-2.7765326
2.42,-1.9067427,5.96647,-14.234463,-0.7864121,-4.317528,-2.8407989
2.422,-1.8056473,5.9277887,-13.801502,-0.6286216,-4.321705,-2.9071496
2.424,-1.6945992,5.89554,-13.370949,-0.46941113,-4.317095,-2.975543
2.426,-1.5739744,5.8680234,-12.942155,-0.30887014,-4.3039255,-3.0458884
2.428,-1.4442418,5.8436947,-12.514798,-0.147059,-4.282408,-3.1180806
2.43,-1.3056159,5.821039,-12.0882845,0.016017139,-4.252744,-3.1919913
2.432,-1.158286,5.7985992,-11.662274,0.18036509,-4.215124,-3.2674785
2.434,-1.0027311,5.7751627,-11.236588,0.3460182,-4.1697435,-3.344389
2.436,-0.83925647,5.7494035,-10.811013,0.51300657,-4.116766,-3.4225612
2.438,-0.6681912,5.7204185,-10.385649,0.68136686,-4.056365,-3.50181
2.44,-0.48987556,5.6870947,-9.960837,0.85111827,-3.9886875,-3.5819845
2.442,-0.30471593,5.6485176,-9.53685,1.022249,-3.913888,-3.6629002
2.444,-0.11318457,5.604021,-9.114333,1.1947216,-3.8321133,-3.7443752
2.446,0.08430809,5.55291,-8.694035,1.368489,-3.743482,-3.8262098
2.448,0.28736305,5.4946914,-8.276741,1.5434781,-3.6481166,-3.9082012
2.45,0.49556062,5.4287205,-7.8633804,1.7195963,-3.5461457,-3.9901278
2.452,0.7082608,5.354766,-7.454796,1.8967519,-3.4376857,-4.071783
2.454,0.92502755,5.272478,-7.052148,2.074843,-3.3228617,-4.152947
2.456,1.1451051,5.181714,-6.656467,2.253785,-3.2018213,-4.2334094
2.458,1.3679316,5.0825143,-6.26883,2.43349,-3.074738,-4.3129487
2.46,1.5928869,4.9748387,-5.89027,2.6138673,-2.9417982,-4.3913474
2.462,1.8194791,4.8588924,-5.5217824,2.7948568,-2.803217,-4.4683924
2.464,2.0468276,4.734894,-5.164342,2.9763951,-2.6592503,-4.543883
2.466,2.274334,4.6034136,-4.8189507,3.1584475,-2.510169,-4.6175985
2.468,2.5014508,4.4648633,-4.486414,3.3409781,-2.356278,-4.689321
2.47,2.7274427,4.31975,-4.1672077,3.5239818,-2.1979244,-4.7588325
2.472,2.9517004,4.168646,-3.8620603,3.7074568,-2.0354707,-4.825886
2.474,3.1734734,4.012326,-3.571268,3.8914275,-1.8693336,-4.890225
2.476,3.3922276,3.851663,-3.295209,4.0759244,-1.6999576,-4.9515953
2.478,3.6075437,3.6873407,-3.03411,4.260992,-1.527811,-5.0097685
2.48,3.818399,3.5203276,-2.788201,4.4466467,-1.353405,-5.064504
2.482,4.024061,3.3520653,-2.5575428,4.6329446,-1.1772807,-5.115576
2.484,4.2247577,3.1835823,-2.3421192,4.8199267,-0.9999925,-5.1627755
2.486,4.4203887,3.0156412,-2.141572,5.007626,-0.8221185,-5.2059145
2.488,4.6101384,2.8492174,-1.9551251,5.1960735,-0.64425075,-5.2448673
2.49,4.7934084,2.6852922,-1.7818801,5.385293,-0.46696126,-5.2795334
2.492,4.969962,2.5245953,-1.6212316,5.575294,-0.29079282,-5.3098655
2.494,5.139427,2.3681626,-1.4724816,5.7660894,-0.11626148,-5.3358574
2.496,5.3015156,2.2168396,-1.3348795,5.957713,0.056225777,-5.3575344
2.498,5.456217,2.0714223,-1.2078769,6.150201,0.22632849,-5.3749485
2.5,5.603391,1.932908,-1.0907621,6.3435907,0.39377177,-5.388153
2.502,5.742719,1.802029,-0.9826726,6.5379305,0.5583693,-5.397196
2.504,5.874323,1.6795466,-0.8830178,6.733254,0.7200047,-5.402115
2.506,5.9982977,1.5661296,-0.79089063,6.929579,0.878567,-5.40292
2.508,6.114622,1.4623504,-0.7056759,7.1268716,1.0338486,-5.399621
2.51,6.223405,1.3686533,-0.6265482,7.3249607,1.1855156,-5.3921995
2.512,6.324704,1.2855136,-0.5527304,7.5235577,1.3331583,-5.3806868
2.514,6.41898,1.2130846,-0.48354495,7.7223186,1.4762557,-5.3651667
2.516,6.506227,1.151649,-0.41823348,7.9207096,1.6140996,-5.345766
2.518,6.5866632,1.1011724,-0.35628533,8.118111,1.7458135,-5.3226023
2.52,6.660803,1.0617237,-0.296901,8.313824,1.8703834,-5.295882
2.522,6.7286468,1.0332981,-0.23956066,8.507072,1.9867508,-5.2658663
2.524,6.7906694,1.0156782,-0.18376917,8.697006,2.0938492,-5.2328386
2.526,6.847196,1.008664,-0.12916553,8.882792,2.1907835,-5.197138
2.528,6.8986983,1.0119524,-0.07527596,9.06361,2.2769496,-5.159073
2.53,6.9455748,1.025111,-0.021915674,9.238763,2.3521442,-5.118887
2.532,6.9884315,1.0477419,0.031006455,9.407701,2.4166307,-5.076738
2.534,7.0276747,1.0796506,0.08358431,9.570065,2.471225,-5.032651
2.536,7.0639777,1.1204963,0.13573003,9.725694,2.517202,-4.986497
2.538,7.0977736,1.1702147,0.18746924,9.874603,2.5562263,-4.9379706
2.54,7.129701,1.2285151,0.23834097,10.016953,2.5901217,-4.886594
2.542,7.1604905,1.2953403,0.28795862,10.152999,2.620707,-4.831745
2.544,7.1908545,1.3708475,0.33574688,10.283018,2.649564,-4.7727337
2.546,7.221554,1.4551067,0.38107884,10.407258,2.6778526,-4.7088585
2.548,7.253582,1.5482118,0.42341673,10.525852,2.7061768,-4.639493
2.55,7.2876053,1.650564,0.4622587,10.638819,2.734485,-4.5641565
2.552,7.3246713,1.7625966,0.4970634,10.746061,2.7621408,-4.4825535
2.554,7.3658066,1.8846822,0.527279,10.847374,2.7880554,-4.3946505
2.556,7.4116707,2.0174108,0.5526091,10.942497,2.8107374,-4.300639
2.558,7.463339,2.1612988,0.5725287,11.031144,2.8285313,-4.200922
2.56,7.521653,2.316928,0.5868759,11.113059,2.8397477,-4.096082
2.562,7.5875983,2.4849298,0.5953548,11.188075,2.842867,-3.9868574
2.564,7.6618814,2.6657486,0.59806144,11.25613,2.8365538,-3.8740587
2.566,7.7455363,2.8599122,0.5951313,11.317228,2.819687,-3.7585368
2.568,7.839262,3.0676641,0.58658576,11.371388,2.7914138,-3.6411612
2.57,7.9438257,3.2894366,0.57268083,11.418693,2.7512126,-3.522832
2.572,8.059877,3.5254624,0.55389094,11.459198,2.6988194,-3.4044719
2.574,8.187935,3.7759347,0.5305135,11.492896,2.6341662,-3.2869108
2.576,8.328614,4.040789,0.5031096,11.5198,2.5573041,-3.1709077
2.578,8.482368,4.3200274,0.47223532,11.539869,2.4684005,-3.057138
2.58,8.649646,4.613603,0.4384662,11.553075,2.3676438,-2.9461334
2.582,8.830685,4.921327,0.40245557,11.559321,2.2552042,-2.8383071
2.584,9.025953,5.242953,0.36485362,11.558527,2.131202,-2.733985
2.586,9.2356615,5.5782714,0.32630444,11.550582,1.9957062,-2.6333864
2.588,9.460029,5.927003,0.2877016,11.535382,1.8486724,-2.536639
2.59,9.699584,6.288593,0.24979115,11.512816,1.6899418,-2.4438238
2.592,9.954604,6.662277,0.21352267,11.482784,1.5192348,-2.3549502
2.594,10.224441,7.047552,0.17970347,11.4451475,1.3361717,-2.2700357
2.596,10.50906,7.444278,0.14910865,11.399752,1.1402622,-2.1890864
2.598,10.8091955,7.8518643,0.12234712,11.346402,0.93093705,-2.1121323
2.6,11.125219,8.269759,0.10043478,11.28487,0.7075527,-2.039226
2.602,11.457329,8.697227,0.08459282,11.214927,0.46947938,-1.9704742
2.604,11.805498,9.133395,0.07621527,11.136346,0.2161141,-1.9060504
2.606,12.169819,9.577072,0.07685566,11.048874,-0.053101003,-1.8462117
2.608,12.550253,10.027206,0.08803034,10.952292,-0.33868003,-1.7913066
2.61,12.946906,10.4826145,0.111427784,10.8464,-0.64100826,-1.7417648
2.612,13.360157,10.942213,0.14861012,10.731012,-0.96038914,-1.6981101
2.614,13.790034,11.404697,0.20116854,10.605982,-1.2970133,-1.6609225
2.616,14.236839,11.868662,0.27064943,10.471224,-1.6509991,-1.63081
2.618,14.70083,12.332636,0.35875225,10.326712,-2.0223527,-1.6083536
2.62,15.182079,12.794785,0.466609,10.172486,-2.411041,-1.5940773
2.622,15.680852,13.253063,0.5955529,10.008681,-2.8169563,-1.588402
2.624,16.197273,13.705534,0.7467594,9.835516,-3.2399004,-1.591634
2.626,16.731422,14.150066,0.92146397,9.65326,-3.679592,-1.60399
2.628,17.28336,14.584765,1.120697,9.462259,-4.135619,-1.6256094
2.63,17.852991,15.007688,1.3452644,9.262813,-4.607429,-1.6566012
2.632,18.440273,15.416821,1.5960922,9.055168,-5.094339,-1.6970806
2.634,19.0447,15.810121,1.8737135,8.839456,-5.5954437,-1.747201
2.636,19.665602,16.185688,2.17869,8.615713,-6.1096125,-1.807112
2.638,20.302113,16.541374,2.5111723,8.383886,-6.635479,-1.8769364
2.64,20.953182,16.875683,2.871214,8.143878,-7.1714563,-1.9567821
2.642,21.617188,17.18707,3.258525,7.89554,-7.71572,-2.0467484
2.644,22.292793,17.473793,3.6724358,7.6387506,-8.266255,-2.146867
2.646,22.978146,17.7342,4.112197,7.373453,-8.820839,-2.257079
2.648,23.671227,17.96688,4.5766335,7.099769,-9.377093,-2.3771882
2.65,24.369598,18.170681,5.0644674,6.818014,-9.932481,-2.5068114
2.652,25.070538,18.344563,5.5741615,6.5287385,-10.484354,-2.6454198
2.654,25.771076,18.487381,6.104043,6.232804,-11.03001,-2.792375
2.656,26.467924,18.598335,6.6516743,5.9313555,-11.566725,-2.946923
2.658,27.15754,18.67657,7.214366,5.6258283,-12.091818,-3.1082485
2.66,27.836374,18.721373,7.7890186,5.3178773,-12.602659,-3.2755632
2.662,28.500717,18.73213,8.372352,5.00927,-13.096755,-3.4481087
2.664,29.146664,18.708202,8.960868,4.701786,-13.571758,-3.6251862
2.666,29.770557,18.64943,9.550824,4.3970847,-14.0255375,-3.8061242
2.668,30.36832,18.556168,10.138481,4.0965776,-14.456215,-3.9902248
2.67,30.936195,18.428858,10.719958,3.8013434,-14.862183,-4.1767464
2.672,31.470514,18.267847,11.291574,3.5121322,-15.242161,-4.364924
2.674,31.967587,18.073706,11.84951,3.2292967,-15.59516,-4.5539665
2.676,32.42379,17.847002,12.390073,2.952856,-15.920513,-4.742934
2.678,32.83566,17.588682,12.909935,2.6825786,-16.217842,-4.9307556
2.68,33.200058,17.299786,13.405837,2.418014,-16.487007,-5.1162024
2.682,33.513966,16.981583,13.874561,2.1586308,-16.728104,-5.2979784
2.684,33.77467,16.635838,14.313365,1.9039817,-16.941336,-5.4746623
2.686,33.979652,16.264414,14.719652,1.6538095,-17.127007,-5.6447797
2.688,34.126835,15.869686,15.091139,1.4080548,-17.285429,-5.806824
2.69,34.214485,15.454317,15.425995,1.1669874,-17.416927,-5.959262
2.692,34.241673,15.021222,15.722752,0.9312134,-17.521736,-6.1005735
2.694,34.207428,14.573629,15.980325,0.701725,-17.599981,-6.229204
2.696,34.111412,14.114874,16.197998,0.47989845,-17.651716,-6.343607
2.698,33.953674,13.648656,16.375248,0.26742268,-17.676931,-6.44232
2.7,33.734802,13.178673,16.511974,0.06618023,-17.675585,-6.524104
2.702,33.455868,12.7088585,16.608223,-0.12191582,-17.647547,-6.587879
2.704,33.1187,12.242941,16.664345,-0.29502964,-17.592638,-6.6327477
2.706,32.725708,11.784484,16.68105,-0.45148563,-17.510687,-6.658013
2.708,32.27949,11.336841,16.659313,-0.589972,-17.401514,-6.663084
2.71,31.783344,10.902887,16.600151,-0.70957327,-17.26509,-6.6475763
2.712,31.240824,10.485285,16.50524,-0.80979395,-17.1015,-6.6111975
2.714,30.656187,10.086035,16.376253,-0.890594,-16.911049,-6.5537987
2.716,30.033731,9.706903,16.215101,-0.9523635,-16.6943,-6.475371
2.718,29.37808,9.348781,16.024025,-0.9959121,-16.452084,-6.376113
2.72,28.693977,9.011819,15.805534,-1.0224028,-16.185484,-6.256521
2.722,27.985977,8.695752,15.562243,-1.0332766,-15.895743,-6.1174245
2.724,27.258905,8.399716,15.297229,-1.0301752,-15.584228,-5.9599686
2.726,26.517277,8.122554,15.013521,-1.0148644,-15.252266,-5.785552
2.728,25.76548,7.862422,14.714372,-0.989059,-14.9011135,-5.5957923
2.73,25.008007,7.61761,14.403277,-0.954381,-14.531843,-5.3925443
2.732,24.24884,7.3859634,14.083623,-0.91224384,-14.145262,-5.177739
2.734,23.491516,7.165139,13.758707,-0.86371326,-13.741859,-4.953189
2.736,22.739557,6.952716,13.431798,-0.8095207,-13.321842,-4.7204847
2.738,21.996197,6.7461214,13.106074,-0.75003815,-12.885138,-4.480913
2.74,21.264166,6.5429664,12.784555,-0.6852889,-12.431435,-4.2354074
2.742,20.546173,6.3412304,12.470061,-0.6149688,-11.960274,-3.9845421
2.744,19.844368,6.139401,12.165144,-0.538573,-11.471143,-3.7285912
2.746,19.1609,5.936044,11.872135,-0.45549107,-10.963584,-3.4675665
2.748,18.49772,5.7306123,11.593119,-0.36511612,-10.437279,-3.2013617
2.75,17.856623,5.5221457,11.329827,-0.26690578,-9.8920965,-2.929804
2.752,17.23959,5.310389,11.083845,-0.16046739,-9.3281555,-2.6527395
2.754,16.648045,5.0956616,10.856513,-0.04557705,-8.745863,-2.3700728
2.756,16.083752,4.878587,10.648569,0.07777858,-8.145972,-2.081937
2.758,15.548312,4.659649,10.460498,0.20939302,-7.5294785,-1.7886999
2.76,15.043414,4.4395466,10.292538,0.3488121,-6.897585,-1.490916
2.762,14.570843,4.2190986,10.144392,0.49538398,-6.251691,-1.189343
2.764,14.132601,3.9993088,10.015489,0.6482681,-5.5933104,-0.88490653
2.766,13.730572,3.7810802,9.905213,0.8064585,-4.9240584,-0.5786587
2.768,13.366488,3.5652452,9.812742,0.9688293,-4.2456384,-0.2717296
2.77,13.042278,3.3524814,9.736965,1.1341755,-3.5597837,0.034695774
2.772,12.759493,3.1432173,9.6763525,1.3012397,-2.8682528,0.33944485
2.774,12.519556,2.9378319,9.629343,1.4687557,-2.1728034,0.6414138
2.776,12.323595,2.7363253,9.594083,1.6354519,-1.4752328,0.939529
2.778,12.172729,2.538319,9.568468,1.8000984,-0.7773496,1.2327898
2.78,12.067463,2.34373,9.550188,1.9614661,-0.0810042,1.5202746
2.782,12.00811,2.1524775,9.53693,2.1183841,0.6119141,1.8011444
2.784,11.994666,1.9645631,9.526526,2.2697144,1.2994292,2.074665
2.786,12.026631,1.780091,9.516528,2.4143445,1.9795007,2.3402095
2.788,12.102955,1.599088,9.504722,2.55119,2.6500053,2.5972447
2.79,12.221975,1.4216437,9.489156,2.6792371,3.3088295,2.8453867
2.792,12.381732,1.2478304,9.467941,2.7975242,3.953857,3.084373
2.794,12.579703,1.077982,9.439501,2.9051805,4.583014,3.3140616
2.796,12.812996,0.9122255,9.402321,3.0014563,5.194294,3.5343854
2.798,13.07814,0.7508931,9.3552265,3.085744,5.78582,3.7453597
2.8,13.371273,0.59434557,9.297294,3.1575782,6.355879,3.947012
2.802,13.688108,0.44315863,9.227941,3.2166972,6.9029255,4.1393604
2.804,14.024311,0.29819202,9.146729,3.262996,7.4256086,4.322354
2.806,14.375578,0.160357,9.053639,3.2965271,7.922798,4.4958124
2.808,14.737404,0.030480862,8.948971,3.3175108,8.393585,4.659405
2.81,15.105322,-0.09047842,8.833109,3.3263187,8.837336,4.8126235
2.812,15.474835,-0.20166397,8.706839,3.3234675,9.253664,4.954784
2.814,15.841436,-0.30207443,8.570929,3.3096066,9.642479,5.0850573
2.816,16.201088,-0.39080286,8.426299,3.2855084,10.003996,5.2025204
2.818,16.549982,-0.46700573,8.273756,3.2520344,10.338714,5.3062334
2.82,16.884537,-0.5298023,8.114396,3.210123,10.647363,5.395275
2.822,17.201775,-0.57845926,7.949009,3.1607518,10.93087,5.46885
2.824,17.498886,-0.6123047,7.7785406,3.1048946,11.190287,5.5263267
2.826,17.773766,-0.6309037,7.6038494,3.0434659,11.426668,5.5673203
2.828,18.024471,-0.63369656,7.4256945,2.9772654,11.641011,5.591739
2.83,18.24966,-0.620605,7.244771,2.9069614,11.834189,5.599843
2.832,18.44825,-0.591516,7.06185,2.8330767,12.006844,5.5921917
2.834,18.619604,-0.5463371,6.8774757,2.7559698,12.159411,5.5696435
2.836,18.763533,-0.48532772,6.692415,2.675827,12.292105,5.533287
2.838,18.879946,-0.40869808,6.5073814,2.59268,12.404947,5.4843755
2.84,18.969166,-0.31696606,6.323111,2.5064783,12.497849,5.4242706
2.842,19.031582,-0.21069145,6.14016,2.4170809,12.570658,5.354414
2.844,19.06802,-0.09051895,5.9592023,2.3243237,12.623246,5.2762246
2.846,19.079367,0.042738914,5.7806168,2.2280798,12.655605,5.191038
2.848,19.066399,0.18828773,5.60487,2.128303,12.6679535,5.100153
2.85,19.030157,0.34527016,5.4323463,2.0250525,12.660756,5.004759
2.852,18.97184,0.5127449,5.26334,1.9185157,12.634764,4.9059076
2.854,18.892694,0.68952847,5.0979815,1.8089976,12.590971,4.804521
2.856,18.794054,0.87465954,4.936244,1.6969008,12.53059,4.701385
2.858,18.676897,1.0668173,4.778139,1.5826945,12.455014,4.59717
2.86,18.54229,1.2649822,4.6233144,1.466927,12.365734,4.492433
2.862,18.391396,1.4678478,4.471425,1.3501282,12.264251,4.3876667
2.864,18.225248,1.6741781,4.321925,1.2328157,12.152075,4.2832866
2.866,18.044859,1.8826485,4.174346,1.1154704,12.030596,4.1796374
2.868,17.851177,2.0921016,4.0280056,0.99851656,11.901062,4.0769987
2.87,17.645014,2.3012595,3.8821938,0.8823252,11.7645445,3.9755964
2.872,17.427248,2.5088067,3.736309,0.76719904,11.621893,3.8755803
2.874,17.198645,2.7133985,3.589685,0.6533804,11.473781,3.7770336
2.876,16.959793,2.9137187,3.4417841,0.5410452,11.32065,3.6799538
2.878,16.711348,3.108635,3.2920012,0.43029308,11.162779,3.5842595
2.88,16.45391,3.296918,3.139923,0.3211832,11.000315,3.489813
2.882,16.188036,3.47746,2.9854267,0.21369934,10.833256,3.3964047
2.884,15.914291,3.6491795,2.828333,0.107779026,10.661567,3.303813
2.886,15.633262,3.8108988,2.6686218,0.0032920837,10.485182,3.2118354
2.888,15.345345,3.9617043,2.5065181,-0.09989643,10.304022,3.1203263
2.89,15.051181,4.1005363,2.34235,-0.20194769,10.118032,3.0291948
2.892,14.751242,4.2266016,2.1765296,-0.30302382,9.9271965,2.9384418
2.894,14.446003,4.3392825,2.0095458,-0.40327454,9.7315445,2.848129
2.896,14.135885,4.4377728,1.8421779,-0.5028372,9.531168,2.758362
2.898,13.82166,4.5215797,1.6749997,-0.6018357,9.3262005,2.669306
2.9,13.504023,4.590208,1.5086577,-0.7003875,9.116808,2.5811422
2.902,13.183533,4.6433506,1.3438916,-0.7985859,8.903178,2.4940739
2.904,12.860769,4.68071,1.1813381,-0.89651656,8.685498,2.4082987
2.906,12.536446,4.702404,1.0217628,-0.9942701,8.463944,2.3240051
2.908,12.211162,4.708425,0.86579704,-1.0919256,8.238679,2.2413573
2.91,11.885663,4.699007,0.714026,-1.1895552,8.009836,2.1605234
2.912,11.560527,4.6743994,0.5669303,-1.2872343,7.7775245,2.0816517
2.914,11.236473,4.6349893,0.42510605,-1.3850458,7.54181,2.004878
2.916,10.913887,4.581224,0.28902864,-1.4830425,7.3027716,1.930339
2.918,10.593409,4.513894,0.15900373,-1.5812752,7.060459,1.8581907
2.92,10.275652,4.4337473,0.03553295,-1.679784,6.8149376,1.7885811
2.922,9.9611225,4.341655,-0.081065655,-1.7785459,6.566307,1.7216902
2.924,9.650444,4.23855,-0.19044924,-1.8775206,6.314706,1.6576767
2.926,9.343902,4.1253295,-0.29226446,-1.9766128,6.0603456,1.5967119
2.928,9.042038,4.0029774,-0.38613224,-2.0756888,5.803464,1.5389419
2.93,8.745308,3.8725224,-0.47182226,-2.174561,5.54439,1.4845088
2.932,8.454178,3.7348285,-0.5490582,-2.2730007,5.283537,1.4335322
2.934,8.168966,3.5908546,-0.6175339,-2.3707302,5.02136,1.3860629
2.936,7.8900175,3.4415708,-0.6770897,-2.4674497,4.7583838,1.3421384
2.938,7.617817,3.287857,-0.727592,-2.56282,4.495201,1.3017619
2.94,7.3525505,3.1306772,-0.7690296,-2.6564934,4.232434,1.2648897
2.942,7.0947,2.9708097,-0.80136895,-2.7481167,3.9707625,1.2314591
2.944,6.8443832,2.8089979,-0.82472587,-2.8373194,3.7108946,1.2013937
2.946,6.6020055,2.645944,-0.8393729,-2.9237401,3.4535432,1.1746035
2.948,6.367795,2.4822807,-0.84563136,-3.007039,3.1994371,1.1509783
2.95,6.141885,2.3185942,-0.8438437,-3.0868874,2.9492965,1.1304058
2.952,5.92449,2.1554346,-0.8344786,-3.162991,2.703813,1.1127518
2.954,5.7157736,1.9931685,-0.8179712,-3.235087,2.4636462,1.0978831
2.956,5.515729,1.8322465,-0.7948127,-3.3029912,2.229401,1.0856447
2.958,5.324608,1.6729114,-0.7656257,-3.366569,2.0016184,1.0758708
2.96,5.142436,1.5154289,-0.73116827,-3.4257336,1.7807665,1.0683837
2.962,4.9691234,1.3601032,-0.6921394,-3.4804552,1.5672023,1.0630054
2.964,4.8048286,1.2071707,-0.6491666,-3.530768,1.3612038,1.0595247
2.966,4.649162,1.0566653,-0.6029022,-3.5767388,1.1629264,1.0577228
2.968,4.502327,0.90886676,-0.5542587,-3.618467,0.97245324,1.0573815
2.97,4.364251,0.7639452,-0.5037236,-3.6560764,0.7897395,1.0582743
2.972,4.2345986,0.62209094,-0.45209706,-3.6897066,0.61467785,1.0601883
2.974,4.1134176,0.48335522,-0.4000715,-3.719493,0.44708854,1.0629253
2.976,4.0003977,0.34792376,-0.34828925,-3.7455964,0.2867403,1.0662904
2.978,3.8953414,0.21597224,-0.29727173,-3.7681472,0.13338166,1.0701355
2.98,3.798078,0.087705016,-0.24754763,-3.7872539,-0.013261735,1.0743399
2.982,3.708281,-0.03673798,-0.19958556,-3.8030221,-0.1534453,1.0787969
2.984,3.625809,-0.15721649,-0.15380728,-3.8155284,-0.28740847,1.0834347
2.986,3.5504274,-0.2735517,-0.11056399,-3.8248336,-0.41537315,1.0882256
2.988,3.4818707,-0.38572818,-0.07016945,-3.830975,-0.5375312,1.0931518
2.99,3.4198217,-0.49349415,-0.03281164,-3.8339748,-0.65403605,1.0981947
2.992,3.3640566,-0.5967935,0.0012210608,-3.83386,-0.7650257,1.1033417
2.994,3.3144302,-0.6955196,0.031804323,-3.830626,-0.87059647,1.1085799
2.996,3.270564,-0.78954417,0.058897376,-3.8243036,-0.97082573,1.113874
2.998,3.23236,-0.8788229,0.08241975,-3.8149166,-1.0657665,1.1191872
3,3.1995208,-0.96330875,0.102288365,-3.8024926,-1.1554465,1.1244599
3.002,3.1718454,-1.0430467,0.118537664,-3.7870867,-1.239891,1.1296219
3.004,3.1491241,-1.1179883,0.13108933,-3.7687452,-1.3190973,1.1345968
3.006,3.1313035,-1.1881275,0.13994968,-3.7475443,-1.3930793,1.1393056
3.008,3.1181312,-1.2535474,0.14517558,-3.7235575,-1.461823,1.1436467
3.01,3.1092668,-1.3143187,0.14668524,-3.6968617,-1.5253422,1.1474987
3.012,3.1048653,-1.3705376,0.144503,-3.6675472,-1.5836563,1.150758
3.014,3.1047773,-1.4222695,0.13859391,-3.6357017,-1.6368074,1.1533061
3.016,3.1086445,-1.469733,0.12891829,-3.6014094,-1.6848357,1.1550274
3.018,3.1164951,-1.5130581,0.11541939,-3.5647695,-1.7278242,1.1558274
3.02,3.1280138,-1.5523734,0.09804475,-3.5258713,-1.7658737,1.1556195
3.022,3.1432843,-1.5878487,0.076939106,-3.4847975,-1.7991118,1.1543281
3.024,3.1620798,-1.6198518,0.051862597,-3.441643,-1.8276906,1.1518828
3.026,3.1843495,-1.6484538,0.022909522,-3.3964925,-1.8518113,1.1482316
3.028,3.2098594,-1.6739146,-0.009852052,-3.3494415,-1.8716787,1.1433413
3.03,3.238486,-1.6964737,-0.0464226,-3.300582,-1.8875499,1.1371924
3.032,3.2701578,-1.7163447,-0.08681607,-3.2500057,-1.8996928,1.1297629
3.034,3.3046446,-1.7337996,-0.1309905,-3.1978216,-1.9083989,1.1210434
3.036,3.3418427,-1.7489554,-0.17891705,-3.1441307,-1.9139686,1.1110426
3.038,3.3814917,-1.7620565,-0.23049796,-3.0890417,-1.9167261,1.0997556
3.04,3.4235597,-1.7733588,-0.28568447,-3.0326746,-1.9170015,1.087191
3.042,3.4677076,-1.7830123,-0.34425652,-2.9751344,-1.9151086,1.0733715
3.044,3.513811,-1.7912021,-0.40608108,-2.916544,-1.9113805,1.0583214
3.046,3.5617502,-1.7980957,-0.4710716,-2.8570209,-1.9061308,1.042074
3.048,3.6112657,-1.8039933,-0.53894234,-2.7966938,-1.8996699,1.0246637
3.05,3.6622348,-1.8088826,-0.6094732,-2.735663,-1.8922868,1.0061425
3.052,3.7143447,-1.8129414,-0.68246925,-2.6740482,-1.8842746,0.9865525
3.054,3.7674365,-1.8162814,-0.75752294,-2.6119602,-1.8758955,0.9659372
3.056,3.8212285,-1.8189883,-0.83437324,-2.5494928,-1.8674062,0.94434685
3.058,3.8756127,-1.8211812,-0.91267884,-2.4867544,-1.8590455,0.92182773
3.06,3.9302106,-1.822857,-0.9921464,-2.4238281,-1.8510203,0.8984301
3.062,3.9849663,-1.8240641,-1.0722958,-2.3608022,-1.8435425,0.8742056
3.064,4.0395894,-1.8247625,-1.1528461,-2.2977624,-1.83678,0.8492217
3.066,4.0937624,-1.8250159,-1.2333453,-2.2347841,-1.8309058,0.82353604
3.068,4.1473756,-1.8247861,-1.3136052,-2.171943,-1.8260657,0.79723114
3.07,4.200201,-1.8240116,-1.3930037,-2.1092963,-1.822391,0.77039355
3.072,4.252009,-1.8226126,-1.4712292,-2.0468955,-1.8200064,0.7431276
3.074,4.302503,-1.8204532,-1.5479352,-1.9847878,-1.8190292,0.71552795
3.076,4.3517065,-1.8174049,-1.6228515,-1.9229964,-1.8195593,0.6876908
3.078,4.3991823,-1.8132195,-1.6955097,-1.8615478,-1.8216925,0.65971804
3.08,4.4448214,-1.8078636,-1.7656618,-1.8004572,-1.8255253,0.6316957
3.082,4.4884586,-1.8010744,-1.8329118,-1.7397342,-1.8311571,0.6037222
3.084,4.52976,-1.7925339,-1.8970512,-1.6793728,-1.838665,0.575865
3.086,4.568736,-1.7821125,-1.9578689,-1.6193659,-1.8481286,0.5482077
3.088,4.605215,-1.7695259,-2.0150936,-1.5596927,-1.8595953,0.52081686
3.09,4.6391153,-1.7545514,-2.068571,-1.5003254,-1.8731047,0.4937532
3.092,4.6702433,-1.7369332,-2.1181319,-1.4412276,-1.8886529,0.46707278
3.094,4.698431,-1.7163497,-2.16357,-1.3823521,-1.9061893,0.4408239
3.096,4.723538,-1.692616,-2.2049234,-1.323642,-1.9256676,0.4150498
3.098,4.745642,-1.6654444,-2.2420065,-1.2650309,-1.9469873,0.3897826
3.1,4.7645335,-1.6346326,-2.2749207,-1.2064596,-1.9700433,0.365045
3.102,4.7801003,-1.5999174,-2.3036373,-1.1478535,-1.9946991,0.3408597
3.104,4.792322,-1.5611434,-2.3281808,-1.0891681,-2.0208166,0.3172313
3.106,4.8011994,-1.5181229,-2.3486087,-1.0303566,-2.0482469,0.29419008
3.108,4.8065734,-1.4706203,-2.3650699,-0.97139025,-2.0768578,0.27175698
3.11,4.8084745,-1.4184539,-2.3776555,-0.9122621,-2.1065118,0.24995801
3.112,4.806931,-1.3615936,-2.3866343,-0.85298514,-2.13709,0.22883579
3.114,4.801973,-1.2998123,-2.3920672,-0.7935918,-2.1684844,0.20843858
3.116,4.7936335,-1.2330911,-2.3941188,-0.73413086,-2.2005947,0.18882257
3.118,4.782047,-1.1613088,-2.3930714,-0.67466116,-2.233333,0.17004293
3.12,4.7671504,-1.0843512,-2.3890204,-0.6152407,-2.266609,0.15214482
3.122,4.748878,-1.0021845,-2.3822198,-0.55593765,-2.300342,0.1351538
3.124,4.727245,-0.91488165,-2.372815,-0.49682838,-2.3344462,0.11908257
3.126,4.702431,-0.8223553,-2.361003,-0.43796998,-2.3688235,0.10390861
3.128,4.6743164,-0.7245053,-2.3469234,-0.37942272,-2.4033766,0.08960122
3.13,4.642891,-0.6214092,-2.3308067,-0.3212458,-2.438007,0.07608712
3.132,4.607794,-0.5129649,-2.3132467,-0.2634748,-2.4725971,0.063276455
3.134,4.5690355,-0.3990303,-2.2945786,-0.20615715,-2.5070248,0.051045164
3.136,4.5263453,-0.27952313,-2.2755136,-0.1493316,-2.5411973,0.039247096
3.138,4.479375,-0.1543487,-2.2568593,-0.09304832,-2.5750434,0.027717382
3.14,4.4276667,-0.023435764,-2.239478,-0.037360035,-2.6084921,0.016251422
3.142,4.3704205,0.113275506,-2.2240381,0.017671913,-2.6415272,0.0046472885
3.144,4.306615,0.25601432,-2.2110982,0.07195461,-2.6741478,-0.0073050354
3.146,4.234892,0.40513855,-2.2017918,0.12537928,-2.7063901,-0.019818785
3.148,4.1537137,0.56100744,-2.1976519,0.17782325,-2.7383244,-0.033098985
3.15,4.0605946,0.7239839,-2.2002761,0.22913663,-2.7700422,-0.047325835
3.152,3.9528797,0.8947732,-2.211092,0.27917835,-2.801658,-0.06264226
3.154,3.8281035,1.0747671,-2.2310116,0.32778233,-2.8332827,-0.079143696
3.156,3.6844249,1.2651663,-2.2610207,0.37479386,-2.8650496,-0.09688517
3.158,3.520197,1.4669949,-2.3023453,0.42009056,-2.897071,-0.11586525
3.16,3.3333626,1.6806878,-2.3554544,0.46356684,-2.9294293,-0.1360221
3.162,3.1210542,1.9076,-2.420825,0.5051272,-2.962204,-0.1572226
3.164,2.8807905,2.149616,-2.4985619,0.5446986,-2.9954908,-0.17927949
3.166,2.610079,2.4088438,-2.5892055,0.5822302,-3.0293958,-0.20194392
3.168,2.3067575,2.6874895,-2.6935554,0.61762905,-3.0641038,-0.2249105
3.17,1.9687872,2.9872017,-2.8119507,0.6507523,-3.0999079,-0.24783717
3.172,1.5940727,3.3091338,-2.944543,0.68136585,-3.137285,-0.27031612
3.174,1.1809529,3.6537585,-3.0907931,0.70913553,-3.176934,-0.29190165
3.176,0.7284646,4.021345,-3.249465,0.7336142,-3.2198098,-0.31213742
3.178,0.23597729,4.412135,-3.4182172,0.7541934,-3.2671607,-0.33050567
3.18,-0.29615033,4.8262877,-3.5939732,0.7700429,-3.3205664,-0.3463743
3.182,-0.8663422,5.2637095,-3.772837,0.78015214,-3.3819475,-0.35896185
3.184,-1.4717648,5.724062,-3.9502594,0.78346753,-3.4534662,-0.36744702
3.186,-2.1089692,6.206786,-4.1209035,0.778999,-3.5373044,-0.37101862
3.188,-2.7724998,6.7100577,-4.2793236,0.765841,-3.6355875,-0.36882994
3.19,-3.4565828,7.2323627,-4.419669,0.74321115,-3.7503304,-0.35986236
3.192,-4.153478,7.7702518,-4.535677,0.7106577,-3.8831124,-0.34295046
3.194,-4.8545446,8.319733,-4.6211147,0.66820025,-4.034781,-0.31691334
3.196,-5.5506783,8.876144,-4.6701317,0.6164562,-4.205201,-0.28067756
3.198,-6.2316875,9.433949,-4.677633,0.5566884,-4.3931584,-0.23342416
3.2,-6.887068,9.98707,-4.6391444,0.49079472,-4.5963187,-0.17479879
3.202,-7.5061216,10.5289955,-4.5512223,0.42129338,-4.8111224,-0.10505879
3.204,-8.078029,11.052797,-4.411669,0.35123178,-5.0328174,-0.025151214
3.206,-8.5924835,11.55131,-4.2193203,0.28395966,-5.255633,0.063238055
3.208,-9.040213,12.0175495,-3.9747126,0.22292471,-5.4729075,0.15764078
3.21,-9.412572,12.4445715,-3.67972,0.17133209,-5.677313,0.2548678
3.212,-9.702392,12.825873,-3.337659,0.13189295,-5.8612437,0.35110763
3.214,-9.904126,13.155484,-2.9532447,0.106583774,-6.0172772,0.44211662
3.216,-10.013855,13.428303,-2.5323625,0.09652884,-6.138672,0.52346784
3.218,-10.029358,13.639955,-2.081883,0.101961076,-6.219878,0.5908915
3.22,-9.950573,13.787418,-1.6096184,0.12230719,-6.2570596,0.64057624
3.222,-9.779121,13.868772,-1.1236563,0.15635988,-6.248423,0.6694866
3.224,-9.518486,13.883048,-0.6325648,0.20250326,-6.1943493,0.67569494
3.226,-9.173801,13.831042,-0.14473057,0.25894576,-6.097404,0.6584898
3.228,-8.751617,13.714676,0.3318255,0.32392615,-5.962063,0.6184289
3.23,-8.259508,13.5370655,0.7894553,0.3958858,-5.794233,0.5572779
3.232,-7.706431,13.302554,1.2213786,0.47355807,-5.6006737,0.4777334
3.234,-7.101738,13.016474,1.621756,0.555989,-5.388369,0.38310608
3.236,-6.455152,12.684875,1.985679,0.64243674,-5.1639547,0.27697268
3.238,-5.7766953,12.314343,2.3094177,0.732203,-4.9333386,0.16293159
3.24,-5.076106,11.912074,2.5903094,0.8245735,-4.7014613,0.04429414
3.242,-4.3625956,11.485224,2.8270464,0.9188404,-4.4720416,-0.07618004
3.244,-3.6453466,11.041152,3.0191438,1.0142813,-4.2475867,-0.19647776
3.246,-2.9322448,10.586868,3.167173,1.1100744,-4.0296564,-0.31520677
3.248,-2.2305102,10.129245,3.2724497,1.2053332,-3.8191462,-0.43139732
3.25,-1.546462,9.674717,3.3369288,1.299165,-3.6164575,-0.5443862
3.252,-0.8852564,9.229092,3.3629427,1.3907721,-3.4215996,-0.65369534
3.254,-0.2510208,8.797534,3.3531575,1.4794631,-3.2343621,-0.75893813
3.256,0.35310137,8.384311,3.3110375,1.5646386,-3.054511,-0.85981387
3.258,0.92481095,7.993244,3.2404823,1.6458066,-2.881868,-0.95616174
3.26,1.462979,7.627432,3.1453176,1.7225597,-2.7163575,-1.0479938
3.262,1.9671209,7.289113,3.028775,1.7945645,-2.5580802,-1.1354357
3.264,2.4367824,6.9794536,2.8939898,1.8615612,-2.4073324,-1.2187483
3.266,2.871519,6.699644,2.7441053,1.9233552,-2.2645528,-1.2982984
3.268,3.2713253,6.450802,2.58248,1.9798229,-2.1302435,-1.3745365
3.27,3.6377199,6.2337646,2.4118311,2.030889,-2.004919,-1.447962
3.272,3.9729333,6.0482006,2.2351017,2.0765388,-1.8890522,-1.5191108
3.274,4.2791085,5.8933077,2.055016,2.1168313,-1.7830122,-1.5884808
3.276,4.5586944,5.7682414,1.8749701,2.1519303,-1.6870604,-1.65654
3.278,4.8141465,5.6721215,1.6982925,2.1820545,-1.601354,-1.7237375
3.28,5.0483227,5.604607,1.5278355,2.2074957,-1.5258913,-1.7904248
3.282,5.2640567,5.5655556,1.366057,2.2285874,-1.4605823,-1.856862
3.284,5.4643393,5.55498,1.2149224,2.24568,-1.4052737,-1.9232575
3.286,5.6520433,5.572529,1.0758567,2.2591462,-1.3597522,-1.9897394
3.288,5.829684,5.6172204,0.9497375,2.269342,-1.3237767,-2.056365
3.29,5.999631,5.687852,0.83708644,2.2765934,-1.2971102,-2.1231165
3.292,6.1638374,5.7830877,0.73851305,2.2812142,-1.2795252,-2.1899068
3.294,6.3237066,5.901502,0.65444005,2.283476,-1.2708215,-2.2566087
3.296,6.480976,6.041776,0.5849978,2.2836301,-1.2708535,-2.323069
3.298,6.6363897,6.2031355,0.5306182,2.281882,-1.2794772,-2.3891094
3.3,6.791164,6.384287,0.49142253,2.2783828,-1.2966094,-2.4545465
3.302,6.9454865,6.5848236,0.4671684,2.2732277,-1.322148,-2.5192196
3.304,7.099497,6.803964,0.45767134,2.2664695,-1.355965,-2.5830116
3.306,7.253337,7.0408444,0.46254823,2.2581093,-1.3979306,-2.6458814
3.308,7.406679,7.294238,0.48171127,2.2480814,-1.4478778,-2.707842
3.31,7.5589304,7.562703,0.5147048,2.236269,-1.5056055,-2.7690048
3.312,7.709358,7.8445044,0.5611114,2.2224858,-1.5709171,-2.8295403
3.314,7.8565626,8.137629,0.62049097,2.2065077,-1.6435568,-2.8896601
3.316,7.9995656,8.439701,0.6921199,2.1880507,-1.7232444,-2.9496233
3.318,8.13697,8.748127,0.7754015,2.1668098,-1.809691,-3.009691
3.32,8.26734,9.059948,0.8696916,2.1424656,-1.902548,-3.0701318
3.322,8.389178,9.372048,0.9742185,2.1147165,-2.0014307,-3.1312008
3.324,8.500988,9.681159,1.0881593,2.083308,-2.1058846,-3.1931427
3.326,8.601636,9.9836235,1.2105459,2.0480256,-2.2154078,-3.256202
3.328,8.689522,10.275973,1.3402056,2.0087402,-2.329412,-3.32063
3.33,8.763334,10.554401,1.4760689,1.9654042,-2.447266,-3.3866875
3.332,8.821894,10.815324,1.6170965,1.9180806,-2.5682821,-3.454654
3.334,8.86469,11.055235,1.7623886,1.8669349,-2.6917405,-3.5248215
3.336,8.891015,11.2703285,1.9105451,1.8122346,-2.816899,-3.597447
3.338,8.900479,11.457009,2.0603077,1.7543567,-2.9430506,-3.6727712
3.34,8.892722,11.611957,2.2104588,1.6937597,-3.0695388,-3.750984
3.342,8.867634,11.732145,2.3596919,1.6309918,-3.1957932,-3.8322425
3.344,8.825401,11.814873,2.5066552,1.5666482,-3.3213456,-3.916623
3.346,8.766348,11.857713,2.6501155,1.5013297,-3.4458327,-4.004129
3.348,8.691038,11.858876,2.7888675,1.4356279,-3.5690422,-4.094674
3.35,8.600071,11.817016,2.9218025,1.3700867,-3.6908681,-4.188064
3.352,8.494084,11.731218,3.0478835,1.3051788,-3.8113286,-4.2840033
3.354,8.374065,11.601199,3.1660643,1.2412937,-3.9305208,-4.3820434
3.356,8.240729,11.427156,3.2755475,1.1786973,-4.0486317,-4.481599
3.358,8.095238,11.209709,3.3754587,1.117505,-4.165917,-4.5819035
3.36,7.9388084,10.950163,3.465046,1.0576736,-4.2826777,-4.6819935
3.362,7.7725096,10.650337,3.543546,0.9990512,-4.399234,-4.780753
3.364,7.597507,10.312466,3.610363,0.9413948,-4.5158534,-4.876936
3.366,7.4149904,9.939304,3.6648564,0.8843269,-4.632741,-4.9692335
3.368,7.2262383,9.533984,3.7065792,0.8273412,-4.750145,-5.056317
3.37,7.0325437,9.099861,3.735087,0.7698409,-4.8682585,-5.1369247
3.372,6.835177,8.640596,3.750216,0.7111837,-4.987178,-5.2099075
3.374,6.6354,8.160121,3.7516427,0.6507089,-5.106925,-5.274307
3.376,6.434313,7.6624994,3.7392588,0.58775294,-5.227434,-5.3294163
3.378,6.2334394,7.151775,3.7129405,0.5216721,-5.3485904,-5.3748217
3.38,6.033661,6.6322594,3.6726274,0.45189857,-5.4701605,-5.4104414
3.382,5.836299,6.1079855,3.6184974,0.37794226,-5.5918474,-5.436502
3.384,5.64255,5.582693,3.5505676,0.29941243,-5.7132435,-5.45352
3.386,5.4533443,5.060149,3.4689894,0.21604848,-5.8338814,-5.4622555
3.388,5.2696695,4.5438356,3.3741724,0.12772375,-5.953225,-5.463611
3.39,5.0925016,4.0369487,3.266409,0.03442955,-6.0706677,-5.4585524
3.392,4.922776,3.5425084,3.1460943,-0.063700676,-6.1855307,-5.448002
3.394,4.761094,3.0631452,3.0137935,-0.16639435,-6.297102,-5.4327803
3.396,4.6078906,2.6012964,2.870088,-0.27324355,-6.404607,-5.4135394
3.398,4.46379,2.1590223,2.7157116,-0.3836938,-6.507266,-5.390776
3.4,4.329131,1.7379994,2.5514574,-0.49707997,-6.60429,-5.364762
3.402,4.2041388,1.3396311,2.3779848,-0.6126609,-6.694929,-5.335623
3.404,4.088921,0.96499467,2.196306,-0.7296406,-6.7784758,-5.3033576
3.406,3.9835317,0.6148623,2.0074453,-0.84719384,-6.854311,-5.267912
3.408,3.887821,0.28966856,1.8123753,-0.96450925,-6.9219317,-5.2292504
3.41,3.8017561,-0.010319591,1.6123548,-1.0808192,-6.9809475,-5.1873493
3.412,3.7249808,-0.2849946,1.4086193,-1.1954076,-7.031114,-5.1422725
3.414,3.6573417,-0.53450775,1.2023408,-1.3076434,-7.072299,-5.0941496
3.416,3.5985622,-0.75939053,0.9948767,-1.4170322,-7.1045275,-5.0431776
3.418,3.5483754,-0.96006024,0.7874361,-1.5232096,-7.127966,-4.9895988
3.42,3.5063806,-1.1371382,0.58134234,-1.6258881,-7.1428685,-4.9336557
3.422,3.4723046,-1.291539,0.37781203,-1.7248447,-7.1495028,-4.875602
3.424,3.4460018,-1.4242839,0.17802513,-1.8199778,-7.148184,-4.8156815
3.426,3.4270203,-1.536169,-0.016820014,-1.9112804,-7.1392756,-4.7541046
3.428,3.4153159,-1.628468,-0.20565528,-1.9988322,-7.1231003,-4.691024
3.43,3.4106793,-1.7022221,-0.38742375,-2.0827389,-7.099945,-4.6265445
3.432,3.4128947,-1.7585809,-0.56117475,-2.163135,-7.0700274,-4.560712
3.434,3.4217968,-1.7987554,-0.7260899,-2.24019,-7.033497,-4.4935236
3.436,3.4372392,-1.8239986,-0.88136417,-2.3140752,-6.9904623,-4.42496
3.438,3.4593687,-1.8354774,-1.0262814,-2.384942,-6.940964,-4.3549614
3.44,3.4883385,-1.8343409,-1.1603528,-2.4529476,-6.8850136,-4.283495
3.442,3.52406,-1.8217014,-1.2835386,-2.5182347,-6.822567,-4.210545
3.444,3.5662885,-1.7985883,-1.3957404,-2.58091,-6.753601,-4.136127
3.446,3.6149821,-1.7657658,-1.4966944,-2.641073,-6.678062,-4.060258
3.448,3.670279,-1.7241422,-1.5864329,-2.6987762,-6.5959024,-3.9829879
3.45,3.7322152,-1.674459,-1.6651422,-2.7540746,-6.507101,-3.9043877
3.452,3.800926,-1.617464,-1.7331374,-2.806994,-6.4116325,-3.8245182
3.454,3.876353,-1.5537922,-1.7907271,-2.8575196,-6.3095074,-3.743493
3.456,3.9582326,-1.4839244,-1.8383904,-2.9055882,-6.200714,-3.6614099
3.458,4.0466523,-1.4085402,-1.8768002,-2.9511275,-6.0852695,-3.5783794
3.46,4.141531,-1.3280499,-1.9065967,-2.9940312,-5.9631844,-3.4944963
3.462,4.2427382,-1.2427906,-1.9285343,-3.034179,-5.8344836,-3.4098837
3.464,4.3501368,-1.153144,-1.9433588,-3.071423,-5.699169,-3.3246408
3.466,4.463531,-1.0592555,-1.9519514,-3.1056213,-5.5572543,-3.238883
3.468,4.5826764,-0.9613451,-1.9550189,-3.136619,-5.408763,-3.1527538
3.47,4.707185,-0.85978556,-1.9533783,-3.1642463,-5.253727,-3.0664415
3.472,4.836871,-0.75464964,-1.9478692,-3.1883488,-5.092188,-2.9801526
3.474,4.971395,-0.6461729,-1.939331,-3.2087698,-4.9241962,-2.8941388
3.476,5.110438,-0.5345601,-1.9284607,-3.2253852,-4.749849,-2.8086789
3.478,5.2535706,-0.4199164,-1.9161416,-3.238068,-4.5692625,-2.7240586
3.48,5.4003696,-0.30236077,-1.9030961,-3.2467232,-4.3826084,-2.6405663
3.482,5.550388,-0.18199182,-1.8900511,-3.2512717,-4.1901407,-2.5584795
3.484,5.703266,-0.05903721,-1.8776542,-3.25167,-3.992151,-2.4780507
3.486,5.858528,0.06622219,-1.8664858,-3.2478895,-3.7890103,-2.3994813
3.488,6.015682,0.1935358,-1.8570578,-3.2399197,-3.5811768,-2.322938
