Time_s_,Acc_x_m_s_2_,Acc_y_m_s_2_,Acc_z_m_s_2_,Gyro_x_1_s_,Gyro_y_1_s_,Gyro_z_1_s_
0,-0.87312764,0.9734388,3.8096664,-0.19621818,0.25917962,0.4935935
0.002,-0.86614645,0.7533642,3.653875,-0.18459281,0.25124973,0.4884148
0.004,-0.8526619,0.52901685,3.4988148,-0.17005013,0.24860361,0.48538083
0.006,-0.8325635,0.30167842,3.3459182,-0.15190506,0.2530616,0.48532778
0.008,-0.80588704,0.07251221,3.1973987,-0.12946181,0.2666942,0.48912957
0.01,-0.7731333,-0.15680307,3.0549884,-0.10214141,0.29175282,0.4976915
0.012,-0.7345213,-0.38500214,2.9199471,-0.06961917,0.33039886,0.5118637
0.014,-0.6904533,-0.61040115,2.7931511,-0.031942073,0.3844718,0.53228456
0.016,-0.6415619,-0.8312512,2.6752853,0.010370536,0.45515335,0.5591935
0.018,-0.588381,-1.0458732,2.5668163,0.056342546,0.54264677,0.5923968
0.02,-0.5322936,-1.2523398,2.467209,0.10463796,0.64602,0.6312572
0.022,-0.4736616,-1.448812,2.3754957,0.15374614,0.76312816,0.67475677
0.024,-0.4129892,-1.6335114,2.2919407,0.20220177,0.89077187,0.72158945
0.026,-0.35263163,-1.8042378,2.2162108,0.24884039,1.0250374,0.7702154
0.028,-0.2933303,-1.9598209,2.1471076,0.29359758,1.1624818,0.8192265
0.03,-0.235672,-2.0987585,2.0842285,0.33553553,1.298435,0.8670223
0.032,-0.1815766,-2.219644,2.027473,0.37464246,1.4286793,0.9120535
0.034,-0.13248612,-2.321762,1.9760495,0.41129377,1.5497935,0.95318973
0.036,-0.08908315,-2.4050622,1.9288769,0.4460815,1.6591315,0.98958325
0.038,-0.052192673,-2.4695191,1.8849477,0.47964704,1.7549205,1.0206662
0.04,-0.022301719,-2.5157895,1.8432264,0.51247513,1.8359648,1.0461596
0.042,0.0009062886,-2.5451183,1.802594,0.54465264,1.9012223,1.0659438
0.044,0.01792252,-2.5590363,1.7623705,0.5757602,1.9496703,1.0799116
0.046,0.029575408,-2.559378,1.7219671,0.6050284,1.9804524,1.0881059
0.048,0.036665455,-2.548124,1.6807144,0.63160664,1.9929667,1.0908427
0.05,0.040283114,-2.5273528,1.6378112,0.6547472,1.9867802,1.088598
0.052,0.04149708,-2.4991653,1.5927758,0.67387444,1.9617213,1.0819355
0.054,0.041980222,-2.4658272,1.5450928,0.6885613,1.9180735,1.0713627
0.056,0.042095676,-2.4361594,1.4907005,0.6985069,1.8569095,1.0572854
0.058,0.044570416,-2.4041536,1.4305625,0.70352364,1.7800001,1.0401242
0.06,0.052499786,-2.3725486,1.3677009,0.70366764,1.6897624,1.0203716
0.062,0.065380424,-2.341957,1.3054104,0.69935995,1.5892779,0.99849975
0.064,0.08333284,-2.313877,1.2460566,0.6913635,1.4820294,0.9749671
0.066,0.108411595,-2.29045,1.1898277,0.68068206,1.3715866,0.9502972
0.068,0.14484394,-2.2746596,1.1348883,0.66850835,1.2613127,0.92507505
0.07,0.19500165,-2.2688332,1.0790069,0.65609825,1.1542006,0.89996517
0.072,0.25828922,-2.2738645,1.0204512,0.64461064,1.0526903,0.87564254
0.074,0.33254582,-2.289358,0.9581626,0.63501346,0.95853907,0.8527505
0.076,0.416556,-2.3143075,0.892712,0.62799406,0.8729064,0.831864
0.078,0.5096812,-2.347481,0.82566774,0.6239399,0.7963929,0.8134707
0.08,0.61230344,-2.3876317,0.7578952,0.62293565,0.7290989,0.7980066
0.082,0.7241932,-2.4330418,0.68866336,0.62484306,0.670829,0.78576016
0.084,0.8451005,-2.4830973,0.6177751,0.62938756,0.6211922,0.7768657
0.086,0.97482383,-2.5381172,0.54682624,0.6361953,0.5797196,0.7712978
0.088,1.1131492,-2.5987012,0.4770612,0.6448869,0.54581434,0.7689228
0.09,1.2590623,-2.6649816,0.4091716,0.65503436,0.51870507,0.7695778
0.092,1.410639,-2.7362137,0.34461644,0.6661949,0.49753663,0.77296734
0.094,1.5668472,-2.8116279,0.28479803,0.6777915,0.48115385,0.77859676
0.096,1.7265615,-2.8896673,0.22976196,0.68921876,0.46818972,0.78596616
0.098,1.888779,-2.96877,0.17930973,0.6999173,0.4573325,0.7946269
0.1,2.0522969,-3.0477223,0.13400608,0.7093093,0.44725567,0.8040997
0.102,2.215667,-3.12562,0.094973326,0.7168373,0.43652767,0.8136506
0.104,2.377819,-3.202239,0.06297988,0.7219193,0.42353243,0.8223054
0.106,2.53766,-3.2777936,0.038639963,0.72404116,0.40674227,0.82911146
0.108,2.694448,-3.3524263,0.022395253,0.72279257,0.3849334,0.833378
0.11,2.8474362,-3.426538,0.014460504,0.7179127,0.35733706,0.8347148
0.112,2.995902,-3.5004272,0.014949441,0.70946616,0.32382005,0.8328844
0.114,3.1394513,-3.5747285,0.023239255,0.6979954,0.28490016,0.82782334
0.116,3.277472,-3.650085,0.03853786,0.6845286,0.2416066,0.8198428
0.118,3.4092317,-3.7263203,0.05965936,0.6705213,0.19554992,0.8096303
0.12,3.5338888,-3.8033872,0.085908175,0.65761125,0.14883295,0.79812056
0.122,3.6506283,-3.881111,0.116827965,0.6472034,0.10366887,0.7864103
0.124,3.759158,-3.9597073,0.15189278,0.64028037,0.06214831,0.7755163
0.126,3.8590138,-4.0391254,0.19015914,0.6372774,0.026030913,0.7660949
0.128,3.9496324,-4.118848,0.23068118,0.6380721,-0.003384009,0.7583308
0.13,4.03054,-4.198466,0.27311957,0.6420668,-0.025311254,0.7519471
0.132,4.101122,-4.277604,0.31774223,0.64832705,-0.039458722,0.74627167
0.134,4.1605983,-4.355632,0.36315525,0.65577984,-0.045897268,0.74041975
0.136,4.209873,-4.432482,0.40828323,0.6634149,-0.044973314,0.73351693
0.138,4.248226,-4.5072746,0.45258462,0.6704281,-0.037216574,0.72487724
0.14,4.2750225,-4.5794897,0.49454796,0.67630655,-0.023278624,0.7142114
0.142,4.2910047,-4.648832,0.53286135,0.6808151,-0.0038402379,0.7016885
0.144,4.296225,-4.714352,0.56699467,0.68401,0.020453721,0.6878331
0.146,4.290576,-4.775313,0.5967263,0.6860272,0.048842013,0.6734462
0.148,4.274421,-4.831218,0.62182343,0.68699884,0.08055377,0.6593189
0.15,4.2479515,-4.881194,0.6424289,0.68688536,0.114646465,0.6457901
0.152,4.211308,-4.9244933,0.65849566,0.6853669,0.14983818,0.6327074
0.154,4.1645236,-4.960614,0.67048013,0.68195957,0.18470284,0.6195371
0.156,4.108087,-4.9893427,0.6802101,0.6760608,0.21788278,0.60557806
0.158,4.043799,-5.010235,0.68921876,0.66706836,0.24811336,0.58995265
0.16,3.97243,-5.0220037,0.69764173,0.6544471,0.27414435,0.57166064
0.162,3.8945777,-5.0243716,0.7058176,0.6378391,0.2947425,0.5497979
0.164,3.8114614,-5.018527,0.7134937,0.6171351,0.30880356,0.5238392
0.166,3.7247105,-5.0057,0.7202982,0.59238976,0.31554604,0.49387133
0.168,3.6357553,-4.986503,0.7278155,0.56378484,0.31462443,0.46052244
0.17,3.5442624,-4.960386,0.73844767,0.53165615,0.30607146,0.42463428
0.172,3.452314,-4.928142,0.7539027,0.4964894,0.2901477,0.38705027
0.174,3.3615937,-4.8899364,0.7751808,0.45895332,0.2673604,0.34857664
0.176,3.2733598,-4.8460608,0.8026887,0.4198729,0.23851842,0.3099361
0.178,3.1871495,-4.7956047,0.83680725,0.3800721,0.20459086,0.27178302
0.18,3.1027186,-4.738155,0.87995946,0.3402465,0.16671745,0.23470436
0.182,3.0227075,-4.674597,0.934026,0.30092594,0.12619391,0.19920179
0.184,2.9499636,-4.606129,0.99809027,0.26254502,0.08442161,0.16566178
0.186,2.8861322,-4.5337334,1.0690669,0.22557084,0.042995825,0.1345236
0.188,2.8319423,-4.45843,1.1438788,0.19051234,0.00381908,0.106472455
0.19,2.7877254,-4.381019,1.2206025,0.15799825,-0.031012058,0.08227649
0.192,2.7537284,-4.30223,1.2992959,0.12887783,-0.05927186,0.06250212
0.194,2.7303424,-4.222165,1.3792905,0.1042284,-0.07869368,0.047624476
0.196,2.7171357,-4.140309,1.4583235,0.08518293,-0.087149754,0.03823631
0.198,2.7134285,-4.056262,1.5344453,0.07276134,-0.082833044,0.035065528
0.2,2.7185311,-3.9703596,1.6064284,0.06795486,-0.064190544,0.038640954
0.202,2.7316208,-3.8837194,1.6728945,0.071637206,-0.029973146,0.049060706
0.204,2.7519388,-3.798273,1.7334929,0.084377214,0.020477813,0.065919384
0.206,2.7786956,-3.7162623,1.7876843,0.10631356,0.087019354,0.08828679
0.208,2.8110127,-3.639318,1.8342794,0.13702826,0.16861045,0.11477752
0.21,2.8478532,-3.5689378,1.8729558,0.1755134,0.26325467,0.14360261
0.212,2.8881872,-3.5062306,1.9036257,0.22021902,0.36808288,0.17279182
0.214,2.9306886,-3.4516387,1.9267654,0.26921105,0.4795296,0.20042765
0.216,2.9741175,-3.4055998,1.9434823,0.32032013,0.59368765,0.2249043
0.218,3.0174558,-3.3682692,1.9550726,0.3713658,0.70664555,0.24514951
0.22,3.0596142,-3.3396335,1.9625157,0.420407,0.81494075,0.26072773
0.222,3.1001465,-3.3200076,1.9666808,0.46590787,0.9159118,0.27183378
0.224,3.1386588,-3.309344,1.9686904,0.5069021,1.0079272,0.2792161
0.226,3.1747675,-3.307427,1.9694055,0.54305565,1.0904106,0.28402242
0.228,3.2085028,-3.3143873,1.969439,0.5746279,1.1637038,0.28753868
0.23,3.2400188,-3.3297982,1.9693649,0.6022973,1.2288007,0.29100114
0.232,3.2693217,-3.3523495,1.9696206,0.6269507,1.2870559,0.29539198
0.234,3.2959986,-3.3803456,1.9711308,0.6495059,1.3398871,0.30136302
0.236,3.3201604,-3.412332,1.9750965,0.6707333,1.3885574,0.30922577
0.238,3.342008,-3.4469914,1.9821312,0.69116735,1.4339896,0.3190038
0.24,3.361977,-3.4832823,1.9924823,0.7110717,1.476685,0.33045563
0.242,3.3797553,-3.5202572,2.0053256,0.73051727,1.5167722,0.3431355
0.244,3.3955266,-3.5573368,2.0200257,0.7493637,1.5542243,0.3566992
0.246,3.4091332,-3.5940006,2.0357392,0.7672851,1.5890236,0.37100634
0.248,3.420076,-3.6299188,2.0516565,0.7838876,1.6212075,0.385835
0.25,3.4279778,-3.6648774,2.0672116,0.7988725,1.650955,0.40068156
0.252,3.4319654,-3.6986117,2.0817897,0.8120184,1.6785494,0.41490012
0.254,3.4309769,-3.7313366,2.0939775,0.8230057,1.7041891,0.4279455
0.256,3.4239633,-3.7630086,2.1030242,0.8314377,1.7280091,0.43942213
0.258,3.4091594,-3.7941208,2.1093464,0.8369486,1.7502159,0.4490198
0.26,3.3848405,-3.825011,2.1110227,0.83926463,1.7710937,0.45653683
0.262,3.349451,-3.8557243,2.1072059,0.83826095,1.7909464,0.4619738
0.264,3.301744,-3.8861876,2.0980906,0.83395815,1.8100835,0.4656489
0.266,3.2399573,-3.9158874,2.0818708,0.82649195,1.8287706,0.46818334
0.268,3.1624284,-3.9448578,2.057037,0.81605214,1.8472278,0.4704274
0.27,3.0691113,-3.9736054,2.024446,0.8029064,1.8655548,0.47340387
0.272,2.9598994,-4.000904,1.9841902,0.7873905,1.8837159,0.4781897
0.274,2.8342443,-4.0242586,1.936266,0.76993185,1.901463,0.48589677
0.276,2.6921604,-4.0418434,1.8804522,0.75104856,1.9183085,0.49757206
0.278,2.5339904,-4.0530715,1.8149233,0.7313194,1.9334943,0.51412547
0.28,2.3615997,-4.058324,1.7369773,0.71131945,1.9460431,0.5362296
0.282,2.1750193,-4.056514,1.6428754,0.691569,1.954796,0.5642337
0.284,1.9770095,-4.047683,1.5349591,0.67250204,1.9584608,0.59809464
0.286,1.770601,-4.0323486,1.4213296,0.6544163,1.955547,0.6374024
0.288,1.5548126,-4.0099854,1.3067577,0.6374613,1.9445441,0.68139577
0.29,1.3319998,-3.980059,1.189847,0.6216425,1.9240252,0.72903484
0.292,1.1040704,-3.9406915,1.0686688,0.60670483,1.8925507,0.77905005
0.294,0.8702965,-3.8884313,0.9430396,0.5922024,1.8488725,0.8300777
0.296,0.63871586,-3.8255236,0.8171177,0.5776421,1.7920929,0.88068825
0.298,0.4188972,-3.7555268,0.6969487,0.5625429,1.721675,0.9294906
0.3,0.20165187,-3.6742918,0.58171743,0.5464702,1.6374414,0.9752513
0.302,-0.01251471,-3.5826833,0.4637208,0.5291524,1.5397383,1.016906
0.304,-0.21372986,-3.4855847,0.3442818,0.51053876,1.4295237,1.0535699
0.306,-0.3998687,-3.3849998,0.23214507,0.49087584,1.3083482,1.0844882
0.308,-0.57277894,-3.2812276,0.1335845,0.47077557,1.1784627,1.1090815
0.31,-0.72969294,-3.1760743,0.051529884,0.45121738,1.0427322,1.1269696
0.312,-0.86548805,-3.071928,-0.014338911,0.4333986,0.90442395,1.1379455
0.314,-0.97842276,-2.9699693,-0.068021834,0.41847783,0.76685035,1.1419147
0.316,-1.0686471,-2.871294,-0.11378533,0.40742996,0.63326013,1.1389036
0.318,-1.1349499,-2.777612,-0.15377587,0.4011258,0.5070601,1.1290014
0.32,-1.1757995,-2.6912284,-0.18864697,0.40032673,0.39128804,1.1125002
0.322,-1.1909294,-2.614024,-0.21896785,0.405545,0.28801602,1.0899667
0.324,-1.1800605,-2.5475283,-0.24564779,0.4168166,0.1983485,1.062091
0.326,-1.1432667,-2.492586,-0.2697506,0.43344972,0.12268619,1.0297796
0.328,-1.0811734,-2.4502418,-0.2920683,0.4539521,0.060582623,0.99385214
0.33,-0.9944628,-2.421755,-0.31331754,0.4762832,0.010687962,0.95454276
0.332,-0.88418174,-2.4081535,-0.33475262,0.49849588,-0.029522225,0.9120059
0.334,-0.7518021,-2.4103012,-0.35729575,0.51907164,-0.06370234,0.867037
0.336,-0.5986147,-2.428745,-0.38076073,0.5367096,-0.09557967,0.82053137
0.338,-0.4263488,-2.4634182,-0.40419245,0.5503079,-0.12867513,0.7729663
0.34,-0.23650086,-2.514442,-0.42601866,0.5592016,-0.1662673,0.72461766
0.342,-0.030859828,-2.5820174,-0.444162,0.56321007,-0.2113486,0.6757039
0.344,0.18884861,-2.666157,-0.45665205,0.56238556,-0.26651606,0.6261697
0.346,0.4209128,-2.7664752,-0.46184283,0.556939,-0.33365163,0.5756949
0.348,0.6637706,-2.8825126,-0.45838195,0.54732895,-0.41358802,0.52385116
0.35,0.91566825,-3.0132136,-0.4452805,0.5343904,-0.50548947,0.47042364
0.352,1.1748462,-3.1572535,-0.42193818,0.51938176,-0.60629654,0.41570106
0.354,1.4397929,-3.3130898,-0.38803887,0.50404423,-0.71063554,0.36067307
0.356,1.7085824,-3.4788628,-0.3434714,0.4906631,-0.8111701,0.30706328
0.358,1.9795904,-3.652903,-0.28892624,0.48195368,-0.8991306,0.25715476
0.36,2.2511277,-3.8336425,-0.22575718,0.48074794,-0.9651873,0.21350667
0.362,2.5220544,-4.019474,-0.15606987,0.48957473,-1.0007424,0.17858425
0.364,2.7910988,-4.2084303,-0.08170903,0.5102581,-0.9990575,0.15438387
0.366,3.0566115,-4.39822,-0.0053168535,0.54366195,-0.95618635,0.14210674
0.368,3.3176594,-4.5863237,0.0695256,0.5895637,-0.8715792,0.14198598
0.37,3.573187,-4.7704277,0.14119267,0.64652216,-0.74838287,0.153259
0.372,3.8215513,-4.9481535,0.20711231,0.71186525,-0.5932927,0.17436565
0.374,4.061533,-5.117475,0.2631657,0.7820476,-0.41523427,0.20305917
0.376,4.2919197,-5.2763753,0.30672014,0.8532229,-0.22408274,0.23680697
0.378,4.510351,-5.4227543,0.33506298,0.9217911,-0.029833004,0.27326164
0.38,4.715227,-5.5548964,0.34564602,0.9847989,0.15815534,0.3103881
0.382,4.9065514,-5.6718645,0.33804083,1.0400612,0.33220086,0.3467678
0.384,5.0837812,-5.772401,0.31430697,1.0860004,0.4868005,0.38182077
0.386,5.2463646,-5.8551917,0.277336,1.1214157,0.6189979,0.41498423
0.388,5.3943415,-5.9197464,0.22963202,1.1456478,0.7280718,0.4452853
0.39,5.526657,-5.966014,0.1736157,1.1589296,0.81454206,0.47209314
0.392,5.643454,-5.995054,0.11210346,1.1622332,0.8802732,0.4952936
0.394,5.742933,-6.006191,0.043503284,1.156892,0.92851675,0.5147459
0.396,5.825791,-5.9991937,-0.036479235,1.1444582,0.96349126,0.5301925
0.398,5.8949957,-5.974845,-0.12830377,1.1268044,0.99004745,0.54154813
0.4,5.949931,-5.934555,-0.2257576,1.1060008,1.0132173,0.5489524
0.402,5.9913106,-5.881519,-0.32315433,1.0839516,1.0375036,0.5526873
0.404,6.022222,-5.8188605,-0.41843867,1.0622404,1.066334,0.55313486
0.406,6.0375233,-5.744112,-0.5133598,1.0420854,1.1018466,0.5507115
0.408,6.033166,-5.655035,-0.60956573,1.0241884,1.1447424,0.5458574
0.41,6.0222125,-5.556943,-0.70090556,1.0085511,1.194366,0.5390819
0.412,6.0044575,-5.44914,-0.7776491,0.994575,1.2488772,0.53102124
0.414,5.9713364,-5.3278885,-0.8407028,0.98121715,1.3054439,0.52232885
0.416,5.924376,-5.1939583,-0.89619017,0.96705806,1.360449,0.5134718
0.418,5.8675203,-5.0499644,-0.9449288,0.95034736,1.4096866,0.5046497
0.42,5.7989745,-4.8966594,-0.98383796,0.9290767,1.4486458,0.49580115
0.422,5.7119675,-4.7328835,-1.0062711,0.9011563,1.472682,0.48664367
0.424,5.6069098,-4.561502,-1.0018845,0.8646314,1.4772243,0.47684562
0.426,5.486989,-4.385193,-0.9674852,0.8179616,1.4584692,0.46620327
0.428,5.353703,-4.206399,-0.90295404,0.7602533,1.4139454,0.45446292
0.43,5.2061567,-4.0254393,-0.81086165,0.6913783,1.3428588,0.44131622
0.432,5.0467095,-3.8434625,-0.69437766,0.61225384,1.2465838,0.42669004
0.434,4.8760896,-3.6612468,-0.5556808,0.52498686,1.1288731,0.41091713
0.436,4.6927633,-3.4787347,-0.3977952,0.43276584,0.9956703,0.39465535
0.438,4.4960012,-3.29603,-0.22391942,0.339694,0.8546951,0.37881142
0.44,4.2845845,-3.113122,-0.036811173,0.25043398,0.71459436,0.3644482
0.442,4.0576115,-2.9305797,0.1610007,0.16975048,0.58396393,0.35266972
0.444,3.8144188,-2.7501717,0.36700803,0.10193522,0.47024977,0.34438854
0.446,3.5546422,-2.5747433,0.57828057,0.050267063,0.37881356,0.34022766
0.448,3.2792468,-2.4081554,0.7909389,0.016604368,0.31238312,0.3405258
0.45,2.9899955,-2.2533367,0.99988234,0.0012065098,0.2708677,0.3452679
0.452,2.6890206,-2.1118975,1.1996676,0.0027379543,0.25142062,0.35400668
0.454,2.3790565,-1.9843428,1.3851684,0.018536096,0.24929622,0.36599207
0.456,2.062603,-1.8702359,1.5519148,0.045281168,0.2592385,0.38043156
0.458,1.7429118,-1.7687205,1.6959091,0.07933306,0.27580166,0.39650747
0.46,1.423939,-1.6791953,1.8140112,0.11745906,0.2943762,0.41349265
0.462,1.1097296,-1.6012487,1.9034647,0.15731421,0.31220323,0.43080676
0.464,0.8044207,-1.5347555,1.9621718,0.19739465,0.32817394,0.4480367
0.466,0.5124907,-1.4797689,1.9888196,0.23703179,0.34263787,0.4649003
0.468,0.2381537,-1.4359279,1.9829379,0.27633494,0.35709333,0.48136652
0.47,-0.01505959,-1.4026871,1.9445944,0.31611812,0.3736808,0.497867
0.472,-0.24430087,-1.3792961,1.8745263,0.35774618,0.3946322,0.51524603
0.474,-0.44671643,-1.3651924,1.7743669,0.4027748,0.4215842,0.5345566
0.476,-0.6201357,-1.3600206,1.6464493,0.4525715,0.45523232,0.55690897
0.478,-0.7629607,-1.3635995,1.4939251,0.5079278,0.4950196,0.5832267
0.48,-0.8743421,-1.375787,1.3207499,0.56865895,0.53856814,0.61398387
0.482,-0.95356214,-1.3965274,1.1307368,0.63343406,0.58184624,0.6491232
0.484,-1.0009555,-1.4254568,0.92794365,0.69989794,0.61977696,0.6877746
0.486,-1.0172514,-1.4626681,0.7170764,0.7647424,0.6466859,0.7279443
0.488,-1.003407,-1.5081352,0.50368,0.8240738,0.657063,0.76668596
0.49,-0.96168673,-1.5615041,0.29244655,0.8740104,0.6463413,0.8006416
0.492,-0.8953909,-1.6224204,0.08693135,0.9112568,0.6115695,0.82664275
0.494,-0.8073032,-1.6908648,-0.1102826,0.93363166,0.5519313,0.84235525
0.496,-0.7001459,-1.7669024,-0.2968874,0.94046575,0.46892667,0.84670055
0.498,-0.57658166,-1.850039,-0.46941423,0.9327987,0.3662085,0.8401177
0.5,-0.4388333,-1.9393144,-0.6240864,0.91321576,0.24905232,0.8244032
0.502,-0.2891113,-2.034052,-0.75611454,0.8853936,0.123559326,0.8023522
0.504,-0.13030994,-2.1334605,-0.8626299,0.85350937,-0.0041463072,0.77736527
0.506,0.033741295,-2.2366016,-0.94174045,0.8216134,-0.12855247,0.7529272
0.508,0.20127833,-2.342867,-0.9910444,0.793028,-0.24559323,0.7319565
0.51,0.37050515,-2.4502208,-1.010782,0.7698151,-0.3530662,0.7163975
0.512,0.53920573,-2.5561495,-1.0030322,0.75291,-0.44986933,0.70721096
0.514,0.7047651,-2.6585386,-0.97024137,0.742056,-0.5360711,0.7044324
0.516,0.86590284,-2.755847,-0.9149892,0.7361354,-0.6127455,0.7074238
0.518,1.0215318,-2.846665,-0.8401457,0.73380584,-0.68106943,0.71522844
0.52,1.1707659,-2.9298787,-0.7489484,0.73374677,-0.74201953,0.72687924
0.522,1.3113778,-3.0038137,-0.64469624,0.7348638,-0.79610145,0.7415549
0.524,1.442543,-3.0680346,-0.529957,0.7364036,-0.8432712,0.75863487
0.526,1.5628996,-3.1218076,-0.40640098,0.7379751,-0.88306963,0.7777897
0.528,1.6711692,-3.1641595,-0.27593744,0.7395876,-0.91478026,0.7990099
0.53,1.7667322,-3.1949286,-0.14070356,0.7415664,-0.93768895,0.8224696
0.532,1.8513079,-3.2152028,-0.004052758,0.7444,-0.9512866,0.84837854
0.534,1.9232285,-3.2238088,0.12894881,0.74863815,-0.955304,0.87688065
0.536,1.9793887,-3.220161,0.2590726,0.75472355,-0.9498687,0.9080665
0.538,2.0180683,-3.2042308,0.38588434,0.76282763,-0.935581,0.94192123
0.54,2.0399275,-3.1779656,0.5090454,0.7728135,-0.9134141,0.9782881
0.542,2.044358,-3.1435294,0.6283561,0.78428864,-0.8845941,1.0168673
0.544,2.0325577,-3.1035547,0.7426724,0.7966712,-0.85047376,1.0572162
0.546,2.0078635,-3.0609555,0.85115105,0.80927163,-0.8124565,1.0987824
0.548,1.9720763,-3.017177,0.9524392,0.8214431,-0.7718364,1.1409676
0.55,1.9272497,-2.973042,1.044889,0.83263123,-0.72981644,1.1832209
0.552,1.8754232,-2.9289317,1.1270802,0.84239554,-0.6873959,1.2250919
0.554,1.8188403,-2.88443,1.1978703,0.8504462,-0.6453679,1.2663459
0.556,1.7595644,-2.8387508,1.2564033,0.8566992,-0.6043735,1.3070102
0.558,1.699224,-2.7912831,1.3027647,0.8612627,-0.5649001,1.347273
0.56,1.6387682,-2.742259,1.3379198,0.86441493,-0.52733815,1.3874526
0.562,1.5796852,-2.6930308,1.3629582,0.8665751,-0.49197868,1.4279127
0.564,1.5237095,-2.6454782,1.3785807,0.8682095,-0.45908535,1.4690077
0.566,1.47327,-2.601544,1.3852801,0.8697668,-0.42886955,1.5110978
0.568,1.4296125,-2.5621219,1.38339,0.87167,-0.4013972,1.5544902
0.57,1.3943543,-2.5277486,1.3743854,0.87428784,-0.37662467,1.599376
0.572,1.3688519,-2.498026,1.3594146,0.8778987,-0.35449228,1.6458647
0.574,1.3541172,-2.4723392,1.3389108,0.8826835,-0.33492598,1.6940012
0.576,1.3508635,-2.4501328,1.3124647,0.88866943,-0.3179511,1.7437364
0.578,1.3597698,-2.4311187,1.2785151,0.89575166,-0.3037415,1.7948923
0.58,1.3799269,-2.4142027,1.2330978,0.90367794,-0.29264432,1.847153
0.582,1.4090841,-2.39863,1.172719,0.9120221,-0.28515065,1.900061
0.584,1.4554077,-2.3898687,1.1054041,0.92020035,-0.28185368,1.9530307
0.586,1.5189734,-2.3887749,1.0396554,0.92756164,-0.28334457,2.005368
0.588,1.5915451,-2.3925974,0.9762967,0.9334055,-0.29008597,2.0563397
0.59,1.6731188,-2.401317,0.91041714,0.93707263,-0.3023316,2.105218
0.592,1.7647514,-2.4146352,0.8382123,0.9380139,-0.3200037,2.1513007
0.594,1.8628563,-2.4307737,0.75992745,0.93587023,-0.34262437,2.1940005
0.596,1.9624563,-2.4479086,0.67640215,0.9304753,-0.36932117,2.2328367
0.598,2.0604622,-2.4653783,0.5891144,0.92189574,-0.39888543,2.267438
0.6,2.1552649,-2.4837837,0.5018186,0.9103763,-0.4298892,2.2975214
0.602,2.24476,-2.5041466,0.41885036,0.89638513,-0.4607827,2.3229175
0.604,2.3271763,-2.5276854,0.34290892,0.8805021,-0.49003002,2.3435225
0.606,2.4008317,-2.5546262,0.27544186,0.86331785,-0.5163825,2.3593538
0.608,2.4644096,-2.584557,0.21730047,0.8453919,-0.53890693,2.3704758
0.61,2.5166407,-2.6164734,0.16861475,0.82712173,-0.5570672,2.376884
0.612,2.5567653,-2.64887,0.12830237,0.8086208,-0.57080734,2.3785334
0.614,2.5843494,-2.6801841,0.09502265,0.7896406,-0.5803051,2.3757718
0.616,2.5986953,-2.7084591,0.068229675,0.76985896,-0.5856306,2.3690343
0.618,2.5990174,-2.7315695,0.04820025,0.74906206,-0.58653045,2.3583002
0.62,2.5848153,-2.7483234,0.035031676,0.7271713,-0.5828409,2.3437665
0.622,2.5558333,-2.7578266,0.02847141,0.70415884,-0.57481873,2.3261528
0.624,2.512402,-2.7596354,0.028202832,0.6800064,-0.5628365,2.3062973
0.626,2.4542084,-2.7533462,0.0335837,0.6547687,-0.5471742,2.2849422
0.628,2.3816292,-2.73855,0.04368204,0.6286199,-0.5282766,2.2627995
0.63,2.2950115,-2.7150292,0.057110935,0.6019008,-0.50679076,2.240589
0.632,2.1959386,-2.6830919,0.07251087,0.5751583,-0.48339403,2.2188673
0.634,2.085166,-2.6423402,0.08846459,0.54907066,-0.45887327,2.1979413
0.636,1.9631946,-2.5927129,0.10387984,0.52433753,-0.4343822,2.177774
0.638,1.8305337,-2.5346076,0.118588924,0.5015369,-0.41159213,2.1578863
0.64,1.6877861,-2.4684856,0.13259894,0.48091835,-0.39256045,2.1373706
0.642,1.535867,-2.3951888,0.1462915,0.46231467,-0.37953523,2.1149666
0.644,1.3754077,-2.3157792,0.1605688,0.44511002,-0.37460655,2.089292
0.646,1.2075661,-2.231761,0.17602545,0.42843997,-0.37933403,2.059036
0.648,1.0333965,-2.1450164,0.19352937,0.41136914,-0.3943143,2.0231237
0.65,0.854212,-2.0570567,0.21415943,0.39307457,-0.41891742,1.9809734
0.652,0.6713254,-1.9686705,0.23933035,0.37302363,-0.45124975,1.9327126
0.654,0.48642546,-1.8802391,0.2699384,0.35114032,-0.48840532,1.8792528
0.656,0.30094898,-1.7925413,0.3062153,0.32777286,-0.52693975,1.8222473
0.658,0.11687285,-1.7069924,0.34840372,0.30373508,-0.5633233,1.763947
0.66,-0.063595176,-1.6248617,0.3970491,0.28014153,-0.59447765,1.7068467
0.662,-0.23908722,-1.5461948,0.4533868,0.25813514,-0.6183248,1.6533868
0.664,-0.40854523,-1.470618,0.51832426,0.23871893,-0.63397795,1.6056924
0.666,-0.5704528,-1.397668,0.592042,0.22261328,-0.6417425,1.5652843
0.668,-0.7234645,-1.3272774,0.67498815,0.21017337,-0.64298224,1.5326116
0.67,-0.86607826,-1.2599041,0.7674818,0.20117444,-0.6398145,1.507494
0.672,-0.9971937,-1.1954595,0.8684033,0.19496721,-0.63450825,1.4894246
0.674,-1.1160403,-1.1336741,0.9758563,0.19072402,-0.6286229,1.4770348
0.676,-1.2234609,-1.0737523,1.0888345,0.18770969,-0.62282264,1.468431
0.678,-1.3186644,-1.0164223,1.2089674,0.1853584,-0.6173335,1.4619287
0.68,-1.4035109,-0.96144116,1.334832,0.18325031,-0.61214453,1.4562838
0.682,-1.4753019,-0.91092086,1.4667825,0.18106568,-0.6069563,1.4506395
0.684,-1.5348427,-0.86501837,1.6053777,0.1785469,-0.60141164,1.4444072
0.686,-1.5819659,-0.82381743,1.7501531,0.17541039,-0.59541893,1.4372096
0.688,-1.6183696,-0.7867578,1.900269,0.17139012,-0.5891427,1.4287909
0.69,-1.6441898,-0.75450736,2.0567758,0.16621542,-0.5827825,1.4190447
0.692,-1.6597096,-0.7280234,2.220509,0.15968168,-0.57644033,1.4080062
0.694,-1.6741291,-0.7034869,2.3822346,0.15174967,-0.5700612,1.3957102
0.696,-1.6863678,-0.683496,2.537939,0.14262772,-0.5633414,1.3820702
0.698,-1.6895926,-0.67331755,2.6938605,0.13264924,-0.5558487,1.3668097
0.7,-1.6869813,-0.67463815,2.8598287,0.122190654,-0.5470656,1.3496252
0.702,-1.6817644,-0.6887839,3.0413585,0.11166513,-0.5364938,1.3303114
0.704,-1.6720151,-0.71773803,3.2377086,0.101511896,-0.5238232,1.30874
0.706,-1.6558225,-0.76238096,3.4467845,0.09210551,-0.50897825,1.2848212
0.708,-1.6330204,-0.821982,3.6647792,0.0836786,-0.4919136,1.2585561
0.71,-1.6039972,-0.89485013,3.8849106,0.07642043,-0.47234958,1.2300801
0.712,-1.5681038,-0.97913635,4.1012354,0.070554614,-0.44996986,1.1997774
0.714,-1.5251079,-1.0732386,4.3123217,0.066506,-0.42409214,1.1682082
0.716,-1.4745088,-1.1763177,4.51857,0.06483281,-0.3934951,1.136015
0.718,-1.4151946,-1.2876761,4.719358,0.06614581,-0.35664356,1.1039282
0.72,-1.3458775,-1.4069519,4.913404,0.07104725,-0.31176925,1.0727627
0.722,-1.2653267,-1.5337927,5.0989566,0.080219656,-0.25680354,1.0435283
0.724,-1.1720963,-1.6675243,5.2730703,0.09451297,-0.1894365,1.0174628
0.726,-1.0645984,-1.8071643,5.431199,0.11489296,-0.1074291,0.99599516
0.728,-0.941224,-1.9510689,5.567337,0.14242777,-0.008746594,0.9806695
0.73,-0.8012352,-2.0965514,5.675956,0.17813757,0.108226776,0.9730236
0.732,-0.64352584,-2.2411594,5.752179,0.22281161,0.24436454,0.9743951
0.734,-0.467767,-2.3821359,5.791769,0.27677718,0.399465,0.98563606
0.736,-0.27476144,-2.516983,5.791831,0.33969647,0.5719348,1.006943
0.738,-0.065918684,-2.643436,5.7504406,0.41041687,0.7587286,1.0379062
0.74,0.15602684,-2.7593305,5.667306,0.4870239,0.95549965,1.0774859
0.742,0.38840914,-2.863085,5.5433927,0.56687415,1.1568668,1.1239746
0.744,0.62785745,-2.9534082,5.3804874,0.64676756,1.3567483,1.1750894
0.746,0.87091637,-3.029596,5.1807942,0.723197,1.5488509,1.2283077
0.748,1.1136782,-3.0911484,4.9473767,0.79265994,1.7271206,1.2811733
0.75,1.3517375,-3.1377635,4.684935,0.85197586,1.8860886,1.3315322
0.752,1.5808725,-3.1695282,4.399016,0.8986518,2.0212903,1.3776476
0.754,1.7968585,-3.1865535,4.0958147,0.93093663,2.1292818,1.4181964
0.756,1.9957995,-3.1892638,3.781808,0.9478311,2.2075815,1.452253
0.758,2.1737578,-3.1780186,3.463418,0.94896424,2.2546463,1.4792545
0.76,2.327581,-3.153433,3.1468713,0.9344893,2.269667,1.4989403
0.762,2.4539943,-3.1163511,2.8386319,0.9049273,2.2524168,1.5113292
0.764,2.5506895,-3.067578,2.5457497,0.8609573,2.2031684,1.5165489
0.766,2.6158867,-3.0073802,2.2752953,0.80345845,2.12324,1.5148003
0.768,2.6485484,-2.9356205,2.0332773,0.7335647,2.01494,1.506524
0.77,2.6476302,-2.8522484,1.8236597,0.6528874,1.8817034,1.4924469
0.772,2.613249,-2.7581604,1.6486502,0.56360537,1.7283204,1.4735444
0.774,2.5464106,-2.6544938,1.5098041,0.46843946,1.5606456,1.4509982
0.776,2.4479258,-2.5421262,1.4087349,0.37034416,1.3850192,1.4260745
0.778,2.3190722,-2.4211788,1.3458096,0.27224475,1.207812,1.4000831
0.78,2.161974,-2.2918591,1.3204907,0.17689188,1.0350175,1.3743335
0.782,1.9795015,-2.1551425,1.3321689,0.08663477,0.8717314,1.3500189
0.784,1.7742554,-2.011971,1.3793652,0.003306523,0.72188324,1.328094
0.786,1.5502934,-1.8637834,1.458275,-0.071850225,0.5881919,1.3092297
0.788,1.3100295,-1.7110224,1.5622711,-0.13818792,0.47221392,1.2937914
0.79,1.0575278,-1.5550753,1.686311,-0.19556431,0.37462893,1.281795
0.792,0.79283726,-1.3960558,1.8248026,-0.24420929,0.2954501,1.2729242
0.794,0.5197707,-1.2365948,1.9728158,-0.2846001,0.23428166,1.2666551
0.796,0.2413122,-1.0794022,2.1267877,-0.3172322,0.1906076,1.262376
0.798,-0.038383603,-0.9275461,2.2834501,-0.34249222,0.16398773,1.2594715
0.8,-0.31688082,-0.78286946,2.437523,-0.36061633,0.1540643,1.25746
0.802,-0.5894649,-0.6474754,2.5819724,-0.3716966,0.16052854,1.2561195
0.804,-0.8539885,-0.5222819,2.711359,-0.37572798,0.18305203,1.2555296
0.806,-1.1081651,-0.40891415,2.823982,-0.3727095,0.22109428,1.2559941
0.808,-1.3494081,-0.30928254,2.918326,-0.36267278,0.27375805,1.2579516
0.81,-1.5757686,-0.22469401,2.991283,-0.3458069,0.339682,1.2619052
0.812,-1.7836151,-0.15710127,3.0409007,-0.32250342,0.41697463,1.2683263
0.814,-1.9713843,-0.10651481,3.0652852,-0.2934272,0.5032361,1.2775503
0.816,-2.1357446,-0.073456645,3.061022,-0.25949168,0.59559745,1.2896528
0.818,-2.2771034,-0.057522655,3.024877,-0.22181684,0.6909882,1.3045473
0.82,-2.3960953,-0.05816996,2.9617467,-0.18174934,0.78620905,1.3219258
0.822,-2.490806,-0.07647824,2.8828986,-0.14075544,0.8781449,1.3412582
0.824,-2.561543,-0.1125499,2.7946482,-0.10027968,0.9639833,1.3618892
0.826,-2.606583,-0.16530824,2.696292,-0.061653197,1.0413232,1.383126
0.828,-2.6263187,-0.23367202,2.5869722,-0.02603466,1.1082414,1.4042748
0.83,-2.6240935,-0.3151493,2.4650671,0.005590558,1.16319,1.4246901
0.832,-2.6012921,-0.40812683,2.33248,0.0324018,1.2048965,1.4438233
0.834,-2.5525932,-0.5149175,2.1994524,0.053754557,1.2325149,1.4612123
0.836,-2.4828806,-0.6332538,2.0773191,0.069104694,1.2454256,1.4764042
0.838,-2.395888,-0.7592623,1.971956,0.078048736,1.2433379,1.4890499
0.84,-2.2916043,-0.89085114,1.8847976,0.08023723,1.2263013,1.4988637
0.842,-2.172335,-1.0259928,1.8178638,0.07531423,1.1945047,1.5057096
0.844,-2.0420935,-1.1626759,1.773154,0.06309073,1.1484168,1.5095402
0.846,-1.9031597,-1.2986743,1.7530077,0.043473154,1.0887043,1.5102584
0.848,-1.7577646,-1.4321527,1.7614799,0.016508676,1.0165236,1.5078678
0.85,-1.6087215,-1.561271,1.8025384,-0.017599374,0.9335605,1.5024595
0.852,-1.4585216,-1.6847765,1.87797,-0.05849348,0.8419479,1.4943407
0.854,-1.3091348,-1.8008292,1.9868948,-0.1053758,0.7449764,1.4838862
0.856,-1.1626796,-1.9069506,2.1277618,-0.15699804,0.64649284,1.4713963
0.858,-1.0212023,-2.000834,2.2986972,-0.21181205,0.5502515,1.4570616
0.86,-0.8865268,-2.0806165,2.4962664,-0.26808175,0.45959938,1.4409674
0.862,-0.75966907,-2.1452413,2.7160196,-0.32410544,0.37725803,1.4232022
0.864,-0.64098346,-2.1939406,2.953604,-0.37851006,0.30509886,1.4039655
0.866,-0.53144217,-2.225519,3.204001,-0.4303137,0.24425665,1.383345
0.868,-0.43120277,-2.2390537,3.4608877,-0.4786882,0.19527656,1.3611484
0.87,-0.33998752,-2.234467,3.7183099,-0.52290785,0.15794292,1.337042
0.872,-0.2569201,-2.2124429,3.9709485,-0.56252503,0.13122395,1.3107758
0.874,-0.18120074,-2.1742866,4.2137866,-0.59740615,0.113642514,1.2822777
0.876,-0.111659765,-2.1216416,4.4418545,-0.6276171,0.10358143,1.2516459
0.878,-0.04690218,-2.05656,4.650153,-0.6532589,0.09947544,1.2190794
0.88,0.014703035,-1.98143,4.8341436,-0.67436475,0.10011643,1.1848327
0.882,0.07451725,-1.8985088,4.9893017,-0.6908127,0.104821116,1.1492951
0.884,0.13349128,-1.8100162,5.1111207,-0.70230705,0.11346322,1.1129948
0.886,0.19279408,-1.7184131,5.1954675,-0.7085168,0.12631053,1.0764173
0.888,0.25351048,-1.626275,5.23948,-0.70924807,0.14386994,1.0398815
0.89,0.31649733,-1.5359795,5.241383,-0.70448714,0.16696742,1.003508
0.892,0.38170385,-1.4496733,5.200806,-0.6945167,0.1964457,0.96712184
0.894,0.44915593,-1.369311,5.1179786,-0.67986536,0.23314077,0.93036926
0.896,0.5178529,-1.2964475,4.9939337,-0.66123796,0.27793834,0.892667
0.898,0.5870427,-1.232299,4.8302684,-0.63961756,0.33138666,0.853366
0.9,0.65560865,-1.1774547,4.6296687,-0.6160103,0.39362213,0.81194293
0.902,0.721882,-1.131887,4.395236,-0.591412,0.46408832,0.7679411
0.904,0.7844708,-1.0950809,4.130441,-0.5667236,0.54158926,0.7210558
0.906,0.84173954,-1.0661341,3.8392904,-0.5426725,0.6243266,0.6711434
0.908,0.8927283,-1.0441895,3.5259545,-0.5199997,0.7094719,0.6183945
0.91,0.9371512,-1.0286088,3.1955774,-0.4993748,0.7939825,0.56339616
0.912,0.97277117,-1.017402,2.8532999,-0.48128566,0.8749725,0.5069953
0.914,1.000068,-1.0095174,2.5034232,-0.4661036,0.949636,0.45016274
0.916,1.0192258,-1.0030744,2.1466775,-0.45410043,1.015276,0.39380074
0.918,1.0305936,-0.9961898,1.7856728,-0.44539082,1.0696033,0.33866823
0.92,1.0354407,-0.9879652,1.4265195,-0.44006246,1.1108876,0.28556997
0.922,1.0333585,-0.9774585,1.0753126,-0.43832916,1.138219,0.23531769
0.924,1.0261366,-0.9655545,0.7388629,-0.44030142,1.1519476,0.18846212
0.926,1.0143179,-0.9521541,0.42433023,-0.44565916,1.153661,0.14517315
0.928,1.0006917,-0.9376414,0.1370443,-0.4536639,1.1456782,0.10537713
0.93,0.987512,-0.9222558,-0.12506954,-0.46335894,1.1306509,0.068919726
0.932,0.9736301,-0.90475464,-0.36749506,-0.4737452,1.1112559,0.035615303
0.934,0.9567745,-0.8841868,-0.58692133,-0.48388207,1.0898196,0.005248677
0.936,0.94067264,-0.8653781,-0.77598614,-0.49301243,1.0681309,-0.022511732
0.938,0.927546,-0.85096276,-0.9287988,-0.50058746,1.04746,-0.04810339
0.94,0.9216532,-0.8444314,-1.0382323,-0.50627583,1.0286129,-0.07191623
0.942,0.9221808,-0.8455781,-1.1068137,-0.50996125,1.0118978,-0.0942673
0.944,0.92269576,-0.85077214,-1.1463393,-0.5117558,0.9972896,-0.11544559
0.946,0.92683434,-0.861202,-1.1640015,-0.5119145,0.9846824,-0.1357583
0.948,0.9344418,-0.8780545,-1.1561322,-0.51078165,0.9740165,-0.15552907
0.95,0.9415374,-0.9002748,-1.1150082,-0.5087148,0.9653905,-0.1750175
0.952,0.94565415,-0.9265692,-1.0359858,-0.5059626,0.95911074,-0.19436458
0.954,0.94608736,-0.9570056,-0.9170481,-0.5026204,0.95570785,-0.21364021
0.956,0.9416776,-0.9919939,-0.75934595,-0.49855927,0.9558259,-0.23281486
0.958,0.93147814,-1.0314972,-0.56745416,-0.49347383,0.960091,-0.2517273
0.96,0.91565144,-1.0752752,-0.34664625,-0.4869695,0.9690059,-0.27012146
0.962,0.8935417,-1.1223351,-0.10027825,-0.47860473,0.98283637,-0.28770655
0.964,0.86499727,-1.1718657,0.16948527,-0.46794844,1.0016724,-0.30423656
0.966,0.8308587,-1.2230684,0.45992118,-0.4545769,1.0259784,-0.31932294
0.968,0.79252917,-1.2745669,0.76796067,-0.43806848,1.0560999,-0.33239007
0.97,0.7514744,-1.3243724,1.0908854,-0.41795322,1.0923584,-0.34278092
0.972,0.70952475,-1.370383,1.4256493,-0.39364877,1.1354706,-0.34996516
0.974,0.66775477,-1.4103141,1.7673601,-0.36483112,1.1859783,-0.35351354
0.976,0.6289973,-1.444012,2.111388,-0.33145165,1.2440627,-0.3528731
0.978,0.5951362,-1.4709178,2.452993,-0.29359022,1.3098662,-0.34730673
0.98,0.5681568,-1.4903331,2.7868054,-0.2513823,1.3836036,-0.3360782
0.982,0.5490575,-1.5014555,3.1075046,-0.20503366,1.4652944,-0.31854755
0.984,0.53879535,-1.5033991,3.4094303,-0.15488982,1.5544492,-0.29420033
0.986,0.53912115,-1.4963562,3.689331,-0.1015684,1.6497335,-0.26268622
0.988,0.5494931,-1.479739,3.943094,-0.04612863,1.7487581,-0.22402233
0.99,0.5688517,-1.4534146,4.1693377,0.0098186135,1.8479085,-0.17885035
0.992,0.5986122,-1.4192169,4.3667364,0.06408864,1.9424378,-0.12859058
0.994,0.6369796,-1.3777044,4.533692,0.11403024,2.0269172,-0.075502396
0.996,0.681468,-1.3299079,4.671786,0.15670723,2.0958598,-0.022548378
0.998,0.730407,-1.2771256,4.781497,0.18922353,2.1444325,0.02682516
1,0.7803788,-1.2202457,4.862959,0.20902854,2.1691964,0.06904912
1.002,0.83112586,-1.1618623,4.917188,0.21433854,2.168623,0.10088658
1.004,0.880299,-1.1033943,4.9449897,0.20440024,2.1433444,0.11985281
1.006,0.9245994,-1.0453165,4.948994,0.17960668,2.096016,0.1246531
1.008,0.96283984,-0.9891984,4.9312,0.1414243,2.0308123,0.115478635
1.01,0.99342376,-0.9363439,4.8927903,0.092196524,1.9527917,0.09392327
1.012,1.0146538,-0.88726735,4.8358006,0.0347991,1.8671725,0.06278324
1.014,1.0249565,-0.8420391,4.7628016,-0.027721047,1.778772,0.025646597
1.016,1.0235925,-0.8005656,4.6761436,-0.09253818,1.6915473,-0.013579756
1.018,1.009679,-0.7622018,4.577772,-0.15728986,1.6083623,-0.05118774
1.02,0.98287845,-0.72603667,4.4687853,-0.22035918,1.5305905,-0.08433367
1.022,0.94291633,-0.69087255,4.350265,-0.2807913,1.4592427,-0.11120242
1.024,0.8899123,-0.65571177,4.2229114,-0.33822006,1.3950833,-0.13097756
1.026,0.8239344,-0.61894083,4.0873833,-0.3927142,1.3383634,-0.14377144
1.028,0.7454238,-0.57903427,3.9443676,-0.4441852,1.289773,-0.15047807
1.03,0.6549197,-0.5347185,3.7945008,-0.49242175,1.2503797,-0.15269637
1.032,0.5536311,-0.4848722,3.6379776,-0.5371996,1.2209994,-0.1522637
1.034,0.44308454,-0.42860872,3.4745626,-0.57820576,1.2020644,-0.15074576
1.036,0.32454276,-0.36557016,3.3042,-0.6150298,1.1935972,-0.14946382
1.038,0.19980979,-0.2957206,3.1275907,-0.647169,1.1953951,-0.14937605
1.04,0.0704959,-0.21917441,2.9455283,-0.6740944,1.2069801,-0.15100284
1.042,-0.06093031,-0.13628593,2.7586932,-0.6952646,1.2275242,-0.15448098
1.044,-0.18958345,-0.048776925,2.56636,-0.7101996,1.2559649,-0.1596597
1.046,-0.31848773,0.045309007,2.3708713,-0.7186092,1.2911038,-0.16624908
1.048,-0.44648206,0.14475963,2.1742413,-0.72049624,1.3315969,-0.17393047
1.05,-0.5717617,0.24814776,1.9765668,-0.71616745,1.3759577,-0.18243495
1.052,-0.69049454,0.3519701,1.7824886,-0.7061918,1.422655,-0.19157954
1.054,-0.79979753,0.45321772,1.5972605,-0.69127214,1.470182,-0.20123243
1.056,-0.896487,0.5490063,1.4220978,-0.6721931,1.5171553,-0.21130747
1.058,-0.97754014,0.63670397,1.2546686,-0.6497511,1.562438,-0.22172174
1.06,-1.0404862,0.71484995,1.0923675,-0.6246517,1.6053001,-0.2324202
1.062,-1.0829706,0.78273046,0.9339315,-0.5974438,1.6454408,-0.24336857
1.064,-1.1036716,0.8407644,0.78002787,-0.5685371,1.6828989,-0.254427
1.066,-1.1022651,0.88939965,0.6324256,-0.53818667,1.7180377,-0.2653571
1.068,-1.0792162,0.92850566,0.49398118,-0.50654227,1.751376,-0.27583203
1.07,-1.0349846,0.95779586,0.36755648,-0.47365198,1.7835193,-0.28548524
1.072,-0.97015834,0.9766953,0.25486496,-0.4395786,1.8150073,-0.29398376
1.074,-0.88572335,0.98437935,0.15666796,-0.40442938,1.8463303,-0.30104363
1.076,-0.78270686,0.97972286,0.07254346,-0.36848962,1.8775645,-0.30653107
1.078,-0.6606209,0.9609513,-0.0002792813,-0.33216816,1.9084357,-0.31040764
1.08,-0.52257913,0.9281445,-0.0644155,-0.2959463,1.9384956,-0.31264368
1.082,-0.37195182,0.8808128,-0.11690307,-0.26043826,1.9669659,-0.31329468
1.084,-0.21000105,0.8185051,-0.1565036,-0.22626555,1.992912,-0.31245267
1.086,-0.03830588,0.7441596,-0.1843501,-0.1940071,2.015445,-0.31029263
1.088,0.14050183,0.6602167,-0.1998228,-0.16415864,2.0338392,-0.30699188
1.09,0.32294613,0.56733066,-0.2027384,-0.1370666,2.0476594,-0.30255705
1.092,0.50719106,0.46545833,-0.19548255,-0.11292434,2.0565915,-0.2969867
1.094,0.6916236,0.3554571,-0.17971843,-0.091772676,2.0605452,-0.29034197
1.096,0.87271416,0.24006714,-0.155978,-0.073562145,2.059653,-0.28267014
1.098,1.0478913,0.12140578,-0.12115206,-0.058183014,2.0541883,-0.27401906
1.1,1.2144781,0.00086051226,-0.07436766,-0.045427203,2.044489,-0.26444164
1.102,1.3680205,-0.1194762,-0.014765725,-0.035001397,2.0309443,-0.2540142
1.104,1.5075479,-0.23949265,0.058790654,-0.026561797,2.0140162,-0.24288243
1.106,1.6315795,-0.3580926,0.14488947,-0.019740045,1.9942093,-0.23123363
1.108,1.737763,-0.4738841,0.24380669,-0.014208019,1.9719906,-0.21924616
1.11,1.8250961,-0.5857323,0.35623276,-0.009692788,1.9478775,-0.20713536
1.112,1.8903956,-0.69123906,0.48219007,-0.006075263,1.9223695,-0.19520986
1.114,1.9340566,-0.7901554,0.6223296,-0.0031993985,1.8960354,-0.1835365
1.116,1.9577181,-0.8829815,0.7754707,-0.0007171035,1.8694726,-0.17179248
1.118,1.9603386,-0.96849287,0.94128644,0.0017065406,1.8434116,-0.15980244
1.12,1.9424365,-1.0459256,1.119254,0.0041217804,1.818769,-0.1477426
1.122,1.9051912,-1.1152039,1.3079959,0.006372988,1.7964616,-0.13573116
1.124,1.8499397,-1.1764141,1.5056047,0.0083422065,1.77721,-0.12359496
1.126,1.7779379,-1.2293413,1.7100891,0.01011467,1.7616442,-0.11106936
1.128,1.6905596,-1.2737567,1.9195532,0.011961579,1.7505171,-0.0980696
1.13,1.5897053,-1.3097686,2.1320336,0.014288664,1.7447859,-0.084711224
1.132,1.4795517,-1.338607,2.3430727,0.017592728,1.7455082,-0.07117199
1.134,1.3611645,-1.3593159,2.5473228,0.022430003,1.7536154,-0.057595626
1.136,1.2364292,-1.3732103,2.74659,0.029367983,1.7697752,-0.044090018
1.138,1.1087323,-1.3831688,2.943818,0.03889984,1.7943754,-0.030740708
1.14,0.9813028,-1.3891816,3.1319842,0.051332712,1.8274374,-0.017635792
1.142,0.85333616,-1.3881724,3.3035076,0.06670028,1.8685353,-0.004912287
1.144,0.725418,-1.3813033,3.4637866,0.08472538,1.9168384,0.007238619
1.146,0.59710044,-1.3697817,3.6126156,0.10487294,1.9711981,0.018657759
1.148,0.4810518,-1.3596933,3.7471266,0.12644857,2.0302129,0.029231116
1.15,0.38134086,-1.3516393,3.8640928,0.14865959,2.09238,0.03884542
1.152,0.2893725,-1.338154,3.9573016,0.17070973,2.1561902,0.047383286
1.154,0.20107412,-1.3142602,4.019764,0.19188154,2.2202487,0.054670423
1.156,0.12119478,-1.2824062,4.05048,0.21165109,2.2833657,0.06051504
1.158,0.052024484,-1.245915,4.0552807,0.22970808,2.3445964,0.06470778
1.16,-0.010455966,-1.2044687,4.042214,0.24591321,2.403215,0.06699935
1.162,-0.068683386,-1.1568091,4.013667,0.26024604,2.4587064,0.067141086
1.164,-0.121426284,-1.1032631,3.9679015,0.27279592,2.51053,0.06484453
1.166,-0.16929632,-1.04411,3.9044335,0.28350198,2.5579305,0.059763655
1.168,-0.21489954,-0.978989,3.825153,0.29203916,2.6003933,0.05149018
1.17,-0.26125324,-0.9068078,3.7325387,0.2980324,2.6379974,0.039599188
1.172,-0.31002617,-0.8267335,3.628264,0.3013662,2.6707792,0.023917973
1.174,-0.36209345,-0.7383359,3.5138955,0.30187428,2.698189,0.004498381
1.176,-0.4189105,-0.64109087,3.3921723,0.29927397,2.7202005,-0.018692475
1.178,-0.48138547,-0.5342183,3.2653337,0.29315162,2.737704,-0.04569158
1.18,-0.55018836,-0.41708863,3.1344278,0.28308582,2.7518191,-0.0761635
1.182,-0.6253177,-0.28962848,3.0002398,0.2691512,2.763529,-0.109550774
1.184,-0.70690995,-0.15213019,2.8634605,0.25201797,2.773539,-0.14539856
1.186,-0.79490674,-0.0050323308,2.7244842,0.23260653,2.782706,-0.18306991
1.188,-0.89014876,0.15136945,2.5845826,0.21192634,2.7922025,-0.22157535
1.19,-0.9894042,0.3147372,2.4442663,0.1913631,2.8033433,-0.259914
1.192,-1.0903285,0.48416558,2.29953,0.17292416,2.8172626,-0.29730383
1.194,-1.192122,0.6581677,2.1503322,0.15889311,2.8342855,-0.3331073
1.196,-1.2941177,0.83336604,1.9987282,0.1514486,2.853637,-0.36675647
1.198,-1.3938098,1.0067586,1.8455484,0.1523186,2.8734937,-0.39792404
1.2,-1.488902,1.177131,1.6924005,0.1625241,2.8911505,-0.42671427
1.202,-1.5776076,1.3429631,1.5429733,0.18221939,2.9033978,-0.4535846
1.204,-1.658363,1.501079,1.4004493,0.2106582,2.9069908,-0.47920516
1.206,-1.7288133,1.6475127,1.2660941,0.24623919,2.8991659,-0.5044233
1.208,-1.7861806,1.7786536,1.1405998,0.2866726,2.878135,-0.5301799
1.21,-1.8281721,1.8922579,1.0260141,0.32929695,2.8433166,-0.5573992
1.212,-1.8536509,1.9868847,0.926155,0.37147212,2.7953625,-0.5867969
1.214,-1.8621192,2.0613074,0.845114,0.41091418,2.7360098,-0.6187347
1.216,-1.8527286,2.1142015,0.7864566,0.44595575,2.667713,-0.6532022
1.218,-1.8251417,2.1445637,0.75316167,0.47561145,2.5933042,-0.68967336
1.22,-1.7790989,2.15177,0.74754435,0.49974865,2.5156233,-0.72721726
1.222,-1.7144607,2.1356788,0.7711082,0.5187267,2.436742,-0.7648558
1.224,-1.6321821,2.0974221,0.82442975,0.533061,2.35796,-0.80155146
1.226,-1.5333219,2.0384846,0.9074965,0.54335654,2.2805128,-0.83621365
1.228,-1.4183238,1.9602835,1.0196271,0.55046976,2.2057524,-0.86801374
1.23,-1.2887999,1.864749,1.1593556,0.5550518,2.1343234,-0.8966377
1.232,-1.1465895,1.7545863,1.3237381,0.557363,2.0664108,-0.9222256
1.234,-0.99410677,1.6328893,1.508752,0.5573584,2.0024703,-0.9452587
1.236,-0.83347845,1.5027264,1.7103796,0.5546143,1.9432125,-0.96624064
1.238,-0.66667473,1.3668383,1.9247961,0.5486325,1.889431,-0.98569244
1.24,-0.4959349,1.2279794,2.1478388,0.53922296,1.8414378,-1.0044955
1.242,-0.3249397,1.0894369,2.3763351,0.5264413,1.7989073,-1.0236648
1.244,-0.15503633,0.95283866,2.6066473,0.5102178,1.7610607,-1.0437984
1.246,0.0114760995,0.8217222,2.8287277,0.49028736,1.7269003,-1.0650089
1.248,0.17094582,0.6997671,3.0346076,0.46662706,1.6957128,-1.0872331
1.25,0.320629,0.58720076,3.2272651,0.43955547,1.6670725,-1.1103772
1.252,0.46052986,0.48232627,3.4078994,0.40966243,1.6406276,-1.1342208
1.254,0.5890616,0.3879292,3.5670586,0.37765098,1.6160543,-1.1584058
1.256,0.7044306,0.30607736,3.7042193,0.3442703,1.5930917,-1.1826115
1.258,0.7949433,0.24163651,3.8214798,0.31030136,1.571579,-1.2066029
1.26,0.860302,0.19243425,3.9212637,0.27652568,1.5513923,-1.2302119
1.262,0.9101208,0.15027314,4.0084877,0.24377406,1.5324898,-1.2533108
1.264,0.9459785,0.112647116,4.087403,0.21286786,1.5150026,-1.2758511
1.266,0.9609259,0.083960414,4.157559,0.18456912,1.4992441,-1.2978263
1.268,0.9527539,0.06745756,4.2142076,0.15964812,1.4858016,-1.3192227
1.27,0.92579997,0.06167668,4.254049,0.13891524,1.4755801,-1.339928
1.272,0.8815292,0.064217865,4.281481,0.1231868,1.4697027,-1.3597093
1.274,0.81893307,0.07394695,4.3042808,0.113185406,1.4694163,-1.3781979
1.276,0.7391246,0.08973491,4.327732,0.10948241,1.4758894,-1.3949703
1.278,0.6456687,0.109519005,4.353854,0.11242095,1.4900359,-1.4095832
1.28,0.54234505,0.13070899,4.384781,0.12208241,1.5123693,-1.4215994
1.282,0.43137598,0.15112334,4.422826,0.13825786,1.5429217,-1.4307045
1.284,0.31529212,0.16906184,4.469602,0.16041058,1.5811273,-1.4367845
1.286,0.19716668,0.18308336,4.525287,0.18768668,1.6258528,-1.4399825
1.288,0.07999569,0.19177961,4.5900917,0.21897537,1.6755433,-1.4406711
1.29,-0.033258438,0.19423768,4.663889,0.25297397,1.7282732,-1.4393997
1.292,-0.1397416,0.19001833,4.7468143,0.2882561,1.7819335,-1.4368273
1.294,-0.23688143,0.17908716,4.8385725,0.3233884,1.8344281,-1.4336313
1.296,-0.3221923,0.161493,4.9384007,0.3570158,1.8838143,-1.4304439
1.298,-0.3933604,0.13749224,5.0448456,0.38798338,1.9284022,-1.4277757
1.3,-0.4489975,0.107878625,5.1561303,0.4153583,1.9667778,-1.4260354
1.302,-0.48837984,0.07319927,5.2702565,0.43843806,1.9978795,-1.425515
1.304,-0.5106205,0.03405878,5.3853445,0.45676196,2.0210187,-1.4264023
1.306,-0.51544476,-0.008742958,5.499525,0.47012943,2.0359075,-1.4287534
1.308,-0.502848,-0.0543029,5.6106467,0.47857654,2.042653,-1.4325407
1.31,-0.47368312,-0.10132876,5.716334,0.4823202,2.041697,-1.4376333
1.312,-0.4291175,-0.14865863,5.8148274,0.48171377,2.0337894,-1.4438715
1.314,-0.3710661,-0.19514781,5.904867,0.47724926,2.0199368,-1.4510307
1.316,-0.30104458,-0.23991185,5.9852595,0.4694513,2.001209,-1.4588752
1.318,-0.22100198,-0.2825165,6.0552855,0.4588924,1.97874,-1.4671597
1.32,-0.13299084,-0.32236356,6.1144304,0.4462105,1.9537137,-1.4756479
1.322,-0.038975,-0.35917932,6.1619606,0.43202662,1.9271374,-1.4841392
1.324,0.058939993,-0.39232314,6.197616,0.41690463,1.8998978,-1.4925058
1.326,0.15875238,-0.42126602,6.221391,0.4013766,1.8727659,-1.5006632
1.328,0.258577,-0.44561607,6.234112,0.38596833,1.8464122,-1.5085275
1.33,0.3570348,-0.4653154,6.2361403,0.37119225,1.8214273,-1.5160233
1.332,0.45262927,-0.4801575,6.227833,0.3575507,1.7983167,-1.523105
1.334,0.5440722,-0.4902075,6.210073,0.34550616,1.777478,-1.5298055
1.336,0.63021624,-0.4957369,6.1838174,0.33546194,1.7591987,-1.5361642
1.338,0.71025,-0.49723738,6.1499405,0.32777262,1.7436717,-1.5421336
1.34,0.7837715,-0.49503767,6.1095843,0.32273197,1.7310004,-1.5476302
1.342,0.8507327,-0.48959482,6.0642614,0.32055354,1.7212019,-1.5525414
1.344,0.9111494,-0.48111963,6.0157385,0.32135174,1.7143116,-1.5567572
1.346,0.9647778,-0.46985257,5.9649296,0.3251876,1.7103467,-1.5601566
1.348,1.011473,-0.45573342,5.9118133,0.33203995,1.709312,-1.5626166
1.35,1.0509063,-0.43836272,5.85657,0.34183276,1.7113066,-1.564005
1.352,1.0831074,-0.4175191,5.7997923,0.3543907,1.7164941,-1.5641413
1.354,1.1085985,-0.39319026,5.7419567,0.36951122,1.7251599,-1.562753
1.356,1.1273445,-0.36525917,5.6835375,0.38700032,1.7377045,-1.5594989
1.358,1.1392388,-0.33305824,5.624626,0.40667346,1.7546402,-1.554034
1.36,1.1438482,-0.29570365,5.5647964,0.42834103,1.7765744,-1.5460174
1.362,1.1413186,-0.252962,5.5038347,0.45182186,1.8041061,-1.5350463
1.364,1.1311165,-0.2043699,5.4408665,0.4769632,1.8377988,-1.5207535
1.366,1.1133293,-0.14963329,5.3746853,0.5036543,1.8781321,-1.5028405
1.368,1.0875819,-0.08841956,5.304825,0.5318066,1.9254458,-1.4811106
1.37,1.0536902,-0.020364165,5.230767,0.5614253,1.979909,-1.4554595
1.372,1.0116465,0.054742098,5.1519713,0.59253347,2.041437,-1.4259512
1.374,0.96135265,0.13692677,5.068259,0.625127,2.1096554,-1.3929183
1.376,0.9029121,0.22628975,4.9785657,0.6591366,2.1839542,-1.3569187
1.378,0.83661366,0.3221798,4.8827415,0.6944159,2.2633457,-1.3186715
1.38,0.76219136,0.42377335,4.781146,0.7307178,2.346506,-1.2790422
1.382,0.6796821,0.53063834,4.674246,0.76770014,2.4318323,-1.2390006
1.384,0.5894292,0.6421813,4.562625,0.8049244,2.5175416,-1.199528
1.386,0.49202245,0.7576264,4.4467983,0.8419295,2.6017714,-1.1615572
1.388,0.38798726,0.8761126,4.327771,0.8782682,2.6827111,-1.1259243
1.39,0.2781117,0.9964788,4.2064037,0.91360766,2.7587256,-1.0933164
1.392,0.16335225,1.1177621,4.0844245,0.94774866,2.8284583,-1.0642495
1.394,0.04465103,1.2386225,3.9634416,0.98062056,2.890857,-1.0390109
1.396,-0.07683945,1.3577148,3.8452158,1.0122745,2.945228,-1.0176615
1.398,-0.19970834,1.4735905,3.7317264,1.0428793,2.99122,-1.0000446
1.4,-0.32243752,1.5845506,3.6254592,1.0726609,3.028813,-0.9858301
1.402,-0.44354928,1.6886425,3.5281696,1.1018695,3.0582652,-0.9746098
1.404,-0.56058013,1.7850454,3.4410946,1.1307459,3.0800614,-0.9659484
1.406,-0.67235076,1.8733827,3.3652897,1.1595006,3.0948856,-0.9594547
1.408,-0.77663195,1.9524157,3.3017704,1.1882377,3.1035094,-0.9547928
1.41,-0.871773,2.0204358,3.2518442,1.216986,3.106692,-0.9516724
1.412,-0.9562274,2.07655,3.216671,1.2457342,3.1051898,-0.94984204
1.414,-1.0284002,2.1200638,3.1971464,1.2744287,3.0997088,-0.949154
1.416,-1.0869974,2.1501648,3.193671,1.3029728,3.090935,-0.94955033
1.418,-1.1296086,2.1657999,3.2057712,1.3312311,3.0794609,-0.9509813
1.42,-1.1559563,2.1671226,3.2333925,1.3590137,3.0658226,-0.9533718
1.422,-1.167316,2.1543827,3.2779932,1.3861217,3.0505826,-0.9566376
1.424,-1.1624038,2.127507,3.3400242,1.4123099,3.0343664,-0.96070355
1.426,-1.140348,2.0871668,3.4188035,1.4373665,3.017827,-0.9654169
1.428,-1.1014824,2.0342038,3.5132563,1.4611323,3.0016477,-0.97053534
1.43,-1.0471445,1.9689772,3.6222696,1.4835409,2.9865882,-0.9757851
1.432,-0.9785445,1.8924261,3.7448783,1.5045224,2.9735065,-0.98089105
1.434,-0.8967422,1.8056945,3.8805203,1.5242949,2.963301,-0.98538876
1.436,-0.8032783,1.7101353,4.0292964,1.5432084,2.956771,-0.9889476
1.438,-0.70013785,1.6070687,4.1899247,1.5615442,2.9545348,-0.9913917
1.44,-0.58843565,1.4981216,4.3607783,1.5796689,2.9571269,-0.9923502
1.442,-0.47250748,1.3859913,4.5411887,1.5979646,2.9649322,-0.99147063
1.444,-0.3538332,1.2716019,4.7321095,1.6167424,2.978117,-0.98854285
1.446,-0.2346853,1.1563728,4.93428,1.6362569,2.9966462,-0.983465
1.448,-0.118293405,1.0421591,5.1478076,1.6566789,3.0202456,-0.9762703
1.45,-0.007024646,0.93140346,5.36798,1.6780684,3.048368,-0.9672448
1.452,0.09786594,0.82562053,5.59042,1.7003168,3.0803502,-0.9569789
1.454,0.1946187,0.72509325,5.8150377,1.7232275,3.115341,-0.9460853
1.456,0.28080356,0.6308838,6.0421267,1.7465715,3.1523137,-0.93519217
1.458,0.3556143,0.54459953,6.2704544,1.7700106,3.1901932,-0.92512405
1.46,0.4185934,0.46744537,6.4965777,1.793065,3.2279816,-0.91672325
1.462,0.46908772,0.40014648,6.716305,1.8151757,3.2647166,-0.9106431
1.464,0.5067955,0.34295034,6.9274936,1.8357818,3.2995436,-0.9072809
1.466,0.5316011,0.2967136,7.1291127,1.8543837,3.331814,-0.9068198
1.468,0.54327625,0.2624426,7.3197937,1.8706212,3.361198,-0.9092438
1.47,0.5419885,0.2411449,7.4972553,1.8843291,3.3875058,-0.91433036
1.472,0.52791035,0.23379064,7.6588874,1.8955569,3.4105961,-0.9216708
1.474,0.5014571,0.24075556,7.802024,1.9044802,3.4304583,-0.9308206
1.476,0.46339488,0.2621975,7.924622,1.9113386,3.4472141,-0.9412409
1.478,0.41461825,0.29757094,8.024961,1.9164531,3.4609838,-0.95222926
1.48,0.3563379,0.34612536,8.101374,1.9202821,3.4718688,-0.96313787
1.482,0.2899096,0.40726352,8.152309,1.9232556,3.4797952,-0.9736117
1.484,0.21624446,0.4803226,8.176457,1.9255698,3.4846365,-0.9834248
1.486,0.13533497,0.5647768,8.171578,1.9273586,3.4864502,-0.9923564
1.488,0.05237031,0.6581812,8.138193,1.9286064,3.4855142,-1.000508
1.49,-0.028886557,0.7572881,8.082899,1.9294457,3.482355,-1.0080923
1.492,-0.11045754,0.86157274,8.006466,1.9303225,3.4777215,-1.0154563
1.494,-0.19238067,0.9701662,7.9057236,1.9316839,3.4723206,-1.0232463
1.496,-0.2695372,1.080878,7.7789364,1.934056,3.466879,-1.032055
1.498,-0.34028816,1.1916046,7.627408,1.9380414,3.462093,-1.0423709
1.5,-0.4042741,1.2992792,7.4565825,1.9442245,3.4583764,-1.0546018
1.502,-0.46025574,1.4004712,7.2733707,1.9530627,3.4557357,-1.0689231
1.504,-0.5070561,1.4931146,7.08144,1.9647799,3.4536772,-1.0851415
1.506,-0.543633,1.5762279,6.8822565,1.9793272,3.4511666,-1.1027551
1.508,-0.5690752,1.6485305,6.67721,1.9962747,3.4469004,-1.1212271
1.51,-0.583269,1.708323,6.469634,2.0148618,3.4394803,-1.1398786
1.512,-0.5862789,1.7542043,6.264409,2.0342255,3.4275784,-1.157838
1.514,-0.5785645,1.7842469,6.066466,2.0534828,3.4101381,-1.1743746
1.516,-0.55960655,1.7975519,5.879292,2.0718288,3.3866506,-1.1890802
1.518,-0.5300648,1.7945795,5.7050095,2.088491,3.3569555,-1.2018
1.52,-0.49029613,1.7763107,5.544827,2.1027348,3.321474,-1.2126416
1.522,-0.44074595,1.7427963,5.400478,2.114042,3.2811928,-1.2221166
1.524,-0.38222408,1.6942215,5.274177,2.122191,3.2370424,-1.2308987
1.526,-0.31516123,1.6312169,5.1676784,2.127274,3.1898832,-1.2395115
1.528,-0.2409277,1.5549064,5.0823765,2.1295857,3.1403632,-1.2484454
1.53,-0.15853429,1.4655808,5.017981,2.1293418,3.0888145,-1.2583293
1.532,-0.06653094,1.3640676,4.971986,2.1266809,3.0355337,-1.2696598
1.534,0.03390014,1.2516029,4.943342,2.1217318,2.9807992,-1.2825797
1.536,0.14215761,1.1289146,4.931814,2.1148584,2.9248333,-1.2969191
1.538,0.25922298,0.9969368,4.9369273,2.1066763,2.8675933,-1.3125678
1.54,0.38661146,0.85707736,4.957628,2.0977836,2.8088148,-1.3295791
1.542,0.52537084,0.7103199,4.9921913,2.088595,2.748232,-1.347892
1.544,0.6763526,0.5570791,5.038085,2.0793605,2.685699,-1.3673445
1.546,0.84019715,0.39810824,5.0925436,2.0702083,2.6211765,-1.3878415
1.548,1.0180534,0.23432946,5.1538744,2.0612097,2.5547698,-1.4093868
1.55,1.2098354,0.066755295,5.2213297,2.0523248,2.4866605,-1.4319715
1.552,1.418649,-0.10470617,5.292867,2.0434039,2.417151,-1.455425
1.554,1.6441343,-0.27847075,5.3650165,2.0342572,2.3467891,-1.4794118
1.556,1.8870207,-0.4538585,5.4350877,2.0247781,2.2764034,-1.5034518
1.558,2.1481614,-0.63039565,5.5014844,2.0149944,2.2070658,-1.5269504
1.56,2.4277182,-0.8083844,5.566533,2.0051174,2.1399808,-1.5491827
1.562,2.72425,-0.9870026,5.6304846,1.9955028,2.0763843,-1.5693376
1.564,3.0369966,-1.1644186,5.6894083,1.9865686,2.017492,-1.5866203
1.566,3.365072,-1.3395469,5.740123,1.9787394,1.9643972,-1.6002518
1.568,3.7059236,-1.5117633,5.7817407,1.9724033,1.9180785,-1.6095171
1.57,4.0571012,-1.6802417,5.8148694,1.9678429,1.8793662,-1.6137702
1.572,4.4166594,-1.8434905,5.8391767,1.9652476,1.849031,-1.6125169
1.574,4.7824144,-2.0001872,5.852232,1.9647474,1.827425,-1.6053181
1.576,5.151849,-2.1495001,5.851183,1.9662719,1.8145756,-1.5917151
1.578,5.522835,-2.2908635,5.833916,1.9696128,1.8106941,-1.5715077
1.58,5.892823,-2.4235868,5.8000565,1.9744719,1.8156817,-1.5447681
1.582,6.259142,-2.5467427,5.749845,1.9806367,1.8289368,-1.5115547
1.584,6.618954,-2.6590838,5.6836486,1.9879951,1.8495101,-1.4719253
1.586,6.9694114,-2.7595158,5.6013494,1.9963597,1.8760478,-1.4261792
1.588,7.3072753,-2.8465965,5.5025954,2.0053406,1.9069133,-1.3748403
1.59,7.629858,-2.9198747,5.3881545,2.0143669,1.9404776,-1.3185318
1.592,7.934855,-2.978837,5.257902,2.022818,1.9751407,-1.2579682
1.594,8.2202015,-3.023193,5.112573,2.0301116,2.0092926,-1.193969
1.596,8.48491,-3.0532348,4.9551783,2.0357492,2.0414145,-1.127523
1.598,8.724114,-3.0677252,4.785875,2.0392919,2.0701475,-1.0597147
1.6,8.936214,-3.0657554,4.600802,2.0403495,2.0943582,-0.99164253
1.602,9.125065,-3.0495071,4.4039254,2.0386307,2.113212,-0.92435706
1.604,9.291134,-3.0201385,4.201961,2.0339954,2.1260927,-0.8588231
1.606,9.4308815,-2.97768,3.998398,2.0264702,2.1326137,-0.7959417
1.608,9.545132,-2.922525,3.7937362,2.0162227,2.1325858,-0.7365168
1.61,9.636206,-2.8553314,3.5859814,2.0035133,2.125929,-0.6812387
1.612,9.704949,-2.7756069,3.3727882,1.9887146,2.112683,-0.6306317
1.614,9.751806,-2.6848128,3.15728,1.9722658,2.0930066,-0.58508617
1.616,9.778061,-2.5849977,2.9440422,1.9546082,2.0670867,-0.5449062
1.618,9.784814,-2.4773312,2.7364032,1.9361665,2.0350654,-0.5103205
1.62,9.77321,-2.3622735,2.5352926,1.9173303,1.9972717,-0.48147362
1.622,9.744382,-2.2400274,2.3402336,1.898376,1.9540029,-0.4583835
1.624,9.699198,-2.111498,2.1514697,1.8793724,1.9053793,-0.44103873
1.626,9.637974,-1.9777657,1.9706397,1.860295,1.8516496,-0.4292977
1.628,9.561213,-1.8398494,1.7996643,1.8410441,1.7932379,-0.4228511
1.63,9.469505,-1.6983821,1.6401848,1.8214695,1.7307165,-0.42121005
1.632,9.36296,-1.553646,1.4930303,1.8014274,1.664887,-0.4236782
1.634,9.241245,-1.4056429,1.3583264,1.7808902,1.5967948,-0.429348
1.636,9.104107,-1.2547592,1.2365478,1.7599274,1.5276045,-0.4371524
1.638,8.951039,-1.1015097,1.1286505,1.7388306,1.4585953,-0.4459542
1.64,8.781534,-0.94661415,1.0360417,1.7181284,1.3912243,-0.45447907
1.642,8.595142,-0.7909136,0.9601574,1.6984572,1.3266976,-0.46153104
1.644,8.391462,-0.6348487,0.9017234,1.6806035,1.2659421,-0.46617168
1.646,8.169971,-0.47921038,0.8616591,1.6654617,1.2096058,-0.46772528
1.648,7.930607,-0.32478714,0.84060454,1.653893,1.1579533,-0.4658773
1.65,7.6735687,-0.17280972,0.8388624,1.646672,1.1108277,-0.4606962
1.652,7.399335,-0.024444103,0.85666066,1.6444049,1.0677443,-0.45260328
1.654,7.108968,0.11913955,0.8940567,1.647464,1.0279319,-0.4423185
1.656,6.8039103,0.2565137,0.95099413,1.6559708,0.9904178,-0.43079862
1.658,6.4856443,0.3864268,1.0273976,1.669791,0.95416176,-0.41908634
1.66,6.1565623,0.50725126,1.1228623,1.6885588,0.9180448,-0.40821642
1.662,5.8191686,0.6175585,1.2367076,1.711726,0.88099205,-0.3991431
1.664,5.476434,0.7158966,1.3680251,1.7386165,0.84207124,-0.39265803
1.666,5.1313324,0.80122614,1.5160533,1.7684685,0.80043566,-0.38937867
1.668,4.78747,0.87222135,1.6795539,1.8004949,0.7553373,-0.38971293
1.67,4.4486732,0.9279028,1.8569317,1.8339852,0.70619196,-0.3939031
1.672,4.118824,0.9675306,2.0461402,1.8682989,0.65261984,-0.40207005
1.674,3.8020546,0.9905174,2.2448394,1.9028915,0.5942544,-0.41426277
1.676,3.5026762,0.99662566,2.450543,1.9373537,0.530984,-0.4304728
1.678,3.2248926,0.98601043,2.6603897,1.971473,0.46303007,-0.45056868
1.68,2.9725459,0.95919895,2.871296,2.005108,0.39061472,-0.47435087
1.682,2.7488532,0.91721356,3.0806355,2.038199,0.31401086,-0.5015546
1.684,2.5568924,0.86156666,3.2854757,2.0707843,0.23360771,-0.5318314
1.686,2.399628,0.7937134,3.4827244,2.1029677,0.14981294,-0.5647166
1.688,2.2792459,0.7155311,3.6694021,2.1348886,0.06301144,-0.5996736
1.69,2.1976511,0.629116,3.8424315,2.1667304,-0.026387423,-0.6360801
1.692,2.1561127,0.53668475,3.9989076,2.1986375,-0.11807278,-0.67322034
1.694,2.1557374,0.4405356,4.1362653,2.2307203,-0.21193856,-0.71046007
1.696,2.197217,0.3430462,4.252166,2.2631454,-0.30772465,-0.7471058
1.698,2.2808905,0.24640542,4.3447375,2.2960157,-0.40521628,-0.78240484
1.7,2.4062338,0.15323555,4.4115553,2.3293402,-0.5042957,-0.8157112
1.702,2.572336,0.065470934,4.4520674,2.3631263,-0.6048534,-0.8464835
1.704,2.777845,-0.0149537325,4.4660673,2.3973198,-0.70676,-0.8743099
1.706,3.02102,-0.08633828,4.452783,2.4318638,-0.8098562,-0.89894104
1.708,3.2996485,-0.14726216,4.412443,2.4666991,-0.91390634,-0.9202762
1.71,3.61109,-0.19650179,4.346224,2.5017915,-1.018606,-0.93835926
1.712,3.952831,-0.23330617,4.2556896,2.5371428,-1.1235795,-0.9533816
1.714,4.3220124,-0.257011,4.1428204,2.5727847,-1.228348,-0.96562135
1.716,4.7159,-0.26721454,4.0102015,2.608808,-1.3324089,-0.97541517
1.718,5.131708,-0.26376832,3.860364,2.6453443,-1.4352593,-0.98312324
1.72,5.5665383,-0.24614978,3.6960337,2.682569,-1.5363958,-0.98907053
1.722,6.018255,-0.21555018,3.5212848,2.7206757,-1.635334,-0.99354106
1.724,6.4848175,-0.17289531,3.3395483,2.7598534,-1.7316744,-0.9967305
1.726,6.9639077,-0.11924386,3.1545107,2.8003206,-1.8251238,-0.99874777
1.728,7.4541492,-0.056128144,2.9707272,2.8422656,-1.9154501,-0.99965847
1.73,7.9539547,0.015240073,2.7918937,2.885913,-2.0024016,-0.9994428
1.732,8.460671,0.09388888,2.6195757,2.9314892,-2.0857058,-0.9979991
1.734,8.97333,0.1783098,2.4550877,2.979231,-2.1649842,-0.99520856
1.736,9.491644,0.26586676,2.3010814,3.0293856,-2.2396777,-0.9909448
1.738,10.013659,0.35482287,2.161906,3.082193,-2.3090134,-0.985052
1.74,10.537186,0.44419646,2.0402036,3.1379228,-2.3720558,-0.9773463
1.742,11.061355,0.5328355,1.9368547,3.1968403,-2.4277077,-0.9676046
1.744,11.585343,0.61916184,1.8521929,3.2591832,-2.4748464,-0.9555794
1.746,12.107412,0.7022517,1.7863048,3.3251047,-2.512443,-0.9410322
1.748,12.624831,0.7819195,1.739436,3.3946478,-2.5396485,-0.9236765
1.75,13.137646,0.85735464,1.7134857,3.4677029,-2.555984,-0.90321076
1.752,13.642694,0.9308119,1.7035819,3.543982,-2.5614345,-0.879315
1.754,14.133456,1.0066411,1.7010608,3.6230745,-2.556473,-0.8516674
1.756,14.603044,1.0851562,1.7096865,3.7043853,-2.5420732,-0.819947
1.758,15.053512,1.1566219,1.7429416,3.7872329,-2.5196743,-0.783896
1.76,15.493985,1.2171066,1.78861,3.8708408,-2.4911928,-0.74331325
1.762,15.916501,1.2788332,1.8229833,3.9543953,-2.4589956,-0.6980734
1.764,16.311937,1.3479707,1.8434386,4.0371203,-2.4256358,-0.6481433
1.766,16.677511,1.4243124,1.8542739,4.11825,-2.3938618,-0.5936256
1.768,17.015194,1.5047657,1.8605335,4.197101,-2.366521,-0.53468657
1.77,17.324505,1.589844,1.8631338,4.273136,-2.346305,-0.4716344
1.772,17.602856,1.6820698,1.860105,4.3459105,-2.3357606,-0.40499216
1.774,17.847494,1.7854307,1.8489285,4.4150047,-2.337352,-0.3354319
1.776,18.056694,1.9011605,1.823966,4.4800572,-2.353398,-0.26365083
1.778,18.230806,2.029504,1.7791705,4.54072,-2.3860304,-0.19043532
1.78,18.37095,2.1713412,1.713701,4.59671,-2.4371085,-0.11671913
1.782,18.478426,2.3283825,1.6296828,4.647885,-2.5082774,-0.043557793
1.784,18.556135,2.502747,1.5290638,4.6942034,-2.601489,0.02787733
1.786,18.608747,2.6954827,1.412393,4.7356324,-2.718934,0.09629351
1.788,18.641657,2.906511,1.2784919,4.7723837,-2.8615408,0.16086462
1.79,18.660864,3.13542,1.1253086,4.805595,-3.0286489,0.22141483
1.792,18.672316,3.3817918,0.95106447,4.836675,-3.2215605,0.27710193
1.794,18.682362,3.645456,0.7550317,4.867315,-3.4426107,0.32691157
1.796,18.696573,3.926668,0.5376798,4.8992763,-3.6935215,0.37054265
1.798,18.72116,4.2252264,0.30087066,4.9343033,-3.9759018,0.40848678
1.8,18.762426,4.5401306,0.047119617,4.9747343,-4.2908125,0.44203556
1.802,18.82613,4.870339,-0.22088861,5.0233107,-4.6387467,0.47278547
1.804,18.91682,5.2148547,-0.5000235,5.082798,-5.0193214,0.5021055
1.806,19.037785,5.5728836,-0.7858548,5.1556387,-5.430296,0.5312116
1.808,19.191282,5.9437256,-1.073378,5.243483,-5.8675203,0.5612464
1.81,19.37792,6.326832,-1.3567706,5.3470984,-6.3246713,0.593063
1.812,19.596571,6.721735,-1.6294522,5.466315,-6.792922,0.6269871
1.814,19.845003,7.1280203,-1.8844228,5.600031,-7.261074,0.6625807
1.816,20.118952,7.545719,-2.113632,5.746235,-7.716325,0.6986487
1.818,20.412704,7.9750476,-2.3087559,5.902067,-8.14534,0.733536
1.82,20.719702,8.416239,-2.462088,6.0642085,-8.535191,0.76551723
1.822,21.031794,8.8699875,-2.5663655,6.22918,-8.874442,0.7930238
1.824,21.340292,9.336915,-2.6147296,6.3936863,-9.154249,0.8149848
1.826,21.636179,9.817929,-2.6010387,6.554976,-9.368813,0.83096933
1.828,21.910069,10.313754,-2.5199678,6.7110033,-9.515682,0.8410883
1.83,22.152851,10.825043,-2.3677158,6.860345,-9.595735,0.8458276
1.832,22.355795,11.352506,-2.1418495,7.0021563,-9.612799,0.8459964
1.834,22.510983,11.896902,-1.8415585,7.135964,-9.573194,0.8424797
1.836,22.611456,12.458359,-1.4672604,7.2615585,-9.484938,0.835974
1.838,22.650698,13.037,-1.0213385,7.37888,-9.356667,0.8267405
1.84,22.624157,13.631995,-0.50680685,7.4880524,-9.197409,0.81452847
1.842,22.529377,14.24198,0.07342434,7.5891385,-9.017038,0.7982898
1.844,22.363468,14.866103,0.7141204,7.681871,-8.825132,0.7765627
1.846,22.124968,15.503804,1.4072948,7.766532,-8.627827,0.7487097
1.848,21.815325,16.153112,2.1430483,7.8437657,-8.430076,0.7141361
1.85,21.437428,16.810883,2.9126253,7.9146295,-8.236842,0.6718211
1.852,20.993616,17.474533,3.7081943,7.980367,-8.051717,0.62087655
1.854,20.48724,18.141367,4.521773,8.04185,-7.876934,0.5608187
1.856,19.923607,18.80796,5.345023,8.099881,-7.7130265,0.491889
1.858,19.308784,19.470602,6.169255,8.155435,-7.5591097,0.4150405
1.86,18.647064,20.126476,6.9846754,8.209575,-7.4136276,0.33130097
1.862,17.94609,20.770798,7.788155,8.26345,-7.274288,0.24153018
1.864,17.21571,21.398182,8.578226,8.317968,-7.1385107,0.14653325
1.866,16.46446,22.008722,9.341415,8.373703,-7.0040283,0.047226906
1.868,15.6923685,22.609653,10.060583,8.430937,-6.8689985,-0.05526471
1.87,14.896947,23.199574,10.745907,8.489805,-6.731873,-0.15965676
1.872,14.09379,23.763977,11.410891,8.550399,-6.591471,-0.26468801
1.874,13.295699,24.299345,12.044687,8.612722,-6.4469547,-0.36923027
1.876,12.507729,24.809195,12.634028,8.676688,-6.2978535,-0.47225523
1.878,11.731533,25.298206,13.170359,8.742124,-6.144042,-0.5728636
1.88,10.972521,25.766771,13.652905,8.808755,-5.98577,-0.67033124
1.882,10.238123,26.213434,14.08466,8.876246,-5.823672,-0.7641685
1.884,9.535577,26.636833,14.469162,8.944191,-5.6587744,-0.85412145
1.886,8.870186,27.038708,14.8119335,9.01217,-5.492469,-0.9402025
1.888,8.245332,27.421799,15.117526,9.079717,-5.326447,-1.0226483
1.89,7.6640286,27.787605,15.385103,9.146372,-5.1627216,-1.1019073
1.892,7.130036,28.136753,15.612817,9.211678,-5.0036106,-1.1785505
1.894,6.6453857,28.46998,15.801097,9.27519,-4.851665,-1.2532411
1.896,6.211418,28.789152,15.952771,9.336477,-4.709568,-1.326725
1.898,5.829105,29.096783,16.072874,9.395151,-4.580043,-1.399791
1.9,5.4992704,29.395369,16.16644,9.450866,-4.4657307,-1.4732482
1.902,5.2231007,29.68659,16.237858,9.5033045,-4.369035,-1.547885
1.904,5.000968,29.971594,16.290644,9.552183,-4.2920256,-1.6244588
1.906,4.8331404,30.251131,16.327595,9.597227,-4.23637,-1.7036707
1.908,4.71841,30.526237,16.351044,9.638097,-4.2032847,-1.7861474
1.91,4.6545463,30.7983,16.363625,9.674468,-4.193546,-1.8724289
1.912,4.639119,31.06835,16.368927,9.705953,-4.207493,-1.9630008
1.914,4.6694465,31.337008,16.370773,9.732152,-4.245079,-2.058308
1.916,4.7426443,31.604334,16.373106,9.7526045,-4.3059053,-2.1587486
1.918,4.8551955,31.870275,16.380089,9.766858,-4.3893204,-2.2646704
1.92,5.003774,32.13473,16.395977,9.774467,-4.4944496,-2.3763926
1.922,5.184621,32.397236,16.424332,9.775031,-4.620221,-2.4942014
1.924,5.39386,32.657265,16.468336,9.768223,-4.765411,-2.6183891
1.926,5.627758,32.91406,16.530575,9.753775,-4.928602,-2.7492113
1.928,5.882841,33.166645,16.613579,9.731532,-5.1082764,-2.886845
1.93,6.155493,33.413963,16.719902,9.701443,-5.302758,-3.0314045
1.932,6.4423523,33.65471,16.851912,9.663551,-5.5102854,-3.1828926
1.934,6.7402897,33.88745,17.011368,9.618037,-5.7290287,-3.3411918
1.936,7.0463395,34.110626,17.19968,9.565178,-5.9571247,-3.5060506
1.938,7.358002,34.322662,17.417812,9.505329,-6.1927166,-3.677134
1.94,7.6732135,34.522118,17.666355,9.438894,-6.4339705,-3.8540206
1.942,7.990407,34.707085,17.94529,9.366275,-6.6790633,-4.0362043
1.944,8.308407,34.875862,18.254156,9.287868,-6.9262323,-4.223124
1.946,8.62616,35.02688,18.591938,9.204029,-7.173751,-4.4141884
1.948,8.943331,35.15869,18.957016,9.115121,-7.4198856,-4.608778
1.95,9.259811,35.269894,19.347584,9.021431,-7.6629043,-4.806247
1.952,9.575562,35.359154,19.761469,8.923182,-7.90106,-5.0059533
1.954,9.890987,35.425034,20.196354,8.82055,-8.132615,-5.207242
1.956,10.206676,35.466335,20.64946,8.713641,-8.355832,-5.4094567
1.958,10.523296,35.482025,21.117376,8.602501,-8.568995,-5.611915
1.96,10.841438,35.471455,21.59653,8.48713,-8.770459,-5.8139706
1.962,11.162067,35.43377,22.083057,8.367545,-8.958644,-6.0149465
1.964,11.486188,35.36843,22.572876,8.243713,-9.132065,-6.2141666
1.966,11.814105,35.27524,23.06203,8.115609,-9.289305,-6.410958
1.968,12.146754,35.153748,23.546522,7.9832306,-9.429083,-6.604676
1.97,12.484808,35.003548,24.022528,7.8466206,-9.550287,-6.7946935
1.972,12.828757,34.82431,24.486206,7.7058434,-9.651896,-6.9804053
1.974,13.178812,34.61599,24.93375,7.560995,-9.7330675,-7.161227
1.976,13.534841,34.378498,25.361492,7.4122376,-9.793086,-7.336645
1.978,13.896643,34.11194,25.76625,7.2597427,-9.831444,-7.5061626
1.98,14.26369,33.816612,26.145088,7.1036887,-9.847778,-7.669344
1.982,14.635054,33.492878,26.495516,6.9442797,-9.841904,-7.825795
1.984,15.009913,33.141186,26.815298,6.7817144,-9.813778,-7.9751244
1.986,15.387027,32.76216,27.102652,6.6162057,-9.763501,-8.116953
1.988,15.765041,32.356247,27.356228,6.447958,-9.691324,-8.250893
1.99,16.142601,31.92394,27.575092,6.2771864,-9.597667,-8.376534
1.992,16.518024,31.46592,27.758753,6.104109,-9.483101,-8.493434
1.994,16.889673,30.982779,27.90713,5.928965,-9.348423,-8.601105
1.996,17.255825,30.475346,28.020699,5.7520523,-9.194647,-8.69903
1.998,17.614746,29.944363,28.10009,5.573708,-9.023016,-8.786665
2,17.964802,29.39085,28.146156,5.394331,-8.835018,-8.863493
2.002,18.304077,28.81593,28.159956,5.2143497,-8.632387,-8.929055
2.004,18.630898,28.220737,28.142612,5.0342226,-8.41703,-8.982978
2.006,18.943737,27.606434,28.095594,4.8544474,-8.191024,-9.025019
2.008,19.241203,26.974249,28.020336,4.6755285,-7.9564953,-9.055044
2.01,19.522072,26.325533,27.91858,4.497961,-7.7156324,-9.073073
2.012,19.785198,25.66174,27.791725,4.3222322,-7.470587,-9.079228
2.014,20.029655,24.98461,27.64111,4.1488037,-7.223399,-9.073731
2.016,20.254868,24.29585,27.467945,3.9780931,-6.9759836,-9.056897
2.018,20.460064,23.597157,27.273628,3.8104992,-6.7300305,-9.029093
2.02,20.64496,22.890413,27.05954,3.646373,-6.4870033,-8.990702
2.022,20.80919,22.177464,26.827,3.4860256,-6.2480717,-8.942079
2.024,20.952433,21.460302,26.577244,3.329721,-6.014142,-8.883582
2.026,21.074738,20.740963,26.311241,3.1776884,-5.785837,-8.81555
2.028,21.176474,20.0215,26.029968,3.0301237,-5.563534,-8.738291
2.03,21.257744,19.303827,25.734146,2.8871691,-5.347369,-8.652114
2.032,21.319208,18.590021,25.42474,2.7489505,-5.1372595,-8.557367
2.034,21.36139,17.881907,25.10273,2.615574,-4.9329233,-8.45442
2.036,21.385088,17.181347,24.769588,2.4871209,-4.7339144,-8.343681
2.038,21.39086,16.490316,24.426777,2.363673,-4.539689,-8.225609
2.04,21.379734,15.81036,24.075651,2.245304,-4.349564,-8.100697
2.042,21.352835,15.143229,23.71743,2.1320803,-4.162834,-7.9694767
2.044,21.311512,14.49029,23.353367,2.024064,-3.9787908,-7.8325124
2.046,21.2571,13.852863,22.984762,1.9212787,-3.7967825,-7.6903777
2.048,21.191011,13.232163,22.612804,1.8236998,-3.6162696,-7.5436716
2.05,21.114498,12.629134,22.239017,1.731251,-3.436852,-7.3930063
2.052,21.028889,12.044498,21.865211,1.6438072,-3.2582703,-7.2389703
2.054,20.93554,11.478828,21.49308,1.5612004,-3.0804095,-7.082157
2.056,20.83569,10.93259,21.12434,1.4832256,-2.9032958,-6.923126
2.058,20.730349,10.406022,20.760666,1.4096771,-2.727028,-6.7624135
2.06,20.620333,9.899267,20.403559,1.3403054,-2.551729,-6.6005106
2.062,20.506138,9.412326,20.054413,1.2748795,-2.3775377,-6.437866
2.064,20.388016,8.945141,19.714415,1.2131791,-2.2045236,-6.2748785
2.066,20.265823,8.497577,19.384388,1.1549823,-2.0326903,-6.1119056
2.068,20.139103,8.069429,19.065155,1.1000876,-1.8619736,-5.9492564
2.07,20.00717,7.6602564,18.757605,1.0483274,-1.6922295,-5.787194
2.072,19.869265,7.269744,18.462528,0.99951375,-1.5232673,-5.6259727
2.074,19.724073,6.8975353,18.180656,0.95350116,-1.3548708,-5.4658265
2.076,19.570501,6.5431623,17.912298,0.9101262,-1.1868227,-5.3069925
2.078,19.406904,6.2061243,17.657639,0.86922526,-1.0189602,-5.1496873
2.08,19.231768,5.886055,17.416552,0.83063877,-0.85116917,-4.9941106
2.082,19.04348,5.5825377,17.188509,0.79423296,-0.6834139,-4.840418
2.084,18.84079,5.294967,16.973324,0.7598893,-0.51572347,-4.6887517
2.086,18.622381,5.022862,16.770706,0.7275226,-0.34817258,-4.539221
2.088,18.387054,4.7657957,16.58044,0.6970632,-0.18089065,-4.3919168
2.09,18.133821,4.5232396,16.402166,0.6684827,-0.014039725,-4.246924
2.092,17.861897,4.2946625,16.23521,0.64177597,0.15222456,-4.1043077
2.094,17.57093,4.0796676,16.078856,0.6169706,0.31772324,-3.9641132
2.096,17.260857,3.877716,15.932356,0.5941078,0.48228902,-3.8263402
2.098,16.93222,3.6882787,15.794927,0.57324517,0.6457641,-3.6909804
2.1,16.585724,3.5109453,15.665621,0.55444515,0.8079979,-3.55801
2.102,16.222614,3.345337,15.543868,0.5377822,0.96885884,-3.4273555
2.104,15.844385,3.191008,15.42878,0.523299,1.128191,-3.29895
2.106,15.4530525,3.047234,15.319534,0.5110325,1.2858099,-3.1727314
2.108,15.050777,2.9135718,15.215396,0.5009764,1.4414794,-3.0486631
2.11,14.639807,2.7892284,15.115716,0.49310696,1.5949194,-2.9267578
2.112,14.22271,2.6736717,15.01997,0.48734426,1.7457438,-2.8071022
2.114,13.802261,2.5661912,14.927695,0.48359817,1.8934705,-2.6898592
2.116,13.380874,2.4662952,14.838345,0.48170593,2.0375693,-2.5752707
2.118,12.961393,2.373385,14.751164,0.4814656,2.1774135,-2.46363
2.12,12.546229,2.2867742,14.6654825,0.48262307,2.3123426,-2.3552625
2.122,12.137466,2.205912,14.58075,0.4848721,2.441718,-2.2505114
2.124,11.736826,2.130208,14.496675,0.48784012,2.5649068,-2.1497145
2.126,11.345704,2.059289,14.413275,0.49113053,2.681324,-2.0531757
2.128,10.96527,1.9926603,14.33059,0.4942748,2.7904603,-1.9611546
2.13,10.595974,1.9299681,14.248668,0.4967999,2.8918843,-1.8738437
2.132,10.237849,1.870986,14.167725,0.49823564,2.9852698,-1.7914096
2.134,9.890483,1.8154957,14.087917,0.49812132,3.0704095,-1.7139573
2.136,9.552931,1.763459,14.009429,0.49601817,3.14722,-1.6415677
2.138,9.223797,1.7149706,13.932674,0.4915436,3.215743,-1.5742655
2.14,8.90155,1.6700051,13.8582115,0.48439288,3.2761369,-1.5120695
2.142,8.584328,1.6287553,13.786448,0.47435486,3.3287044,-1.4549706
2.144,8.269974,1.5917063,13.717726,0.46130562,3.373861,-1.4029391
2.146,7.9562745,1.5589983,13.652268,0.4452365,3.4121017,-1.3559554
2.148,7.64102,1.5309875,13.590268,0.42622006,3.4440033,-1.3140049
2.15,7.321746,1.5081041,13.532113,0.4044062,3.4701922,-1.2770436
2.152,6.996388,1.4904814,13.478296,0.37999827,3.4912944,-1.2450249
2.154,6.662713,1.4785085,13.429084,0.3532486,3.5079377,-1.2178926
2.156,6.3188753,1.4724844,13.384855,0.32443184,3.5206988,-1.1955698
2.158,5.963396,1.4727094,13.345693,0.29385108,3.5301025,-1.1779579
2.16,5.595092,1.4794364,13.311293,0.26180458,3.536598,-1.1649423
2.162,5.2132154,1.4929628,13.2810135,0.22855604,3.5405302,-1.1564136
2.164,4.817103,1.5133574,13.254642,0.19433528,3.542146,-1.1522769
2.166,4.4068136,1.5404568,13.231042,0.15931618,3.5416048,-1.1524673
2.168,3.9819748,1.5742896,13.209843,0.12360716,3.5389502,-1.1569316
2.17,3.543233,1.6149323,13.191174,0.08728427,3.5341308,-1.1656708
2.172,3.091854,1.6622698,13.174369,0.05035782,3.5270572,-1.1787295
2.174,2.6290817,1.7161887,13.158819,0.012803435,3.517643,-1.1961505
2.176,2.1562421,1.7763343,13.144083,-0.02541241,3.505812,-1.2180057
2.178,1.6752491,1.8424295,13.12933,-0.06431916,3.4915879,-1.244371
2.18,1.1879044,1.9143894,13.113866,-0.103971064,3.475062,-1.2753457
2.182,0.6961231,1.9919868,13.097003,-0.14439565,3.456407,-1.3110383
2.184,0.2020584,2.0749865,13.077906,-0.1856192,3.4358168,-1.3515725
2.186,-0.29224327,2.1630726,13.05617,-0.22768602,3.4134555,-1.3970861
2.188,-0.7844101,2.256094,13.031343,-0.2706556,3.3893979,-1.4477694
2.19,-1.2722392,2.3537822,13.003176,-0.31459835,3.3636374,-1.5038358
2.192,-1.7536212,2.4559422,12.9717655,-0.35961246,3.3360524,-1.5655174
2.194,-2.2265081,2.5624957,12.936835,-0.40581968,3.3064797,-1.6330374
2.196,-2.6888888,2.6734185,12.898098,-0.45333037,3.2747245,-1.7066066
2.198,-3.1388948,2.7886004,12.855284,-0.50224864,3.24046,-1.7863911
2.2,-3.5745823,2.9079182,12.8083105,-0.5526493,3.2035146,-1.8724985
2.202,-3.9943297,3.031239,12.757262,-0.6045732,3.1637797,-1.964989
2.204,-4.396774,3.1586437,12.702304,-0.65805507,3.1211638,-2.0639148
2.206,-4.780505,3.290088,12.643309,-0.71310705,3.075626,-2.1692762
2.208,-5.1444635,3.42548,12.580342,-0.7697356,3.0270696,-2.28103
2.21,-5.4877286,3.564579,12.513408,-0.8279621,2.9753475,-2.399144
2.212,-5.809342,3.707223,12.442296,-0.88778037,2.9202414,-2.5235882
2.214,-6.1086063,3.8531764,12.367179,-0.9491823,2.8614485,-2.6543365
2.216,-6.3849044,4.0020714,12.287835,-1.0121297,2.7985811,-2.7913404
2.218,-6.6379647,4.1534843,12.204048,-1.0765809,2.7312331,-2.9345531
2.22,-6.8673997,4.3070135,12.115434,-1.1424649,2.6589804,-3.083892
2.222,-7.0731306,4.46189,12.021731,-1.2097093,2.5814772,-3.2392535
2.224,-7.2552505,4.617493,11.922567,-1.2782503,2.498434,-3.4004793
2.226,-7.4139376,4.772942,11.817699,-1.3480345,2.4096437,-3.56735
2.228,-7.5496216,4.927337,11.706853,-1.4190354,2.3149753,-3.7396016
2.23,-7.6624203,5.079814,11.589821,-1.4912564,2.2143574,-3.916882
2.232,-7.752861,5.2294436,11.466435,-1.5647163,2.1077485,-4.098782
2.234,-7.8211055,5.3749743,11.33643,-1.63945,1.9951347,-4.2848024
2.236,-7.867581,5.5153203,11.199551,-1.7155008,1.8765497,-4.4744425
2.238,-7.8928013,5.649338,11.055648,-1.7929045,1.7521236,-4.66713
2.24,-7.8970976,5.7759995,10.904768,-1.8716335,1.6220818,-4.862232
2.242,-7.8806667,5.894163,10.7468605,-1.9516015,1.4867954,-5.0591297
2.244,-7.8436313,6.002845,10.582077,-2.032661,1.3468049,-5.257206
2.246,-7.786145,6.1012573,10.410749,-2.1146023,1.2028053,-5.4558487
2.248,-7.7078886,6.1883664,10.233021,-2.197182,1.0556123,-5.6544714
2.25,-7.6085935,6.263574,10.049281,-2.280124,0.9061671,-5.8525305
2.252,-7.488057,6.326318,9.860194,-2.3631535,0.7555814,-6.049523
2.254,-7.345713,6.3759255,9.666382,-2.445988,0.6048738,-6.2449574
2.256,-7.180811,6.4122214,9.468607,-2.528349,0.45507973,-6.4383717
2.258,-6.992485,6.435152,9.267291,-2.6099594,0.3072735,-6.6293216
2.26,-6.779825,6.444824,9.062925,-2.6905835,0.16246349,-6.817405
2.262,-6.5417595,6.4415646,8.856106,-2.7700148,0.021644235,-7.0022764
2.264,-6.2772856,6.4257474,8.647719,-2.8480918,-0.11423421,-7.183593
2.266,-5.9854026,6.3979273,8.438618,-2.9246843,-0.24426413,-7.361042
2.268,-5.665365,6.358634,8.229982,-2.999692,-0.36757302,-7.5343575
2.27,-5.316639,6.3086615,8.022984,-3.0729966,-0.48330677,-7.7033205
2.272,-4.938833,6.248921,7.81896,-3.1444628,-0.59062433,-7.867739
2.274,-4.531527,6.180403,7.618819,-3.2139037,-0.6886518,-8.027455
2.276,-4.094957,6.1044083,7.424322,-3.2810507,-0.7765384,-8.1823225
2.278,-3.6289384,6.021999,7.236526,-3.3455722,-0.85342145,-8.332236
2.28,-3.1343942,5.934478,7.0561247,-3.4070683,-0.91846025,-8.477114
2.282,-2.612875,5.8432407,6.8845034,-3.4650795,-0.9708631,-8.616903
2.284,-2.0659857,5.7497463,6.7229633,-3.5190794,-1.0098811,-8.751601
2.286,-1.4950663,5.655551,6.572595,-3.5685005,-1.034894,-8.881231
2.288,-0.90234995,5.562307,6.434591,-3.6127634,-1.0455048,-9.005862
2.29,-0.2898805,5.471515,6.309851,-3.6512957,-1.0415901,-9.12561
2.292,0.34010077,5.3848805,6.199068,-3.6835847,-1.023291,-9.240653
2.294,0.9854269,5.3040543,6.10283,-3.7091742,-0.99104273,-9.351219
2.296,1.6438196,5.2306685,6.021514,-3.727681,-0.9456117,-9.457537
2.298,2.3130488,5.1665173,5.9554663,-3.73877,-0.8880125,-9.559863
2.3,2.9908588,5.113168,5.9049478,-3.7421956,-0.8195342,-9.658467
2.302,3.6751685,5.0722895,5.86994,-3.737766,-0.7416657,-9.753633
2.304,4.364181,5.0454493,5.850397,-3.7253637,-0.65608394,-9.84562
2.306,5.0564537,5.034173,5.8461885,-3.704897,-0.56461525,-9.934685
2.308,5.750573,5.0400877,5.8570375,-3.6763637,-0.46924806,-10.021046
2.31,6.445576,5.064445,5.8823786,-3.6398225,-0.37209904,-10.104923
2.312,7.140778,5.108677,5.9216566,-3.595397,-0.27539623,-10.18651
2.314,7.8353944,5.173863,5.9746,-3.5433345,-0.18144083,-10.265995
2.316,8.529537,5.2609854,6.040902,-3.4839318,-0.09257865,-10.343527
2.318,9.223477,5.3709893,6.119932,-3.4175723,-0.01113081,-10.419239
2.32,9.917714,5.5042653,6.211234,-3.344717,0.060692072,-10.493228
2.322,10.612573,5.6612315,6.3140883,-3.2658772,0.12086451,-10.5655575
2.324,11.308825,5.842359,6.4284143,-3.1816177,0.16761875,-10.636274
2.326,12.007992,6.0473785,6.553404,-3.0925336,0.19943976,-10.70543
2.328,12.712157,6.275288,6.6879807,-2.9992232,0.21513474,-10.773039
2.33,13.420813,6.5260944,6.8326006,-2.9022865,0.21380675,-10.839161
2.332,14.1356735,6.7995467,6.989657,-2.8022735,0.19482636,-10.90383
2.334,14.86006,7.0940723,7.1592135,-2.699713,0.15776908,-10.9671
2.336,15.59874,7.406969,7.340272,-2.595095,0.102354646,-11.02907
2.338,16.349707,7.7402754,7.533703,-2.4889143,0.028374791,-11.089859
2.34,17.117575,8.089501,7.741681,-2.381646,-0.06429744,-11.149623
2.342,17.907028,8.452342,7.962145,-2.273738,-0.17578065,-11.2085
2.344,18.717167,8.828892,8.197049,-2.1656377,-0.3061446,-11.266672
2.346,19.551165,9.21599,8.448662,-2.057784,-0.45546246,-11.324287
2.348,20.41276,9.611013,8.717687,-1.950623,-0.62376535,-11.381456
2.35,21.304558,10.011315,9.004912,-1.844573,-0.8110405,-11.438223
2.352,22.22593,10.416775,9.310837,-1.7400696,-1.017297,-11.494578
2.354,23.179195,10.82514,9.638147,-1.6375318,-1.2424811,-11.550466
2.356,24.166922,11.233784,9.987511,-1.537374,-1.486417,-11.605662
2.358,25.188828,11.641464,10.360725,-1.4400396,-1.748921,-11.659832
2.36,26.244576,12.046801,10.759348,-1.3459659,-2.0298672,-11.712586
2.362,27.334969,12.447552,11.184437,-1.2555537,-2.329084,-11.763477
2.364,28.458311,12.84346,11.637447,-1.1691723,-2.6462193,-11.811843
2.366,29.612846,13.233879,12.12014,-1.0871382,-2.9808679,-11.856827
2.368,30.798367,13.617741,12.633364,-1.0098305,-3.3329248,-11.897756
2.37,32.01262,13.995276,13.177761,-0.9375148,-3.7019358,-11.933809
2.372,33.253597,14.365881,13.753418,-0.8704734,-4.0872793,-11.964048
2.374,34.518772,14.729294,14.360406,-0.8089547,-4.48845,-11.987702
2.376,35.805347,15.085693,14.998839,-0.7529745,-4.9044967,-12.003996
2.378,37.110428,15.435471,15.668419,-0.702497,-5.33421,-12.012125
2.38,38.431202,15.778739,16.368725,-0.65734816,-5.7759547,-12.011298
2.382,39.764664,16.115833,17.099049,-0.61732054,-6.227818,-12.000877
2.384,41.108063,16.447004,17.858437,-0.5821214,-6.6875286,-11.98027
2.386,42.45896,16.77232,18.645256,-0.55138206,-7.15237,-11.948919
2.388,43.814552,17.092216,19.457558,-0.5246973,-7.6194463,-11.90629
2.39,45.172264,17.406752,20.293446,-0.50156593,-8.085642,-11.851847
2.392,46.530304,17.715645,21.151028,-0.48143005,-8.547718,-11.785061
2.394,47.88669,18.018625,22.028084,-0.46373606,-9.002523,-11.705512
2.396,49.23952,18.31513,22.922354,-0.44785404,-9.447054,-11.612841
2.398,50.587147,18.604511,23.83128,-0.43304014,-9.878636,-11.506636
2.4,51.927876,18.886036,24.752304,-0.4185505,-10.294921,-11.386656
2.402,53.259686,19.159231,25.683365,-0.40360928,-10.693881,-11.252827
2.404,54.581203,19.422892,26.62195,-0.38746548,-11.073839,-11.105106
2.406,55.890617,19.676474,27.566105,-0.3692894,-11.433421,-10.943548
2.408,57.186123,19.919315,28.513649,-0.34820938,-11.771597,-10.768339
2.41,58.46633,20.151108,29.46234,-0.32328773,-12.087704,-10.579742
2.412,59.729942,20.371464,30.409855,-0.29348445,-12.381305,-10.37799
2.414,60.9752,20.580168,31.354343,-0.2577002,-12.652177,-10.163244
2.416,62.20033,20.777237,32.293682,-0.21484995,-12.900413,-9.93561
2.418,63.403767,20.963001,33.226143,-0.16383529,-13.126498,-9.695261
2.42,64.58349,21.138578,34.150005,-0.10356927,-13.331074,-9.442375
2.422,65.737755,21.305195,35.063232,-0.032957315,-13.514728,-9.176872
2.424,66.86539,21.46506,35.964157,0.048930645,-13.678578,-8.89887
2.426,67.96448,21.621222,36.8519,0.14301634,-13.823811,-8.6085615
2.428,69.033646,21.777325,37.72565,0.250131,-13.95146,-8.306001
2.43,70.072136,21.938217,38.58452,0.37093687,-14.062808,-7.991376
2.432,71.07967,22.108967,39.427525,0.5061921,-14.159018,-7.6650143
2.434,72.055664,22.295988,40.253326,0.6566535,-14.241234,-7.3272495
2.436,72.99937,22.506947,41.06217,0.8231533,-14.310435,-6.978342
2.438,73.91078,22.750652,41.854626,1.0065358,-14.367531,-6.6185637
2.44,74.79237,23.035551,42.630707,1.2076187,-14.413523,-6.248225
2.442,75.64428,23.37191,43.389908,1.4271626,-14.4493,-5.867608
2.444,76.467026,23.771193,44.13493,1.6658001,-14.475738,-5.4769316
2.446,77.260475,24.246307,44.870476,1.9240152,-14.493793,-5.076274
2.448,78.03149,24.806831,45.59909,2.2021172,-14.50448,-4.665517
2.45,78.77995,25.469357,46.321842,2.5001566,-14.508824,-4.2444515
2.452,79.508064,26.246078,47.04647,2.817953,-14.507866,-3.8128455
2.454,80.2216,27.149189,47.777397,3.1551971,-14.502708,-3.3702059
2.456,80.92296,28.194523,48.51633,3.511444,-14.494468,-2.915962
2.458,81.61689,29.394878,49.26655,3.8861392,-14.48413,-2.4496047
2.46,82.30588,30.7664,50.03072,4.2786007,-14.472635,-1.9705861
2.462,82.989265,32.33092,50.81066,4.688084,-14.460732,-1.478317
2.464,83.65712,34.121838,51.59677,5.1137676,-14.449007,-0.972255
2.466,84.33882,36.104347,52.407986,5.5547485,-14.437847,-0.4518752
2.468,85.0321,38.310677,53.27669,6.010093,-14.427389,0.08342433
2.47,85.73085,40.770454,54.20528,6.4788365,-14.417466,0.63439965
2.472,86.44813,43.494812,55.17658,6.9600396,-14.407396,1.2020283
2.474,87.1893,46.482735,56.16662,7.45273,-14.396052,1.787535
2.476,87.95928,49.74595,57.171627,7.955908,-14.381803,2.3924246
2.478,88.759514,53.301334,58.21733,8.468659,-14.362325,3.0185394
2.48,89.59289,57.168716,59.31229,8.990194,-14.334578,3.6680186
2.482,90.47717,61.33165,60.442932,9.519678,-14.295027,4.3432617
2.484,91.42247,65.79443,61.606552,10.056424,-14.239316,5.047042
2.486,92.42583,70.575195,62.779896,10.600046,-14.162181,5.78261
2.488,93.48758,75.67085,63.969475,11.150243,-14.058148,6.553548
2.49,94.574875,81.08509,65.183235,11.706829,-13.921549,7.3636594
2.492,95.62269,86.80284,66.47026,12.269862,-13.746251,8.216416
2.494,96.654724,92.77703,67.88452,12.839127,-13.526356,9.114127
2.496,97.72417,98.9706,69.44401,13.412212,-13.257059,10.060768
2.498,98.907,105.33995,71.1604,13.987938,-12.931519,11.061305
2.5,100.29521,111.88802,72.95558,14.566528,-12.539745,12.119851
2.502,101.868614,118.6314,74.77722,15.148224,-12.071733,13.24098
2.504,103.589264,125.561584,76.60353,15.731666,-11.517433,14.428324
2.506,105.47446,132.62695,78.39361,16.313229,-10.867305,15.683532
2.508,107.49594,139.71776,80.23668,16.889399,-10.10733,17.007927
2.51,109.65723,146.75104,82.17282,17.457867,-9.216976,18.404448
2.512,112.03714,153.62268,84.227455,18.015648,-8.172782,19.877947
2.514,114.66914,160.31403,86.39882,18.556978,-6.951377,21.431683
2.516,117.57792,166.82188,88.6931,19.076359,-5.528941,23.063288
2.518,120.79549,173.09799,91.091576,19.566998,-3.8790395,24.763441
2.52,124.35927,179.0432,93.55489,20.0171,-1.9761065,26.51937
2.522,128.29004,184.58601,96.052505,20.409632,0.20058751,28.316496
2.524,132.60188,189.61003,98.53804,20.72593,2.6684124,30.142069
2.526,137.2945,194.04509,100.971725,20.944124,5.423668,31.96936
2.528,142.36075,197.835,103.325905,21.041704,8.454646,33.760506
2.53,147.78595,200.95636,105.54199,20.992702,11.739396,35.474735
2.532,153.57945,203.37662,107.52652,20.777657,15.241897,37.06879
2.534,159.75435,205.04747,109.22847,20.387259,18.914398,38.49832
2.536,166.28613,205.97334,110.592354,19.82209,22.70036,39.72039
2.538,173.1246,206.17981,111.52667,19.073963,26.504923,40.66263
2.54,180.22632,205.69139,111.93996,18.155886,30.242619,41.29116
2.542,187.52943,204.54585,111.75803,17.098919,33.8236,41.599556
2.544,194.96574,202.78543,110.91168,15.94716,37.15629,41.589375
2.546,202.45717,200.45734,109.32828,14.755465,40.14988,41.255455
2.548,209.90674,197.62057,106.94699,13.579401,42.72144,40.584724
2.55,217.19661,194.34421,103.72302,12.467544,44.798332,39.558743
2.552,224.20288,190.69257,99.626305,11.456137,46.322357,38.158802
2.554,230.79663,186.72858,94.64642,10.571644,47.258774,36.380035
2.556,236.85185,182.51067,88.79221,9.831636,47.604965,34.232616
2.558,242.2462,178.09497,82.097084,9.2425,47.392757,31.737133
2.56,246.85997,173.53734,74.619064,8.801793,46.689564,28.919813
2.562,250.58763,168.88654,66.436584,8.50201,45.586784,25.814228
2.564,253.33829,164.18001,57.640373,8.327541,44.187874,22.460669
2.566,255.04303,159.44772,48.337105,8.257399,42.60579,18.899776
2.568,255.65445,154.71242,38.657143,8.268389,40.952362,15.174088
2.57,255.1506,149.98456,28.75756,8.324321,39.313366,11.334235
2.572,253.53708,145.26872,18.808777,8.374071,37.733025,7.441493
2.574,250.84264,140.56732,8.992172,8.356492,36.216053,3.5678363
2.576,247.08759,135.93971,-0.5376053,8.202176,34.729443,-0.19994807
2.578,242.35748,131.3689,-9.635017,7.8363953,33.2036,-3.7610397
2.58,236.756,126.85444,-18.126648,7.1916366,31.555521,-6.9947023
2.582,230.38448,122.42444,-25.837936,6.2162905,29.68637,-9.780275
2.584,223.37012,118.11719,-32.616367,4.8851185,27.502346,-12.017261
2.586,215.85074,113.95711,-38.357536,3.1959524,24.933405,-13.634872
2.588,207.97205,109.964226,-43.002205,1.1734829,21.9423,-14.600661
2.59,199.87874,106.15646,-46.491737,-1.1290131,18.531254,-14.925906
2.592,191.69513,102.58211,-48.77614,-3.6253805,14.763251,-14.64468
2.594,183.54684,99.257164,-49.851017,-6.236261,10.714306,-13.86601
2.596,175.55624,96.1822,-49.726532,-8.884984,6.4948673,-12.724378
2.598,167.82657,93.37366,-48.470436,-11.4966345,2.2384467,-11.34537
2.6,160.46793,90.840004,-46.169006,-14.002187,-1.9076256,-9.832535
2.602,153.5794,88.60799,-42.956856,-16.336481,-5.795723,-8.272513
2.604,147.15353,86.71764,-38.97008,-18.440506,-9.287699,-6.74061
2.606,141.16177,85.17768,-34.31487,-20.267067,-12.267397,-5.2997007
2.608,135.56796,83.98828,-29.105555,-21.784073,-14.650433,-4.003867
2.61,130.3383,83.10048,-23.400215,-22.972687,-16.388746,-2.891584
2.612,125.54052,82.46431,-17.319752,-23.824474,-17.472155,-1.9786959
2.614,121.21886,82.06311,-11.026361,-24.343767,-17.92677,-1.2607818
2.616,117.340096,81.91482,-4.6628838,-24.549765,-17.806623,-0.7235398
2.618,113.90216,82.06594,1.5300674,-24.470013,-17.185556,-0.3454194
2.62,110.85791,82.507805,7.4099655,-24.140335,-16.155506,-0.09476423
2.622,108.10116,83.23458,12.87574,-23.604752,-14.818098,0.065588474
2.624,105.59185,84.15949,17.868706,-22.90627,-13.268881,0.17114687
2.626,103.302704,85.208664,22.332663,-22.084215,-11.592447,0.25353575
2.628,101.20188,86.37012,26.244303,-21.175964,-9.863427,0.34007454
2.63,99.258125,87.67336,29.599653,-20.21568,-8.141997,0.45246315
2.632,97.45862,89.10794,32.38563,-19.232656,-6.4698915,0.60537815
2.634,95.793945,90.6957,34.605362,-18.251919,-4.8721533,0.8064599
2.636,94.26158,92.40324,36.256935,-17.29463,-3.359532,1.0557778
2.638,92.85458,94.19141,37.33375,-16.377565,-1.9314423,1.3462644
2.64,91.56245,96.00545,37.86477,-15.512992,-0.58027196,1.6659625
2.642,90.34628,97.817726,37.904045,-14.709345,0.7049017,2.0006201
2.644,89.16843,99.62178,37.459824,-13.971863,1.9350185,2.3362885
2.646,88.02533,101.3703,36.55374,-13.302004,3.1186206,2.660967
2.648,86.92218,103.01908,35.24341,-12.697324,4.260166,2.9656358
2.65,85.84238,104.54556,33.579914,-12.15234,5.360638,3.2452202
2.652,84.77607,105.929146,31.597506,-11.661304,6.4181595,3.4973543
2.654,83.70906,107.15716,29.332766,-11.219641,7.426135,3.720972
2.656,82.62747,108.220535,26.831888,-10.824157,8.374545,3.9160438
2.658,81.52684,109.10645,24.137007,-10.473374,9.252125,4.082817
2.66,80.411224,109.8005,21.286589,-10.167399,10.047551,4.2204866
2.662,79.27965,110.29779,18.319626,-9.907566,10.7503805,4.3265924
2.664,78.12882,110.59704,15.274272,-9.695768,11.351786,4.397609
2.666,76.95195,110.699455,12.187954,-9.534089,11.844744,4.430186
2.668,75.74245,110.60559,9.096121,-9.424536,12.22393,4.422332
2.67,74.49851,110.31457,6.032594,-9.368815,12.485808,4.3739944
2.672,73.21519,109.83168,3.0299335,-9.367708,12.628927,4.286935
2.674,71.890686,109.16751,0.12700355,-9.420773,12.654142,4.1646004
2.676,70.52076,108.33414,-2.6377864,-9.526325,12.5646305,4.011899
2.678,69.102646,107.347404,-5.239497,-9.68166,12.36581,3.8349388
2.68,67.63885,106.225494,-7.666917,-9.883011,12.065209,3.6405394
2.682,66.13408,104.98242,-9.909542,-10.125452,11.672104,3.4353542
2.684,64.59741,103.62975,-11.954227,-10.403035,11.197182,3.2257109
2.686,63.03643,102.18055,-13.785552,-10.709368,10.651622,3.0181904
2.688,61.45649,100.64884,-15.388819,-11.037786,10.046893,2.8194275
2.69,59.864388,99.0469,-16.754166,-11.381447,9.394438,2.6354394
2.692,58.267387,97.38397,-17.877283,-11.733629,8.705384,2.4713209
2.694,56.673462,95.66885,-18.75733,-12.087945,7.990483,2.3309221
2.696,55.08842,93.91408,-19.395279,-12.438629,7.259851,2.2167163
2.698,53.518013,92.134964,-19.794964,-12.780568,6.522874,2.1299644
2.7,51.968983,90.348755,-19.963076,-13.109242,5.788143,2.070801
2.702,50.45015,88.57199,-19.908781,-13.420579,5.0634966,2.038306
2.704,48.970596,86.82067,-19.642826,-13.710836,4.356049,2.030661
2.706,47.53854,85.10931,-19.177845,-13.976568,3.672234,2.0454202
2.708,46.1572,83.45074,-18.529448,-14.21458,3.0178645,2.0796628
2.71,44.827534,81.850266,-17.716343,-14.421948,2.3981843,2.1301577
2.712,43.551594,80.30481,-16.757072,-14.596006,1.817845,2.193494
2.714,42.326332,78.8135,-15.670271,-14.734385,1.2809244,2.2662683
2.716,41.149284,77.37768,-14.474166,-14.835058,0.7909309,2.345223
2.718,40.01904,75.99939,-13.187246,-14.896486,0.35074544,2.427376
2.72,38.93411,74.68269,-11.827539,-14.91765,-0.03741622,2.5100908
2.722,37.89165,73.43238,-10.41311,-14.89812,-0.37199247,2.5911572
2.724,36.888763,72.25177,-8.961519,-14.838026,-0.6520494,2.6687996
2.726,35.921936,71.14247,-7.490103,-14.738098,-0.877319,2.7417226
2.728,34.987682,70.10422,-6.0153637,-14.59964,-1.048299,2.8090913
2.73,34.0824,69.1357,-4.5529537,-14.424442,-1.166179,2.8706493
2.732,33.20337,68.23539,-3.1174412,-14.214627,-1.2327199,2.9267573
2.734,32.348263,67.4014,-1.722321,-13.972557,-1.2500732,2.978307
2.736,31.515316,66.63226,-0.37983418,-13.70068,-1.2206407,3.02669
2.738,30.703674,65.92636,0.8994603,-13.401423,-1.1468399,3.073656
2.74,29.912815,65.28185,2.1057591,-13.07713,-1.030976,3.1211836
2.742,29.143185,64.697,3.2301908,-12.730029,-0.87505317,3.1713328
2.744,28.3955,64.16987,4.2652845,-12.362188,-0.6806762,3.2260783
2.746,27.67072,63.698265,5.2046576,-11.97558,-0.4490366,3.287179
2.748,26.97079,63.27929,6.0429373,-11.572102,-0.18099284,3.3560534
2.75,26.29785,62.90954,6.7754126,-11.153643,0.1228261,3.4336517
2.752,25.65454,62.585224,7.3974504,-10.722128,0.46187353,3.5203922
2.754,25.043371,62.302383,7.904679,-10.2795725,0.8356161,3.616173
2.756,24.466862,62.056484,8.293329,-9.8280735,1.2433406,3.7204137
2.758,23.927872,61.8422,8.560168,-9.369903,1.6840678,3.8320627
2.76,23.42912,61.65392,8.702625,-8.907534,2.1564376,3.9496212
2.762,22.973234,61.485558,8.719008,-8.443618,2.658668,4.071232
2.764,22.561779,61.33075,8.60827,-7.981024,3.188466,4.1947126
2.766,22.19671,61.182934,8.370326,-7.5228195,3.7430232,4.317617
2.768,21.879221,61.03512,8.00576,-7.072279,4.3190417,4.4373507
2.77,21.609665,60.88029,7.5150595,-6.6328034,4.9127254,4.551276
2.772,21.387703,60.711685,6.899882,-6.207877,5.519781,4.656807
2.774,21.212374,60.52255,6.162525,-5.8009233,6.135476,4.751586
2.776,21.081837,60.30661,5.306634,-5.415243,6.7546515,4.8335853
2.778,20.993412,60.05814,4.336645,-5.0538483,7.371707,4.9012284
2.78,20.944077,59.771824,3.2585614,-4.719359,7.9807177,4.9534297
2.782,20.930176,59.44293,2.079302,-4.413896,8.575587,4.9895983
2.784,20.947224,59.067814,0.8069887,-4.139065,9.150149,5.00957
2.786,20.990147,58.644035,-0.5491667,-3.8959115,9.698307,5.0135007
2.788,21.053696,58.169586,-1.979084,-3.6849954,10.214187,5.0017285
2.79,21.132061,57.643288,-3.4722137,-3.5063725,10.6923065,4.9746733
2.792,21.219418,57.06454,-5.0172296,-3.359726,11.127737,4.9327025
2.794,21.309229,56.433468,-6.602595,-3.2444277,11.516163,4.876037
2.796,21.395737,55.75071,-8.216518,-3.159613,11.854001,4.804727
2.798,21.472416,55.017193,-9.847221,-3.1042972,12.13837,4.7187114
2.8,21.533772,54.234287,-11.4826,-3.0773458,12.36713,4.6178765
2.802,21.573957,53.403572,-13.111034,-3.077487,12.538867,4.5021343
2.804,21.587751,52.52722,-14.721002,-3.10336,12.652878,4.371577
2.806,21.570654,51.607376,-16.301188,-3.1534653,12.7091055,4.2265253
2.808,21.518225,50.646564,-17.840946,-3.226163,12.708146,4.067603
2.81,21.426807,49.647797,-19.330368,-3.3196692,12.651218,3.8957715
2.812,21.29379,48.61402,-20.760563,-3.4320178,12.540161,3.712341
2.814,21.116924,47.548595,-22.123526,-3.5610788,12.377363,3.5188992
2.816,20.89451,46.45523,-23.4123,-3.7046094,12.165733,3.3172894
2.818,20.625288,45.337906,-24.621233,-3.8602543,11.908642,3.109607
2.82,20.309063,44.20079,-25.7454,-4.025593,11.609859,2.8981514
2.822,19.946339,43.04796,-26.78141,-4.1981516,11.273405,2.685308
2.824,19.538166,41.883713,-27.726807,-4.3754225,10.903481,2.473578
2.826,19.086264,40.712288,-28.580006,-4.554874,10.50438,2.2654653
2.828,18.593168,39.538002,-29.340588,-4.7339516,10.080448,2.0633903
2.83,18.061434,38.36522,-30.00898,-4.9101253,9.6359215,1.8696432
2.832,17.494532,37.19841,-30.58669,-5.0808673,9.175017,1.6862693
2.834,16.895964,36.041977,-31.076035,-5.243717,8.701786,1.5149441
2.836,16.269718,34.899902,-31.480179,-5.3963547,8.220106,1.356915
2.838,15.619806,33.77621,-31.803032,-5.536641,7.7336817,1.2129011
2.84,14.9506035,32.67425,-32.048714,-5.6627283,7.24597,1.0830939
2.842,14.266067,31.596748,-32.221794,-5.7731333,6.7601714,0.96713996
2.844,13.570176,30.54616,-32.327396,-5.8667927,6.279148,0.8641722
2.846,12.866663,29.52401,-32.370758,-5.9431105,5.8054047,0.7729361
2.848,12.15915,28.531675,-32.35765,-6.001958,5.34103,0.6919186
2.85,11.450875,27.570051,-32.29324,-6.043639,4.8876677,0.6194625
2.852,10.744836,26.639807,-32.182747,-6.0688024,4.4465175,0.5538893
2.854,10.043979,25.741154,-32.031105,-6.0784144,4.018324,0.493654
2.856,9.350507,24.8741,-31.842764,-6.0736504,3.6034484,0.43737984
2.858,8.666465,24.038357,-31.621906,-6.0557947,3.2019029,0.38393283
2.86,7.9936514,23.233467,-31.372238,-6.0261836,2.813406,0.3324659
2.862,7.333598,22.458817,-31.09703,-5.986104,2.437478,0.28242946
2.864,6.6875095,21.71348,-30.799223,-5.9367733,2.0734878,0.23354495
2.866,6.0564375,20.996363,-30.481169,-5.8793077,1.7207305,0.18575513
2.868,5.441352,20.306602,-30.144955,-5.814664,1.3785019,0.13920641
2.87,4.8428516,19.64299,-29.792507,-5.743646,1.0461582,0.09415209
2.872,4.261447,19.004435,-29.425335,-5.666904,0.7231624,0.05090499
2.874,3.6975584,18.38993,-29.044811,-5.584933,0.409109,0.009770632
2.876,3.151454,17.798206,-28.652084,-5.4981174,0.10377312,-0.028992772
2.878,2.6234694,17.22818,-28.24797,-5.406745,-0.19289112,-0.065250516
2.88,2.1138058,16.678812,-27.833168,-5.3110547,-0.48075855,-0.09897983
2.882,1.6226177,16.14917,-27.40846,-5.2112317,-0.7595401,-0.13031417
2.884,1.1501436,15.638483,-26.974598,-5.107455,-1.0287638,-0.159522
2.886,0.696476,15.1459465,-26.532534,-4.9998856,-1.2878752,-0.18698613
2.888,0.26181316,14.67089,-26.083382,-4.8886952,-1.5362611,-0.21316573
2.89,-0.15373135,14.212577,-25.628384,-4.77404,-1.7732736,-0.23860192
2.892,-0.55011654,13.770214,-25.168507,-4.6560283,-1.9982902,-0.26383972
2.894,-0.9271765,13.343039,-24.70506,-4.5347466,-2.2107406,-0.2894191
2.896,-1.2849369,12.930253,-24.239294,-4.4102483,-2.4101448,-0.3158118
2.898,-1.6235528,12.531146,-23.77253,-4.282553,-2.5961406,-0.34342206
2.9,-1.942843,12.145316,-23.305803,-4.151639,-2.7684913,-0.3725348
2.902,-2.2431622,11.772388,-22.840187,-4.0174637,-2.9270964,-0.40334678
2.904,-2.5242767,11.411784,-22.37664,-3.8799622,-3.07198,-0.43594772
2.906,-2.7860441,11.062858,-21.915813,-3.7390618,-3.203296,-0.4703363
2.908,-3.0285864,10.725855,-21.458357,-3.594687,-3.32129,-0.506429
2.91,-3.2522583,10.400791,-21.005404,-3.446774,-3.4263015,-0.5440701
2.912,-3.4568508,10.087557,-20.557665,-3.295278,-3.5187314,-0.58308566
2.914,-3.6425223,9.78611,-20.115957,-3.1401796,-3.599024,-0.6232711
2.916,-3.8095825,9.496496,-19.681114,-2.9815073,-3.667668,-0.66442204
2.918,-3.9578466,9.219024,-19.253717,-2.8193111,-3.7251506,-0.706367
2.92,-4.0872927,8.953729,-18.834274,-2.6536913,-3.771995,-0.7489716
2.922,-4.19816,8.700876,-18.423206,-2.4848127,-3.80874,-0.7921287
2.924,-4.29066,8.460449,-18.020824,-2.312916,-3.8359475,-0.83579797
2.926,-4.365143,8.232423,-17.627375,-2.1383061,-3.8542075,-0.8799894
2.928,-4.42178,8.01688,-17.242975,-1.9613602,-3.8641338,-0.9247489
2.93,-4.4607897,7.8136196,-16.867805,-1.782502,-3.866344,-0.9701651
2.932,-4.482851,7.622607,-16.501915,-1.6022141,-3.8614895,-1.0163836
2.934,-4.4883676,7.4435725,-16.145378,-1.4209646,-3.850191,-1.0635293
2.936,-4.477961,7.2761717,-15.798234,-1.2392834,-3.8330739,-1.1117005
2.938,-4.45242,7.1200113,-15.460287,-1.0576432,-3.8106916,-1.1610069
2.94,-4.4123106,6.974608,-15.131718,-0.87648475,-3.783496,-1.2116032
2.942,-4.3585596,6.8393617,-14.812408,-0.6961976,-3.751883,-1.2636573
2.944,-4.291833,6.7134094,-14.502339,-0.51709783,-3.716129,-1.3172908
2.946,-4.213133,6.596197,-14.20151,-0.3394159,-3.6764097,-1.3725882
2.948,-4.1233406,6.4870334,-13.909915,-0.16329837,-3.6327991,-1.4296131
2.95,-4.0234547,6.385193,-13.627574,0.011198044,-3.5852823,-1.4884212
2.952,-3.914375,6.289988,-13.354521,0.18412566,-3.5337543,-1.5490661
2.954,-3.797206,6.200532,-13.090472,0.3556112,-3.478058,-1.6116213
2.956,-3.6727972,6.1160407,-12.835388,0.5258556,-3.4180255,-1.6761627
2.958,-3.5421166,6.035883,-12.588977,0.695099,-3.3535254,-1.7427564
2.96,-3.4060044,5.959421,-12.351072,0.8636285,-3.2845063,-1.8114593
2.962,-3.2651217,5.886052,-12.121341,1.0317118,-3.2110543,-1.8823044
2.964,-3.12026,5.815089,-11.899301,1.199568,-3.1334312,-1.9552855
2.966,-2.9719753,5.746129,-11.6845455,1.3673358,-3.0520577,-2.0303116
2.968,-2.8208985,5.6786876,-11.476546,1.5350379,-2.9675064,-2.107215
2.97,-2.6673436,5.612238,-11.274621,1.7025794,-2.880441,-2.1857605
2.972,-2.5116541,5.5462627,-11.078126,1.8697046,-2.7915924,-2.2655945
2.974,-2.3541546,5.480385,-10.886297,2.0360496,-2.7016597,-2.3463285
2.976,-2.194831,5.414188,-10.698374,2.2011569,-2.6112533,-2.427553
2.978,-2.0338824,5.3470793,-10.513596,2.3645334,-2.520825,-2.5088742
2.98,-1.8711133,5.2787285,-10.331165,2.5256886,-2.430656,-2.589938
2.982,-1.7066102,5.208511,-10.150413,2.6841965,-2.3408585,-2.6704717
2.984,-1.5400352,5.13588,-9.970645,2.8397417,-2.2513814,-2.7502422
2.986,-1.3713036,5.060458,-9.791293,2.992152,-2.1620352,-2.82907
2.988,-1.2003152,4.9818125,-9.611966,3.1414113,-2.0725825,-2.9068687
2.99,-1.0268226,4.899479,-9.43239,3.2877078,-1.9827232,-2.9835773
2.992,-0.8507371,4.813051,-9.252409,3.4313517,-1.8921995,-3.0591154
2.994,-0.671927,4.722086,-9.072067,3.5728085,-1.8008054,-3.133355
2.996,-0.49027634,4.626279,-8.891406,3.712655,-1.7083633,-3.2061658
2.998,-0.30566764,4.525325,-8.710562,3.8515267,-1.6148082,-3.2774367
3,-0.11829138,4.4191284,-8.529716,3.9900532,-1.5201509,-3.3470466
3.002,0.07176328,4.3076587,-8.349385,4.12883,-1.4245085,-3.4148436
3.004,0.2641678,4.191076,-8.169773,4.2683983,-1.3280988,-3.4806428
3.006,0.45879793,4.069484,-7.9913673,4.4091625,-1.2312502,-3.5442185
3.008,0.6553006,3.943358,-7.814332,4.5513906,-1.1343932,-3.6053355
3.01,0.8529489,3.8130047,-7.6390386,4.6952543,-1.0380291,-3.6637568
3.012,1.0514123,3.679134,-7.465754,4.8407693,-0.9426966,-3.719267
3.014,1.2500088,3.5427325,-7.2946544,4.9878526,-0.8489579,-3.7716732
3.016,1.4476421,3.4048643,-7.1261344,5.1363373,-0.7573608,-3.8207889
3.018,1.6442175,3.2661052,-6.9601297,5.286026,-0.66837335,-3.8664656
3.02,1.8388348,3.127428,-6.7963552,5.4367056,-0.5823785,-3.9085913
3.022,2.0307431,2.9900403,-6.634686,5.588192,-0.4996308,-3.9470816
3.024,2.2192824,2.855073,-6.475091,5.7403345,-0.42024636,-3.981863
3.026,2.4035702,2.7240062,-6.3173857,5.8930736,-0.34415877,-4.0128927
3.028,2.582072,2.5984032,-6.1613073,6.0463963,-0.27118397,-4.0401244
3.03,2.7540271,2.479879,-6.006925,6.2003403,-0.2010119,-4.063542
3.032,2.9192781,2.369343,-5.8543644,6.354986,-0.13324904,-4.083109
3.034,3.0773876,2.2678127,-5.7035127,6.5104227,-0.067465305,-4.0988083
3.036,3.227537,2.1762962,-5.554197,6.666732,-0.0032052994,-4.1106467
3.038,3.369,2.0958793,-5.4062114,6.8239655,0.059919834,-4.118657
3.04,3.5010457,2.0277374,-5.259535,6.9821124,0.12221146,-4.122908
3.042,3.6235383,1.9729519,-5.114217,7.1411076,0.18387246,-4.1235027
3.044,3.7361062,1.9324553,-4.9703274,7.3008275,0.24499774,-4.1205893
3.046,3.8384676,1.9071546,-4.827942,7.46108,0.30553722,-4.1143646
3.048,3.9306862,1.8977973,-4.687306,7.621602,0.3653233,-4.105045
3.05,4.01261,1.9050883,-4.548409,7.782085,0.42407966,-4.0928593
3.052,4.0844555,1.9295676,-4.4113674,7.9421506,0.4813993,-4.0780463
3.054,4.146447,1.9718797,-4.2761593,8.101387,0.53669786,-4.0608234
3.056,4.198805,2.0321527,-4.1427956,8.25931,0.5892265,-4.041338
3.058,4.2420993,2.1104522,-4.011169,8.41542,0.6381166,-4.0197577
3.06,4.2769427,2.2070074,-3.88111,8.569248,0.68250155,-3.9963515
3.062,4.3039036,2.3217096,-3.7524083,8.72032,0.72146845,-3.971363
3.064,4.3239007,2.4545138,-3.6248116,8.868086,0.75400376,-3.944956
3.066,4.3377233,2.6053734,-3.498006,9.011972,0.7790406,-3.9171815
3.068,4.3462944,2.7738729,-3.3717985,9.151392,0.7955332,-3.888055
3.07,4.3506637,2.9597955,-3.245739,9.285755,0.8025341,-3.8575776
3.072,4.3519387,3.162661,-3.119524,9.414473,0.7992873,-3.8257701
3.074,4.351262,3.3821259,-2.992895,9.537031,0.78531754,-3.792661
3.076,4.350069,3.617734,-2.8656082,9.653011,0.7605547,-3.7582366
3.078,4.349597,3.8691142,-2.7375116,9.762152,0.72538793,-3.7224722
3.08,4.3511963,4.135958,-2.608652,9.864378,0.6806443,-3.685268
3.082,4.35632,4.4179955,-2.4790626,9.959805,0.62759185,-3.646434
3.084,4.366308,4.714863,-2.3489354,10.048752,0.56781006,-3.6056767
3.086,4.382771,5.026397,-2.2184606,10.131672,0.5030079,-3.5626075
3.088,4.407213,5.3524256,-2.087961,10.209124,0.43485475,-3.5167558
3.09,4.4410615,5.6929736,-1.9577882,10.281696,0.3647498,-3.4676707
3.092,4.485907,6.0481725,-1.8283358,10.349939,0.2936709,-3.4149935
3.094,4.5432286,6.418014,-1.6997638,10.414343,0.22205484,-3.3585618
3.096,4.614523,6.8028116,-1.5723578,10.475254,0.14975572,-3.298457
3.098,4.701336,7.2027626,-1.4463534,10.532882,0.07603943,-3.2350645
3.1,4.804993,7.617958,-1.3218992,10.587282,-0.00025057793,-3.1690478
3.102,4.9270663,8.048611,-1.1991372,10.6383915,-0.080616236,-3.101343
3.104,5.0683928,8.495043,-1.0779337,10.686043,-0.16671783,-3.0330474
3.106,5.230327,8.957452,-0.95821047,10.730032,-0.26017088,-2.9653163
3.108,5.4141407,9.436005,-0.8397535,10.770148,-0.3623857,-2.8993063
3.11,5.620994,9.930774,-0.72215354,10.806187,-0.47450244,-2.8360891
3.112,5.8516693,10.441765,-0.604625,10.837908,-0.5973638,-2.7765274
3.114,6.107208,10.968965,-0.4857924,10.865059,-0.7315076,-2.7212105
3.116,6.38807,11.512733,-0.36473393,10.887455,-0.8770833,-2.6705766
3.118,6.695786,12.072358,-0.24140167,10.904987,-1.033827,-2.6249557
3.12,7.0313773,12.646998,-0.1151979,10.917599,-1.201237,-2.5844908
3.122,7.395445,13.236066,0.014913321,10.925245,-1.3786359,-2.5490928
3.124,7.788223,13.8391485,0.15007186,10.927961,-1.5652828,-2.518465
3.126,8.209859,14.455986,0.2915244,10.925804,-1.7604783,-2.4921613
3.128,8.661703,15.08536,0.44009304,10.918882,-1.9636197,-2.469695
3.13,9.1444435,15.725772,0.5970855,10.907299,-2.1742682,-2.4505572
3.132,9.658436,16.375347,0.7635875,10.891157,-2.3922143,-2.4342551
3.134,10.203363,17.032103,0.9407215,10.870535,-2.6174707,-2.4203634
3.136,10.779053,17.694172,1.1295485,10.845491,-2.850268,-2.4086053
3.138,11.386029,18.359758,1.3313026,10.816042,-3.0910168,-2.3988664
3.14,12.024305,19.026527,1.5473566,10.782143,-3.340294,-2.3912606
3.142,12.693777,19.691673,1.7788363,10.743719,-3.5988412,-2.3861067
3.144,13.393954,20.351536,2.0261512,10.70068,-3.8675435,-2.3839023
3.146,14.124432,21.002018,2.2894888,10.652849,-4.147183,-2.3854647
3.148,14.8843565,21.638763,2.5689836,10.599924,-4.4385104,-2.3918655
3.15,15.673192,22.257288,2.8647175,10.541527,-4.742386,-2.4042537
3.152,16.490032,22.852345,3.1767898,10.477236,-5.059749,-2.4237876
3.154,17.334171,23.418493,3.5052776,10.406635,-5.391546,-2.4516797
3.156,18.204498,23.95014,3.8500051,10.329195,-5.738684,-2.4892507
3.158,19.099577,24.441715,4.2105694,10.244208,-6.1021833,-2.5378435
3.16,20.017834,24.887465,4.5860405,10.15068,-6.48316,-2.5987232
3.162,20.95708,25.281475,4.9752226,10.047358,-6.88268,-2.6730273
3.164,21.914661,25.61797,5.376347,9.932758,-7.3017063,-2.761589
3.166,22.887897,25.891796,5.787673,9.80527,-7.7411323,-2.8648987
3.168,23.87374,26.098198,6.2075553,9.663151,-8.201722,-2.9832332
3.17,24.869083,26.233025,6.6343594,9.504482,-8.684039,-3.116717
3.172,25.87069,26.292679,7.066289,9.327198,-9.188417,-3.2652311
3.174,26.874329,26.274721,7.5014668,9.129272,-9.714754,-3.4283407
3.176,27.87557,26.177692,7.9382634,8.9089155,-10.26254,-3.6052132
3.178,28.869804,26.000866,8.374913,8.664743,-10.830811,-3.7946873
3.18,29.851793,25.744404,8.809266,8.395929,-11.418183,-3.9954276
3.182,30.814705,25.408737,9.239748,8.102285,-12.022804,-4.2059736
3.184,31.752632,24.995047,9.664923,7.784318,-12.642289,-4.4248166
3.186,32.66111,24.506773,10.083951,7.443168,-13.273693,-4.6504555
3.188,33.534794,23.947817,10.49552,7.08053,-13.913544,-4.8814807
3.19,34.367508,23.321915,10.898934,6.698506,-14.557913,-5.116672
3.192,35.151737,22.63412,11.293762,6.2995057,-15.20244,-5.355011
3.194,35.880074,21.89035,11.679136,5.8861322,-15.84247,-5.595638
3.196,36.545624,21.096611,12.053762,5.461007,-16.473234,-5.837816
3.198,37.143192,20.259571,12.417052,5.026679,-17.090006,-6.0807734
3.2,37.6672,19.38627,12.76862,4.585593,-17.688301,-6.3235774
3.202,38.11215,18.483728,13.108172,4.1401186,-18.263845,-6.5651135
3.204,38.47247,17.559408,13.435184,3.692441,-18.812454,-6.8041816
3.206,38.742687,16.620487,13.749333,3.2446804,-19.330189,-7.039357
3.208,38.91837,15.674201,14.0502825,2.7989144,-19.813465,-7.2690306
3.21,38.99584,14.727819,14.33766,2.3573465,-20.258951,-7.4913893
3.212,38.97186,13.788525,14.611228,1.9222441,-20.663294,-7.7046747
3.214,38.843254,12.863166,14.870181,1.4960332,-21.023165,-7.907008
3.216,38.61004,11.957933,15.114597,1.0815439,-21.335695,-8.096455
3.218,38.270496,11.077803,15.344369,0.6816535,-21.598286,-8.271355
3.22,37.824284,10.228427,15.558854,0.29905224,-21.80856,-8.430297
3.222,37.27353,9.414321,15.756567,-0.06360483,-21.964413,-8.5718775
3.224,36.6202,8.638958,15.936299,-0.4036007,-22.063984,-8.694668
3.226,35.868126,7.9048967,16.097332,-0.7182121,-22.105785,-8.797198
3.228,35.020756,7.215146,16.238943,-1.0048876,-22.089119,-8.877973
3.23,34.083424,6.571952,16.359694,-1.2613678,-22.014053,-8.9355345
3.232,33.062473,5.9762077,16.457642,-1.4857383,-21.881275,-8.968344
3.234,31.965418,5.4278398,16.530922,-1.6763363,-21.692078,-8.974838
3.236,30.800262,4.926085,16.577703,-1.8318107,-21.448368,-8.953583
3.238,29.574667,4.470767,16.59655,-1.9510703,-21.152584,-8.903393
3.24,28.297611,4.061615,16.585478,-2.0334034,-20.807735,-8.823509
3.242,26.978928,3.6978266,16.542967,-2.0785809,-20.417114,-8.713636
3.244,25.628609,3.3781698,16.468275,-2.0869937,-19.984224,-8.573935
3.246,24.256783,3.1002128,16.361042,-2.0597076,-19.5128,-8.405184
3.248,22.873016,2.8613257,16.220903,-1.998668,-19.006897,-8.208388
3.25,21.486614,2.6590633,16.048353,-1.9064847,-18.470398,-7.9848876
3.252,20.106445,2.4917488,15.844838,-1.7865077,-17.907608,-7.7363896
3.254,18.741724,2.3574724,15.612688,-1.6427642,-17.32315,-7.4647226
3.256,17.401707,2.2539878,15.354885,-1.4796816,-16.721775,-7.171833
3.258,16.094337,2.178491,15.074595,-1.3020052,-16.108385,-6.8598104
3.26,14.826305,2.128233,14.775454,-1.1145613,-15.4878235,-6.531073
3.262,13.604107,2.1008472,14.46101,-0.92194396,-14.86457,-6.1882563
3.264,12.434015,2.0937223,14.135054,-0.7282597,-14.242483,-5.8342705
3.266,11.322373,2.1036448,13.80191,-0.53686446,-13.624612,-5.472191
3.268,10.274685,2.1273103,13.466127,-0.35034716,-13.012965,-5.1052675
3.27,9.296282,2.1614413,13.132353,-0.17067659,-12.408409,-4.7367716
3.272,8.39191,2.202979,12.805246,0.0011800528,-11.810848,-4.3696003
3.274,7.566004,2.2480564,12.4891815,0.16533995,-11.219257,-4.0062494
3.276,6.8229265,2.2926126,12.187883,0.3227582,-10.631607,-3.6488144
3.278,6.1661406,2.3328638,11.9044285,0.4750191,-10.045116,-3.2990487
3.28,5.598229,2.3650532,11.641418,0.62423825,-9.456302,-2.958296
3.282,5.1218424,2.3852806,11.401198,0.772877,-8.861172,-2.6276143
3.284,4.7397313,2.3894963,11.185739,0.92355514,-8.2556,-2.3077679
3.286,4.4536886,2.3741813,10.996433,1.0787339,-7.6358547,-1.9993601
3.288,4.2651405,2.3366475,10.834093,1.2404493,-6.9988337,-1.7028973
3.29,4.1747937,2.2746668,10.699467,1.4101639,-6.342151,-1.4187903
3.292,4.18379,2.1874084,10.592691,1.5886018,-5.6642947,-1.147331
3.294,4.290781,2.0745091,10.513676,1.7757745,-4.9646897,-0.88855577
3.296,4.492487,1.9348845,10.461508,1.9709659,-4.243658,-0.6420522
3.298,4.7860823,1.7688484,10.436033,2.1728354,-3.5023136,-0.40686965
3.3,5.1687536,1.5781326,10.435951,2.3795066,-2.742313,-0.18134403
3.302,5.6375175,1.3643346,10.459974,2.5887394,-1.9655993,0.036518693
3.304,6.188205,1.1296005,10.507103,2.798003,-1.1746497,0.24933791
3.306,6.81454,0.87651443,10.576407,3.0047336,-0.37190962,0.46016836
3.308,7.509016,0.6078763,10.666088,3.2064083,0.43995583,0.67198205
3.31,8.263921,0.32667112,10.773673,3.400602,1.2580147,0.88743365
3.312,9.071387,0.03638935,10.896395,3.5851133,2.079234,1.1087232
3.314,9.923443,-0.25947762,11.031288,3.757978,2.9004729,1.3374572
3.316,10.811584,-0.55692863,11.17514,3.9175506,3.7183986,1.5744834
3.318,11.72633,-0.8518033,11.324584,4.062508,4.529448,1.8197584
3.32,12.658436,-1.1398821,11.475868,4.1919446,5.3299384,2.0723617
3.322,13.598851,-1.4177022,11.625127,4.3054485,6.116325,2.3306139
3.324,14.539288,-1.6820145,11.768834,4.4031215,6.8854012,2.5922556
3.326,15.469345,-1.9299498,11.903074,4.4855223,7.6342344,2.8545444
3.328,16.381962,-2.1588383,12.023874,4.553531,8.360118,3.1143446
3.33,17.26974,-2.3678637,12.127558,4.608248,9.06051,3.368192
3.332,18.12452,-2.5555978,12.21115,4.650907,9.733189,3.6124327
3.334,18.940235,-2.7209291,12.270958,4.6828794,10.376296,3.8432488
3.336,19.710876,-2.8632116,12.3039255,4.7056427,10.98827,4.056854
3.338,20.431606,-2.982524,12.307591,4.720712,11.56782,4.249629
3.34,21.098545,-3.0794935,12.279932,4.729556,12.113885,4.418205
3.342,21.70843,-3.1549506,12.2192,4.7334676,12.6254425,4.559469
3.344,22.258818,-3.209929,12.1244135,4.733409,13.101477,4.6707134
3.346,22.747961,-3.2456064,11.994919,4.730038,13.541131,4.749725
3.348,23.174788,-3.263958,11.830862,4.7236357,13.9436865,4.794928
3.35,23.539114,-3.2671256,11.633265,4.7140636,14.308451,4.805464
3.352,23.841166,-3.2570047,11.403507,4.700743,14.634726,4.7813935
3.354,24.082142,-3.2355561,11.143198,4.6827507,14.9217,4.723871
3.356,24.263395,-3.204193,10.85456,4.658896,15.168486,4.6352797
3.358,24.386553,-3.1642847,10.540361,4.62787,15.374077,4.519106
3.36,24.453661,-3.1167316,10.203731,4.588464,15.537495,4.3798532
3.362,24.467207,-3.0624857,9.847843,4.539771,15.657829,4.22282
3.364,24.430199,-3.0024023,9.476167,4.4813247,15.734447,4.0536065
3.366,24.34514,-2.9370553,9.092058,4.4132304,15.767097,3.8775969
3.368,24.215334,-2.8669784,8.699299,4.336143,15.756024,3.6995568
3.37,24.044382,-2.7925434,8.301281,4.251144,15.702106,3.5233622
3.372,23.835106,-2.7138891,7.901643,4.1596537,15.606952,3.3518724
3.374,23.590382,-2.6308498,7.5034556,4.0632467,15.472772,3.1869354
3.376,23.312723,-2.5429113,7.109337,3.9634805,15.302197,3.0295024
3.378,23.005228,-2.4498487,6.721495,3.8617346,15.098132,2.8798385
3.38,22.670918,-2.35153,6.3420243,3.7591276,14.863659,2.7377763
3.382,22.312832,-2.2478342,5.972439,3.6564937,14.601837,2.6028852
3.384,21.934021,-2.138442,5.6141806,3.5543714,14.315646,2.4746437
3.386,21.536907,-2.023222,5.268242,3.4530678,14.007877,2.352477
3.388,21.124233,-1.902633,4.935171,3.3526385,13.681124,2.2357755
3.39,20.698938,-1.7773156,4.615255,3.2529628,13.337806,2.1237993
3.392,20.26329,-1.6475592,4.3085494,3.153782,12.980237,2.0156803
3.394,19.81955,-1.5139699,4.014621,3.0548155,12.610608,1.9104071
3.396,19.37006,-1.3776023,3.7330298,2.9557805,12.23112,1.8069656
3.398,18.916674,-1.2396371,3.463296,2.8564515,11.8438835,1.7043552
3.4,18.461433,-1.1013527,3.2046862,2.7565613,11.450931,1.6017365
3.402,18.005936,-0.9642317,2.9561791,2.6558592,11.054264,1.4985473
3.404,17.551792,-0.8296926,2.716504,2.5541577,10.655845,1.3945754
3.406,17.100344,-0.699208,2.4848475,2.4513125,10.257639,1.2899287
3.408,16.652752,-0.5739579,2.2601185,2.3472385,9.861565,1.1849804
3.41,16.209974,-0.45500636,2.041522,2.2418866,9.469421,1.0803082
3.412,15.772814,-0.343297,1.828167,2.1352348,9.082843,0.9766164
3.414,15.3417635,-0.23971438,1.6192465,2.0272772,8.703236,0.8746605
3.416,14.91754,-0.14473557,1.4140954,1.918004,8.331708,0.77516365
3.418,14.500227,-0.05879116,1.2120886,1.8074155,7.968991,0.67883086
3.42,14.090261,0.017595291,1.0129528,1.6954954,7.615447,0.5862932
3.422,13.687931,0.0841651,0.81664085,1.5822477,7.2710667,0.4980483
3.424,13.293488,0.14048266,0.6231375,1.4676733,6.935502,0.4143964
3.426,12.9072895,0.1859262,0.43256378,1.3517594,6.6080756,0.33549726
3.428,12.529726,0.21995878,0.244946,1.2344625,6.2878118,0.26133358
3.43,12.160639,0.24207306,0.06071186,1.1157212,5.9735336,0.19174564
3.432,11.799995,0.25239038,-0.11984968,0.99545467,5.663907,0.12647915
3.434,11.447725,0.25113487,-0.29640007,0.87355363,5.3575163,0.06518412
3.436,11.103904,0.23888946,-0.46849728,0.74988294,5.052948,0.007495284
3.438,10.768398,0.21639228,-0.6352391,0.6243062,4.7488427,-0.04695809
3.44,10.441164,0.18448949,-0.79521227,0.49668598,4.4439564,-0.098516285
3.442,10.122318,0.14344358,-0.9471977,0.36690664,4.1371784,-0.1474474
3.444,9.811859,0.09356308,-1.0897641,0.23488486,3.8275836,-0.19394618
3.446,9.50994,0.035017014,-1.2215159,0.100601435,3.5144656,-0.23811996
3.448,9.216753,-0.0318408,-1.3410463,-0.035877347,3.1973348,-0.279984
3.45,8.932249,-0.10653639,-1.4469354,-0.17442358,2.8759491,-0.31944692
3.452,8.656591,-0.18837166,-1.5379786,-0.31482673,2.550285,-0.35637087
3.454,8.38993,-0.27675724,-1.6130869,-0.456764,2.2205334,-0.3905373
3.456,8.132397,-0.3709817,-1.671206,-0.5998301,1.8870944,-0.4217195
3.458,7.8843718,-0.470232,-1.7115316,-0.74355924,1.5505698,-0.44968647
3.46,7.645891,-0.5739722,-1.7333646,-0.8873844,1.2117343,-0.47420582
3.462,7.4171934,-0.68158937,-1.7361149,-1.0306987,0.8715117,-0.49509394
3.464,7.19843,-0.7924895,-1.7194936,-1.1728384,0.53090423,-0.5122299
3.466,6.9898214,-0.90614486,-1.6835117,-1.313129,0.19099483,-0.52557415
3.468,6.791503,-1.0220404,-1.628177,-1.4508842,-0.14708158,-0.535176
3.47,6.603715,-1.1397476,-1.553885,-1.5854403,-0.48217914,-0.5411877
3.472,6.426524,-1.258859,-1.461191,-1.716181,-0.8131559,-0.5438589
3.474,6.259966,-1.378892,-1.3507506,-1.8425503,-1.1389031,-0.54351044
3.476,6.1041136,-1.4994708,-1.2235022,-1.9640967,-1.4583513,-0.54052466
3.478,5.959123,-1.6200262,-1.0806655,-2.080435,-1.7704741,-0.53528905
3.48,5.824788,-1.7401409,-0.92337775,-2.191293,-2.0742853,-0.5282085
3.482,5.7012634,-1.8593266,-0.75321925,-2.2964823,-2.3688202,-0.51966536
3.484,5.588395,-1.9769785,-0.57177055,-2.3959172,-2.6531668,-0.5099982
3.486,5.4861374,-2.0925431,-0.38060927,-2.4895923,-2.9264615,-0.49947715
3.488,5.394295,-2.205345,-0.1813209,-2.5775554,-3.1879172,-0.4882667
