Time_s_,Acc_x_m_s_2_,Acc_y_m_s_2_,Acc_z_m_s_2_,Gyro_x_1_s_,Gyro_y_1_s_,Gyro_z_1_s_
0,0.24249035,-0.5604494,-1.535037,-0.17364249,-0.83399427,2.0058424
0.002,0.23552692,-0.53329694,-1.533976,-0.17113337,-0.8354125,2.0145302
0.004,0.22800736,-0.5044272,-1.5326544,-0.1684151,-0.83710957,2.024163
0.006,0.2199215,-0.47386688,-1.5310723,-0.16547087,-0.83910197,2.0348027
0.008,0.21116078,-0.44135612,-1.5292809,-0.16229501,-0.8413992,2.0464942
0.01,0.20156302,-0.40677536,-1.5271637,-0.15887678,-0.8439643,2.059251
0.012,0.19118758,-0.37013522,-1.5248172,-0.15520701,-0.8467298,2.073041
0.014,0.18010429,-0.33129612,-1.5222576,-0.15128145,-0.8495913,2.0877752
0.016,0.16806856,-0.29032075,-1.5193254,-0.14709458,-0.8524251,2.103357
0.018,0.15503976,-0.24708088,-1.5162427,-0.14263159,-0.85506976,2.11965
0.02,0.14104494,-0.20163521,-1.5129251,-0.13788503,-0.8573441,2.1365027
0.022,0.1260878,-0.15397772,-1.5094373,-0.13283753,-0.8590731,2.1537685
0.024,0.11002109,-0.1041542,-1.5057971,-0.12747225,-0.86009634,2.1713011
0.026,0.092971765,-0.052113794,-1.5018826,-0.12177181,-0.86027086,2.1889696
0.028,0.07484363,0.0021276027,-1.4977916,-0.11559647,-0.85954946,2.2071078
0.03,0.05570461,0.058441326,-1.4936348,-0.10912728,-0.8578146,2.2250216
0.032,0.035552323,0.1166866,-1.489352,-0.1023522,-0.8550594,2.2426965
0.034,0.014365509,0.17674823,-1.485111,-0.095252395,-0.8513192,2.2601097
0.036,-0.007717192,0.23863944,-1.481079,-0.08783245,-0.84666216,2.2772439
0.038,-0.030707672,0.3021106,-1.4773545,-0.08010703,-0.8411704,2.2940762
0.04,-0.054469123,0.3670028,-1.474056,-0.07207644,-0.83494365,2.3105652
0.042,-0.07890749,0.43319324,-1.4713734,-0.06375432,-0.8280724,2.3266487
0.044,-0.10403323,0.5005705,-1.4693669,-0.05515212,-0.82066333,2.3422787
0.046,-0.12967554,0.5688935,-1.4681714,-0.046314657,-0.8128533,2.3574228
0.048,-0.15577015,0.637992,-1.4679095,-0.037272632,-0.80471355,2.3720062
0.05,-0.1821782,0.70776665,-1.4686661,-0.028048635,-0.7963465,2.3859742
0.052,-0.2086649,0.7779541,-1.4706492,-0.018698573,-0.78785145,2.399312
0.054,-0.23517624,0.8484451,-1.4738711,-0.009268463,-0.77929854,2.4120057
0.056,-0.26204473,0.9205953,-1.4784206,0.00020194054,-0.77078205,2.4240248
0.058,-0.28853232,0.9924245,-1.484485,0.009640634,-0.7624472,2.435366
0.06,-0.3144562,1.0637656,-1.4921821,0.018987894,-0.75442094,2.4460106
0.062,-0.33958378,1.1344829,-1.5014234,0.028191388,-0.7468471,2.4559438
0.064,-0.36396837,1.2045014,-1.51262,0.037190735,-0.73987365,2.4651387
0.066,-0.3878103,1.2736913,-1.5251436,0.045947433,-0.73364836,2.4735942
0.068,-0.41069758,1.3420062,-1.539011,0.054426312,-0.72828376,2.4813035
0.07,-0.43251592,1.4092392,-1.5545144,0.06262213,-0.7238531,2.4882524
0.072,-0.4530694,1.4752834,-1.571695,0.070524454,-0.7203891,2.4944415
0.074,-0.47235703,1.5400443,-1.5905839,0.07816583,-0.7178768,2.4998617
0.076,-0.4903317,1.6034238,-1.6109476,0.08556008,-0.7162645,2.5045033
0.078,-0.5070599,1.6652541,-1.6327031,0.0927344,-0.71547383,2.508379
0.08,-0.52253014,1.7255032,-1.655465,0.09970957,-0.715418,2.5114918
0.082,-0.53673613,1.7840979,-1.6794233,0.106506735,-0.715999,2.5138288
0.084,-0.5496915,1.8410051,-1.7044929,0.11311686,-0.7171417,2.5153842
0.086,-0.5615124,1.8962848,-1.730298,0.11951649,-0.71879053,2.5161602
0.088,-0.57217324,1.9497054,-1.7569367,0.12566209,-0.7209314,2.5161474
0.09,-0.5818517,2.0014575,-1.7839997,0.1315057,-0.7235624,2.5153508
0.092,-0.5908021,2.0513308,-1.8112649,0.13700306,-0.72669816,2.513799
0.094,-0.5990957,2.0994692,-1.8385817,0.14210287,-0.7303709,2.5115159
0.096,-0.6068866,2.1458242,-1.8656306,0.14678198,-0.7345984,2.508546
0.098,-0.6146163,2.1904764,-1.8923603,0.15103555,-0.7393932,2.5049396
0.1,-0.6222562,2.233444,-1.9184844,0.15485811,-0.74472666,2.500742
0.102,-0.6301733,2.2747521,-1.9437431,0.1582697,-0.7505926,2.4959998
0.104,-0.6384157,2.3145154,-1.9678183,0.16128331,-0.756945,2.4907753
0.106,-0.64721155,2.3526618,-1.990788,0.16392434,-0.7637577,2.4850957
0.108,-0.6568574,2.3892925,-2.0125153,0.16621321,-0.77097195,2.4789693
0.11,-0.6676407,2.4245265,-2.0325298,0.16817242,-0.7785359,2.472409
0.112,-0.679795,2.4584413,-2.0507843,0.16983104,-0.78639257,2.4654205
0.114,-0.6932504,2.490954,-2.0673413,0.17119741,-0.79446524,2.4579756
0.116,-0.7082885,2.5221817,-2.0820503,0.17230171,-0.8026838,2.4500241
0.118,-0.72495145,2.552009,-2.0949717,0.1731829,-0.81101346,2.4415536
0.12,-0.74330956,2.580472,-2.1060941,0.17385459,-0.81942016,2.432543
0.122,-0.7634878,2.6075642,-2.1154263,0.17434049,-0.82786715,2.4229476
0.124,-0.78571963,2.6333256,-2.122938,0.17465371,-0.8363327,2.4127445
0.126,-0.8097221,2.6578085,-2.1287715,0.17479056,-0.8448523,2.4019365
0.128,-0.835467,2.6807442,-2.1332479,0.17474616,-0.8534514,2.3905368
0.13,-0.8631451,2.702279,-2.1363685,0.17452532,-0.8621674,2.3785543
0.132,-0.8927528,2.722438,-2.1379783,0.1741255,-0.8710394,2.365998
0.134,-0.92402,2.7410264,-2.1382647,0.17353684,-0.8800768,2.3528852
0.136,-0.9568603,2.7578664,-2.1373787,0.17275584,-0.8893033,2.339248
0.138,-0.9912479,2.7730122,-2.135201,0.17179912,-0.89870834,2.3251529
0.14,-1.0270994,2.7864406,-2.1317582,0.1706838,-0.9082534,2.3106291
0.142,-1.0641618,2.7981071,-2.1270995,0.16943061,-0.9178501,2.2957149
0.144,-1.1021913,2.8079062,-2.1210315,0.1680488,-0.9274082,2.2804673
0.146,-1.1412017,2.815759,-2.1135085,0.16655988,-0.9368081,2.2649732
0.148,-1.1809306,2.8218074,-2.1044035,0.16498214,-0.9459276,2.2493036
0.15,-1.2211666,2.8257978,-2.0937157,0.16333044,-0.95466864,2.2335317
0.152,-1.2616878,2.8277276,-2.0813322,0.1616258,-0.9629333,2.217736
0.154,-1.3024288,2.8276918,-2.066979,0.15988314,-0.9706467,2.2019947
0.156,-1.3432708,2.8258092,-2.0505652,0.15812242,-0.9777114,2.1863544
0.158,-1.3838037,2.8220117,-2.032043,0.15636832,-0.98409045,2.1708534
0.16,-1.423979,2.8162827,-2.011443,0.15464109,-0.9897519,2.1555562
0.162,-1.4636748,2.808862,-1.9887434,0.15296888,-0.9946699,2.140467
0.164,-1.5026834,2.7998319,-1.9640878,0.15135849,-0.9988124,2.1255813
0.166,-1.5410141,2.7893684,-1.9373624,0.14982957,-1.0021526,2.1109147
0.168,-1.578333,2.7775989,-1.9085683,0.14841628,-1.004674,2.0964708
0.17,-1.6146224,2.7647743,-1.8777498,0.14712083,-1.0063579,2.0822587
0.172,-1.6497391,2.7508442,-1.8451796,0.14594615,-1.0071752,2.0682578
0.174,-1.683459,2.735802,-1.8108616,0.1449132,-1.0071325,2.054467
0.176,-1.7159936,2.720032,-1.775273,0.14401335,-1.0062647,2.0409172
0.178,-1.7473409,2.703532,-1.7385242,0.14323616,-1.0046073,2.027587
0.18,-1.7773702,2.6866846,-1.7010796,0.14256632,-1.0021918,2.0144603
0.182,-1.806329,2.669741,-1.6630346,0.1419785,-0.9991017,2.0015469
0.184,-1.8341991,2.6528487,-1.6246611,0.14143836,-0.9954058,1.9888576
0.186,-1.8609554,2.6361842,-1.5864078,0.14090699,-0.99116474,1.9763479
0.188,-1.886859,2.6199071,-1.5484735,0.14034343,-0.9864775,1.9639976
0.19,-1.912085,2.6043625,-1.5110584,0.13969511,-0.9814043,1.9517874
0.192,-1.9368153,2.5895655,-1.474281,0.13890982,-0.97602737,1.9396666
0.194,-1.9612452,2.5756798,-1.4384661,0.13796085,-0.9704629,1.9276278
0.196,-1.9856802,2.562917,-1.4038453,0.13681924,-0.96484715,1.9156669
0.198,-2.01053,2.551417,-1.3702276,0.13547438,-0.9592916,1.9037302
0.2,-2.0357716,2.5410423,-1.3380369,0.13389671,-0.9539138,1.8917599
0.202,-2.0616663,2.5318594,-1.307315,0.13207132,-0.9488171,1.87971
0.204,-2.088848,2.5239968,-1.2779543,0.12999481,-0.9440892,1.867528
0.206,-2.1174178,2.5173995,-1.2499604,0.12764895,-0.93982434,1.8551315
0.208,-2.147544,2.5119486,-1.2230302,0.12502593,-0.93611336,1.8424304
0.21,-2.1796665,2.507516,-1.1970822,0.122078836,-0.93300664,1.8293316
0.212,-2.2139707,2.5039423,-1.1719075,0.11874455,-0.93052423,1.8157071
0.214,-2.2507374,2.5009894,-1.1474619,0.1149863,-0.9286889,1.8014414
0.216,-2.2901201,2.498491,-1.1233507,0.11074656,-0.9275029,1.7864655
0.218,-2.332305,2.496196,-1.0990359,0.1059944,-0.92694163,1.7707162
0.22,-2.377309,2.4938097,-1.0744898,0.100691974,-0.9269494,1.7541336
0.222,-2.4251442,2.4910421,-1.049414,0.09481627,-0.9274709,1.7367225
0.224,-2.4759283,2.4877176,-1.0234445,0.08838451,-0.92842376,1.7185334
0.226,-2.5295038,2.4836073,-0.99640375,0.08143163,-0.9297322,1.6996442
0.228,-2.5858057,2.4785364,-0.9678791,0.07399988,-0.93134654,1.6801448
0.23,-2.6445558,2.4723325,-0.9379182,0.06614119,-0.9332347,1.6601431
0.232,-2.7054343,2.4647882,-0.9062541,0.057902634,-0.9353979,1.6397529
0.234,-2.7682714,2.455713,-0.8725784,0.049329102,-0.9378645,1.6190646
0.236,-2.8327956,2.4451065,-0.83675003,0.040444314,-0.9406824,1.5981326
0.238,-2.898642,2.4328358,-0.7982739,0.031268656,-0.9439359,1.5770061
0.24,-2.965378,2.4186525,-0.7572688,0.021803021,-0.94771713,1.5557395
0.242,-3.0326133,2.4024544,-0.7137715,0.012046576,-0.9520925,1.5343344
0.244,-3.1000175,2.3842907,-0.66774446,0.001976788,-0.9571302,1.5127592
0.246,-3.1672013,2.3641171,-0.61892396,-0.008420706,-0.9629188,1.491011
0.248,-3.2337167,2.3418279,-0.567123,-0.019173503,-0.96949744,1.4691026
0.25,-3.2991714,2.3174098,-0.5123409,-0.03028816,-0.9768884,1.4470043
0.252,-3.3632064,2.2910948,-0.4544924,-0.04177457,-0.9850949,1.4247344
0.254,-3.4253068,2.262817,-0.3939668,-0.053606033,-0.9940982,1.4023435
0.256,-3.4850178,2.2325833,-0.3307805,-0.06573832,-1.0038216,1.3799105
0.258,-3.5421672,2.200542,-0.26473463,-0.07811475,-1.0141159,1.3575199
0.26,-3.5967827,2.1672313,-0.1960702,-0.09063321,-1.024747,1.335294
0.262,-3.6486487,2.1328592,-0.12491202,-0.10317224,-1.0354418,1.3133993
0.264,-3.6976204,2.0978801,-0.051724434,-0.11556566,-1.0458652,1.292032
0.266,-3.7436345,2.0627887,0.023340166,-0.12764716,-1.0556005,1.2713746
0.268,-3.7867908,2.0279162,0.09988999,-0.13928634,-1.0641913,1.2516179
0.27,-3.827033,1.9935932,0.17769235,-0.15036082,-1.0711747,1.2329605
0.272,-3.8646436,1.9600623,0.25651175,-0.16076857,-1.0761055,1.2155466
0.274,-3.8998613,1.9275649,0.3359447,-0.1704368,-1.0785989,1.1994815
0.276,-3.9329238,1.8965815,0.415547,-0.17934108,-1.0783376,1.1848462
0.278,-3.9644632,1.8677576,0.4950353,-0.18752414,-1.0751007,1.1716468
0.28,-3.9950376,1.8417677,0.5740183,-0.19508547,-1.0687658,1.1598129
0.282,-4.025359,1.8193843,0.6523352,-0.20217103,-1.0593028,1.1492429
0.284,-4.0559845,1.8012285,0.7298665,-0.20894784,-1.046783,1.1397754
0.286,-4.087633,1.7878491,0.8066102,-0.21559364,-1.0313708,1.1312411
0.288,-4.1210284,1.7798287,0.8826473,-0.22229624,-1.0132326,1.123416
0.29,-4.156828,1.7774149,0.9579327,-0.22921616,-0.9925606,1.1160749
0.292,-4.195623,1.7808154,1.0324275,-0.23647732,-0.9695772,1.1090271
0.294,-4.2380486,1.7902277,1.1062834,-0.2441653,-0.94450927,1.1020917
0.296,-4.284457,1.8054677,1.1794846,-0.25231755,-0.91755474,1.0950632
0.298,-4.3353972,1.8266281,1.2521427,-0.2609275,-0.888905,1.0877665
0.3,-4.390918,1.8533847,1.324452,-0.26999444,-0.858727,1.079996
0.302,-4.4509397,1.8855103,1.3964295,-0.27949378,-0.82720804,1.0715661
0.304,-4.515412,1.9225338,1.4684,-0.2893839,-0.7945453,1.0623332
0.306,-4.5840235,1.9637266,1.5403554,-0.29961988,-0.7609435,1.0521243
0.308,-4.6561785,2.0081425,1.6125084,-0.31015825,-0.7265829,1.0407704
0.31,-4.7314987,2.0551662,1.6851767,-0.32095793,-0.69163,1.0281521
0.312,-4.8091965,2.103824,1.7584925,-0.33199018,-0.65621656,1.014196
0.314,-4.888138,2.1530414,1.832808,-0.34323367,-0.62042034,0.9988997
0.316,-4.9676113,2.2019413,1.9084277,-0.3546626,-0.5842218,0.9823193
0.318,-5.0466733,2.2496037,1.9853873,-0.36628547,-0.54754776,0.9646101
0.32,-5.1243625,2.2952328,2.0638533,-0.37809506,-0.5102519,0.94603866
0.322,-5.1996775,2.3380094,2.143989,-0.39008307,-0.4721138,0.926927
0.324,-5.271745,2.377215,2.225934,-0.4022603,-0.43287835,0.9076557
0.326,-5.339845,2.4122992,2.3099604,-0.41461378,-0.3922419,0.88863647
0.328,-5.4033666,2.4429178,2.3958495,-0.42712587,-0.34988993,0.87029254
0.33,-5.461889,2.4689212,2.4837272,-0.4397482,-0.30552903,0.8529867
0.332,-5.5150943,2.490347,2.573504,-0.4524079,-0.2588982,0.83702165
0.334,-5.5628695,2.507268,2.6650553,-0.465016,-0.20977989,0.82263494
0.336,-5.6052074,2.519727,2.7581234,-0.4774834,-0.15802026,0.8099317
0.338,-5.6424594,2.5279675,2.85255,-0.48973095,-0.103516,0.7989644
0.34,-5.6751413,2.5324411,2.948093,-0.50169635,-0.046204567,0.78972954
0.342,-5.7037287,2.5336573,3.0441465,-0.513323,0.013854504,0.7821935
0.344,-5.7286234,2.532288,3.1399553,-0.5245949,0.07654944,0.77629733
0.346,-5.750964,2.529089,3.235044,-0.5354947,0.141743,0.7719214
0.348,-5.7716556,2.5250378,3.3287482,-0.5460473,0.20921794,0.7689596
0.35,-5.7917995,2.5209131,3.4201288,-0.55632377,0.27869523,0.76731765
0.352,-5.81237,2.517392,3.508535,-0.5664122,0.34985703,0.7668535
0.354,-5.834587,2.5152197,3.5933452,-0.5764153,0.42237923,0.7674098
0.356,-5.8594365,2.5149453,3.6733751,-0.5864545,0.49590802,0.7688091
0.358,-5.887887,2.517076,3.747533,-0.5966725,0.5701318,0.7708568
0.36,-5.9208837,2.5220745,3.8151512,-0.6072126,0.64478564,0.7733793
0.362,-5.9597735,2.5304542,3.8753529,-0.618219,0.7196559,0.7762033
0.364,-6.0054665,2.5428538,3.9277334,-0.6297986,0.79460466,0.779164
0.366,-6.0583887,2.5595927,3.9717288,-0.641981,0.8695562,0.78212965
0.368,-6.118866,2.580974,4.006361,-0.6547154,0.94451135,0.78498185
0.37,-6.186626,2.6068583,4.0311966,-0.6678628,1.0195358,0.78764606
0.372,-6.2618833,2.637179,4.0457144,-0.6811888,1.0947119,0.79006165
0.374,-6.344253,2.67174,4.049755,-0.69440085,1.1701026,0.7921739
0.376,-6.433579,2.7103672,4.0434136,-0.7071642,1.2457414,0.793893
0.378,-6.5296288,2.7531786,4.02683,-0.7191265,1.3215952,0.7950608
0.38,-6.631939,2.7999682,4.0002613,-0.7299677,1.3975366,0.7954762
0.382,-6.7396326,2.850378,3.9640346,-0.73939025,1.4733291,0.7948675
0.384,-6.851908,2.9041429,3.9188626,-0.7471653,1.5486165,0.79291075
0.386,-6.9678135,2.9606762,3.8654623,-0.7531254,1.6229285,0.7892503
0.388,-7.086252,3.0191245,3.8045125,-0.75720024,1.6957176,0.7835472
0.39,-7.20597,3.078663,3.7370918,-0.7594162,1.7663641,0.7754888
0.392,-7.3257113,3.1383827,3.6642144,-0.759897,1.834194,0.7647379
0.394,-7.4445605,3.1975892,3.5871854,-0.75885165,1.8985578,0.75100446
0.396,-7.56129,3.2555828,3.5073948,-0.75653577,1.9588683,0.73408693
0.398,-7.674908,3.3116236,3.4263248,-0.75323355,2.0146523,0.713806
0.4,-7.784487,3.3650978,3.345457,-0.74925315,2.0655575,0.6900562
0.402,-7.8891354,3.4153244,3.2662587,-0.744854,2.111391,0.6627931
0.404,-7.9883976,3.461813,3.1901224,-0.7402762,2.1521115,0.6320295
0.406,-8.081612,3.504139,3.1184845,-0.7357322,2.1878366,0.5978781
0.408,-8.168163,3.5418854,3.052411,-0.7313787,2.2188375,0.5605199
0.41,-8.248108,3.574954,2.9928987,-0.72733647,2.2455323,0.5202152
0.412,-8.3212,3.6031275,2.940656,-0.72366315,2.268433,0.47736028
0.414,-8.387173,3.626256,2.8964467,-0.7203567,2.2881398,0.432412
0.416,-8.44599,3.644271,2.8608086,-0.7173911,2.3053246,0.38588196
0.418,-8.497622,3.6574492,2.834164,-0.71474653,2.320674,0.33831787
0.42,-8.542115,3.6659126,2.8165584,-0.7124136,2.334874,0.2902623
0.422,-8.5796795,3.6701531,2.8082538,-0.7104196,2.3485434,0.24223568
0.424,-8.610819,3.6706913,2.8096185,-0.7088102,2.3622315,0.19468896
0.426,-8.636113,3.668271,2.8203857,-0.70763814,2.376408,0.14802264
0.428,-8.655946,3.6630287,2.8410296,-0.70694965,2.3914664,0.102543205
0.43,-8.670972,3.6565118,2.870418,-0.7067704,2.4077156,0.0585116
0.432,-8.682289,3.649443,2.908955,-0.7070943,2.4253752,0.016137168
0.434,-8.690197,3.6424751,2.956109,-0.7078988,2.444582,-0.024423748
0.436,-8.694813,3.6360197,3.0110426,-0.70913893,2.465442,-0.06306963
0.438,-8.69599,3.6307693,3.0725086,-0.7107206,2.4880557,-0.0997259
0.44,-8.694397,3.6275918,3.140071,-0.7125454,2.5125525,-0.13435942
0.442,-8.690513,3.6271055,3.2128584,-0.7144976,2.5391192,-0.16701603
0.444,-8.683825,3.6299453,3.290062,-0.7164722,2.5680304,-0.19774789
0.446,-8.674098,3.6365838,3.3703942,-0.7183555,2.5996246,-0.2265726
0.448,-8.661152,3.6473663,3.452122,-0.71999305,2.6343114,-0.25350165
0.45,-8.644868,3.662278,3.5349479,-0.7212175,2.6725168,-0.27853736
0.452,-8.625165,3.681497,3.6185765,-0.7218492,2.714597,-0.30169645
0.454,-8.601596,3.7049243,3.7024345,-0.7217167,2.7607894,-0.323033
0.456,-8.573116,3.7321653,3.7853909,-0.7206973,2.8111217,-0.3426657
0.458,-8.538697,3.7628121,3.8661385,-0.71860456,2.8656967,-0.36060616
0.46,-8.497259,3.7964516,3.9434266,-0.71538585,2.9241734,-0.37703383
0.462,-8.4478445,3.8327622,4.0160103,-0.7110561,2.9859831,-0.39221638
0.464,-8.389285,3.8712144,4.0830445,-0.70564544,3.0505009,-0.4064133
0.466,-8.320742,3.9114006,4.1443496,-0.69926476,3.117024,-0.41990355
0.468,-8.240916,3.952835,4.199851,-0.6920583,3.1848335,-0.43294555
0.47,-8.148604,3.9949327,4.249349,-0.68419373,3.2532566,-0.44581
0.472,-8.043004,4.0371113,4.292149,-0.6758291,3.3217916,-0.45873195
0.474,-7.92344,4.0788326,4.326999,-0.66711485,3.390055,-0.47185647
0.476,-7.7893934,4.119393,4.35379,-0.6581719,3.457781,-0.48530078
0.478,-7.641001,4.1584983,4.3724265,-0.649113,3.5247798,-0.49918315
0.48,-7.478544,4.1962633,4.383271,-0.6400675,3.5908983,-0.51358277
0.482,-7.30217,4.2325287,4.3873596,-0.6311351,3.6560085,-0.5285556
0.484,-7.112439,4.2671885,4.3851776,-0.6223991,3.719926,-0.54422206
0.486,-6.910332,4.300583,4.376763,-0.613923,3.7823849,-0.56074715
0.488,-6.696534,4.332971,4.3622413,-0.6058103,3.8429978,-0.5783425
0.49,-6.4721403,4.3646154,4.341776,-0.598196,3.9012432,-0.5972278
0.492,-6.238798,4.396094,4.316071,-0.5912769,3.9564848,-0.6176024
0.494,-5.9978666,4.427781,4.286039,-0.5852727,4.0080385,-0.6396232
0.496,-5.7511196,4.4601116,4.252899,-0.5803796,4.0552416,-0.6633603
0.498,-5.5001373,4.4936037,4.217838,-0.57672364,4.097568,-0.68879676
0.5,-5.2467546,4.5285664,4.1816626,-0.57435364,4.1346555,-0.7158143
0.502,-4.992737,4.5655503,4.1453295,-0.5732443,4.1662974,-0.744243
0.504,-4.739593,4.604799,4.109712,-0.5732587,4.1923933,-0.77384776
0.506,-4.489011,4.646712,4.076203,-0.57416785,4.212975,-0.8042727
0.508,-4.242555,4.691573,4.045952,-0.5756709,4.2282033,-0.8351517
0.51,-4.0017195,4.739759,4.020325,-0.5774071,4.238301,-0.8661646
0.512,-3.76759,4.791586,4.0005183,-0.57909036,4.2434096,-0.8971495
0.514,-3.540844,4.8469515,3.9874544,-0.58037084,4.2440352,-0.9279246
0.516,-3.3223991,4.905697,3.9817767,-0.58101386,4.2406735,-0.958417
0.518,-3.11274,4.967693,3.9841318,-0.5808892,4.233788,-0.9887075
0.52,-2.911932,5.0325937,3.9948082,-0.5798942,4.223948,-1.0189569
0.522,-2.7201796,5.1001363,4.0142546,-0.57794654,4.2118664,-1.0493009
0.524,-2.5376644,5.170142,4.0423455,-0.5749194,4.1984477,-1.079795
0.526,-2.3643193,5.2423635,4.0787253,-0.5706229,4.184759,-1.1104326
0.528,-2.1997166,5.3163066,4.1227202,-0.5648069,4.1720395,-1.1411433
0.53,-2.0433004,5.391375,4.1736546,-0.55718786,4.161589,-1.1717294
0.532,-1.8944216,5.4671507,4.2305894,-0.54748577,4.154611,-1.201869
0.534,-1.7522743,5.5430346,4.292207,-0.5354697,4.1520653,-1.2312379
0.536,-1.6160005,5.618561,4.3576856,-0.5210538,4.154552,-1.2595276
0.538,-1.4848826,5.69363,4.4257936,-0.5043117,4.162279,-1.2864822
0.54,-1.3579044,5.767105,4.4964466,-0.48547596,4.1750317,-1.3119582
0.542,-1.2339326,5.838941,4.5677,-0.46488446,4.1921935,-1.3359194
0.544,-1.1125656,5.909224,4.6387486,-0.4429927,4.212809,-1.3584363
0.546,-0.99310446,5.9780154,4.7087154,-0.42032993,4.2357106,-1.3796618
0.548,-0.87495184,6.0447555,4.777208,-0.397448,4.2596307,-1.3997527
0.55,-0.75683594,6.1090603,4.8431106,-0.3748905,4.2833414,-1.4188691
0.552,-0.6376569,6.1708517,4.905749,-0.35313547,4.30579,-1.4371138
0.554,-0.51756287,6.230159,4.964239,-0.3325296,4.326229,-1.4545069
0.556,-0.39575458,6.2869763,5.018152,-0.31324112,4.344263,-1.4709383
0.558,-0.27147532,6.3414087,5.0673304,-0.29527462,4.3598795,-1.4862038
0.56,-0.14415407,6.393506,5.1107755,-0.27847403,4.373308,-1.5000771
0.562,-0.013311863,6.443205,5.147894,-0.26258755,4.384886,-1.5122905
0.564,0.12104893,6.4903364,5.17844,-0.24733973,4.3950415,-1.5225599
0.566,0.25885558,6.534985,5.2027674,-0.23243159,4.4041314,-1.5306556
0.568,0.39947677,6.5774274,5.221285,-0.21760976,4.412422,-1.5363809
0.57,0.54268765,6.6177764,5.23435,-0.2026354,4.4201355,-1.5396285
0.572,0.6879747,6.656139,5.241969,-0.18733811,4.427372,-1.5403914
0.574,0.8347218,6.6927133,5.2439895,-0.17161274,4.4341216,-1.5387523
0.576,0.98239946,6.7274604,5.2398987,-0.15541482,4.440274,-1.5348837
0.578,1.1300178,6.7603803,5.229579,-0.13876069,4.4456005,-1.529024
0.58,1.2762187,6.791542,5.2133055,-0.12170142,4.449831,-1.521453
0.582,1.4206791,6.820878,5.19191,-0.10428566,4.45273,-1.5124638
0.584,1.5622876,6.848485,5.1666965,-0.08651966,4.454115,-1.5023549
0.586,1.6999559,6.874489,5.1378603,-0.068398654,4.453895,-1.4914336
0.588,1.8331871,6.8986235,5.1058664,-0.049907863,4.452022,-1.4800136
0.59,1.9609857,6.92058,5.071064,-0.031038702,4.4484725,-1.4684132
0.592,2.0824955,6.940394,5.03343,-0.011819005,4.443187,-1.4569489
0.594,2.1969097,6.9581003,4.9936323,0.0076709986,4.436081,-1.4459618
0.596,2.303841,6.9733953,4.9531913,0.027296245,4.426981,-1.4358268
0.598,2.402617,6.9863257,4.9133267,0.0468446,4.4156265,-1.4269494
0.6,2.4928458,6.9969664,4.8748393,0.066060185,4.401678,-1.4197412
0.602,2.5746722,7.0051117,4.8382025,0.08464068,4.384778,-1.4146161
0.604,2.6480465,7.0107517,4.803733,0.10227823,4.364574,-1.411952
0.606,2.7133148,7.013851,4.7719865,0.11867124,4.3407583,-1.4120841
0.608,2.7705653,7.014413,4.743634,0.13354176,4.313121,-1.4152579
0.61,2.8202097,7.012704,4.7196264,0.14665335,4.2815948,-1.421627
0.612,2.8630352,7.0086784,4.7008348,0.15783948,4.2462697,-1.4312544
0.614,2.8998256,7.0025425,4.6875362,0.16702396,4.2073874,-1.4441558
0.616,2.9318395,6.994375,4.6795444,0.17419755,4.1653304,-1.4603038
0.618,2.960455,6.9844027,4.6765785,0.17942166,4.120548,-1.4796572
0.62,2.9870646,6.9724665,4.678171,0.18278193,4.0735626,-1.5021553
0.622,3.0130181,6.9586983,4.683965,0.1844266,4.0249248,-1.5277598
0.624,3.0392911,6.943208,4.6936398,0.18452388,3.975201,-1.5564278
0.626,3.067172,6.9261484,4.706826,0.18328908,3.925003,-1.5881217
0.628,3.097321,6.9075813,4.723205,0.18096715,3.8749704,-1.6227736
0.63,3.130361,6.8877482,4.742499,0.17782772,3.8257556,-1.6602949
0.632,3.1670985,6.866885,4.764454,0.17416209,3.7780204,-1.7005529
0.634,3.2083774,6.84516,4.788753,0.17027235,3.732387,-1.7433614
0.636,3.254928,6.8225813,4.815223,0.16643688,3.689408,-1.7884642
0.638,3.3073957,6.79924,4.843446,0.16291577,3.6495214,-1.8355756
0.64,3.3661337,6.7750225,4.872912,0.15993178,3.6129727,-1.8843575
0.642,3.4315953,6.749637,4.9029417,0.15767124,3.5797908,-1.9344193
0.644,3.5036752,6.723177,4.9330826,0.15622625,3.549747,-1.9853668
0.646,3.5821161,6.6955442,4.9633126,0.15559477,3.5223572,-2.0368068
0.648,3.6663694,6.6669064,4.993452,0.15565568,3.4969168,-2.088342
0.65,3.755587,6.637247,5.0238867,0.15621254,3.4726343,-2.139523
0.652,3.8489769,6.606686,5.055089,0.15700248,3.4486814,-2.1898386
0.654,3.9454384,6.575207,5.0873594,0.15774801,3.4243338,-2.2387042
0.656,4.04394,6.5428333,5.1211925,0.1582052,3.3990643,-2.285467
0.658,4.143326,6.5098224,5.156165,0.15821113,3.372603,-2.329404
0.66,4.2426677,6.4761972,5.1915483,0.15773219,3.3450089,-2.3697584
0.662,4.340851,6.4419546,5.227033,0.15687275,3.3166404,-2.405826
0.664,4.4371204,6.407036,5.262323,0.15586331,3.2881424,-2.4369962
0.666,4.5306187,6.371502,5.2967978,0.15502667,3.2603133,-2.462763
0.668,4.6204987,6.335347,5.3299403,0.15473524,3.2340307,-2.4827714
0.67,4.7059226,6.2988296,5.3608856,0.15537062,3.210086,-2.4968088
0.672,4.786334,6.26206,5.3887734,0.15725434,3.189132,-2.5048342
0.674,4.8612103,6.225105,5.4126663,0.16061671,3.1715522,-2.506955
0.676,4.9301066,6.1879025,5.431722,0.16556194,3.1574976,-2.5033946
0.678,4.9928484,6.1502295,5.445202,0.17210272,3.1468403,-2.4944632
0.68,5.049103,6.112199,5.452436,0.1801558,3.1392016,-2.4805784
0.682,5.098714,6.0739784,5.4528,0.18956506,3.1340075,-2.4622157
0.684,5.1417813,6.0356336,5.445631,0.20012347,3.1305106,-2.439945
0.686,5.178487,5.997397,5.4302487,0.21154669,3.1278453,-2.4144225
0.688,5.209021,5.959519,5.4060116,0.22349171,3.1250799,-2.386372
0.69,5.2339034,5.922064,5.372647,0.23559034,3.121229,-2.3565404
0.692,5.2537627,5.884552,5.3303413,0.24740338,3.115298,-2.325667
0.694,5.269132,5.8476276,5.2784286,0.2584971,3.1063933,-2.2944622
0.696,5.280549,5.8116283,5.217189,0.26847965,3.0938027,-2.2635503
0.698,5.2890253,5.7764707,5.1467257,0.27709466,3.0770571,-2.2334123
0.7,5.2955947,5.7420216,5.067236,0.28425333,3.0560186,-2.2043912
0.702,5.3012877,5.7081776,4.9788957,0.29005504,3.0308876,-2.176745
0.704,5.3069944,5.6744785,4.881934,0.29473442,3.002158,-2.1506798
0.706,5.3135643,5.6406336,4.7763443,0.29864925,2.9705431,-2.1263483
0.708,5.321852,5.6061664,4.6627564,0.30217654,2.9368923,-2.1038723
0.71,5.3326163,5.5708942,4.5417585,0.30567738,2.9020739,-2.0833778
0.712,5.3463125,5.534648,4.4138393,0.30939502,2.866892,-2.065034
0.714,5.3635073,5.4970174,4.2791586,0.31354356,2.8323748,-2.049638
0.716,5.3846684,5.4577475,4.1376343,0.3179145,2.7984908,-2.0364633
0.718,5.410478,5.41638,3.989164,0.3223489,2.7656655,-2.026039
0.72,5.4413424,5.3723764,3.8335621,0.3265769,2.734077,-2.0184863
0.722,5.47724,5.3252783,3.6706247,0.33031628,2.7039745,-2.0136812
0.724,5.5178375,5.274525,3.5006146,0.33322638,2.6753678,-2.0114167
0.726,5.562309,5.21995,3.3241606,0.3350894,2.6483407,-2.0114303
0.728,5.609733,5.1614027,3.142343,0.3357857,2.6230328,-2.0133328
0.73,5.659068,5.099312,2.956067,0.3352702,2.5995684,-2.0166132
0.732,5.7089796,5.0338855,2.7659764,0.333563,2.578066,-2.0206714
0.734,5.7584553,4.965561,2.5725782,0.3307624,2.5586576,-2.0248473
0.736,5.8060684,4.8948493,2.3766534,0.327014,2.5414398,-2.0285082
0.738,5.8507338,4.822006,2.1791334,0.32249734,2.5264623,-2.031082
0.74,5.890966,4.747571,1.9811344,0.3174087,2.5137584,-2.0321417
0.742,5.925359,4.6719255,1.7839034,0.31194103,2.5033002,-2.0314934
0.744,5.952482,4.5958395,1.5889943,0.30626622,2.495037,-2.0291739
0.746,5.9709787,4.520073,1.3979747,0.30058345,2.4888823,-2.0254164
0.748,5.9795737,4.445199,1.2127388,0.29507434,2.4846287,-2.0206375
0.75,5.977441,4.3717294,1.035291,0.2899191,2.4819672,-2.015376
0.752,5.963681,4.3002453,0.8676176,0.2852999,2.4804811,-2.0102189
0.754,5.938077,4.2309594,0.7114146,0.2814312,2.4796617,-2.0056973
0.756,5.9008074,4.1641674,0.56817436,0.27854002,2.478908,-2.0022187
0.758,5.851943,4.1001816,0.4389863,0.27687758,2.4775748,-2.0000656
0.76,5.791871,4.0391135,0.32439876,0.27669933,2.4750273,-1.999364
0.762,5.720756,3.9811397,0.22523212,0.2782244,2.4706392,-2.0001268
0.764,5.6389513,3.9264457,0.1423819,0.2816229,2.463852,-2.0021985
0.766,5.5468445,3.8752022,0.0765028,0.28699708,2.4542167,-2.0052896
0.768,5.4451265,3.827466,0.02816701,0.29431424,2.4412255,-2.0086408
0.77,5.3343277,3.7833986,-0.0025355816,0.30369556,2.4253302,-2.0126622
0.772,5.2152004,3.743041,-0.01625371,0.31496572,2.4063754,-2.0161617
0.774,5.0884457,3.7065644,-0.013932943,0.32798636,2.3847113,-2.018534
0.776,4.954607,3.6741657,0.0035030842,0.3426344,2.3608592,-2.0192573
0.778,4.8144283,3.6459765,0.034572124,0.35889044,2.335769,-2.0177221
0.78,4.668587,3.6220837,0.07766938,0.37672928,2.310421,-2.013307
0.782,4.517497,3.6025305,0.13107395,0.39618143,2.2858324,-2.0054944
0.784,4.361879,3.587463,0.19316721,0.41731012,2.2629943,-1.9939375
0.786,4.202276,3.5769625,0.26195884,0.44017276,2.2427845,-1.978479
0.788,4.0396523,3.5708616,0.3354287,0.464765,2.2258556,-1.9591619
0.79,3.8747082,3.5688312,0.41152883,0.49099994,2.2126195,-1.9362284
0.792,3.7082639,3.5706058,0.4883902,0.5187004,2.2032032,-1.9100906
0.794,3.5412436,3.5759068,0.56429076,0.547579,2.1974096,-1.8813258
0.796,3.3746037,3.584342,0.6377728,0.5772531,2.194813,-1.8506111
0.798,3.2096028,3.595173,0.70737934,0.6072738,2.1947856,-1.8187145
0.8,3.0473974,3.6079845,0.7716501,0.6371528,2.1965754,-1.7864182
0.802,2.8891592,3.6222534,0.8289825,0.66645074,2.1993554,-1.7544897
0.804,2.7364063,3.6365552,0.878922,0.6947545,2.2022772,-1.7236409
0.806,2.5908866,3.6500773,0.9202738,0.7217668,2.2045584,-1.6944855
0.808,2.4540267,3.6621664,0.9525931,0.74728006,2.205515,-1.6675243
0.81,2.3275208,3.6721234,0.97539544,0.771209,2.2045934,-1.6431448
0.812,2.2132297,3.6791582,0.98838115,0.7935418,2.2013824,-1.6215954
0.814,2.1130996,3.6826048,0.99116635,0.81434,2.1955862,-1.6030211
0.816,2.0288608,3.681982,0.9834521,0.8337247,2.1870623,-1.5874438
0.818,1.9621866,3.6767614,0.9647083,0.8518102,2.175781,-1.574803
0.82,1.9148548,3.6663287,0.9344487,0.8687304,2.1618032,-1.5649678
0.822,1.8883121,3.6503458,0.8923292,0.88460684,2.1452932,-1.5577534
0.824,1.8835075,3.6288717,0.83847415,0.8995682,2.1264715,-1.5529292
0.826,1.9012593,3.6018858,0.7728485,0.9137529,2.1056235,-1.5502272
0.828,1.9420508,3.569817,0.69577336,0.9273161,2.0830505,-1.5493265
0.83,2.0060039,3.5330203,0.60750985,0.9404176,2.05906,-1.549877
0.832,2.0931008,3.4922233,0.50821185,0.9532464,2.033946,-1.5515184
0.834,2.203063,3.448135,0.39786422,0.9660055,2.0079331,-1.5538849
0.836,2.3354676,3.4013038,0.27625036,0.97888863,1.9811566,-1.5566407
0.838,2.4892857,3.3525739,0.14310718,0.99207914,1.953667,-1.5594786
0.84,2.6634364,3.302455,-0.0012125969,1.0057322,1.9253976,-1.5621289
0.842,2.8563967,3.2517204,-0.15579271,1.0199327,1.8961623,-1.5643872
0.844,3.0662532,3.2011433,-0.319391,1.0347176,1.8656944,-1.566061
0.846,3.2911072,3.15136,-0.4905827,1.050047,1.8336933,-1.5669944
0.848,3.528692,3.103375,-0.66824985,1.0658588,1.7998827,-1.5670408
0.85,3.7767527,3.0575902,-0.8510797,1.0820752,1.7640189,-1.5660638
0.852,4.032658,3.0147462,-1.0375751,1.0986038,1.725946,-1.5639083
0.854,4.2937374,2.9751081,-1.2260302,1.1153651,1.6856381,-1.5604287
0.856,4.5571675,2.9390178,-1.4144365,1.1322991,1.6432345,-1.5554613
0.858,4.820305,2.9066083,-1.6010013,1.1494116,1.5990031,-1.5488352
0.86,5.080898,2.8782465,-1.7838218,1.1667405,1.5532786,-1.5403935
0.862,5.3363767,2.8540456,-1.9610904,1.1843567,1.5064775,-1.5299753
0.864,5.5845785,2.8338466,-2.130842,1.2023308,1.4590415,-1.5174505
0.866,5.8231144,2.817624,-2.2912655,1.2207317,1.4114101,-1.5027208
0.868,6.050022,2.8050141,-2.4405746,1.2396044,1.3640084,-1.4856954
0.87,6.2634525,2.796022,-2.5768337,1.2589829,1.3171886,-1.4663182
0.872,6.462032,2.790408,-2.698652,1.2788731,1.2712265,-1.444554
0.874,6.6446805,2.7879653,-2.8049555,1.2992594,1.2263179,-1.4204078
0.876,6.810462,2.7885056,-2.8950775,1.3200963,1.182585,-1.393929
0.878,6.9586024,2.7918706,-2.9682646,1.3413075,1.1400793,-1.3652128
0.88,7.088707,2.7978852,-3.024015,1.362792,1.0987747,-1.3344172
0.882,7.200497,2.8063238,-3.0618622,1.384442,1.058564,-1.3018101
0.884,7.294174,2.8171077,-3.0817633,1.4061486,1.0192869,-1.2677512
0.886,7.370055,2.8299885,-3.0838978,1.4278085,0.9807471,-1.2326888
0.888,7.4287004,2.84488,-3.068568,1.4493489,0.9427704,-1.1971292
0.89,7.470974,2.8617067,-3.0362723,1.4707701,0.9052214,-1.1615949
0.892,7.4981694,2.8804603,-2.9878607,1.4921628,0.8680285,-1.1265954
0.894,7.511301,2.901069,-2.9244745,1.5136775,0.83120257,-1.0925834
0.896,7.5117674,2.9236364,-2.8474603,1.5355569,0.794872,-1.0599229
0.898,7.500772,2.9482503,-2.7582724,1.5580909,0.75926185,-1.028887
0.9,7.479927,2.9747515,-2.658328,1.5816143,0.7246516,-0.99961954
0.902,7.450922,3.0030031,-2.5492795,1.6064444,0.6913431,-0.97216177
0.904,7.4152064,3.0327954,-2.4328077,1.6328455,0.6596092,-0.946489
0.906,7.374489,3.0640883,-2.310707,1.6610155,0.62963444,-0.9225415
0.908,7.3304014,3.0968084,-2.1848068,1.6910537,0.6014675,-0.90024877
0.91,7.2845364,3.1305723,-2.057107,1.7229437,0.5749881,-0.87955064
0.912,7.2382274,3.1653762,-1.9293139,1.7565609,0.54991716,-0.8604172
0.914,7.193017,3.2007732,-1.8032551,1.791698,0.52587354,-0.84285533
0.916,7.1502056,3.2364476,-1.6806986,1.8280959,0.5023874,-0.8269093
0.918,7.1109815,3.2719762,-1.563185,1.8654723,0.47897077,-0.8126136
0.92,7.0765004,3.307138,-1.452157,1.9035445,0.45515582,-0.80001926
0.922,7.0476303,3.3414545,-1.349027,1.9420497,0.4305482,-0.78917825
0.924,7.0253863,3.3746495,-1.2548497,1.980747,0.4048491,-0.780096
0.926,7.0104723,3.4063406,-1.1706096,2.0194416,0.37788805,-0.77273774
0.928,7.003694,3.4362192,-1.0970395,2.057991,0.34960425,-0.76699686
0.93,7.005291,3.4641404,-1.0348973,2.0963142,0.3200575,-0.76272637
0.932,7.01599,3.489858,-0.9848002,2.1344037,0.28945464,-0.7597188
0.934,7.0361533,3.5133348,-0.9476154,2.1723194,0.2581141,-0.75771296
0.936,7.066092,3.5346642,-0.9236417,2.2101731,0.22644398,-0.7564041
0.938,7.1057644,3.5538783,-0.91314375,2.2481322,0.19487506,-0.75549424
0.94,7.1553063,3.571188,-0.916211,2.2863786,0.16383117,-0.7547004
0.942,7.2146363,3.586712,-0.93263996,2.3251064,0.13368347,-0.7537844
0.944,7.2836733,3.6007824,-0.9621,2.3645115,0.10474691,-0.7525687
0.946,7.3622518,3.6137443,-1.0042655,2.404747,0.07723567,-0.75092375
0.948,7.4503846,3.626111,-1.0588049,2.445979,0.05129519,-0.74879694
0.95,7.547806,3.638535,-1.125754,2.488362,0.026984125,-0.74618167
0.952,7.654287,3.6517315,-1.205489,2.5320003,0.0042828918,-0.7431104
0.954,7.7697754,3.666346,-1.298162,2.5770044,-0.016854554,-0.73964727
0.956,7.894103,3.6832166,-1.4040354,2.6234732,-0.03651485,-0.73584527
0.958,8.027041,3.7029471,-1.5227058,2.6714935,-0.05481407,-0.73174053
0.96,8.16859,3.7263782,-1.6540908,2.721135,-0.07192162,-0.7273562
0.962,8.318657,3.754208,-1.7983617,2.772451,-0.0880875,-0.72269714
0.964,8.477194,3.787233,-1.9556444,2.8254554,-0.10366061,-0.7177788
0.966,8.644307,3.8260856,-2.1259875,2.8801155,-0.11913997,-0.7126386
0.968,8.820169,3.8713772,-2.3092067,2.9363437,-0.13519955,-0.70733035
0.97,9.004604,3.9236317,-2.5051448,2.9940078,-0.15266955,-0.70193547
0.972,9.197803,3.9832683,-2.71347,3.0529313,-0.17254001,-0.6965722
0.974,9.39982,4.050845,-2.9338531,3.1129136,-0.19589895,-0.69136506
0.976,9.610762,4.1264286,-3.1661298,3.1737225,-0.2239525,-0.68645644
0.978,9.830659,4.2102995,-3.4097898,3.2351422,-0.2579421,-0.6820056
0.98,10.059491,4.3025846,-3.664365,3.2969794,-0.2990777,-0.6781615
0.982,10.297255,4.4033294,-3.9292474,3.3590665,-0.34847072,-0.67506206
0.984,10.543859,4.5124836,-4.2034664,3.4212782,-0.4070821,-0.67280763
0.986,10.7990675,4.6301603,-4.4853587,3.4835358,-0.47560972,-0.6714847
0.988,11.062562,4.7564073,-4.773755,3.5458207,-0.55442375,-0.6711193
0.99,11.333701,4.891493,-5.0686784,3.6081839,-0.64353883,-0.67168194
0.992,11.612343,5.0353603,-5.370422,3.6707234,-0.7426264,-0.6730737
0.994,11.897958,5.187708,-5.6782746,3.7335863,-0.8510705,-0.6751443
0.996,12.190308,5.3482547,-5.990462,3.7969456,-0.96799123,-0.6776885
0.998,12.487579,5.517104,-6.304669,3.8609912,-1.0923672,-0.68044007
1,12.790914,5.6934204,-6.616699,3.925935,-1.2230943,-0.68309593
1.002,13.097631,5.878392,-6.9233665,3.9919567,-1.3590915,-0.68535614
1.004,13.401439,6.074938,-7.224726,4.0592117,-1.4993455,-0.68695706
1.006,13.704508,6.2818336,-7.5173554,4.1278334,-1.6429638,-0.6876708
1.008,14.007938,6.498076,-7.8015466,4.197899,-1.7892454,-0.6873085
1.01,14.306796,6.7267537,-8.081566,4.2694554,-1.9376147,-0.68577975
1.012,14.600501,6.968628,-8.3571615,4.3425355,-2.0876215,-0.68308216
1.014,14.887825,7.223097,-8.625488,4.417165,-2.2389283,-0.67929435
1.016,15.1647,7.4897327,-8.880702,4.4933295,-2.3912966,-0.6745837
1.018,15.432,7.767807,-9.118075,4.570976,-2.544622,-0.6692102
1.02,15.68664,8.059827,-9.336805,4.6500545,-2.6989214,-0.6634735
1.022,15.923368,8.367411,-9.532662,4.730483,-2.8544078,-0.6576935
1.024,16.144053,8.687491,-9.701122,4.8121305,-3.011528,-0.6521996
1.026,16.35099,9.017866,-9.843255,4.894812,-3.170906,-0.64734244
1.028,16.540981,9.360374,-9.961083,4.97824,-3.3334188,-0.64350426
1.03,16.710665,9.716457,-10.054226,5.0620694,-3.5001554,-0.64107823
1.032,16.860762,10.084833,-10.120112,5.1458855,-3.6723847,-0.64053
1.034,16.993113,10.463148,-10.155648,5.2292304,-3.851694,-0.6423464
1.036,17.108328,10.849728,-10.158048,5.311782,-4.039709,-0.6469544
1.038,17.207752,11.242792,-10.124681,5.393344,-4.2378597,-0.65479577
1.04,17.294039,11.639654,-10.05276,5.473769,-4.447913,-0.66633725
1.042,17.370722,12.0364275,-9.94086,5.553138,-4.671532,-0.6821723
1.044,17.44195,12.428369,-9.78895,5.6316094,-4.9100184,-0.7029587
1.046,17.512104,12.810819,-9.598063,5.7093973,-5.164346,-0.72914815
1.048,17.586674,13.179369,-9.369131,5.787095,-5.434771,-0.76080966
1.05,17.66986,13.530567,-9.102798,5.865466,-5.721589,-0.7980813
1.052,17.765442,13.8617525,-8.80105,5.945342,-6.0250797,-0.84120286
1.054,17.87835,14.169727,-8.465951,6.0277877,-6.3445735,-0.8900008
1.056,18.012657,14.451288,-8.098493,6.1139154,-6.6788416,-0.94373214
1.058,18.17106,14.703894,-7.699374,6.2047033,-7.026408,-1.0014521
1.06,18.356007,14.92558,-7.268918,6.301078,-7.3846283,-1.0621307
1.062,18.569218,15.114701,-6.807078,6.4038687,-7.7489605,-1.124481
1.064,18.811195,15.270687,-6.314849,6.513741,-8.112771,-1.1869187
1.066,19.081125,15.393983,-5.794093,6.631276,-8.467198,-1.2477131
1.068,19.37695,15.486355,-5.2473607,6.7570634,-8.801329,-1.3051355
1.07,19.695192,15.550537,-4.6767483,6.8917284,-9.102748,-1.3575022
1.072,20.031057,15.590172,-4.084135,7.0358524,-9.358328,-1.4031819
1.074,20.378378,15.609738,-3.4713097,7.1897674,-9.555469,-1.4406407
1.076,20.729969,15.614376,-2.8401814,7.353426,-9.683272,-1.468432
1.078,21.07736,15.609837,-2.192749,7.5263634,-9.733462,-1.4851785
1.08,21.411398,15.602081,-1.5312395,7.7075467,-9.701197,-1.4897246
1.082,21.722607,15.597217,-0.8582244,7.895434,-9.5852,-1.4812281
1.084,22.001026,15.601315,-0.17664763,8.087989,-9.387664,-1.4592185
1.086,22.237225,15.619989,0.51082206,8.282804,-9.113834,-1.4236405
1.088,22.421064,15.659538,1.2004876,8.477247,-8.771264,-1.3750112
1.09,22.543875,15.724789,1.8896372,8.668551,-8.3695545,-1.3144931
1.092,22.597687,15.820258,2.5750048,8.854098,-7.919807,-1.2437583
1.094,22.575338,15.94965,3.2533677,9.031607,-7.433689,-1.164911
1.096,22.471054,16.115786,3.9213858,9.199006,-6.923678,-1.0804322
1.098,22.280848,16.32053,4.5764885,9.354643,-6.4028697,-0.99319345
1.1,22.002214,16.564713,5.217548,9.497245,-5.8843646,-0.906516
1.102,21.633902,16.848595,5.843009,9.625642,-5.3810773,-0.82391757
1.104,21.17662,17.171425,6.450369,9.739058,-4.9044228,-0.7484665
1.106,20.63268,17.53175,7.037073,9.837205,-4.4641147,-0.68278486
1.108,20.007544,17.926802,7.600591,9.920123,-4.0683074,-0.629299
1.11,19.3051,18.35409,8.137965,9.988377,-3.722434,-0.58998364
1.112,18.534285,18.808666,8.648821,10.04311,-3.4288044,-0.5658815
1.114,17.707445,19.284523,9.136028,10.085742,-3.1874743,-0.5571044
1.116,16.829063,19.779446,9.599171,10.117944,-2.9966755,-0.56308097
1.118,15.907526,20.29008,10.04152,10.141545,-2.8530982,-0.58273613
1.12,14.957509,20.8093,10.468195,10.158299,-2.7522614,-0.61452115
1.122,13.989088,21.332832,10.878964,10.16974,-2.689037,-0.656519
1.124,13.01378,21.857548,11.271673,10.177141,-2.6581593,-0.70673275
1.126,12.045303,22.379631,11.643143,10.181503,-2.6545372,-0.7633059
1.128,11.092473,22.895561,11.993326,10.18365,-2.6734219,-0.8246634
1.13,10.16795,23.399174,12.326598,10.184184,-2.7105474,-0.88961434
1.132,9.2845335,23.886292,12.644094,10.1834755,-2.7623248,-0.95730996
1.134,8.447184,24.357498,12.94751,10.181713,-2.8258722,-1.02716
1.136,7.6618166,24.811224,13.243452,10.1789,-2.8991237,-1.098847
1.138,6.9389114,25.242622,13.536896,10.174911,-2.9807518,-1.1722834
1.14,6.2867455,25.648499,13.829275,10.169493,-3.070117,-1.2475879
1.142,5.7084074,26.029106,14.12039,10.16231,-3.1671839,-1.3250346
1.144,5.2053404,26.385445,14.410136,10.152934,-3.272264,-1.4050151
1.146,4.7800984,26.717396,14.699356,10.140847,-3.385925,-1.488027
1.148,4.4331336,27.025124,14.989381,10.125484,-3.5088394,-1.5746474
1.15,4.163262,27.309597,15.281677,10.106245,-3.6416245,-1.6654689
1.152,3.968019,27.572453,15.578661,10.082533,-3.7847075,-1.7610452
1.154,3.844136,27.815363,15.883389,10.053741,-3.9383047,-1.8619218
1.156,3.7879643,28.039425,16.1988,10.019343,-4.102356,-1.9686284
1.158,3.7946312,28.2453,16.526537,9.97888,-4.276518,-2.0816946
1.16,3.859832,28.432856,16.867521,9.931982,-4.460117,-2.2016177
1.162,3.9788923,28.60179,17.223297,9.878405,-4.6521716,-2.3288114
1.164,4.145192,28.752823,17.594439,9.818044,-4.851407,-2.4635744
1.166,4.3525743,28.886963,17.980223,9.750885,-5.056282,-2.6060767
1.168,4.5954733,29.004654,18.379463,9.677049,-5.265008,-2.756346
1.17,4.8677635,29.106335,18.791088,9.596759,-5.4755974,-2.9142976
1.172,5.163533,29.19257,19.213749,9.510291,-5.6858506,-3.0796685
1.174,5.4772067,29.26354,19.6471,9.417979,-5.893527,-3.252057
1.176,5.8038816,29.31893,20.091059,9.320172,-6.0963507,-3.4309847
1.178,6.1392317,29.358065,20.545532,9.217271,-6.2920628,-3.615849
1.18,6.4794188,29.380388,21.00946,9.109694,-6.478516,-3.8059423
1.182,6.8213453,29.38499,21.481447,8.997854,-6.653722,-4.000449
1.184,7.1621675,29.371235,21.959509,8.8822155,-6.8159075,-4.1984625
1.186,7.499846,29.338728,22.441856,8.763244,-6.9635687,-4.398972
1.188,7.832755,29.287012,22.926441,8.641455,-7.095459,-4.6009035
1.19,8.160276,29.215748,23.41145,8.517357,-7.2106743,-4.8030987
1.192,8.481857,29.12475,23.895277,8.391435,-7.3086967,-5.00441
1.194,8.797624,29.013857,24.376179,8.264127,-7.389348,-5.2036853
1.196,9.107838,28.883215,24.851866,8.135794,-7.452806,-5.3998117
1.198,9.414032,28.731743,25.32071,8.006695,-7.4995813,-5.5917425
1.2,9.716854,28.559494,25.779902,7.8769703,-7.5304375,-5.7785416
1.202,10.017373,28.366104,26.227242,7.746666,-7.546331,-5.959395
1.204,10.316765,28.151379,26.66034,7.6157427,-7.54832,-6.1336155
1.206,10.616419,27.914967,27.076647,7.4841022,-7.537505,-6.3006597
1.208,10.917586,27.656624,27.47364,7.3516035,-7.51492,-6.460091
1.21,11.221507,27.376343,27.848482,7.218095,-7.481517,-6.611583
1.212,11.529481,27.074104,28.19867,7.08346,-7.4380984,-6.7549047
1.214,11.842607,26.74996,28.521894,6.9476123,-7.3853416,-6.889875
1.216,12.16168,26.40388,28.815636,6.810506,-7.3237786,-7.0163803
1.218,12.487263,26.035831,29.07816,6.672143,-7.2538285,-7.134311
1.22,12.819947,25.64569,29.307745,6.5325828,-7.1758943,-7.243589
1.222,13.1600485,25.233698,29.502737,6.3919086,-7.090385,-7.3441777
1.224,13.50783,24.799967,29.661787,6.2502,-6.9977856,-7.4360294
1.226,13.863295,24.34481,29.783993,6.1075644,-6.8986864,-7.519082
1.228,14.226168,23.868622,29.868652,5.964092,-6.793817,-7.593264
1.23,14.595996,23.37179,29.915771,5.819924,-6.683968,-7.658494
1.232,14.97225,22.855143,29.925522,5.675204,-6.5700197,-7.7147055
1.234,15.354227,22.319487,29.898924,5.5301185,-6.4528556,-7.7618217
1.236,15.741172,21.765703,29.83723,5.3849053,-6.3333373,-7.7997932
1.238,16.132149,21.19478,29.742222,5.2398696,-6.2122803,-7.8286138
1.24,16.526266,20.607962,29.615759,5.0953794,-6.0904083,-7.8483253
1.242,16.9227,20.006409,29.460018,4.9518304,-5.968334,-7.8590565
1.244,17.320404,19.391502,29.277645,4.809638,-5.8465323,-7.861024
1.246,17.717976,18.764652,29.071293,4.6691813,-5.72537,-7.8545313
1.248,18.114214,18.12747,28.844189,4.530798,-5.6051564,-7.8399587
1.25,18.50754,17.481613,28.599377,4.394762,-5.4860964,-7.81769
1.252,18.896313,16.828787,28.339619,4.261267,-5.3683558,-7.7881217
1.254,19.278934,16.170647,28.067608,4.1304264,-5.252083,-7.75159
1.256,19.653536,15.508953,27.785946,4.0022836,-5.137448,-7.7083573
1.258,20.018263,14.845522,27.496918,3.8768134,-5.024567,-7.6586018
1.26,20.371126,14.18211,27.202766,3.75394,-4.913548,-7.6024485
1.262,20.709675,13.520651,26.905272,3.6335316,-4.8044524,-7.539985
1.264,21.031895,12.862862,26.60587,3.5154305,-4.697258,-7.4713144
1.266,21.335188,12.210478,26.305609,3.3994508,-4.5918236,-7.396562
1.268,21.61742,11.565119,26.00505,3.2853808,-4.487898,-7.315925
1.27,21.876427,10.928464,25.704384,3.1730092,-4.38512,-7.2296476
1.272,22.110264,10.302126,25.403671,3.0621548,-4.2830687,-7.1380157
1.274,22.317453,9.687578,25.103168,2.9526658,-4.1812215,-7.0413256
1.276,22.49664,9.086245,24.802696,2.844461,-4.0790095,-6.9398537
1.278,22.646572,8.499687,24.502129,2.7375414,-3.9758506,-6.833869
1.28,22.766525,7.9290404,24.200886,2.6319678,-3.8711522,-6.7236056
1.282,22.855978,7.375304,23.898552,2.5278914,-3.7643557,-6.6092987
1.284,22.91476,6.8393736,23.594309,2.4255137,-3.6549456,-6.491198
1.286,22.943213,6.3219647,23.287746,2.3250718,-3.542481,-6.3695707
1.288,22.94196,5.8237615,22.978262,2.226844,-3.4265585,-6.2447495
1.29,22.91202,5.3449984,22.665718,2.1310766,-3.3068545,-6.117093
1.292,22.85485,4.8863025,22.349823,2.0379999,-3.18313,-5.987007
1.294,22.772446,4.4476337,22.030403,1.9478039,-3.0552523,-5.8549614
1.296,22.666643,4.028702,21.707132,1.8606362,-2.9232142,-5.7213974
1.298,22.539711,3.6293192,21.379967,1.7765995,-2.7871215,-5.5867815
1.3,22.393461,3.2489333,21.048704,1.695744,-2.647193,-5.45155
1.302,22.230072,2.8869486,20.713417,1.61806,-2.5037751,-5.3161244
1.304,22.051609,2.542777,20.374458,1.5434966,-2.3573313,-5.180923
1.306,21.859974,2.2157755,20.03261,1.4719604,-2.208407,-5.0463295
1.308,21.657013,1.9052343,19.688437,1.40333,-2.0575886,-4.912696
1.31,21.444586,1.6102676,19.342499,1.3374764,-1.9055098,-4.780348
1.312,21.22417,1.3301458,18.99525,1.2742647,-1.7528361,-4.649592
1.314,20.997437,1.0639505,18.647072,1.2135834,-1.6002059,-4.5206895
1.316,20.765446,0.8108139,18.298748,1.155342,-1.4482429,-4.3938594
1.318,20.528946,0.56980515,17.950884,1.0994757,-1.2975231,-4.269282
1.32,20.288727,0.3398056,17.604177,1.0459628,-1.1485572,-4.1471124
1.322,20.045107,0.119916916,17.259354,0.99482954,-1.0017458,-4.027477
1.324,19.798313,-0.090750694,16.917118,0.946136,-0.8574156,-3.9104867
1.326,19.54856,-0.2929325,16.578175,0.8999339,-0.7157864,-3.7962136
1.328,19.295761,-0.48731518,16.242947,0.8562872,-0.57706124,-3.684742
1.33,19.039967,-0.67458916,15.9121,0.81524354,-0.4414311,-3.5761757
1.332,18.781065,-0.8554373,15.586233,0.776828,-0.30909613,-3.4706254
1.334,18.518784,-1.030509,15.265701,0.7410437,-0.18028408,-3.3681855
1.336,18.253084,-1.200346,14.950699,0.7078549,-0.05527228,-3.268959
1.338,17.983831,-1.3653679,14.641588,0.6771872,0.06560746,-3.1730347
1.34,17.710608,-1.5258503,14.338718,0.64894164,0.1820001,-3.0804958
1.342,17.433197,-1.6822968,14.042402,0.6229654,0.29351667,-2.9914095
1.344,17.151482,-1.8348331,13.752991,0.59910053,0.3997934,-2.9058292
1.346,16.865181,-1.9836521,13.470898,0.57716405,0.50051093,-2.8237643
1.348,16.574297,-2.1286955,13.196399,0.55696326,0.59543145,-2.7451925
1.35,16.278883,-2.2699585,12.929897,0.53832215,0.6844333,-2.6700878
1.352,15.978897,-2.4071846,12.671495,0.5210671,0.76750946,-2.5983784
1.354,15.674537,-2.540347,12.4215,0.5050703,0.8448035,-2.5299704
1.356,15.365921,-2.669032,12.180483,0.49022755,0.9165971,-2.4647686
1.358,15.053311,-2.7926874,11.948963,0.47647157,0.98330057,-2.4026494
1.36,14.736964,-2.9109898,11.727554,0.46377653,1.0454092,-2.3434765
1.362,14.417152,-3.0233374,11.516594,0.45214576,1.1034895,-2.287131
1.364,14.09433,-3.1291237,11.316534,0.44158632,1.1581376,-2.233505
1.366,13.768762,-3.2277207,11.127894,0.43211251,1.2099369,-2.1824832
1.368,13.440878,-3.3185458,10.951222,0.42373097,1.2594082,-2.1339881
1.37,13.111141,-3.4008808,10.786939,0.41641292,1.307001,-2.08796
1.372,12.780016,-3.4740615,10.635506,0.41010362,1.353082,-2.0443435
1.374,12.447847,-3.5373993,10.497129,0.40471083,1.3979074,-2.003084
1.376,12.115139,-3.5902543,10.371822,0.4001009,1.4416542,-1.9641167
1.378,11.782307,-3.6321483,10.259739,0.39613762,1.4844457,-1.9273729
1.38,11.449703,-3.6626658,10.160999,0.39269003,1.5263404,-1.8927981
1.382,11.117826,-3.6814904,10.075375,0.3896017,1.5673629,-1.8602817
1.384,10.786824,-3.688251,10.002554,0.38672915,1.6075039,-1.8296956
1.386,10.456958,-3.6827745,9.94218,0.3839546,1.6467321,-1.8009118
1.388,10.12879,-3.665205,9.893703,0.38116387,1.6849641,-1.7738075
1.39,9.802406,-3.6355224,9.856859,0.3782606,1.7221059,-1.7482511
1.392,9.477965,-3.593802,9.831121,0.375192,1.7580438,-1.7241199
1.394,9.155756,-3.5403757,9.816334,0.3719194,1.792629,-1.7013242
1.396,8.835724,-3.475645,9.812157,0.36841944,1.8257121,-1.679793
1.398,8.518019,-3.4001122,9.8182335,0.36465496,1.8571153,-1.659482
1.4,8.202404,-3.3139782,9.834402,0.36058557,1.8866283,-1.6403619
1.402,7.889305,-3.2191372,9.8598385,0.35613018,1.914033,-1.6223916
1.404,7.5776777,-3.115923,9.894354,0.35117617,1.9390906,-1.6055294
1.406,7.266982,-3.004665,9.93828,0.34556794,1.9615278,-1.5897108
1.408,6.957239,-2.886541,9.991213,0.33910406,1.9810803,-1.5748438
1.41,6.6475096,-2.7621517,10.05319,0.33154777,1.9974921,-1.5608137
1.412,6.3370852,-2.6322103,10.124266,0.3226268,2.0105593,-1.5474851
1.414,6.025116,-2.497579,10.204391,0.31205037,2.020136,-1.5347109
1.416,5.7107263,-2.3589802,10.29356,0.2995476,2.0261567,-1.522325
1.418,5.392805,-2.2169185,10.391863,0.28486133,2.0286546,-1.5101616
1.42,5.07018,-2.0719972,10.499227,0.2677782,2.0277781,-1.4980617
1.422,4.7419863,-1.9245243,10.615549,0.24812216,2.0237787,-1.4858854
1.424,4.4071107,-1.7748928,10.740827,0.22579482,2.0169926,-1.4735233
1.426,4.0647335,-1.6234689,10.874706,0.2007508,2.0078256,-1.4608867
1.428,3.7141132,-1.4703159,11.017016,0.17299661,1.9967253,-1.4479321
1.43,3.3545425,-1.315485,11.167139,0.14259696,1.9841793,-1.4346814
1.432,2.985608,-1.1590233,11.324313,0.109659195,1.970746,-1.4211638
1.434,2.60712,-1.0006666,11.487549,0.074290216,1.9568592,-1.4074273
1.436,2.2187915,-0.8403187,11.655897,0.03663802,1.9430133,-1.3936543
1.438,1.8207781,-0.67775154,11.828404,-0.0031414628,1.9296856,-1.3800534
1.44,1.4133289,-0.51241064,12.003744,-0.044920713,1.917287,-1.3668633
1.442,0.9968593,-0.34405565,12.180563,-0.088556856,1.9062474,-1.354361
1.444,0.572021,-0.17199373,12.35749,-0.13391206,1.8969736,-1.3428307
1.446,0.1394999,0.0042824745,12.533157,-0.18088451,1.8898523,-1.3325614
1.448,-0.29975796,0.18531847,12.706368,-0.22937793,1.8852743,-1.3238214
1.45,-0.74478936,0.3718934,12.875898,-0.27928504,1.8835933,-1.3168571
1.452,-1.1944623,0.5645883,13.040635,-0.3305172,1.8851318,-1.311898
1.454,-1.6478074,0.76406574,13.199516,-0.3829874,1.8901799,-1.3091486
1.456,-2.1034386,0.9710419,13.351588,-0.43659335,1.8989971,-1.3088303
1.458,-2.5604382,1.186065,13.496276,-0.4912223,1.9117935,-1.3111708
1.46,-3.0176082,1.4098825,13.633156,-0.5467448,1.928766,-1.31643
1.462,-3.474016,1.6431208,13.762321,-0.6030026,1.9500986,-1.3248994
1.464,-3.9283648,1.8862488,13.883905,-0.6597965,1.975976,-1.3369312
1.466,-4.380018,2.1399262,13.997892,-0.71692514,2.006575,-1.352961
1.468,-4.828063,2.40441,14.104606,-0.77413654,2.0420942,-1.373465
1.47,-5.271449,2.680147,14.20425,-0.83119535,2.0827096,-1.3989842
1.472,-5.709326,2.9672198,14.29743,-0.8878528,2.1285272,-1.4300983
1.474,-6.140783,3.2655916,14.384368,-0.9438707,2.179579,-1.4674335
1.476,-6.5646343,3.5752072,14.465182,-0.9990262,2.2357864,-1.5116143
1.478,-6.9797773,3.8957438,14.53969,-1.0531278,2.2969398,-1.563274
1.48,-7.38521,4.226809,14.607701,-1.1060271,2.3626826,-1.6230241
1.482,-7.7797537,4.567577,14.669117,-1.1575978,2.4325235,-1.6914461
1.484,-8.162068,4.917042,14.723684,-1.2077678,2.5057888,-1.7690655
1.486,-8.530875,5.274017,14.770842,-1.2564981,2.581659,-1.856354
1.488,-8.885009,5.6371827,14.809685,-1.3037488,2.6593235,-1.9537348
1.49,-9.223094,6.0048633,14.839378,-1.3495383,2.7377074,-2.0614834
1.492,-9.544071,6.375415,14.858677,-1.3939242,2.8156312,-2.1798303
1.494,-9.846827,6.746994,14.866417,-1.4369634,2.8918557,-2.3089137
1.496,-10.130138,7.117507,14.861425,-1.4787308,2.9650373,-2.4487548
1.498,-10.393287,7.484852,14.842905,-1.5193063,3.0337481,-2.5992823
1.5,-10.635427,7.8467703,14.809933,-1.5587704,3.0965092,-2.7602863
1.502,-10.855991,8.201008,14.761749,-1.5972244,3.1518116,-2.9314299
1.504,-11.054344,8.545301,14.697583,-1.6347704,3.198167,-3.1122746
1.506,-11.2298975,8.877306,14.616705,-1.6715096,3.2341566,-3.3022478
1.508,-11.382281,9.194898,14.518776,-1.7075404,3.2584488,-3.5006816
1.51,-11.510938,9.495617,14.403505,-1.7429903,3.269802,-3.7067907
1.512,-11.615867,9.778218,14.271847,-1.7780075,3.2671058,-3.9197304
1.514,-11.695995,10.040106,14.12417,-1.8127575,3.2493892,-4.1386085
1.516,-11.75095,10.279078,13.960941,-1.8474396,3.2157917,-4.3625216
1.518,-11.780869,10.493726,13.783548,-1.8822911,3.1655564,-4.5905538
1.52,-11.784794,10.682331,13.593167,-1.9175855,3.0980322,-4.821811
1.522,-11.762537,10.843577,13.390909,-1.9536369,3.0126784,-5.055435
1.524,-11.71332,10.97652,13.1785,-1.9907913,2.9091,-5.2906194
1.526,-11.63651,11.080231,12.957656,-2.0294173,2.7870722,-5.5266194
1.528,-11.531104,11.154062,12.729969,-2.069894,2.6465957,-5.7626977
1.53,-11.396151,11.197664,12.497182,-2.1125894,2.4879353,-5.998172
1.532,-11.23118,11.210635,12.261263,-2.157848,2.311679,-6.232392
1.534,-11.035337,11.193177,12.023533,-2.2059677,2.1187506,-6.464764
1.536,-10.808208,11.145826,11.785352,-2.2571793,1.9104433,-6.6947184
1.538,-10.549247,11.069117,11.548261,-2.3116298,1.6884134,-6.9217443
1.54,-10.258133,10.964117,11.314013,-2.3693802,1.4546576,-7.1453867
1.542,-9.934268,10.832083,11.084148,-2.4304109,1.2115066,-7.365215
1.544,-9.577608,10.674312,10.860031,-2.4945788,0.9616265,-7.580838
1.546,-9.187784,10.492491,10.642759,-2.5616446,0.70789766,-7.7919083
1.548,-8.765099,10.288492,10.433155,-2.6312718,0.4533422,-7.998131
1.55,-8.310028,10.064493,10.232351,-2.7030382,0.2010684,-8.199206
1.552,-7.823099,9.822703,10.0415535,-2.776432,-0.04578781,-8.394848
1.554,-7.305277,9.565602,9.861988,-2.8508353,-0.2841444,-8.584808
1.556,-6.7575336,9.29584,9.695066,-2.9255574,-0.51102066,-8.76885
1.558,-6.181152,9.016453,9.541722,-2.9998314,-0.72363615,-8.946735
1.56,-5.577207,8.730154,9.402736,-3.0728307,-0.9194417,-9.118274
1.562,-4.9471197,8.439936,9.278894,-3.1437154,-1.0962205,-9.2833395
1.564,-4.292499,8.148746,9.170836,-3.2115674,-1.2520623,-9.44184
1.566,-3.6149971,7.8595867,9.079,-3.275481,-1.3854151,-9.593761
1.568,-2.9162903,7.575451,9.004026,-3.3345602,-1.4951291,-9.739162
1.57,-2.1983309,7.2991595,8.946345,-3.3879051,-1.5804105,-9.878166
1.572,-1.4628035,7.033659,8.906415,-3.4346673,-1.6408544,-10.011009
1.574,-0.7116071,6.7819314,8.884342,-3.4740424,-1.676444,-10.138005
1.576,0.053686857,6.5466,8.880391,-3.5052807,-1.6875734,-10.259553
1.578,0.8313602,6.3303957,8.894643,-3.5277214,-1.6750479,-10.376116
1.58,1.6195239,6.1360326,8.927238,-3.5407648,-1.6401019,-10.488223
1.582,2.4167404,5.9661655,8.977906,-3.543907,-1.5843654,-10.596486
1.584,3.2217143,5.8231697,9.046536,-3.5367436,-1.5098724,-10.701569
1.586,4.0329776,5.709483,9.132984,-3.5189257,-1.4190378,-10.804148
1.588,4.8496084,5.6273575,9.236932,-3.4902136,-1.314611,-10.904902
1.59,5.6707697,5.578857,9.358318,-3.4504662,-1.199657,-11.004541
1.592,6.4957047,5.5660896,9.496455,-3.3996701,-1.0775485,-11.103702
1.594,7.3240805,5.5907583,9.650673,-3.3379397,-0.9518709,-11.202984
1.596,8.155823,5.6544495,9.820509,-3.2655158,-0.8264127,-11.302919
1.598,8.991316,5.7582765,10.00555,-3.182801,-0.70510244,-11.403961
1.6,9.831429,5.902971,10.204891,-3.0903494,-0.59189653,-11.50646
1.602,10.67713,6.0891123,10.417755,-2.9888706,-0.49067545,-11.61068
1.604,11.529865,6.316505,10.643209,-2.8792374,-0.4051733,-11.716804
1.606,12.390797,6.585256,10.880219,-2.7624736,-0.33893776,-11.824907
1.608,13.262839,6.8937774,11.127443,-2.639737,-0.29521275,-11.934965
1.61,14.147584,7.240273,11.38304,-2.5122921,-0.2769022,-12.046867
1.612,15.04408,7.6250777,11.648734,-2.3814878,-0.28648186,-12.160462
1.614,15.956026,8.046726,11.927746,-2.2487116,-0.32599688,-12.27549
1.616,16.891447,8.500727,12.216739,-2.1153378,-0.39699268,-12.391597
1.618,17.850243,8.985445,12.513429,-1.9827385,-0.5005183,-12.50841
1.62,18.834473,9.499279,12.821019,-1.8521907,-0.63712835,-12.625473
1.622,19.848577,10.037192,13.138907,-1.7248566,-0.806859,-12.742298
1.624,20.895428,10.59711,13.467533,-1.6017673,-1.0092516,-12.858377
1.626,21.978397,11.175298,13.807904,-1.483762,-1.2434282,-12.9731865
1.628,23.100164,11.767716,14.16136,-1.3715093,-1.5081396,-13.086214
1.63,24.26181,12.372676,14.530931,-1.2654767,-1.8017583,-13.19695
1.632,25.466976,12.986124,14.917427,-1.165962,-2.122414,-13.304881
1.634,26.717484,13.605799,15.321922,-1.0730956,-2.468011,-13.409507
1.636,28.0141,14.229284,15.746846,-0.98690414,-2.8363683,-13.510305
1.638,29.357418,14.853765,16.194933,-0.90727234,-3.2251327,-13.606689
1.64,30.746208,15.47805,16.670195,-0.8340211,-3.6319466,-13.698031
1.642,32.179855,16.100643,17.175608,-0.76693535,-4.0546527,-13.783745
1.644,33.657654,16.720009,17.713127,-0.7056427,-4.4910483,-13.863202
1.646,35.17818,17.335438,18.284866,-0.6496916,-4.9387016,-13.935386
1.648,36.738075,17.94638,18.892239,-0.59877586,-5.3957224,-13.999334
1.65,38.33385,18.552353,19.536503,-0.5525265,-5.860508,-14.054177
1.652,39.960922,19.153,20.218973,-0.51054764,-6.33097,-14.098809
1.654,41.61484,19.747799,20.939983,-0.47252464,-6.8054247,-14.132191
1.656,43.290436,20.337002,21.699726,-0.4379859,-7.282181,-14.153331
1.658,44.982426,20.920366,22.497765,-0.40636635,-7.7595034,-14.161332
1.66,46.685577,21.49738,23.332169,-0.37706757,-8.235747,-14.15546
1.662,48.393707,22.06777,24.200243,-0.34937286,-8.708996,-14.134918
1.664,50.101234,22.630209,25.098991,-0.3225813,-9.177494,-14.099052
1.666,51.80172,23.18374,26.024986,-0.29600048,-9.639488,-14.047386
1.668,53.489235,23.72674,26.974346,-0.26896477,-10.093136,-13.979556
1.67,55.1584,24.257486,27.942991,-0.2408874,-10.536774,-13.895324
1.672,56.803726,24.774452,28.926935,-0.21115828,-10.968784,-13.794475
1.674,58.420074,25.275898,29.921686,-0.17916703,-11.387772,-13.676741
1.676,60.00311,25.759533,30.923046,-0.14427876,-11.792761,-13.541805
1.678,61.548477,26.223402,31.926405,-0.105882406,-12.183029,-13.389235
1.68,63.05278,26.665901,32.927246,-0.06333947,-12.558031,-13.218565
1.682,64.51279,27.085377,33.921124,-0.015975475,-12.917496,-13.029312
1.684,65.9259,27.48036,34.90427,0.03697586,-13.261321,-12.820921
1.686,67.29066,27.850061,35.872974,0.0963639,-13.589539,-12.592817
1.688,68.60554,28.194155,36.82376,0.16310906,-13.902214,-12.34449
1.69,69.869995,28.51276,37.75403,0.2381556,-14.199367,-12.075519
1.692,71.08348,28.806719,38.661392,0.32240736,-14.48106,-11.785641
1.694,72.24607,29.078037,39.544308,0.41674873,-14.747275,-11.47474
1.696,73.358734,29.329401,40.402084,0.5220538,-14.997817,-11.142761
1.698,74.422935,29.564522,41.234646,0.63907826,-15.23259,-10.789828
1.7,75.44068,29.788445,42.042076,0.7685938,-15.451681,-10.416429
1.702,76.4147,30.007267,42.82531,0.91144913,-15.65469,-10.022911
1.704,77.34788,30.228493,43.58588,1.0684115,-15.841186,-9.609621
1.706,78.24368,30.460548,44.325657,1.240188,-16.011295,-9.177269
1.708,79.1057,30.713217,45.047478,1.4275943,-16.164602,-8.726546
1.71,79.93706,30.997423,45.75496,1.6312933,-16.300764,-8.258326
1.712,80.74201,31.3252,46.45259,1.8520069,-16.419434,-7.7735815
1.714,81.52367,31.70995,47.145287,2.0904825,-16.520164,-7.273307
1.716,82.286194,32.164806,47.838116,2.3473883,-16.60277,-6.7586603
1.718,83.03138,32.705475,48.536255,2.6234028,-16.666931,-6.230669
1.72,83.76318,33.347553,49.246056,2.9190621,-16.71249,-5.6901555
1.722,84.487526,34.104412,49.971317,3.2347577,-16.739563,-5.1377873
1.724,85.204796,34.992012,50.71546,3.570694,-16.748394,-4.574045
1.726,85.911865,36.028976,51.488083,3.9267914,-16.739538,-3.9993048
1.728,86.61698,37.229294,52.295486,4.302765,-16.713728,-3.4138322
1.73,87.321205,38.609528,53.138245,4.6981354,-16.671791,-2.8177037
1.732,88.023026,40.185474,54.0178,5.1122336,-16.614847,-2.210878
1.734,88.71946,41.973297,54.93924,5.544219,-16.544243,-1.5931447
1.736,89.41148,43.992844,55.91147,5.9929943,-16.461344,-0.96418
1.738,90.12025,46.2397,56.93064,6.4572353,-16.367584,-0.3235389
1.74,90.84738,48.7334,57.988815,6.935465,-16.264254,0.32944012
1.742,91.59122,51.494,59.07728,7.426098,-16.152462,0.9956622
1.744,92.35072,54.539383,60.18382,7.9275017,-16.033031,1.6762912
1.746,93.13586,57.882,61.314507,8.438051,-15.906255,2.3727646
1.748,93.94644,61.528923,62.466965,8.956159,-15.771849,3.0867515
1.75,94.7764,65.46635,63.63917,9.4802685,-15.628781,3.8202295
1.752,95.63893,69.68793,64.83682,10.008926,-15.475191,4.575409
1.754,96.54868,74.192535,66.05505,10.540846,-15.308373,5.3547726
1.756,97.50059,78.99693,67.265305,11.074928,-15.124823,6.1611495
1.758,98.51114,84.11611,68.429596,11.610288,-14.920373,6.997841
1.76,99.5875,89.53193,69.56483,12.146215,-14.690346,7.868402
1.762,100.65398,95.2296,70.71948,12.682263,-14.429445,8.776805
1.764,101.70931,101.169235,71.94397,13.21797,-14.131822,9.727501
1.766,102.798935,107.301544,73.276474,13.752805,-13.790645,10.725181
1.768,104.00099,113.59047,74.71448,14.286692,-13.398669,11.77589
1.77,105.40065,120.03344,76.19296,14.820269,-12.94746,12.88595
1.772,107.0103,126.637566,77.66161,15.354176,-12.42775,14.060871
1.774,108.78077,133.40749,79.09761,15.888372,-11.828702,15.305712
1.776,110.72989,140.29254,80.49542,16.420507,-11.138859,16.624405
1.778,112.86021,147.18066,81.89835,16.947243,-10.345318,18.018097
1.78,115.14235,153.99971,83.36119,17.465303,-9.431986,19.486837
1.782,117.63002,160.67072,84.93004,17.971634,-8.3794,21.030922
1.784,120.39592,167.16025,86.61452,18.460926,-7.167781,22.648104
1.786,123.45262,173.45116,88.43089,18.925137,-5.777232,24.332903
1.788,126.83098,179.49352,90.36387,19.35333,-4.1900167,26.074295
1.79,130.55061,185.1912,92.38295,19.729721,-2.3919606,27.852684
1.792,134.64117,190.48236,94.48166,20.03622,-0.36996126,29.640778
1.794,139.10963,195.2387,96.615166,20.254274,1.8874931,31.414059
1.796,143.94691,199.41174,98.74456,20.367336,4.3879747,33.152298
1.798,149.13559,202.98611,100.82248,20.359282,7.120833,34.823368
1.8,154.69836,205.90332,102.80264,20.215687,10.071577,36.394283
1.802,160.63762,208.12025,104.62397,19.930122,13.220364,37.83295
1.804,166.93681,209.62614,106.2214,19.508047,16.540956,39.104782
1.806,173.57675,210.42319,107.51178,18.959776,20.002218,40.176483
1.808,180.52788,210.52481,108.405624,18.286728,23.536755,40.995735
1.81,187.74194,209.96046,108.82067,17.507,27.07682,41.537144
1.812,195.15564,208.76837,108.68118,16.650158,30.549843,41.795563
1.814,202.68947,206.9936,107.90743,15.75222,33.875237,41.77172
1.816,210.24548,204.6929,106.42257,14.852055,36.96631,41.455936
1.818,217.71909,201.92752,104.15945,13.986434,39.73749,40.827164
1.82,224.99977,198.76047,101.05774,13.183615,42.10813,39.86103
1.822,231.96846,195.25696,97.073524,12.459888,44.010406,38.53614
1.824,238.50255,191.47682,92.18945,11.820264,45.392876,36.84381
1.826,244.47185,187.47565,86.41748,11.261886,46.231728,34.78836
1.828,249.75316,183.3034,79.79438,10.776158,46.53672,32.380516
1.83,254.23329,179.00336,72.37501,10.348893,46.34651,29.640497
1.832,257.8037,174.61397,64.23162,9.9625,45.723698,26.603497
1.834,260.37677,170.16551,55.454903,9.600527,44.751938,23.312939
1.836,261.88788,165.67998,46.16385,9.247774,43.524273,19.815523
1.838,262.2882,161.17294,36.507103,8.888926,42.129803,16.163717
1.84,261.55414,156.65648,26.652023,8.503784,40.639946,12.41772
1.842,259.68384,152.1475,16.77639,8.064238,39.099297,8.649128
1.844,256.704,147.65704,7.053772,7.5338893,37.519478,4.9430733
1.846,252.6644,143.19241,-2.3465576,6.867195,35.87593,1.3952961
1.848,247.62585,138.78209,-11.245895,6.0144596,34.115562,-1.8971834
1.85,241.69583,134.434,-19.474861,4.9289865,32.169918,-4.836959
1.852,234.99834,130.16832,-26.880524,3.5774593,29.975826,-7.3235235
1.854,227.66898,126.00777,-33.330902,1.9459114,27.47197,-9.279441
1.856,219.84412,121.97865,-38.73539,0.040865898,24.618296,-10.658863
1.858,211.6735,118.111465,-43.018456,-2.108077,21.408733,-11.450487
1.86,203.30832,114.44747,-46.135666,-4.4429326,17.874735,-11.683275
1.862,194.87329,111.007904,-48.07851,-6.878849,14.103984,-11.410742
1.864,186.48819,107.79772,-48.854774,-9.338825,10.193925,-10.742218
1.866,178.28271,104.8039,-48.48481,-11.747627,6.2577524,-9.805037
1.868,170.35196,102.0265,-47.018047,-14.032338,2.421894,-8.715752
1.87,162.78653,99.49698,-44.581177,-16.127144,-1.1853223,-7.5660744
1.872,155.72298,97.23166,-41.330322,-17.976355,-4.446594,-6.428455
1.874,149.1888,95.2563,-37.415104,-19.536018,-7.262863,-5.363883
1.876,143.16302,93.5845,-32.970222,-20.77673,-9.560888,-4.4217243
1.878,137.60577,92.201096,-28.09733,-21.686256,-11.295182,-3.637459
1.88,132.48544,91.05757,-22.863844,-22.26959,-12.453308,-3.0259004
1.882,127.83896,90.1069,-17.381456,-22.545336,-13.053608,-2.578507
1.884,123.72427,89.31862,-11.79658,-22.540625,-13.135604,-2.2725625
1.886,120.10458,88.7162,-6.2617626,-22.291834,-12.7574835,-2.0780265
1.888,116.9481,88.35768,-0.94827175,-21.843908,-11.995573,-1.9564862
1.89,114.23696,88.23645,4.0031643,-21.245167,-10.934633,-1.8642702
1.892,111.86956,88.34312,8.497392,-20.542519,-9.660091,-1.7597356
1.894,109.75096,88.62668,12.497353,-19.77911,-8.254278,-1.6086612
1.896,107.855774,89.039925,15.97039,-18.99329,-6.792511,-1.3871295
1.898,106.139694,89.57955,18.921495,-18.21733,-5.3391066,-1.082753
1.9,104.570114,90.278984,21.365757,-17.476837,-3.9441395,-0.6952758
1.902,103.10783,91.12769,23.2953,-16.790798,-2.6422825,-0.23589993
1.904,101.734535,92.16726,24.739258,-16.171429,-1.4529467,0.27539062
1.906,100.440285,93.35057,25.71455,-15.624395,-0.38136292,0.81371593
1.908,99.21169,94.618454,26.242815,-15.149802,0.5783019,1.3522928
1.91,97.99541,95.96719,26.342283,-14.743279,1.4389396,1.8657074
1.912,96.765114,97.37878,26.043781,-14.397021,2.2168865,2.3334804
1.914,95.51006,98.812546,25.377068,-14.100742,2.9299593,2.742706
1.916,94.215775,100.23217,24.383942,-13.842335,3.5950406,3.089154
1.918,92.87242,101.605804,23.104958,-13.608877,4.2266264,3.3761227
1.92,91.48053,102.90123,21.570583,-13.38924,4.835587,3.612034
1.922,90.04352,104.09206,19.808323,-13.175881,5.427059,3.807707
1.924,88.56893,105.15662,17.855068,-12.965204,6.0004387,3.9740314
1.926,87.06563,106.07393,15.748947,-12.7571945,6.5506635,4.120104
1.928,85.53688,106.828156,13.527416,-12.55481,7.069788,4.251951
1.93,83.98376,107.40856,11.231697,-12.363336,7.5482345,4.371528
1.932,82.40872,107.80629,8.8983,-12.189061,7.9754004,4.476651
1.934,80.815315,108.02016,6.5540733,-12.03843,8.340273,4.5628757
1.936,79.21194,108.05179,4.220047,-11.917656,8.632233,4.626279
1.938,77.6022,107.90517,1.9196777,-11.832037,8.841922,4.664434
1.94,75.98703,107.58686,-0.3176422,-11.784953,8.962164,4.676118
1.942,74.372345,107.10435,-2.4589539,-11.777431,8.988469,4.6613073
1.944,72.757996,106.46863,-4.472126,-11.808284,8.9195595,4.621564
1.946,71.14175,105.6936,-6.337635,-11.874266,8.757572,4.559851
1.948,69.52549,104.795204,-8.047924,-11.970351,8.5077715,4.47939
1.95,67.912636,103.78699,-9.597286,-12.090174,8.177926,4.383032
1.952,66.307724,102.67994,-10.977123,-12.22661,7.777694,4.2737694
1.954,64.71097,101.487465,-12.176739,-12.372315,7.318081,4.155198
1.956,63.122936,100.225365,-13.187038,-12.520026,6.810866,4.031189
1.958,61.540047,98.90907,-14.005716,-12.662866,6.267995,3.9055634
1.96,59.96032,97.548004,-14.634964,-12.794659,5.701385,3.7818902
1.962,58.383488,96.14938,-15.079561,-12.910245,5.122719,3.6632094
1.964,56.811268,94.7254,-15.347183,-13.005589,4.543002,3.551857
1.966,55.245605,93.29204,-15.448065,-13.077724,3.972402,3.449503
1.968,53.691063,91.86384,-15.393454,-13.124742,3.4200807,3.3572516
1.97,52.153893,90.45391,-15.194419,-13.145599,2.894044,3.2759223
1.972,50.640697,89.076164,-14.862991,-13.139962,2.4011238,3.206225
1.974,49.157246,87.745316,-14.413937,-13.108055,1.9469318,3.1488361
1.976,47.706493,86.470856,-13.864665,-13.050549,1.5358405,3.1043444
1.978,46.29032,85.252365,-13.233749,-12.968403,1.1710331,3.0732517
1.98,44.90953,84.08539,-12.539915,-12.862839,0.85454166,3.0559392
1.982,43.564724,82.966736,-11.800566,-12.735271,0.5873137,3.0525985
1.984,42.25596,81.89502,-11.031138,-12.587301,0.36928785,3.0632715
1.986,40.984314,80.871056,-10.244861,-12.420674,0.19946754,3.0877707
1.988,39.75241,79.89731,-9.454708,-12.237293,0.07605076,3.1257203
1.99,38.564335,78.97672,-8.672668,-12.0391655,-0.0033804178,3.1765523
1.992,37.42284,78.11196,-7.909838,-11.828364,-0.041746378,3.239497
1.994,36.331154,77.30261,-7.176654,-11.606977,-0.04224205,3.3136256
1.996,35.291298,76.54521,-6.4823866,-11.377022,-0.008179426,3.397877
1.998,34.303986,75.83454,-5.8349924,-11.140442,0.05720532,3.4910314
2,33.36923,75.16516,-5.2412796,-10.899063,0.15083289,3.591749
2.002,32.486782,74.532425,-4.70656,-10.654623,0.26981962,3.698581
2.004,31.65626,73.932,-4.2342567,-10.4087105,0.41146767,3.8099644
2.006,30.875576,73.360535,-3.8267508,-10.162836,0.57322407,3.9242332
2.008,30.142712,72.81499,-3.4845457,-9.918358,0.7525635,4.039653
2.01,29.455673,72.291885,-3.2069502,-9.6766,0.94695127,4.154496
2.012,28.810799,71.78832,-2.9928398,-9.4388485,1.1538932,4.2670484
2.014,28.204449,71.3009,-2.840395,-9.206248,1.3708891,4.3757453
2.016,27.63187,70.82623,-2.747223,-8.979825,1.5954199,4.479239
2.018,27.08842,70.36093,-2.710474,-8.760434,1.8250862,4.576422
2.02,26.569384,69.901665,-2.7272072,-8.548791,2.0577924,4.6664195
2.022,26.069807,69.445625,-2.794386,-8.345369,2.2917612,4.748611
2.024,25.584896,68.990265,-2.9087315,-8.150466,2.5256252,4.822665
2.026,25.110275,68.53307,-3.0669727,-7.9641476,2.7584515,4.888565
2.028,24.642311,68.07181,-3.26585,-7.786231,2.9898381,4.946538
2.03,24.17736,67.60469,-3.502367,-7.616354,3.2199194,4.9969893
2.032,23.71227,67.13022,-3.7739868,-7.453956,3.4492965,5.040408
2.034,23.244339,66.648056,-4.0782585,-7.2982984,3.6790402,5.07728
2.036,22.773502,66.15605,-4.412323,-7.148576,3.9105787,5.1080275
2.038,22.29907,65.65289,-4.7750244,-7.0038795,4.145482,5.1329684
2.04,21.821115,65.13765,-5.1658916,-6.8633256,4.385321,5.152294
2.042,21.340557,64.60983,-5.5839252,-6.7260695,4.6315365,5.166068
2.044,20.858662,64.06906,-6.028017,-6.5913267,4.8852196,5.1743507
2.046,20.377495,63.515625,-6.4973946,-6.458421,5.1469765,5.177233
2.048,19.899193,62.94992,-6.991699,-6.326761,5.4168224,5.1749234
2.05,19.426237,62.372562,-7.5112495,-6.1958303,5.6941223,5.167749
2.052,18.961525,61.78418,-8.05616,-6.065198,5.977583,5.1561675
2.054,18.508171,61.185486,-8.626814,-5.934512,6.2653375,5.140751
2.056,18.068882,60.577263,-9.223181,-5.803509,6.554982,5.1220894
2.058,17.646774,59.960163,-9.845196,-5.6720343,6.8437176,5.10069
2.06,17.244442,59.33471,-10.492447,-5.5400295,7.1284876,5.07687
2.062,16.863972,58.70137,-11.164435,-5.4075704,7.406092,5.0506573
2.064,16.507814,58.06014,-11.860442,-5.2749233,7.67334,5.021711
2.066,16.174938,57.411568,-12.579576,-5.142483,7.9271684,4.9893427
2.068,15.866901,56.755283,-13.32093,-5.010773,8.164733,4.9525576
2.07,15.58376,56.09085,-14.0836,-4.8804145,8.383518,4.9101076
2.072,15.32491,55.417618,-14.866208,-4.7521367,8.581375,4.860566
2.074,15.089383,54.73458,-15.667425,-4.6267266,8.7566185,4.802473
2.076,14.875412,54.040787,-16.48547,-4.504999,8.907994,4.7344403
2.078,14.680677,53.334743,-17.318579,-4.3877687,9.034685,4.6552744
2.08,14.502502,52.61507,-18.164604,-4.2757854,9.136324,4.564018
2.082,14.3378315,51.880272,-19.0214,-4.1697235,9.212921,4.460046
2.084,14.183427,51.128983,-19.88676,-4.0701404,9.264843,4.3430815
2.086,14.035877,50.359676,-20.758347,-3.9774787,9.292712,4.2131996
2.088,13.891709,49.571045,-21.633303,-3.8920789,9.297265,4.0708246
2.09,13.747473,48.761658,-22.508408,-3.814131,9.279253,3.916677
2.092,13.599441,47.930435,-23.380268,-3.7437732,9.239358,3.7517579
2.094,13.444481,47.07653,-24.244925,-3.6810274,9.178081,3.57731
2.096,13.279466,46.199383,-25.098087,-3.6258357,9.095625,3.3947847
2.098,13.101675,45.299217,-25.935255,-3.578082,8.991935,3.2057102
2.1,12.908849,44.37657,-26.751991,-3.5376055,8.866659,3.0116732
2.102,12.6992035,43.43236,-27.543728,-3.5042176,8.719209,2.8142557
2.104,12.471329,42.468067,-28.306194,-3.4776714,8.548888,2.6150124
2.106,12.224151,41.48587,-29.035378,-3.4576676,8.355008,2.4153926
2.108,11.957384,40.487335,-29.727135,-3.4438353,8.137042,2.216704
2.11,11.670744,39.474533,-30.377148,-3.4357133,7.8947763,2.020082
2.112,11.364588,38.449684,-30.981888,-3.432786,7.628417,1.8264451
2.114,11.0389385,37.415546,-31.538448,-3.4344773,7.3386536,1.6365347
2.116,10.695291,36.37394,-32.04377,-3.4401307,7.0267086,1.4508841
2.118,10.334787,35.327038,-32.496346,-3.4490316,6.694298,1.2698326
2.12,9.958294,34.277275,-32.894764,-3.4603915,6.3435764,1.0935694
2.122,9.567246,33.227154,-33.238174,-3.4733958,5.977055,0.92210567
2.124,9.163336,32.17899,-33.525993,-3.487231,5.597492,0.7553519
2.126,8.748093,31.13506,-33.758236,-3.5010524,5.2077546,0.5931467
2.128,8.323332,30.097586,-33.935623,-3.514053,4.8106837,0.43526447
2.13,7.8907313,29.068657,-34.059036,-3.5254602,4.409016,0.28148186
2.132,7.452187,28.050331,-34.129684,-3.5345345,4.005275,0.1316073
2.134,7.0098395,27.044367,-34.14875,-3.5406103,3.6016688,-0.014438987
2.136,6.5656557,26.052404,-34.116867,-3.5430815,3.2000377,-0.156636
2.138,6.1204996,25.07716,-34.035748,-3.5413463,2.8017957,-0.2949115
2.14,5.676316,24.120369,-33.90723,-3.5348203,2.408095,-0.4290166
2.142,5.2348547,23.183754,-33.73312,-3.5229535,2.0198362,-0.5585501
2.144,4.797732,22.2689,-33.51523,-3.5052266,1.6376688,-0.6831012
2.146,4.366864,21.377716,-33.255318,-3.4810767,1.2621559,-0.8022945
2.148,3.943822,20.512268,-32.954933,-3.4499574,0.89378583,-0.9157713
2.15,3.530448,19.674152,-32.615475,-3.4113955,0.53306913,-1.023291
2.152,3.1283083,18.864876,-32.23843,-3.36499,0.18055233,-1.1247655
2.154,2.7392159,18.08608,-31.82513,-3.3104048,-0.16312385,-1.2203193
2.156,2.3648596,17.339025,-31.376987,-3.2473686,-0.49722144,-1.310302
2.158,2.007068,16.625021,-30.89582,-3.1757119,-0.82092726,-1.3952386
2.16,1.6671972,15.945161,-30.383396,-3.0953565,-1.1333417,-1.4757975
2.162,1.3469574,15.300058,-29.841692,-3.006297,-1.4335468,-1.5527606
2.164,1.0477421,14.690235,-29.272564,-2.90861,-1.7206235,-1.6269579
2.166,0.77101207,14.115864,-28.67803,-2.8024218,-1.9936514,-1.6991388
2.168,0.5178108,13.5770235,-28.060303,-2.687809,-2.25169,-1.7700793
2.17,0.2889452,13.07353,-27.421843,-2.5648985,-2.4939673,-1.8405286
2.172,0.08553314,12.60479,-26.765192,-2.4338748,-2.7198412,-1.9111023
2.174,-0.091726184,12.170229,-26.092928,-2.2949266,-2.9287512,-1.9822689
2.176,-0.24257982,11.769027,-25.407738,-2.1481848,-3.120198,-2.0543385
2.178,-0.36657214,11.400026,-24.712284,-1.9937034,-3.2937188,-2.1275246
2.18,-0.46377897,11.06204,-24.009186,-1.8314219,-3.4488473,-2.201931
2.182,-0.5344837,10.753665,-23.301336,-1.6611738,-3.5850534,-2.2775447
2.184,-0.5789722,10.473517,-22.591377,-1.4827176,-3.7018034,-2.3542886
2.186,-0.5978209,10.219958,-21.882029,-1.295779,-3.7985485,-2.432026
2.188,-0.59165967,9.991224,-21.175753,-1.1001182,-3.874813,-2.5106013
2.19,-0.56137633,9.785555,-20.474873,-0.8956152,-3.9302888,-2.5898266
2.192,-0.50793004,9.601127,-19.781614,-0.6823789,-3.9649029,-2.6694589
2.194,-0.4324032,9.435989,-19.097881,-0.4607433,-3.9789748,-2.7493281
2.196,-0.33606356,9.2883835,-18.4254,-0.23129031,-3.973228,-2.8293145
2.198,-0.2200712,9.156446,-17.765968,0.005127728,-3.9487104,-2.9092426
2.2,-0.085681975,9.038187,-17.121275,0.24742001,-3.9068499,-2.9889507
2.202,0.065723866,8.931819,-16.49264,0.49439523,-3.8492746,-3.0683694
2.204,0.23267034,8.835257,-15.881157,0.74484193,-3.777764,-3.1474202
2.206,0.4141348,8.746565,-15.287817,0.9976122,-3.694106,-3.2260394
2.208,0.6086452,8.663828,-14.713116,1.2516732,-3.5999906,-3.3041732
2.21,0.8146211,8.585244,-14.157321,1.5061527,-3.496987,-3.3817716
2.212,1.0309489,8.509123,-13.620638,1.7603837,-3.3864787,-3.458784
2.214,1.2560898,8.4338455,-13.102783,2.0139227,-3.2696579,-3.5351477
2.216,1.4887604,8.357888,-12.603453,2.266484,-3.1475525,-3.610764
2.218,1.7276038,8.280295,-12.122373,2.517959,-3.0210786,-3.685513
2.22,1.9713502,8.200229,-11.659331,2.7683196,-2.8910937,-3.7592607
2.222,2.2186391,8.116643,-11.213693,3.01754,-2.7584593,-3.831777
2.224,2.4686153,8.028759,-10.784793,3.2656827,-2.6239042,-3.9027727
2.226,2.719717,7.936681,-10.3722,3.5128253,-2.4881833,-3.971994
2.228,2.9704719,7.840604,-9.975054,3.7590008,-2.352093,-4.039174
2.23,3.2197258,7.740876,-9.592563,4.0041595,-2.2164378,-4.104022
2.232,3.4666266,7.6378336,-9.223728,4.2481966,-2.081994,-4.1662006
2.234,3.7100587,7.532007,-8.867668,4.4909635,-1.9494778,-4.225401
2.236,3.949088,7.4243565,-8.5236,4.732285,-1.8195494,-4.281324
2.238,4.1824336,7.3158145,-8.190869,4.9720383,-1.6927426,-4.333685
2.24,4.409225,7.207647,-7.868846,5.2100906,-1.5694762,-4.382252
2.242,4.628392,7.1012897,-7.557129,5.4463773,-1.4500158,-4.4268603
2.244,4.83891,6.9983497,-7.2554083,5.6808834,-1.334471,-4.4673734
2.246,5.0399604,6.900397,-6.963681,5.9136486,-1.2228041,-4.503714
2.248,5.2315774,6.808234,-6.681242,6.144727,-1.1148751,-4.535862
2.25,5.4131207,6.723517,-6.4075317,6.3742056,-1.0104461,-4.563815
2.252,5.5838194,6.6480227,-6.141988,6.6021543,-0.9091915,-4.5875664
2.254,5.743297,6.583185,-5.884132,6.8285995,-0.8108014,-4.607126
2.256,5.8912983,6.530093,-5.633537,7.0534854,-0.71502304,-4.622443
2.258,6.0277357,6.4897375,-5.3897376,7.2767053,-0.6216635,-4.633434
2.26,6.1523285,6.4633203,-5.152563,7.498061,-0.53064036,-4.6399865
2.262,6.265193,6.451979,-4.9219456,7.717263,-0.4419815,-4.6419344
2.264,6.3665943,6.456562,-4.6976433,7.9339304,-0.35587656,-4.639091
2.266,6.4565115,6.477808,-4.479539,8.147613,-0.27270216,-4.6312513
2.268,6.5351777,6.516469,-4.2676015,8.357775,-0.19299458,-4.6181703
2.27,6.603318,6.5730457,-4.0615964,8.56387,-0.11740725,-4.5996614
2.272,6.6611986,6.6482735,-3.861394,8.765323,-0.04667168,-4.5756326
2.274,6.7093143,6.742592,-3.6668718,8.961611,0.018471412,-4.5461187
2.276,6.748331,6.8566637,-3.47789,9.152256,0.07736227,-4.5112867
2.278,6.778904,6.9907484,-3.2942116,9.336916,0.12953562,-4.471426
2.28,6.8020697,7.145114,-3.115492,9.515388,0.17473692,-4.426953
2.282,6.8186865,7.3199854,-2.9414768,9.687604,0.21298718,-4.3783374
2.284,6.829652,7.5155535,-2.771995,9.853631,0.2445359,-4.326041
2.286,6.8362203,7.732238,-2.606804,10.013649,0.26981315,-4.2704773
2.288,6.839456,7.9704823,-2.445854,10.167888,0.28936344,-4.211903
2.29,6.840693,8.230724,-2.2892234,10.3166065,0.30372348,-4.1504865
2.292,6.841576,8.513506,-2.1368647,10.46002,0.31332612,-4.086231
2.294,6.8435326,8.819199,-1.9888837,10.598311,0.31840408,-4.0190086
2.296,6.848375,9.1482315,-1.8453145,10.731593,0.31893808,-3.9485917
2.298,6.8579993,9.501019,-1.7061018,10.859922,0.31462318,-3.8747625
2.3,6.8741918,9.877893,-1.5713549,10.983308,0.3048759,-3.797316
2.302,6.8991423,10.279243,-1.4408801,11.101751,0.28891706,-3.7161477
2.304,6.9347577,10.705351,-1.3145103,11.215237,0.26581,-3.6312685
2.306,6.9830246,11.15651,-1.1921005,11.323767,0.23452002,-3.5428815
2.308,7.046188,11.63284,-1.0733445,11.427315,0.19403261,-3.4513671
2.31,7.126368,12.134382,-0.95782566,11.525803,0.1433506,-3.3572912
2.312,7.2258353,12.660835,-0.84515405,11.619072,0.08151293,-3.26131
2.314,7.346692,13.211815,-0.7348516,11.70687,0.007653415,-3.164102
2.316,7.490733,13.786628,-0.62635875,11.78883,-0.07898092,-3.0664194
2.318,7.6598883,14.384396,-0.5191884,11.86446,-0.1789599,-2.9690423
2.32,7.8562446,15.003878,-0.41273713,11.933156,-0.29265952,-2.8727746
2.322,8.081321,15.64354,-0.30638003,11.994224,-0.4202609,-2.778406
2.324,8.336723,16.301647,-0.19934106,12.046894,-0.56171095,-2.6866496
2.326,8.623731,16.975729,-0.09094572,12.090414,-0.71672606,-2.5980794
2.328,8.943558,17.663212,0.019386768,12.124079,-0.8847569,-2.5131576
2.33,9.297002,18.361647,0.13257182,12.147282,-1.0650908,-2.4322028
2.332,9.684488,19.068628,0.2493931,12.15954,-1.2568794,-2.3554273
2.334,10.106209,19.781181,0.37053484,12.160517,-1.4591674,-2.282982
2.336,10.562519,20.496067,0.49694312,12.150028,-1.6710382,-2.2150114
2.338,11.053322,21.209677,0.62950134,12.127993,-1.8916705,-2.1517055
2.34,11.577913,21.918425,0.76896566,12.094399,-2.1204758,-2.0933573
2.342,12.135123,22.61883,0.9161674,12.0492325,-2.357147,-2.0404246
2.344,12.723805,23.30765,1.0720396,11.9924555,-2.601695,-1.9935102
2.346,13.342643,23.981049,1.2374086,11.923966,-2.8544908,-1.953402
2.348,13.990164,24.635483,1.4135118,11.843577,-3.1162078,-1.9210458
2.35,14.664466,25.266813,1.6013894,11.751018,-3.3877857,-1.8975363
2.352,15.363169,25.871038,1.8020935,11.645968,-3.6703396,-1.8840561
2.354,16.083733,26.4441,2.0166001,11.528074,-3.9650693,-1.8818619
2.356,16.823523,26.981966,2.245665,11.396977,-4.2731752,-1.8922005
2.358,17.579786,27.480768,2.490304,11.252356,-4.5958266,-1.9162679
2.36,18.349289,27.936792,2.7509356,11.093909,-4.934057,-1.9551845
2.362,19.128845,28.346582,3.027954,10.921439,-5.288707,-2.0099747
2.364,19.915033,28.706978,3.3216496,10.734801,-5.6604495,-2.0815117
2.366,20.704742,29.014786,3.631854,10.533864,-6.0497637,-2.1704826
2.368,21.49477,29.267181,3.9582129,10.318531,-6.4569387,-2.277273
2.37,22.281937,29.461374,4.300337,10.088791,-6.8820596,-2.4018633
2.372,23.063097,29.59491,4.6576576,9.844733,-7.324942,-2.543838
2.374,23.834843,29.66583,5.029331,9.586534,-7.78514,-2.702457
2.376,24.59388,29.673187,5.414274,9.314497,-8.261899,-2.8767142
2.378,25.337595,29.615244,5.811142,9.029092,-8.754162,-3.0654278
2.38,26.062723,29.490578,6.218031,8.730916,-9.260543,-3.26735
2.382,26.76642,29.298138,6.633423,8.420701,-9.7793,-3.4812458
2.384,27.445621,29.037613,7.0553856,8.099279,-10.308365,-3.7059562
2.386,28.09734,28.709114,7.4822826,7.767569,-10.845335,-3.9404192
2.388,28.718796,28.313457,7.9121103,7.4264975,-11.387547,-4.1836786
2.39,29.307003,27.852005,8.342708,7.076979,-11.932113,-4.434847
2.392,29.85915,27.326511,8.7718935,6.7198143,-12.475884,-4.693091
2.394,30.372257,26.738905,9.197625,6.3557034,-13.015516,-4.9575205
2.396,30.84372,26.0912,9.617767,5.985156,-13.547543,-5.2271633
2.398,31.270916,25.386005,10.030485,5.608471,-14.068388,-5.500861
2.4,31.651318,24.626198,10.4339,5.2257767,-14.574332,-5.777235
2.402,31.982069,23.815311,10.826034,4.8371034,-15.06165,-6.05464
2.404,32.260498,22.9572,11.204993,4.4423885,-15.526602,-6.331157
2.406,32.48363,22.056082,11.568766,4.0416756,-15.96551,-6.6046915
2.408,32.64863,21.116592,11.91532,3.6350703,-16.374794,-6.873155
2.41,32.753075,20.143726,12.242973,3.2228756,-16.751053,-7.134506
2.412,32.794224,19.142677,12.549901,2.805715,-17.091063,-7.386671
2.414,32.770138,18.119116,12.834196,2.3845024,-17.391865,-7.6276774
2.416,32.679092,17.078598,13.094039,1.9605079,-17.650768,-7.8557014
2.418,32.519234,16.027222,13.32764,1.535387,-17.865313,-8.069141
2.42,32.28955,14.9710655,13.533248,1.1111422,-18.033348,-8.266592
2.422,31.989283,13.916573,13.70906,0.6900959,-18.15313,-8.4468565
2.424,31.618246,12.870225,13.853293,0.2748289,-18.22339,-8.608838
2.426,31.17687,11.8386,13.96435,-0.13180351,-18.243364,-8.75143
2.428,30.666496,10.828229,14.040552,-0.52676487,-18.212893,-8.873436
2.43,30.08892,9.84552,14.080251,-0.90692616,-18.13243,-8.973541
2.432,29.44671,8.896704,14.082111,-1.2691412,-18.00306,-9.050345
2.434,28.743334,7.9876795,14.044842,-1.6104145,-17.826477,-9.102382
2.436,27.982925,7.1241493,13.967627,-1.9279938,-17.605042,-9.128257
2.438,27.17041,6.3111267,13.850046,-2.2194967,-17.3417,-9.126726
2.44,26.311396,5.552637,13.691757,-2.4830518,-17.03993,-9.096897
2.442,25.412132,4.851982,13.493064,-2.7173595,-16.703598,-9.038314
2.444,24.479189,4.2120695,13.254781,-2.9217896,-16.336926,-8.95114
2.446,23.519417,3.6350327,12.977977,-3.0963583,-15.944344,-8.836113
2.448,22.540218,3.1221285,12.664158,-3.2417746,-15.530369,-8.694583
2.45,21.549015,2.673895,12.315324,-3.3592792,-15.099402,-8.528414
2.452,20.553307,2.2896805,11.933881,-3.4505916,-14.655642,-8.339884
2.454,19.560516,1.9679451,11.522552,-3.5178003,-14.202956,-8.131521
2.456,18.577923,1.7065625,11.084448,-3.563221,-13.744749,-7.905971
2.458,17.612183,1.5024323,10.623036,-3.5892286,-13.283854,-7.665827
2.46,16.669641,1.3520894,10.141835,-3.598198,-12.822536,-7.4135394
2.462,15.756186,1.2514377,9.644716,-3.592337,-12.362547,-7.1513133
2.464,14.877119,1.1958709,9.135399,-3.5736694,-11.905113,-6.881164
2.466,14.036895,1.180387,8.617647,-3.544004,-11.451027,-6.6050053
2.468,13.23938,1.1996231,8.0951,-3.5049226,-11.000765,-6.3245654
2.47,12.487713,1.2479095,7.571509,-3.457761,-10.554573,-6.0413365
2.472,11.78444,1.3197489,7.0502543,-3.4036353,-10.112566,-5.7566295
2.474,11.131043,1.4097676,6.534339,-3.3434777,-9.674778,-5.4716024
2.476,10.528693,1.5129714,6.0267544,-3.2780404,-9.241165,-5.187224
2.478,9.977411,1.6246948,5.5301504,-3.2079458,-8.81168,-4.9043436
2.48,9.4771,1.7409449,5.046878,-3.1336942,-8.386277,-4.6236935
2.482,9.026907,1.8580289,4.5790625,-3.055698,-7.9649196,-4.34589
2.484,8.625793,1.972642,4.1284537,-2.97429,-7.547578,-4.0714755
2.486,8.272296,2.0816748,3.6967096,-2.889712,-7.1342163,-3.8009295
2.488,7.964091,2.1834462,3.2854853,-2.8021326,-6.7247777,-3.5346658
2.49,7.6990867,2.2766914,2.8960733,-2.7116656,-6.3190827,-3.2730265
2.492,7.474905,2.3604233,2.5294137,-2.6183896,-5.9168797,-3.016344
2.494,7.2893696,2.4336772,2.1862965,-2.5223627,-5.5178604,-2.7649283
2.496,7.139942,2.4958286,1.8671179,-2.4236474,-5.1216707,-2.519022
2.498,7.023828,2.5465903,1.5723827,-2.3222861,-4.7279673,-2.2788308
2.5,6.938537,2.5859315,1.3024199,-2.2183547,-4.336401,-2.0445359
2.502,6.881384,2.6143136,1.0575109,-2.111967,-3.946658,-1.8162897
2.504,6.8501263,2.6325164,0.8376348,-2.0032823,-3.558521,-1.5942371
2.506,6.8419514,2.6414385,0.6425116,-1.8925459,-3.171884,-1.3784995
2.508,6.8546762,2.6420174,0.47162688,-1.780049,-2.7867222,-1.1691735
2.51,6.8859034,2.6354167,0.32448757,-1.6661258,-2.4031007,-0.9663683
2.512,6.9338536,2.6225905,0.2003237,-1.5511754,-2.0211651,-0.77017766
2.514,6.996847,2.604648,0.09808636,-1.4356179,-1.6410824,-0.5806717
2.516,7.073524,2.582598,0.016765475,-1.3198576,-1.263062,-0.39790422
2.518,7.162715,2.5572488,-0.045001984,-1.2042701,-0.88734305,-0.22192085
2.52,7.263114,2.5294862,-0.08881247,-1.089175,-0.5141795,-0.052745044
2.522,7.3737907,2.5000386,-0.116346836,-0.97480774,-0.1438362,0.1096425
2.524,7.493786,2.4696796,-0.12915862,-0.86131877,0.22338724,0.26525941
2.526,7.622177,2.4389408,-0.1289773,-0.7487636,0.5871538,0.41412094
2.528,7.7585826,2.408236,-0.11757028,-0.6371079,0.947085,0.55619985
2.53,7.902302,2.3780591,-0.09672046,-0.5262636,1.302777,0.6914133
2.532,8.053069,2.3485603,-0.06805003,-0.41610995,1.6537688,0.8195909
2.534,8.210568,2.3199031,-0.03319204,-0.30652344,1.9995849,0.9404918
2.536,8.374396,2.291862,0.006194949,-0.1973865,2.3397317,1.0538046
2.538,8.544215,2.2644022,0.048710108,-0.08863956,2.6737273,1.1591749
2.54,8.7196665,2.2373018,0.09281325,0.019715667,3.0011106,1.2562404
2.542,8.900452,2.2102647,0.13715875,0.12759888,3.321434,1.3446357
2.544,9.086135,2.1829982,0.18048167,0.2348597,3.6342483,1.424051
2.546,9.276285,2.1551015,0.22134101,0.34130383,3.9391398,1.4943006
2.548,9.470272,2.1262026,0.25859654,0.4466827,4.235719,1.5553318
2.55,9.667683,2.095899,0.29120922,0.5507299,4.5235767,1.607217
2.552,9.867791,2.0639825,0.31803298,0.65314615,4.802303,1.6501157
2.554,10.070004,2.029994,0.3381703,0.75363195,5.07144,1.6843326
2.556,10.273593,1.9937305,0.35092568,0.85187423,5.3304925,1.7102435
2.558,10.477592,1.9550467,0.35564232,0.947559,5.578917,1.7282966
2.56,10.681313,1.9137831,0.3516537,1.0404006,5.816137,1.7389567
2.562,10.883867,1.8700004,0.3387134,1.1301079,6.041492,1.7427149
2.564,11.084205,1.8237019,0.31644428,1.2164143,6.254282,1.7400684
2.566,11.28122,1.7752118,0.2847563,1.2990994,6.453775,1.7314907
2.568,11.474201,1.7246466,0.24347055,1.3779705,6.6392174,1.7174592
2.57,11.662283,1.6723008,0.19274473,1.4528685,6.8098745,1.6984117
2.572,11.844592,1.618382,0.13279897,1.5236596,6.965067,1.6747797
2.574,12.020115,1.5634036,0.064000726,1.590243,7.1041765,1.6469686
2.576,12.188186,1.5077367,-0.013194859,1.6525484,7.226681,1.6153712
2.578,12.348055,1.4519029,-0.0983659,1.7105267,7.332218,1.5803663
2.58,12.498971,1.3964849,-0.19100046,1.7641658,7.420567,1.5423253
2.582,12.640502,1.341876,-0.290541,1.8134917,7.491712,1.501609
2.584,12.772233,1.2885652,-0.3964035,1.858553,7.5457993,1.458569
2.586,12.89352,1.2370548,-0.50790393,1.8994277,7.583153,1.4135311
2.588,13.0044,1.1876678,-0.624614,1.9362369,7.6042576,1.366807
2.59,13.104563,1.1407819,-0.7459652,1.9691131,7.6097336,1.3186809
2.592,13.194208,1.0967107,-0.87157303,1.9982123,7.6002913,1.2694384
2.594,13.27333,1.0557804,-1.0008609,2.0236974,7.576692,1.2193449
2.596,13.342083,1.018261,-1.1335142,2.045735,7.5397334,1.1686952
2.598,13.400833,0.984426,-1.2692325,2.0644836,7.4901905,1.117791
2.6,13.450076,0.9545307,-1.407685,2.0800714,7.4287853,1.0669136
2.602,13.490253,0.92881584,-1.5486307,2.0926201,7.3561826,1.0163717
2.604,13.521864,0.9074006,-1.6917572,2.1022232,7.272951,0.96644145
2.606,13.545404,0.8904071,-1.8368776,2.108944,7.179575,0.91738707
2.608,13.561663,0.8779106,-1.9837921,2.1127977,7.0764523,0.86941963
2.61,13.571138,0.8698416,-2.1322541,2.1138024,6.963871,0.82268775
2.612,13.574671,0.8660846,-2.2821596,2.1119342,6.842078,0.77728844
2.614,13.572736,0.8665705,-2.4332552,2.107155,6.7112775,0.73325294
2.616,13.566231,0.87111044,-2.5853753,2.0994327,6.5716515,0.6905345
2.618,13.555502,0.8795223,-2.738064,2.0887308,6.42336,0.6490366
2.62,13.541285,0.89149475,-2.8913097,2.075021,6.266584,0.6086086
2.622,13.52408,0.9067273,-3.0447962,2.0583003,6.101574,0.56907654
2.624,13.504206,0.924788,-3.1981747,2.0385797,5.9286113,0.5302474
2.626,13.482049,0.9452319,-3.3512127,2.0158587,5.748036,0.49192846
2.628,13.457804,0.967649,-3.5034509,1.9901507,5.5602555,0.45394176
2.63,13.431711,0.9914942,-3.654537,1.9614543,5.365733,0.4161296
2.632,13.4038925,1.016407,-3.8040693,1.9297602,5.1649714,0.37837785
2.634,13.374315,1.0416403,-3.9517038,1.8950418,4.958516,0.34061626
2.636,13.342991,1.066886,-4.096987,1.8572533,4.7468953,0.30281645
2.638,13.309749,1.0916872,-4.2395296,1.8163558,4.530647,0.26499635
2.64,13.274448,1.1155567,-4.3789635,1.7723172,4.3102865,0.22721648
2.642,13.236891,1.1379414,-4.514915,1.725105,4.0863037,0.18957579
2.644,13.196857,1.1584754,-4.6470633,1.6747355,3.8591409,0.15221033
2.646,13.154254,1.1768551,-4.7749696,1.6212461,3.6292162,0.11527367
2.648,13.108673,1.1926174,-4.898288,1.5647149,3.3969223,0.07893276
2.65,13.059786,1.205523,-5.016507,1.5052738,3.1626182,0.043335654
2.652,13.007544,1.2153878,-5.129371,1.4430866,2.9266574,0.008652277
2.654,12.951648,1.2219439,-5.236555,1.378353,2.6893668,-0.024970025
2.656,12.891942,1.2252207,-5.3375163,1.3113022,2.4510715,-0.057418447
2.658,12.828403,1.2250609,-5.432038,1.242184,2.2121003,-0.088590294
2.66,12.760817,1.2214923,-5.519754,1.1712811,1.9727811,-0.118386656
2.662,12.689273,1.2144523,-5.6002483,1.0988872,1.7334167,-0.14675115
2.664,12.613795,1.2041612,-5.6733317,1.025281,1.4943409,-0.17363665
2.666,12.534563,1.1906681,-5.738681,0.9507498,1.2558749,-0.19903205
2.668,12.451824,1.1741896,-5.796161,0.87558085,1.0183417,-0.2229589
2.67,12.365734,1.1548405,-5.845397,0.8000383,0.78209,-0.24542312
2.672,12.276652,1.1328115,-5.886477,0.72438914,0.54746056,-0.26644397
2.674,12.18492,1.108408,-5.9192724,0.6489061,0.31482342,-0.28603604
2.676,12.091034,1.0818257,-5.9437056,0.57385695,0.08452344,-0.30421793
2.678,11.99539,1.053379,-5.9598436,0.49949378,-0.14309278,-0.32100978
2.68,11.898423,1.0233359,-5.9677873,0.42609313,-0.36768886,-0.33644336
2.682,11.800657,0.9920807,-5.967683,0.35390142,-0.5889596,-0.35055023
2.684,11.702681,0.95982313,-5.959729,0.28316763,-0.80663437,-0.3633785
2.686,11.6048975,0.92692184,-5.944136,0.21410865,-1.0204706,-0.37498322
2.688,11.507795,0.8937845,-5.9212327,0.14693391,-1.2302692,-0.38544217
2.69,11.411954,0.86062765,-5.891265,0.08182585,-1.4358495,-0.39484018
2.692,11.317787,0.82783794,-5.85462,0.018945515,-1.6370533,-0.4032671
2.694,11.225775,0.7957773,-5.811531,-0.041583538,-1.8337367,-0.41081235
2.696,11.136335,0.7648349,-5.7625685,-0.09965277,-2.0257719,-0.4175679
2.698,11.049841,0.73528624,-5.708036,-0.15518057,-2.2130253,-0.42360598
2.7,10.96669,0.7074528,-5.6484,-0.20808804,-2.3953695,-0.4289879
2.702,10.887138,0.6817479,-5.5841923,-0.2582966,-2.5726812,-0.43376768
2.704,10.81151,0.6584935,-5.515858,-0.30572593,-2.744836,-0.43797466
2.706,10.740089,0.63803244,-5.443949,-0.35027957,-2.9116998,-0.4416379
2.708,10.67299,0.62056637,-5.368906,-0.39184463,-3.0731266,-0.44478709
2.71,10.610283,0.60647535,-5.2912803,-0.4303062,-3.2289932,-0.4474416
2.712,10.552059,0.5959096,-5.211583,-0.46554387,-3.3791733,-0.44962817
2.714,10.498386,0.5891104,-5.1303244,-0.49742126,-3.5235407,-0.45138076
2.716,10.449308,0.5862136,-5.048,-0.5258142,-3.6619506,-0.45272171
2.718,10.404718,0.5872965,-4.964979,-0.5505955,-3.7942853,-0.45366508
2.72,10.364438,0.59248877,-4.8817225,-0.57165813,-3.9204369,-0.4542196
2.722,10.328325,0.60176516,-4.7985897,-0.5889163,-4.0403137,-0.45439842
2.724,10.296232,0.61501074,-4.7160873,-0.6022899,-4.153853,-0.454226
2.726,10.267811,0.63217497,-4.6342773,-0.6117525,-4.2610044,-0.4537306
2.728,10.242896,0.6530409,-4.553744,-0.6172867,-4.3617644,-0.45293874
2.73,10.221134,0.67745876,-4.4744587,-0.6189101,-4.456147,-0.45189813
2.732,10.202233,0.7051501,-4.396788,-0.616645,-4.5441923,-0.45064715
2.734,10.185932,0.7359791,-4.320787,-0.6105385,-4.625955,-0.44923675
2.736,10.17186,0.76956177,-4.2465396,-0.6006545,-4.701507,-0.4477307
2.738,10.159642,0.8057151,-4.1742325,-0.58707356,-4.7709312,-0.44618812
2.74,10.148992,0.844038,-4.1038623,-0.5698557,-4.8343115,-0.444652
2.742,10.139599,0.88414145,-4.0354934,-0.54908085,-4.89172,-0.44316712
2.744,10.131148,0.9258704,-3.969024,-0.5248271,-4.9432535,-0.441759
2.746,10.123394,0.96883917,-3.9044263,-0.49715972,-4.988982,-0.44043154
2.748,10.115927,1.0127988,-3.8416715,-0.46612847,-5.0289645,-0.43918192
2.75,10.10859,1.0575352,-3.780548,-0.4317844,-5.063261,-0.43800128
2.752,10.101049,1.1028924,-3.7211127,-0.39417744,-5.0919285,-0.4368779
2.754,10.093187,1.1486211,-3.663249,-0.353361,-5.1150184,-0.43577665
2.756,10.084799,1.1946268,-3.606969,-0.3093984,-5.1325865,-0.4346658
2.758,10.075791,1.24084,-3.5523,-0.26236343,-5.144699,-0.43353635
2.76,10.066214,1.2870817,-3.4992056,-0.2123506,-5.1514254,-0.43238133
2.762,10.055699,1.3334131,-3.447703,-0.15947843,-5.1528645,-0.43119287
2.764,10.044418,1.379797,-3.3978524,-0.10386896,-5.1491184,-0.42998123
2.766,10.032388,1.4261513,-3.3497486,-0.045661688,-5.140327,-0.4287604
2.768,10.019521,1.4724855,-3.3035233,0.014980316,-5.1266356,-0.42754906
2.77,10.006083,1.5188522,-3.2592685,0.077890635,-5.1082325,-0.42636257
2.772,9.992096,1.5652514,-3.2171755,0.14289713,-5.0853167,-0.4252143
2.774,9.977539,1.611814,-3.1773615,0.20982957,-5.0581064,-0.4241249
2.776,9.9627,1.6584883,-3.1400368,0.2785244,-5.0268536,-0.4230836
2.778,9.947556,1.7053967,-3.105333,0.34882486,-4.991811,-0.42208844
2.78,9.932394,1.7525425,-3.0734773,0.42058468,-4.9532566,-0.4211381
2.782,9.917386,1.7999358,-3.0446014,0.49367,-4.9114804,-0.42024356
2.784,9.902808,1.847682,-3.0188093,0.5679642,-4.8667727,-0.41939873
2.786,9.888764,1.8958268,-2.9963117,0.64334655,-4.8194265,-0.4186147
2.788,9.87549,1.9444871,-2.977161,0.7197106,-4.7697463,-0.41790468
2.79,9.863201,1.9937363,-2.9615388,0.79696727,-4.718023,-0.4172809
2.792,9.852125,2.0434875,-2.9494915,0.8750057,-4.6645327,-0.41675597
2.794,9.842376,2.0939503,-2.9410977,0.9537276,-4.60956,-0.4163512
2.796,9.834108,2.1451254,-2.9363706,1.0330408,-4.5533824,-0.41607362
2.798,9.827639,2.1969194,-2.9352877,1.1128577,-4.496254,-0.4159339
2.8,9.823201,2.249423,-2.9378028,1.1930693,-4.4384437,-0.41592878
2.802,9.820654,2.3027549,-2.9438617,1.2735585,-4.380211,-0.41605043
2.804,9.820311,2.3568888,-2.9534123,1.3542197,-4.3218203,-0.4162867
2.806,9.822224,2.4118295,-2.966227,1.4349385,-4.263509,-0.41662174
2.808,9.826528,2.4677207,-2.9821434,1.5156041,-4.205534,-0.41704297
2.81,9.83328,2.524498,-3.000924,1.596076,-4.1481442,-0.4175263
2.812,9.842472,2.5821772,-3.0222764,1.6762397,-4.0915937,-0.4180352
2.814,9.854169,2.6407895,-3.0460193,1.7559758,-4.0361366,-0.41852105
2.816,9.868391,2.7004023,-3.071755,1.8351771,-3.9820042,-0.41892493
2.818,9.885216,2.7611384,-3.0991845,1.9137313,-3.9294255,-0.41918075
2.82,9.904435,2.8229656,-3.127825,1.9915426,-3.878622,-0.41922438
2.822,9.926173,2.885956,-3.1572928,2.0685234,-3.829801,-0.41895694
2.824,9.95036,2.950201,-3.1871908,2.1446047,-3.7831595,-0.4182961
2.826,9.976844,3.0157413,-3.217059,2.2197137,-3.738867,-0.4171577
2.828,10.005434,3.082779,-3.2464213,2.293781,-3.6970882,-0.41544974
2.83,10.036228,3.1513777,-3.2748058,2.3667502,-3.6579573,-0.4131168
2.832,10.068834,3.2216759,-3.3016887,2.438576,-3.6215963,-0.41011244
2.834,10.103203,3.2937717,-3.3265843,2.5092134,-3.5880952,-0.4063856
2.836,10.139188,3.3678424,-3.349133,2.5786161,-3.5575292,-0.40191507
2.838,10.176546,3.4440446,-3.3688178,2.646754,-3.529951,-0.3966908
2.84,10.215102,3.522437,-3.3852026,2.7136078,-3.5054088,-0.39071137
2.842,10.254513,3.6032548,-3.3976755,2.779166,-3.483902,-0.38397443
2.844,10.294647,3.6865256,-3.4058852,2.843423,-3.4654295,-0.3764872
2.846,10.3351965,3.7724037,-3.4094954,2.9064093,-3.4499745,-0.36825377
2.848,10.375869,3.861051,-3.4079707,2.9681613,-3.4374928,-0.35926586
2.85,10.416382,3.9526396,-3.4009807,3.0287347,-3.4279268,-0.34950602
2.852,10.456384,4.047302,-3.3881273,3.088205,-3.4211853,-0.3389567
2.854,10.495497,4.1451163,-3.369133,3.1466625,-3.4171455,-0.3275798
2.856,10.533513,4.246231,-3.3436027,3.2042344,-3.415668,-0.3153333
2.858,10.570175,4.3508067,-3.3112924,3.2610488,-3.4165618,-0.30213135
2.86,10.6051,4.458838,-3.2719905,3.3172412,-3.4196105,-0.2878856
2.862,10.637905,4.570528,-3.2254536,3.3729615,-3.424561,-0.27250105
2.864,10.668178,4.6860614,-3.1715083,3.4283805,-3.431126,-0.25586122
2.866,10.695639,4.805507,-3.110086,3.4836526,-3.4389887,-0.2378453
2.868,10.720072,4.9289346,-3.040989,3.5389364,-3.4478226,-0.21833682
2.87,10.741035,5.056503,-2.9642496,3.594386,-3.457297,-0.19722182
2.872,10.758262,5.188208,-2.8798862,3.6501496,-3.4671082,-0.17437631
2.874,10.771365,5.3243456,-2.7878847,3.7063525,-3.4769683,-0.1496976
2.876,10.780022,5.464823,-2.6882226,3.7631016,-3.4866467,-0.12308663
2.878,10.783899,5.609847,-2.5809689,3.8204808,-3.4959822,-0.09443879
2.88,10.782677,5.7594137,-2.466289,3.8785284,-3.5048757,-0.06367493
2.882,10.775963,5.913551,-2.3442404,3.937257,-3.5133018,-0.030700922
2.884,10.763481,6.0721526,-2.2148714,3.9966478,-3.5213027,0.004559815
2.886,10.744738,6.2353797,-2.078372,4.0566397,-3.5289803,0.042173564
2.888,10.719545,6.4030786,-1.9347332,4.117165,-3.5364666,0.08217591
2.89,10.687415,6.5753484,-1.7840796,4.1781297,-3.5439067,0.124611676
2.892,10.64769,6.752045,-1.6264615,4.2394347,-3.5514395,0.16951025
2.894,10.600165,6.9330354,-1.4618979,4.300988,-3.5591748,0.21689391
2.896,10.544161,7.118184,-1.2904148,4.3627114,-3.5671878,0.2667722
2.898,10.479258,7.3073463,-1.1119947,4.42455,-3.5754812,0.31915426
2.9,10.404778,7.5004787,-0.9264331,4.4864664,-3.5839956,0.37404847
2.902,10.320162,7.6974316,-0.733706,4.5484333,-3.5925975,0.43146038
2.904,10.224831,7.8978796,-0.53352547,4.610458,-3.6011152,0.4913997
2.906,10.118086,8.101866,-0.3254671,4.6725545,-3.6093242,0.55389774
2.908,9.999743,8.308838,-0.10972357,4.7347517,-3.616971,0.6189667
2.91,9.868906,8.518303,0.11404276,4.7970543,-3.623773,0.68662035
2.912,9.724639,8.729985,0.3463745,4.8594656,-3.6294708,0.75684726
2.914,9.566207,8.943758,0.58764315,4.92197,-3.6338131,0.82964814
2.916,9.393222,9.15916,0.8380847,4.9845114,-3.6365998,0.9049846
2.918,9.205103,9.375736,1.098103,5.047018,-3.6376696,0.9827969
2.92,9.001389,9.593173,1.3680744,5.10938,-3.6368973,1.0630015
2.922,8.781527,9.811084,1.6485696,5.1714797,-3.6341703,1.1455023
2.924,8.54491,10.0292,1.9400454,5.2331805,-3.629399,1.230194
2.926,8.291317,10.247034,2.24302,5.294346,-3.622448,1.3169713
2.928,8.020529,10.463862,2.5580254,5.3548613,-3.6131654,1.4057415
2.93,7.732913,10.678781,2.8857594,5.4146333,-3.601337,1.4964256
2.932,7.42839,10.8911,3.2269692,5.4736004,-3.5866396,1.5889683
2.934,7.107524,11.09989,3.5823402,5.5317683,-3.5686092,1.6833721
2.936,6.7710276,11.304435,3.95254,5.5891876,-3.5465736,1.779635
2.938,6.419894,11.503679,4.3381214,5.6459637,-3.5196862,1.87785
2.94,6.0554132,11.696596,4.739477,5.702244,-3.4869633,1.9782143
2.942,5.679311,11.882054,5.156925,5.7582784,-3.4471846,2.0809762
2.944,5.293619,12.059009,5.590121,5.814406,-3.3988917,2.1864429
2.946,4.9002604,12.226122,6.039546,5.8710256,-3.3404624,2.2949605
2.948,4.5025196,12.381767,6.5047445,5.928595,-3.27015,2.4069033
2.95,4.1032557,12.524557,6.9846063,5.987629,-3.1860938,2.5226555
2.952,3.7053597,12.653014,7.47833,6.0486865,-3.086351,2.6425605
2.954,3.3120642,12.765785,7.9844337,6.112392,-2.968967,2.766897
2.956,2.9268885,12.861583,8.501138,6.1794033,-2.8320267,2.8958273
2.958,2.553355,12.938887,9.026594,6.250371,-2.673725,3.029398
2.96,2.1948934,12.996479,9.558699,6.3259254,-2.4924335,3.1674848
2.962,1.8549385,13.033094,10.094895,6.406695,-2.2866647,3.3098125
2.964,1.5367486,13.047685,10.632516,6.493248,-2.055137,3.455892
2.966,1.2433363,13.039288,11.168617,6.58607,-1.7968094,3.6050088
2.968,0.97724044,13.0071745,11.700294,6.6854696,-1.5109415,3.7562375
2.97,0.7407284,12.951037,12.224222,6.791516,-1.1971322,3.9085128
2.972,0.53560555,12.870732,12.737143,6.903989,-0.8553712,4.0606933
2.974,0.3630904,12.76631,13.235804,7.022343,-0.48609078,4.2116246
2.976,0.22380114,12.638208,13.716705,7.1456466,-0.09021878,4.360197
2.978,0.1178174,12.487097,14.17609,7.2725997,0.33096367,4.505465
2.98,0.044800043,12.314129,14.61007,7.401488,0.77574843,4.646681
2.982,0.003409624,12.120964,15.014915,7.5303044,1.242059,4.783373
2.984,-0.008284807,11.909596,15.386719,7.6568384,1.727542,4.915267
2.986,0.0073652267,11.682495,15.721567,7.7787366,2.2294893,5.042261
2.988,0.047167063,11.442238,16.01598,7.8935766,2.7448595,5.1643596
2.99,0.10749602,11.191751,16.266512,7.998987,3.2703006,5.281636
2.992,0.18439937,10.9343405,16.470146,8.092712,3.802186,5.394084
2.994,0.273458,10.673459,16.624084,8.172674,4.3365912,5.501586
2.996,0.36998415,10.412621,16.726181,8.236983,4.869244,5.6039467
2.998,0.46910763,10.155265,16.774603,8.283964,5.395564,5.700829
3,0.5659275,9.905007,16.767986,8.312281,5.9108543,5.7917933
3.002,0.6557727,9.665354,16.704971,8.320865,6.410368,5.876264
3.004,0.7335868,9.439392,16.585157,8.308994,6.8894606,5.953578
3.006,0.7952676,9.22995,16.40853,8.276276,7.343718,6.023019
3.008,0.83659124,9.039535,16.175678,8.222604,7.7691483,6.083894
3.01,0.8539486,8.870243,15.8876295,8.148231,8.162348,6.135546
3.012,0.84412,8.723878,15.545917,8.053705,8.520558,6.177293
3.014,0.8045063,8.601698,15.152512,7.9398417,8.841755,6.208502
3.016,0.73327875,8.5042,14.709513,7.807626,9.124518,6.2285805
3.018,0.62853956,8.431972,14.220184,7.658187,9.368105,6.2370596
3.02,0.48982382,8.384871,13.687476,7.492724,9.572314,6.233591
3.022,0.31743193,8.361969,13.114517,7.31249,9.737387,6.2179384
3.024,0.11176586,8.361929,12.505053,7.118735,9.863893,6.1899915
3.026,-0.12643671,8.383395,11.86299,6.912607,9.952511,6.1497393
3.028,-0.39561415,8.424647,11.192389,6.6951923,10.003993,6.097338
3.03,-0.69359684,8.483562,10.497376,6.467441,10.019058,6.0330467
3.032,-1.0178165,8.557971,9.782229,6.230199,9.998236,5.9572344
3.034,-1.3651533,8.645496,9.051199,5.984196,9.941929,5.8703694
3.036,-1.7326708,8.744074,8.308735,5.7300715,9.850446,5.7730317
3.038,-2.1168942,8.851549,7.5591784,5.468438,9.724068,5.665983
3.04,-2.5146747,8.966089,6.80677,5.199935,9.56323,5.550108
3.042,-2.9222188,9.085622,6.0557327,4.925272,9.368592,5.4263954
3.044,-3.3361177,9.208137,5.3102126,4.6452427,9.141097,5.2959256
3.046,-3.753046,9.33177,4.574342,4.3607473,8.882122,5.159873
3.048,-4.1698084,9.454797,3.8518496,4.072795,8.593477,5.0194597
3.05,-4.583462,9.57555,3.1466634,3.7824981,8.277408,4.8758993
3.052,-4.991296,9.692642,2.4621868,3.4910386,7.936577,4.7303495
3.054,-5.390934,9.804421,1.8022182,3.1996377,7.573946,4.583871
3.056,-5.7801247,9.909752,1.1691141,2.9095376,7.1927066,4.4373875
3.058,-6.157736,10.007601,0.5658598,2.6219542,6.7961917,4.291657
3.06,-6.5222044,10.096793,-0.004827976,2.338031,6.387734,4.147222
3.062,-6.8720603,10.176146,-0.541173,2.0588226,5.9705815,4.004369
3.064,-7.2065997,10.244562,-1.0412974,1.7852736,5.5478296,3.8632133
3.066,-7.5253325,10.30098,-1.5037093,1.5181715,5.1223307,3.7237167
3.068,-7.828228,10.344598,-1.9276643,1.2581625,4.6966286,3.5856998
3.07,-8.115375,10.374572,-2.3126068,1.0057354,4.2729473,3.4488835
3.072,-8.38717,10.39019,-2.6580987,0.7612355,3.8531532,3.3129385
3.074,-8.644264,10.390963,-2.9641123,0.52488065,3.4387567,3.1775286
3.076,-8.887518,10.376532,-3.2307858,0.2967645,3.0309312,3.0423784
3.078,-9.117676,10.346657,-3.4585423,0.07687402,2.6305747,2.9072943
3.08,-9.335768,10.301027,-3.6478224,-0.134848,2.238346,2.7722363
3.082,-9.542733,10.239751,-3.7992988,-0.33846867,1.8547194,2.6373072
3.084,-9.739788,10.163245,-3.9138646,-0.5340532,1.4800498,2.5027556
3.086,-9.927948,10.071974,-3.9922376,-0.7216114,1.1146839,2.3689475
3.088,-10.108378,9.966722,-4.035158,-0.9011383,0.7589655,2.2363446
3.09,-10.282213,9.848196,-4.0433874,-1.0726218,0.41327435,2.105434
3.092,-10.449984,9.717174,-4.017946,-1.2360462,0.078027725,1.9767191
3.094,-10.612593,9.574577,-3.9600987,-1.3913804,-0.24628454,1.8507116
3.096,-10.770693,9.421498,-3.8709273,-1.5385693,-0.5591247,1.7279022
3.098,-10.924686,9.259135,-3.7520156,-1.6775553,-0.85987276,1.608746
3.1,-11.074912,9.0886345,-3.6049666,-1.8082666,-1.14786,1.4936472
3.102,-11.221642,8.911177,-3.4316306,-1.9306228,-1.4223701,1.382966
3.104,-11.3650675,8.727819,-3.233786,-2.0445373,-1.6826599,1.276997
3.106,-11.505124,8.5395775,-3.013659,-2.1499252,-1.9279847,1.1759865
3.108,-11.641733,8.34762,-2.7733788,-2.2466938,-2.1576138,1.0800891
3.11,-11.774645,8.1527195,-2.5149655,-2.3347769,-2.3708644,0.9893813
3.112,-11.9035635,7.955597,-2.2402616,-2.4141064,-2.5671368,0.90384936
3.114,-12.027822,7.7569685,-1.9515815,-2.4846673,-2.7459266,0.82337093
3.116,-12.147162,7.5575786,-1.6511502,-2.5464754,-2.9068587,0.74773693
3.118,-12.261005,7.3576937,-1.3412132,-2.5996046,-3.0497296,0.6766522
3.12,-12.368786,7.157749,-1.0238681,-2.644184,-3.1744757,0.6097697
3.122,-12.46984,6.9578414,-0.70115566,-2.6804123,-3.2811854,0.5466993
3.124,-12.563696,6.758268,-0.37519073,-2.7085369,-3.3700962,0.48703647
3.126,-12.64959,6.559184,-0.04778576,-2.7288496,-3.441582,0.4303996
3.128,-12.727091,6.3607597,0.27917624,-2.7416837,-3.4961483,0.3764513
3.13,-12.795332,6.1630807,0.603982,-2.7473793,-3.534403,0.32492077
3.132,-12.85409,5.966175,0.9250369,-2.746301,-3.5570512,0.27559376
3.134,-12.902979,5.7702894,1.2407889,-2.7388206,-3.5648625,0.22828965
3.136,-12.941455,5.575487,1.5499139,-2.7253368,-3.5586593,0.1828942
3.138,-12.969344,5.381914,1.8511047,-2.7062364,-3.539328,0.13934004
3.14,-12.98662,5.189801,2.1432638,-2.6819148,-3.5077698,0.09760003
3.142,-12.993107,4.999311,2.4253411,-2.6527426,-3.4648874,0.05765459
3.144,-12.988935,4.8107376,2.696549,-2.619092,-3.411562,0.01949805
3.146,-12.974244,4.624254,2.9560738,-2.5813217,-3.348659,-0.016892105
3.148,-12.949263,4.440254,3.203267,-2.5397706,-3.27701,-0.0515427
3.15,-12.914112,4.2589245,3.4376621,-2.4947624,-3.1973822,-0.0845007
3.152,-12.869209,4.0806584,3.658804,-2.4466298,-3.1105154,-0.115859434
3.154,-12.814979,3.9058003,3.8664532,-2.3956804,-3.0170815,-0.14572431
3.156,-12.751631,3.734675,4.060392,-2.3422172,-2.9176922,-0.17423978
3.158,-12.679731,3.5676894,4.240612,-2.2865329,-2.8129108,-0.20154028
3.16,-12.599753,3.4053233,4.4069347,-2.2289186,-2.7032466,-0.2277922
3.162,-12.512157,3.2478797,4.5594854,-2.1696515,-2.589164,-0.2531647
3.164,-12.417444,3.095745,4.698119,-2.1089962,-2.4711082,-0.2778206
3.166,-12.315973,2.9492702,4.8229656,-2.0472195,-2.3494737,-0.3019107
3.168,-12.208224,2.8086588,4.9342155,-1.984558,-2.2246506,-0.32555845
3.17,-12.094719,2.6742964,5.0320725,-1.9212378,-2.097006,-0.34887615
3.172,-11.97593,2.5462818,5.1167474,-1.8574687,-1.9668998,-0.37195095
3.174,-11.852294,2.4248743,5.188493,-1.7934415,-1.8346941,-0.39485663
3.176,-11.724405,2.3102956,5.247677,-1.7293231,-1.7007526,-0.41763854
3.178,-11.592623,2.2026777,5.2946367,-1.6652654,-1.5654433,-0.44034538
3.18,-11.4573965,2.102175,5.3297586,-1.601405,-1.4291298,-0.46301302
3.182,-11.319107,2.0088906,5.3533955,-1.5378791,-1.292184,-0.4856755
3.184,-11.178093,1.9229171,5.365951,-1.4747986,-1.154975,-0.5083742
3.186,-11.034803,1.8442187,5.367859,-1.4122738,-1.0178896,-0.53116226
3.188,-10.889554,1.772845,5.3595676,-1.350437,-0.88131255,-0.5540872
3.19,-10.742768,1.708997,5.3416367,-1.2893965,-0.7456466,-0.57722986
3.192,-10.594925,1.6526637,5.314571,-1.2292634,-0.61128443,-0.6006497
3.194,-10.446182,1.6035855,5.27895,-1.1701542,-0.47862393,-0.62443596
3.196,-10.296864,1.5618632,5.2353425,-1.1121777,-0.34806377,-0.64867246
3.198,-10.14732,1.5274394,5.184395,-1.0554291,-0.22001693,-0.6734461
3.2,-9.997831,1.5002359,5.126786,-0.99999934,-0.09486611,-0.69882864
3.202,-9.848754,1.4802581,5.063125,-0.94597584,0.027022721,-0.7248846
3.204,-9.7000885,1.4673141,4.9941235,-0.8934227,0.14529979,-0.75166726
3.206,-9.552204,1.4613942,4.920331,-0.8423607,0.25967205,-0.7791894
3.208,-9.405195,1.4623631,4.8424945,-0.79282916,0.36987963,-0.8074736
3.21,-9.259329,1.4701754,4.7611246,-0.7448338,0.4757094,-0.83650625
3.212,-9.114662,1.4847043,4.676878,-0.69836545,0.57702976,-0.8662577
3.214,-8.971263,1.505875,4.5902443,-0.6533847,0.6737596,-0.89667815
3.216,-8.829328,1.5335959,4.502012,-0.6098451,0.7658733,-0.9276983
3.218,-8.688671,1.5677134,4.4126453,-0.567688,0.8533965,-0.9592548
3.22,-8.549466,1.6081845,4.3226094,-0.5268489,0.9363808,-0.9912782
3.222,-8.411653,1.6549186,4.2325783,-0.48726135,1.0148959,-1.0236969
3.224,-8.275163,1.707955,4.1427736,-0.4488756,1.0890211,-1.056438
3.226,-8.139945,1.7669626,4.053753,-0.41164288,1.1588215,-1.0894387
3.228,-8.005823,1.8321191,3.9658637,-0.37554342,1.2243485,-1.122639
3.23,-7.8725553,1.9031892,3.8794062,-0.34057993,1.2856145,-1.1559883
3.232,-7.740011,1.9801829,3.7945943,-0.30678308,1.3426138,-1.1894461
3.234,-7.6080427,2.0629425,3.7118657,-0.27419543,1.3953393,-1.2229775
3.236,-7.4765005,2.1514463,3.6314473,-0.24289131,1.4437602,-1.2565529
3.238,-7.3449717,2.2455575,3.5535858,-0.21296924,1.4878497,-1.2901316
3.24,-7.213333,2.3452406,3.478461,-0.1845175,1.5275989,-1.3236773
3.242,-7.081173,2.450423,3.406297,-0.15761611,1.5630162,-1.3571681
3.244,-6.948349,2.5609581,3.3373585,-0.13235095,1.594157,-1.390562
3.246,-6.8146267,2.6768057,3.2717633,-0.108780116,1.6211015,-1.4238415
3.248,-6.679693,2.7978792,3.2095976,-0.086936116,1.6439624,-1.4569817
3.25,-6.5433073,2.9241025,3.1510675,-0.06684336,1.6628994,-1.4899616
3.252,-6.405196,3.0553274,3.09626,-0.048511744,1.6780872,-1.5227771
3.254,-6.265009,3.1913986,3.0452962,-0.031926364,1.6896982,-1.5554357
3.256,-6.122507,3.3322415,2.9981167,-0.01706314,1.6979264,-1.5879486
3.258,-5.9775105,3.4777884,2.9548848,-0.003909886,1.7029661,-1.620339
3.26,-5.829795,3.6278572,2.9155586,0.0075409412,1.7050009,-1.6526461
3.262,-5.6790495,3.782189,2.8801725,0.017313719,1.7042066,-1.684891
3.264,-5.524997,3.9406104,2.84868,0.025411308,1.7007504,-1.7171155
3.266,-5.3676605,4.1028433,2.8210318,0.031841815,1.6947638,-1.7493688
3.268,-5.2066936,4.2686806,2.7971787,0.03661859,1.6863827,-1.7816985
3.27,-5.0418496,4.437814,2.7769608,0.039746046,1.6757115,-1.8141669
3.272,-4.873125,4.6099267,2.76012,0.04123372,1.6628354,-1.8468378
3.274,-4.700248,4.784675,2.746594,0.041082382,1.6478286,-1.8797905
3.276,-4.523245,4.9616404,2.736189,0.039292157,1.6307477,-1.91311
3.278,-4.3420596,5.1405473,2.728612,0.035853803,1.6116072,-1.946889
3.28,-4.156488,5.3207436,2.7236767,0.030752897,1.5904083,-1.9812281
3.282,-3.9665365,5.5018706,2.721074,0.023970783,1.5671302,-2.0162272
3.284,-3.772411,5.6834598,2.7206423,0.015467584,1.5417264,-2.0519843
3.286,-3.5740147,5.8649154,2.7219527,0.005194068,1.5141327,-2.0885994
3.288,-3.3714952,6.04562,2.724811,-0.0069063306,1.4842582,-2.1261811
3.29,-3.1649103,6.2249317,2.7289517,-0.020902276,1.4520214,-2.1648233
3.292,-2.954562,6.4022527,2.7342284,-0.036860704,1.4173169,-2.2046287
3.294,-2.7406454,6.5768595,2.7402675,-0.05486667,1.3800564,-2.2456868
3.296,-2.5234036,6.7481627,2.7468362,-0.07500762,1.3401506,-2.288074
3.298,-2.3032105,6.9154186,2.7536786,-0.0973562,1.2975049,-2.33186
3.3,-2.080432,7.0777984,2.7604694,-0.121988356,1.2520623,-2.3771071
3.302,-1.8553803,7.2346306,2.767006,-0.14895421,1.2037829,-2.423853
3.304,-1.6285014,7.385319,2.7731006,-0.1782887,1.1526518,-2.4721193
3.306,-1.4004229,7.5290256,2.7784703,-0.21000814,1.0986817,-2.5218935
3.308,-1.1715585,7.6650276,2.7828922,-0.24412286,1.0419189,-2.5731592
3.31,-0.9424679,7.7926307,2.7861652,-0.2806468,0.98241544,-2.6258783
3.312,-0.71375895,7.9110413,2.7880936,-0.3195609,0.9202566,-2.6799886
3.314,-0.48603058,8.019581,2.7885938,-0.36085892,0.855543,-2.7353969
3.316,-0.25980115,8.117644,2.7874415,-0.4045316,0.78839135,-2.792015
3.318,-0.03583622,8.204629,2.7845156,-0.4505701,0.71891844,-2.8497372
3.32,0.18130589,8.282908,2.7806988,-0.4989817,0.64724445,-2.9084706
3.322,0.39429784,8.350183,2.7752123,-0.5497917,0.5734889,-2.968118
3.324,0.60244966,8.406279,2.7680542,-0.6030191,0.4977797,-3.0285826
3.326,0.80513334,8.4511,2.7591493,-0.65870357,0.42025948,-3.089781
3.328,1.0015765,8.484683,2.7485802,-0.71688986,0.34106487,-3.1516237
3.33,1.1914269,8.507126,2.7364213,-0.77763176,0.26034302,-3.2140331
3.332,1.3741001,8.518733,2.7226367,-0.84097373,0.17826612,-3.276914
3.334,1.5490854,8.519804,2.7074933,-0.9069526,0.09503442,-3.340149
3.336,1.7161963,8.510943,2.6910427,-0.97557735,0.010851875,-3.4035878
3.338,1.8750343,8.492662,2.6734242,-1.0468252,-0.07403572,-3.4670377
3.34,2.0254726,8.465645,2.654788,-1.1206459,-0.1593736,-3.530259
3.342,2.1674032,8.430651,2.635364,-1.1969523,-0.24491379,-3.5929701
3.344,2.3009124,8.388499,2.6152282,-1.2756134,-0.33040428,-3.654852
3.346,2.4259896,8.339969,2.594581,-1.3564823,-0.415577,-3.715542
3.348,2.5428014,8.285937,2.5735824,-1.4361246,-0.49746996,-3.7732282
3.35,2.6515439,8.227226,2.5523922,-1.5158111,-0.57721925,-3.8283954
3.352,2.7525582,8.164709,2.5311563,-1.5947179,-0.6541618,-3.8805442
3.354,2.8462024,8.099159,2.5099304,-1.6719501,-0.72764695,-3.929209
3.356,2.932799,8.031306,2.4889014,-1.7466197,-0.7970669,-3.974024
3.358,3.0127265,7.9618487,2.4682353,-1.8178995,-0.86190826,-4.0147467
3.36,3.0864687,7.8913646,2.447917,-1.8850907,-0.92178994,-4.0512753
3.362,3.154341,7.820501,2.428071,-1.9476782,-0.9765056,-4.0836434
3.364,3.2167068,7.749747,2.4087086,-2.005333,-1.026016,-4.1120157
3.366,3.2740388,7.6794786,2.3900063,-2.0579605,-1.0704534,-4.136654
3.368,3.3267322,7.6100183,2.3718894,-2.105627,-1.1100801,-4.1579075
3.37,3.3752024,7.541679,2.35433,-2.1485598,-1.1452537,-4.176152
