Time_s_,Acc_x_m_s_2_,Acc_y_m_s_2_,Acc_z_m_s_2_,Gyro_x_1_s_,Gyro_y_1_s_,Gyro_z_1_s_
0,0.058418423,0.068356365,-0.1761528,-0.7176627,-0.27556354,1.4092884
0.002,0.06249675,0.078128375,-0.16984963,-0.7172841,-0.27730966,1.4118063
0.004,0.06705187,0.08838538,-0.16310997,-0.71674216,-0.27905628,1.4146603
0.006,0.072393894,0.09905408,-0.15633959,-0.7159993,-0.2807483,1.4178804
0.008,0.07852971,0.110290214,-0.14940828,-0.7150159,-0.28233096,1.4215043
0.01,0.08541006,0.12214061,-0.14217295,-0.71376425,-0.2837526,1.4255685
0.012,0.09311326,0.13454652,-0.13459322,-0.7122078,-0.28491202,1.4300698
0.014,0.101585075,0.14740478,-0.1266182,-0.71033156,-0.28572738,1.4350007
0.016,0.11104664,0.16088319,-0.118309885,-0.70813143,-0.28611404,1.4403459
0.018,0.1213941,0.17505498,-0.10964361,-0.70560527,-0.28601402,1.4460834
0.02,0.13257521,0.18983127,-0.100683495,-0.70277727,-0.285395,1.4521568
0.022,0.14475259,0.20527533,-0.09144819,-0.699683,-0.28426462,1.4585172
0.024,0.15792365,0.22144488,-0.082031995,-0.69636154,-0.28264183,1.4651055
0.026,0.1720686,0.23829803,-0.072382085,-0.6928553,-0.2805729,1.4718645
0.028,0.18727502,0.2557631,-0.06258319,-0.68916523,-0.2781558,1.4788909
0.03,0.20345286,0.27383897,-0.052774332,-0.6853773,-0.27539816,1.4859401
0.032,0.22048837,0.29259524,-0.042920493,-0.68152416,-0.27235413,1.4930038
0.034,0.23852505,0.3118897,-0.03307967,-0.6776329,-0.26906824,1.5000653
0.036,0.25746888,0.3317367,-0.02329132,-0.67371416,-0.2655626,1.5071121
0.038,0.27747586,0.35208324,-0.013622999,-0.66977596,-0.2618557,1.5141472
0.04,0.29894683,0.3726806,-0.0037519485,-0.6658238,-0.2579313,1.5211647
0.042,0.32220152,0.39374626,0.007579103,-0.6618623,-0.25374532,1.5281513
0.044,0.34597507,0.4161172,0.021842167,-0.6578771,-0.24927196,1.5351071
0.046,0.36995697,0.44099748,0.038965702,-0.65385556,-0.24446867,1.5420439
0.048,0.39170325,0.47164622,0.05641684,-0.64980024,-0.23932368,1.5489701
0.05,0.4088584,0.51062787,0.0717603,-0.6456988,-0.23384055,1.5558934
0.052,0.4224673,0.5578992,0.08454384,-0.6415581,-0.22803196,1.5628238
0.054,0.43293372,0.612178,0.095764995,-0.63737607,-0.22194391,1.5697762
0.056,0.44018435,0.6721232,0.1069438,-0.6331748,-0.21563658,1.5767488
0.058,0.44366068,0.7356746,0.11835322,-0.62897635,-0.2091724,1.5837446
0.06,0.4428205,0.80343413,0.12980753,-0.624793,-0.20259975,1.5907743
0.062,0.4369844,0.87759954,0.14113888,-0.62063444,-0.195942,1.5978373
0.064,0.42550752,0.9607415,0.15190811,-0.61651236,-0.189203,1.6049446
0.066,0.40792677,1.0545318,0.16129592,-0.61244166,-0.18239637,1.612114
0.068,0.38359848,1.1596236,0.16806406,-0.60843027,-0.1754903,1.61937
0.07,0.3514682,1.2767736,0.17122881,-0.604501,-0.16845794,1.6267338
0.072,0.31005847,1.4064481,0.17030723,-0.6006731,-0.16116527,1.6341916
0.074,0.25811118,1.5486889,0.16505386,-0.5969406,-0.1533691,1.6416724
0.076,0.19466263,1.7034576,0.15563127,-0.5932085,-0.14466166,1.6490847
0.078,0.11923957,1.8696883,0.14184198,-0.58928496,-0.13469723,1.65624
0.08,0.032065153,2.0460043,0.12293193,-0.58491504,-0.123269334,1.6627244
0.082,-0.066072404,2.2308567,0.097596854,-0.5798036,-0.11008713,1.6680074
0.084,-0.17377967,2.422451,0.06413266,-0.57367957,-0.09461608,1.67138
0.086,-0.2894314,2.6184697,0.020781934,-0.56628495,-0.07612074,1.672026
0.088,-0.41123855,2.816296,-0.033358216,-0.5572627,-0.053833194,1.6691821
0.09,-0.53684807,3.0124733,-0.09884161,-0.5461233,-0.027172685,1.6621385
0.092,-0.6638887,3.203324,-0.17493889,-0.5322959,0.004245028,1.6501981
0.094,-0.7896028,3.3853312,-0.26035315,-0.5153128,0.040588073,1.6326969
0.096,-0.91102403,3.5548487,-0.354014,-0.4949952,0.081747964,1.6091752
0.098,-1.0247214,3.7086012,-0.45493546,-0.47151148,0.12726708,1.5796204
0.1,-1.1276448,3.8434465,-0.562247,-0.4453529,0.17627048,1.5446475
0.102,-1.2165265,3.9569438,-0.67461085,-0.4172694,0.22753462,1.5054907
0.104,-1.2887044,4.047394,-0.79032195,-0.3882377,0.27961385,1.4639062
0.106,-1.3418236,4.113704,-0.90751487,-0.35936219,0.3309927,1.4219997
0.108,-1.3742263,4.155655,-1.0241129,-0.33178717,0.38014978,1.38203
0.11,-1.3848469,4.1738186,-1.137697,-0.3065579,0.42556044,1.3461506
0.112,-1.3732921,4.169619,-1.246072,-0.2845447,0.46576393,1.3160713
0.114,-1.3398104,4.1451554,-1.3470613,-0.26641843,0.49940348,1.292836
0.116,-1.285429,4.1031847,-1.4384798,-0.25263572,0.52525586,1.2766863
0.118,-1.2117779,4.046953,-1.5187817,-0.24343947,0.5422785,1.2670597
0.12,-1.1210586,3.9801774,-1.5867205,-0.23888943,0.54968464,1.2628074
0.122,-1.0160388,3.9068456,-1.6413094,-0.23883557,0.54703414,1.262409
0.124,-0.89969444,3.8309221,-1.6819524,-0.24293083,0.5343137,1.2642885
0.126,-0.77540326,3.7561538,-1.70824,-0.25064278,0.5118903,1.2670739
0.128,-0.646435,3.6861897,-1.7202984,-0.26128727,0.48052585,1.269743
0.13,-0.5161064,3.624215,-1.7184033,-0.27411205,0.44132927,1.2716186
0.132,-0.38762158,3.572715,-1.7030685,-0.2883334,0.3958275,1.2724603
0.134,-0.26387072,3.5337377,-1.6750793,-0.3031631,0.3458057,1.2723614
0.136,-0.14741117,3.5088134,-1.6356285,-0.31787917,0.2929572,1.2715073
0.138,-0.040268898,3.498815,-1.5860866,-0.33185425,0.23880422,1.2701176
0.14,0.055882692,3.503917,-1.5276809,-0.34466326,0.18479815,1.268336
0.142,0.13992083,3.5237205,-1.4620585,-0.35613927,0.13247466,1.2661715
0.144,0.21094924,3.5575895,-1.3907093,-0.36633438,0.08345346,1.2636273
0.146,0.2688244,3.6043572,-1.3151904,-0.37536484,0.039232865,1.2608382
0.148,0.31337702,3.6626127,-1.2368958,-0.383265,0.001077503,1.2580607
0.15,0.34481877,3.7308166,-1.1575313,-0.38994265,-0.030006804,1.2555634
0.152,0.36393368,3.8067226,-1.0792922,-0.39527607,-0.053279944,1.2535182
0.154,0.37286532,3.8879569,-1.004009,-0.3992026,-0.06834152,1.2519916
0.156,0.37250304,3.9721625,-0.9315944,-0.4017469,-0.07519013,1.2510307
0.158,0.3656423,4.0558586,-0.8605405,-0.40299344,-0.07427131,1.2506789
0.16,0.35379672,4.1374283,-0.7902707,-0.40308562,-0.06643824,1.2509254
0.162,0.33553994,4.217883,-0.7226817,-0.4022228,-0.052808367,1.2516836
0.164,0.31074703,4.2987194,-0.66032815,-0.40063757,-0.03459549,1.2527919
0.166,0.2801546,4.38105,-0.60505986,-0.39859533,-0.013057649,1.2540618
0.168,0.24461758,4.4643555,-0.55720973,-0.39634907,0.010587908,1.2553201
0.17,0.20521247,4.546365,-0.51634246,-0.39411402,0.035220005,1.256437
0.172,0.16291118,4.624119,-0.48195428,-0.39207724,0.059851877,1.2572916
0.174,0.11851454,4.695329,-0.4532777,-0.39038837,0.0836226,1.2577475
0.176,0.072631,4.759506,-0.4293772,-0.38919872,0.1058103,1.2576655
0.178,0.026067376,4.816981,-0.40904534,-0.38863683,0.12581676,1.2568935
0.18,-0.020216107,4.8682017,-0.39120245,-0.3888253,0.14321515,1.2552981
0.182,-0.06517017,4.913428,-0.37536895,-0.38985097,0.15774213,1.2527791
0.184,-0.10822344,4.9530683,-0.3611608,-0.3917589,0.16930473,1.2492819
0.186,-0.14905298,4.9874763,-0.34817094,-0.39453542,0.17797026,1.2447665
0.188,-0.1877228,5.0172877,-0.33551985,-0.39812225,0.18394835,1.2392459
0.19,-0.22460961,5.042876,-0.32182235,-0.40243298,0.18756145,1.2327411
0.192,-0.26034498,5.0643854,-0.30522656,-0.40739077,0.18922876,1.2253197
0.194,-0.2951771,5.0817842,-0.2841342,-0.41289538,0.18943618,1.2170424
0.196,-0.3290472,5.095179,-0.25698572,-0.41885817,0.18869975,1.2079611
0.198,-0.3617773,5.104843,-0.22328949,-0.42516297,0.18757696,1.1981329
0.2,-0.39301586,5.111313,-0.18332106,-0.4317003,0.18661177,1.1876199
0.202,-0.42236543,5.1150236,-0.13783056,-0.43835884,0.18631384,1.1764629
0.204,-0.4495529,5.116417,-0.08755958,-0.4450152,0.18714467,1.1647004
0.206,-0.4743352,5.11551,-0.032565773,-0.4515693,0.18947028,1.1523582
0.208,-0.4965893,5.112283,0.02734679,-0.45792833,0.19356889,1.1394714
0.21,-0.5160358,5.1067653,0.09252584,-0.46401978,0.19960307,1.1260893
0.212,-0.5326513,5.098866,0.16278934,-0.46977448,0.20763719,1.1122618
0.214,-0.5459951,5.088344,0.23780486,-0.4751383,0.21764228,1.0980572
0.216,-0.5556328,5.075068,0.31699014,-0.48005694,0.22952683,1.0835624
0.218,-0.5613612,5.058958,0.3995874,-0.48450437,0.24316064,1.0688696
0.22,-0.5628309,5.0399203,0.48473394,-0.48847276,0.25838745,1.0540906
0.222,-0.5598506,5.0177774,0.5715723,-0.4919787,0.27507007,1.03933
0.224,-0.55236495,4.9926496,0.65948874,-0.49506742,0.29309905,1.0246937
0.226,-0.540437,4.9646044,0.7477808,-0.4978044,0.31240007,1.0103061
0.228,-0.5239887,4.9337053,0.83579654,-0.5002843,0.33294493,0.99627835
0.23,-0.5032965,4.89997,0.9229349,-0.50260466,0.35472977,0.9827174
0.232,-0.47843647,4.863502,1.0087705,-0.50485927,0.37779048,0.969745
0.234,-0.4498881,4.824618,1.0927432,-0.5071317,0.40214598,0.9574485
0.236,-0.41801,4.783545,1.1742916,-0.50951654,0.42780828,0.94591457
0.238,-0.38329768,4.7405705,1.2530786,-0.5121008,0.45475894,0.9351934
0.24,-0.34620845,4.696065,1.3287189,-0.514971,0.48294166,0.92533106
0.242,-0.3074361,4.650722,1.4007509,-0.518193,0.5122367,0.91633683
0.244,-0.2674898,4.6049232,1.468916,-0.52182144,0.54246646,0.9082039
0.246,-0.2268498,4.559093,1.5330195,-0.5258648,0.57341945,0.9008774
0.248,-0.18628407,4.5136952,1.5929695,-0.5303486,0.60485166,0.8942669
0.25,-0.14602757,4.469105,1.6485898,-0.5352621,0.6365075,0.8882616
0.252,-0.106591225,4.4258103,1.6997162,-0.5405905,0.6680974,0.8827069
0.254,-0.06823933,4.3840127,1.7462406,-0.5462902,0.69933355,0.87744665
0.256,-0.03130567,4.3439116,1.7881026,-0.552303,0.72994226,0.8723203
0.258,0.0041291714,4.3057747,1.82525,-0.55840683,0.7595921,0.8671664
0.26,0.03794217,4.269838,1.8577313,-0.5647864,0.78809154,0.8618302
0.262,0.06992459,4.2362485,1.8856747,-0.5712878,0.8151428,0.856179
0.264,0.100351095,4.2050223,1.9092058,-0.57785773,0.8404829,0.8501101
0.266,0.12934828,4.1761146,1.9282166,-0.58447623,0.86387604,0.8435383
0.268,0.15705192,4.1495914,1.9430221,-0.59113264,0.88512146,0.83639693
0.27,0.1838851,4.125388,1.9535884,-0.5978413,0.90406483,0.8286382
0.272,0.20987582,4.103548,1.9602404,-0.60463,0.9206141,0.82023495
0.274,0.23525107,4.0839276,1.9631038,-0.6115319,0.9347543,0.81116724
0.276,0.2601161,4.066468,1.962388,-0.6185838,0.94653994,0.8014333
0.278,0.28460455,4.051106,1.9581332,-0.6258176,0.95611113,0.79104114
0.28,0.3087418,4.037861,1.9506491,-0.6332562,0.96367204,0.78002125
0.282,0.33254576,4.0265546,1.9400465,-0.6408845,0.9694831,0.7684177
0.284,0.3560226,4.0173316,1.9267594,-0.6486677,0.973846,0.75628537
0.286,0.3789971,4.0100956,1.9110792,-0.65654,0.97708195,0.7436893
0.288,0.40145707,4.0050483,1.8933991,-0.6644085,0.97951263,0.73071647
0.29,0.4231658,4.0021615,1.8737407,-0.6721466,0.98144543,0.7174388
0.292,0.44413292,4.001356,1.8524146,-0.6796411,0.98314583,0.7039402
0.294,0.46409166,4.00279,1.8298944,-0.6867948,0.9848178,0.6902875
0.296,0.48272514,4.006472,1.8066726,-0.6935263,0.98661494,0.67654145
0.298,0.49993443,4.012403,1.7831159,-0.69978833,0.98863506,0.66273826
0.3,0.5155127,4.0205626,1.7597041,-0.70556325,0.9909168,0.6489037
0.302,0.52942216,4.030847,1.7368463,-0.71084964,0.99347764,0.635065
0.304,0.5415696,4.0432243,1.7149487,-0.7156885,0.99631333,0.62122965
0.306,0.5517504,4.0575895,1.6942344,-0.720123,0.9994257,0.6073976
0.308,0.55996513,4.0737853,1.6749312,-0.7242102,1.0028011,0.5935482
0.31,0.56617844,4.0916715,1.657325,-0.7280116,1.0064492,0.57965934
0.312,0.57064474,4.1109314,1.6417335,-0.731685,1.0104433,0.5656979
0.314,0.57339096,4.1312695,1.6283903,-0.73502856,1.0147734,0.5516401
0.316,0.5745995,4.1525908,1.6173874,-0.73825973,1.0195863,0.5374669
0.318,0.57447696,4.174689,1.6089106,-0.7414115,1.0250047,0.5231474
0.32,0.57315695,4.197413,1.6031168,-0.7445056,1.0311536,0.508672
0.322,0.57079947,4.2205772,1.6000139,-0.74757046,1.0381569,0.4940392
0.324,0.5676341,4.243925,1.5994145,-0.75061333,1.0461406,0.47925955
0.326,0.56377745,4.267166,1.6012168,-0.75362766,1.0552119,0.46436533
0.328,0.55961704,4.2900686,1.6051944,-0.75660014,1.0654626,0.44939873
0.33,0.55531704,4.3123765,1.6110921,-0.7594981,1.0769333,0.4344071
0.332,0.55105567,4.334085,1.6186693,-0.76227,1.0896554,0.41944125
0.334,0.54703426,4.354965,1.6275386,-0.7648521,1.103623,0.4045426
0.336,0.5434395,4.3748717,1.6373988,-0.7671867,1.1188009,0.3897651
0.338,0.5403303,4.393712,1.6480224,-0.7692137,1.1351237,0.37514484
0.34,0.53788924,4.411495,1.6591285,-0.7708932,1.1524866,0.36071303
0.342,0.5360788,4.4282165,1.6703687,-0.77220505,1.1707473,0.34648535
0.344,0.534987,4.4438,1.6816628,-0.7731649,1.189699,0.33248457
0.346,0.5345963,4.4582987,1.6927931,-0.77381885,1.2091086,0.3187086
0.348,0.53498375,4.471714,1.703649,-0.7742332,1.2286822,0.3051604
0.35,0.5361196,4.4841213,1.7141361,-0.7745224,1.2481136,0.29182947
0.352,0.53787327,4.495552,1.7243074,-0.7747805,1.2670742,0.27870446
0.354,0.5402938,4.5060973,1.7342387,-0.7751262,1.2852272,0.26576477
0.356,0.5431999,4.5159173,1.743872,-0.7756483,1.3022553,0.2529647
0.358,0.54649186,4.5251093,1.7534732,-0.7764219,1.3178915,0.24024099
0.36,0.55003977,4.5339203,1.7631111,-0.7775161,1.3319244,0.22752404
0.362,0.5537373,4.542373,1.7731018,-0.77895856,1.344247,0.21474321
0.364,0.5574399,4.5508547,1.7838112,-0.78074276,1.3548058,0.20182541
0.366,0.5611825,4.5595145,1.7956331,-0.78284466,1.3636535,0.18868366
0.368,0.5647987,4.56839,1.8087118,-0.7852272,1.3709154,0.1752376
0.37,0.5682349,4.577705,1.823404,-0.7878367,1.3767823,0.16141623
0.372,0.571522,4.587662,1.8397412,-0.7906101,1.3814864,0.14717072
0.374,0.574448,4.598365,1.8579884,-0.79348856,1.3852725,0.13246554
0.376,0.57712877,4.609951,1.8783951,-0.79640096,1.3883842,0.11727907
0.378,0.5793321,4.622571,1.9010494,-0.7993002,1.391017,0.10160226
0.38,0.58111393,4.6362453,1.9261777,-0.8021287,1.3933452,0.08545324
0.382,0.58255863,4.651046,1.9537841,-0.80483395,1.3954829,0.06885433
0.384,0.5838151,4.667141,1.9840037,-0.8073744,1.3975264,0.051841915
0.386,0.58489776,4.6845255,2.0168338,-0.8097259,1.3995129,0.03445585
0.388,0.5859225,4.703298,2.0523913,-0.811866,1.4014838,0.016762257
0.39,0.5868828,4.723436,2.0903707,-0.81377554,1.40346,-0.0011752397
0.392,0.58798873,4.7450967,2.1307375,-0.815433,1.405473,-0.019293576
0.394,0.58925223,4.7681546,2.173119,-0.8168039,1.4075977,-0.037533045
0.396,0.5908544,4.7925653,2.2172668,-0.81786823,1.409934,-0.0558338
0.398,0.5929949,4.8181906,2.262873,-0.8185916,1.412609,-0.07414907
0.4,0.5959343,4.844903,2.309585,-0.8189456,1.4157159,-0.092434585
0.402,0.5996343,4.8729305,2.3571095,-0.81892705,1.4193568,-0.11067596
0.404,0.6042781,4.9020863,2.4050226,-0.81852317,1.4235861,-0.12885591
0.406,0.6100931,4.932293,2.453009,-0.81776214,1.4284198,-0.14699689
0.408,0.617229,4.963464,2.500701,-0.8166559,1.4338571,-0.1651323
0.41,0.62578356,4.9956274,2.54783,-0.815236,1.4398702,-0.18329884
0.412,0.63582575,5.0288086,2.5940528,-0.81352526,1.4464114,-0.20153777
0.414,0.647308,5.062874,2.6390555,-0.8115542,1.4534223,-0.21989
0.416,0.6604626,5.0977182,2.6823459,-0.8093699,1.460824,-0.23839658
0.418,0.6754173,5.1331997,2.7235904,-0.8070143,1.4685328,-0.25708553
0.42,0.69203365,5.169352,2.7627237,-0.8045281,1.4764403,-0.2759694
0.422,0.7102184,5.2060223,2.7994998,-0.80194277,1.4844162,-0.29504472
0.424,0.73002553,5.243187,2.8339348,-0.7992892,1.4923127,-0.31430656
0.426,0.7514714,5.2807446,2.8659363,-0.79659706,1.4999812,-0.3337375
0.428,0.77442825,5.318672,2.8954709,-0.7938769,1.5072901,-0.35330844
0.43,0.79884374,5.356768,2.922441,-0.79112923,1.5141135,-0.37298432
0.432,0.82478917,5.394882,2.9471564,-0.7883355,1.5203637,-0.3927228
0.434,0.85195637,5.433036,2.969783,-0.7854682,1.5259863,-0.41250294
0.436,0.8802489,5.4710813,2.9904141,-0.7824974,1.531019,-0.43228132
0.438,0.90967107,5.5089083,3.0093722,-0.7793641,1.5355029,-0.45202202
0.44,0.9399345,5.5465465,3.0269027,-0.7760072,1.53953,-0.4716817
0.442,0.970976,5.5837936,3.0432642,-0.7723888,1.5432013,-0.49125645
0.444,1.002551,5.6205525,3.058738,-0.76847774,1.5466557,-0.51073545
0.446,1.0344269,5.6568956,3.0737498,-0.76427245,1.5499951,-0.5301039
0.448,1.0664426,5.6927705,3.0884888,-0.7597952,1.5532883,-0.54935646
0.45,1.0984398,5.728221,3.1032393,-0.7550588,1.556595,-0.5684911
0.452,1.1302177,5.763276,3.1181908,-0.75010157,1.5599724,-0.5875317
0.454,1.1614411,5.7981057,3.1332967,-0.74495363,1.56348,-0.6064904
0.456,1.1918737,5.8327317,3.1489556,-0.73961794,1.5671765,-0.62536603
0.458,1.2213733,5.867223,3.1649442,-0.7341178,1.5711112,-0.64417875
0.46,1.2497588,5.901721,3.1813273,-0.7284345,1.5753332,-0.66294223
0.462,1.2769634,5.9362125,3.198177,-0.72255874,1.5798743,-0.6816603
0.464,1.30263,5.9709845,3.2153912,-0.7164632,1.5847409,-0.7003419
0.466,1.3265337,6.0061665,3.233365,-0.7101289,1.5899014,-0.71899223
0.468,1.3486705,6.0418253,3.2517314,-0.70352113,1.5953004,-0.7375897
0.47,1.368886,6.078011,3.2704325,-0.6966188,1.6008412,-0.7561213
0.472,1.3869342,6.1150017,3.2895844,-0.68942404,1.6063962,-0.77455735
0.474,1.4027041,6.1527643,3.3089345,-0.6819438,1.6118178,-0.79285604
0.476,1.4160706,6.1914077,3.3283634,-0.67419994,1.6169691,-0.8109868
0.478,1.4268999,6.2311974,3.3479977,-0.6662306,1.621699,-0.82889867
0.48,1.4352509,6.272068,3.3673792,-0.65807915,1.6258637,-0.8465547
0.482,1.4410812,6.314268,3.3869674,-0.64979035,1.6293467,-0.86392933
0.484,1.444179,6.3577867,3.4065955,-0.6414142,1.6320803,-0.8810184
0.486,1.4445901,6.402802,3.4262528,-0.6329962,1.6340572,-0.89783466
0.488,1.4423839,6.449257,3.445881,-0.6245729,1.6353096,-0.91440165
0.49,1.4376556,6.4971876,3.4653246,-0.61615694,1.6358942,-0.9307482
0.492,1.4303759,6.546528,3.484495,-0.60775626,1.6359559,-0.94692385
0.494,1.4205451,6.5971994,3.5033875,-0.5993413,1.6356614,-0.96298766
0.496,1.4084216,6.6492496,3.521804,-0.5908654,1.6352165,-0.9789872
0.498,1.3940291,6.702442,3.5395737,-0.58227074,1.6348178,-0.99497736
0.5,1.3776767,6.7567263,3.5565956,-0.5734813,1.6346514,-1.0109938
0.502,1.3595095,6.81188,3.5728636,-0.564418,1.6348696,-1.027071
0.504,1.3397291,6.86775,3.5883198,-0.5550216,1.6355841,-1.043247
0.506,1.3186994,6.9241524,3.6026118,-0.5452296,1.6368339,-1.0595261
0.508,1.2965872,6.9808803,3.615586,-0.5350131,1.63865,-1.0759509
0.51,1.2736669,7.0377007,3.6273906,-0.5243529,1.6409843,-1.0925303
0.512,1.2501693,7.094268,3.6377888,-0.51322544,1.6437465,-1.1092641
0.514,1.2268085,7.150133,3.646607,-0.5016314,1.6468618,-1.1261599
0.516,1.2035904,7.2051563,3.65373,-0.48956817,1.650234,-1.1432211
0.518,1.180762,7.259067,3.659165,-0.47702488,1.653768,-1.1604348
0.52,1.1588469,7.311491,3.6628563,-0.4640136,1.6573739,-1.1777899
0.522,1.1381955,7.3620706,3.6648328,-0.45055443,1.6609324,-1.1952857
0.524,1.1190064,7.41068,3.6652932,-0.43668398,1.6643176,-1.2128804
0.526,1.1014633,7.4571075,3.6645513,-0.4224631,1.6673912,-1.2305499
0.528,1.0858855,7.501188,3.662871,-0.40796265,1.6700008,-1.2482736
0.53,1.0726278,7.5424232,3.66024,-0.39329118,1.6719792,-1.2660229
0.532,1.0618484,7.580694,3.6567843,-0.37855136,1.6731853,-1.2837901
0.534,1.0536435,7.615778,3.6526344,-0.36385614,1.6735318,-1.3015686
0.536,1.0480986,7.647545,3.647951,-0.34930372,1.6729639,-1.3193545
0.538,1.0452754,7.6758447,3.6429415,-0.33497283,1.6714737,-1.3371391
0.54,1.0453792,7.700565,3.6377215,-0.32089677,1.6691214,-1.3549095
0.542,1.048317,7.7216153,3.6324124,-0.30709141,1.6660557,-1.3726572
0.544,1.0542221,7.7389627,3.6272497,-0.29353026,1.6624986,-1.3903785
0.546,1.063046,7.752589,3.6222467,-0.2801572,1.6586707,-1.4080292
0.548,1.0745571,7.7623925,3.6172717,-0.266891,1.6548235,-1.4255574
0.55,1.088876,7.7683597,3.6123376,-0.2536246,1.6511991,-1.4428908
0.552,1.1058359,7.7704844,3.6072497,-0.24025303,1.6480532,-1.4599526
0.554,1.1254227,7.768857,3.6019473,-0.22666636,1.645622,-1.4766575
0.556,1.1474602,7.7634873,3.5962524,-0.21278721,1.6440837,-1.4929242
0.558,1.1716266,7.7545857,3.5900266,-0.19854164,1.6435617,-1.5086799
0.56,1.1977565,7.742264,3.583315,-0.18391657,1.6441282,-1.523864
0.562,1.2255194,7.7267237,3.575835,-0.16891974,1.6457726,-1.538419
0.564,1.2550335,7.7080774,3.5673242,-0.15360284,1.6484314,-1.5523233
0.566,1.2857697,7.6866846,3.5573096,-0.13804993,1.6519824,-1.5655712
0.568,1.3172822,7.662827,3.545879,-0.12235689,1.6562328,-1.5781807
0.57,1.3493819,7.636821,3.5330293,-0.1066176,1.6609781,-1.590203
0.572,1.3817672,7.6089096,3.5185072,-0.090947956,1.6659992,-1.6016943
0.574,1.4141836,7.5792136,3.502358,-0.07541841,1.6711069,-1.6127259
0.576,1.4464825,7.548094,3.4843655,-0.0600923,1.6761458,-1.623363
0.578,1.4780736,7.515977,3.465053,-0.045019954,1.680959,-1.6336544
0.58,1.5085857,7.483168,3.44457,-0.030226141,1.6854056,-1.6436174
0.582,1.5379379,7.4497013,3.4229727,-0.015719473,1.6893477,-1.6532371
0.584,1.5656036,7.4159718,3.4005823,-0.0014970303,1.6926531,-1.6624824
0.586,1.59131,7.382291,3.3778572,0.012431115,1.6951882,-1.6712976
0.588,1.6149496,7.3487363,3.355041,0.026080102,1.6967993,-1.6796193
0.59,1.635975,7.315564,3.3329146,0.0394502,1.6973642,-1.6873888
0.592,1.654386,7.2828703,3.3116224,0.052556276,1.6968174,-1.6945817
0.594,1.6700109,7.2507586,3.291708,0.06541118,1.6950997,-1.7011857
0.596,1.6826304,7.219268,3.273572,0.078038126,1.6922176,-1.7071928
0.598,1.6920885,7.1885624,3.2572656,0.09047118,1.6882752,-1.7126415
0.6,1.6981512,7.158802,3.2430549,0.102772355,1.6834927,-1.717581
0.602,1.700958,7.1299825,3.2312112,0.11501503,1.6781565,-1.7220702
0.604,1.7004287,7.1020546,3.2217178,0.12727916,1.6726075,-1.7261701
0.606,1.6965563,7.0749726,3.214747,0.13964498,1.6672007,-1.7299473
0.608,1.6894807,7.0487547,3.2104175,0.15218651,1.662293,-1.7334713
0.61,1.6791159,7.0232162,3.2086852,0.16496143,1.6582036,-1.736803
0.612,1.6655419,6.9984064,3.2094011,0.17797741,1.6551521,-1.740005
0.614,1.649174,6.9741416,3.2121263,0.19124165,1.6532601,-1.7431486
0.616,1.6301111,6.950304,3.2168064,0.20472127,1.652556,-1.7463078
0.618,1.6082656,6.9268208,3.223288,0.21835813,1.6529835,-1.7495487
0.62,1.5840422,6.9035287,3.2310467,0.23208246,1.654401,-1.7529223
0.622,1.5579289,6.8801312,3.239557,0.2458379,1.6566219,-1.7564558
0.624,1.5297427,6.85673,3.248954,0.259568,1.6594584,-1.7601538
0.626,1.5000749,6.8330736,3.2588682,0.2732589,1.662725,-1.764008
0.628,1.4691726,6.8090115,3.2691262,0.28689528,1.6662513,-1.7679707
0.63,1.4371527,6.784589,3.279551,0.30047992,1.6698952,-1.771971
0.632,1.4043384,6.7596974,3.2898417,0.3140411,1.6735697,-1.7759326
0.634,1.3713009,6.734119,3.2998521,0.3276037,1.677214,-1.7797668
0.636,1.3381139,6.707835,3.3095415,0.34118953,1.6808014,-1.7833841
0.638,1.3050683,6.680872,3.3187802,0.35483542,1.6843249,-1.7866825
0.64,1.272483,6.653454,3.3274598,0.36856502,1.6877711,-1.7895842
0.642,1.2406709,6.62567,3.3354704,0.3823877,1.691147,-1.7920468
0.644,1.2099009,6.59744,3.3428383,0.39631292,1.6944346,-1.7940505
0.646,1.1803782,6.568759,3.349649,0.41032904,1.6975793,-1.7955925
0.648,1.1523554,6.5396886,3.3558555,0.4244093,1.7005497,-1.7967346
0.65,1.125896,6.510377,3.361596,0.43853956,1.703289,-1.7975867
0.652,1.1013017,6.4808373,3.366752,0.4526759,1.7056758,-1.7982659
0.654,1.0786252,6.4511013,3.37118,0.46675915,1.7075851,-1.7989118
0.656,1.0580784,6.4213915,3.3748584,0.48075312,1.7089112,-1.7996781
0.658,1.0397768,6.391731,3.3777273,0.49462253,1.7095615,-1.8007119
0.66,1.0237272,6.3621855,3.379593,0.5083431,1.7094791,-1.802149
0.662,1.0100453,6.332891,3.380341,0.52190614,1.7086877,-1.8040931
0.664,0.9988228,6.303827,3.3796175,0.53533304,1.7072377,-1.8066039
0.666,0.99004424,6.275077,3.3771095,0.54867256,1.7052432,-1.8096967
0.668,0.9837669,6.2465353,3.3726816,0.56196916,1.7028688,-1.8133358
0.67,0.9800142,6.218148,3.3659115,0.57530016,1.7002698,-1.8174433
0.672,0.9787526,6.1898756,3.3568425,0.588764,1.6976142,-1.8219125
0.674,0.9796647,6.161795,3.3453808,0.6024673,1.6950574,-1.8265996
0.676,0.98285735,6.133813,3.331132,0.61649925,1.6927078,-1.8313605
0.678,0.98845446,6.1059184,3.3138013,0.63095665,1.6906326,-1.8360653
0.68,0.9961612,6.0781164,3.292967,0.64589894,1.6888671,-1.8405988
0.682,1.0059963,6.050239,3.2686083,0.6613643,1.6873807,-1.8448837
0.684,1.0176934,6.0224466,3.2408042,0.67733747,1.6860739,-1.8488772
0.686,1.0311952,5.994648,3.209588,0.6937354,1.6847917,-1.8525695
0.688,1.0465583,5.9668045,3.174738,0.71045685,1.6833181,-1.8559461
0.69,1.0634233,5.9390173,3.1363683,0.72735757,1.6814237,-1.8590143
0.692,1.0817416,5.911423,3.0948355,0.7442913,1.6788974,-1.8617959
0.694,1.1014808,5.8838897,3.0501668,0.7611271,1.675582,-1.8643007
0.696,1.1225451,5.856433,3.002423,0.77777326,1.6713977,-1.8665026
0.698,1.1445601,5.8291535,2.9521909,0.7941715,1.6663892,-1.8683809
0.7,1.1677042,5.8020577,2.8995392,0.8103345,1.6607087,-1.8698949
0.702,1.1916252,5.7751675,2.8446593,0.8263203,1.6545639,-1.8709913
0.704,1.216371,5.748704,2.788044,0.8422127,1.6482396,-1.8716145
0.706,1.2418565,5.7226334,2.729858,0.8581407,1.642065,-1.871736
0.708,1.2678555,5.6969876,2.670617,0.87421644,1.6363081,-1.8713547
0.71,1.2943294,5.671936,2.6107326,0.89052916,1.6311748,-1.8704786
0.712,1.321101,5.647443,2.5506573,0.90715927,1.6267928,-1.8691441
0.714,1.3481328,5.623644,2.49062,0.92413116,1.6231967,-1.8673773
0.716,1.3753933,5.6005516,2.4309068,0.9414445,1.6203067,-1.8652223
0.718,1.402643,5.5783105,2.3717256,0.9590566,1.61798,-1.862739
0.72,1.429825,5.5568924,2.3134692,0.9769081,1.6159964,-1.8599811
0.722,1.4567214,5.536278,2.256208,0.99491376,1.6140954,-1.8570141
0.724,1.4831134,5.5164895,2.2004128,1.0129682,1.6120075,-1.8538811
0.726,1.5087575,5.497565,2.1464202,1.0309558,1.6094444,-1.8505881
0.728,1.5337548,5.479406,2.0944164,1.0487717,1.6061673,-1.847153
0.73,1.5577203,5.462098,2.0446742,1.0663275,1.6019881,-1.8435789
0.732,1.580304,5.4457016,1.9976814,1.0835304,1.59676,-1.8398429
0.734,1.6014303,5.4301224,1.9533855,1.1003273,1.5904336,-1.8359449
0.736,1.6207986,5.4153852,1.91202,1.1166757,1.5830343,-1.8318679
0.738,1.6380763,5.40135,1.8738034,1.1325672,1.5746748,-1.8275945
0.74,1.6529226,5.3878508,1.8389186,1.148022,1.5655048,-1.8231168
0.742,1.665255,5.3749456,1.8077455,1.1630573,1.5557237,-1.818443
0.744,1.6745601,5.362591,1.7805758,1.1777239,1.5455341,-1.8135734
0.746,1.6808512,5.3507266,1.7575641,1.1920846,1.535122,-1.8085103
0.748,1.683771,5.339344,1.739022,1.2061869,1.5246242,-1.8032494
0.75,1.6832669,5.328269,1.7251215,1.2200866,1.5141405,-1.7977903
0.752,1.6793771,5.317437,1.7160335,1.2338455,1.5037035,-1.7920953
0.754,1.672158,5.306869,1.7118058,1.2475151,1.4933152,-1.7861358
0.756,1.6616437,5.2964497,1.7123919,1.2611539,1.4829557,-1.7798609
0.758,1.647881,5.2861576,1.7178781,1.2748185,1.4725825,-1.7732147
0.76,1.6310304,5.27588,1.7282126,1.2885548,1.4621676,-1.7661456
0.762,1.6112698,5.265545,1.7434864,1.3024285,1.4516993,-1.758599
0.764,1.5887697,5.25519,1.763736,1.3165025,1.4412004,-1.750562
0.766,1.563945,5.2446194,1.7887402,1.3308284,1.4307289,-1.7420529
0.768,1.5370216,5.2338552,1.818228,1.3454492,1.4203407,-1.7331274
0.77,1.5083278,5.222763,1.8518708,1.3603868,1.4101138,-1.7238709
0.772,1.4782168,5.2112465,1.8893442,1.3756584,1.4001423,-1.7143979
0.774,1.4469401,5.1993127,1.9302733,1.3912445,1.3905284,-1.7048362
0.776,1.415091,5.186802,1.9742894,1.4071244,1.3813528,-1.6953297
0.778,1.3830036,5.173647,2.0206418,1.4232616,1.372708,-1.6860371
0.78,1.3509669,5.159919,2.0687277,1.439601,1.3646777,-1.6771319
0.782,1.3193684,5.145363,2.1178997,1.4560593,1.357308,-1.6687497
0.784,1.2885416,5.1298747,2.1675522,1.4725441,1.3506525,-1.6609974
0.786,1.2587786,5.1133475,2.2172568,1.4889661,1.3447559,-1.6539568
0.788,1.2303002,5.095626,2.2663302,1.5052375,1.3396273,-1.6476711
0.79,1.203464,5.0764594,2.314106,1.5212778,1.3352491,-1.6421542
0.792,1.1784549,5.0559807,2.359859,1.5370193,1.3315667,-1.637382
0.794,1.1556163,5.0338697,2.4028502,1.5524045,1.3284783,-1.6333166
0.796,1.134963,5.0100746,2.4424388,1.5673777,1.3258237,-1.6298969
0.798,1.1166787,4.9845195,2.4783306,1.5818846,1.3234036,-1.6270456
0.8,1.1011212,4.957077,2.5101938,1.5958657,1.3209858,-1.6246957
0.802,1.0883327,4.927679,2.5374498,1.609292,1.3183341,-1.6227633
0.804,1.0782884,4.896498,2.56009,1.6221251,1.3151987,-1.6211901
0.806,1.0711446,4.8635144,2.5779295,1.6343417,1.3113815,-1.619936
0.808,1.0670806,4.8288016,2.5906675,1.645935,1.3067343,-1.6189466
0.81,1.065949,4.7925186,2.5983922,1.6569089,1.3011534,-1.6181843
0.812,1.067745,4.7548146,2.601281,1.6672959,1.294569,-1.617626
0.814,1.0725155,4.7158666,2.5993018,1.6771455,1.2869735,-1.6172419
0.816,1.0799959,4.67589,2.5928717,1.6865281,1.2784086,-1.617012
0.818,1.0903727,4.6351156,2.582121,1.6955253,1.2689335,-1.6169126
0.82,1.1033896,4.593855,2.567105,1.704212,1.2586328,-1.6169068
0.822,1.1189797,4.5524483,2.547912,1.7126845,1.2476245,-1.6169868
0.824,1.1369394,4.5111704,2.5248995,1.7210273,1.2360324,-1.6171274
0.826,1.1570945,4.4702554,2.498506,1.7293187,1.2239959,-1.6173127
0.828,1.1793439,4.430031,2.4689615,1.737643,1.2116748,-1.6175466
0.83,1.2034497,4.390794,2.4366663,1.7460768,1.1992589,-1.6178007
0.832,1.2293104,4.3528366,2.4018989,1.7546989,1.1869503,-1.618062
0.834,1.2565916,4.3164015,2.3649478,1.763581,1.17496,-1.6182952
0.836,1.283746,4.2767334,2.3349357,1.7728133,1.1635083,-1.6184436
0.838,1.3130227,4.2424974,2.297014,1.782453,1.1527815,-1.6184692
0.84,1.3429972,4.2098045,2.2584777,1.7925566,1.1429273,-1.6183224
0.842,1.373565,4.178755,2.219503,1.8031391,1.1340353,-1.6179421
0.844,1.4044708,4.1493106,2.1803586,1.8141937,1.1261244,-1.6172786
0.846,1.4355323,4.121462,2.1413124,1.825687,1.1191502,-1.6163044
0.848,1.4666221,4.095351,2.102773,1.8375554,1.1129932,-1.6149898
0.85,1.49764,4.0707526,2.0649033,1.8497106,1.1074817,-1.6133337
0.852,1.5283015,4.047575,2.028082,1.8620508,1.1024047,-1.611354
0.854,1.5583508,4.0257435,1.9925989,1.8744656,1.0975407,-1.6090541
0.856,1.5877277,4.0051403,1.9588325,1.8868337,1.0926782,-1.6064513
0.858,1.6163077,3.985743,1.9268231,1.899056,1.0876296,-1.6035589
0.86,1.6438766,3.9676147,1.8969333,1.911042,1.0822315,-1.6003692
0.862,1.6702249,3.950604,1.8691165,1.9227387,1.0763735,-1.5968997
0.864,1.6953362,3.9348006,1.8433703,1.9341286,1.0700065,-1.5931636
0.866,1.7190298,3.9202795,1.8197176,1.9452075,1.063126,-1.5891622
0.868,1.7414383,3.9069834,1.7980438,1.9559927,1.0557591,-1.5849152
0.87,1.7623532,3.8950765,1.7782347,1.9665086,1.047958,-1.5804543
0.872,1.7818767,3.884719,1.7599833,1.976782,1.0397722,-1.5758069
0.874,1.8000095,3.876099,1.7429968,1.9868542,1.031266,-1.571006
0.876,1.8167167,3.8693016,1.7270584,1.9967476,1.0224874,-1.5660818
0.878,1.8321347,3.8645577,1.7118707,2.0064812,1.0134978,-1.5610677
0.88,1.8463651,3.8621087,1.697185,2.016077,1.0043566,-1.5559859
0.882,1.8594215,3.8619707,1.6826279,2.0255585,0.9950931,-1.5508618
0.884,1.8715963,3.8642018,1.6677849,2.0349405,0.9857247,-1.5457437
0.886,1.8827621,3.8688567,1.6523185,2.0442271,0.9762583,-1.5406768
0.888,1.8932105,3.8759694,1.6362754,2.0534363,0.9666618,-1.5357182
0.89,1.9030346,3.8853226,1.6195784,2.0625732,0.9568769,-1.5309386
0.892,1.9124162,3.8969326,1.6020169,2.0716593,0.94682384,-1.5264235
0.894,1.9215512,3.9105792,1.5838071,2.0806942,0.9364107,-1.5222571
0.896,1.9305615,3.9260383,1.5650444,2.0896926,0.9255375,-1.5185213
0.898,1.939431,3.9431002,1.5461051,2.098675,0.9141405,-1.5152885
0.9,1.9483252,3.9614186,1.5273017,2.1076725,0.9021897,-1.512599
0.902,1.9573337,3.9805512,1.5090129,2.1167305,0.88969624,-1.5104793
0.904,1.9666442,4.000128,1.4915011,2.1258962,0.87670016,-1.5089399
0.906,1.9762466,4.019746,1.4753557,2.1352227,0.86328423,-1.507971
0.908,1.9861494,4.039057,1.46098,2.1447453,0.8495481,-1.5075635
0.91,1.9962666,4.057784,1.448781,2.154497,0.8355912,-1.5076978
0.912,2.0065625,4.075715,1.4392482,2.1644785,0.8215094,-1.5083399
0.914,2.0170653,4.0924597,1.4327086,2.1746893,0.80736965,-1.5094602
0.916,2.0277207,4.107868,1.4294627,2.1850832,0.79319966,-1.5110123
0.918,2.0385935,4.1217136,1.429791,2.195593,0.77899134,-1.5129673
0.92,2.0496368,4.133834,1.4337828,2.206158,0.76471376,-1.5152965
0.922,2.0609431,4.1440496,1.4415226,2.2167253,0.7503254,-1.5179635
0.924,2.0723128,4.1523423,1.4530083,2.227239,0.7357986,-1.5209372
0.926,2.0838614,4.1586986,1.468131,2.2376707,0.7211509,-1.5241883
0.928,2.0955532,4.16315,1.4868538,2.2480159,0.7064197,-1.5276912
0.93,2.1074028,4.1656632,1.5088927,2.2582707,0.69167304,-1.5314239
0.932,2.11936,4.166438,1.5340662,2.2684374,0.6769864,-1.5353683
0.934,2.131526,4.1655693,1.5621407,2.2785287,0.6624752,-1.5395064
0.936,2.1438894,4.163228,1.5927471,2.2885518,0.6482683,-1.5438032
0.938,2.156464,4.1593437,1.62545,2.2985227,0.6344835,-1.5482223
0.94,2.1693873,4.1541433,1.659726,2.3084564,0.6212452,-1.5527374
0.942,2.1827383,4.147612,1.6953008,2.3183584,0.60867184,-1.5573407
0.944,2.1965413,4.13995,1.7318444,2.3282356,0.5968475,-1.5620183
0.946,2.2120433,4.134958,1.762135,2.3380868,0.5858143,-1.5667522
0.948,2.226781,4.124175,1.8009919,2.3479176,0.5755864,-1.5715559
0.95,2.2423096,4.112791,1.8393083,2.3577337,0.5661348,-1.576446
0.952,2.2586522,4.100711,1.8768699,2.367541,0.5573832,-1.581448
0.954,2.2760017,4.087934,1.9134474,2.3773377,0.5492135,-1.5865843
0.956,2.294443,4.074478,1.9488649,2.3871331,0.54149896,-1.5918665
0.958,2.3140588,4.060275,1.9826825,2.3969307,0.5341129,-1.5972867
0.96,2.3349478,4.0455055,2.0147452,2.4067314,0.52692,-1.6028212
0.962,2.3573098,4.030017,2.0447307,2.416559,0.519807,-1.6084435
0.964,2.381166,4.013854,2.0723214,2.426431,0.51270014,-1.6141245
0.966,2.406664,3.9970121,2.0973496,2.4363596,0.50555336,-1.6198367
0.968,2.4336805,3.9794598,2.1197443,2.4463322,0.4983799,-1.6255614
0.97,2.4623878,3.961198,2.139193,2.456346,0.49119872,-1.6312873
0.972,2.4928107,3.9423637,2.1558518,2.4663749,0.4840505,-1.6369933
0.974,2.5249157,3.9229643,2.1695948,2.4763837,0.4769945,-1.6426878
0.976,2.558769,3.9030132,2.1804128,2.4863067,0.47006363,-1.6483847
0.978,2.594325,3.8825085,2.1883383,2.4960728,0.4632643,-1.6540953
0.98,2.6315236,3.8614306,2.193439,2.505608,0.45657474,-1.6598352
0.982,2.6700287,3.839696,2.1957288,2.5148258,0.4499671,-1.6656235
0.984,2.7097523,3.8173907,2.1951876,2.523653,0.4433927,-1.6714565
0.986,2.750349,3.79465,2.191987,2.532048,0.43682402,-1.6773283
0.988,2.7915616,3.7714117,2.1862543,2.5399675,0.43023145,-1.6832265
0.99,2.8331091,3.7477252,2.1778986,2.5474117,0.42365015,-1.6891158
0.992,2.8746648,3.7236946,2.1670399,2.554393,0.41715127,-1.6949322
0.994,2.9155638,3.6994288,2.153944,2.5609784,0.41084218,-1.7005829
0.996,2.9555893,3.6749883,2.1388197,2.5672655,0.40486944,-1.7059485
0.998,2.9941392,3.6502764,2.1218796,2.5733588,0.39939064,-1.7108947
1,3.0307167,3.625373,2.1034036,2.5794072,0.3945586,-1.7152929
1.002,3.0647447,3.60036,2.0837095,2.5855477,0.39048696,-1.7190199
1.004,3.0957775,3.5751162,2.062964,2.591905,0.38722897,-1.7219796
1.006,3.123283,3.549775,2.0413003,2.59859,0.38475722,-1.724094
1.008,3.1470573,3.5243871,2.0188534,2.6056776,0.3829751,-1.7253462
1.01,3.166762,3.4989665,1.9960531,2.6132026,0.38168854,-1.7257402
1.012,3.1821506,3.473527,1.9733145,2.6211793,0.38063288,-1.7253263
1.014,3.1928215,3.4480934,1.9509995,2.6295748,0.37945735,-1.724196
1.016,3.1988473,3.4226127,1.9293004,2.6383164,0.37780213,-1.7224604
1.018,3.2001038,3.3970068,1.9084457,2.6473222,0.37529814,-1.7202566
1.02,3.1967893,3.37117,1.8886739,2.6565127,0.37162125,-1.7177352
1.022,3.1888294,3.3450775,1.8701785,2.6658163,0.36652255,-1.7150662
1.024,3.1765623,3.318774,1.8532747,2.675175,0.3598792,-1.7124243
1.026,3.1599765,3.292254,1.8380921,2.6845622,0.35167223,-1.7099812
1.028,3.139443,3.2654762,1.8247825,2.6939597,0.34197474,-1.7079012
1.03,3.1153417,3.2384813,1.8136213,2.703372,0.33094722,-1.7063261
1.032,3.0881064,3.2112126,1.8046527,2.7128148,0.318824,-1.7053769
1.034,3.0581634,3.1836057,1.7978197,2.7223063,0.3058408,-1.705153
1.036,3.0261316,3.155631,1.7932069,2.7318797,0.29225338,-1.7057133
1.038,2.9922462,3.127263,1.7907525,2.7415679,0.27830666,-1.7070856
1.04,2.9571812,3.0985494,1.7906164,2.751371,0.26422155,-1.7092586
1.042,2.9215014,3.0694704,1.7924783,2.761323,0.2502271,-1.7121828
1.044,2.8856006,3.0401561,1.7962959,2.771452,0.23653316,-1.7157786
1.046,2.8500283,3.0105772,1.8018038,2.7818158,0.22336435,-1.7199178
1.048,2.8152504,2.9808707,1.8088348,2.792452,0.21093118,-1.7244419
1.05,2.7817361,2.9511456,1.81708,2.8034096,0.19943476,-1.7291764
1.052,2.7498124,2.9214797,1.8261833,2.814755,0.18905652,-1.7339374
1.054,2.719972,2.8920748,1.8357443,2.8265433,0.1799438,-1.7385274
1.056,2.6927109,2.863074,1.8454173,2.838828,0.17219484,-1.7427793
1.058,2.668281,2.8347328,1.8548939,2.8516364,0.1658622,-1.7465478
1.06,2.647193,2.8070369,1.8638449,2.8649848,0.16094208,-1.7497361
1.062,2.6297412,2.7802124,1.8718855,2.8788748,0.1573869,-1.7522671
1.064,2.6160846,2.7544723,1.8785801,2.8932967,0.15512252,-1.7541269
1.066,2.6065712,2.7299023,1.8835456,2.9082217,0.15404737,-1.7553145
1.068,2.6012976,2.7067385,1.8863811,2.9236276,0.15406108,-1.7558467
1.07,2.6005607,2.6851227,1.8867111,2.9394798,0.15501463,-1.755757
1.072,2.604439,2.6652308,1.8840306,2.9557335,0.15673363,-1.755076
1.074,2.613233,2.6471581,1.8782489,2.972346,0.15901327,-1.7538573
1.076,2.6268554,2.6310391,1.869154,2.9892714,0.16161144,-1.7521303
1.078,2.645527,2.616876,1.856812,3.0064363,0.16425097,-1.7499409
1.08,2.6692924,2.6047459,1.8410084,3.0237746,0.16661131,-1.7473477
1.082,2.6980665,2.5947895,1.8215156,3.0412343,0.1683582,-1.74439
1.084,2.7319987,2.5869293,1.7983222,3.0587654,0.169168,-1.7411411
1.086,2.771201,2.5812712,1.7714459,3.0763345,0.16874385,-1.7376726
1.088,2.8155437,2.5777621,1.7410221,3.0939193,0.16683936,-1.734055
1.09,2.8651435,2.5763388,1.7074126,3.1115093,0.1632427,-1.7303565
1.092,2.9199576,2.576942,1.6711041,3.1291406,0.15782058,-1.7266473
1.094,2.9799984,2.579196,1.632549,3.146865,0.15048242,-1.7229773
1.096,3.0452595,2.582928,1.5922906,3.1647367,0.14118183,-1.7193749
1.098,3.1156967,2.587901,1.5509678,3.1828306,0.12991488,-1.7158763
1.1,3.191218,2.5938525,1.5093396,3.201229,0.1167537,-1.7125075
1.102,3.271821,2.6005254,1.4680527,3.2200403,0.10183096,-1.7092807
1.104,3.357689,2.6075823,1.4276472,3.2393684,0.085338,-1.706205
1.106,3.4486995,2.6147156,1.3887811,3.2593212,0.06753564,-1.7032678
1.108,3.5448468,2.6217494,1.3519615,3.2799857,0.04873216,-1.7004528
1.11,3.6460948,2.6284084,1.3176475,3.3014455,0.02928555,-1.6977189
1.112,3.7525923,2.6342063,1.2862871,3.3237767,0.009595513,-1.6950144
1.114,3.8640811,2.6389313,1.25817,3.3470354,-0.009928584,-1.692274
1.116,3.9806085,2.6421533,1.2335706,3.3712726,-0.02885592,-1.6894065
1.118,4.1017866,2.6436903,1.212535,3.396518,-0.046762347,-1.6863096
1.12,4.2271314,2.6435301,1.1943524,3.4228005,-0.06322777,-1.6828611
1.122,4.3565917,2.6414886,1.1784852,3.4501357,-0.0778594,-1.6789323
1.124,4.4899635,2.6375299,1.1646688,3.4785364,-0.09029901,-1.6743937
1.126,4.626708,2.6316028,1.1519065,3.508007,-0.10024464,-1.6690948
1.128,4.7666297,2.6237547,1.1390191,3.5385337,-0.10748398,-1.662889
1.13,4.9091606,2.6142366,1.1247911,3.5700812,-0.11192739,-1.6556685
1.132,5.0538898,2.6033418,1.1081499,3.6025877,-0.11361873,-1.6473045
1.134,5.200173,2.5912986,1.0876514,3.6359508,-0.11275959,-1.6376907
1.136,5.347588,2.5783443,1.062075,3.6700163,-0.10974121,-1.6267481
1.138,5.4954047,2.5649705,1.0298387,3.704614,-0.10514629,-1.6143976
1.14,5.6429515,2.551578,0.9896486,3.7395334,-0.099737525,-1.6005808
1.142,5.7895756,2.5387268,0.94013065,3.7745554,-0.09440267,-1.5852776
1.144,5.9350033,2.5269747,0.8808417,3.8094547,-0.090132594,-1.5684874
1.146,6.077206,2.5174344,0.81155944,3.8440142,-0.087981224,-1.5502169
1.148,6.215157,2.5109909,0.72985846,3.8780456,-0.08897066,-1.5305334
1.15,6.349391,2.5081859,0.6334843,3.9114242,-0.09403658,-1.5095246
1.152,6.4789214,2.509818,0.5218736,3.9440393,-0.10404968,-1.487325
1.154,6.6035123,2.515912,0.39487588,3.9758267,-0.11976552,-1.464131
1.156,6.7228518,2.526802,0.25305146,4.006744,-0.14179063,-1.440163
1.158,6.837352,2.5428538,0.098249935,4.036793,-0.17060554,-1.4156443
1.16,6.946447,2.5651658,-0.0663156,4.065997,-0.20656788,-1.3908347
1.162,7.046356,2.5958552,-0.24017543,4.0944214,-0.24990106,-1.3660009
1.164,7.138047,2.6353076,-0.42498875,4.122113,-0.3007685,-1.3414302
1.166,7.2217627,2.6837702,-0.6206271,4.14912,-0.35928404,-1.3173852
1.168,7.2970157,2.7410643,-0.8255217,4.175455,-0.4255376,-1.2941244
1.17,7.3639164,2.806655,-1.036822,4.2011213,-0.49967265,-1.2719024
1.172,7.4228196,2.880376,-1.2513444,4.2260866,-0.58184814,-1.2509729
1.174,7.474235,2.9626124,-1.464639,4.2502937,-0.6722568,-1.231606
1.176,7.514622,3.0548575,-1.6705078,4.273694,-0.7710402,-1.214075
1.178,7.5461426,3.1557598,-1.8673863,4.2962427,-0.87827754,-1.1986163
1.18,7.5705647,3.2654214,-2.0590231,4.3179283,-0.99407053,-1.1854739
1.182,7.586017,3.3852513,-2.2444174,4.3388133,-1.1183176,-1.1749184
1.184,7.591873,3.514578,-2.4193776,4.358986,-1.2506647,-1.167193
1.186,7.5888324,3.651329,-2.5774221,4.3785515,-1.3905308,-1.1624292
1.188,7.5793386,3.7932084,-2.7136967,4.3976703,-1.5371753,-1.160636
1.19,7.563416,3.9397125,-2.825205,4.416572,-1.6895238,-1.1617744
1.192,7.540673,4.0911345,-2.9101267,4.4355545,-1.8461888,-1.1657484
1.194,7.51151,4.2470956,-2.967961,4.454954,-2.0057096,-1.1722949
1.196,7.477077,4.406106,-2.9980972,4.475146,-2.166467,-1.1810449
1.198,7.437844,4.5669265,-3.0002556,4.496439,-2.326629,-1.1916323
1.2,7.3941755,4.7284245,-2.974935,4.5190654,-2.4842,-1.2036148
1.202,7.3472137,4.8894944,-2.9217153,4.5432043,-2.6370986,-1.2164055
1.204,7.2976227,5.0491242,-2.8397436,4.568962,-2.7832747,-1.2294676
1.206,7.2461896,5.206151,-2.7287529,4.5964565,-2.9205747,-1.2423716
1.208,7.1944838,5.359275,-2.5895822,4.625846,-3.0467544,-1.254571
1.21,7.1435657,5.5072713,-2.4230692,4.6572976,-3.1599383,-1.2654232
1.212,7.0952764,5.649277,-2.2323637,4.6909504,-3.2590656,-1.2745619
1.214,7.0505385,5.784709,-2.0201428,4.726962,-3.343544,-1.2816973
1.216,7.0106163,5.913188,-1.7900641,4.7654614,-3.4131453,-1.286381
1.218,6.9766245,6.034307,-1.5456232,4.80659,-3.4680011,-1.2879736
1.22,6.9490795,6.148009,-1.2906895,4.8504906,-3.5088577,-1.285847
1.222,6.928697,6.254457,-1.0286423,4.8973856,-3.536929,-1.2795553
1.224,6.916075,6.353675,-0.7620479,4.947565,-3.5535169,-1.2687988
1.226,6.9113507,6.4457746,-0.49288586,5.001299,-3.5599835,-1.2534424
1.228,6.9145308,6.530895,-0.22289243,5.058736,-3.557568,-1.2335193
1.23,6.9256544,6.609291,0.04662186,5.1198883,-3.547284,-1.2091835
1.232,6.943605,6.6814485,0.3138838,5.184655,-3.529746,-1.1807057
1.234,6.9673347,6.747899,0.5767899,5.252764,-3.5050197,-1.1485233
1.236,6.9955225,6.809332,0.8337984,5.323743,-3.47288,-1.1131946
1.238,7.026472,6.8665533,1.0838236,5.397009,-3.432946,-1.075408
1.24,7.0581527,6.920065,1.3262244,5.4717507,-3.384821,-1.0360363
1.242,7.0885735,6.9706516,1.5608718,5.546954,-3.3282893,-0.9960489
1.244,7.115321,7.0194645,1.788001,5.621537,-3.263611,-0.9563726
1.246,7.1360006,7.0674314,2.0078115,5.6944027,-3.1915486,-0.91800785
1.248,7.1482944,7.115608,2.2206004,5.7645483,-3.1131902,-0.8820189
1.25,7.150017,7.164853,2.4264953,5.83116,-3.0299687,-0.8493254
1.252,7.1388783,7.216208,2.6256351,5.8937464,-2.9434853,-0.8205826
1.254,7.1127324,7.2704434,2.817668,5.9521103,-2.8552015,-0.79626393
1.256,7.0709887,7.3280425,3.0020983,6.0062647,-2.766249,-0.7766174
1.258,7.012167,7.389738,3.1807635,6.0564117,-2.6773772,-0.76158154
1.26,6.933755,7.4565463,3.3544493,6.1028214,-2.5891194,-0.7508302
1.262,6.835566,7.52913,3.5225344,6.1457806,-2.5019703,-0.7440907
1.264,6.7168474,7.608605,3.684229,6.1855764,-2.4162054,-0.74113536
1.266,6.5776157,7.6953716,3.8387375,6.2224703,-2.3320148,-0.741529
1.268,6.417899,7.789407,3.9849393,6.256608,-2.2502146,-0.74500465
1.27,6.2390904,7.889887,4.1217957,6.288047,-2.1721723,-0.7516215
1.272,6.045171,7.995375,4.2514467,6.3167715,-2.0994885,-0.7616116
1.274,5.835411,8.106134,4.377423,6.34272,-2.0335362,-0.77512395
1.276,5.610877,8.222122,4.500927,6.3657517,-1.9754455,-0.7921277
1.278,5.374016,8.343291,4.62162,6.385789,-1.9261057,-0.81255925
1.28,5.1266723,8.4693985,4.738978,6.4028664,-1.8859581,-0.8363279
1.282,4.8710613,8.599353,4.8532424,6.4171476,-1.8550144,-0.8633218
1.284,4.609857,8.731256,4.9642344,6.4288454,-1.8329308,-0.8934231
1.286,4.3488007,8.862725,5.0715275,6.4381423,-1.8192236,-0.92650783
1.288,4.088069,8.993921,5.1795993,6.445237,-1.8134166,-0.9623413
1.29,3.8292344,9.123126,5.2957935,6.4503202,-1.8150635,-1.0006483
1.292,3.5771637,9.248108,5.420585,6.4535637,-1.8237586,-1.0411804
1.294,3.334957,9.368533,5.551449,6.4552135,-1.8391037,-1.0836833
1.296,3.104215,9.485161,5.6851225,6.45552,-1.8607026,-1.127911
1.298,2.8855433,9.597927,5.8213463,6.4546776,-1.8881271,-1.1736559
1.3,2.6820579,9.704908,5.9619236,6.45288,-1.9208734,-1.2206784
1.302,2.4969425,9.80381,6.1088934,6.4502907,-1.9583628,-1.2687666
1.304,2.3318372,9.893755,6.264167,6.4470105,-1.9999813,-1.3177936
1.306,2.1875134,9.974738,6.428375,6.4430404,-2.0451105,-1.3676894
1.308,2.0654411,10.046466,6.601406,6.4383364,-2.0931711,-1.4184093
1.31,1.9666934,10.108434,6.7829347,6.4327946,-2.1436768,-1.4699595
1.312,1.891142,10.160503,6.971127,6.426262,-2.196172,-1.5223475
1.314,1.8391167,10.20243,7.1639647,6.418547,-2.250291,-1.5756156
1.316,1.8103887,10.233978,7.359933,6.4094267,-2.3057113,-1.6298001
1.318,1.8037994,10.255256,7.5585814,6.3986435,-2.3621714,-1.6849346
1.32,1.8185732,10.266258,7.7591877,6.3859577,-2.4194536,-1.7410398
1.322,1.8531997,10.266913,7.9626255,6.3711276,-2.4773452,-1.798141
1.324,1.9068516,10.256967,8.168571,6.353968,-2.5356593,-1.8562207
1.326,1.9781063,10.236232,8.377324,6.3343263,-2.5942278,-1.9152672
1.328,2.065439,10.204895,8.588648,6.3120975,-2.652887,-1.975249
1.33,2.1674657,10.163001,8.802576,6.2872334,-2.7114158,-2.0361254
1.332,2.2822037,10.110772,9.01858,6.2597446,-2.7695434,-2.0978384
1.334,2.4076867,10.048769,9.235669,6.229682,-2.826915,-2.1603258
1.336,2.5420117,9.977631,9.452778,6.1971326,-2.8831065,-2.223508
1.338,2.6833427,9.897974,9.669319,6.1622114,-2.937675,-2.287282
1.34,2.8294969,9.810406,9.885209,6.1250663,-2.9900963,-2.3515189
1.342,2.978798,9.715515,10.100798,6.085845,-3.0398471,-2.4160526
1.344,3.1293423,9.613855,10.316782,6.044714,-3.0864282,-2.4807136
1.346,3.2793345,9.506028,10.533938,6.001848,-3.1293666,-2.5453024
1.348,3.4268913,9.392566,10.752519,5.95741,-3.1682534,-2.6096103
1.35,3.5705302,9.274226,10.972324,5.9115667,-3.2027047,-2.6734242
1.352,3.7086902,9.151616,11.192884,5.8644733,-3.2323787,-2.7365227
1.354,3.840128,9.024966,11.413873,5.816268,-3.2569814,-2.7987034
1.356,3.9635677,8.894966,11.635004,5.76709,-3.2762492,-2.859767
1.358,4.0782156,8.761859,11.85592,5.7170763,-3.2899632,-2.9195106
1.36,4.183077,8.626211,12.076183,5.6663647,-3.297961,-2.9777184
1.362,4.2778544,8.48837,12.295555,5.615074,-3.3001568,-3.0341856
1.364,4.3620906,8.348713,12.5135145,5.5633335,-3.296535,-3.0886962
1.366,4.4356675,8.207587,12.729787,5.511259,-3.2872024,-3.1410332
1.368,4.499036,8.065064,12.943558,5.4589853,-3.2723575,-3.1910243
1.37,4.5526376,7.921191,13.154214,5.4066315,-3.2523308,-3.238513
1.372,4.5971246,7.7760553,13.361129,5.354309,-3.227542,-3.2833757
1.374,4.6338573,7.6294975,13.563482,5.3021,-3.1984804,-3.3255336
1.376,4.6640697,7.4814615,13.760448,5.2500896,-3.165661,-3.3649197
1.378,4.689273,7.3318853,13.951157,5.19833,-3.1296086,-3.4015133
1.38,4.711158,7.1805143,14.134588,5.146869,-3.0908172,-3.4353032
1.382,4.7315993,7.027296,14.309869,5.095752,-3.0497189,-3.46629
1.384,4.7526193,6.871771,14.476347,5.045004,-3.0066924,-3.494506
1.386,4.7761106,6.713813,14.63329,4.994621,-2.9620497,-3.51998
1.388,4.804127,6.553022,14.780003,4.9446306,-2.916037,-3.5427454
1.39,4.838429,6.3892694,14.915749,4.8950553,-2.8688264,-3.5628371
1.392,4.880969,6.222138,15.03962,4.8458877,-2.8205388,-3.5803027
1.394,4.9331713,6.051482,15.151082,4.797117,-2.7712677,-3.595172
1.396,4.9965615,5.8770075,15.249506,4.748723,-2.7210853,-3.6074731
1.398,5.072106,5.698668,15.334446,4.7006655,-2.670064,-3.6172252
1.4,5.1605687,5.5165453,15.405703,4.652855,-2.6183302,-3.624443
1.402,5.262559,5.3304763,15.4632225,4.6051598,-2.5660613,-3.6291375
1.404,5.378168,5.1407375,15.506933,4.557412,-2.5135257,-3.6313107
1.406,5.507223,4.947442,15.537002,4.5093946,-2.4610624,-3.6309812
1.408,5.649038,4.750881,15.553495,4.4608355,-2.4090648,-3.62818
1.41,5.8026614,4.5512953,15.556967,4.4114666,-2.35798,-3.622964
1.412,5.966754,4.349188,15.548201,4.3609962,-2.3082538,-3.6154275
1.414,6.139749,4.1450787,15.528137,4.309173,-2.2602503,-3.6057248
1.416,6.320029,3.9395459,15.497677,4.255786,-2.2142134,-3.5940008
1.418,6.505563,3.733234,15.458021,4.2006817,-2.1702495,-3.58043
1.42,6.6943364,3.5269022,15.410145,4.143812,-2.1282983,-3.5651717
1.422,6.8842483,3.321074,15.35527,4.0851727,-2.0881636,-3.5483556
1.424,7.0729465,3.1164038,15.29467,4.024851,-2.0495331,-3.5300937
1.426,7.2581367,2.9136937,15.229765,3.9629793,-2.012045,-3.5104773
1.428,7.4376497,2.7135303,15.161997,3.8997328,-1.9753516,-3.4895566
1.43,7.6093836,2.516481,15.092783,3.835289,-1.9391557,-3.4673796
1.432,7.7712474,2.3231153,15.023623,3.7698236,-1.9032794,-3.443991
1.434,7.9215856,2.1339927,14.9556675,3.7034876,-1.8676593,-3.4194443
1.436,8.058851,1.9496945,14.889772,3.6364079,-1.832382,-3.3938243
1.438,8.181784,1.770498,14.826734,3.568687,-1.7976367,-3.3672326
1.44,8.289529,1.5966028,14.767026,3.5004058,-1.7636927,-3.3398037
1.442,8.381138,1.4281534,14.711191,3.4316049,-1.7308792,-3.3116918
1.444,8.456337,1.265196,14.659628,3.3623219,-1.699529,-3.2830667
1.446,8.514856,1.1076536,14.612396,3.2926092,-1.6699791,-3.254098
1.448,8.556699,0.9553803,14.569408,3.222538,-1.6425009,-3.2249358
1.45,8.582288,0.80825293,14.530308,3.1521945,-1.617299,-3.1957188
1.452,8.592173,0.6659042,14.49428,3.0816746,-1.5944899,-3.166563
1.454,8.587236,0.5280783,14.460468,3.0111089,-1.5740738,-3.1375768
1.456,8.56851,0.3943786,14.427945,2.9406388,-1.5559357,-3.108825
1.458,8.5373125,0.26418805,14.395855,2.8703732,-1.5398638,-3.080349
1.46,8.494972,0.13696635,14.363114,2.8004303,-1.5255871,-3.0521498
1.462,8.4428425,0.012091041,14.328533,2.7309036,-1.5127693,-3.024218
1.464,8.382471,-0.11075199,14.290622,2.6618264,-1.501045,-2.996535
1.466,8.315664,-0.23224592,14.24818,2.5932112,-1.4900703,-2.969086
1.468,8.243705,-0.35280716,14.200267,2.5250459,-1.479516,-2.9418428
1.47,8.1684,-0.4729755,14.145985,2.4572797,-1.46911,-2.9148026
1.472,8.091196,-0.5932698,14.0844145,2.3898926,-1.4585826,-2.8879712
1.474,8.013681,-0.71403575,14.014719,2.3228548,-1.4477036,-2.861362
1.476,7.9371424,-0.8358654,13.936175,2.256149,-1.4362744,-2.834981
1.478,7.8627005,-0.95887005,13.848148,2.1897993,-1.4240894,-2.8088226
1.48,7.791457,-1.0833635,13.7501545,2.1238332,-1.4109601,-2.7828856
1.482,7.724323,-1.2094604,13.641813,2.0582926,-1.3967202,-2.75716
1.484,7.661952,-1.3372781,13.523276,1.9932196,-1.3812387,-2.7316294
1.486,7.60484,-1.4668018,13.3948345,1.9286568,-1.3644423,-2.706278
1.488,7.5533314,-1.5981777,13.256926,1.8646202,-1.3463403,-2.6810892
1.49,7.5077796,-1.73127,13.1100235,1.8011098,-1.3270389,-2.6560493
1.492,7.468199,-1.8660496,12.954622,1.7380698,-1.3067708,-2.631176
1.494,7.4344277,-2.0022287,12.791187,1.6754317,-1.2858591,-2.606517
1.496,7.40621,-2.1397963,12.620287,1.6131238,-1.2647064,-2.5821493
1.498,7.3830824,-2.2785616,12.442947,1.5510485,-1.2437478,-2.5581656
1.5,7.3647394,-2.4184556,12.259993,1.4891255,-1.2233921,-2.5346735
1.502,7.3505173,-2.5590928,12.072424,1.427297,-1.2040141,-2.5118008
1.504,7.339802,-2.7002335,11.881071,1.3655324,-1.185908,-2.4896655
1.506,7.331948,-2.8417168,11.686833,1.3038523,-1.1692665,-2.4683843
1.508,7.326283,-2.9832938,11.490521,1.2422804,-1.1542058,-2.4480543
1.51,7.322035,-3.1248965,11.293111,1.1808869,-1.1407801,-2.428757
1.512,7.318519,-3.2662299,11.095577,1.1197616,-1.1289794,-2.410558
1.514,7.3149834,-3.407214,10.898653,1.0589834,-1.1187754,-2.3934937
1.516,7.3107014,-3.547555,10.702918,0.9986447,-1.1101481,-2.37756
1.518,7.30504,-3.6869612,10.50905,0.9388214,-1.1030935,-2.362724
1.52,7.2973695,-3.8253481,10.317461,0.8795904,-1.097612,-2.3489227
1.522,7.287167,-3.9624057,10.128752,0.8210014,-1.0937297,-2.3360698
1.524,7.2738996,-4.0980573,9.943695,0.76312816,-1.0914503,-2.3240778
1.526,7.2571077,-4.2320538,9.7630205,0.70599914,-1.0907743,-2.3128574
1.528,7.2366962,-4.3642282,9.587293,0.6496755,-1.0916672,-2.3023102
1.53,7.2123356,-4.4944296,9.417203,0.59423894,-1.0940219,-2.2923415
1.532,7.183775,-4.6225367,9.253123,0.5397609,-1.0977142,-2.2828696
1.534,7.150916,-4.7483377,9.095337,0.48635748,-1.1025392,-2.2738214
1.536,7.113935,-4.8716807,8.943992,0.4341425,-1.1082581,-2.265135
1.538,7.0729523,-4.9924498,8.799367,0.38323,-1.1145831,-2.2567515
1.54,7.028317,-5.1105146,8.661517,0.33374858,-1.1211882,-2.2486053
1.542,6.9801617,-5.22585,8.530304,0.28582072,-1.127731,-2.2406535
1.544,6.9286714,-5.338434,8.405743,0.2395553,-1.1338573,-2.2328475
1.546,6.8740745,-5.4481688,8.287435,0.19505918,-1.1392043,-2.2251024
1.548,6.8167853,-5.5550194,8.174976,0.15241772,-1.1434147,-2.2173164
1.55,6.7569013,-5.658948,8.068063,0.11170316,-1.1461294,-2.209376
1.552,6.694893,-5.7600317,7.9662647,0.07296187,-1.1470181,-2.201133
1.554,6.630905,-5.858345,7.8692317,0.036213517,-1.1457901,-2.1924574
1.556,6.5653067,-5.95394,7.7765493,0.0014472604,-1.1421857,-2.1832004
1.558,6.498231,-6.0466523,7.6877155,-0.03138852,-1.1360171,-2.1732373
1.56,6.429987,-6.1365786,7.602203,-0.06239915,-1.1271808,-2.1624634
1.562,6.3606033,-6.223696,7.519336,-0.09171474,-1.115644,-2.1508017
1.564,6.290271,-6.3080835,7.4383407,-0.119499624,-1.1014386,-2.1382072
1.566,6.2188025,-6.389683,7.358474,-0.1459437,-1.08466,-2.124647
1.568,6.146217,-6.4684253,7.278896,-0.17120403,-1.0653946,-2.1100788
1.57,6.072469,-6.5443068,7.199023,-0.1954372,-1.0437151,-2.094466
1.572,5.997579,-6.61718,7.1184177,-0.21874064,-1.0196148,-2.077742
1.574,5.9215746,-6.6871595,7.0370584,-0.24115336,-0.99302864,-2.059816
1.576,5.844136,-6.7541447,6.9546347,-0.26265305,-0.9638045,-2.0405822
1.578,5.765417,-6.818016,6.870858,-0.28317034,-0.9316828,-2.0199094
1.58,5.685418,-6.878648,6.785425,-0.3025819,-0.8963737,-1.9976695
1.582,5.6042776,-6.9360495,6.698084,-0.32076055,-0.8576014,-1.9737585
1.584,5.5221167,-6.990182,6.608569,-0.33760458,-0.81518924,-1.9481037
1.586,5.4392347,-7.0407047,6.516797,-0.35305148,-0.7690673,-1.9206758
1.588,5.3558083,-7.087723,6.4230866,-0.36711687,-0.71936697,-1.8915188
1.59,5.2723346,-7.131128,6.3276243,-0.37987155,-0.66639733,-1.8607368
1.592,5.1892796,-7.171006,6.230633,-0.39146668,-0.61068356,-1.828502
1.594,5.1067657,-7.2073026,6.1323853,-0.4021117,-0.5529117,-1.7950275
1.596,5.0252447,-7.2399673,6.033096,-0.41203117,-0.49387646,-1.7605398
1.598,4.9450293,-7.2688885,5.933209,-0.42146456,-0.43439963,-1.7252803
1.6,4.866169,-7.294088,5.8331065,-0.4306432,-0.37528864,-1.6894956
1.602,4.7889247,-7.315756,5.7332115,-0.43978262,-0.31732303,-1.653396
1.604,4.7130365,-7.333695,5.6337953,-0.4490905,-0.26119158,-1.617166
1.606,4.6381593,-7.3475075,5.535511,-0.45874336,-0.2074706,-1.5809633
1.608,4.5643544,-7.357269,5.4389653,-0.46893567,-0.15666375,-1.5448945
1.61,4.4909062,-7.362957,5.3450265,-0.47984987,-0.109178156,-1.5090618
1.612,4.4167953,-7.3642616,5.2546253,-0.49166554,-0.06533921,-1.4735385
1.614,4.34112,-7.361012,5.1686783,-0.50456786,-0.025432289,-1.4383715
1.616,4.2626367,-7.352783,5.0880814,-0.5187233,0.010331929,-1.4036053
1.618,4.1800246,-7.3393526,5.01376,-0.53426623,0.041807204,-1.369285
1.62,4.091733,-7.3204546,4.9464245,-0.55128175,0.06894153,-1.335418
1.622,3.9960718,-7.295807,4.887136,-0.5698297,0.091778815,-1.3020296
1.624,3.8913,-7.264825,4.836844,-0.5898822,0.11051008,-1.2691319
1.626,3.7756379,-7.2272034,4.796539,-0.61135656,0.12544894,-1.2367516
1.628,3.6475651,-7.182583,4.766941,-0.6341164,0.13705096,-1.2049146
1.63,3.5056856,-7.1304636,4.748624,-0.65798426,0.14587921,-1.1736645
1.632,3.348486,-7.0706673,4.74183,-0.68274605,0.15253797,-1.1430445
1.634,3.1749468,-7.002968,4.7469506,-0.7081857,0.15761939,-1.1131135
1.636,2.9841568,-6.9271936,4.764258,-0.734064,0.16170308,-1.084005
1.638,2.7752092,-6.8432326,4.7941175,-0.7601357,0.16536835,-1.0558442
1.64,2.5479283,-6.7511077,4.8367233,-0.7861925,0.16905835,-1.0287455
1.642,2.3024514,-6.6508145,4.8920527,-0.81207365,0.17312264,-1.0028083
1.644,2.0389895,-6.5424075,4.959776,-0.83765155,0.17778495,-0.97814983
1.646,1.7580777,-6.4261327,5.0394073,-0.862852,0.1831555,-0.95488024
1.648,1.4605364,-6.302361,5.130369,-0.88764083,0.18924394,-0.93307966
1.65,1.1472397,-6.1713595,5.232272,-0.91201866,0.19597593,-0.9128086
1.652,0.8195971,-6.033679,5.34474,-0.9359983,0.20324484,-0.89409816
1.654,0.47900307,-5.889626,5.467243,-0.9595772,0.21096829,-0.87694895
1.656,0.12695289,-5.7396483,5.599309,-0.98275626,0.21915716,-0.861342
1.658,-0.23531187,-5.5841455,5.7405167,-1.0055089,0.22793171,-0.84719586
1.66,-0.60611135,-5.423565,5.8900766,-1.0277936,0.23753926,-0.83439595
1.662,-0.98427486,-5.2580566,6.0471535,-1.0495496,0.24837077,-0.82277495
1.664,-1.3687432,-5.0878887,6.211022,-1.0707426,0.26090991,-0.81210876
1.666,-1.7584211,-4.9134564,6.3811107,-1.0913658,0.275686,-0.8021494
1.668,-2.1525552,-4.735038,6.5566792,-1.1114311,0.29324052,-0.7926472
1.67,-2.5505407,-4.552624,6.7370267,-1.1310205,0.31401938,-0.783343
1.672,-2.951643,-4.3662415,6.921756,-1.1502697,0.33833212,-0.77400917
1.674,-3.3557577,-4.175737,7.110239,-1.1693603,0.3663619,-0.7644931
1.676,-3.7625237,-3.9808583,7.3020024,-1.1884905,0.39811775,-0.7546952
1.678,-4.171953,-3.7813325,7.4965286,-1.2078886,0.43346143,-0.7446115
1.68,-4.584032,-3.5767446,7.693425,-1.2278005,0.47217095,-0.7343129
1.682,-4.9989266,-3.3666937,7.89209,-1.2484621,0.51397747,-0.7239665
1.684,-5.4168925,-3.150532,8.091875,-1.2700645,0.5586002,-0.7137792
1.686,-5.837843,-2.9276016,8.29232,-1.2927942,0.60579157,-0.70402026
1.688,-6.261979,-2.6973572,8.492911,-1.3167939,0.6553917,-0.69499207
1.69,-6.689307,-2.4590452,8.693379,-1.3422135,0.7072538,-0.68698055
1.692,-7.1199527,-2.21178,8.893252,-1.369149,0.7612461,-0.6803076
1.694,-7.553496,-1.9548848,9.092524,-1.3976681,0.8173083,-0.67532206
1.696,-7.9899487,-1.687654,9.291114,-1.4278189,0.8753466,-0.67237055
1.698,-8.428939,-1.4093761,9.489026,-1.4596432,0.93527484,-0.6717565
1.7,-8.870089,-1.1192923,9.686394,-1.4931445,0.9969806,-0.67377496
1.702,-9.3130455,-0.81668353,9.883394,-1.5283083,1.0603361,-0.67872393
1.704,-9.756958,-0.50079226,10.080121,-1.5651124,1.1251639,-0.68686986
1.706,-10.201526,-0.17111945,10.27699,-1.6035116,1.1912539,-0.69845545
1.708,-10.646213,0.1727128,10.474476,-1.6434757,1.2583313,-0.71370167
1.71,-11.090303,0.5309653,10.673224,-1.684951,1.3260553,-0.7328005
1.712,-11.533428,0.9039762,10.873849,-1.7278988,1.3940196,-0.7559583
1.714,-11.974567,1.2915843,11.07699,-1.7722943,1.461743,-0.7833626
1.716,-12.413191,1.6933243,11.282828,-1.8181392,1.5286925,-0.8152087
1.718,-12.848917,2.1091895,11.491439,-1.865426,1.5942938,-0.8517097
1.72,-13.280712,2.5385292,11.702797,-1.9141426,1.657978,-0.89306235
1.722,-13.7075615,2.980216,11.916846,-1.9642811,1.7192369,-0.9394518
1.724,-14.128475,3.4331915,12.133228,-2.0157986,1.7776291,-0.99106216
1.726,-14.542292,3.8962443,12.351691,-2.0686145,1.8328264,-1.0480748
1.728,-14.947662,4.3679104,12.5718775,-2.1226034,1.884614,-1.1106635
1.73,-15.34319,4.8465986,12.79321,-2.1776466,1.9328676,-1.1789932
1.732,-15.727064,5.3302083,13.0147295,-2.233605,1.977498,-1.2532401
1.734,-16.097383,5.8163915,13.235382,-2.2903266,2.0184155,-1.333599
1.736,-16.45222,6.302849,13.453635,-2.3476956,2.0554957,-1.4202808
1.738,-16.789623,6.7871704,13.667741,-2.4056287,2.088537,-1.513506
1.74,-17.107542,7.266696,13.875914,-2.4640477,2.1172452,-1.6134946
1.742,-17.403814,7.7388506,14.076488,-2.5229297,2.1411963,-1.7204221
1.744,-17.67634,8.200898,14.267373,-2.5822704,2.1599085,-1.8344352
1.746,-17.923107,8.650173,14.446725,-2.6421313,2.1728313,-1.9556079
1.748,-18.142136,9.083999,14.612559,-2.7025728,2.1793756,-2.0838978
1.75,-18.33175,9.499825,14.762958,-2.7636795,2.1789813,-2.2191896
1.752,-18.49038,9.895228,14.896209,-2.8255658,2.171072,-2.3612857
1.754,-18.616901,10.2679405,15.010712,-2.8883944,2.155078,-2.5098567
1.756,-18.710363,10.6158,15.105084,-2.9523473,2.1304252,-2.664492
1.758,-18.769989,10.936837,15.178266,-3.0176296,2.0965996,-2.8247247
1.76,-18.79538,11.229177,15.229398,-3.0844705,2.0531287,-2.990046
1.762,-18.786419,11.491335,15.257907,-3.1530867,1.9995955,-3.1598935
1.764,-18.74323,11.721771,15.263548,-3.2237,1.9356576,-3.3336716
1.766,-18.66613,11.919278,15.246426,-3.296502,1.8610725,-3.5107381
1.768,-18.555738,12.083077,15.206873,-3.3716662,1.7756727,-3.690449
1.77,-18.413069,12.212677,15.145717,-3.4493291,1.6794442,-3.872157
1.772,-18.238811,12.307503,15.064208,-3.5295825,1.5725255,-4.0552163
1.774,-18.033957,12.367527,14.963741,-3.612469,1.4552342,-4.2390175
1.776,-17.799854,12.393069,14.846189,-3.6979556,1.3280697,-4.422984
1.778,-17.537497,12.384587,14.713487,-3.7859535,1.1917901,-4.6065702
1.78,-17.248087,12.342771,14.567586,-3.8763037,1.0473745,-4.7892437
1.782,-16.932941,12.268725,14.410424,-3.9687757,0.8959935,-4.970542
1.784,-16.593039,12.163581,14.243906,-4.063073,0.7390187,-5.1500263
1.786,-16.229866,12.028725,14.069843,-4.1588426,0.57798696,-5.327268
1.788,-15.844694,11.86579,13.890152,-4.255687,0.4145174,-5.501855
1.79,-15.438757,11.676661,13.706528,-4.353159,0.2502823,-5.6733713
1.792,-15.013262,11.463444,13.520669,-4.450812,0.08697128,-5.841443
1.794,-14.569662,11.2283945,13.334173,-4.5481796,-0.07373953,-6.005686
1.796,-14.1092615,10.97384,13.148547,-4.6447916,-0.23019099,-6.165767
1.798,-13.632994,10.702395,12.965154,-4.740184,-0.38081145,-6.3213744
1.8,-13.142017,10.416512,12.784914,-4.83391,-0.5241022,-6.4722686
1.802,-12.637556,10.118681,12.608935,-4.925546,-0.6586189,-6.6182837
1.804,-12.120928,9.811861,12.437849,-5.014693,-0.78303766,-6.7592916
1.806,-11.592666,9.498703,12.2721,-5.1009774,-0.89611197,-6.895277
1.808,-11.053627,9.181812,12.112465,-5.184047,-0.9967103,-7.0262833
1.81,-10.504894,8.863748,11.959182,-5.2635746,-1.0838485,-7.152388
1.812,-9.947049,8.547088,11.812696,-5.339259,-1.1567397,-7.2737217
1.814,-9.380572,8.234109,11.673536,-5.4108157,-1.214783,-7.3904357
1.816,-8.805643,7.927293,11.542032,-5.477973,-1.2575889,-7.5027323
1.818,-8.222412,7.628893,11.418535,-5.5404654,-1.284955,-7.6108637
1.82,-7.6309967,7.3409853,11.303434,-5.598029,-1.296927,-7.7151136
1.822,-7.03141,7.065907,11.19739,-5.650383,-1.2937338,-7.8158207
1.824,-6.42311,6.8038216,11.100041,-5.697249,-1.275826,-7.9133472
1.826,-5.807044,6.5578804,11.012299,-5.73837,-1.243855,-8.008085
1.828,-5.1825423,6.3291693,10.934473,-5.773513,-1.1986728,-8.100476
1.83,-4.5494943,6.118773,10.866719,-5.8025002,-1.1412873,-8.191015
1.832,-3.9080033,5.928178,10.809648,-5.8251934,-1.0728817,-8.280206
1.834,-3.258089,5.7585077,10.763775,-5.8415217,-0.9947834,-8.368538
1.836,-2.5998735,5.6106877,10.729611,-5.8514557,-0.90842724,-8.456539
1.838,-1.9336734,5.48561,10.7076435,-5.8550115,-0.8153205,-8.544727
1.84,-1.2599082,5.3840427,10.6981735,-5.8522635,-0.7170296,-8.633567
1.842,-0.57920456,5.30696,10.70149,-5.8433256,-0.61514044,-8.723513
1.844,0.10758829,5.2550554,10.717773,-5.828314,-0.5112648,-8.815004
1.846,0.7997091,5.2290297,10.747403,-5.807356,-0.40694332,-8.908418
1.848,1.4962273,5.229367,10.790619,-5.7806005,-0.30368662,-9.004121
1.85,2.1961446,5.256597,10.847579,-5.748201,-0.20292568,-9.102429
1.852,2.8988168,5.311238,10.917952,-5.710305,-0.10592222,-9.203651
1.854,3.6034393,5.3938723,11.001734,-5.6670837,-0.013985157,-9.307953
1.856,4.3091283,5.504818,11.098785,-5.618675,0.07169342,-9.415458
1.858,5.015724,5.6443567,11.208928,-5.5651994,0.15009928,-9.526325
1.86,5.7228394,5.812647,11.331606,-5.5067725,0.2202506,-9.640577
1.862,6.4305434,6.009921,11.466514,-5.443487,0.28129053,-9.758171
1.864,7.139388,6.2361193,11.613176,-5.3754253,0.33249044,-9.879002
1.866,7.8499217,6.491268,11.771288,-5.302656,0.3732319,-10.002904
1.868,8.563202,6.774947,11.940461,-5.2252436,0.40297508,-10.129652
1.87,9.280867,7.0863657,12.120155,-5.143262,0.42126036,-10.258947
1.872,10.004177,7.4255157,12.310399,-5.0567994,0.42760706,-10.390435
1.874,10.734992,7.7918096,12.511093,-4.96597,0.42158365,-10.523727
1.876,11.476288,8.1839695,12.721764,-4.870948,0.40270567,-10.658388
1.878,12.230253,8.600576,12.941456,-4.7719297,0.37044907,-10.793978
1.88,12.998859,9.041001,13.171089,-4.669161,0.3242793,-10.930032
1.882,13.785194,9.504,13.412394,-4.5629287,0.2636528,-11.06607
1.884,14.593899,9.986819,13.664352,-4.453552,0.1880188,-11.201593
1.886,15.425608,10.490666,13.929603,-4.341358,0.096886635,-11.336129
1.888,16.284517,11.011939,14.209312,-4.226692,-0.0101614,-11.469234
1.89,17.175417,11.549011,14.501566,-4.1098995,-0.13357973,-11.600409
1.892,18.097553,12.102407,14.809983,-3.9913177,-0.27380133,-11.729197
1.894,19.053026,12.670181,15.138611,-3.8712687,-0.43127203,-11.855236
1.896,20.047571,13.248579,15.487119,-3.7500615,-0.6064439,-11.978188
1.898,21.080374,13.838476,15.856148,-3.627998,-0.7997842,-12.097715
1.9,22.152588,14.439645,16.248985,-3.505333,-1.011775,-12.213508
1.902,23.267078,15.0504055,16.666441,-3.3823123,-1.2428865,-12.325352
1.904,24.424934,15.669712,17.110313,-3.2591116,-1.4935079,-12.433117
1.906,25.625196,16.297295,17.582436,-3.1359105,-1.7639747,-12.536604
1.908,26.867393,16.932308,18.084694,-3.0128598,-2.0544114,-12.635651
1.91,28.150606,17.574455,18.61924,-2.890135,-2.3649693,-12.730035
1.912,29.473852,18.22358,19.187258,-2.767882,-2.6956143,-12.819322
1.914,30.835861,18.879162,19.7892,-2.646245,-3.0460734,-12.903004
1.916,32.234722,19.540916,20.425303,-2.5255294,-3.4164407,-12.980658
1.918,33.66805,20.20855,21.095686,-2.4059465,-3.8063204,-13.051444
1.92,35.133644,20.881271,21.800154,-2.287831,-4.215272,-13.114327
1.922,36.62801,21.557966,22.538483,-2.1716638,-4.6431546,-13.168449
1.924,38.14769,22.237349,23.309288,-2.057839,-5.0894375,-13.212902
1.926,39.689148,22.918068,24.111504,-1.9467492,-5.5532837,-13.246599
1.928,41.2491,23.598352,24.943005,-1.8388702,-6.0339317,-13.268548
1.93,42.824043,24.276127,25.800787,-1.7345276,-6.5303507,-13.277863
1.932,44.41039,24.948713,26.682112,-1.6340169,-7.0410385,-13.273632
1.934,46.003197,25.615078,27.584606,-1.5375904,-7.5642786,-13.255028
1.936,47.600468,26.270538,28.50348,-1.4453617,-8.097982,-13.221287
1.938,49.19779,26.912897,29.435472,-1.357288,-8.639676,-13.171666
1.94,50.79133,27.539726,30.376953,-1.2731597,-9.186665,-13.105417
1.942,52.37787,28.14782,31.323982,-1.1926086,-9.736084,-13.021783
1.944,53.954277,28.734364,32.273037,-1.115048,-10.2849,-12.920039
1.946,55.51774,29.296814,33.220818,-1.03978,-10.830227,-12.799478
1.948,57.06554,29.832829,34.1643,-0.96599525,-11.369273,-12.659362
1.95,58.595837,30.340279,35.101307,-0.89279914,-11.899476,-12.498991
1.952,60.106464,30.817827,36.02995,-0.81924725,-12.418431,-12.317722
1.954,61.59606,31.264538,36.94905,-0.7443106,-12.92388,-12.115
1.956,63.063316,31.680132,37.857754,-0.666866,-13.413752,-11.890287
1.958,64.50684,32.065273,38.755962,-0.58568156,-13.8860655,-11.643176
1.96,65.92558,32.421165,39.643894,-0.4994024,-14.338961,-11.373471
1.962,67.318,32.75021,40.52279,-0.40649486,-14.770609,-11.081128
1.964,68.682884,33.055946,41.394226,-0.30528712,-15.179171,-10.766234
1.966,70.01926,33.343426,42.260803,-0.19394708,-15.563031,-10.429048
1.968,71.325935,33.618904,43.125015,-0.070498705,-15.920747,-10.070003
1.97,72.60248,33.889893,43.989635,0.06723189,-16.250671,-9.6895485
1.972,73.84829,34.164795,44.8571,0.22129703,-16.551878,-9.28853
1.974,75.06264,34.453377,45.730076,0.39382863,-16.82344,-8.867851
1.976,76.24484,34.766376,46.611267,0.5868871,-17.064459,-8.428284
1.978,77.3938,35.116856,47.503853,0.80220294,-17.27464,-7.970834
1.98,78.50837,35.519066,48.411938,1.0412617,-17.454037,-7.4967422
1.982,79.58857,35.987083,49.33937,1.3053398,-17.602722,-7.007202
1.984,80.6341,36.536682,50.29042,1.5952511,-17.721203,-6.503415
1.986,81.6445,37.184887,51.269276,1.9114909,-17.810455,-5.9867105
1.988,82.62156,37.949047,52.280132,2.2542138,-17.871624,-5.4583807
1.99,83.566826,38.84648,53.324368,2.6231852,-17.906204,-4.919656
1.992,84.48103,39.895447,54.403652,3.01786,-17.91591,-4.3716936
1.994,85.367035,41.113518,55.52054,3.437467,-17.902607,-3.8154974
1.996,86.23007,42.515755,56.670605,3.8810353,-17.868149,-3.251874
1.998,87.06569,44.128265,57.847958,4.3474855,-17.814356,-2.681304
2,87.874725,45.97129,59.061424,4.8357005,-17.742905,-2.1039152
2.002,88.65782,48.056385,60.3233,5.3444614,-17.6553,-1.5195475
2.004,89.42734,50.393856,61.63903,5.872414,-17.55274,-0.9277339
2.006,90.19154,52.999043,62.993565,6.41807,-17.436188,-0.32756376
2.008,90.960144,55.889954,64.36326,6.9797688,-17.306309,0.28231645
2.01,91.740486,59.08183,65.742134,7.555726,-17.16333,0.9035797
2.012,92.52977,62.596928,67.13386,8.144055,-17.007053,1.5382192
2.014,93.3283,66.43222,68.52474,8.7428255,-16.83683,2.1884437
2.016,94.13951,70.59219,69.91282,9.350078,-16.65141,2.8567142
2.018,94.97966,75.07487,71.29755,9.963877,-16.449076,3.5457067
2.02,95.85083,79.8815,72.67563,10.582354,-16.227476,4.2582984
2.022,96.759285,85.016136,74.03387,11.203681,-15.9837055,4.997587
2.024,97.71782,90.47628,75.36277,11.826206,-15.7143,5.7671127
2.026,98.69961,96.25155,76.67981,12.448608,-15.415324,6.570763
2.028,99.641205,102.32337,78.028275,13.06974,-15.082927,7.412594
2.03,100.57417,108.637566,79.45822,13.687635,-14.7134,8.296856
2.032,101.54649,115.14247,81.00189,14.299534,-14.302444,9.228328
2.034,102.63472,121.803024,82.644394,14.904443,-13.843676,10.213293
2.036,103.90893,128.6163,84.31458,15.502947,-13.328399,11.258856
2.038,105.31886,135.60022,85.95926,16.094418,-12.748153,12.37186
2.04,106.85335,142.72269,87.58136,16.675804,-12.09576,13.558419
2.042,108.51544,149.87979,89.16861,17.2436,-11.361002,14.823538
2.044,110.31956,156.98682,90.778496,17.794737,-10.52944,16.17139
2.046,112.2624,163.97867,92.46007,18.324347,-9.585609,17.605352
2.048,114.41141,170.76064,94.27942,18.827137,-8.512066,19.12877
2.05,116.79547,177.31927,96.2469,19.297798,-7.2871013,20.744017
2.052,119.45703,183.60602,98.34096,19.728653,-5.8888907,22.45101
2.054,122.4281,189.52765,100.518166,20.108345,-4.298263,24.245565
2.056,125.74877,195.01273,102.78006,20.423923,-2.495586,26.11613
2.058,129.45409,199.97409,105.111176,20.661215,-0.45990455,28.047867
2.06,133.5701,204.32043,107.43637,20.803211,1.8204008,30.028572
2.062,138.07935,208.02466,109.718704,20.832804,4.3389945,32.03492
2.064,143.02672,211.02158,111.9339,20.734356,7.093569,34.0329
2.066,148.41895,213.30595,114.00976,20.49172,10.071377,35.98828
2.068,154.25464,214.8701,115.8604,20.10006,13.2486925,37.8639
2.07,160.54448,215.69379,117.37979,19.56371,16.59454,39.617188
2.072,167.27277,215.7775,118.468925,18.891003,20.072699,41.197094
2.074,174.40572,215.15817,119.06752,18.08356,23.605598,42.527657
2.076,181.90079,213.90274,119.12322,17.167038,27.12327,43.56719
2.078,189.70047,212.06729,118.53806,16.175026,30.548607,44.288513
2.08,197.71933,209.7186,117.20027,15.145837,33.798546,44.662617
2.082,205.8591,206.92159,115.02406,14.120525,36.788754,44.650337
2.084,214.00386,203.74477,111.94282,13.134169,39.436497,44.207108
2.086,222.02289,200.26047,107.90846,12.20839,41.662945,43.29676
2.088,229.77966,196.53784,102.89578,11.351667,43.397575,41.907017
2.09,237.12984,192.64061,96.90628,10.564665,44.590797,40.048096
2.092,243.93509,188.61824,89.974144,9.843199,45.22622,37.744595
2.094,250.05847,184.51654,82.154625,9.176298,45.31778,35.03157
2.096,255.37263,180.36456,73.51553,8.552158,44.90937,31.953796
2.098,259.7704,176.1755,64.15205,7.9610405,44.0744,28.560589
2.1,263.16113,171.96075,54.198116,7.393896,42.903595,24.90251
2.102,265.47833,167.7282,43.820656,6.8368464,41.48961,21.033861
2.104,266.67935,163.48259,33.211426,6.2678566,39.913303,17.018227
2.106,266.74243,159.22224,22.57946,5.658265,38.237965,12.930207
2.108,265.6784,154.93567,12.136612,4.9691663,36.49801,8.857129
2.11,263.5246,150.61711,2.0749588,4.1475887,34.685444,4.9030485
2.112,260.34518,146.27086,-7.422798,3.1310987,32.752953,1.1830902
2.114,256.2112,141.90805,-16.168083,1.8580809,30.631886,-2.18579
2.116,251.22037,137.54294,-23.965408,0.2771597,28.246998,-5.0825152
2.118,245.49283,133.19383,-30.646374,-1.6417923,25.513363,-7.4008713
2.12,239.16254,128.88992,-36.10015,-3.8970165,22.375027,-9.071413
2.122,232.37573,124.65991,-40.25812,-6.459352,18.818424,-10.063884
2.124,225.27338,120.55405,-43.073006,-9.265752,14.875763,-10.390039
2.126,217.98744,116.6041,-44.54781,-12.219764,10.62801,-10.102223
2.128,210.62854,112.842224,-44.722416,-15.199818,6.2221303,-9.280074
2.13,203.31454,109.29316,-43.66718,-18.09742,1.8093386,-8.0656395
2.132,196.14343,105.98103,-41.47308,-20.803865,-2.440175,-6.607201
2.134,189.19514,102.93764,-38.262028,-23.22079,-6.3537025,-5.035531
2.136,182.56909,100.197334,-34.1985,-25.269054,-9.773613,-3.458353
2.138,176.3593,97.79305,-29.4716,-26.89003,-12.570555,-1.9662042
2.14,170.54163,95.770325,-24.264744,-28.049112,-14.654581,-0.6387041
2.142,165.08401,94.14306,-18.734838,-28.741562,-15.983669,0.4556595
2.144,159.94028,92.89138,-12.995856,-28.99155,-16.57034,1.2753863
2.146,155.08594,91.96333,-7.1256638,-28.844486,-16.47816,1.8135285
2.148,150.59665,91.301765,-1.2373524,-28.35868,-15.8061495,2.09169
2.15,146.47522,90.904724,4.511841,-27.605965,-14.681865,2.1505032
2.152,142.69745,90.819145,10.003704,-26.66455,-13.249824,2.044786
2.154,139.22469,91.04431,15.088066,-25.609638,-11.652419,1.8372397
2.156,136.03201,91.548775,19.672287,-24.508717,-10.020754,1.5895076
2.158,133.03555,92.32019,23.687664,-23.419178,-8.4685,1.3576245
2.16,130.20782,93.27247,27.147617,-22.388369,-7.086535,1.1919584
2.162,127.513985,94.373886,30.096235,-21.449318,-5.9350667,1.1347318
2.164,124.93671,95.6342,32.58616,-20.618233,-5.0380826,1.2151022
2.166,122.456314,97.03421,34.6213,-19.896059,-4.387798,1.4473681
2.168,120.06172,98.56845,36.22671,-19.271801,-3.9511905,1.832232
2.17,117.75038,100.23021,37.47052,-18.72618,-3.676939,2.3585415
2.172,115.5499,101.958145,38.36475,-18.234104,-3.5029974,3.006105
2.174,113.418945,103.74373,38.90828,-17.767498,-3.3661158,3.7491975
2.176,111.35543,105.53236,39.13918,-17.297775,-3.2087283,4.5598702
2.178,109.3552,107.2947,39.089504,-16.7987,-2.9819164,5.411371
2.18,107.39577,109.02568,38.790375,-16.24963,-2.649705,6.2802052
2.182,105.4737,110.70705,38.249245,-15.635811,-2.1901274,7.1467204
2.184,103.58943,112.30043,37.437492,-14.950402,-1.5953965,7.99411
2.186,101.73713,113.76221,36.335045,-14.195311,-0.87158704,8.808273
2.188,99.911804,115.07979,34.97498,-13.379988,-0.03513944,9.578674
2.19,98.11931,116.24104,33.398247,-12.519972,0.8901039,10.296852
2.192,96.36048,117.2426,31.620983,-11.634582,1.8760653,10.95429
2.194,94.637726,118.079636,29.653801,-10.744878,2.8941011,11.542179
2.196,92.9534,118.744225,27.509727,-9.872077,3.9171357,12.051966
2.198,91.30455,119.23057,25.204227,-9.036186,4.9202223,12.476236
2.2,89.68975,119.535416,22.755917,-8.255094,5.8802857,12.810129
2.202,88.10002,119.66375,20.184464,-7.5438643,6.77619,13.052469
2.204,86.53013,119.6158,17.522488,-6.9139113,7.5892534,13.205509
2.206,84.97403,119.39945,14.817436,-6.3728566,8.3039,13.273872
2.208,83.420166,119.02692,12.111053,-5.925022,8.90755,13.26367
2.21,81.86171,118.50166,9.431076,-5.571926,9.390534,13.181251
2.212,80.29091,117.826256,6.7974625,-5.3125315,9.746017,13.032156
2.214,78.70134,117.00486,4.2303505,-5.1435957,9.969832,12.820978
2.216,77.094894,116.04575,1.7518883,-5.0600324,10.060272,12.552216
2.218,75.47092,114.961296,-0.60946274,-5.055534,10.018003,12.231239
2.22,73.82424,113.76395,-2.8199234,-5.122782,9.846423,11.864918
2.222,72.15312,112.46529,-4.852707,-5.2534356,9.551936,11.46184
2.224,70.4579,111.07623,-6.6916027,-5.4384212,9.143756,11.031509
2.226,68.73874,109.605606,-8.327654,-5.6681585,8.633852,10.583239
2.228,66.995285,108.0616,-9.754959,-5.9327497,8.036746,10.125702
2.23,65.22623,106.456764,-10.966375,-6.222276,7.3688045,9.666671
2.232,63.432198,104.80682,-11.954537,-6.5272913,6.6473227,9.212866
2.234,61.61706,103.130585,-12.715862,-6.839129,5.8899193,8.770025
2.236,59.786274,101.450874,-13.251289,-7.1502028,5.1137247,8.342989
2.238,57.946167,99.788216,-13.564782,-7.4540253,4.3347483,7.9358716
2.24,56.100834,98.15843,-13.6650715,-7.7451286,3.5674226,7.552081
2.242,54.25412,96.56892,-13.566358,-8.018984,2.8242896,7.194152
2.244,52.407505,95.02169,-13.287006,-8.271952,2.1158848,6.863829
2.246,50.561344,93.51771,-12.84706,-8.501236,1.4507362,6.562317
2.248,48.718548,92.05802,-12.267005,-8.704704,0.8354064,6.290458
2.25,46.885284,90.64746,-11.567488,-8.880686,0.27476856,6.0487843
2.252,45.06799,89.294495,-10.768269,-9.02794,-0.22779994,5.8375435
2.254,43.272118,88.00796,-9.887666,-9.145523,-0.67023104,5.65676
2.256,41.502205,86.794525,-8.945413,-9.232656,-1.0514443,5.506096
2.258,39.761703,85.65697,-7.961792,-9.28878,-1.3711684,5.384818
2.26,38.052135,84.5953,-6.9561634,-9.3135805,-1.629743,5.2916164
2.262,36.374332,83.60669,-5.9463787,-9.307048,-1.8279407,5.224637
2.264,34.729313,82.686035,-4.947935,-9.26946,-1.9669694,5.1815453
2.266,33.118015,81.82859,-3.9749432,-9.201406,-2.0484347,5.15966
2.268,31.54126,81.03034,-3.0396137,-9.103631,-2.074188,5.1561375
2.27,29.999693,80.28732,-2.1534176,-8.9771185,-2.046321,5.16813
2.272,28.49456,79.59512,-1.326397,-8.822977,-1.9671004,5.192952
2.274,27.026573,78.94826,-0.56726456,-8.642396,-1.838867,5.228207
2.276,25.59539,78.341225,0.11579895,-8.436621,-1.6639652,5.271826
2.278,24.201298,77.76762,0.7148342,-8.2070055,-1.4446754,5.3221064
2.28,22.844423,77.2205,1.2231808,-7.955021,-1.1831982,5.3776355
2.282,21.52504,76.69258,1.635252,-7.6822586,-0.8816176,5.437313
2.284,20.244213,76.17656,1.9459343,-7.390446,-0.54188454,5.5003242
2.286,19.002977,75.665924,2.1514225,-7.0814295,-0.16581035,5.566094
2.288,17.802963,75.15462,2.2482815,-6.7571864,0.24490339,5.6342235
2.29,16.646328,74.636986,2.2338467,-6.41983,0.6886237,5.7044473
2.292,15.535198,74.1077,2.1061134,-6.07161,1.1637238,5.776555
2.294,14.472479,73.56201,1.8636532,-5.714917,1.6684794,5.850333
2.296,13.460747,72.995926,1.5053272,-5.352241,2.2009783,5.925514
2.298,12.503211,72.40576,1.0310612,-4.986133,2.7590322,6.0018096
2.3,11.60348,71.78823,0.4417343,-4.619144,3.340088,6.0787954
2.302,10.765199,71.14102,-0.26103973,-4.2538033,3.9411366,6.1558857
2.304,9.991524,70.462494,-1.0752602,-3.8926017,4.558577,6.232304
2.306,9.285469,69.75204,-1.9981346,-3.537972,5.188168,6.307057
2.308,8.649648,69.00922,-3.0260735,-3.1922863,5.8249993,6.3788557
2.31,8.085667,68.23404,-4.154499,-2.8578863,6.463466,6.446144
2.312,7.5943594,67.4267,-5.3780518,-2.537036,7.097253,6.5070815
2.314,7.1755056,66.58756,-6.690092,-2.2319982,7.7193995,6.559509
2.316,6.82788,65.71734,-8.082977,-1.9449857,8.322474,6.6009483
2.318,6.549518,64.81668,-9.547527,-1.6781762,8.8987255,6.628686
2.32,6.3374557,63.886703,-11.073677,-1.4336877,9.440292,6.639931
2.322,6.187704,62.92846,-12.650761,-1.2135069,9.939405,6.6319876
2.324,6.095182,61.94363,-14.266989,-1.019374,10.388666,6.602436
2.326,6.0537915,60.933952,-15.909721,-0.8527218,10.781301,6.549322
2.328,6.0566044,59.90145,-17.56603,-0.71455014,11.111346,6.4712753
2.33,6.0958023,58.848156,-19.222902,-0.6054096,11.373835,6.3676515
2.332,6.1637635,57.77581,-20.866951,-0.52533114,11.564953,6.2385178
2.334,6.25264,56.685883,-22.485016,-0.47376192,11.682142,6.084721
2.336,6.354248,55.58009,-24.064304,-0.4496208,11.724141,5.907773
2.338,6.4608703,54.45991,-25.5924,-0.45126238,11.690991,5.7097015
2.34,6.5648956,53.327206,-27.057655,-0.47653896,11.584046,5.492981
2.342,6.6596565,52.183834,-28.44965,-0.52282965,11.406,5.2603517
2.344,6.7389507,51.03168,-29.759024,-0.5870734,11.160799,5.0146675
2.346,6.797699,49.87248,-30.978325,-0.6658638,10.853649,4.7587857
2.348,6.8316126,48.707596,-32.101593,-0.7554918,10.490835,4.4954557
2.35,6.8372116,47.538395,-33.12428,-0.8520587,10.079607,4.2272396
2.352,6.8122206,46.366104,-34.043262,-0.9516252,9.627928,3.9563863
2.354,6.755314,45.19187,-34.857037,-1.0502708,9.1442175,3.6848562
2.356,6.66631,44.01651,-35.56578,-1.1442623,8.637011,3.4142485
2.358,6.5456333,42.84122,-36.17089,-1.230181,8.114636,3.1458147
2.36,6.3945847,41.666847,-36.67508,-1.3051062,7.5848804,2.8804395
2.362,6.2148123,40.494446,-37.082203,-1.366755,7.0546856,2.6186454
2.364,6.008771,39.324596,-37.397255,-1.4135699,6.5299263,2.3606176
2.366,5.7794447,38.15783,-37.62581,-1.4448206,6.0152817,2.1062255
2.368,5.5296335,36.994698,-37.7735,-1.4605967,5.514125,1.8551139
2.37,5.262582,35.83587,-37.846107,-1.4617858,5.0284753,1.6067857
2.372,4.9813232,34.68212,-37.849106,-1.4499146,4.559083,1.3607185
2.374,4.6888494,33.534515,-37.78741,-1.4269497,4.1055975,1.1165171
2.376,4.388379,32.39427,-37.665688,-1.395114,3.6667666,0.8739871
2.378,4.0832167,31.26308,-37.488335,-1.3566608,3.2406335,0.6332327
2.38,3.7766142,30.142796,-37.259346,-1.313667,2.8248014,0.3946997
2.382,3.4716816,29.035532,-36.982098,-1.2678757,2.4167476,0.15916508
2.384,3.17136,27.943869,-36.659595,-1.2205864,2.0140018,-0.07230246
2.386,2.8782415,26.870728,-36.294228,-1.172641,1.6143512,-0.2984125
2.388,2.5949287,25.819145,-35.887913,-1.1244297,1.2160102,-0.5178065
2.39,2.3237324,24.792465,-35.442017,-1.075946,0.8177464,-0.7291272
2.392,2.0669394,23.794235,-34.957756,-1.0268494,0.41896093,-0.93115747
2.394,1.8264837,22.828182,-34.43653,-0.9765299,0.019725516,-1.1229584
2.396,1.6041155,21.89792,-33.879642,-0.9241914,-0.37929654,-1.303975
2.398,1.4014635,21.006985,-33.288548,-0.8689356,-0.7768657,-1.4740881
2.4,1.2196589,20.158836,-32.664696,-0.80984366,-1.1712861,-1.6336432
2.402,1.0600519,19.35644,-32.009605,-0.7459898,-1.5605057,-1.7834258
2.404,0.9232931,18.602682,-31.325207,-0.6765084,-1.9422817,-1.9246006
2.406,0.8103771,17.89983,-30.613401,-0.60058975,-2.3142943,-2.0585725
2.408,0.7217846,17.249842,-29.87634,-0.5175451,-2.674273,-2.186883
2.41,0.65779305,16.65432,-29.11637,-0.42677075,-3.0201077,-2.311088
2.412,0.6188259,16.114286,-28.335659,-0.32779935,-3.3499136,-2.4326324
2.414,0.6051197,15.63014,-27.536346,-0.22025529,-3.6621346,-2.5527751
2.416,0.61695147,15.201538,-26.720566,-0.10390133,-3.9555671,-2.6725307
2.418,0.6542349,14.82756,-25.890217,0.021398962,-4.229391,-2.7926364
2.42,0.71705055,14.506744,-25.0472,0.15566719,-4.483139,-2.913591
2.422,0.805274,14.236999,-24.193153,0.29882395,-4.7166677,-3.0356665
2.424,0.9186926,14.016184,-23.329937,0.45068407,-4.9301076,-3.1589918
2.426,1.0570264,13.841629,-22.459286,0.6109253,-5.123814,-3.2835934
2.428,1.2200129,13.710474,-21.582867,0.77913165,-5.298322,-3.4094439
2.43,1.4071851,13.619577,-20.702087,0.95478535,-5.4542894,-3.5364816
2.432,1.6177955,13.565694,-19.817852,1.1372869,-5.5923953,-3.6646333
2.434,1.8509703,13.545358,-18.931194,1.3259776,-5.7133503,-3.7938128
2.436,2.1062608,13.555115,-18.042816,1.5201577,-5.8178506,-3.923924
2.438,2.382996,13.591353,-17.153494,1.7191553,-5.906539,-4.0548706
2.44,2.6801147,13.650621,-16.263805,1.9223375,-5.9799933,-4.186537
2.442,2.9966726,13.729577,-15.3744755,2.1291413,-6.038724,-4.3187957
2.444,3.3314893,13.824823,-14.486398,2.3390996,-6.0831695,-4.4515147
2.446,3.6833432,13.933271,-13.600326,2.5518596,-6.1137257,-4.5845757
2.448,4.050664,14.052158,-12.717108,2.7671773,-6.1307263,-4.7178636
2.45,4.4319944,14.178746,-11.837495,2.9848952,-6.134481,-4.8512774
2.452,4.8255415,14.310751,-10.962546,3.2049422,-6.1252894,-4.984743
2.454,5.2295923,14.446028,-10.093345,3.4273024,-6.10345,-5.118254
2.456,5.6423593,14.582713,-9.231244,3.651979,-6.069293,-5.2518463
2.458,6.0616693,14.71956,-8.377722,3.8789756,-6.0231776,-5.385572
2.46,6.485671,14.855274,-7.534328,4.108257,-5.965541,-5.5194793
2.462,6.9122224,14.988925,-6.703002,4.3397303,-5.896904,-5.6536016
2.464,7.3394656,15.119837,-5.8855,4.5732083,-5.8178577,-5.7878714
2.466,7.765272,15.247836,-5.0835447,4.808383,-5.7291274,-5.9220967
2.468,8.187808,15.372942,-4.2989745,5.0448103,-5.631572,-6.055931
2.47,8.605168,15.495575,-3.533474,5.2819066,-5.5261593,-6.188855
2.472,9.015737,15.616237,-2.7886758,5.5189366,-5.4140644,-6.3202195
2.474,9.417785,15.735777,-2.065857,5.7550235,-5.296604,-6.4492564
2.476,9.809963,15.855246,-1.3662777,5.989182,-5.17527,-6.5751977
2.478,10.191243,15.975851,-0.69098806,6.220354,-5.0517354,-6.6973033
2.48,10.5604725,16.098814,-0.040938854,6.4474425,-4.927762,-6.8149157
2.482,10.9169,16.225712,0.58342457,6.6693964,-4.805174,-6.9275026
2.484,11.260166,16.35818,1.1814218,6.885227,-4.6858244,-7.0346847
2.486,11.589806,16.498062,1.7530303,7.094033,-4.571553,-7.136232
2.488,11.905816,16.646988,2.2984152,7.295062,-4.4641066,-7.232054
2.49,12.208541,16.806654,2.8181996,7.487701,-4.365076,-7.3221836
2.492,12.4983635,16.978964,3.3130412,7.671501,-4.275893,-7.406732
2.494,12.776264,17.165695,3.7838154,7.846158,-4.197828,-7.485857
2.496,13.04343,17.368454,4.2315283,8.011463,-4.1319585,-7.5597754
2.498,13.301105,17.588875,4.6571274,8.167333,-4.079198,-7.6287503
2.5,13.5508375,17.82801,5.061538,8.313752,-4.0403013,-7.693105
2.502,13.794279,18.08709,5.4457154,8.450748,-4.015876,-7.7532754
2.504,14.033232,18.366749,5.81072,8.578403,-4.0063667,-7.809801
2.506,14.269502,18.667273,6.1572685,8.696828,-4.0121155,-7.8633366
2.508,14.504876,18.988876,6.486255,8.8061285,-4.033294,-7.9146495
2.51,14.7412615,19.331352,6.798581,8.906413,-4.069925,-7.964606
2.512,14.980604,19.693604,7.0943327,8.997807,-4.1218457,-8.014173
2.514,15.2244215,20.074223,7.3740373,9.080431,-4.188705,-8.064396
2.516,15.4751425,20.471128,7.6377115,9.154381,-4.269967,-8.116381
2.518,15.733796,20.882603,7.8857026,9.219725,-4.364918,-8.171252
2.52,16.001953,21.306404,8.117508,9.276511,-4.4726686,-8.230058
2.522,16.281124,21.739326,8.33245,9.324729,-4.592226,-8.293769
2.524,16.572824,22.177757,8.529724,9.36427,-4.7225547,-8.363258
2.526,16.878021,22.617851,8.708422,9.394951,-4.8626146,-8.439257
2.528,17.19755,23.05592,8.867413,9.416464,-5.0114093,-8.522283
2.53,17.532001,23.487955,9.00575,9.428361,-5.168041,-8.612639
2.532,17.882128,23.909746,9.122418,9.430058,-5.331763,-8.710362
2.534,18.248003,24.31709,9.2165165,9.420869,-5.502047,-8.815219
2.536,18.62973,24.70591,9.287383,9.399961,-5.678592,-8.9267025
2.538,19.027006,25.07214,9.334414,9.366461,-5.86129,-9.044019
2.54,19.439419,25.41184,9.3573475,9.319445,-6.0501947,-9.166179
2.542,19.866714,25.721151,9.356016,9.2579775,-6.245507,-9.292002
2.544,20.30796,25.996975,9.330811,9.181162,-6.4476476,-9.420067
2.546,20.761246,26.237253,9.28199,9.088091,-6.657372,-9.548869
2.548,21.226202,26.439053,9.210703,8.977908,-6.8754144,-9.676924
2.55,21.701508,26.599684,9.117844,8.84985,-7.102546,-9.802925
2.552,22.185322,26.71713,9.005011,8.703155,-7.3397174,-9.925823
2.554,22.676123,26.790142,8.874146,8.5371275,-7.5879383,-10.044811
2.556,23.172117,26.817587,8.727261,8.351143,-7.848228,-10.159399
2.558,23.671513,26.798634,8.56679,8.144711,-8.121498,-10.269422
2.56,24.172218,26.73307,8.395286,7.917506,-8.4084835,-10.375091
2.562,24.672415,26.62066,8.215354,7.6693654,-8.709668,-10.47684
2.564,25.170193,26.461266,8.029726,7.400354,-9.025163,-10.575342
2.566,25.66342,26.255188,7.8411655,7.11071,-9.354702,-10.671393
2.568,26.15025,26.002558,7.6522007,6.8008537,-9.697539,-10.765792
2.57,26.628551,25.704205,7.465104,6.4713583,-10.052472,-10.859264
2.572,27.096405,25.361,7.2820826,6.122878,-10.417864,-10.952366
2.574,27.551601,24.973862,7.1048985,5.75617,-10.791702,-11.04545
2.576,27.992071,24.543987,6.93515,5.3721094,-11.171718,-11.138617
2.578,28.415789,24.072708,6.7739534,4.9715796,-11.555422,-11.23185
2.58,28.820686,23.561234,6.6219816,4.5555625,-11.940153,-11.324895
2.582,29.204367,23.010971,6.479555,4.12515,-12.323183,-11.417225
2.584,29.564745,22.423634,6.3466024,3.6816177,-12.701805,-11.508153
2.586,29.899647,21.80106,6.222724,3.2264047,-13.0733,-11.596991
2.588,30.20665,21.145496,6.107501,2.761137,-13.434955,-11.682956
2.59,30.483694,20.459265,6.00004,2.2876744,-13.7841,-11.76531
2.592,30.728493,19.744858,5.899276,1.8080297,-14.118112,-11.843302
2.594,30.93842,19.005075,5.8038797,1.3243341,-14.434494,-11.916113
2.596,31.111406,18.243065,5.7122464,0.83880043,-14.730821,-11.982927
2.598,31.245256,17.46235,5.6226983,0.3536415,-15.00473,-12.0429535
2.6,31.337933,16.666616,5.533246,-0.12890148,-15.253956,-12.095272
2.602,31.387615,15.859323,5.4420605,-0.6067238,-15.47659,-12.138792
2.604,31.392607,15.044282,5.347294,-1.0778408,-15.67099,-12.172268
2.606,31.35159,14.225179,5.247466,-1.5403395,-15.835673,-12.194263
2.608,31.263647,13.405839,5.1410165,-1.9924498,-15.969475,-12.203381
2.61,31.128246,12.590295,5.02677,-2.432558,-16.071566,-12.198129
2.612,30.944904,11.782395,4.9035845,-2.8592033,-16.141476,-12.177097
2.614,30.71355,10.986001,4.7701693,-3.271038,-16.179062,-12.138935
2.616,30.434752,10.204657,4.6256022,-3.6668367,-16.184528,-12.082498
2.618,30.109325,9.44153,4.4689546,-4.0454717,-16.15846,-12.006911
2.62,29.738602,8.699383,4.2995872,-4.405916,-16.101757,-11.91164
2.622,29.32415,7.981249,4.1176662,-4.747268,-16.015623,-11.796504
2.624,28.868095,7.2896976,3.9230409,-5.0687304,-15.901481,-11.661627
2.626,28.37233,6.6270466,3.7159824,-5.3696175,-15.760979,-11.507439
2.628,27.840237,5.994461,3.4965656,-5.649407,-15.595862,-11.334629
2.63,27.274487,5.393216,3.2659388,-5.90773,-15.407845,-11.144024
2.632,26.678091,4.824828,3.025247,-6.144222,-15.198548,-10.936403
2.634,26.05436,4.290411,2.7757516,-6.3586535,-14.969518,-10.712663
2.636,25.40688,3.790722,2.518828,-6.5508966,-14.722066,-10.473774
2.638,24.739597,3.325881,2.2560048,-6.7209187,-14.457278,-10.220587
2.64,24.056398,2.8957453,1.9888403,-6.8687224,-14.17605,-9.953862
2.642,23.360897,2.5002422,1.7190164,-6.994378,-13.879047,-9.67436
2.644,22.656925,2.1390247,1.4480948,-7.098011,-13.566715,-9.382879
2.646,21.948374,1.8115368,1.1775622,-7.179812,-13.239365,-9.080298
2.648,21.23883,1.5172272,0.908873,-7.2400312,-12.897112,-8.767599
2.65,20.531977,1.2554493,0.6433589,-7.279022,-12.540015,-8.445844
2.652,19.831163,1.0254745,0.3823349,-7.297267,-12.168072,-8.11622
2.654,19.140015,0.826149,0.12697706,-7.295346,-11.781163,-7.7800055
2.656,18.46205,0.6558223,-0.12140983,-7.273899,-11.379175,-7.4385633
2.658,17.799433,0.51403046,-0.36189047,-7.2336617,-10.961978,-7.0932894
2.66,17.155313,0.40006113,-0.5934911,-7.175389,-10.529483,-6.7455993
2.662,16.532444,0.31266212,-0.81539184,-7.0998755,-10.081661,-6.396921
2.664,15.933025,0.25045347,-1.0268952,-7.007893,-9.618635,-6.0486565
2.666,15.359078,0.21204996,-1.2272537,-6.900239,-9.140678,-5.7021837
2.668,14.812604,0.19613886,-1.4160386,-6.777752,-8.648271,-5.3588753
2.67,14.295097,0.2013216,-1.5929563,-6.64128,-8.142056,-5.0199924
2.672,13.808043,0.22648716,-1.7576212,-6.491725,-7.6228414,-4.686676
2.674,13.35249,0.27053642,-1.9099213,-6.3300247,-7.091619,-4.3599663
2.676,12.929535,0.3322909,-2.0498416,-6.1571245,-6.5495152,-4.040755
2.678,12.540003,0.4104736,-2.1772356,-5.9740157,-5.9977837,-3.7298157
2.68,12.18453,0.5039861,-2.2921138,-5.781686,-5.4376907,-3.427751
2.682,11.8636,0.61178637,-2.3946319,-5.581085,-4.870522,-3.1349475
2.684,11.57746,0.73291993,-2.4852016,-5.3730965,-4.29755,-2.8516436
2.686,11.326361,0.8664088,-2.5643272,-5.1585546,-3.7200212,-2.5779495
2.688,11.110217,1.0113971,-2.6324883,-4.938201,-3.13909,-2.3138683
2.69,10.928784,1.1673105,-2.6904325,-4.712677,-2.5558367,-2.0592918
2.692,10.781998,1.3336895,-2.7390065,-4.4825606,-1.9712672,-1.8140665
2.694,10.669043,1.5099511,-2.7790828,-4.2483644,-1.3864101,-1.577946
2.696,10.589267,1.6957216,-2.8117728,-4.010598,-0.8023435,-1.3506752
2.698,10.541982,1.8904194,-2.838291,-3.7697675,-0.2202475,-1.1319789
2.7,10.525912,2.093799,-2.8598173,-3.5264115,0.35861385,-0.92159903
2.702,10.54013,2.3055832,-2.8776383,-3.2811105,0.9328463,-0.71930665
2.704,10.583518,2.5254712,-2.892776,-3.0345066,1.5009317,-0.5249073
2.706,10.654665,2.7532578,-2.9062893,-2.7873082,2.0612402,-0.3382305
2.708,10.752022,2.9885945,-2.9192028,-2.540304,2.6120052,-0.15910438
2.71,10.873873,3.2314231,-2.9322896,-2.2943711,3.1513872,0.01262784
2.712,11.01856,3.4817204,-2.9462476,-2.0504177,3.6774876,0.17710418
2.714,11.184303,3.739336,-2.9615278,-1.8094022,4.188409,0.33446097
2.716,11.368818,4.004365,-2.9786837,-1.5722605,4.6822667,0.48484778
2.718,11.570286,4.2767096,-2.9977288,-1.3398671,5.1572447,0.62845284
2.72,11.786638,4.5562153,-3.0187917,-1.1130193,5.6116266,0.7654879
2.722,12.016063,4.8425403,-3.0414445,-0.89239943,6.043839,0.89623046
2.724,12.256896,5.1354094,-3.065054,-0.6785612,6.4524674,1.0209783
2.726,12.507191,5.434637,-3.0887942,-0.471902,6.8363285,1.1400679
2.728,12.765303,5.739807,-3.1117883,-0.27268243,7.1944513,1.2538749
2.73,13.029454,6.0505247,-3.1330764,-0.08101618,7.5261226,1.3628173
2.732,13.298099,6.366342,-3.1515365,0.10313761,7.8308735,1.4673407
2.734,13.570087,6.686154,-3.1660662,0.2799325,8.108477,1.5678599
2.736,13.844028,7.0091705,-3.175519,0.44961917,8.358956,1.6647894
2.738,14.118994,7.3341036,-3.1788492,0.6125368,8.582554,1.758512
2.74,14.394093,7.6596184,-3.1752174,0.769083,8.779705,1.8493669
2.742,14.668513,7.9839435,-3.1635695,0.9196869,8.950997,1.9376416
2.744,14.941647,8.305304,-3.143165,1.0647944,9.097205,2.0235806
2.746,15.213205,8.62167,-3.1135995,1.2048377,9.219187,2.1073737
2.748,15.4825535,8.930885,-3.0743465,1.3402147,9.317905,2.1891742
2.75,15.749366,9.230906,-3.0253613,1.4712768,9.394342,2.26912
2.752,16.013493,9.5193205,-2.9665668,1.5983152,9.449519,2.3472908
2.754,16.27479,9.793665,-2.898081,1.7215236,9.484438,2.4237545
2.756,16.5327,10.051596,-2.8203056,1.8410112,9.500055,2.4985337
2.758,16.786882,10.29049,-2.733841,1.9567921,9.49728,2.571617
2.76,17.036882,10.507836,-2.6395242,2.0687902,9.476973,2.6429417
2.762,17.281958,10.701372,-2.5383523,2.1768453,9.439937,2.7123723
2.764,17.521265,10.868847,-2.4314013,2.2807498,9.386946,2.7797027
2.766,17.753922,11.008277,-2.3198876,2.3802366,9.318746,2.8446438
2.768,17.978874,11.117968,-2.2053154,2.4749866,9.236047,2.9068277
2.77,18.194729,11.196447,-2.0888429,2.5646627,9.139569,2.965821
2.772,18.400434,11.242594,-1.9720101,2.6488953,9.03002,3.0211458
2.774,18.594448,11.255604,-1.8562708,2.727305,8.908115,3.0723193
2.776,18.775402,11.235182,-1.7431679,2.7995303,8.774612,3.1188607
2.778,18.941895,11.18153,-1.6339903,2.8652036,8.63025,3.1603785
2.78,19.092619,11.095098,-1.5300188,2.9239879,8.47572,3.1965868
2.782,19.226261,10.976762,-1.4324214,2.9755669,8.311648,3.2272959
2.784,19.34171,10.827966,-1.3421478,3.019668,8.138652,3.2524319
2.786,19.43798,10.650445,-1.2599101,3.0560532,7.9572406,3.2720695
2.788,19.514477,10.446555,-1.1864121,3.0845604,7.767805,3.2864375
2.79,19.570627,10.218656,-1.122061,3.1050897,7.5706186,3.2959073
2.792,19.606266,9.969457,-1.0670633,3.1176348,7.365825,3.3009493
2.794,19.621672,9.702101,-1.0213616,3.122291,7.153464,3.3021245
2.796,19.617094,9.419835,-0.9848771,3.1192374,6.9334984,3.3000474
2.798,19.593283,9.125931,-0.9572203,3.108758,6.7058454,3.295322
2.8,19.550976,8.823862,-0.93793845,3.0912232,6.470477,3.2885523
2.802,19.491404,8.516993,-0.92644453,3.0670836,6.2274776,3.2802663
2.804,19.415936,8.208578,-0.92215204,3.036851,5.9770837,3.270944
2.806,19.325993,7.901762,-0.9242785,3.0010538,5.71973,3.2609825
2.808,19.2229,7.59956,-0.93216205,2.9602723,5.4561267,3.2506852
2.81,19.108402,7.304778,-0.9449425,2.9150794,5.1872435,3.2402782
2.812,18.983835,7.019892,-0.96176004,2.8660545,4.9142766,3.2299256
2.814,18.850756,6.7470593,-0.98192644,2.8137465,4.638629,3.2197456
2.816,18.710468,6.488003,-1.0046561,2.7586625,4.361824,3.2097962
2.818,18.56428,6.244309,-1.0291324,2.701242,4.085456,3.2001019
2.82,18.413155,6.0170736,-1.0546365,2.6418674,3.8111305,3.1906438
2.822,18.258015,5.807012,-1.0804458,2.5808568,3.5403814,3.181376
2.824,18.099468,5.614553,-1.1058047,2.5184422,3.2746248,3.1722102
2.826,17.938515,5.439604,-1.1301095,2.4547749,3.0151234,3.1630194
2.828,17.77514,5.2819757,-1.1526864,2.3899517,2.7629488,3.1536388
2.83,17.609577,5.141142,-1.172858,2.3240194,2.5189862,3.143918
2.832,17.441921,5.0164313,-1.1900771,2.2570062,2.2839832,3.13368
2.834,17.271984,4.9069004,-1.2036304,2.1889327,2.0585575,3.1227853
2.836,17.099554,4.8115344,-1.2129698,2.1198149,1.8431804,3.1111283
2.838,16.924498,4.729097,-1.2174302,2.0497086,1.6381938,3.0986772
2.84,16.746487,4.6585317,-1.2164167,1.9787061,1.4438791,3.0854404
2.842,16.565334,4.5983825,-1.2094344,1.9069302,1.2604676,3.0714855
2.844,16.380796,4.5476027,-1.1958872,1.8345675,1.0881331,3.0569427
2.846,16.192776,4.5048423,-1.1751987,1.7618473,0.9270421,3.0420105
2.848,16.001244,4.468837,-1.1470432,1.6890473,0.77733654,3.0269418
2.85,15.806306,4.4384317,-1.1109767,1.61651,0.6391361,3.0120378
2.852,15.608166,4.412525,-1.0668758,1.5446177,0.5125232,2.9976478
2.854,15.40723,4.3899636,-1.0145417,1.4737988,0.39756382,2.9841142
2.856,15.203939,4.3696823,-0.953771,1.4044822,0.29427785,2.9717999
2.858,14.998921,4.3507166,-0.88480365,1.3371,0.20263475,2.9610145
2.86,14.792911,4.331958,-0.8076353,1.2720616,0.12254357,2.9520407
2.862,14.586679,4.3126364,-0.7227837,1.2096895,0.053830147,2.9450846
2.864,14.381152,4.291888,-0.6305891,1.1502173,-0.0037307143,2.9402783
2.866,14.1773815,4.269006,-0.53158486,1.0937672,-0.05042863,2.937671
2.868,13.976425,4.243635,-0.42644727,1.0403613,-0.08659673,2.9372263
2.87,13.779288,4.215243,-0.31578064,0.98990834,-0.11257601,2.938851
2.872,13.587215,4.183364,-0.20033658,0.94222283,-0.12874597,2.9423823
2.874,13.401103,4.147695,-0.08096385,0.8970363,-0.13547736,2.9476404
2.876,13.222073,4.1079173,0.041447997,0.8540339,-0.13313001,2.9544353
2.878,13.050915,4.0640035,0.16623342,0.8128891,-0.12205285,2.962595
2.88,12.8884325,4.0158253,0.29235554,0.7732848,-0.10256195,2.9719675
2.882,12.735259,3.963521,0.41904914,0.73493195,-0.074968755,2.982431
2.884,12.591921,3.9070377,0.5454997,0.6975837,-0.039580166,2.9938724
2.886,12.458918,3.8466134,0.67112243,0.66103816,0.0033107996,3.0062141
2.888,12.3363285,3.7823968,0.7950394,0.62516737,0.053416193,3.0194
2.89,12.2244835,3.7146516,0.9167336,0.58988714,0.11044091,3.0333624
2.892,12.123251,3.643805,1.0354902,0.55512583,0.17406332,3.0480263
2.894,12.032522,3.5700727,1.1508482,0.5208324,0.24392653,3.0633073
2.896,11.9520235,3.4940124,1.262241,0.4869793,0.31966424,3.0791044
2.898,11.88137,3.4159293,1.3691349,0.45351297,0.40087086,3.0952892
2.9,11.820091,3.336216,1.4711504,0.4203635,0.48710054,3.1117313
2.902,11.767689,3.2553682,1.5680112,0.38746566,0.5778859,3.128288
2.904,11.723337,3.1738281,1.6593858,0.3547488,0.6727519,3.1448267
2.906,11.686668,3.091908,1.745006,0.32212955,0.77121025,3.1611845
2.908,11.656762,3.0100121,1.8245952,0.28953022,0.8727631,3.1772232
2.91,11.633076,2.928586,1.898026,0.2568879,0.97693473,3.1928103
2.912,11.614706,2.8479815,1.9651365,0.2241528,1.0832633,3.2078345
2.914,11.60098,2.76859,2.0259619,0.19128674,1.1913218,3.2221935
2.916,11.591122,2.6907902,2.080394,0.15828097,1.3006971,3.2358105
2.918,11.584497,2.6148643,2.1284285,0.12514472,1.4110162,3.2486138
2.92,11.58046,2.5410295,2.1700535,0.09190565,1.5219307,3.2605448
2.922,11.578405,2.4697084,2.2052252,0.058601618,1.6330991,3.2715688
2.924,11.577827,2.4011102,2.234167,0.025268435,1.7441971,3.2816646
2.926,11.5781765,2.3355036,2.2569253,-0.0080446005,1.8549252,3.2908301
2.928,11.578968,2.2732763,2.273563,-0.04130459,1.9649807,3.2990623
2.93,11.579822,2.214518,2.284172,-0.074496865,2.07408,3.3063881
2.932,11.580536,2.159554,2.2889216,-0.1076107,2.18193,3.3128374
2.934,11.580854,2.1085162,2.2879276,-0.14065707,2.2882333,3.3184466
2.936,11.580542,2.0617223,2.2814937,-0.17365885,2.3927124,3.3232803
2.938,11.579437,2.019168,2.2697425,-0.20666456,2.4950802,3.3273869
2.94,11.577437,1.980978,2.2530234,-0.23972404,2.5950627,3.3308172
2.942,11.574502,1.9471436,2.2314725,-0.27292967,2.6923666,3.3335896
2.944,11.570639,1.9176717,2.2054567,-0.30637014,2.78674,3.3357263
2.946,11.565807,1.8924923,2.175334,-0.34014404,2.877933,3.3372164
2.948,11.559938,1.8716588,2.1413264,-0.37435722,2.965714,3.3380408
2.95,11.553058,1.8549094,2.1037855,-0.40911543,3.04988,3.3381572
2.952,11.545206,1.8421855,2.0630925,-0.44452465,3.1302357,3.3375144
2.954,11.536228,1.833334,2.0196323,-0.4806732,3.2066228,3.336052
2.956,11.526375,1.828165,1.9736563,-0.5176554,3.278894,3.3337064
2.958,11.515583,1.8265309,1.9256423,-0.55553854,3.3469348,3.3304276
2.96,11.503965,1.8282509,1.8758681,-0.59436524,3.4106536,3.3262072
2.962,11.491468,1.8330088,1.8247712,-0.6341765,3.4699774,3.3210278
2.964,11.478031,1.8406925,1.7726429,-0.6749661,3.5248623,3.3149004
2.966,11.4636,1.8510423,1.719795,-0.71672,3.575288,3.3078578
2.968,11.448264,1.8637996,1.6665642,-0.7593926,3.6212642,3.299975
2.97,11.431896,1.8788466,1.6131601,-0.8029313,3.6628318,3.291309
2.972,11.414616,1.8959436,1.5599923,-0.84727025,3.7000647,3.2819648
2.974,11.3962555,1.9150229,1.5071919,-0.89233935,3.7330768,3.2720323
2.976,11.376942,1.9358349,1.4550166,-0.9380536,3.7620146,3.2616107
2.978,11.356607,1.9582105,1.4036561,-0.9843173,3.7870338,3.2508008
2.98,11.335241,1.9821,1.35318,-1.0310663,3.8083282,3.2396793
2.982,11.312764,2.00742,1.3038543,-1.0782087,3.82611,3.2283459
2.984,11.289349,2.0340872,1.2557431,-1.1256737,3.8405695,3.2168677
2.986,11.264887,2.0619874,1.2090303,-1.173402,3.8519144,3.2053282
2.988,11.239477,2.091044,1.1636722,-1.2213289,3.8603477,3.1937926
2.99,11.213134,2.1212397,1.1197892,-1.2694067,3.8660443,3.182312
2.992,11.185812,2.1524615,1.0775033,-1.3175824,3.8691764,3.1709685
2.994,11.157727,2.1848476,1.0368273,-1.3658005,3.8698816,3.159806
2.996,11.1287365,2.2181072,0.9977164,-1.4140054,3.868316,3.1488957
2.998,11.099017,2.2522373,0.9603362,-1.4621387,3.8645978,3.1382947
3,11.068483,2.287238,0.92457795,-1.5101439,3.8588512,3.1280522
3.002,11.037319,2.3228922,0.8906219,-1.5579566,3.8511949,3.1181889
3.004,11.005535,2.3592062,0.8583667,-1.6055149,3.8417406,3.1087453
3.006,10.973247,2.395912,0.8277378,-1.6527439,3.830617,3.0997431
3.008,10.940572,2.4329734,0.7989018,-1.6995679,3.8179193,3.09118
3.01,10.907518,2.4702804,0.7718935,-1.7459189,3.8037586,3.083045
3.012,10.874098,2.507657,0.7464869,-1.7917281,3.788236,3.0753107
3.014,10.840612,2.5449607,0.72286963,-1.8369281,3.7714453,3.0679398
3.016,10.807052,2.5820796,0.7010646,-1.8814502,3.7534766,3.0608943
3.018,10.773512,2.6189005,0.68101907,-1.9252526,3.7344203,3.0541346
3.02,10.74014,2.6552315,0.66277766,-1.9682791,3.7143602,3.0476148
3.022,10.706989,2.6909778,0.6462989,-2.0104964,3.6933837,3.0412974
3.024,10.674271,2.726007,0.631649,-2.0518594,3.6715727,3.0351598
3.026,10.64212,2.7602715,0.6187763,-2.092332,3.6490045,3.029172
3.028,10.610486,2.7937803,0.6076155,-2.1318867,3.6257727,3.023339
3.03,10.579605,2.826426,0.59818244,-2.1705048,3.6019783,3.017668
3.032,10.549522,2.8581977,0.5904608,-2.2081506,3.5777066,3.0121803
3.034,10.520374,2.8891308,0.58434606,-2.2447808,3.5530558,3.0069265
3.036,10.492249,2.9194088,0.57983494,-2.280377,3.52811,3.0019372
3.038,10.465267,2.949018,0.57685757,-2.3148985,3.5029733,2.9972658
3.04,10.439634,2.9781957,0.57544947,-2.3483028,3.477735,2.9929605
3.042,10.41533,3.0070667,0.5754826,-2.380558,3.4524794,2.9890642
3.044,10.392504,3.03598,0.5768733,-2.411624,3.4272938,2.9856155
3.046,10.371141,3.0651488,0.57956123,-2.4414601,3.402244,2.9826272
3.048,10.351517,3.0949454,0.5835962,-2.4700472,3.3774009,2.980126
3.05,10.333696,3.1255834,0.5888643,-2.4973412,3.3528047,2.9781127
3.052,10.317579,3.157498,0.5954695,-2.5233178,3.328504,2.9766014
3.054,10.303312,3.1910071,0.60323715,-2.5479221,3.3045104,2.9755847
3.056,10.290928,3.2265477,0.6122446,-2.5711114,3.2808306,2.975063
3.058,10.280343,3.264457,0.62259674,-2.5928125,3.2574465,2.975018
3.06,10.271585,3.3050823,0.63433456,-2.612967,3.2343385,2.97545
3.062,10.264502,3.3488789,0.64746475,-2.6314945,3.2114768,2.9763834
3.064,10.25922,3.3960674,0.66219234,-2.648303,3.1888347,2.9778287
3.066,10.25527,3.4469354,0.67872477,-2.663304,3.1663945,2.979814
3.068,10.25268,3.501848,0.69725084,-2.676403,3.1441643,2.9823864
3.07,10.25115,3.5608506,0.7179761,-2.6874928,3.12217,2.9855878
3.072,10.250682,3.6242976,0.7410126,-2.6964662,3.1004763,2.9894505
3.074,10.250916,3.69221,0.76673746,-2.703229,3.0791838,2.9940076
3.076,10.251553,3.7647724,0.79554796,-2.7076921,3.0584223,2.9992752
3.078,10.25238,3.8420115,0.8276,-2.7097816,3.0383644,3.005259
3.08,10.253256,3.9239376,0.86333084,-2.7094243,3.0192103,3.0119379
3.082,10.253557,4.010558,0.9030051,-2.7065601,3.0011582,3.019269
3.084,10.253313,4.10182,0.9469471,-2.7011676,2.9844131,3.0271928
3.086,10.252245,4.197677,0.9955592,-2.6932468,2.9691832,3.0356216
3.088,10.25018,4.2980328,1.049232,-2.6828117,2.9556265,3.0444822
3.09,10.246891,4.4027624,1.1081734,-2.6698773,2.9438844,3.053676
3.092,10.242212,4.51182,1.1727848,-2.6544921,2.9340575,3.0631185
3.094,10.236,4.624974,1.2433677,-2.6367114,2.9262052,3.0727508
3.096,10.228062,4.7423306,1.3201199,-2.6165903,2.9203413,3.08253
3.098,10.218327,4.863613,1.4034119,-2.5941808,2.9164858,3.0924535
3.1,10.206755,4.9887486,1.4934921,-2.5695329,2.914638,3.1025395
3.102,10.193312,5.117605,1.5904951,-2.5426762,2.914829,3.1128433
3.104,10.178116,5.2499905,1.6946354,-2.513624,2.9171054,3.123438
3.106,10.161216,5.38593,1.8060117,-2.4823642,2.9215517,3.1344163
3.108,10.142706,5.525214,1.9246674,-2.4488869,2.9283175,3.1458826
3.11,10.122847,5.667576,2.0506105,-2.413144,2.9375942,3.1579509
3.112,10.101536,5.8129883,2.1837192,-2.3750772,2.949598,3.1707048
3.114,10.079325,5.9611473,2.3238568,-2.334604,2.9645953,3.184195
3.116,10.056188,6.111827,2.47086,-2.291653,2.9828799,3.1984375
3.118,10.0324135,6.2648964,2.6242957,-2.2461371,3.0047338,3.2134104
3.12,10.008399,6.420051,2.7837834,-2.1979785,3.0304325,3.2290435
3.122,9.984428,6.577037,2.948947,-2.1471038,3.060217,3.2452064
3.124,9.960759,6.735547,3.1191726,-2.0934777,3.094287,3.261742
3.126,9.937599,6.8956237,3.2938333,-2.037094,3.1327872,3.27846
3.128,9.91535,7.056922,3.4723454,-1.977956,3.1757865,3.2951326
3.13,9.894334,7.219283,3.6538963,-1.9161124,3.223267,3.3115196
3.132,9.874946,7.3824244,3.837768,-1.8516594,3.2751198,3.3273811
3.134,9.857477,7.5462823,4.023023,-1.7847412,3.331162,3.3424892
3.136,9.842223,7.7106476,4.2089415,-1.7155443,3.3911488,3.3566594
3.138,9.829733,7.875513,4.39465,-1.644283,3.454771,3.369761
3.14,9.820171,8.040987,4.579357,-1.5712272,3.521679,3.3817284
3.142,9.813903,8.207062,4.762202,-1.4966743,3.5915077,3.3925462
3.144,9.811321,8.373957,4.9423227,-1.4209452,3.6638734,3.4022799
3.146,9.813034,8.541655,5.119011,-1.344354,3.738383,3.4110434
3.148,9.819284,8.710571,5.2915635,-1.2672269,3.8146775,3.4189847
3.15,9.830506,8.880958,5.459241,-1.1898859,3.8923872,3.42629
3.152,9.847141,9.053175,5.6214066,-1.1126233,3.971159,3.4331408
3.154,9.869794,9.227486,5.7775774,-1.0357218,4.0506606,3.4397311
3.156,9.899081,9.40433,5.927203,-0.959442,4.13056,3.4462218
3.158,9.935503,9.584126,6.069832,-0.88402,4.2105675,3.452734
3.16,9.979772,9.767374,6.205042,-0.8096756,4.2904024,3.4593408
3.162,10.03252,9.954313,6.332574,-0.73661506,4.3697877,3.4660747
3.164,10.094299,10.145381,6.452158,-0.6650188,4.448465,3.4728901
3.166,10.165857,10.340824,6.563546,-0.59507024,4.526192,3.4796963
3.168,10.24778,10.540867,6.666603,-0.52693224,4.6027083,3.4863024
3.17,10.340651,10.745711,6.7611895,-0.4607514,4.6777363,3.49244
3.172,10.444988,10.955425,6.847378,-0.39666593,4.751022,3.4977734
3.174,10.561058,11.170207,6.925165,-0.33482897,4.822275,3.5019002
3.176,10.689287,11.3901415,6.9945726,-0.27539706,4.8911858,3.5043771
3.178,10.82979,11.615005,7.055699,-0.21851599,4.957451,3.5047767
3.18,10.982581,11.8448515,7.108885,-0.16435742,5.020746,3.50269
3.182,11.147379,12.079435,7.1542664,-0.113117814,5.0807433,3.4977682
3.184,11.323942,12.318576,7.192141,-0.06501615,5.137143,3.4897447
3.186,11.511661,12.561947,7.2227445,-0.020272732,5.1896605,3.4784458
3.188,11.709684,12.809343,7.2465854,0.020875335,5.238021,3.4638128
3.19,11.916942,13.060396,7.2639575,0.058196664,5.2820063,3.4458754
3.192,12.132441,13.314613,7.275285,0.09147632,5.3214393,3.424757
3.194,12.354555,13.571571,7.2809134,0.12053907,5.3561907,3.4006755
3.196,12.581627,13.830787,7.2812147,0.14524412,5.3861976,3.373905
3.198,12.811806,14.09167,7.276492,0.165483,5.4114585,3.3447628
3.2,13.043282,14.3534355,7.267071,0.1812203,5.4320683,3.3135748
3.202,13.273979,14.615244,7.2530646,0.19245732,5.448166,3.2806659
3.204,13.501585,14.876225,7.234637,0.19925892,5.4599876,3.2463171
3.206,13.72398,15.135154,7.211928,0.20169318,5.467808,3.2107487
3.208,13.938998,15.390797,7.1848845,0.19988012,5.4719615,3.1740828
3.21,14.144464,15.641585,7.1533175,0.1939236,5.472786,3.136361
3.212,14.338033,15.885954,7.117037,0.18393546,5.4706464,3.097526
3.214,14.517483,16.122011,7.075742,0.17001063,5.4659057,3.0574296
3.216,14.680649,16.347845,7.029191,0.15221488,5.458881,3.0158167
3.218,14.825418,16.561451,6.9770575,0.13054782,5.449837,2.9723587
3.22,14.949911,16.760685,6.91903,0.10497558,5.438972,2.9266782
3.222,15.052595,16.943256,6.854966,0.07541251,5.426401,2.8783803
3.224,15.131792,17.106812,6.7846384,0.04171127,5.4121413,2.8270574
3.226,15.186459,17.2489,6.7079153,0.00366956,5.3960896,2.7723315
3.228,15.215438,17.367018,6.624561,-0.038951457,5.3780847,2.7138739
3.23,15.218037,17.458857,6.534502,-0.086443365,5.357871,2.651423
3.232,15.193914,17.522284,6.437599,-0.13912052,5.3351183,2.5848033
3.234,15.1425085,17.555353,6.3338833,-0.19731802,5.309495,2.5139692
3.236,15.063916,17.556276,6.2233844,-0.2613522,5.2806697,2.4389963
3.238,14.9585,17.523933,6.106744,-0.33152094,5.2483215,2.3600817
3.24,14.827103,17.457323,5.984623,-0.40808874,5.212176,2.2775383
3.242,14.670672,17.356056,5.8575306,-0.49127108,5.172037,2.1918044
3.244,14.490359,17.219849,5.7258196,-0.58121276,5.127789,2.103431
3.246,14.287734,17.048985,5.590175,-0.67797923,5.0794334,2.0130706
3.248,14.064416,16.844046,5.451203,-0.7815542,5.027083,1.9214411
3.25,13.82234,16.60645,5.3096156,-0.89180917,4.9709687,1.8293548
3.252,13.5636,16.338058,5.166237,-1.0085337,4.9114146,1.7376548
3.254,13.290397,16.041063,5.021808,-1.1314406,4.8488374,1.6472092
3.256,13.004939,15.718154,4.877041,-1.260143,4.783737,1.5589051
3.258,12.710027,15.3721895,4.732664,-1.3941864,4.716695,1.4736317
3.26,12.408032,15.006464,4.5893555,-1.5330113,4.6483707,1.39226
3.262,12.101481,14.624297,4.4477005,-1.6760056,4.579475,1.3156073
3.264,11.792696,14.229243,4.3081727,-1.8225055,4.5107713,1.2443857
3.266,11.484193,13.825075,4.171258,-1.9718219,4.4430547,1.1791799
3.268,11.178377,13.415285,4.0373125,-2.1232111,4.377158,1.1204259
3.27,10.877487,13.003527,3.9066193,-2.2759159,4.313937,1.0683768
3.272,10.583847,12.593389,3.7793713,-2.4292402,4.2542048,1.0230504
3.274,10.299513,12.188124,3.6555738,-2.5825632,4.198733,0.98428154
3.276,10.026298,11.790813,3.5353093,-2.7352955,4.148204,0.95177925
3.278,9.765956,11.40439,3.4185367,-2.8868759,4.103224,0.9251797
3.28,9.520015,11.031388,3.305152,-3.0368135,4.064301,0.9040803
3.282,9.289917,10.674134,3.1949174,-3.184657,4.0317726,0.88802177
3.284,9.076834,10.334369,3.0876389,-3.330018,4.005845,0.8765309
3.286,8.881628,10.013801,2.9831915,-3.472551,3.986601,0.8691304
3.288,8.705003,9.7137785,2.881321,-3.6119344,3.9739745,0.86536795
3.29,8.547526,9.435248,2.78172,-3.747894,3.9677978,0.8648114
3.292,8.409373,9.178803,2.6842322,-3.8801954,3.9678037,0.8670702
3.294,8.290708,8.944836,2.5885305,-4.008623,3.9736798,0.871786
3.296,8.191423,8.733379,2.4943678,-4.132992,3.9850552,0.87863696
3.298,8.111155,8.544306,2.4014788,-4.253152,4.0015407,0.8873304
3.3,8.049361,8.377165,2.3095248,-4.368987,4.02276,0.89760965
3.302,8.005144,8.231394,2.218266,-4.4804087,4.048379,0.9092474
3.304,7.977691,8.106196,2.127606,-4.5873365,4.078125,0.922027
3.306,7.9657855,8.000623,2.037147,-4.6896944,4.1118145,0.93571097
3.308,7.9685893,7.913481,1.9466488,-4.787444,4.149327,0.95003307
3.31,7.984489,7.8436427,1.8559622,-4.8805575,4.1906323,0.9646796
3.312,8.012143,7.7897706,1.7647018,-4.969034,4.2357287,0.9792598
3.314,8.050083,7.7504773,1.6727195,-5.052903,4.2846336,0.99334645
3.316,8.096757,7.724255,1.579669,-5.132206,4.337353,1.0065043
3.318,8.150415,7.7097406,1.4852717,-5.206996,4.393843,1.0183072
3.32,8.209473,7.705532,1.3893151,-5.2773414,4.453986,1.0283829
3.322,8.272561,7.7101307,1.2915423,-5.34334,4.5175414,1.0364044
3.324,8.338064,7.722133,1.1916342,-5.4050903,4.584172,1.0421436
3.326,8.404696,7.7400317,1.0892532,-5.4626412,4.6534696,1.0454675
3.328,8.471145,7.762431,0.9841101,-5.5160446,4.7249303,1.0462829
3.33,8.536011,7.7881494,0.87594223,-5.565401,4.797996,1.0445125
3.332,8.598096,7.815844,0.7644596,-5.6108155,4.8720493,1.0401101
3.334,8.656372,7.8444996,0.64950967,-5.6523705,4.946498,1.0330687
3.336,8.709673,7.873233,0.5310817,-5.690153,5.020807,1.0234513
3.338,8.757225,7.9009795,0.40925598,-5.724229,5.094471,1.011352
3.34,8.79822,7.9270744,0.2839942,-5.7546797,5.167052,0.9968865
3.342,8.831988,7.95063,0.15555334,-5.7815824,5.2381854,0.98017806
3.344,8.858316,7.970901,0.024036884,-5.8050117,5.3075967,0.9613655
3.346,8.876715,7.9872494,-0.11015129,-5.8250227,5.375068,0.940579
3.348,8.886822,7.9991055,-0.2471652,-5.841688,5.4404244,0.9179712
3.35,8.888148,8.00598,-0.38679314,-5.8550634,5.5035386,0.8937163
3.352,8.880663,8.007521,-0.5285034,-5.8652143,5.564306,0.8679949
3.354,8.864441,8.003491,-0.67166185,-5.8721957,5.6226373,0.84100235
3.356,8.839508,7.993736,-0.8158717,-5.876062,5.67843,0.8129631
3.358,8.806288,7.9779663,-0.9605479,-5.8768716,5.731606,0.7841048
3.36,8.765142,7.9559355,-1.1053362,-5.8746686,5.7820654,0.7546794
3.362,8.716357,7.9275136,-1.2499976,-5.869489,5.8297324,0.72495186
3.364,8.660383,7.892763,-1.3939686,-5.861359,5.8745084,0.69516945
3.366,8.597746,7.851795,-1.5369453,-5.8503017,5.9163113,0.665577
3.368,8.528985,7.804751,-1.6784549,-5.8363123,5.9550815,0.63641214
3.37,8.454764,7.7519364,-1.8181477,-5.819375,5.990757,0.6078636
3.372,8.375828,7.6936383,-1.9555573,-5.799449,6.023306,0.5801011
3.374,8.2929735,7.6301055,-2.090395,-5.776482,6.0527105,0.5532284
3.376,8.206865,7.5615215,-2.222313,-5.750419,6.0790253,0.5273081
3.378,8.118158,7.4882913,-2.351098,-5.721193,6.1022983,0.5023507
3.38,8.027714,7.410637,-2.476519,-5.688747,6.1226315,0.47833115
3.382,7.9362464,7.3286757,-2.5984201,-5.6530347,6.140156,0.45517844
3.384,7.8444147,7.242922,-2.7166162,-5.6140203,6.155016,0.43279642
3.386,7.7530503,7.153618,-2.8311777,-5.571711,6.167372,0.41107118
3.388,7.6627817,7.0608854,-2.942221,-5.526127,6.1773686,0.38989344
3.39,7.574151,6.9650745,-3.0497785,-5.477327,6.185119,0.36917
3.392,7.487692,6.866403,-3.1539924,-5.425398,6.190714,0.34883088
3.394,7.4039497,6.765106,-3.255218,-5.3704815,6.1942058,0.32884195
3.396,7.3233805,6.6612387,-3.353621,-5.31274,6.1955743,0.30919188
3.398,7.2462573,6.555065,-3.449592,-5.2524,6.1947184,0.28990966
3.4,7.1729364,6.446597,-3.5434155,-5.1897173,6.1914697,0.27107853
3.402,7.1036367,6.336061,-3.6354833,-5.1249547,6.185581,0.2528152
3.404,7.038446,6.2235584,-3.7260408,-5.0583954,6.1767435,0.23528993
3.406,6.977527,6.1091876,-3.8154452,-4.9903073,6.1645675,0.21872026
3.408,6.920717,5.992901,-3.9040523,-4.920945,6.1485996,0.20334402
3.41,6.86799,5.874871,-3.9919567,-4.850521,6.128382,0.18938005
3.412,6.8195,5.7550597,-4.0795183,-4.779233,6.103432,0.17703915
3.414,6.7747855,5.6334677,-4.167021,-4.7072396,6.0733066,0.16647702
3.416,6.733875,5.510094,-4.2545214,-4.6346498,6.03761,0.15774715
3.418,6.696362,5.3849897,-4.3421254,-4.56157,5.996026,0.1508396
3.42,6.662153,5.258113,-4.430053,-4.4880943,5.9483366,0.145645
3.422,6.630966,5.1293592,-4.5183353,-4.4143004,5.8944383,0.14197958
3.424,6.6028,4.9986796,-4.6071315,-4.3402715,5.8343396,0.13962448
3.426,6.5772448,4.86611,-4.6964765,-4.2660723,5.7681623,0.13833812
3.428,6.554111,4.7315784,-4.7864227,-4.191772,5.6961308,0.13790262
3.43,6.5333285,4.595041,-4.8770485,-4.117412,5.61851,0.13813478
3.432,6.51468,4.4565487,-4.9684243,-4.043023,5.535636,0.13891101
3.434,6.4980173,4.3159957,-5.0605936,-3.9686213,5.447875,0.14016628
3.436,6.483294,4.1735277,-5.153696,-3.8942008,5.3555856,0.14188477
3.438,6.470416,4.029095,-5.247873,-3.819748,5.259118,0.14407703
3.44,6.4593315,3.8828743,-5.343198,-3.7452416,5.1587634,0.14678457
3.442,6.4499426,3.7349653,-5.439872,-3.6706722,5.05477,0.15002957
3.444,6.4421444,3.5855048,-5.537904,-3.5960236,4.947346,0.15382752
3.446,6.4361916,3.4345474,-5.6374793,-3.5213065,4.8366094,0.15818392
3.448,6.431858,3.2824428,-5.7385836,-3.4465399,4.722638,0.16308717
3.45,6.4291472,3.1292818,-5.841114,-3.371767,4.6054516,0.16852377
3.452,6.4279346,2.975233,-5.945122,-3.2970307,4.4850426,0.17445458
3.454,6.428324,2.820497,-6.050501,-3.222415,4.3613706,0.18083173
3.456,6.4302893,2.6652653,-6.157133,-3.1480012,4.234386,0.18760532
3.458,6.4338093,2.5097005,-6.2648516,-3.0738847,4.104033,0.194706
3.46,6.4387093,2.35407,-6.3732834,-3.000165,3.970297,0.20207101
3.462,6.4449325,2.1984367,-6.4822206,-2.9269407,3.8331964,0.20963347
3.464,6.4524345,2.0431027,-6.5912256,-2.8543315,3.692751,0.21734998
3.466,6.4610415,1.888202,-6.6999025,-2.7824404,3.5490413,0.22518031
3.468,6.470497,1.734101,-6.8078575,-2.7113688,3.402163,0.23309089
3.47,6.480694,1.5807981,-6.9145803,-2.6412063,3.2522457,0.24105407
3.472,6.491604,1.4284053,-7.0195293,-2.5720258,3.0994399,0.24902894
3.474,6.5030665,1.276938,-7.1223288,-2.5038974,2.9439156,0.25698557
3.476,6.5148478,1.1266418,-7.222451,-2.43688,2.7858446,0.26486814
3.478,6.526692,0.97762966,-7.319524,-2.371012,2.625407,0.2726083
3.48,6.538642,0.83004475,-7.413103,-2.3063414,2.462776,0.2801283
3.482,6.550355,0.68421316,-7.502914,-2.2428858,2.2981544,0.28734335
3.484,6.5616364,0.54027224,-7.5885134,-2.1806636,2.131759,0.29419124
3.486,6.572341,0.3984506,-7.669716,-2.1196992,1.9637836,0.3005882
3.488,6.5822983,0.2588308,-7.746291,-2.0599985,1.7944568,0.30647373
3.49,6.5911508,0.12182927,-7.8179884,-2.001568,1.6240273,0.31180224
3.492,6.598666,-0.01240921,-7.884856,-1.9444096,1.4527533,0.31655338
3.494,6.604559,-0.14392209,-7.946808,-1.8885095,1.2809128,0.3207168
3.496,6.608564,-0.27248597,-8.003872,-1.833848,1.1088136,0.3243224
3.498,6.6105223,-0.39793038,-8.056157,-1.7803998,0.9367695,0.3273993
3.5,6.610073,-0.520159,-8.103835,-1.7281219,0.76512873,0.32999557
3.502,6.6068635,-0.63903236,-8.147257,-1.6769726,0.5942428,0.33216012
3.504,6.6005836,-0.7543416,-8.186646,-1.6269075,0.4244892,0.33396
3.506,6.590894,-0.8660681,-8.222521,-1.577885,0.25623155,0.33548298
3.508,6.577496,-0.9741039,-8.255155,-1.5298598,0.089799345,0.3367906
3.51,6.5599422,-1.078357,-8.284994,-1.482822,-0.07450402,0.33793625
3.512,6.537884,-1.1787825,-8.312459,-1.4367784,-0.23642701,0.33897212
3.514,6.5109615,-1.2754261,-8.337997,-1.3917353,-0.3957993,0.33992574
3.516,6.4787455,-1.3681703,-8.361963,-1.3477348,-0.55250144,0.34080577
3.518,6.4410353,-1.4570808,-8.384794,-1.3048038,-0.7064688,0.34158072
3.52,6.3974743,-1.5422745,-8.406904,-1.2629972,-0.8577107,0.34221524
3.522,6.3474827,-1.62373,-8.428513,-1.2223797,-1.0062706,0.3426699
3.524,6.290938,-1.7015672,-8.449771,-1.18302,-1.1522087,0.3428802
3.526,6.22746,-1.7758865,-8.470979,-1.1449784,-1.2956096,0.34280017
3.528,6.156729,-1.84671,-8.492163,-1.1083122,-1.4365597,0.34237352
3.53,6.0786066,-1.9141488,-8.513375,-1.0730788,-1.5751147,0.3415872
3.532,5.992935,-1.9782615,-8.534557,-1.039314,-1.7112849,0.34043652
3.534,5.89941,-2.0390284,-8.555521,-1.0070399,-1.8450501,0.33894825
