Time_s_,Acc_x_m_s_2_,Acc_y_m_s_2_,Acc_z_m_s_2_,Gyro_x_1_s_,Gyro_y_1_s_,Gyro_z_1_s_
0,-0.78552574,0.5385231,-0.8606694,0.2192361,-0.7276514,0.86212766
0.002,-0.8164257,0.55590004,-0.81495214,0.22002459,-0.7294506,0.868682
0.004,-0.8485157,0.5736905,-0.76852185,0.22089878,-0.73138696,0.8758352
0.006,-0.8819618,0.5918207,-0.7212383,0.22187248,-0.7334572,0.8836207
0.008,-0.9163559,0.6108131,-0.6728931,0.22294328,-0.73568213,0.89204025
0.01,-0.95139444,0.63161963,-0.6234408,0.22409648,-0.73808694,0.90106845
0.012,-0.98699325,0.6547484,-0.572887,0.22530383,-0.7407235,0.9106393
0.014,-1.023493,0.6806999,-0.5217395,0.22653753,-0.74360555,0.9206776
0.016,-1.0606757,0.7096473,-0.47057062,0.22779205,-0.7467226,0.93106675
0.018,-1.0982878,0.741416,-0.4201955,0.22901711,-0.7502063,0.9416156
0.02,-1.1360015,0.77583706,-0.3715553,0.23024249,-0.75396025,0.9520993
0.022,-1.1734523,0.8126554,-0.32545117,0.23157686,-0.7576722,0.96230817
0.024,-1.210332,0.85169923,-0.28283238,0.2331875,-0.7610385,0.9721027
0.026,-1.2463777,0.8927976,-0.24466003,0.23529717,-0.7636744,0.981468
0.028,-1.2809232,0.93564177,-0.21207035,0.23831236,-0.7650293,0.99084926
0.03,-1.3133577,0.97977966,-0.18645869,0.24268457,-0.7641141,0.9999378
0.032,-1.3430463,1.0247784,-0.16934566,0.24898845,-0.7599991,1.0090661
0.034,-1.3692492,1.0702509,-0.16194016,0.25786713,-0.7516613,1.0186965
0.036,-1.39126,1.1156527,-0.16550417,0.27000687,-0.7380043,1.0294704
0.038,-1.4082165,1.1605467,-0.18096271,0.2860424,-0.7179977,1.0421165
0.04,-1.419391,1.2045045,-0.20905755,0.30648735,-0.6907968,1.057354
0.042,-1.4241158,1.2471323,-0.2501064,0.33161187,-0.6558502,1.075835
0.044,-1.4220123,1.2879924,-0.30396384,0.36135894,-0.61306626,1.0980676
0.046,-1.4126456,1.3270755,-0.37047738,0.39525405,-0.5629106,1.124339
0.048,-1.3956165,1.3641365,-0.449757,0.4323516,-0.5065125,1.1546804
0.05,-1.3706849,1.3990197,-0.5406048,0.4712469,-0.44571832,1.1888362
0.052,-1.3384049,1.4324275,-0.6416128,0.51013196,-0.38302568,1.2262429
0.054,-1.299249,1.4647334,-0.7512413,0.546914,-0.32148764,1.266068
0.056,-1.2550874,1.4974263,-0.8666049,0.57941055,-0.2645288,1.3072288
0.058,-1.2057105,1.5298282,-0.98611283,0.6055686,-0.2157164,1.3484689
0.06,-1.1521809,1.5626339,-1.1071954,0.6236619,-0.17850061,1.3884268
0.062,-1.0964402,1.5966852,-1.2270992,0.63250923,-0.15596265,1.4257363
0.064,-1.0402325,1.6330738,-1.3433303,0.6315743,-0.15055944,1.4591135
0.066,-0.9854785,1.6724005,-1.4534545,0.62101185,-0.1639454,1.4874595
0.068,-0.934477,1.715884,-1.5548397,0.601616,-0.19685385,1.5098995
0.07,-0.8897911,1.7641672,-1.6447593,0.5746935,-0.2490402,1.5258988
0.072,-0.8532886,1.8173847,-1.7213726,0.54195595,-0.31917775,1.5353428
0.074,-0.8267352,1.8760344,-1.782792,0.5052525,-0.40529913,1.5384873
0.076,-0.81194395,1.9405665,-1.8279506,0.4664605,-0.5047083,1.5359067
0.078,-0.81043744,2.0117097,-1.8560815,0.42732304,-0.6140571,1.5284635
0.08,-0.8231489,2.089566,-1.8679745,0.38932684,-0.72978014,1.517267
0.082,-0.85110605,2.174285,-1.8641634,0.35361132,-0.8484094,1.5035439
0.084,-0.8954676,2.2661252,-1.8447434,0.32096067,-0.9667315,1.4885422
0.086,-0.95612746,2.3648062,-1.8097422,0.29179966,-1.0818963,1.4734441
0.088,-1.0328165,2.4698076,-1.759975,0.2662096,-1.1916183,1.4591229
0.09,-1.1248938,2.5803778,-1.6961013,0.24397576,-1.2943034,1.4461107
0.092,-1.2314203,2.6957564,-1.6190184,0.22462815,-1.3890216,1.4346547
0.094,-1.3509064,2.814622,-1.530074,0.2075085,-1.4755197,1.4247315
0.096,-1.4813954,2.9356887,-1.429984,0.191849,-1.5541523,1.4160535
0.098,-1.6201397,3.05748,-1.3207715,0.1768595,-1.6258171,1.4080492
0.1,-1.7640641,3.1782303,-1.2042595,0.1617955,-1.6917484,1.3998532
0.102,-1.9114764,3.297201,-1.0805314,0.14593518,-1.7533557,1.3904291
0.104,-2.059132,3.4133763,-0.9505539,0.1286267,-1.8121425,1.3786765
0.106,-2.2036562,3.5253158,-0.81501365,0.1093927,-1.8694532,1.363491
0.108,-2.3416953,3.6310902,-0.6751284,0.08791453,-1.9263706,1.3438083
0.11,-2.4702196,3.729347,-0.5307784,0.06405008,-1.983626,1.3187163
0.112,-2.5860674,3.8186479,-0.38205165,0.03783977,-2.0415425,1.287629
0.114,-2.6859562,3.8976097,-0.23011446,0.009496927,-2.0999708,1.2503176
0.116,-2.7672763,3.9645915,-0.07584416,-0.020579934,-2.1582577,1.206919
0.118,-2.8279822,4.017891,0.07945124,-0.05178094,-2.2153296,1.1579983
0.12,-2.8660927,4.055629,0.23426473,-0.083340645,-2.269794,1.1045072
0.122,-2.880442,4.0768933,0.38803327,-0.11431062,-2.3200278,1.0476968
0.124,-2.8695316,4.0809546,0.5394748,-0.1435951,-2.3642983,0.9890393
0.126,-2.8328238,4.06741,0.6871345,-0.17000735,-2.4009705,0.93008053
0.128,-2.7701585,4.0364904,0.82952124,-0.19231617,-2.428536,0.8723683
0.13,-2.681947,3.9885528,0.96517646,-0.20932901,-2.4457688,0.81733435
0.132,-2.5689595,3.924093,1.0924591,-0.21991706,-2.4517055,0.7661199
0.134,-2.4323027,3.843902,1.210035,-0.223109,-2.4456959,0.71953917
0.136,-2.2734618,3.748743,1.3165035,-0.21819818,-2.4274657,0.67812777
0.138,-2.0947387,3.6397884,1.4099543,-0.20476592,-2.3970816,0.6421497
0.14,-1.8981093,3.5181944,1.4896423,-0.18275869,-2.354987,0.611562
0.142,-1.6859064,3.3853562,1.5554338,-0.15248466,-2.301971,0.586157
0.144,-1.4608493,3.2429106,1.6067824,-0.11462271,-2.2391615,0.56559634
0.146,-1.2258166,3.092658,1.6437196,-0.070195794,-2.1680655,0.54942536
0.148,-0.98364335,2.9361491,1.6663839,-0.020472407,-2.090436,0.5371023
0.15,-0.7372486,2.7748828,1.6754476,0.033046484,-2.0083632,0.5280077
0.152,-0.48937982,2.6106057,1.671961,0.08875394,-1.924112,0.5215187
0.154,-0.2428723,2.4452834,1.6570206,0.14501387,-1.8400507,0.5169584
0.156,-0.00031274557,2.280196,1.632337,0.20029259,-1.758573,0.51354873
0.158,0.23564589,2.1169837,1.6003119,0.25324106,-1.6818237,0.51050454
0.16,0.46250772,1.9571686,1.5622951,0.30268818,-1.6116986,0.5071284
0.162,0.6784812,1.8014023,1.5204395,0.34769887,-1.5496867,0.50285995
0.164,0.8814151,1.6508446,1.4770787,0.38759726,-1.4967785,0.4972639
0.166,1.0695498,1.5066983,1.4336315,0.4219938,-1.4534104,0.4899966
0.168,1.2416589,1.3697879,1.3916415,0.45074594,-1.4195518,0.48093385
0.17,1.3960636,1.241184,1.3538313,0.47388515,-1.3948269,0.47015283
0.172,1.5309092,1.1222467,1.3224919,0.49163663,-1.3785169,0.4578495
0.174,1.645411,1.0129614,1.2993385,0.504387,-1.369644,0.44427925
0.176,1.7390054,0.91362214,1.285934,0.5126107,-1.3671243,0.429684
0.178,1.8112458,0.82464147,1.2830458,0.5168377,-1.3698195,0.41423577
0.18,1.8621639,0.746771,1.2903104,0.5176146,-1.3766057,0.39806187
0.182,1.8918735,0.6806136,1.3083068,0.51546645,-1.3864958,0.38119218
0.184,1.9003655,0.62582433,1.3373044,0.51087785,-1.3986027,0.36354887
0.186,1.8884037,0.58168674,1.3779542,0.5042955,-1.4121398,0.3450078
0.188,1.8565291,0.5474479,1.4306161,0.4961075,-1.426384,0.32538897
0.19,1.8049955,0.52297807,1.4953263,0.48667023,-1.4406086,0.3044905
0.192,1.7336203,0.5086914,1.5705494,0.476317,-1.4540854,0.28212392
0.194,1.6443663,0.5035647,1.6554712,0.46538484,-1.4659953,0.25817406
0.196,1.5397422,0.50642025,1.7483308,0.4542067,-1.4754593,0.23257011
0.198,1.4212906,0.51659393,1.8461744,0.44310218,-1.4815578,0.20527141
0.2,1.2907023,0.5341585,1.9465661,0.43238723,-1.4833641,0.17630266
0.202,1.1496694,0.55919594,2.0485203,0.42236716,-1.4799196,0.14565094
0.204,0.99967563,0.59153545,2.1513906,0.41335475,-1.4702656,0.11325708
0.206,0.84240365,0.63018525,2.25315,0.4055465,-1.453726,0.079021186
0.208,0.6794276,0.6739757,2.3518162,0.39906365,-1.4298466,0.042847335
0.21,0.51367253,0.72138244,2.4458997,0.3939383,-1.3983823,0.004488364
0.212,0.34763253,0.7712558,2.533504,0.39004424,-1.3594439,-0.036510997
0.214,0.18274367,0.8231069,2.6124256,0.3872039,-1.313425,-0.08072849
0.216,0.02187797,0.87588,2.6796691,0.3852358,-1.2608566,-0.12876868
0.218,-0.13018116,0.9271151,2.7312922,0.38394699,-1.202402,-0.18122622
0.22,-0.26923072,0.9746468,2.7635202,0.3831614,-1.138743,-0.2386646
0.222,-0.39250797,1.0173608,2.7744362,0.38271275,-1.0704967,-0.3016007
0.224,-0.4978047,1.0549293,2.7629244,0.38242197,-0.99826795,-0.37037712
0.226,-0.5827848,1.0872602,2.7272577,0.38216764,-0.9225954,-0.444951
0.228,-0.6445624,1.1139269,2.665925,0.38195455,-0.84398496,-0.5247813
0.23,-0.68061376,1.1349775,2.578159,0.38181305,-0.76299596,-0.60878795
0.232,-0.6881121,1.1502249,2.4622664,0.38169006,-0.6802314,-0.6954243
0.234,-0.6657287,1.160065,2.3177106,0.3814052,-0.5963255,-0.782789
0.236,-0.61267555,1.1652039,2.144358,0.38061,-0.51207274,-0.8685788
0.238,-0.52923477,1.1664982,1.9421008,0.3788358,-0.4285568,-0.9500782
0.24,-0.41602752,1.1648059,1.7110343,0.37552413,-0.34715468,-1.024317
0.242,-0.27420098,1.1612619,1.4520519,0.37004942,-0.26962084,-1.0883652
0.244,-0.10576311,1.1571839,1.167262,0.3618088,-0.19802833,-1.139731
0.246,0.08672795,1.1543591,0.8603132,0.3503996,-0.13442409,-1.1766603
0.248,0.30031005,1.1542001,0.53598464,0.33576235,-0.08077636,-1.1981864
0.25,0.53129566,1.1578462,0.1979264,0.31822807,-0.038839996,-1.204145
0.252,0.776345,1.165436,-0.1504342,0.29868004,-0.009755969,-1.1952169
0.254,1.0319059,1.1767977,-0.5048573,0.2785495,0.0062822998,-1.1728764
0.256,1.2942586,1.1915534,-0.86094356,0.25963426,0.010021001,-1.1392168
0.258,1.5594673,1.2093599,-1.2137872,0.24396735,0.0032271743,-1.0967107
0.26,1.8240296,1.2298267,-1.5586597,0.23358777,-0.011442423,-1.0479733
0.262,2.0843024,1.2522869,-1.8912343,0.23022152,-0.030862719,-0.9954755
0.264,2.3371737,1.2760155,-2.2068982,0.23495762,-0.051858425,-0.94129705
0.266,2.5795949,1.3004875,-2.5008476,0.24810925,-0.071575195,-0.8870578
0.268,2.809026,1.3252643,-2.7687452,0.2691417,-0.08783281,-0.833985
0.27,3.0235097,1.3499441,-3.0063288,0.2968308,-0.099404156,-0.78294134
0.272,3.2214904,1.3744113,-3.210569,0.32943463,-0.1060954,-0.7344295
0.274,3.401877,1.3985009,-3.3786068,0.3648788,-0.108671814,-0.68863785
0.276,3.5637321,1.4222273,-3.5075214,0.40101027,-0.10860561,-0.64555943
0.278,3.7062058,1.4457556,-3.594993,0.43576327,-0.10772705,-0.6051663
0.28,3.8291914,1.4693396,-3.6404934,0.4672119,-0.10803607,-0.56753916
0.282,3.933764,1.4929968,-3.6436472,0.49371675,-0.111442894,-0.5328622
0.284,4.0197697,1.5177245,-3.6045132,0.51407194,-0.11951655,-0.50134546
0.286,4.0876575,1.5441313,-3.524282,0.5275475,-0.13342589,-0.47322297
0.288,4.138338,1.5722457,-3.4045568,0.53379285,-0.15382466,-0.44872826
0.29,4.172242,1.6024892,-3.247401,0.53278494,-0.18071173,-0.42818063
0.292,4.190259,1.6353574,-3.05601,0.52480227,-0.21333218,-0.41201872
0.294,4.1931076,1.67165,-2.835034,0.51044905,-0.25021857,-0.40071264
0.296,4.1794744,1.7128687,-2.5891995,0.49069616,-0.28919086,-0.3945878
0.298,4.150682,1.7581737,-2.3213615,0.46681622,-0.3275364,-0.39366472
0.3,4.115008,1.802312,-2.03828,0.44027454,-0.36224338,-0.397684
0.302,4.076846,1.8423443,-1.7480258,0.41264004,-0.3900887,-0.4062854
0.304,4.035142,1.8788576,-1.453857,0.38548794,-0.4078477,-0.4190006
0.306,3.9891248,1.9129187,-1.1627302,0.36017728,-0.41275638,-0.43513447
0.308,3.940167,1.9455774,-0.8818643,0.33773568,-0.40285861,-0.45381197
0.31,3.8892703,1.9768422,-0.61625284,0.31879178,-0.37708297,-0.47400817
0.312,3.837922,2.0056918,-0.37062824,0.30354238,-0.3353046,-0.4947065
0.314,3.7871346,2.0315905,-0.14991337,0.29175723,-0.27837119,-0.5149794
0.316,3.738408,2.053861,0.04163474,0.28284836,-0.20807022,-0.5340309
0.318,3.6932712,2.0716171,0.19971603,0.276004,-0.12689552,-0.55118394
0.32,3.6526043,2.0842967,0.3206008,0.27021134,-0.037854433,-0.5659176
0.322,3.6189828,2.091138,0.40295827,0.2643808,0.05574897,-0.5778859
0.324,3.5956511,2.0918276,0.447056,0.25744987,0.15062535,-0.58690304
0.326,3.584324,2.0875726,0.4552992,0.2485075,0.24367547,-0.59296376
0.328,3.5848703,2.0812368,0.4316802,0.23673171,0.3319975,-0.5961691
0.33,3.5978918,2.0750089,0.3797512,0.22174355,0.4134814,-0.59640807
0.332,3.6237116,2.0701337,0.30197102,0.20359623,0.48623806,-0.59354115
0.334,3.6615593,2.067113,0.2017529,0.18255001,0.5488563,-0.587499
0.336,3.7099867,2.0669255,0.08306128,0.15897208,0.60082906,-0.57803744
0.338,3.7653437,2.0714347,-0.050406277,0.13348365,0.64204824,-0.5649546
0.34,3.823471,2.0823221,-0.19469899,0.10719156,0.672955,-0.54814786
0.342,3.8811078,2.101045,-0.3451289,0.081594735,0.6946863,-0.52754426
0.344,3.9351888,2.1290908,-0.49822128,0.05829978,0.7089345,-0.5031501
0.346,3.9828048,2.1673732,-0.65069956,0.03891167,0.71786976,-0.47504842
0.348,4.0211267,2.2162292,-0.79869795,0.024986148,0.72410667,-0.44344932
0.35,4.0467978,2.2763264,-0.93817246,0.017896146,0.7304801,-0.4087668
0.352,4.0561943,2.3478968,-1.0653741,0.018636554,0.739817,-0.37169388
0.354,4.0462904,2.4306989,-1.1777297,0.027581632,0.7545913,-0.3332381
0.356,4.0143366,2.524201,-1.2741865,0.044356406,0.7766567,-0.29476547
0.358,3.9585235,2.6277423,-1.3544462,0.06783056,0.80698425,-0.25803125
0.36,3.877797,2.7407017,-1.4180357,0.09618521,0.84538543,-0.2251536
0.362,3.771977,2.8621435,-1.4648129,0.12705824,0.8904047,-0.19835402
0.364,3.6420863,2.9904256,-1.4949168,0.15775558,0.93934417,-0.17967765
0.366,3.4903018,3.1235232,-1.5085219,0.18553504,0.98858833,-0.17068237
0.368,3.3196056,3.2587528,-1.506049,0.2079776,1.0340652,-0.17227688
0.37,3.1333869,3.3932507,-1.4876859,0.22320327,1.0716603,-0.18453048
0.372,2.9358397,3.5238986,-1.4535471,0.23007873,1.0978246,-0.20653456
0.374,2.7313724,3.6479309,-1.4042231,0.22837874,1.110153,-0.23655304
0.376,2.524485,3.7628896,-1.3408924,0.21883643,1.10774,-0.27228922
0.378,2.3197985,3.8665905,-1.2648315,0.20307335,1.0913957,-0.31111985
0.38,2.1214786,3.9572506,-1.1776469,0.18342096,1.0637046,-0.35032323
0.382,1.9337386,4.033562,-1.0809686,0.16267496,1.0286994,-0.38744298
0.384,1.7601255,4.0947604,-0.97701764,0.14340737,0.9909137,-0.42062035
0.386,1.6032063,4.1405406,-0.8679789,0.12776911,0.9553093,-0.44845533
0.388,1.4649503,4.1709757,-0.755589,0.11743513,0.9261681,-0.47012323
0.39,1.3465369,4.186338,-0.64109415,0.113378644,0.90630865,-0.48558587
0.392,1.2484661,4.1868434,-0.52544296,0.115661174,0.8972757,-0.49526298
0.394,1.1707518,4.1732926,-0.40937775,0.123446345,0.8990644,-0.49988103
0.396,1.1130985,4.146846,-0.2947424,0.13546753,0.9103054,-0.5004151
0.398,1.0746422,4.1089406,-0.18312001,0.15047139,0.9289383,-0.49786818
0.4,1.0543942,4.060441,-0.07544142,0.16738495,0.9527546,-0.49312085
0.402,1.0504823,4.002754,0.027353883,0.18540427,0.979902,-0.48681134
0.404,1.0617149,3.9371283,0.12459016,0.20413724,1.0092641,-0.4792813
0.406,1.0881544,3.8640392,0.21528566,0.2236383,1.0406008,-0.470608
0.408,1.1269934,3.7857523,0.2964623,0.24433476,1.0744381,-0.4606314
0.41,1.170506,3.706898,0.36926448,0.26683348,1.111783,-0.44900817
0.412,1.2175827,3.6275156,0.4350559,0.29170614,1.1537467,-0.4353045
0.414,1.2711666,3.5450406,0.48970973,0.31930336,1.2011905,-0.4191676
0.416,1.3319147,3.4576015,0.53451735,0.34967563,1.2544448,-0.40045244
0.418,1.4002689,3.3636847,0.5715989,0.38253134,1.3131348,-0.37925345
0.42,1.4764657,3.263379,0.59931,0.4171564,1.3760123,-0.355878
0.422,1.559483,3.1585057,0.6160827,0.45243832,1.4409726,-0.33072194
0.424,1.649032,3.0504537,0.62277776,0.4869732,1.5053506,-0.30428106
0.426,1.7446253,2.9400077,0.6207264,0.51909775,1.5659618,-0.27720153
0.428,1.84569,2.8270912,0.6119911,0.5469074,1.6191419,-0.25023675
0.43,1.950959,2.7108612,0.5990116,0.5683125,1.660924,-0.22418785
0.432,2.0572689,2.5905573,0.584275,0.5811209,1.6871724,-0.1999279
0.434,2.1625793,2.4642422,0.5704055,0.5831835,1.6937289,-0.1784353
0.436,2.2665284,2.3294642,0.55887663,0.57258165,1.6767313,-0.1607441
0.438,2.3696682,2.183928,0.5523242,0.54780215,1.6328744,-0.14784095
0.44,2.4722066,2.0259795,0.5544225,0.5078509,1.5597248,-0.14060494
0.442,2.5741963,1.8545613,0.5688263,0.45230466,1.4560286,-0.13965699
0.444,2.6720529,1.6702625,0.5994617,0.3814414,1.3219693,-0.14525445
0.446,2.7680204,1.4709496,0.65146583,0.29625455,1.1592615,-0.15726525
0.448,2.86279,1.2560656,0.72683537,0.19844955,0.9712055,-0.17518328
0.45,2.9542892,1.0270278,0.8247733,0.090345144,0.7625062,-0.19822893
0.452,3.0419774,0.7841242,0.942889,-0.025263608,0.53891224,-0.22547284
0.454,3.125331,0.5277667,1.0808469,-0.14526917,0.30699974,-0.2559274
0.456,3.2031865,0.25986218,1.2373339,-0.26636907,0.073759824,-0.28861853
0.458,3.2754114,-0.018693328,1.409023,-0.38529688,-0.15386367,-0.32267493
0.46,3.3437743,-0.30871987,1.5919224,-0.49895987,-0.36934403,-0.3573414
0.462,3.4111805,-0.610981,1.7811718,-0.6046413,-0.56694347,-0.39217827
0.464,3.4793313,-0.92521465,1.9703722,-0.70014524,-0.741953,-0.4271579
0.466,3.548363,-1.2499294,2.156151,-0.783878,-0.89098287,-0.46267945
0.468,3.615788,-1.5812175,2.3416936,-0.85481024,-1.0121629,-0.49963474
0.47,3.6774106,-1.9131578,2.5292366,-0.9125223,-1.1052928,-0.53950566
0.472,3.7312872,-2.240775,2.7181838,-0.9570434,-1.1715146,-0.58423626
0.474,3.7795238,-2.5612996,2.9058635,-0.988906,-1.2132015,-0.6361397
0.476,3.825833,-2.873313,3.0885031,-1.0091124,-1.2335188,-0.6973676
0.478,3.874057,-3.1759083,3.2612517,-1.0189817,-1.236244,-0.7695781
0.48,3.9265828,-3.467269,3.4181242,-1.020089,-1.2254595,-0.85385823
0.482,3.9836316,-3.7435937,3.5524101,-1.0141286,-1.2050259,-0.95023656
0.484,4.044703,-3.9992607,3.6599383,-1.002876,-1.1782649,-1.0575169
0.486,4.107946,-4.227299,3.7406657,-0.9880785,-1.1477633,-1.1734964
0.488,4.1701117,-4.4205275,3.7964559,-0.9714539,-1.1154194,-1.2950099
0.49,4.2280927,-4.5725884,3.829223,-0.9546279,-1.0824949,-1.4179535
0.492,4.2791815,-4.6785374,3.8411384,-0.9389747,-1.0497645,-1.5376441
0.494,4.3211884,-4.734796,3.8358028,-0.925553,-1.0179764,-1.6492211
0.496,4.3526096,-4.738615,3.8169796,-0.91525126,-0.9885539,-1.7480896
0.498,4.370414,-4.6869473,3.7874537,-0.90879923,-0.96351784,-1.83037
0.5,4.3705516,-4.5784955,3.7486773,-0.90661865,-0.94485885,-1.8934845
0.502,4.3484406,-4.4142747,3.7007725,-0.9088591,-0.9344775,-1.9363855
0.504,4.2994885,-4.1981325,3.642631,-0.9152385,-0.93375444,-1.9591558
0.506,4.219376,-3.9363432,3.5728579,-0.92470473,-0.94286394,-1.9627986
0.508,4.105051,-3.637149,3.4883788,-0.93512166,-0.96003705,-1.9492757
0.51,3.9541461,-3.3093498,3.3853054,-0.94328976,-0.9809424,-1.9213845
0.512,3.7654433,-2.9620488,3.2598066,-0.94529366,-0.9985294,-1.8824567
0.514,3.5386565,-2.604854,3.1087809,-0.93705475,-1.0034511,-1.8361547
0.516,3.2746434,-2.2474735,2.9297552,-0.91482073,-0.9847812,-1.7862674
0.518,2.9752645,-1.899339,2.721751,-0.875782,-0.9313103,-1.736494
0.52,2.6438825,-1.5692868,2.4846692,-0.81858265,-0.83301055,-1.690081
0.522,2.2848272,-1.2646201,2.2189698,-0.7437467,-0.68298244,-1.6495297
0.524,1.9026372,-0.9912479,1.9254037,-0.65378296,-0.47917593,-1.616321
0.526,1.5036122,-0.75412774,1.6062038,-0.55319095,-0.22570494,-1.5909028
0.528,1.0940471,-0.55704534,1.2651271,-0.44798538,0.06704909,-1.5728203
0.53,0.6811839,-0.40233067,0.9071818,-0.34526804,0.38297194,-1.5613096
0.532,0.272235,-0.2904415,0.53788626,-0.25265193,0.7019403,-1.5553992
0.534,-0.12613143,-0.21966702,0.16337225,-0.17747289,1.0021018,-1.553947
0.536,-0.50783545,-0.18629023,-0.20860483,-0.12613082,1.2623371,-1.5561022
0.538,-0.8666971,-0.18561989,-0.5700756,-0.10343641,1.4647976,-1.5614313
0.54,-1.1963918,-0.21257943,-0.9131497,-0.1122126,1.5970751,-1.5697026
0.542,-1.4905822,-0.26241276,-1.2307922,-0.15304035,1.653693,-1.5809846
0.544,-1.7432189,-0.3310387,-1.5157868,-0.2242732,1.6364623,-1.595712
0.546,-1.9553566,-0.41296995,-1.7585949,-0.32233268,1.553819,-1.6144447
0.548,-2.1222806,-0.50618476,-1.9545062,-0.44201833,1.4195575,-1.6375848
0.55,-2.2374332,-0.6102872,-2.1067948,-0.57693386,1.2509675,-1.6652565
0.552,-2.3011153,-0.72379315,-2.2126997,-0.7201996,1.0661044,-1.697242
0.554,-2.3148324,-0.84554535,-2.2674208,-0.8651806,0.8813498,-1.7328738
0.556,-2.281804,-0.9740534,-2.2736752,-1.0059605,0.71027505,-1.7712667
0.558,-2.19981,-1.1112139,-2.235432,-1.1378663,0.5627525,-1.811735
0.56,-2.067604,-1.259809,-2.1559622,-1.2578949,0.4445926,-1.8537171
0.562,-1.8881533,-1.4216759,-2.041911,-1.3647883,0.35760593,-1.8965042
0.564,-1.6700046,-1.5967798,-1.9043696,-1.4586456,0.30039912,-1.9391631
0.566,-1.4148347,-1.7876921,-1.7511895,-1.5403413,0.26954588,-1.9805967
0.568,-1.1249706,-1.9939333,-1.5945632,-1.6110911,0.26069066,-2.0195568
0.57,-0.8074614,-2.2125468,-1.4460276,-1.6721939,0.2694252,-2.0546477
0.572,-0.4676205,-2.4427598,-1.3161278,-1.7247759,0.2919489,-2.084496
0.574,-0.10894847,-2.6854558,-1.2149806,-1.7695504,0.32556376,-2.1080053
0.576,0.26526046,-2.9409952,-1.1512846,-1.8067262,0.36882067,-2.1245246
0.578,0.65431356,-3.2115357,-1.1367356,-1.8361381,0.42150173,-2.133669
0.58,1.0570004,-3.4983444,-1.1806461,-1.8570483,0.48416588,-2.1351962
0.582,1.4665684,-3.797841,-1.2852918,-1.8684005,0.55704963,-2.1292422
0.584,1.8732536,-4.1034794,-1.4500351,-1.8690957,0.64037055,-2.1158502
0.586,2.2668142,-4.4072447,-1.6736386,-1.8581972,0.73404497,-2.0949082
0.588,2.63724,-4.7005377,-1.9525754,-1.8350534,0.8370467,-2.0662992
0.59,2.9774919,-4.976799,-2.2825656,-1.7993059,0.947387,-2.0301557
0.592,3.283133,-5.2320366,-2.6592968,-1.7509253,1.062635,-1.9868523
0.594,3.5495756,-5.4644723,-3.080034,-1.6904848,1.1796403,-1.9369942
0.596,3.772668,-5.673246,-3.54322,-1.6192974,1.2950237,-1.8809707
0.598,3.9485521,-5.8569326,-4.045872,-1.539212,1.405473,-1.8190365
0.6,4.07384,-6.0136094,-4.581349,-1.4525447,1.5076072,-1.7518845
0.602,4.1452703,-6.141149,-5.1421804,-1.3619403,1.5985336,-1.6805643
0.604,4.159848,-6.2377815,-5.7196517,-1.2703575,1.6757697,-1.6063626
0.606,4.116501,-6.303731,-6.303063,-1.1810586,1.7371209,-1.530914
0.608,4.0161,-6.340455,-6.880538,-1.0974157,1.7809849,-1.4562267
0.61,3.8613074,-6.349596,-7.438865,-1.0228415,1.8059618,-1.3846823
0.612,3.6569889,-6.3331776,-7.9650416,-0.9605918,1.8107467,-1.3191181
0.614,3.4091864,-6.2941475,-8.44671,-0.9135531,1.7942281,-1.2626182
0.616,3.1250873,-6.236808,-8.872389,-0.88411534,1.7553918,-1.2182893
0.618,2.811902,-6.1660647,-9.232453,-0.8740225,1.6934209,-1.189055
0.62,2.4772205,-6.0876093,-9.519421,-0.8841822,1.6079807,-1.1772999
0.622,2.1292152,-6.008115,-9.7278385,-0.9145038,1.4994752,-1.1845456
0.624,1.775712,-5.934141,-9.854844,-0.96379304,1.3693492,-1.2111601
0.626,1.4246683,-5.871658,-9.899651,-1.0297251,1.220413,-1.2561029
0.628,1.0844579,-5.8259773,-9.863968,-1.1090229,1.0569417,-1.3168783
0.63,0.7620714,-5.8012357,-9.751063,-1.1976224,0.8846986,-1.3896548
0.632,0.46372032,-5.8009243,-9.564418,-1.2908095,0.7105512,-1.4698639
0.634,0.19447732,-5.826944,-9.308784,-1.3837881,0.54191303,-1.5526849
0.636,-0.04208374,-5.8798914,-8.989846,-1.4719206,0.3865226,-1.6331758
0.638,-0.24320793,-5.959214,-8.614514,-1.5510616,0.2508888,-1.7072476
0.64,-0.4071858,-6.063761,-8.19009,-1.6179558,0.13989401,-1.7721441
0.642,-0.5330781,-6.1915693,-7.7237487,-1.6705209,0.05686474,-1.8264092
0.644,-0.6214005,-6.3398013,-7.2231116,-1.7078929,0.0031700134,-1.8697748
0.646,-0.6736175,-6.5051284,-6.6961226,-1.7303295,-0.022028983,-1.9030217
0.648,-0.692286,-6.683853,-6.1508985,-1.7388208,-0.020977259,-1.9277015
0.65,-0.6807649,-6.8722634,-5.595334,-1.7349863,0.0028264523,-1.9459809
0.652,-0.642323,-7.066495,-5.0365214,-1.721142,0.045258522,-1.9600264
0.654,-0.5816493,-7.262231,-4.481644,-1.699985,0.10237157,-1.9713922
0.656,-0.49888968,-7.457118,-3.9382534,-1.6743824,0.17029756,-1.981189
0.658,-0.4005897,-7.646926,-3.4103305,-1.6470263,0.24568859,-1.990179
0.66,-0.29295874,-7.8281994,-2.897462,-1.6202706,0.32582492,-1.9987371
0.662,-0.17531538,-8.000118,-2.4068382,-1.5961614,0.40824538,-2.0069232
0.664,-0.045778036,-8.163117,-1.9474992,-1.5763776,0.4909327,-2.0145683
0.666,0.09161639,-8.316114,-1.5214736,-1.5622832,0.572147,-2.0213408
0.668,0.23079443,-8.458088,-1.1284378,-1.5549461,0.6502216,-2.0268874
0.67,0.3696308,-8.589462,-0.77063435,-1.555117,0.723721,-2.0308135
0.672,0.506799,-8.710182,-0.44919315,-1.5632674,0.7914399,-2.032628
0.674,0.6456313,-8.822214,-0.1648983,-1.5796328,0.8524138,-2.0318096
0.676,0.7823851,-8.925088,0.076918274,-1.6042119,0.90607864,-2.027805
0.678,0.9138861,-9.019722,0.27597284,-1.6367481,0.95231014,-2.0201068
0.68,1.0400836,-9.1075,0.43069863,-1.6767033,0.99141884,-2.008344
0.682,1.1585193,-9.187432,0.53904814,-1.7232152,1.0241599,-1.9923193
0.684,1.2662177,-9.258141,0.600136,-1.775068,1.0516877,-1.9720043
0.686,1.3610611,-9.319202,0.61044097,-1.8307941,1.0754558,-1.9475366
0.688,1.4390886,-9.369026,0.56732047,-1.888691,1.0972109,-1.9191978
0.69,1.4970489,-9.406982,0.47078186,-1.9468572,1.1188065,-1.8874638
0.692,1.5339739,-9.4340105,0.3192498,-2.0032947,1.142101,-1.852959
0.694,1.5485866,-9.451054,0.11223376,-2.0560055,1.1688776,-1.8163713
0.696,1.5404935,-9.459524,-0.1491471,-2.1031573,1.2006464,-1.7785337
0.698,1.5106101,-9.461104,-0.46331906,-2.1432247,1.23856,-1.740381
0.7,1.4596288,-9.456684,-0.8276042,-2.1750243,1.2832507,-1.7029852
0.702,1.3881016,-9.446531,-1.2387934,-2.1977835,1.3346959,-1.6674803
0.704,1.2969165,-9.430599,-1.6934001,-2.2111278,1.3922175,-1.6349884
0.706,1.1877058,-9.408495,-2.1876454,-2.2151155,1.4544165,-1.6066128
0.708,1.0629301,-9.380491,-2.7168717,-2.2102356,1.5192709,-1.5833864
0.71,0.92479825,-9.346827,-3.2766445,-2.1973197,1.584265,-1.5662489
0.712,0.7748158,-9.307888,-3.8596888,-2.1774793,1.6465955,-1.5559915
0.714,0.6163769,-9.264686,-4.4587116,-2.1519618,1.7033682,-1.5531459
0.716,0.45258188,-9.217905,-5.0672812,-2.1220543,1.7518232,-1.5579596
0.718,0.28831577,-9.169592,-5.6779604,-2.0889497,1.789526,-1.5703739
0.72,0.1281085,-9.121934,-6.282177,-2.0536733,1.8145704,-1.5900136
0.722,-0.02476716,-9.076687,-6.86949,-2.0170639,1.8256309,-1.6162689
0.724,-0.16677737,-9.035185,-7.429371,-1.9797668,1.8220283,-1.6483374
0.726,-0.294878,-8.998407,-7.9526906,-1.9422292,1.8037193,-1.6852953
0.728,-0.40589213,-8.967794,-8.431108,-1.904723,1.771214,-1.7261516
0.73,-0.4963162,-8.945091,-8.857708,-1.8674474,1.725492,-1.7699327
0.732,-0.56347823,-8.9316225,-9.227051,-1.8305413,1.6678956,-1.8157337
0.734,-0.6051066,-8.928194,-9.534409,-1.7941139,1.6000385,-1.8627855
0.736,-0.6196852,-8.935502,-9.776161,-1.7582134,1.5237942,-1.9104168
0.738,-0.6067424,-8.953893,-9.949395,-1.7228444,1.4413081,-1.9580091
0.74,-0.5656297,-8.983726,-10.05283,-1.6879137,1.35495,-2.005026
0.742,-0.4961033,-9.025362,-10.087351,-1.653222,1.2672797,-2.050973
0.744,-0.39793015,-9.079276,-10.054458,-1.6184812,1.1809916,-2.0953355
0.746,-0.2716086,-9.145857,-9.957172,-1.5833434,1.0987844,-2.137571
0.748,-0.11847043,-9.225247,-9.799714,-1.5474561,1.0231347,-2.1772008
0.75,0.06003046,-9.317403,-9.587854,-1.5105069,0.95618206,-2.2138028
0.752,0.2619698,-9.422118,-9.328953,-1.4722863,0.8995488,-2.2470787
0.754,0.48501205,-9.539068,-9.031013,-1.432773,0.8542868,-2.2769237
0.756,0.726902,-9.668005,-8.702301,-1.3921193,0.8208191,-2.3034918
0.758,0.98531485,-9.80877,-8.350968,-1.3506445,0.7988982,-2.3271616
0.76,1.2578921,-9.961226,-7.9849396,-1.3087538,0.7876859,-2.3484323
0.762,1.5414042,-10.125349,-7.6120853,-1.2669072,0.7858558,-2.3678653
0.764,1.8319945,-10.300626,-7.2395444,-1.2256033,0.7917411,-2.3860312
0.766,2.1254613,-10.486021,-6.874404,-1.1852896,0.8035413,-2.4033804
0.768,2.4174383,-10.679851,-6.5233846,-1.146349,0.81947887,-2.4201195
0.77,2.7033224,-10.880077,-6.192479,-1.109052,0.8379218,-2.4361598
0.772,2.9783053,-11.084347,-5.8872786,-1.0735896,0.8574715,-2.4510138
0.774,3.2368999,-11.290037,-5.6120844,-1.04012,0.8769476,-2.4637618
0.776,3.473292,-11.494195,-5.3702354,-1.0087935,0.8954103,-2.473133
0.778,3.6823707,-11.693375,-5.1641006,-0.9797804,0.91207385,-2.4776406
0.78,3.8592544,-11.883748,-4.9951105,-0.9533012,0.9262337,-2.4757411
0.782,3.999929,-12.061962,-4.863797,-0.9296016,0.93723506,-2.4659882
0.784,4.10027,-12.2249365,-4.769532,-0.90889347,0.9444305,-2.4472656
0.786,4.1560717,-12.369518,-4.710286,-0.8913417,0.94720674,-2.4189165
0.788,4.163967,-12.492785,-4.6836014,-0.8770648,0.94503164,-2.3807783
0.79,4.121524,-12.591968,-4.686841,-0.86611146,0.93750405,-2.333184
0.792,4.0273876,-12.664281,-4.7175913,-0.85841674,0.9243397,-2.2769294
0.794,3.8818576,-12.707977,-4.7727866,-0.85381573,0.9054247,-2.213098
0.796,3.6855469,-12.72205,-4.8489647,-0.8520188,0.8808409,-2.14301
0.798,3.440418,-12.706899,-4.9420414,-0.852655,0.8508334,-2.0681832
0.8,3.148992,-12.663209,-5.0476146,-0.8553171,0.81575143,-1.99021
0.802,2.8146749,-12.592426,-5.1610913,-0.85960174,0.7760737,-1.9106588
0.804,2.441398,-12.496382,-5.278907,-0.8651014,0.7323522,-1.831075
0.806,2.0339007,-12.377393,-5.3975534,-0.8713711,0.68522316,-1.7530007
0.808,1.5973661,-12.238181,-5.5142555,-0.8779054,0.6354286,-1.6779279
0.81,1.137839,-12.081992,-5.6263094,-0.884105,0.58393276,-1.6072527
0.812,0.6615549,-11.912285,-5.7310915,-0.8892948,0.5319397,-1.5422616
0.814,0.17585021,-11.733051,-5.826357,-0.892699,0.48086613,-1.4841022
0.816,-0.312118,-11.548485,-5.910752,-0.89344114,0.43228486,-1.4336951
0.818,-0.7955213,-11.362814,-5.983548,-0.8905652,0.38775808,-1.3917124
0.82,-1.2675359,-11.180585,-6.0439844,-0.883147,0.34872785,-1.3585773
0.822,-1.7203594,-11.006432,-6.0926466,-0.8703288,0.31645736,-1.334587
0.824,-2.1471558,-10.844653,-6.130929,-0.8513769,0.29188755,-1.3199247
0.826,-2.5416048,-10.699344,-6.160056,-0.8257296,0.27563596,-1.3146756
0.828,-2.898212,-10.574226,-6.181766,-0.7930361,0.26803344,-1.3188576
0.83,-3.211612,-10.472688,-6.1989355,-0.7531327,0.2691164,-1.3323545
0.832,-3.4769695,-10.397822,-6.215951,-0.7060487,0.27873266,-1.3549637
0.834,-3.6906152,-10.3524475,-6.2365093,-0.6519897,0.29656044,-1.3863769
0.836,-3.8500557,-10.339022,-6.2640643,-0.5912861,0.32206875,-1.4261183
0.838,-3.9531717,-10.359684,-6.3011703,-0.5243847,0.3545172,-1.4734763
0.84,-3.9991565,-10.416149,-6.3501062,-0.45182163,0.39290285,-1.5275311
0.842,-3.9878783,-10.509977,-6.4130907,-0.3742114,0.4358757,-1.5872135
0.844,-3.920351,-10.6423855,-6.4923525,-0.2922721,0.48171324,-1.6512972
0.846,-3.7993336,-10.813526,-6.5900283,-0.20677733,0.5284375,-1.7184118
0.848,-3.629155,-11.0226965,-6.7082744,-0.11858475,0.5738716,-1.7870858
0.85,-3.4153528,-11.268183,-6.848672,-0.028602935,0.6157439,-1.8557143
0.852,-3.1644096,-11.547031,-7.011858,0.06222436,0.6518355,-1.9225451
0.854,-2.883457,-11.855671,-7.198028,0.15291345,0.68012303,-1.9856845
0.856,-2.5798066,-12.190301,-7.4062004,0.24248666,0.69887227,-2.0432062
0.858,-2.26136,-12.547063,-7.633935,0.32998204,0.7067094,-2.0932624
0.86,-1.9351254,-12.921441,-7.878747,0.41447073,0.70267004,-2.1341214
0.862,-1.6106051,-13.308334,-8.138186,0.49510324,0.68624085,-2.1642547
0.864,-1.2954152,-13.703232,-8.408445,0.57113665,0.65726054,-2.1823976
0.866,-0.99819016,-14.100736,-8.685741,0.6420182,0.6160077,-2.1876206
0.868,-0.7271378,-14.495195,-8.966877,0.70736915,0.5631742,-2.1793842
0.87,-0.48954296,-14.880837,-9.248569,0.76704025,0.49981576,-2.1575706
0.872,-0.29135883,-15.252006,-9.527096,0.8210965,0.42729634,-2.1224296
0.874,-0.13718039,-15.603661,-9.798887,0.86982685,0.3471612,-2.0745049
0.876,-0.031028152,-15.931092,-10.059811,0.9136638,0.2610418,-2.0145273
0.878,0.02406764,-16.230108,-10.305643,0.9531754,0.17062458,-1.943398
0.88,0.02608645,-16.496922,-10.532467,0.9890124,0.077499956,-1.862256
0.882,-0.025845647,-16.72805,-10.7371025,1.0218238,-0.016961575,-1.7724869
0.884,-0.13143837,-16.920431,-10.917076,1.0522296,-0.11162758,-1.6757618
0.886,-0.28941536,-17.071562,-11.070284,1.0808158,-0.20568028,-1.5739523
0.888,-0.49765646,-17.17958,-11.194124,1.1081034,-0.2986069,-1.4690654
0.89,-0.75294447,-17.243591,-11.286713,1.1345607,-0.3899924,-1.3631198
0.892,-1.0517571,-17.262695,-11.347962,1.1604606,-0.47984722,-1.2581549
0.894,-1.3904618,-17.236614,-11.375664,1.1859883,-0.5683134,-1.1561608
0.896,-1.7622657,-17.166939,-11.364941,1.2112387,-0.6556759,-1.0589015
0.898,-2.1606426,-17.055794,-11.312927,1.2361902,-0.74229455,-0.9678591
0.9,-2.5793934,-16.906052,-11.218048,1.260664,-0.8286401,-0.88423467
0.902,-3.011654,-16.721848,-11.078802,1.2843639,-0.9152018,-0.8089485
0.904,-3.450703,-16.507095,-10.894897,1.3068771,-1.0024203,-0.74267995
0.906,-3.8887286,-16.26628,-10.666864,1.3277462,-1.0906451,-0.6859342
0.908,-4.318186,-16.003721,-10.394797,1.3464686,-1.1800478,-0.6390865
0.91,-4.731779,-15.724445,-10.07838,1.3625078,-1.2705587,-0.60233015
0.912,-5.1212444,-15.4334955,-9.71739,1.3753451,-1.3617961,-0.5755944
0.914,-5.479838,-15.136674,-9.311015,1.3844988,-1.4530845,-0.5585901
0.916,-5.80322,-14.839958,-8.860034,1.3895359,-1.5435032,-0.5507718
0.918,-6.084572,-14.549684,-8.367004,1.3901095,-1.6318212,-0.5513132
0.92,-6.3180094,-14.270516,-7.833604,1.3859833,-1.7165678,-0.5590811
0.922,-6.5004535,-14.005512,-7.2578115,1.3770301,-1.7961082,-0.5727048
0.924,-6.6309156,-13.757822,-6.641509,1.3631728,-1.8688515,-0.5906702
0.926,-6.7070913,-13.53089,-5.989551,1.3444049,-1.9331846,-0.6113293
0.928,-6.7274203,-13.32692,-5.3087177,1.3207626,-1.9875593,-0.63305897
0.93,-6.6911216,-13.147052,-4.606688,1.2923367,-2.030601,-0.65443504
0.932,-6.5984974,-12.9913435,-3.888197,1.2592248,-2.061175,-0.67429376
0.934,-6.451624,-12.859612,-3.157785,1.2215449,-2.0783932,-0.6917175
0.936,-6.250577,-12.751722,-2.4215353,1.1794108,-2.0816154,-0.70600295
0.938,-5.997282,-12.666054,-1.6871088,1.1328553,-2.070523,-0.7166991
0.94,-5.6950383,-12.599367,-0.96177125,1.081779,-2.0451276,-0.72359467
0.942,-5.347807,-12.547431,-0.25172424,1.0259552,-2.0057347,-0.7266419
0.944,-4.95922,-12.50603,0.43644428,0.9650438,-1.9532876,-0.726035
0.946,-4.5323,-12.470683,1.0963511,0.89872205,-1.889167,-0.7220528
0.948,-4.07109,-12.436343,1.7211335,0.8264657,-1.8156097,-0.71470314
0.95,-3.5797405,-12.397502,2.305482,0.747489,-1.735906,-0.7039398
0.952,-3.0618458,-12.348742,2.8458393,0.6609099,-1.6542118,-0.6900273
0.954,-2.5211883,-12.284642,3.3400698,0.5658698,-1.5751119,-0.6733655
0.956,-1.9610511,-12.2000675,3.787365,0.4614629,-1.5036341,-0.65437657
0.958,-1.3844889,-12.089967,4.1883903,0.34682092,-1.444998,-0.6335655
0.96,-0.7944151,-11.9498,4.545083,0.22123772,-1.4041258,-0.61153257
0.962,-0.19372499,-11.774993,4.8601694,0.08422042,-1.3852267,-0.5889615
0.964,0.41417706,-11.560964,5.137329,-0.06451169,-1.391362,-0.5664897
0.966,1.0263525,-11.302865,5.381509,-0.22503379,-1.4242072,-0.54462767
0.968,1.6402102,-10.99595,5.5984735,-0.39723596,-1.4840755,-0.523735
0.97,2.2522063,-10.6363125,5.795871,-0.5808165,-1.5699121,-0.50391775
0.972,2.861816,-10.220927,5.9827466,-0.7753329,-1.6794072,-0.4850521
0.974,3.466958,-9.746363,6.167508,-0.98027706,-1.8094232,-0.46682096
0.976,4.0663934,-9.210208,6.3591557,-1.1951034,-1.9562154,-0.44871604
0.978,4.658402,-8.610689,6.5671005,-1.419209,-2.1156435,-0.43014708
0.98,5.240896,-7.946502,6.8003035,-1.6519692,-2.2834723,-0.41057938
0.982,5.8118224,-7.2169895,7.0672207,-1.8927339,-2.4553866,-0.38954276
0.984,6.3691106,-6.4221334,7.375843,-2.1408834,-2.6270337,-0.36662477
0.986,6.9106483,-5.5625997,7.73339,-2.3958027,-2.7939858,-0.34158844
0.988,7.4342012,-4.639672,8.145754,-2.656862,-2.9517193,-0.31441045
0.99,7.937726,-3.655226,8.617733,-2.9233582,-3.09565,-0.28530812
0.992,8.418728,-2.6120098,9.152802,-3.1945162,-3.2212162,-0.2547093
0.994,8.875182,-1.5134962,9.752273,-3.469411,-3.3239841,-0.22324747
0.996,9.305075,-0.3637538,10.415501,-3.7469752,-3.3998928,-0.19177693
0.998,9.7060795,0.8327694,11.139131,-4.0260096,-3.4452906,-0.16126496
1,10.076372,2.0710673,11.9190645,-4.3051867,-3.4571517,-0.13270372
1.002,10.414569,3.3455935,12.750664,-4.5829835,-3.433204,-0.1072976
1.004,10.720493,4.650625,13.624564,-4.8576913,-3.371789,-0.086113214
1.006,10.992454,5.9807644,14.528268,-5.127645,-3.27214,-0.069812775
1.008,11.229934,7.3299093,15.451333,-5.3913264,-3.134469,-0.058889747
1.01,11.433637,8.691797,16.383488,-5.6473265,-2.9595618,-0.0537529
1.012,11.604192,10.060424,17.313047,-5.894481,-2.74868,-0.05456382
1.014,11.742741,11.429478,18.227495,-6.131988,-2.5036452,-0.06121832
1.016,11.851004,12.792637,19.113588,-6.359329,-2.2268357,-0.073328614
1.018,11.931205,14.143651,19.956758,-6.5762115,-1.9211218,-0.090430796
1.02,11.986098,15.476599,20.74221,-6.7825155,-1.589742,-0.11207202
1.022,12.017439,16.786098,21.455635,-6.9782686,-1.2361197,-0.13777594
1.024,12.028328,18.067595,22.083786,-7.1636553,-0.863937,-0.1671531
1.026,12.023411,19.31685,22.615707,-7.3389707,-0.47712818,-0.199952
1.028,12.004099,20.53002,23.042894,-7.5045977,-0.07963616,-0.23610371
1.03,11.971723,21.702606,23.35738,-7.660963,0.32458353,-0.27573073
1.032,11.929953,22.829784,23.549236,-7.808639,0.73170483,-0.31912303
1.034,11.881716,23.908459,23.614025,-7.948304,1.1380007,-0.36674207
1.036,11.82698,24.936934,23.551706,-8.08078,1.5398995,-0.419222
1.038,11.765656,25.913342,23.364052,-8.206963,1.9341227,-0.47730255
1.04,11.69709,26.835892,23.053654,-8.327811,2.3177137,-0.54172695
1.042,11.620425,27.703176,22.621487,-8.444309,2.6880193,-0.6132215
1.044,11.535512,28.514223,22.070621,-8.557431,3.0426867,-0.69242
1.046,11.439547,29.26897,21.407787,-8.668044,3.3796742,-0.7798022
1.048,11.331135,29.966402,20.64193,-8.776911,3.6971955,-0.8756747
1.05,11.20973,30.605318,19.781904,-8.884609,3.9937322,-0.98008347
1.052,11.07443,31.184807,18.83725,-8.991538,4.267991,-1.0928118
1.054,10.923517,31.704967,17.818815,-9.097889,4.5188828,-1.2134473
1.056,10.754803,32.166702,16.738651,-9.203696,4.745505,-1.3413353
1.058,10.566816,32.57103,15.608648,-9.30883,4.94709,-1.4756272
1.06,10.358288,32.91953,14.440295,-9.413047,5.1230536,-1.6152658
1.062,10.127977,33.214275,13.244911,-9.516038,5.2730217,-1.7591333
1.064,9.876012,33.457302,12.033691,-9.617486,5.3967676,-1.90607
1.066,9.602682,33.650623,10.817885,-9.717075,5.494226,-2.0548797
1.068,9.308564,33.79624,9.608988,-9.814572,5.565522,-2.2043934
1.07,8.994738,33.89659,8.417886,-9.909815,5.610918,-2.3534973
1.072,8.662577,33.95388,7.2549486,-10.002791,5.630849,-2.5010526
1.074,8.314083,33.970306,6.130245,-10.093483,5.6259317,-2.6459622
1.076,7.9515023,33.94811,5.0523605,-10.181941,5.5969906,-2.7872405
1.078,7.5775194,33.88974,4.0289135,-10.268148,5.5451775,-2.9239926
1.08,7.1948833,33.79786,3.0664597,-10.352038,5.4720087,-3.05543
1.082,6.80638,33.67502,2.170621,-10.4334545,5.379317,-3.180912
1.084,6.4148173,33.523705,1.3460369,-10.512181,5.269313,-3.2999103
1.086,6.0233455,33.346184,0.5962429,-10.587886,5.1445956,-3.4120076
1.088,5.6350856,33.14541,-0.07631111,-10.660127,5.0081244,-3.5168424
1.09,5.2529616,32.92401,-0.66987324,-10.728344,4.8630943,-3.6141157
1.092,4.8802814,32.68475,-1.1846476,-10.791878,4.712948,-3.7036462
1.094,4.5193744,32.43061,-1.6215849,-10.849972,4.561299,-3.7853644
1.096,4.17285,32.16465,-1.9834881,-10.901781,4.4118557,-3.859272
1.098,3.8430862,31.889606,-2.2741728,-10.946423,4.2683716,-3.9254296
1.1,3.5313656,31.608883,-2.4986172,-10.982979,4.134553,-3.9839468
1.102,3.2395456,31.325523,-2.6625543,-11.010565,4.0139456,-4.035043
1.104,2.9684124,31.042751,-2.7717485,-11.028372,3.90982,-4.079019
1.106,2.7181687,30.763653,-2.833671,-11.035711,3.8251143,-4.116261
1.108,2.489458,30.491016,-2.8571663,-11.032059,3.7623196,-4.1471987
1.11,2.2816956,30.22798,-2.8517833,-11.017048,3.7234526,-4.1723733
1.112,2.0945373,29.977037,-2.8277147,-10.9905205,3.7100239,-4.192436
1.114,1.9268755,29.740334,-2.7947817,-10.952481,3.7230353,-4.208157
1.116,1.7773023,29.519987,-2.762789,-10.903103,3.7629607,-4.2203655
1.118,1.6450326,29.317291,-2.7420611,-10.842687,3.8298795,-4.2300196
1.12,1.5284457,29.133497,-2.742492,-10.771599,3.9235456,-4.238156
1.122,1.4260914,28.969213,-2.7722993,-10.690324,4.043316,-4.245834
1.124,1.3365037,28.824385,-2.839106,-10.599408,4.1882114,-4.2541018
1.126,1.2575159,28.698748,-2.9498425,-10.499413,4.356926,-4.2639885
1.128,1.1871321,28.591719,-3.1104898,-10.390966,4.547879,-4.2764587
1.13,1.1235831,28.502035,-3.3260183,-10.274654,4.759234,-4.2923717
1.132,1.0651538,28.428022,-3.599959,-10.151107,4.9888067,-4.312465
1.134,1.0103889,28.367813,-3.934328,-10.020968,5.234145,-4.3372965
1.136,0.9574747,28.31941,-4.329926,-9.884877,5.492594,-4.3671994
1.138,0.90506005,28.280542,-4.7860866,-9.743472,5.7612286,-4.40229
1.14,0.8524015,28.248432,-5.301072,-9.597381,6.036869,-4.442516
1.142,0.79886055,28.220108,-5.87099,-9.447253,6.316208,-4.487665
1.144,0.7445631,28.192791,-6.490306,-9.293692,6.595784,-4.537427
1.146,0.6900258,28.163273,-7.1532073,-9.1372795,6.871988,-4.591379
1.148,0.635901,28.128056,-7.8530107,-8.97854,7.1411014,-4.649071
1.15,0.58317375,28.084011,-8.582522,-8.817941,7.3993273,-4.7101088
1.152,0.5330415,28.027945,-9.334192,-8.655854,7.6427903,-4.774215
1.154,0.48701668,27.956875,-10.09985,-8.492636,7.867576,-4.841194
1.156,0.44687557,27.867857,-10.871297,-8.328602,8.069795,-4.9108887
1.158,0.41472626,27.757875,-11.640419,-8.16407,8.2456455,-4.9832306
1.16,0.39256573,27.623894,-12.398704,-7.9993916,8.391537,-5.05821
1.162,0.38262272,27.462774,-13.13812,-7.8349276,8.50421,-5.135833
1.164,0.38666153,27.27197,-13.851426,-7.6710935,8.580849,-5.2160044
1.166,0.4061308,27.049072,-14.531779,-7.508336,8.619234,-5.2985325
1.168,0.44200706,26.79219,-15.172349,-7.3471274,8.617861,-5.3831015
1.17,0.49502754,26.499542,-15.767548,-7.187919,8.576064,-5.46928
1.172,0.56518936,26.169914,-16.312927,-7.031104,8.49402,-5.5564694
1.174,0.6515598,25.803066,-16.804565,-6.877063,8.37274,-5.643952
1.176,0.7530165,25.399206,-17.239616,-6.72606,8.2141485,-5.73088
1.178,0.86744404,24.959229,-17.616554,-6.5783153,8.020947,-5.8163223
1.18,0.99225616,24.484482,-17.934399,-6.433993,7.796494,-5.8993
1.182,1.1241417,23.977066,-18.192947,-6.29315,7.5447087,-5.978792
1.184,1.2597971,23.439865,-18.393597,-6.1557584,7.2699876,-6.0538154
1.186,1.3954134,22.87608,-18.537731,-6.0216374,6.9770913,-6.123465
1.188,1.526824,22.289783,-18.627817,-5.890457,6.671043,-6.186981
1.19,1.6501389,21.685299,-18.66736,-5.761741,6.35695,-6.243799
1.192,1.7617855,21.067451,-18.660805,-5.634857,6.0399547,-6.293493
1.194,1.8585835,20.441206,-18.613178,-5.5090647,5.725057,-6.335762
1.196,1.9381542,19.811733,-18.529797,-5.3835554,5.4168777,-6.3704147
1.198,1.998806,19.183645,-18.416218,-5.257509,5.119628,-6.3973174
1.2,2.0395708,18.561811,-18.278805,-5.130197,4.8369255,-6.416421
1.202,2.0595942,17.95076,-18.123604,-5.000978,4.5717087,-6.427712
1.204,2.0593185,17.354362,-17.957174,-4.8693666,4.3262672,-6.4311337
1.206,2.0395412,16.776081,-17.785677,-4.7350426,4.1022067,-6.4266253
1.208,2.001729,16.219322,-17.614843,-4.5978136,3.9004748,-6.4141383
1.21,1.9486551,15.686163,-17.44999,-4.4576135,3.7214196,-6.393693
1.212,1.8830452,15.17849,-17.296404,-4.3144345,3.5648444,-6.365378
1.214,1.8083763,14.697432,-17.159637,-4.1683397,3.4300795,-6.329411
1.216,1.7286539,14.243461,-17.043661,-4.019466,3.3159685,-6.2861156
1.218,1.6473532,13.8168545,-16.951015,-3.867991,3.2209759,-6.235938
1.22,1.5687084,13.41695,-16.883984,-3.7141128,3.1431904,-6.17942
1.222,1.4964628,13.042749,-16.84409,-3.558046,3.080394,-6.117168
1.224,1.4346237,12.692991,-16.832525,-3.40004,3.0300965,-6.0498204
1.226,1.3865223,12.366174,-16.850203,-3.240413,2.9896054,-5.9780407
1.228,1.3546333,12.060891,-16.896917,-3.079513,2.9561257,-5.9024506
1.23,1.3415871,11.775146,-16.972004,-2.9177337,2.9268508,-5.8236184
1.232,1.349164,11.507046,-17.074783,-2.755488,2.8990378,-5.742071
1.234,1.378695,11.255053,-17.204063,-2.593192,2.8700564,-5.6582756
1.236,1.4311771,11.0171585,-17.358171,-2.4313269,2.8374903,-5.5726185
1.238,1.5070419,10.791386,-17.534813,-2.2703738,2.7991505,-5.4854403
1.24,1.6060386,10.576432,-17.731281,-2.110839,2.7530775,-5.397063
1.242,1.7272987,10.371168,-17.944872,-1.953249,2.697572,-5.307765
1.244,1.869781,10.174622,-18.172941,-1.7981325,2.6311102,-5.2177978
1.246,2.031776,9.986071,-18.41284,-1.6460093,2.5523567,-5.1274853
1.248,2.2109694,9.805081,-18.662106,-1.4973586,2.4601808,-5.0372086
1.25,2.4046106,9.631611,-18.918396,-1.3525962,2.3536572,-4.947426
1.252,2.6095262,9.466007,-19.179325,-1.2120767,2.2320507,-4.8586454
1.254,2.8223166,9.308596,-19.442633,-1.0760622,2.0948534,-4.771445
1.256,3.0393572,9.159956,-19.705654,-0.9447372,1.9417868,-4.6864843
1.258,3.256908,9.0208645,-19.965591,-0.818171,1.7728148,-4.604478
1.26,3.4709063,8.89217,-20.220005,-0.69635797,1.5881922,-4.526108
1.262,3.6779242,8.775067,-20.466019,-0.5791972,1.388459,-4.452032
1.264,3.8743372,8.670351,-20.701756,-0.466519,1.1744486,-4.3828096
1.266,4.056591,8.578723,-20.925732,-0.35809284,0.9472235,-4.31888
1.268,4.2211423,8.501693,-21.136152,-0.25361127,0.70808667,-4.260545
1.27,4.3650637,8.440216,-21.332342,-0.15269148,0.458575,-4.207925
1.272,4.485802,8.395426,-21.5131,-0.05493787,0.20036668,-4.16101
1.274,4.581276,8.367786,-21.677431,0.040055245,-0.0647679,-4.1196203
1.276,4.6497974,8.357868,-21.824684,0.13265918,-0.33496755,-4.083424
1.278,4.6903434,8.3660345,-21.954746,0.22321317,-0.6083779,-4.051945
1.28,4.7023163,8.392708,-22.067635,0.31201753,-0.88316154,-4.0245776
1.282,4.6859207,8.43844,-22.16359,0.3993167,-1.1575197,-4.000628
1.284,4.6417794,8.503377,-22.243292,0.48530722,-1.4296961,-3.9793334
1.286,4.5712214,8.58787,-22.307678,0.57015324,-1.6979924,-3.9598553
1.288,4.476449,8.691746,-22.357872,0.6539828,-1.960775,-3.9413433
1.29,4.35976,8.814815,-22.395437,0.7369374,-2.216506,-3.9229622
1.292,4.224479,8.956715,-22.42183,0.8191761,-2.463747,-3.9039288
1.294,4.0737205,9.116913,-22.437984,0.9008645,-2.7011905,-3.8835323
1.296,3.9112082,9.295008,-22.445576,0.9821677,-2.927752,-3.8611996
1.298,3.7411084,9.490382,-22.446266,1.0632639,-3.1424832,-3.836496
1.3,3.5675044,9.702354,-22.441685,1.1443169,-3.3447223,-3.8091402
1.302,3.3944373,9.930198,-22.43345,1.225431,-3.5341249,-3.7790601
1.304,3.2260199,10.172945,-22.422861,1.3066549,-3.7106197,-3.7463107
1.306,3.0660148,10.429383,-22.410936,1.3879957,-3.8744438,-3.711118
1.308,2.9179187,10.698148,-22.39843,1.4693606,-4.026101,-3.673814
1.31,2.784925,10.977716,-22.38622,1.5506245,-4.166337,-3.6348615
1.312,2.6699796,11.266296,-22.374977,1.631602,-4.2961264,-3.5948226
1.314,2.5754151,11.562205,-22.365406,1.7120774,-4.4165916,-3.554354
1.316,2.5031743,11.863402,-22.357994,1.7918017,-4.528982,-3.5141804
1.318,2.4546366,12.167732,-22.35291,1.8705472,-4.6346483,-3.4750638
1.32,2.4303012,12.473225,-22.350224,1.948056,-4.7349997,-3.437772
1.322,2.4299936,12.777931,-22.34947,2.0240579,-4.83152,-3.403071
1.324,2.452898,13.079758,-22.3495,2.0982566,-4.925725,-3.3717048
1.326,2.4976664,13.376676,-22.349365,2.1703236,-5.0191336,-3.3443365
1.328,2.5625176,13.666264,-22.34784,2.2398999,-5.1132007,-3.3215322
1.33,2.6449003,13.946592,-22.343693,2.3066049,-5.20932,-3.303813
1.332,2.741881,14.215832,-22.335333,2.3700314,-5.30875,-3.2916605
1.334,2.8497458,14.4724865,-22.320835,2.4297543,-5.41257,-3.2855253
1.336,2.9650636,14.714853,-22.297909,2.4853365,-5.5216455,-3.2858262
1.338,3.0840726,14.941929,-22.264061,2.5363612,-5.636567,-3.2929294
1.34,3.2029166,15.152536,-22.216526,2.5824401,-5.7576036,-3.3071847
1.342,3.317577,15.345915,-22.152452,2.6232646,-5.884699,-3.328892
1.344,3.4243221,15.521267,-22.068733,2.6585863,-6.017455,-3.3583248
1.346,3.5197597,15.67835,-21.96252,2.688242,-6.155077,-3.395648
1.348,3.6002939,15.817263,-21.831324,2.7121644,-6.2964144,-3.4409242
1.35,3.6629922,15.937782,-21.672935,2.730395,-6.439954,-3.4941633
1.352,3.705138,16.040257,-21.485085,2.7430348,-6.5839157,-3.555294
1.354,3.724188,16.125353,-21.265907,2.7502608,-6.726246,-3.6241884
1.356,3.7183003,16.193945,-21.013565,2.7523196,-6.86465,-3.700655
1.358,3.6859443,16.24709,-20.726234,2.7495065,-6.996702,-3.7845192
1.36,3.6261847,16.286037,-20.402378,2.74211,-7.119854,-3.875587
1.362,3.5387836,16.312315,-20.041267,2.7304475,-7.2315273,-3.973651
1.364,3.4243164,16.32741,-19.642792,2.7148361,-7.329172,-4.078534
1.366,3.2836776,16.333038,-19.207468,2.6955953,-7.4102736,-4.190052
1.368,3.1182537,16.331192,-18.736492,2.6730409,-7.472416,-4.3080826
1.37,2.9304206,16.323675,-18.231213,2.6474674,-7.513296,-4.432521
1.372,2.7226381,16.312489,-17.694382,2.6191316,-7.530707,-4.5633273
1.374,2.4980376,16.300314,-17.12891,2.588294,-7.522509,-4.7005377
1.376,2.2607965,16.289589,-16.538328,2.5551848,-7.4866543,-4.8442297
1.378,2.0154214,16.282673,-15.926962,2.5200267,-7.42115,-4.994555
1.38,1.7671926,16.28248,-15.299095,2.4830196,-7.324047,-5.151695
1.382,1.5213459,16.292086,-14.660285,2.4443328,-7.1934967,-5.315823
1.384,1.2838961,16.31448,-14.016375,2.4041128,-7.0277233,-5.487118
1.386,1.061132,16.352398,-13.3729725,2.3625014,-6.8251,-5.665744
1.388,0.8597472,16.40847,-12.735775,2.3196409,-6.5842094,-5.8518085
1.39,0.686322,16.485254,-12.11119,2.2756755,-6.303877,-6.0453987
1.392,0.5473275,16.585114,-11.505289,2.2307842,-5.9832983,-6.246543
1.394,0.4496677,16.710405,-10.92435,2.1851952,-5.622105,-6.455196
1.396,0.39972758,16.863428,-10.373905,2.1392145,-5.2204056,-6.6712103
1.398,0.4036684,17.046276,-9.859247,2.093229,-4.7788734,-6.894376
1.4,0.46741748,17.260925,-9.385694,2.0476813,-4.298807,-7.124385
1.402,0.5961168,17.509153,-8.9580965,2.0030603,-3.782112,-7.3608522
1.404,0.7950487,17.792542,-8.58032,1.9598775,-3.2312717,-7.6032844
1.406,1.0687642,18.112373,-8.256127,1.918648,-2.6493244,-7.8511124
1.408,1.4209242,18.469378,-7.9883413,1.8798597,-2.0397534,-8.103646
1.41,1.854373,18.864286,-7.778579,1.8439715,-1.4063852,-8.360122
1.412,2.371347,19.297697,-7.6281843,1.811373,-0.75329566,-8.619706
1.414,2.9736214,19.770031,-7.538001,1.7824168,-0.0846684,-8.881489
1.416,3.6623664,20.28133,-7.508274,1.7573861,0.5953145,-9.144516
1.418,4.438466,20.831087,-7.538588,1.7364596,1.2825868,-9.407713
1.42,5.3016305,21.418724,-7.62791,1.7197534,1.9732506,-9.669989
1.422,6.251085,22.043655,-7.7747965,1.7073562,2.6637323,-9.930155
1.424,7.285363,22.70531,-7.977253,1.6993215,3.350861,-10.18703
1.426,8.401932,23.402802,-8.232982,1.6956801,4.0318766,-10.439444
1.428,9.597448,24.13496,-8.539628,1.6964862,4.7045484,-10.686228
1.43,10.8677635,24.900301,-8.89418,1.701827,5.367174,-10.926294
1.432,12.207808,25.697334,-9.292616,1.7118366,6.01851,-11.158623
1.434,13.612133,26.524103,-9.730907,1.7267108,6.6578846,-11.382246
1.436,15.074566,27.378853,-10.205233,1.746747,7.285263,-11.596302
1.438,16.587818,28.259922,-10.71247,1.7723093,7.901013,-11.799929
1.44,18.144148,29.164837,-11.2484455,1.803833,8.505875,-11.992225
1.442,19.734245,30.091022,-11.807272,1.8418074,9.10083,-12.17226
1.444,21.34972,31.035326,-12.383692,1.8867512,9.686936,-12.339027
1.446,22.98151,31.994333,-12.972282,1.939136,10.265209,-12.491536
1.448,24.62069,32.96402,-13.567859,1.9993834,10.8364935,-12.628726
1.45,26.258823,33.940235,-14.165084,2.0678291,11.401371,-12.749501
1.452,27.88819,34.91803,-14.758723,2.1447048,11.960152,-12.852724
1.454,29.501074,35.892666,-15.343226,2.2301245,12.512874,-12.9372635
1.456,31.090897,36.858635,-15.913234,2.3240514,13.059405,-13.001992
1.458,32.652573,37.810104,-16.463377,2.42633,13.599539,-13.045698
1.46,34.181602,38.741184,-16.988848,2.5366468,14.133108,-13.067198
1.462,35.67662,39.64464,-17.485947,2.654502,14.660076,-13.065248
1.464,37.136513,40.513973,-17.949894,2.7792115,15.18055,-13.038543
1.466,38.5612,41.342606,-18.376202,2.9099698,15.694917,-12.985776
1.468,39.95324,42.123245,-18.762405,3.045802,16.203825,-12.905813
1.47,41.316635,42.849136,-19.106306,3.1856103,16.707895,-12.797632
1.472,42.65635,43.51364,-19.405857,3.3282099,17.207836,-12.660444
1.474,43.978775,44.110626,-19.659515,3.472331,17.704468,-12.493833
1.476,45.291645,44.634327,-19.866476,3.6166282,18.198421,-12.297762
1.478,46.603165,45.079926,-20.026485,3.7597337,18.690113,-12.072645
1.48,47.92224,45.443012,-20.14021,3.900249,19.179686,-11.819424
1.482,49.25892,45.71978,-20.208715,4.036762,19.66682,-11.539523
1.484,50.62313,45.90692,-20.23331,4.167842,20.150824,-11.234835
1.486,52.02547,46.001602,-20.216114,4.292021,20.630611,-10.907682
1.488,53.476593,46.002266,-20.159752,4.4077454,21.10448,-10.56064
1.49,54.98609,45.908207,-20.067953,4.5133877,21.570223,-10.196452
1.492,56.564075,45.719112,-19.945484,4.607181,22.02542,-9.817833
1.494,58.22091,45.435543,-19.797194,4.6871295,22.46719,-9.427245
1.496,59.965584,45.058735,-19.627682,4.751144,22.892496,-9.026871
1.498,61.80639,44.59118,-19.442179,4.797124,23.298485,-8.618425
1.5,63.752346,44.03544,-19.245747,4.8228865,23.68222,-8.203065
1.502,65.81173,43.39539,-19.043137,4.8262095,24.040936,-7.7813396
1.504,67.99109,42.676094,-18.84039,4.804975,24.372307,-7.3532686
1.506,70.29822,41.883133,-18.645508,4.757188,24.674557,-6.9183946
1.508,72.73948,41.02406,-18.465778,4.681031,24.946459,-6.475936
1.51,75.321945,40.106796,-18.307594,4.5748405,25.187376,-6.024926
1.512,78.04973,39.142616,-18.17814,4.4371223,25.397314,-5.5644455
1.514,80.92594,38.145775,-18.08514,4.2665095,25.576897,-5.093706
1.516,83.955414,37.12937,-18.03157,4.0617275,25.727283,-4.6121106
1.518,87.139015,36.11436,-18.031265,3.8214636,25.850105,-4.1193404
1.52,90.47538,35.127396,-18.100227,3.54431,25.947361,-3.6154327
1.522,93.96314,34.1864,-18.237541,3.2287955,26.021355,-3.10084
1.524,97.587494,33.308975,-18.431229,2.873261,26.074518,-2.5764136
1.526,101.34741,32.52195,-18.677284,2.4757605,26.10923,-2.0430903
1.528,105.22859,31.872849,-18.97398,2.0341673,26.127785,-1.5016422
1.53,109.22525,31.4028,-19.331902,1.54633,26.132494,-0.9525142
1.532,113.32775,31.151363,-19.747929,1.0100913,26.125492,-0.3955326
1.534,117.52819,31.16455,-20.225044,0.4234779,26.108685,0.17028213
1.536,121.816284,31.485785,-20.771328,-0.21504045,26.083963,0.7468424
1.538,126.1844,32.166683,-21.384838,-0.90635705,26.05308,1.3370223
1.54,130.6259,33.270493,-22.068897,-1.650722,26.017357,1.9447094
1.542,135.121,34.81941,-22.815125,-2.447247,25.97777,2.5745554
1.544,139.6362,36.826496,-23.55938,-3.2938132,25.935104,3.2315016
1.546,144.19913,39.32745,-24.30135,-4.187409,25.889162,3.9203289
1.548,148.86267,42.277313,-25.13945,-5.12374,25.838432,4.6451106
1.55,153.54344,45.79908,-26.104784,-6.0979195,25.778372,5.4083323
1.552,158.21768,49.91617,-27.211002,-7.1059556,25.699814,6.2111907
1.554,162.881,54.663364,-28.384903,-8.144534,25.590927,7.0536456
1.556,167.52968,60.057175,-29.57178,-9.208945,25.43731,7.9338636
1.558,172.16515,66.10457,-30.693174,-10.29566,25.21963,8.847568
1.56,176.76877,72.71732,-31.738602,-11.402644,24.913359,9.789695
1.562,181.34683,79.860016,-32.70096,-12.529964,24.489159,10.756262
1.564,185.91934,87.50761,-33.600628,-13.679319,23.913935,11.744071
1.566,190.49368,95.56098,-34.348404,-14.853386,23.15292,12.751638
1.568,195.08385,103.911064,-34.859177,-16.055187,22.171883,13.782349
1.57,199.72263,112.48155,-35.125145,-17.285944,20.9412,14.8459835
1.572,204.44832,121.19685,-35.154762,-18.545094,19.435404,15.957387
1.574,209.22289,129.97038,-34.914986,-19.82898,17.634338,17.138277
1.576,214.03647,138.683,-34.340706,-21.129665,15.526289,18.426964
1.578,218.88542,147.20973,-33.36252,-22.429077,13.12974,19.85069
1.58,223.79251,155.4169,-31.91291,-23.704636,10.474768,21.447315
1.582,228.77823,163.09329,-29.977531,-24.917828,7.697295,23.09885
1.584,233.79572,170.13467,-27.502884,-26.089273,4.837232,24.834442
1.586,238.82018,176.43822,-24.433716,-27.25144,1.8352089,26.804844
1.588,243.8371,181.8873,-20.723186,-28.357086,-1.1702242,28.855349
1.59,248.80557,186.40007,-16.333643,-29.392273,-4.0738287,30.941626
1.592,253.64186,189.94464,-11.2520895,-30.367062,-6.7773924,32.964195
1.594,258.25272,192.50813,-5.471935,-31.299408,-9.218065,34.819782
1.596,262.54587,194.07965,0.9941082,-32.211193,-11.3605585,36.42776
1.598,266.4305,194.65643,8.11435,-33.127842,-13.200797,37.70857
1.6,269.79337,194.27457,15.835896,-34.06333,-14.777879,38.593666
1.602,272.51382,192.995,24.082928,-35.009155,-16.168423,39.0318
1.604,274.48175,190.87872,32.76187,-35.936943,-17.483232,38.98821
1.606,275.59515,187.98697,41.76287,-36.786957,-18.849113,38.442635
1.608,275.7626,184.40498,50.955193,-37.46314,-20.373625,37.39043
1.61,274.91565,180.24075,60.184753,-37.843567,-22.118368,35.845516
1.612,273.01837,175.60416,69.28302,-37.791813,-24.088259,33.839283
1.614,270.06546,170.6051,78.07664,-37.1736,-26.224718,31.411846
1.616,266.07245,165.36064,86.38991,-35.877655,-28.410496,28.617271
1.618,261.08206,159.98613,94.047646,-33.834393,-30.484005,25.53719
1.62,255.16663,154.58804,100.88873,-31.026884,-32.260025,22.278534
1.622,248.42604,149.25873,106.77674,-27.497437,-33.56437,18.96297
1.624,240.9802,144.07907,111.60092,-23.347727,-34.261078,15.725478
1.626,232.9625,139.12305,115.27725,-18.727486,-34.263622,12.710117
1.628,224.52124,134.44467,117.76605,-13.81879,-33.546734,10.055162
1.63,215.81172,130.08214,119.0522,-8.815506,-32.14999,7.8731823
1.632,206.9867,126.068146,119.14081,-3.909225,-30.179466,6.260496
1.634,198.19818,122.42316,118.06587,0.73142433,-27.768234,5.2634478
1.636,189.57616,119.13974,115.90259,4.9642935,-25.121819,4.9768047
1.638,181.2454,116.18788,112.757034,8.731618,-22.328709,5.2594953
1.64,173.30075,113.543396,108.76635,11.990555,-19.446651,5.893436
1.642,165.82065,111.17714,104.06896,14.665701,-16.722204,6.904107
1.644,158.85878,109.0497,98.81762,16.775293,-14.2842,8.089298
1.646,152.44865,107.12242,93.17001,18.38255,-12.212974,9.271517
1.648,146.59908,105.347534,87.269485,19.563858,-10.536274,10.259688
1.65,141.30032,103.669464,81.255516,20.401463,-9.257818,10.872208
1.652,136.53618,102.07086,75.24239,20.982147,-8.358303,10.993071
1.654,132.28136,100.5298,69.288414,21.385553,-7.787648,10.5740185
1.656,128.44481,98.996216,63.50799,21.681347,-7.473918,9.634465
1.658,124.92906,97.48446,58.063335,21.935757,-7.3246202,8.256767
1.66,121.76077,95.853516,52.996277,22.20114,-7.23993,6.570633
1.662,118.883255,94.0896,48.307816,22.51159,-7.1342373,4.7307386
1.664,116.22218,92.17096,43.91959,22.887661,-6.9388113,2.8943846
1.666,113.71193,90.09848,39.790993,23.337944,-6.5978527,1.2057123
1.668,111.29348,87.88143,35.873096,23.858303,-6.0764647,-0.21424091
1.67,108.93492,85.60077,32.184628,24.434795,-5.364541,-1.2845345
1.672,106.587265,83.26037,28.731174,25.045181,-4.476842,-1.9743059
1.674,104.20436,80.85264,25.525896,25.660234,-3.4494972,-2.2930655
1.676,101.765526,78.43225,22.478374,26.248617,-2.3257465,-2.2786798
1.678,99.25175,76.03734,19.533405,26.780838,-1.1513119,-1.9938165
1.68,96.636536,73.66261,16.717966,27.230164,0.026679039,-1.5161479
1.682,93.90066,71.30568,14.05762,27.573109,1.1671677,-0.92522573
1.684,91.095406,68.97645,11.527919,27.789217,2.2383566,-0.29237103
1.686,88.225464,66.71247,9.085936,27.863985,3.216661,0.32475471
1.688,85.2813,64.54726,6.703846,27.790346,4.086344,0.8824997
1.69,82.22928,62.513466,4.3685055,27.566751,4.840454,1.3525496
1.692,79.048325,60.69447,2.1154766,27.195688,5.4794893,1.7244649
1.694,75.77523,59.05577,-0.065849304,26.683199,6.009487,2.003097
1.696,72.40739,57.579895,-2.1852512,26.03904,6.439945,2.2019663
1.698,68.93079,56.274353,-4.244892,25.276272,6.7820616,2.337863
1.7,65.35489,55.123714,-6.243202,24.41027,7.047222,2.4276257
1.702,61.717476,54.089676,-8.166849,23.458508,7.2458687,2.48556
1.704,58.04757,53.14836,-10.011985,22.440132,7.387623,2.521161
1.706,54.359356,52.30124,-11.773412,21.373934,7.4805355,2.5382953
1.708,50.662994,51.55743,-13.44787,20.277409,7.5306377,2.5361738
1.71,46.987114,50.905487,-15.032153,19.166443,7.542776,2.511407
1.712,43.36175,50.33235,-16.52369,18.054918,7.520739,2.4600284
1.714,39.805035,49.841568,-17.924957,16.954163,7.4677515,2.3789594
1.716,36.334248,49.442795,-19.242352,15.873469,7.387458,2.2666848
1.718,32.96541,49.126274,-20.477629,14.820544,7.283308,2.1233182
1.72,29.706764,48.869442,-21.625874,13.801772,7.1590166,1.9503355
1.722,26.556288,48.656296,-22.683979,12.822229,7.0190535,1.7506008
1.724,23.510778,48.47425,-23.652437,11.885851,6.8686733,1.528127
1.726,20.573242,48.305313,-24.532873,10.99569,6.713535,1.287247
1.728,17.747507,48.133484,-25.327291,10.153854,6.5594172,1.0322316
1.73,15.032662,47.949913,-26.044157,9.361522,6.4119344,0.76731825
1.732,12.428389,47.751106,-26.698343,8.618887,6.2762294,0.49670994
1.734,9.9346285,47.535053,-27.30537,7.9251475,6.156397,0.22461319
1.736,7.551838,47.299496,-27.879467,7.278419,6.0552516,-0.04452592
1.738,5.2794523,47.045013,-28.434679,6.675667,5.9741335,-0.30585015
1.74,3.1151323,46.775455,-28.975891,6.1127305,5.912778,-0.55415833
1.742,1.0564051,46.49642,-29.51004,5.5844307,5.8692484,-0.7840882
1.744,-0.8969245,46.211666,-30.041878,5.084738,5.8399897,-0.9903078
1.746,-2.7512822,45.929585,-30.572151,4.6070757,5.819869,-1.1678795
1.748,-4.511143,45.65414,-31.100964,4.144546,5.802397,-1.3126358
1.75,-6.1809497,45.38628,-31.62746,3.6902702,5.780185,-1.4215695
1.752,-7.766417,45.127995,-32.149998,3.2377274,5.7452736,-1.493217
1.754,-9.272648,44.879925,-32.664433,2.7809834,5.68955,-1.5278504
1.756,-10.704028,44.641613,-33.16474,2.3148906,5.6052146,-1.5273197
1.758,-12.065016,44.41255,-33.64332,1.8352015,5.485122,-1.4947973
1.76,-13.359388,44.192547,-34.09065,1.3387451,5.323097,-1.4344049
1.762,-14.58931,43.980247,-34.494793,0.82365966,5.114483,-1.3508719
1.764,-15.755673,43.7743,-34.843044,0.28937864,4.8562713,-1.2490584
1.766,-16.858791,43.573586,-35.122864,-0.26336053,4.5471535,-1.1335706
1.768,-17.897982,43.3765,-35.322327,-0.8326301,4.187638,-1.00854
1.77,-18.871273,43.18064,-35.429924,-1.415407,3.7799408,-0.87754136
1.772,-19.776611,42.9833,-35.434845,-2.0077624,3.327763,-0.74373734
1.774,-20.611538,42.781017,-35.327465,-2.6050694,2.836025,-0.6098966
1.776,-21.372704,42.569378,-35.09914,-3.2021983,2.310613,-0.47865683
1.778,-22.056492,42.343536,-34.743145,-3.7937362,1.7580738,-0.35274535
1.78,-22.659662,42.09926,-34.254223,-4.3742423,1.1853609,-0.23502468
1.782,-23.17862,41.832447,-33.628872,-4.9384947,0.5995386,-0.12859419
1.784,-23.609241,41.539772,-32.865692,-5.4816823,0.00756675,-0.036870524
1.786,-23.948635,41.21868,-31.964577,-5.9995456,-0.5837784,0.036457628
1.788,-24.194765,40.867783,-30.92697,-6.4885335,-1.1679156,0.08759406
1.79,-24.345484,40.486168,-29.756166,-6.945815,-1.7385805,0.11280936
1.792,-24.40002,40.074196,-28.457722,-7.3692646,-2.28976,0.10867265
1.794,-24.358688,39.633266,-27.039774,-7.7574673,-2.8156893,0.07226923
1.796,-24.22286,39.16554,-25.512348,-8.109664,-3.3108387,0.001440376
1.798,-23.994347,38.673195,-23.886786,-8.425584,-3.769796,-0.105020046
1.8,-23.67523,38.15826,-22.175692,-8.7054,-4.187186,-0.2471751
1.802,-23.269272,37.623657,-20.39303,-8.949536,-4.5576515,-0.42396495
1.804,-22.781189,37.072422,-18.554043,-9.158589,-4.875951,-0.6331841
1.806,-22.215775,36.50723,-16.674767,-9.333237,-5.1369734,-0.8715366
1.808,-21.578232,35.930756,-14.771628,-9.474101,-5.335829,-1.134884
1.81,-20.874207,35.346256,-12.861476,-9.581742,-5.4679437,-1.4185722
1.812,-20.110136,34.75713,-10.961384,-9.656565,-5.5291758,-1.7176933
1.814,-19.292198,34.167015,-9.089169,-9.698849,-5.5159607,-2.027438
1.816,-18.425676,33.57909,-7.2616696,-9.708923,-5.4257345,-2.3431454
1.818,-17.51576,32.996643,-5.4947696,-9.687165,-5.2569537,-2.660414
1.82,-16.566872,32.423065,-3.8039908,-9.634058,-5.009215,-2.9752715
1.822,-15.582999,31.86161,-2.2033885,-9.550294,-4.6833944,-3.2842822
1.824,-14.567612,31.31529,-0.70553154,-9.436805,-4.2817483,-3.5844378
1.826,-13.523732,30.786554,0.6784803,-9.29479,-3.8078933,-3.8731062
1.828,-12.453934,30.277216,1.9396882,-9.125678,-3.2667832,-4.148211
1.83,-11.360654,29.788809,3.0706587,-8.931158,-2.6646466,-4.4081817
1.832,-10.2455845,29.322077,4.066833,-8.713201,-2.008886,-4.6518407
1.834,-9.110403,28.87783,4.92594,-8.474039,-1.3079144,-4.878393
1.836,-7.9565005,28.456553,5.647934,-8.216155,-0.57098544,-5.0874004
1.838,-6.785206,28.058645,6.2351956,-7.9422097,0.19200706,-5.2787814
1.84,-5.5980945,27.683973,6.6916895,-7.655054,0.970693,-5.452779
1.842,-4.3972015,27.331806,7.0232434,-7.35767,1.7544998,-5.6099453
1.844,-3.1845617,27.001125,7.2376575,-7.0531516,2.5329177,-5.7510414
1.846,-1.9623151,26.690495,7.3437943,-6.7446194,3.2957888,-5.8770733
1.848,-0.73262835,26.398325,7.352121,-6.4351926,4.033523,-5.989253
1.85,0.5024042,26.122185,7.2738113,-6.1278725,4.7374153,-6.088986
1.852,1.7403212,25.860016,7.121092,-5.825523,5.3998547,-6.1778336
1.854,2.9784956,25.609787,6.9061956,-5.5307417,6.0144796,-6.2574835
1.856,4.2141924,25.369263,6.640888,-5.2458835,6.576314,-6.329642
1.858,5.4442415,25.13616,6.3367167,-4.97301,7.0818624,-6.3959675
1.86,6.6651134,24.907995,6.0047755,-4.7138624,7.529073,-6.4579773
1.862,7.8735437,24.682262,5.6554747,-4.469851,7.9173,-6.5170135
1.864,9.066135,24.456553,5.2983327,-4.241991,8.247198,-6.574202
1.866,10.239251,24.228662,4.9421587,-4.0309377,8.520533,-6.630476
1.868,11.389736,23.99628,4.5946336,-3.8370075,8.739971,-6.68652
1.87,12.514193,23.757257,4.2620263,-3.660118,8.909013,-6.7428374
1.872,13.609115,23.510406,3.9495854,-3.4998953,9.031661,-6.79979
1.874,14.671466,23.254484,3.6613574,-3.3556783,9.112224,-6.8575997
1.876,15.698769,22.988228,3.400138,-3.2265728,9.155105,-6.916372
1.878,16.688457,22.710896,3.167274,-3.1115367,9.164695,-6.97612
1.88,17.63813,22.421928,2.9635806,-3.0094383,9.145301,-7.036729
1.882,18.545767,22.120995,2.7890272,-2.9190633,9.101068,-7.0979104
1.884,19.409412,21.80783,2.6428633,-2.8391254,9.035921,-7.159233
1.886,20.227482,21.482237,2.5236692,-2.7682831,8.953562,-7.220147
1.888,20.99884,21.144241,2.4296885,-2.7051475,8.857517,-7.280019
1.89,21.722498,20.793827,2.3586254,-2.648274,8.751124,-7.3381433
1.892,22.397375,20.431252,2.3076239,-2.5962296,8.637507,-7.3938003
1.894,23.02237,20.056797,2.2742443,-2.5475967,8.51958,-7.446357
1.896,23.597145,19.670397,2.25533,-2.5009766,8.39996,-7.4952807
1.898,24.12181,19.272057,2.247837,-2.4550571,8.280992,-7.540208
1.9,24.59636,18.861454,2.2488651,-2.4086418,8.164636,-7.580873
1.902,25.020756,18.438475,2.2555027,-2.3606482,8.052456,-7.6170974
1.904,25.394905,18.003117,2.265479,-2.3101344,7.9456043,-7.6487317
1.906,25.718987,17.555195,2.2762785,-2.2563417,7.8448067,-7.675682
1.908,25.993446,17.09462,2.285552,-2.1986973,7.7503166,-7.697754
1.91,26.218866,16.621466,2.2910109,-2.1367693,7.661985,-7.714689
1.912,26.395905,16.135822,2.290491,-2.0702927,7.5793004,-7.7261243
1.914,26.525501,15.63786,2.2822142,-1.9991657,7.5014715,-7.731588
1.916,26.60897,15.127813,2.2643766,-1.9234331,7.4274554,-7.730503
1.918,26.647648,14.606234,2.2355337,-1.8433069,7.3560786,-7.7221346
1.92,26.64287,14.073742,2.1943283,-1.7590826,7.2861323,-7.70572
1.922,26.596498,13.531122,2.1395855,-1.6711293,7.216448,-7.6804953
1.924,26.510365,12.979079,2.0702162,-1.5799167,7.145925,-7.645764
1.926,26.386433,12.418446,1.9855499,-1.4859577,7.0735784,-7.600912
1.928,26.226578,11.850197,1.8848886,-1.3898319,6.998525,-7.5454745
1.93,26.03299,11.275511,1.7677193,-1.2921517,6.919977,-7.4791145
1.932,25.807735,10.695654,1.6339588,-1.1935629,6.8372254,-7.4016643
1.934,25.553158,10.11201,1.483469,-1.0946984,6.7496343,-7.313144
1.936,25.271513,9.526015,1.3166494,-0.99620646,6.656622,-7.2137876
1.938,24.965237,8.939337,1.133667,-0.8986992,6.5576806,-7.104005
1.94,24.636673,8.353773,0.9351835,-0.80274844,6.4523873,-6.98439
1.942,24.288086,7.7711926,0.7215853,-0.7088972,6.3404036,-6.8556767
1.944,23.921793,7.193511,0.49349833,-0.6176294,6.221503,-6.718714
1.946,23.53992,6.6228557,0.2516427,-0.52936745,6.0956054,-6.574442
1.948,23.144445,6.061237,-0.0029969215,-0.44443065,5.962752,-6.4237494
1.95,22.737555,5.510686,-0.26943684,-0.36307588,5.8230767,-6.2674766
1.952,22.321247,4.973237,-0.5463233,-0.28549662,5.6767364,-6.1063795
1.954,21.89732,4.451091,-0.83235884,-0.21181321,5.523904,-5.9410667
1.956,21.467686,3.9462948,-1.1259389,-0.14209136,5.3646936,-5.7720275
1.958,21.03413,3.4610076,-1.4254549,-0.076377615,5.1991115,-5.5996156
1.96,20.598557,2.9973474,-1.7289572,-0.014657301,5.027094,-5.4241395
1.962,20.16266,2.557118,-2.0345037,0.043099843,4.848479,-5.245956
1.964,19.728191,2.142073,-2.339718,0.09692708,4.663033,-5.06549
1.966,19.29664,1.7538431,-2.642157,0.14685395,4.4704494,-4.8832927
1.968,18.869854,1.3938916,-2.9393206,0.19289844,4.2704196,-4.700097
1.97,18.449959,1.0634553,-3.2286997,0.23506552,4.062613,-4.5167885
1.972,18.038612,0.7636884,-3.5076907,0.27333692,3.8467157,-4.334443
1.974,17.637756,0.495242,-3.773533,0.30762944,3.6224205,-4.1542034
1.976,17.24951,0.25843483,-4.023616,0.33783612,3.3894398,-3.977262
1.978,16.875631,0.053444445,-4.255434,0.36386907,3.1475737,-3.8047986
1.98,16.518028,-0.119913936,-4.466301,0.3856262,2.8966787,-3.6379466
1.982,16.178663,-0.26220715,-4.6539354,0.40305555,2.6367047,-3.477704
1.984,15.859078,-0.37408423,-4.816079,0.41617507,2.3677514,-3.3249428
1.986,15.561054,-0.45648015,-4.9505386,0.42509526,2.090089,-3.1804016
1.988,15.286168,-0.51052535,-5.0550547,0.43001115,1.8041658,-3.0446587
1.99,15.035838,-0.5374942,-5.1278872,0.43126464,1.5106606,-2.9181623
1.992,14.811323,-0.539026,-5.1675215,0.42927063,1.210516,-2.80129
1.994,14.613856,-0.5167506,-5.17268,0.42458835,0.90495676,-2.694322
1.996,14.4444275,-0.47265053,-5.142651,0.41785806,0.5954857,-2.597481
1.998,14.303172,-0.40842795,-5.0771627,0.40976605,0.28385282,-2.5109372
2,14.1903515,-0.32612443,-4.976344,0.40103453,-0.028002739,-2.4348211
2.002,14.106126,-0.22776747,-4.840567,0.39236477,-0.33799362,-2.3692746
2.004,14.050045,-0.115107775,-4.670999,0.38442057,-0.6439544,-2.3143606
2.006,14.021454,0.01043725,-4.4687853,0.37779588,-0.94372123,-2.2700744
2.008,14.019276,0.14740539,-4.235568,0.3729679,-1.2352178,-2.2363346
2.01,14.042199,0.29463863,-3.9733958,0.37030154,-1.5165453,-2.2129369
2.012,14.088829,0.45103133,-3.6843846,0.37001452,-1.7860321,-2.199552
2.014,14.157384,0.61572015,-3.3710938,0.37217933,-2.0423255,-2.1957185
2.016,14.246033,0.7879821,-3.036109,0.37670755,-2.2844043,-2.2008123
2.018,14.352611,0.9672807,-2.682234,0.38337252,-2.5116308,-2.2140932
2.02,14.475127,1.1532162,-2.3120446,0.3918333,-2.7237272,-2.2347083
2.022,14.611488,1.3456184,-1.9283075,0.40163937,-2.9207387,-2.261742
2.024,14.75963,1.5443635,-1.5337309,0.41230288,-3.1029823,-2.294226
2.026,14.917434,1.7493558,-1.1310242,0.42331234,-3.2709355,-2.3311899
2.028,15.082728,1.9604505,-0.7228305,0.43994388,-3.426874,-2.3716922
2.03,15.253557,2.1775193,-0.3115604,0.45411628,-3.5690567,-2.4148407
2.032,15.4279375,2.4005103,0.10033035,0.46941477,-3.6990933,-2.4598317
2.034,15.603716,2.6293178,0.5110209,0.48628718,-3.8174098,-2.5059602
2.036,15.779283,2.8637168,0.918471,0.5052895,-3.9241986,-2.552648
2.038,15.953009,3.1031775,1.3210928,0.5269481,-4.0194044,-2.5994105
2.04,16.123142,3.3470886,1.7173629,0.551625,-4.102695,-2.6458466
2.042,16.288267,3.5945265,2.1056988,0.57938194,-4.1734505,-2.6916263
2.044,16.446968,3.844325,2.484893,0.6098511,-4.2308393,-2.7364564
2.046,16.597927,4.094982,2.853714,0.64226586,-4.2739105,-2.7800825
2.048,16.739708,4.3446507,3.2110145,0.6755179,-4.3017435,-2.8222845
2.05,16.871239,4.5910807,3.5559263,0.7083852,-4.3135147,-2.8628747
2.052,16.991598,4.8317637,3.887518,0.73979354,-4.308632,-2.9017432
2.054,17.099697,5.063906,4.204981,0.76909316,-4.2868323,-2.9388165
2.056,17.19463,5.2845407,4.5076227,0.7962613,-4.248285,-2.974126
2.058,17.275938,5.4904637,4.7947073,0.8219905,-4.1935806,-3.0077922
2.06,17.342937,5.6786003,5.0656633,0.84764653,-4.123653,-3.0399954
2.062,17.39527,5.845777,5.3199925,0.87508404,-4.0397243,-3.070956
2.064,17.43279,5.988835,5.5572824,0.90635735,-3.9431517,-3.100879
2.066,17.45542,6.1050615,5.7772713,0.94347024,-3.8353071,-3.129868
2.068,17.462996,6.191845,5.9799967,0.9881234,-3.717476,-3.1578915
2.07,17.455858,6.247345,6.1654553,1.0415608,-3.590797,-3.1847284
2.072,17.434523,6.270101,6.3339386,1.1045221,-3.456219,-3.20991
2.074,17.399506,6.259434,6.485477,1.1772406,-3.3145347,-3.2327259
2.076,17.351707,6.215232,6.620778,1.2595043,-3.1664267,-3.2521853
2.078,17.292002,6.1379604,6.7404547,1.350755,-3.0124917,-3.267071
2.08,17.221373,6.0288496,6.8452277,1.4501724,-2.853311,-3.2759879
2.082,17.14119,5.8897767,6.9359536,1.553383,-2.6884522,-3.2774353
2.084,17.052504,5.723389,7.013456,1.6673809,-2.5209103,-3.2699146
2.086,16.956701,5.5329785,7.0788865,1.7854984,-2.3496754,-3.252022
2.088,16.855385,5.3222494,7.1332006,1.9066881,-2.1754155,-3.222524
2.09,16.75001,5.095244,7.177325,2.0298288,-1.9987364,-3.1804366
2.092,16.641954,4.856327,7.2121086,2.1538317,-1.820169,-3.125123
2.094,16.532907,4.609967,7.2384768,2.2776976,-1.6401324,-3.0563197
2.096,16.423912,4.360858,7.2570515,2.4005735,-1.4589629,-2.9741955
2.098,16.31624,4.113347,7.2682786,2.5217936,-1.276866,-2.8793333
2.1,16.21087,3.8719172,7.272619,2.640894,-1.0939658,-2.7727108
2.102,16.10867,3.6407542,7.270414,2.7576027,-0.9103084,-2.6556463
2.104,16.010254,3.4235797,7.261797,2.8718219,-0.7259606,-2.5297163
2.106,15.915933,3.2237637,7.246954,2.9835868,-0.5410181,-2.3966436
2.108,15.826031,3.0441144,7.225849,3.0930133,-0.35565698,-2.2582257
2.11,15.740319,2.887091,7.198412,3.2002459,-0.17018223,-2.1162274
2.112,15.658714,2.7544494,7.164193,3.3054357,0.0149457455,-1.972333
2.114,15.580751,2.6475744,7.123049,3.4086652,0.19907182,-1.8280507
2.116,15.506329,2.5672455,7.0747156,3.509953,0.3813821,-1.6846681
2.118,15.434781,2.5137255,7.0189543,3.6092408,0.5609132,-1.5432291
2.12,15.365351,2.4869764,6.95557,3.7063918,0.7365797,-1.404523
2.122,15.296897,2.4865031,6.8842487,3.80119,0.90722775,-1.2691014
2.124,15.228532,2.511469,6.8048406,3.8933759,1.0717005,-1.137305
2.126,15.159273,2.5609252,6.7170486,3.982631,1.2288678,-1.0093356
2.128,15.0879345,2.6337838,6.620707,4.0686216,1.3776977,-0.88527197
2.13,15.0132065,2.7288637,6.51551,4.1510086,1.5172815,-0.7651131
2.132,14.934017,2.8448434,6.401412,4.229447,1.6468575,-0.648836
2.134,14.849278,2.9804463,6.278479,4.303609,1.7658105,-0.5364044
2.136,14.758171,3.1342778,6.1469603,4.3731837,1.873677,-0.42777932
2.138,14.659992,3.3049188,6.0070653,4.4378543,1.9701335,-0.32290888
2.14,14.554315,3.4908888,5.859169,4.4973335,2.0549407,-0.22173703
2.142,14.440639,3.6905842,5.7037573,4.551305,2.1279135,-0.12423915
2.144,14.319016,3.90243,5.541186,4.5994253,2.1888938,-0.030376434
2.146,14.18942,4.1245623,5.372382,4.641343,2.2377424,0.059877932
2.148,14.052191,4.3552465,5.198119,4.6767263,2.2742991,0.14646655
2.15,13.907857,4.5926304,5.0195503,4.7052236,2.2983398,0.22930557
2.152,13.757026,4.834959,4.837945,4.726502,2.3095586,0.30829638
2.154,13.600611,5.0803986,4.6545963,4.740223,2.3076036,0.38333768
2.156,13.439713,5.3270473,4.470948,4.74609,2.2921207,0.45428836
2.158,13.275575,5.57317,4.2887077,4.743875,2.2627888,0.5209759
2.16,13.1093025,5.8169794,4.109507,4.7334285,2.2193608,0.58321375
2.162,12.942316,6.056605,3.935116,4.7147293,2.1617684,0.6408067
2.164,12.776147,6.290331,3.767512,4.687906,2.0901384,0.69355863
2.166,12.612165,6.5164833,3.608393,4.653243,2.0048232,0.74131656
2.168,12.45154,6.733623,3.459729,4.6112065,1.9064152,0.7840014
2.17,12.295509,6.940385,3.3232472,4.5624375,1.7957363,0.8216381
2.172,12.145098,7.1356883,3.2005603,4.5076847,1.6738154,0.85438293
2.174,12.001322,7.3186,3.0931087,4.447785,1.5418205,0.88253856
2.176,11.864988,7.4881372,3.002195,4.383608,1.4010538,0.90656734
2.178,11.736697,7.6440487,2.928709,4.316017,1.2528663,0.9270382
2.18,11.616886,7.78597,2.8734715,4.2458234,1.0986414,0.9446405
2.182,11.505882,7.913898,2.8367777,4.173762,0.9397341,0.9601001
2.184,11.4036045,8.02801,2.8189478,4.10045,0.777452,0.9741216
2.186,11.30993,8.128704,2.819769,4.0264277,0.6130198,0.9873689
2.188,11.224459,8.216698,2.8388276,3.9519343,0.44684833,1.0016944
2.19,11.146768,8.292719,2.8755383,3.8776498,0.28093243,1.0158153
2.192,11.076167,8.35771,2.9290583,3.8037562,0.11564833,1.03089
2.194,11.012101,8.412675,2.99842,3.7305412,-0.04834435,1.0472172
2.196,10.9538555,8.45863,3.082395,3.6582472,-0.2105509,1.0649699
2.198,10.900536,8.496557,3.179888,3.587084,-0.37060618,1.0841756
2.2,10.851188,8.527507,3.2894912,3.5171916,-0.5282498,1.1047195
2.202,10.805183,8.552439,3.4099092,3.448655,-0.6832735,1.126356
2.204,10.761572,8.572216,3.5398264,3.3815374,-0.83543015,1.1486516
2.206,10.719688,8.587431,3.6779325,3.3158894,-0.98443055,1.170999
2.208,10.678723,8.598927,3.822959,3.2517343,-1.1299175,1.1926514
2.21,10.637996,8.60685,3.9736397,3.189094,-1.2715026,1.212848
2.212,10.597014,8.611601,4.128919,3.1279743,-1.4087512,1.230887
2.214,10.555247,8.613383,4.2875814,3.068403,-1.5412309,1.2462115
2.216,10.512371,8.612293,4.4486756,3.010405,-1.6685425,1.258486
2.218,10.467912,8.608121,4.611305,2.954008,-1.7903173,1.2675952
2.22,10.421741,8.600748,4.7746253,2.8992596,-1.9062362,1.2736719
2.222,10.373232,8.590064,4.9379096,2.8462102,-2.0160007,1.2770429
2.224,10.322363,8.57578,5.100196,2.7949157,-2.1193495,1.2781575
2.226,10.268438,8.557664,5.260748,2.7454605,-2.216024,1.277523
2.228,10.211434,8.53558,5.41863,2.6979256,-2.30574,1.2756689
2.23,10.15131,8.509466,5.573162,2.6524107,-2.3882327,1.2730621
2.232,10.088162,8.479312,5.723832,2.6090138,-2.463243,1.27011
2.234,10.021958,8.445059,5.869863,2.5678222,-2.530557,1.2671405
2.236,9.952727,8.406663,6.010714,2.5289106,-2.5900013,1.2644444
2.238,9.880628,8.364167,6.1458693,2.4923313,-2.641503,1.2622628
2.24,9.805626,8.317587,6.274846,2.4580681,-2.6850736,1.2608272
2.242,9.72787,8.267115,6.397191,2.4261963,-2.720415,1.2595963
2.244,9.647366,8.213028,6.512517,2.396315,-2.748803,1.2605938
2.246,9.564039,8.155773,6.620557,2.3684676,-2.7698796,1.2628218
2.248,9.477902,8.095858,6.721152,2.3424313,-2.7841096,1.2664976
2.25,9.388924,8.033721,6.814074,2.317954,-2.7920346,1.2718318
2.252,9.297182,7.9700484,6.8993206,2.294739,-2.7942688,1.2789721
2.254,9.202613,7.9054465,6.976837,2.2724748,-2.7914972,1.2880552
2.256,9.105179,7.8405285,7.0466323,2.2508435,-2.7844357,1.2991567
2.258,9.004986,7.7759933,7.108833,2.2295427,-2.7738361,1.3123085
2.26,8.902029,7.7123528,7.163654,2.2082787,-2.7604408,1.327481
2.262,8.796394,7.6503034,7.211398,2.186802,-2.745004,1.3446186
2.264,8.688128,7.5902987,7.2524734,2.164894,-2.7282293,1.3636321
2.266,8.577276,7.5329833,7.2873015,2.1423872,-2.7107592,1.3843938
2.268,8.4639845,7.47867,7.316363,2.119152,-2.6931553,1.4067256
2.27,8.348729,7.4275885,7.3401675,2.0950959,-2.6758814,1.4304415
2.272,8.231555,7.38004,7.3592467,2.0701668,-2.6592834,1.455353
2.274,8.112927,7.336121,7.3740225,2.0443406,-2.6435862,1.4812235
2.276,7.99329,7.296014,7.385069,2.0176246,-2.6289012,1.5078112
2.278,7.8730855,7.2597055,7.392796,1.9900591,-2.6152227,1.5348787
2.28,7.752865,7.2270293,7.397761,1.9616969,-2.6024542,1.5621926
2.282,7.633363,7.1978426,7.400425,1.932623,-2.5904257,1.5894923
2.284,7.515131,7.171834,7.401313,1.9029288,-2.578908,1.6165766
2.286,7.398894,7.1489277,7.4008484,1.8727055,-2.5676613,1.6432583
2.288,7.2854223,7.12852,7.39956,1.8420353,-2.5564423,1.6694067
2.29,7.1753926,7.1102877,7.397923,1.81098,-2.5450616,1.6949224
2.292,7.0694876,7.093824,7.3964043,1.7795795,-2.5333593,1.7197518
2.294,6.968505,7.078723,7.395487,1.747836,-2.521243,1.7438648
2.296,6.8730607,7.064537,7.3957286,1.7156992,-2.5086713,1.7672576
2.298,6.783667,7.0507894,7.3975053,1.6830909,-2.4956322,1.7899299
2.3,6.700715,7.037108,7.4013376,1.6499302,-2.4821458,1.8118585
2.302,6.624533,7.0231504,7.4076056,1.6161213,-2.4682484,1.8330257
2.304,6.5552406,7.008551,7.416749,1.5815793,-2.4539838,1.8533894
2.306,6.4928255,6.993038,7.4291744,1.5462792,-2.4393735,1.8728815
2.308,6.437407,6.9765253,7.4453106,1.5102304,-2.4243972,1.891387
2.31,6.3888125,6.958808,7.4655204,1.4734902,-2.409016,1.9087907
2.312,6.346636,6.9397783,7.490098,1.4361817,-2.3931367,1.9249758
2.314,6.310464,6.919199,7.5192485,1.3984871,-2.3766193,1.939824
2.316,6.2796874,6.897089,7.553113,1.360635,-2.3592536,1.9532313
2.318,6.2536755,6.8733764,7.591806,1.3228747,-2.3407874,1.9650965
2.32,6.231681,6.8481007,7.635449,1.2854654,-2.320937,1.9753729
2.322,6.212644,6.8214145,7.683711,1.2486466,-2.299401,1.9840486
2.324,6.1956105,6.7934237,7.736628,1.2126532,-2.2758505,1.99116
2.326,6.179518,6.764449,7.7938533,1.177671,-2.2499654,1.9967555
2.328,6.1633644,6.7348533,7.8549733,1.1438568,-2.2214556,2.0009396
2.33,6.1458907,6.705024,7.919468,1.1113027,-2.190068,2.0038369
2.332,6.1262326,6.67525,7.9868555,1.0800599,-2.155596,2.0055964
2.334,6.103151,6.6459727,8.05653,1.0501299,-2.117927,2.006397
2.336,6.075818,6.617646,8.127759,1.0214528,-2.0770302,2.0064409
2.338,6.0432386,6.5907164,8.200012,0.99392855,-2.032959,2.0059323
2.34,6.004796,6.5656233,8.272606,0.9674118,-1.9858453,2.0050855
2.342,5.9597135,6.542795,8.34484,0.9417063,-1.9359485,2.0040925
2.344,5.9077244,6.5225353,8.416192,0.9165646,-1.8836105,2.0031564
2.346,5.848542,6.505094,8.486138,0.8916757,-1.8292706,2.0024674
2.348,5.7820864,6.4905353,8.55419,0.86670375,-1.773422,2.0021653
2.35,5.708643,6.478989,8.619988,0.84129775,-1.7165959,2.0023086
2.352,5.628415,6.470364,8.683237,0.8150971,-1.6593349,2.002846
2.354,5.5419703,6.464351,8.743812,0.7877742,-1.602109,2.003603
2.356,5.450078,6.460541,8.801589,0.7590546,-1.5453198,2.004283
2.358,5.3537817,6.4584146,8.85655,0.7287574,-1.4892364,2.004466
2.36,5.2540298,6.4575043,8.908893,0.696789,-1.4340107,2.003656
2.362,5.151829,6.457062,8.958777,0.66318405,-1.3796518,2.0013406
2.364,5.0487647,6.4561357,9.006402,0.6280878,-1.3260235,1.9970167
2.366,4.946027,6.4542027,9.052095,0.5917388,-1.2728913,1.9902577
2.368,4.844885,6.4503856,9.096254,0.5544534,-1.2199236,1.9807698
2.37,4.7467384,6.443878,9.139141,0.51658607,-1.1667196,1.9684179
2.372,4.6527977,6.4337754,9.181062,0.47849095,-1.1128303,1.9532257
2.374,4.5644426,6.4193497,9.222404,0.44050196,-1.0577823,1.9353622
2.376,4.482789,6.3999386,9.263454,0.40290794,-1.0011001,1.9151342
2.378,4.408816,6.3749747,9.3044815,0.36591822,-0.94232666,1.8929167
2.38,4.343233,6.344187,9.345688,0.32969797,-0.8810352,1.8691422
2.382,4.2869716,6.3072057,9.387191,0.29434085,-0.81681025,1.8442352
2.384,4.2404237,6.263837,9.42907,0.25991362,-0.74931264,1.8185792
2.386,4.2041273,6.213879,9.47139,0.22644545,-0.6782515,1.7925078
2.388,4.178248,6.157544,9.514032,0.19394779,-0.60339487,1.7662888
2.39,4.162898,6.094978,9.556929,0.16242458,-0.5246053,1.7401255
2.392,4.157925,6.026574,9.599903,0.13187456,-0.44183075,1.7141564
2.394,4.16315,5.9528537,9.642652,0.102271855,-0.35509807,1.6885281
2.396,4.178374,5.8742523,9.6849575,0.07360036,-0.26450956,1.663345
2.398,4.2030067,5.7914944,9.726386,0.045822658,-0.17022392,1.6386361
2.4,4.2365685,5.7052426,9.766711,0.018884528,-0.07244007,1.6144285
2.402,4.2783484,5.6162624,9.805538,-0.00729442,0.028589837,1.5907638
2.404,4.3278246,5.525372,9.842512,-0.032833945,0.13258556,1.5676886
2.406,4.38408,5.4334145,9.8771105,-0.05786469,0.23924333,1.5452598
2.408,4.4465747,5.3412266,9.909058,-0.08254208,0.34822106,1.5235292
2.41,4.5145593,5.249674,9.937946,-0.107005216,0.45920074,1.5025371
2.412,4.5870805,5.1596212,9.96344,-0.13140824,0.57182693,1.4823135
2.414,4.663431,5.071927,9.985121,-0.1558954,0.68577445,1.4628862
2.416,4.742736,4.9873385,10.002547,-0.18059865,0.80069214,1.4442416
2.418,4.8240547,4.906647,10.015413,-0.2056366,0.9162224,1.426365
2.42,4.9065933,4.8307185,10.023485,-0.23110336,1.0320103,1.409218
2.422,4.989376,4.760308,10.026416,-0.25710166,1.1476829,1.3927534
2.424,5.071825,4.6963634,10.024018,-0.28371036,1.2628596,1.376926
2.426,5.1531343,4.639512,10.016148,-0.31100217,1.3771515,1.3617024
2.428,5.23266,4.5904183,10.002658,-0.33905387,1.4901607,1.3470474
2.43,5.3096313,4.5498066,9.983317,-0.3679436,1.6014618,1.3329352
2.432,5.3835382,4.5179996,9.958319,-0.39774236,1.7106489,1.3193735
2.434,5.4538927,4.4954953,9.927634,-0.42853475,1.8173245,1.3063719
2.436,5.5201616,4.4825974,9.891195,-0.4603817,1.9211031,1.2939167
2.438,5.582171,4.47943,9.8493,-0.49334073,2.021626,1.2820001
2.44,5.639582,4.486148,9.8022175,-0.52744704,2.118588,1.2705764
2.442,5.6921587,4.5028477,9.750161,-0.5627094,2.2117467,1.2595631
2.444,5.7397346,4.5294065,9.693508,-0.5991075,2.3009274,1.2488581
2.446,5.782239,4.565641,9.632719,-0.6366086,2.386022,1.2383422
2.448,5.81975,4.6112614,9.568079,-0.67513496,2.4669862,1.227829
2.45,5.8521805,4.665719,9.500107,-0.7146105,2.5438724,1.217173
2.452,5.880082,4.728489,9.429241,-0.7549404,2.6167781,1.2062583
2.454,5.903447,4.799199,9.355957,-0.79600805,2.6858482,1.1949602
2.456,5.9225626,4.877136,9.2808075,-0.83771026,2.7512884,1.1831686
2.458,5.937879,4.9615335,9.204169,-0.87991816,2.8133488,1.1708125
2.46,5.9498987,5.051587,9.126507,-0.9225174,2.8722835,1.1578437
2.462,5.958888,5.1464977,9.048476,-0.96539575,2.9283667,1.1442561
2.464,5.965415,5.245525,8.970293,-1.0084584,2.9818602,1.1300514
2.466,5.969956,5.347919,8.892445,-1.0516126,3.0330234,1.1152616
2.468,5.972864,5.452865,8.815366,-1.0947876,3.0820985,1.0999203
2.47,5.9746623,5.559544,8.739334,-1.1379275,3.1293066,1.0840806
2.472,5.975992,5.6672416,8.664689,-1.1810038,3.1748524,1.0678152
2.474,5.9770975,5.775573,8.591909,-1.2240093,3.2188962,1.0512096
2.476,5.978691,5.8835964,8.521121,-1.2669485,3.26158,1.0343578
2.478,5.9810276,5.9909086,8.452516,-1.3098578,3.3030136,1.0173483
2.48,5.984607,6.0970306,8.386363,-1.3527863,3.3432965,1.0002935
2.482,5.9898067,6.201679,8.322855,-1.395796,3.382495,0.9832908
2.484,5.996833,6.304508,8.262117,-1.4389521,3.4206758,0.9664189
2.486,6.005992,6.405246,8.204322,-1.4823027,3.4578846,0.94973266
2.488,6.017578,6.5038195,8.149519,-1.5259054,3.4941468,0.93326783
2.49,6.03179,6.6000476,8.097803,-1.5697923,3.5295115,0.9170475
2.492,6.0487943,6.69396,8.049309,-1.6139758,3.5640392,0.9010805
2.494,6.0686603,6.7855797,8.004078,-1.6584514,3.5977776,0.8853667
2.496,6.091481,6.875033,7.962064,-1.7032075,3.6307878,0.8698965
2.498,6.1174383,6.962335,7.9232845,-1.7482067,3.663155,0.8546605
2.5,6.1463604,7.0477414,7.8876357,-1.7934191,3.6949756,0.83965963
2.502,6.17842,7.1313086,7.855094,-1.8387973,3.7263525,0.8249195
2.504,6.2134085,7.213263,7.825503,-1.8843088,3.757381,0.81046236
2.506,6.2511516,7.2938805,7.7987404,-1.9299269,3.7881584,0.79634094
2.508,6.291821,7.3733444,7.774724,-1.9756385,3.8187678,0.78261864
2.51,6.3349786,7.451934,7.753171,-2.0214276,3.8492913,0.76935995
2.512,6.380462,7.5298786,7.7339196,-2.0672967,3.8797903,0.7566156
2.514,6.42813,7.607319,7.716678,-2.113247,3.910335,0.74442124
2.516,6.4778295,7.68448,7.701296,-2.1592672,3.9409661,0.7327869
2.518,6.5290813,7.7615547,7.687481,-2.205336,3.9717371,0.7216986
2.52,6.5816326,7.838715,7.674977,-2.2513928,4.0026875,0.7110946
2.522,6.63532,7.916007,7.663454,-2.297359,4.0338435,0.7008982
2.524,6.689601,7.9937105,7.652707,-2.3431213,4.0652514,0.6909983
2.526,6.744251,8.071834,7.642415,-2.388546,4.0969357,0.6812568
2.528,6.79887,8.150386,7.6322575,-2.4334717,4.128925,0.67155266
2.53,6.853009,8.229489,7.622012,-2.4777403,4.161242,0.6617593
2.532,6.9065433,8.30912,7.6114006,-2.521172,4.1938963,0.6517782
2.534,6.958954,8.3892565,7.600135,-2.5636215,4.2268763,0.64151603
2.536,7.010083,8.4699,7.587988,-2.6049495,4.2601857,0.6309219
2.538,7.059468,8.551052,7.5747538,-2.6450377,4.293806,0.6199639
2.54,7.106861,8.632679,7.5602784,-2.6838055,4.3277082,0.60863525
2.542,7.1520386,8.714712,7.544368,-2.7211838,4.361872,0.596949
2.544,7.194534,8.797058,7.526756,-2.7571192,4.3962593,0.5849286
2.546,7.2343454,8.879588,7.50745,-2.7915797,4.430854,0.5726146
2.548,7.27103,8.962282,7.4862146,-2.8245268,4.465626,0.56004965
2.55,7.304474,9.044985,7.4629765,-2.855921,4.5005484,0.54727834
2.552,7.3345184,9.127619,7.437637,-2.8857298,4.535612,0.5343501
2.554,7.3611016,9.210049,7.4100857,-2.9139,4.5708065,0.52130127
2.556,7.384021,9.2922945,7.380248,-2.9403944,4.606113,0.50816834
2.558,7.40315,9.374228,7.3481297,-2.9651775,4.6415205,0.4949997
2.56,7.4185987,9.455809,7.313601,-2.9882207,4.677017,0.48184282
2.562,7.430005,9.537064,7.2767305,-3.0095315,4.712594,0.4687482
2.564,7.4375906,9.617803,7.2374396,-3.0291157,4.748225,0.455786
2.566,7.4413,9.697969,7.195703,-3.0470076,4.783877,0.44303656
2.568,7.441185,9.777419,7.1516237,-3.0632634,4.819497,0.43057382
2.57,7.4372387,9.856062,7.1051006,-3.0779538,4.855027,0.41847873
2.572,7.4297495,9.933586,7.056031,-3.0911474,4.890384,0.4068408
2.574,7.4187937,10.009836,7.004608,-3.102931,4.925478,0.3957423
2.576,7.4044504,10.084414,6.950821,-3.1133733,4.9602156,0.38526022
2.578,7.3868856,10.157037,6.8945203,-3.1225455,4.9944954,0.37545705
2.58,7.3663716,10.227421,6.835917,-3.1304975,5.0282135,0.36637294
2.582,7.3430643,10.295036,6.774992,-3.1372557,5.061276,0.35801804
2.584,7.317254,10.359357,6.7116113,-3.142829,5.093601,0.35039055
2.586,7.289149,10.420065,6.6459723,-3.147201,5.125098,0.34345257
2.588,7.2591896,10.476509,6.5780907,-3.1503332,5.1557055,0.33714354
2.59,7.227548,10.5281515,6.5080285,-3.1521764,5.185342,0.3313992
2.592,7.194655,10.574493,6.435744,-3.1526709,5.213928,0.32615256
2.594,7.1606655,10.614985,6.3613744,-3.1517637,5.241379,0.32133985
2.596,7.1259284,10.649118,6.2848425,-3.1494124,5.2676067,0.3169092
2.598,7.0907125,10.676401,6.2063327,-3.1455898,5.292503,0.3128177
2.6,7.055357,10.696435,6.1259403,-3.1403208,5.3159523,0.30903792
2.602,7.019868,10.708932,6.043602,-3.1336432,5.3378477,0.3055811
2.604,6.9846106,10.713718,5.9592595,-3.1256473,5.3580585,0.30247867
2.606,6.9496527,10.710607,5.8731484,-3.1164417,5.376462,0.29974937
2.608,6.914975,10.699624,5.7852306,-3.1061683,5.3929377,0.29742622
2.61,6.8808093,10.680796,5.695486,-3.0949845,5.4073653,0.29554677
2.612,6.847004,10.65432,5.6038527,-3.0830545,5.4196243,0.2941141
2.614,6.813567,10.620346,5.51035,-3.0705395,5.4296026,0.29314363
2.616,6.780407,10.579343,5.4148903,-3.0575786,5.437214,0.29262137
2.618,6.747367,10.531643,5.3173046,-3.044323,5.4423776,0.29252195
2.62,6.714278,10.477777,5.2175374,-3.030877,5.445032,0.29282856
2.622,6.680974,10.418219,5.115463,-3.0173275,5.445116,0.29352927
2.624,6.6470175,10.353598,5.0109825,-3.0037613,5.4425774,0.29460597
2.626,6.6122313,10.284454,4.903924,-2.9902358,5.43735,0.29603577
2.628,6.5763144,10.211358,4.7942157,-2.9768023,5.4293923,0.29779553
2.63,6.538844,10.134832,4.681672,-2.9634926,5.418603,0.2998675
2.632,6.499605,10.0554495,4.5662937,-2.9503343,5.404894,0.30223167
2.634,6.4582906,9.973684,4.4478455,-2.9373536,5.3881583,0.30485523
2.636,6.4144983,9.890048,4.3263264,-2.9245949,5.3682675,0.3077066
2.638,6.367996,9.804924,4.20167,-2.9120882,5.3450747,0.31075132
2.64,6.3185244,9.7186,4.07381,-2.8998673,5.318424,0.31396985
2.642,6.265786,9.631368,3.9428449,-2.8879664,5.2881546,0.31734657
2.644,6.209501,9.543548,3.8087633,-2.8764446,5.2541175,0.320863
2.646,6.149578,9.455368,3.6717181,-2.8653555,5.216151,0.3245163
2.648,6.0860386,9.366851,3.5319352,-2.8547347,5.174119,0.32832217
2.65,6.0186834,9.278125,3.3895087,-2.8446462,5.127878,0.3322866
2.652,5.9475317,9.189235,3.2446718,-2.8351374,5.077333,0.33643436
2.654,5.8727684,9.100254,3.0978081,-2.8262367,5.0223985,0.34076786
2.656,5.794294,9.011073,2.949199,-2.8179858,4.9630156,0.34527528
2.658,5.7122936,8.9218,2.7992215,-2.8103988,4.899167,0.3499472
2.66,5.6272006,8.832266,2.648253,-2.8034897,4.8308353,0.35476995
2.662,5.5389614,8.742429,2.4968038,-2.7972543,4.758049,0.35970414
2.664,5.447871,8.652294,2.3453438,-2.7916784,4.6808643,0.3647188
2.666,5.354309,8.561641,2.194337,-2.786737,4.599356,0.36977804
2.668,5.2586594,8.47042,2.0443487,-2.7823985,4.513605,0.3748331
2.67,5.161161,8.378578,1.8958502,-2.778625,4.42372,0.37986362
2.672,5.06248,8.285913,1.749275,-2.7753687,4.329828,0.38483524
2.674,4.962748,8.192415,1.6051631,-2.7725897,4.2320623,0.38972127
2.676,4.8624177,8.098035,1.4640326,-2.7702327,4.130581,0.39450884
2.678,4.761778,8.002781,1.3262987,-2.768248,4.0255632,0.3991735
2.68,4.661237,7.906513,1.1925094,-2.7665792,3.9171925,0.40371048
2.682,4.5610943,7.8093796,1.0630736,-2.7651744,3.8056672,0.40812087
2.684,4.461513,7.711278,0.9384358,-2.7639813,3.6912215,0.4123832
2.686,4.362979,7.612292,0.8189266,-2.7629364,3.5741,0.4164883
2.688,4.265601,7.5123577,0.7050755,-2.76196,3.4545565,0.4204136
2.69,4.1696644,7.4114313,0.5971441,-2.7609637,3.3328726,0.42410696
2.692,4.075147,7.3097334,0.49544024,-2.7598593,3.2093515,0.42752898
2.694,3.9822204,7.207247,0.40038705,-2.758541,3.0843086,0.4306116
2.696,3.8909893,7.103921,0.31213474,-2.756883,2.9580736,0.43330848
2.698,3.8014388,6.999918,0.2309401,-2.7547457,2.8309832,0.43557703
2.7,3.713674,6.895173,0.15703869,-2.751989,2.7034113,0.4373814
2.702,3.6275783,6.789634,0.09060764,-2.7484598,2.5757103,0.43870538
2.704,3.5432608,6.6833534,0.031619072,-2.7439895,2.448278,0.43955588
2.706,3.4606476,6.576211,-0.019717932,-2.7384048,2.321513,0.43994892
2.708,3.3796844,6.468129,-0.063516855,-2.7315228,2.1958334,0.43990922
2.71,3.3000236,6.359235,-0.09971118,-2.7231495,2.0716515,0.4394747
2.712,3.2218866,6.249177,-0.12843657,-2.7131083,1.9493886,0.4386642
2.714,3.1449344,6.1379128,-0.14960027,-2.7012272,1.8294617,0.4375071
2.716,3.0692332,6.0253973,-0.16362023,-2.6873224,1.7122633,0.43601906
2.718,2.994656,5.9114957,-0.17055607,-2.6712348,1.5981556,0.4341939
2.72,2.9210422,5.796087,-0.17049718,-2.6528378,1.4874659,0.43204233
2.722,2.848247,5.679083,-0.1637404,-2.6320052,1.3805028,0.4295639
2.724,2.7762535,5.560479,-0.15050602,-2.6086361,1.2775152,0.42673695
2.726,2.7048624,5.4401035,-0.1311183,-2.5826633,1.1787319,0.4235495
2.728,2.6337354,5.31822,-0.10567522,-2.554019,1.0843565,0.4199921
2.73,2.5631156,5.1945953,-0.07457352,-2.522662,0.99455106,0.4160528
2.732,2.4927523,5.069311,-0.038169622,-2.4885633,0.90946233,0.41173533
2.734,2.4224079,4.9425683,0.0032873154,-2.4517238,0.8292228,0.40704662
2.736,2.3520489,4.814373,0.049512863,-2.41214,0.7539456,0.40201312
2.738,2.2816598,4.6849513,0.10011387,-2.3698328,0.6837183,0.3966748
2.74,2.211244,4.5545306,0.15479648,-2.3248456,0.618611,0.3911001
2.742,2.1405077,4.4233418,0.21320832,-2.277228,0.558686,0.38536915
2.744,2.0695047,4.2915983,0.27509546,-2.227055,0.50397205,0.37958497
2.746,1.9981217,4.159754,0.340119,-2.1744037,0.4544775,0.37384278
2.748,1.926421,4.0281496,0.40787387,-2.1193695,0.4101778,0.36825722
2.75,1.8543746,3.897087,0.4780357,-2.0620582,0.37102318,0.3629257
2.752,1.781856,3.7670174,0.5502243,-2.0025816,0.33694583,0.35794038
2.754,1.7090796,3.6382384,0.62423706,-1.9410653,0.30784163,0.35338295
2.756,1.6360066,3.5111508,0.6996069,-1.877621,0.28359497,0.3493184
2.758,1.5626018,3.3862543,0.77597713,-1.8123809,0.2640471,0.34579462
2.76,1.4890922,3.263785,0.8531525,-1.7454867,0.2490247,0.34283775
2.762,1.415521,3.1441674,0.93079984,-1.6770701,0.23833491,0.34046307
2.764,1.3420279,3.0275984,1.0085088,-1.6072704,0.23177892,0.33865988
2.766,1.2687203,2.9145703,1.0860027,-1.5362126,0.22915252,0.33740437
2.768,1.1958362,2.805066,1.1629274,-1.4640435,0.23022941,0.3366484
2.77,1.1232775,2.6992898,1.23899,-1.390915,0.2347996,0.33634245
2.772,1.0513982,2.5974376,1.3138278,-1.3169609,0.24264535,0.33641705
2.774,0.9803575,2.499598,1.3871915,-1.242313,0.2535569,0.3367867
2.776,0.9102444,2.4058676,1.458857,-1.1671147,0.2673395,0.33736134
2.778,0.8411568,2.316193,1.5284905,-1.0914743,0.2838195,0.33804977
2.78,0.77329034,2.2305956,1.5960336,-1.0155017,0.302843,0.3387676
2.782,0.70664257,2.14893,1.6612513,-0.93928796,0.3242774,0.33942327
2.784,0.64141464,2.071149,1.7239413,-0.862917,0.34801137,0.33994508
2.786,0.57781297,1.9970747,1.7838405,-0.78645504,0.37394744,0.34027994
2.788,0.51596344,1.9265656,1.8409023,-0.7099499,0.4020131,0.34038243
2.79,0.4557853,1.8593526,1.8948474,-0.6334585,0.43214035,0.34023046
2.792,0.39744267,1.7952899,1.9455881,-0.5570371,0.46427685,0.33982062
2.794,0.34106013,1.7342716,1.9929609,-0.48073113,0.49835575,0.33916345
2.796,0.28658825,1.6759902,2.0369005,-0.40461427,0.53429973,0.33828685
2.798,0.2340978,1.6204764,2.0771735,-0.32874635,0.57202905,0.3372333
2.8,0.18363136,1.5674986,2.1137755,-0.25322178,0.6114431,0.33604595
2.802,0.13527854,1.5167938,2.146697,-0.1781378,0.6524199,0.33479017
2.804,0.08896164,1.4682798,2.1757998,-0.10361383,0.69480693,0.33352268
2.806,0.04464007,1.4218887,2.2010996,-0.029778348,0.7384199,0.33229762
2.808,0.0023899525,1.3774368,2.2227108,0.043223355,0.783059,0.33116716
2.81,-0.037871107,1.3348714,2.2405274,0.115230784,0.8285023,0.33017132
2.812,-0.07618049,1.2941225,2.25465,0.18609653,0.8745217,0.32933226
2.814,-0.11252232,1.2550839,2.2653403,0.2556752,0.9208796,0.32865754
2.816,-0.1470553,1.2176769,2.2725217,0.32382697,0.9673604,0.3281212
2.818,-0.17976601,1.1818609,2.276442,0.39044595,1.0137539,0.32766718
2.82,-0.2106434,1.1473937,2.277106,0.45544416,1.0598745,0.32723522
2.822,-0.23983839,1.1144925,2.274867,0.51877296,1.1055763,0.32672673
2.824,-0.26741478,1.0828955,2.2697654,0.5804081,1.1507381,0.32603586
2.826,-0.29350454,1.0526769,2.2620857,0.6403505,1.1952761,0.32505357
2.828,-0.318203,1.0237049,2.2519648,0.6986283,1.2391353,0.32367224
2.83,-0.34157604,0.99608266,2.2395127,0.7552709,1.282266,0.3218026
2.832,-0.36364883,0.9698243,2.2250495,0.8103121,1.3246516,0.31940392
2.834,-0.384601,0.9448339,2.2086313,0.8637924,1.3662542,0.3164379
2.836,-0.40446097,0.9212179,2.190468,0.9157288,1.4070554,0.31291488
2.838,-0.42318454,0.8988256,2.1705222,0.9661351,1.4470185,0.30889624
2.84,-0.4411748,0.87793934,2.149065,1.0150042,1.4860896,0.3044502
2.842,-0.458346,0.8585057,2.1262681,1.062298,1.5242031,0.29968333
2.844,-0.47473627,0.8405262,2.102112,1.1079687,1.5612768,0.29471278
2.846,-0.49050668,0.8242169,2.0766554,1.151963,1.5972072,0.2896598
2.848,-0.5058362,0.8096118,2.0500464,1.1942042,1.6318797,0.28461844
2.85,-0.5207465,0.79675066,2.0224164,1.2346264,1.665173,0.27968132
2.852,-0.5353741,0.78587323,1.9937185,1.273149,1.6969601,0.27490175
2.854,-0.5496565,0.7769898,1.9640695,1.3097224,1.7271062,0.27031648
2.856,-0.5637784,0.7702429,1.933612,1.3442881,1.755477,0.26592976
2.858,-0.5778927,0.7656338,1.902385,1.3768252,1.7819549,0.26173168
2.86,-0.59194493,0.76333094,1.870475,1.4073142,1.8064245,0.2577042
2.862,-0.60602343,0.7633692,1.8380159,1.4357544,1.8287911,0.25382
2.864,-0.6202949,0.76577663,1.805006,1.4621477,1.848969,0.25004858
2.866,-0.63471663,0.7704563,1.771697,1.4865079,1.8668829,0.24637222
2.868,-0.6493157,0.77741104,1.7381868,1.5088568,1.8824818,0.24276519
2.87,-0.6640616,0.78660274,1.7045295,1.5292187,1.8957291,0.2392289
2.872,-0.679131,0.79786384,1.6709417,1.5476247,1.9066105,0.23576224
2.874,-0.69443387,0.8111361,1.6375508,1.5640881,1.9151192,0.23234159
2.876,-0.7099596,0.82610863,1.6045631,1.5786587,1.9212748,0.22896719
2.878,-0.72578907,0.84267884,1.5721614,1.5913781,1.9251024,0.22561389
2.88,-0.7418364,0.86067814,1.5404712,1.6022986,1.9266517,0.22225565
2.882,-0.75804675,0.8798621,1.5096154,1.6114858,1.9259608,0.2188462
2.884,-0.77459025,0.9000145,1.4797031,1.6190189,1.9230955,0.2153439
2.886,-0.7912772,0.9209591,1.450838,1.6249831,1.9181207,0.2116887
2.888,-0.80817664,0.94253397,1.423202,1.6294671,1.9111154,0.2078411
2.89,-0.82515675,0.9644424,1.3967264,1.6325579,1.9021544,0.20377815
2.892,-0.8422946,0.9866662,1.3715943,1.6343335,1.8913074,0.19948035
2.894,-0.8595505,1.0089405,1.3478587,1.6348675,1.8786621,0.19498771
2.896,-0.8769835,1.0311818,1.3256557,1.6342243,1.8643078,0.1903466
2.898,-0.894518,1.0532935,1.304951,1.632456,1.8483309,0.18562567
2.9,-0.9120402,1.0752251,1.2858633,1.6295873,1.8308178,0.18091387
2.902,-0.9296314,1.0968376,1.2683561,1.6256448,1.8118572,0.17631102
2.904,-0.94724137,1.1180083,1.2524067,1.6206532,1.7915208,0.17190152
2.906,-0.964978,1.138766,1.2380685,1.6146356,1.7698772,0.16775274
2.908,-0.98279816,1.1589998,1.2253087,1.6076142,1.7469954,0.16390216
2.91,-1.0007768,1.1787238,1.2140704,1.5996245,1.7229362,0.16037303
2.912,-1.0188646,1.197959,1.2043824,1.5907054,1.697758,0.1571526
2.914,-1.0370259,1.2167068,1.196236,1.5809151,1.6714975,0.15421957
2.916,-1.0554105,1.2349677,1.1896095,1.5703267,1.6441977,0.15154004
2.918,-1.0739596,1.2527952,1.1843722,1.5590003,1.6159053,0.1490787
2.92,-1.0928442,1.270171,1.1805719,1.5470067,1.5866572,0.14680162
2.922,-1.1120365,1.2870653,1.1781614,1.5344146,1.5564942,0.14470309
2.924,-1.1316075,1.3035349,1.1770103,1.521289,1.5254505,0.14276421
2.926,-1.1515095,1.3196093,1.1772316,1.5076791,1.4935484,0.14100498
2.928,-1.171943,1.335309,1.1788026,1.4936506,1.4608188,0.13946041
2.93,-1.1928803,1.3507137,1.181669,1.4792271,1.427285,0.13816467
2.932,-1.2144315,1.3657358,1.1857979,1.4644443,1.3929683,0.13716054
2.934,-1.2366502,1.3804805,1.191285,1.4493413,1.357901,0.13648736
2.936,-1.2596427,1.3950161,1.198045,1.4339513,1.3221129,0.13619402
2.938,-1.283252,1.4093328,1.2060605,1.41831,1.2856311,0.13630363
2.94,-1.3076756,1.4234604,1.2153138,1.4024616,1.2485001,0.13684249
2.942,-1.3327074,1.4374677,1.2257894,1.3864576,1.2107813,0.1378279
2.944,-1.3585867,1.4515159,1.2375004,1.3703568,1.1725292,0.13926613
2.946,-1.38526,1.4656472,1.2504151,1.354223,1.1338115,0.1411747
2.948,-1.4126512,1.4799415,1.2645955,1.3381165,1.0947108,0.14355049
2.95,-1.4406887,1.4945055,1.2798281,1.3220952,1.0552866,0.14639908
2.952,-1.4693677,1.5095583,1.2960912,1.3062253,1.0156262,0.14973632
2.954,-1.4986231,1.5250782,1.3133523,1.2905608,0.97582793,0.1535669
2.956,-1.5283538,1.5412195,1.3315816,1.2751434,0.93596935,0.15790519
2.958,-1.5583546,1.5580348,1.3506591,1.2600147,0.89613545,0.16275883
2.96,-1.588741,1.5758092,1.37045,1.2452044,0.856398,0.16813248
2.962,-1.6192603,1.5944889,1.3909396,1.2307453,0.8168088,0.17401332
2.964,-1.6498721,1.6142501,1.4120902,1.2166454,0.77741146,0.18039593
2.966,-1.6804256,1.6351185,1.4336338,1.2029133,0.738213,0.18726182
2.968,-1.7108341,1.6573675,1.4556202,1.1895329,0.69922405,0.19458494
2.97,-1.7410203,1.6810048,1.4779344,1.1764929,0.6604127,0.20233443
2.972,-1.7708539,1.7061626,1.5004566,1.1637765,0.6217312,0.21048997
2.974,-1.8001814,1.7328374,1.5231929,1.1513397,0.58311284,0.21901815
2.976,-1.8291018,1.7613448,1.546027,1.1391377,0.54447067,0.2278858
2.978,-1.8573549,1.7916237,1.5688804,1.127113,0.50572056,0.23707186
2.98,-1.8850205,1.8237572,1.5917875,1.11522,0.46678606,0.2465543
2.982,-1.9118116,1.8578542,1.614711,1.1033976,0.42757267,0.25629562
2.984,-1.9378012,1.8939294,1.6376498,1.0916054,0.38800886,0.26626766
2.986,-1.9629796,1.9320223,1.6605313,1.0798001,0.3480342,0.27643114
2.988,-1.9871743,1.9722323,1.6834159,1.0679414,0.30759862,0.28673285
2.99,-2.0103772,2.0144825,1.7063242,1.0559992,0.26667175,0.29710126
2.992,-2.0325768,2.0586169,1.729423,1.0439626,0.22524023,0.30747652
2.994,-2.0537176,2.1047132,1.7526803,1.0318307,0.18331647,0.3177874
2.996,-2.0738745,2.152611,1.7761843,1.019605,0.14092137,0.32796955
2.998,-2.0929089,2.2023132,1.7999024,1.0073073,0.09809678,0.3379431
3,-2.1109946,2.2537546,1.8240364,0.99494445,0.05488944,0.3476481
3.002,-2.127978,2.3068006,1.8486001,0.9825458,0.01134463,0.3570441
3.004,-2.1438658,2.361366,1.8736818,0.9701458,-0.03246617,0.36609483
3.006,-2.1587582,2.4173973,1.8993003,0.9577563,-0.076484896,0.37478387
3.008,-2.1726604,2.4747603,1.9255888,0.9454049,-0.120659776,0.38310713
3.01,-2.1856163,2.5333998,1.9525778,0.93310606,-0.16492791,0.39105803
3.012,-2.1976612,2.593199,1.9804282,0.9208608,-0.20924604,0.39863625
3.014,-2.2087374,2.6540306,2.0091164,0.90867394,-0.2535601,0.40586346
3.016,-2.2189102,2.7158155,2.0386357,0.8965461,-0.29782677,0.4127467
3.018,-2.2282047,2.778453,2.0691893,0.8844833,-0.3420135,0.4192709
3.02,-2.2367544,2.8418984,2.1008039,0.8724711,-0.38608274,0.42545035
3.022,-2.244494,2.905951,2.133463,0.8605248,-0.43000206,0.4312766
3.024,-2.2516627,2.9704814,2.1672485,0.8486356,-0.4737591,0.43672585
3.026,-2.2581553,3.0354433,2.2022343,0.8368211,-0.51733655,0.44176945
3.028,-2.2640858,3.1006303,2.2384667,0.8250899,-0.56071395,0.44637358
3.03,-2.269431,3.166077,2.2760377,0.8134527,-0.60387534,0.4504987
3.032,-2.2742198,3.2315955,2.3150012,0.8019402,-0.646801,0.45409983
3.034,-2.2785914,3.297128,2.3553483,0.79056656,-0.68945974,0.45713365
3.036,-2.2825394,3.3625114,2.397125,0.7793631,-0.7318138,0.45956594
3.038,-2.286014,3.4276736,2.4403095,0.7683503,-0.77382237,0.4613601
3.04,-2.2891383,3.4924119,2.4850101,0.75755477,-0.81542706,0.46250477
3.042,-2.291832,3.5566878,2.5311837,0.74701405,-0.8565546,0.463006
3.044,-2.2941768,3.6204014,2.57877,0.73676074,-0.89713824,0.4628832
3.046,-2.296169,3.6833196,2.6278815,0.7268156,-0.9371021,0.46215448
3.048,-2.297923,3.745502,2.6785479,0.71720505,-0.9763933,0.4608626
3.05,-2.299306,3.806743,2.730669,0.70795536,-1.014936,0.45904624
3.052,-2.3005257,3.8668747,2.7842984,0.69908166,-1.0526493,0.45674345
3.054,-2.3012197,3.9258528,2.8393767,0.6906027,-1.0894644,0.45398304
3.056,-2.3016007,3.98351,2.895881,0.682532,-1.1253209,0.450785
3.058,-2.3016415,4.0397725,2.9537592,0.6748841,-1.1601511,0.44715413
3.06,-2.3012588,4.094548,3.01307,0.66769487,-1.193896,0.44306442
3.062,-2.3004348,4.147721,3.0737903,0.66099024,-1.2264922,0.43849772
3.064,-2.299165,4.1992393,3.13582,0.6548211,-1.2578913,0.43341973
3.066,-2.297486,4.2489433,3.1991975,0.649228,-1.2880323,0.42779744
3.068,-2.29531,4.2967763,3.2638743,0.6442667,-1.3168726,0.42158645
3.07,-2.2926795,4.3426237,3.3298385,0.6399795,-1.3443784,0.41477144
3.072,-2.2893503,4.3863635,3.3970437,0.63640964,-1.3705072,0.40735626
3.074,-2.2855387,4.428095,3.4654255,0.63359284,-1.3952178,0.39932853
3.076,-2.2811532,4.4675937,3.5350182,0.63154495,-1.4184811,0.39071667
3.078,-2.276129,4.504862,3.6057591,0.63028866,-1.4402474,0.38157624
3.08,-2.2705865,4.5398445,3.6776552,0.62982637,-1.460484,0.37195224
3.082,-2.2644672,4.5725465,3.7505567,0.6301717,-1.4791625,0.3619017
3.084,-2.2576742,4.6028953,3.8244095,0.63131475,-1.4962462,0.35147476
3.086,-2.2503426,4.630867,3.8991303,0.6332455,-1.5117035,0.3407249
3.088,-2.2425413,4.6565394,3.9747274,0.63596475,-1.5255127,0.3296982
3.09,-2.234167,4.679869,4.0510087,0.6394693,-1.5376371,0.3184471
3.092,-2.2254798,4.7008533,4.1278105,0.6437524,-1.5480592,0.3069988
3.094,-2.2164457,4.719546,4.2050476,0.6488192,-1.5567659,0.29536432
3.096,-2.2070332,4.7359324,4.282595,0.6546616,-1.5637422,0.283557
3.098,-2.197381,4.749998,4.360247,0.661276,-1.568974,0.2715869
3.1,-2.1875954,4.761904,4.4379025,0.66865754,-1.5724587,0.25946236
3.102,-2.17772,4.7716637,4.5152216,0.6767976,-1.5741919,0.24718493
3.104,-2.1677125,4.779249,4.5921903,0.68568456,-1.5741789,0.23475993
3.106,-2.1577332,4.784797,4.6685486,0.69530714,-1.5724349,0.22220254
3.108,-2.1480148,4.7882833,4.7442374,0.7056494,-1.568969,0.20953107
3.11,-2.1384797,4.789735,4.8189306,0.71667695,-1.5637984,0.19676208
3.112,-2.129247,4.789183,4.892465,0.7283522,-1.5569619,0.18393552
3.114,-2.1204197,4.786722,4.96472,0.7406434,-1.548491,0.17109412
3.116,-2.112003,4.782411,5.035552,0.75350994,-1.5384216,0.1582706
3.118,-2.104125,4.7762785,5.1047783,0.7669103,-1.5267925,0.14550978
3.12,-2.0967913,4.768357,5.172296,0.7808062,-1.5136588,0.1328491
3.122,-2.0901175,4.7587237,5.2379236,0.79515105,-1.4990678,0.12032014
3.124,-2.0840766,4.7474656,5.3016114,0.80991644,-1.4830716,0.107955754
3.126,-2.0786433,4.7347994,5.3633575,0.8250654,-1.4657362,0.09577155
3.128,-2.0738494,4.720683,5.422925,0.8405595,-1.447139,0.08379269
3.13,-2.0696929,4.7052283,5.480239,0.85636795,-1.4273422,0.07203448
3.132,-2.0661464,4.688578,5.535346,0.8724368,-1.4064189,0.060507894
3.134,-2.0631182,4.6708083,5.5881577,0.8887246,-1.3844415,0.04922384
3.136,-2.0606358,4.6520004,5.6386194,0.905182,-1.361484,0.038184643
3.138,-2.0586622,4.6322865,5.6867146,0.9217684,-1.3376302,0.027388692
3.14,-2.0571022,4.6116667,5.732437,0.93843013,-1.3129433,0.016835809
3.142,-2.0559127,4.5902762,5.775788,0.9551126,-1.2874877,0.0065145493
3.144,-2.0549593,4.568121,5.8168135,0.9717537,-1.2613474,-0.0035777092
3.146,-2.0542922,4.5454845,5.855493,0.9883172,-1.2345866,-0.013438404
3.148,-2.0536394,4.522332,5.891899,1.0047404,-1.2072738,-0.02305317
3.15,-2.052933,4.498827,5.9260974,1.0209563,-1.1795084,-0.03241229
3.152,-2.0521128,4.4749956,5.9581213,1.0369174,-1.1513824,-0.041493773
3.154,-2.0509262,4.450951,5.9880614,1.052567,-1.1229995,-0.050264537
3.156,-2.0494416,4.4268093,6.015954,1.0678397,-1.0944595,-0.058691144
3.158,-2.047426,4.402557,6.0418377,1.0826802,-1.0658876,-0.06674659
3.16,-2.0449169,4.378358,6.0658636,1.0970166,-1.0373974,-0.07440299
3.162,-2.0417385,4.3542,6.0881014,1.1107943,-1.0091045,-0.08163941
3.164,-2.037901,4.330137,6.1086774,1.1239469,-0.98112404,-0.08845121
3.166,-2.0332978,4.3062797,6.1277323,1.1364155,-0.9535561,-0.09485507
3.168,-2.027919,4.2826276,6.145377,1.1481347,-0.9265106,-0.10087034
3.17,-2.0216696,4.259057,6.1617303,1.1590502,-0.9000895,-0.106538504
3.172,-2.0146077,4.2356005,6.176919,1.169116,-0.8743854,-0.11192125
3.174,-2.0066633,4.2122893,6.191121,1.1782985,-0.84947324,-0.117105246
3.176,-1.9978117,4.189127,6.204422,1.1865847,-0.8254242,-0.12216398
3.178,-1.9881738,4.1660414,6.2170916,1.1939586,-0.8022841,-0.12719446
3.18,-1.977596,4.1429048,6.2291446,1.2004355,-0.7800872,-0.1322825
3.182,-1.966457,4.1198463,6.2408524,1.2060403,-0.75883687,-0.13749981
3.184,-1.9546088,4.0966015,6.252225,1.2107911,-0.7385309,-0.14291427
3.186,-1.9421571,4.0732865,6.2634196,1.2147218,-0.7191383,-0.14856327
3.188,-1.929226,4.049824,6.274535,1.2178631,-0.7006061,-0.15444866
3.19,-1.9158441,4.0261955,6.2855577,1.2202283,-0.6828612,-0.1605441
3.192,-1.9021634,4.002411,6.296745,1.2218217,-0.66583395,-0.1668044
3.194,-1.8884115,3.97861,6.3080435,1.2226424,-0.6494648,-0.17316961
3.196,-1.8744228,3.9546788,6.319482,1.222671,-0.6336778,-0.17955531
3.198,-1.8604442,3.9306836,6.331027,1.2218778,-0.61840534,-0.18589099
3.2,-1.8465776,3.9067307,6.3427596,1.2202151,-0.6036089,-0.19211069
3.202,-1.8328447,3.8828828,6.3547454,1.2176452,-0.58926916,-0.19816679
3.204,-1.81931,3.8591108,6.3669004,1.2141321,-0.57536244,-0.20402038
3.206,-1.806103,3.8355522,6.379224,1.2096325,-0.56189466,-0.20966019
3.208,-1.7933193,3.8122268,6.391663,1.204117,-0.54887843,-0.21511132
3.21,-1.7810227,3.789189,6.404191,1.1975676,-0.53633356,-0.2203938
3.212,-1.7691737,3.7664428,6.41678,1.1899841,-0.5242517,-0.22554657
3.214,-1.7578999,3.7440138,6.4292927,1.1813916,-0.5126425,-0.23061898
3.216,-1.7471844,3.7218642,6.4416995,1.1718051,-0.5014874,-0.23567759
3.218,-1.7369329,3.7000182,6.4539266,1.1612898,-0.49074334,-0.24076954
3.22,-1.7272516,3.6785145,6.4659357,1.149909,-0.48035294,-0.24593547
3.222,-1.7182086,3.657181,6.477702,1.1377462,-0.47024006,-0.25120863
3.224,-1.7095261,3.6359773,6.4890723,1.1249009,-0.4603135,-0.2566244
3.226,-1.7013984,3.6149008,6.5000706,1.111474,-0.45046347,-0.26219046
3.228,-1.6937587,3.59385,6.51058,1.0975797,-0.44058686,-0.26788333
3.23,-1.6865605,3.5728214,6.5206394,1.0833193,-0.43057695,-0.27368325
3.232,-1.6795995,3.5516372,6.5300717,1.0687954,-0.42034262,-0.27954742
3.234,-1.6730231,3.5302138,6.539072,1.0540953,-0.409806,-0.28540674
3.236,-1.6668011,3.5084224,6.5474167,1.0392874,-0.39893508,-0.29118997
3.238,-1.6607089,3.4863093,6.5552177,1.0244255,-0.3877015,-0.29682982
3.24,-1.6547865,3.4637318,6.5624967,1.0095391,-0.37611395,-0.3022682
3.242,-1.6490287,3.4407425,6.5691833,0.99461627,-0.36420262,-0.30745882
3.244,-1.6433113,3.4173024,6.5753927,0.97964835,-0.3520112,-0.3123787
3.246,-1.6376419,3.3934133,6.5811634,0.96461666,-0.339591,-0.31702566
3.248,-1.6319838,3.3691373,6.5864916,0.94947517,-0.32699615,-0.32139796
3.25,-1.6263417,3.3445342,6.591399,0.93418896,-0.3142946,-0.32553118
3.252,-1.620586,3.3196502,6.5959973,0.9187107,-0.30154294,-0.3294376
3.254,-1.6147636,3.29451,6.6002707,0.90301156,-0.2887733,-0.3331318
3.256,-1.6087574,3.2692304,6.604327,0.88706994,-0.27600014,-0.33661902
3.258,-1.6027635,3.2439682,6.608222,0.8708782,-0.26323053,-0.33989722
3.26,-1.5966718,3.2187617,6.6119456,0.8544363,-0.25046018,-0.34293664
3.262,-1.5904939,3.1938589,6.6155567,0.8377496,-0.2376622,-0.34569648
3.264,-1.5842323,3.169253,6.6191587,0.8208501,-0.22480948,-0.34812617
3.266,-1.5777836,3.1450517,6.62269,0.80376965,-0.21187618,-0.350181
3.268,-1.5712329,3.1213758,6.626208,0.7865349,-0.19881761,-0.3518337
3.27,-1.5644581,3.0983028,6.629776,0.7692033,-0.18559319,-0.35305253
3.272,-1.5575984,3.0758848,6.633242,0.75181276,-0.17218405,-0.35383898
3.274,-1.5505805,3.0542262,6.6367407,0.7344068,-0.15857184,-0.35421252
3.276,-1.5432489,3.0332181,6.640087,0.71703845,-0.14474618,-0.35421503
3.278,-1.5357791,3.012957,6.64346,0.69975877,-0.1307086,-0.35388058
3.28,-1.528125,2.99337,6.6467075,0.68261427,-0.11647849,-0.35326648
3.282,-1.5203456,2.9744408,6.6497774,0.66564786,-0.10208322,-0.3524489
3.284,-1.5123148,2.9560218,6.652671,0.6489094,-0.08754629,-0.3514945
3.286,-1.5041819,2.938179,6.6553507,0.6324296,-0.07289398,-0.35044676
3.288,-1.4958946,2.9207768,6.657727,0.616235,-0.05816546,-0.34936154
3.29,-1.4875268,2.903731,6.6598487,0.6003467,-0.043385163,-0.34827113
3.292,-1.4789231,2.8870077,6.6616125,0.5847697,-0.028573334,-0.3471746
3.294,-1.4702595,2.8706768,6.663031,0.56950104,-0.013772622,-0.34606326
3.296,-1.4614755,2.854629,6.66408,0.5545368,0.0009885579,-0.3449157
3.298,-1.452636,2.8388846,6.664729,0.5398397,0.015679628,-0.34368652
3.3,-1.4436888,2.8235521,6.6650295,0.52537745,0.030273244,-0.34232807
3.302,-1.4347194,2.808566,6.664859,0.51112604,0.044734836,-0.3408014
3.304,-1.4256052,2.7940435,6.664254,0.497048,0.059033945,-0.3390533
3.306,-1.4165816,2.7800393,6.663233,0.48311305,0.073129036,-0.33704197
3.308,-1.4074414,2.7666295,6.6618047,0.46927866,0.086987555,-0.33472416
3.31,-1.3981862,2.7540016,6.6600056,0.45551628,0.10056873,-0.33207405
3.312,-1.3890364,2.7422218,6.6577215,0.44179493,0.11384284,-0.32907754
3.314,-1.3798425,2.7314234,6.6550827,0.42808193,0.12680003,-0.32573798
3.316,-1.370672,2.7216892,6.6519756,0.41436478,0.13943172,-0.3220653
3.318,-1.3613367,2.71322,6.648476,0.40062776,0.15174067,-0.3180991
3.32,-1.3519423,2.705984,6.6445713,0.38687527,0.16375361,-0.31388587
3.322,-1.3424519,2.7000914,6.6403527,0.3731295,0.17549448,-0.30948597
3.324,-1.33287,2.6955996,6.6357794,0.35941827,0.18699877,-0.30496687
3.326,-1.3231877,2.6925128,6.630905,0.34578112,0.19831233,-0.30040568
3.328,-1.3133711,2.6907334,6.6256456,0.3322825,0.20948,-0.29588568
3.33,-1.3034787,2.6902575,6.620146,0.31895834,0.22053353,-0.29147217
3.332,-1.2934389,2.691098,6.614257,0.30585676,0.23151566,-0.28722355
3.334,-1.283433,2.6931381,6.6080546,0.29301614,0.2424442,-0.28317824
3.336,-1.2733195,2.6962247,6.6015177,0.28046337,0.2533364,-0.27934104
3.338,-1.2631974,2.700324,6.5947485,0.26819053,0.2641979,-0.27570897
3.34,-1.2530487,2.7054179,6.5876503,0.25619024,0.2750141,-0.27226582
3.342,-1.2429936,2.7115028,6.5803413,0.24442701,0.28578213,-0.2689721
3.344,-1.2328718,2.718425,6.5726423,0.23285818,0.29647434,-0.26578373
3.346,-1.222743,2.7260861,6.5647144,0.22143003,0.30704302,-0.2626665
3.348,-1.2128439,2.7345002,6.5565233,0.21008326,0.3174668,-0.25958344
3.35,-1.2029694,2.743595,6.548113,0.19875614,0.32770017,-0.25649792
3.352,-1.1932038,2.7533116,6.5394835,0.18739522,0.3376967,-0.25337735
3.354,-1.1836312,2.763624,6.5306234,0.17593461,0.34740877,-0.2502166
3.356,-1.1742039,2.7744768,6.5215755,0.16432887,0.3567976,-0.24699304
3.358,-1.1648933,2.7857916,6.512458,0.15253657,0.36583513,-0.24370387
3.36,-1.1558225,2.797515,6.5031824,0.140534,0.37449583,-0.24035735
3.362,-1.1470366,2.8097064,6.493786,0.12830049,0.38276458,-0.23696662
3.364,-1.1384888,2.8221896,6.484316,0.115831114,0.3906458,-0.23355642
3.366,-1.130218,2.834868,6.474822,0.10314166,0.3981582,-0.23015368
3.368,-1.1222297,2.847721,6.4652176,0.090264365,0.40532196,-0.22679207
3.37,-1.114505,2.860736,6.4556093,0.07721824,0.41217354,-0.22352147
3.372,-1.1071372,2.8737946,6.4460206,0.06404457,0.41876715,-0.22037795
3.374,-1.1000788,2.8868573,6.436302,0.050785713,0.42514694,-0.21738857
3.376,-1.0933611,2.8998973,6.426605,0.037481546,0.43137056,-0.21456768
3.378,-1.0870862,2.91286,6.4169474,0.02417238,0.43748307,-0.21192181
3.38,-1.0812739,2.925677,6.407243,0.010899072,0.44353235,-0.20942853
3.382,-1.0758294,2.9383578,6.3975344,-0.0023249537,0.449552,-0.20705171
3.384,-1.0708909,2.950738,6.3878126,-0.015481751,0.45557895,-0.20475085
3.386,-1.0665079,2.9629264,6.3781424,-0.028575376,0.4616112,-0.20247023
3.388,-1.0626104,2.974796,6.3683963,-0.041607343,0.46767578,-0.2001608
3.39,-1.0591911,2.9864402,6.3586636,-0.05459346,0.47377157,-0.19778366
3.392,-1.0562366,2.9977093,6.3489056,-0.06753792,0.47988817,-0.19530211
3.394,-1.0538765,3.008665,6.3391786,-0.08045168,0.48602182,-0.1926942
3.396,-1.0520868,3.0191813,6.3293777,-0.09333572,0.49216086,-0.18996766
3.398,-1.0507201,3.0293055,6.319592,-0.10618052,0.4982972,-0.18712656
3.4,-1.04995,3.0390706,6.3098497,-0.118961394,0.5044219,-0.18419558
3.402,-1.0497998,3.0483902,6.3000536,-0.13165726,0.5105241,-0.18119124
3.404,-1.0500225,3.057254,6.2902913,-0.14423676,0.5166063,-0.17813826
3.406,-1.0508759,3.0657587,6.280499,-0.1566643,0.52267134,-0.17505446
3.408,-1.0521016,3.0738816,6.270707,-0.16890985,0.52874184,-0.17194584
3.41,-1.0536816,3.0815334,6.26093,-0.1809554,0.5348402,-0.16882022
3.412,-1.0557052,3.0889387,6.2511587,-0.19279173,0.5409745,-0.16566011
3.414,-1.0580584,3.0959098,6.241378,-0.20441462,0.5471694,-0.16244899
3.416,-1.0606471,3.1026196,6.231614,-0.21582514,0.55344194,-0.15916161
3.418,-1.0635622,3.1090531,6.221762,-0.22703806,0.5598092,-0.15576497
3.42,-1.0666869,3.1152651,6.2117953,-0.23807073,0.5662674,-0.15223147
3.422,-1.0697932,3.1213498,6.2018433,-0.24894086,0.5728208,-0.14853984
3.424,-1.0729795,3.1273446,6.191769,-0.2596428,0.5794703,-0.14466935
3.426,-1.0761098,3.1333196,6.181608,-0.27019346,0.5862189,-0.14062053
3.428,-1.0792093,3.1393504,6.1713715,-0.28058717,0.5930742,-0.13639094
3.43,-1.0821806,3.1455824,6.1609945,-0.29082286,0.60004807,-0.13199858
3.432,-1.0850589,3.1520581,6.150483,-0.30088794,0.60715073,-0.12745294
3.434,-1.0876768,3.1588778,6.1398144,-0.31077677,0.61439455,-0.12277344
3.436,-1.0900745,3.166166,6.128997,-0.3204723,0.6218035,-0.11798149
3.438,-1.0921586,3.1739898,6.1180153,-0.32996744,0.62938607,-0.11308536
3.44,-1.0938809,3.1824272,6.106842,-0.33925992,0.63715065,-0.10810262
3.442,-1.0951968,3.1915293,6.0954943,-0.348354,0.64508766,-0.10304585
3.444,-1.0962012,3.2012892,6.0839844,-0.35725388,0.65318704,-0.09791866
3.446,-1.0969017,3.2118516,6.0722585,-0.36598396,0.66143936,-0.09273356
3.448,-1.0971591,3.2232103,6.060313,-0.3745515,0.66981936,-0.08750188
3.45,-1.0970876,3.2352517,6.048219,-0.38298577,0.6782926,-0.082230926
3.452,-1.0966945,3.248016,6.035984,-0.39130652,0.68683743,-0.07695404
3.454,-1.096096,3.2615485,6.023658,-0.3995353,0.6954236,-0.07170257
3.456,-1.0951606,3.275857,6.0111837,-0.40767258,0.7040196,-0.06651169
3.458,-1.093915,3.290834,5.998644,-0.4157313,0.71259594,-0.06142342
3.46,-1.092534,3.306537,5.985983,-0.42371407,0.72112983,-0.056478202
3.462,-1.0908647,3.3228931,5.9733334,-0.4316019,0.72958195,-0.051697075
3.464,-1.0890357,3.339881,5.9606957,-0.43939194,0.73793167,-0.04710737
3.466,-1.0870739,3.3575473,5.948082,-0.44707313,0.7461814,-0.042725503
3.468,-1.08496,3.3758662,5.93552,-0.45463967,0.7543094,-0.038550735
3.47,-1.0826951,3.394813,5.9230766,-0.46208683,0.7623032,-0.034568906
3.472,-1.0804209,3.4143288,5.9107237,-0.46942827,0.77016157,-0.030752718
3.474,-1.0779686,3.4346232,5.898505,-0.47667405,0.77788997,-0.027078092
3.476,-1.0754256,3.4555697,5.886408,-0.48384055,0.7855053,-0.023510247
3.478,-1.0728166,3.477242,5.8745384,-0.4909528,0.79302263,-0.020017028
3.48,-1.0701826,3.4996722,5.8628397,-0.49802965,0.80045265,-0.01656574
3.482,-1.0675318,3.5228884,5.8513265,-0.50509167,0.80782354,-0.013137102
3.484,-1.0647945,3.5469673,5.84002,-0.5121332,0.8151708,-0.0097028315
3.486,-1.0620718,3.571904,5.828866,-0.51917577,0.8225263,-0.006265074
3.488,-1.0592321,3.5977116,5.8177466,-0.5262059,0.8299252,-0.0028205812
3.49,-1.0564096,3.6244326,5.806771,-0.5332157,0.83739364,0.00063192844
