Time_s_,Acc_x_m_s_2_,Acc_y_m_s_2_,Acc_z_m_s_2_,Gyro_x_1_s_,Gyro_y_1_s_,Gyro_z_1_s_
0,0.14522634,-0.05340198,0.17706081,-0.091027215,-0.21786791,-0.087076455
0.002,0.15595183,-0.06875419,0.15477036,-0.08989885,-0.22405154,-0.089121506
0.004,0.16396254,-0.08347368,0.1334189,-0.08877039,-0.23164363,-0.09131316
0.006,0.16897765,-0.097370125,0.11343822,-0.087692276,-0.24097812,-0.09364535
0.008,0.17044362,-0.11019916,0.094918005,-0.08674321,-0.25242633,-0.09611723
0.01,0.1678761,-0.12177126,0.078194976,-0.0860174,-0.2663834,-0.09875163
0.012,0.16088115,-0.13176732,0.06361872,-0.08562803,-0.283229,-0.101604655
0.014,0.14894332,-0.13999507,0.05148207,-0.0857095,-0.3033216,-0.10477178
0.016,0.1315581,-0.14605515,0.042274978,-0.086383134,-0.32693675,-0.108379304
0.018,0.10833918,-0.14972761,0.036491677,-0.087758064,-0.35423398,-0.112577856
0.02,0.0788479,-0.15065616,0.034435652,-0.08991733,-0.38520506,-0.117531344
0.022,0.042866435,-0.14868714,0.036376256,-0.09288703,-0.419658,-0.123415835
0.024,0.00010945648,-0.14350304,0.042717077,-0.096644476,-0.45722213,-0.13040215
0.026,-0.049500868,-0.13499352,0.05373878,-0.10110833,-0.49736685,-0.1386284
0.028,-0.105854005,-0.12311966,0.069670275,-0.10617274,-0.5400146,-0.14831305
0.03,-0.16874462,-0.10775228,0.09081875,-0.11169231,-0.58371747,-0.15930995
0.032,-0.23778209,-0.0890038,0.117360696,-0.117495224,-0.6277808,-0.17156866
0.034,-0.31246293,-0.06692679,0.14941733,-0.123423845,-0.67150426,-0.1849725
0.036,-0.39208335,-0.041631818,0.18702109,-0.12934496,-0.7142281,-0.19933927
0.038,-0.47575277,-0.013458371,0.22986469,-0.13515067,-0.7553548,-0.21442616
0.04,-0.56263113,0.01743871,0.27762178,-0.14076608,-0.7943374,-0.22994035
0.042,-0.65170455,0.050677717,0.32984015,-0.14613193,-0.8307105,-0.24556933
0.044,-0.741804,0.08588669,0.38603717,-0.15120265,-0.86409116,-0.2609939
0.046,-0.83156204,0.12263265,0.44563448,-0.15595928,-0.89417744,-0.27590394
0.048,-0.91961473,0.16051707,0.5080488,-0.16039792,-0.92076373,-0.2900356
0.05,-1.0047531,0.19899523,0.5724962,-0.16449395,-0.94373685,-0.30315477
0.052,-1.0858021,0.23778403,0.63830805,-0.16822162,-0.96304876,-0.3151223
0.054,-1.1615674,0.27655888,0.70452416,-0.17153835,-0.9787457,-0.3258636
0.056,-1.231505,0.31499267,0.7701126,-0.17439342,-0.9909345,-0.3353666
0.058,-1.293917,0.35265565,0.8346821,-0.17670017,-0.9997208,-0.34365165
0.06,-1.3479967,0.38936448,0.8973295,-0.17835215,-1.0051924,-0.3507559
0.062,-1.3930236,0.4247843,0.9570682,-0.17921111,-1.0074073,-0.35672683
0.064,-1.4282445,0.45888603,1.0129744,-0.17910865,-1.0063624,-0.3615806
0.066,-1.4531671,0.49149394,1.064212,-0.17784673,-1.0019814,-0.36531538
0.068,-1.4673648,0.5226638,1.1097937,-0.17521319,-0.99409485,-0.3678706
0.07,-1.4705732,0.5524785,1.1490474,-0.17099783,-0.9824718,-0.36913702
0.072,-1.4625282,0.5808385,1.1810567,-0.16498834,-0.966831,-0.36898434
0.074,-1.4430642,0.60774404,1.2049448,-0.15699428,-0.94689053,-0.36725485
0.076,-1.41223,0.6332276,1.2199786,-0.14685997,-0.92236453,-0.36375162
0.078,-1.3700687,0.6573576,1.2255093,-0.13446313,-0.8930118,-0.35827973
0.08,-1.3166363,0.6803172,1.2209009,-0.119761676,-0.85870373,-0.35065427
0.082,-1.2522413,0.70208013,1.2057868,-0.1027545,-0.8194474,-0.34070116
0.084,-1.1774194,0.7227019,1.1802065,-0.08353308,-0.7754368,-0.328298
0.086,-1.0928352,0.74233127,1.1440563,-0.062250674,-0.7270405,-0.31335557
0.088,-0.999244,0.76115745,1.0974342,-0.039111942,-0.67484593,-0.29583782
0.09,-0.89753973,0.77932596,1.0406462,-0.014383748,-0.619656,-0.27576724
0.092,-0.7889191,0.7971276,0.9740881,0.011603966,-0.5624466,-0.25323635
0.094,-0.67455506,0.8149071,0.89818215,0.038486406,-0.5043664,-0.22839022
0.096,-0.5555609,0.8329946,0.81350875,0.065863,-0.4466876,-0.20143516
0.098,-0.43335816,0.85178894,0.7208804,0.0933198,-0.39076322,-0.17265342
0.1,-0.30945414,0.8718381,0.6213061,0.12045929,-0.33794442,-0.14238173
0.102,-0.18540831,0.8935647,0.5159399,0.14689724,-0.28956664,-0.110989444
0.104,-0.062910944,0.91731143,0.406185,0.1722858,-0.24686895,-0.07886561
0.106,0.056274444,0.9435398,0.29334235,0.19633576,-0.21091592,-0.046388246
0.108,0.17048466,0.9725884,0.17875475,0.21882606,-0.1825653,-0.013940959
0.11,0.27799612,1.005105,0.06384143,0.23962894,-0.1624063,0.018153142
0.112,0.37709925,1.0413672,-0.049825147,0.25870764,-0.1507794,0.049633905
0.114,0.46617147,1.0818552,-0.16107154,0.27608827,-0.14774832,0.08034484
0.116,0.5437021,1.1270126,-0.26879597,0.2918684,-0.15309864,0.11024131
0.118,0.6085297,1.176784,-0.3716879,0.3061951,-0.16642591,0.13936217
0.12,0.6590207,1.2319939,-0.4682206,0.3192395,-0.18716452,0.1678395
0.122,0.6944648,1.2923195,-0.5570589,0.33120853,-0.21463457,0.19581884
0.124,0.71396637,1.3582284,-0.63670355,0.34231505,-0.24810773,0.22344632
0.126,0.7166067,1.4305432,-0.70406866,0.35274464,-0.28686145,0.25088167
0.128,0.7023991,1.5085182,-0.76236725,0.36266214,-0.3301792,0.27825788
0.13,0.67079693,1.5913606,-0.8119166,0.3722038,-0.37739864,0.3056381
0.132,0.62096417,1.6785817,-0.8485551,0.3814653,-0.42792177,0.33304837
0.134,0.5532956,1.7701241,-0.8733448,0.39052308,-0.481153,0.36047834
0.136,0.4684766,1.8661666,-0.88687134,0.39939198,-0.53650576,0.3878823
0.138,0.3670504,1.9657891,-0.8885509,0.40807396,-0.59342116,0.41522202
0.14,0.24998903,2.0681095,-0.87841904,0.41652644,-0.6513469,0.44245622
0.142,0.1178962,2.1727798,-0.85702133,0.4246936,-0.7097126,0.46958548
0.144,-0.028675437,2.279697,-0.8244811,0.4325062,-0.7679324,0.4966083
0.146,-0.18901908,2.3885188,-0.78113693,0.4399143,-0.8254173,0.5235695
0.148,-0.3624344,2.4989877,-0.72741306,0.44693404,-0.8815836,0.55058706
0.15,-0.5480876,2.6106358,-0.6641731,0.45359567,-0.9357761,0.5777838
0.152,-0.7447429,2.723158,-0.5928643,0.4599405,-0.9873656,0.60530627
0.154,-0.9507408,2.8361425,-0.51555574,0.46598643,-1.0358737,0.63332915
0.156,-1.1651874,2.9495716,-0.4342711,0.4718455,-1.0807571,0.6619238
0.158,-1.386595,3.0635152,-0.35075638,0.47782028,-1.1209536,0.6912588
0.16,-1.6132854,3.177972,-0.26721007,0.48407173,-1.1562337,0.72147065
0.162,-1.8438807,3.2925806,-0.18585621,0.49083936,-1.1863484,0.7528147
0.164,-2.0774481,3.407452,-0.10833141,0.49847192,-1.210762,0.7856765
0.166,-2.3123665,3.5221834,-0.036216974,0.50729656,-1.2292128,0.82021564
0.168,-2.5471513,3.6364908,0.028673649,0.5176822,-1.2416046,0.8565453
0.17,-2.781326,3.750086,0.08451175,0.53000706,-1.2478143,0.8949102
0.172,-3.013849,3.8630722,0.13058424,0.5446379,-1.2477604,0.93561566
0.174,-3.240328,3.9744284,0.16738442,0.56189,-1.2415017,0.9789518
0.176,-3.4627497,4.08469,0.19367474,0.5819249,-1.2291789,1.0251992
0.178,-3.6791906,4.192991,0.20921814,0.6047056,-1.2111008,1.0745577
0.18,-3.8889687,4.29949,0.21325094,0.6299858,-1.1878175,1.1271234
0.182,-4.0915713,4.404597,0.20545277,0.65727913,-1.160182,1.1827965
0.184,-4.286565,4.5085406,0.18613598,0.685845,-1.1293613,1.2412798
0.186,-4.4733615,4.611583,0.15692647,0.71474874,-1.0968475,1.3020804
0.188,-4.650992,4.7140203,0.12018882,0.7429234,-1.0644121,1.3644769
0.19,-4.820182,4.816932,0.078933716,0.76926893,-1.0339875,1.4276366
0.192,-4.982261,4.92135,0.036065638,0.7927135,-1.0076398,1.4907106
0.194,-5.1376166,5.027514,-0.00551039,0.81232524,-0.9874184,1.552897
0.196,-5.287061,5.1359415,-0.043051153,0.8273716,-0.9752592,1.6134785
0.198,-5.431407,5.2472606,-0.073439986,0.83731997,-0.97289973,1.6718616
0.2,-5.571947,5.3623776,-0.09333211,0.84182477,-0.98192084,1.7275213
0.202,-5.7096963,5.481897,-0.099482924,0.8406908,-1.0036057,1.7799046
0.204,-5.8456492,5.606344,-0.088840574,0.8339771,-1.038744,1.8284202
0.206,-5.9808807,5.736317,-0.058770955,0.8219147,-1.0878193,1.8723103
0.208,-6.116452,5.872256,-0.0072141886,0.8047993,-1.1509223,1.9107962
0.21,-6.253358,6.0143967,0.067602456,0.783016,-1.2276113,1.943198
0.212,-6.392295,6.1627336,0.16678411,0.75703925,-1.3171959,1.9686872
0.214,-6.533311,6.3166623,0.29090726,0.72775054,-1.4175578,1.9865918
0.216,-6.676486,6.4754744,0.43987185,0.6961276,-1.5263007,1.9964745
0.218,-6.8220563,6.638208,0.6128823,0.66327965,-1.6407471,1.9982764
0.22,-6.969669,6.8037434,0.8085987,0.6305371,-1.7574364,1.9926151
0.222,-7.1186156,6.970666,1.0249351,0.59926695,-1.8727103,1.9804554
0.224,-7.2678275,7.137285,1.259665,0.57079184,-1.9831238,1.9630508
0.226,-7.416296,7.3020325,1.5099423,0.5463016,-2.0855408,1.9419482
0.228,-7.562648,7.463435,1.7724559,0.5267793,-2.1774368,1.9188218
0.23,-7.704982,7.618828,2.0435061,0.5129447,-2.2571006,1.8951995
0.232,-7.8417034,7.7665777,2.319591,0.5051712,-2.3236592,1.8723153
0.234,-7.97027,7.9041357,2.597292,0.5034479,-2.3770738,1.8509301
0.236,-8.088188,8.028751,2.8720274,0.5073949,-2.4180665,1.8313186
0.238,-8.193513,8.13944,3.1449428,0.5163599,-2.4479272,1.8132092
0.24,-8.283363,8.234656,3.4136634,0.5295234,-2.468278,1.7957768
0.242,-8.354366,8.312165,3.672145,0.5459616,-2.4808917,1.777812
0.244,-8.404161,8.369045,3.9205053,0.5647645,-2.487528,1.7578415
0.246,-8.4309435,8.402872,4.1580973,0.58508646,-2.4897065,1.7342854
0.248,-8.432575,8.412452,4.3835144,0.60619605,-2.48871,1.705615
0.25,-8.406775,8.396114,4.5964346,0.627504,-2.4855027,1.6704662
0.252,-8.350932,8.352134,4.7973766,0.64862406,-2.4807112,1.6277609
0.254,-8.263027,8.279011,4.986407,0.6693232,-2.4745793,1.5767714
0.256,-8.142273,8.176286,5.163646,0.68951,-2.4671001,1.5171783
0.258,-7.9877577,8.0437975,5.3293304,0.70916456,-2.458147,1.4490373
0.26,-7.7986565,7.881632,5.4838095,0.72838223,-2.447186,1.3728051
0.262,-7.574948,7.6903334,5.6277037,0.7474094,-2.4334197,1.2892475
0.264,-7.3176203,7.470336,5.7621107,0.76650953,-2.4160597,1.199501
0.266,-7.026923,7.221965,5.8875847,0.7859916,-2.3941588,1.1051345
0.268,-6.704611,6.946149,6.003928,0.80621207,-2.366673,1.0079747
0.27,-6.3551755,6.645356,6.1103954,0.82756275,-2.3324914,0.9099183
0.272,-5.9800525,6.3214664,6.206686,0.8504801,-2.290534,0.8128766
0.274,-5.5805483,5.9754705,6.2912097,0.875387,-2.2397492,0.71873397
0.276,-5.1612916,5.609721,6.3615513,0.90269876,-2.1790912,0.62920797
0.278,-4.7253613,5.2256923,6.4177914,0.93275046,-2.1075747,0.54573846
0.28,-4.2757936,4.826586,6.4586096,0.9657795,-2.0243015,0.4694896
0.282,-3.8167894,4.4155,6.480119,1.0019412,-1.9284258,0.40135762
0.284,-3.3555355,3.9958735,6.478452,1.0412989,-1.8193398,0.34189954
0.286,-2.8930779,3.5700576,6.4523597,1.0837709,-1.6968393,0.2912879
0.288,-2.4347348,3.141693,6.400016,1.1290551,-1.5611886,0.24941756
0.29,-1.9846187,2.713336,6.3210464,1.1766315,-1.4131609,0.21592206
0.292,-1.5464385,2.2872074,6.2152047,1.2257835,-1.2540827,0.19013458
0.294,-1.123578,1.8655663,6.0823956,1.2755897,-1.0859066,0.17116904
0.296,-0.71943593,1.4504045,5.9225445,1.3249159,-0.91128665,0.15801927
0.298,-0.33721685,1.0434176,5.736485,1.3723465,-0.73356545,0.1496436
0.3,0.022051692,0.6448983,5.526258,1.4161496,-0.5567699,0.14499024
0.302,0.35784125,0.2554822,5.2952223,1.4544383,-0.38515782,0.14301401
0.304,0.66899514,-0.12388867,5.0471535,1.485477,-0.22280374,0.14255553
0.306,0.95524025,-0.49332154,4.786585,1.507491,-0.07409778,0.1422472
0.308,1.2107965,-0.85081136,4.516743,1.5187161,0.056747794,0.140971
0.31,1.4370937,-1.1983699,4.2504187,1.5176644,0.16637173,0.13794547
0.312,1.6458435,-1.5424752,3.9938228,1.5032525,0.25213775,0.13250464
0.314,1.8334963,-1.8801823,3.7451897,1.4749134,0.31232274,0.12426734
0.316,2.0080042,-2.2124224,3.517412,1.432644,0.346361,0.11330563
0.318,2.1901474,-2.544419,3.329224,1.3769931,0.35494235,0.10015386
0.32,2.3671398,-2.8590932,3.1812677,1.3090372,0.33998764,0.08581811
0.322,2.5328584,-3.1430395,3.0576477,1.2302703,0.30453083,0.07172918
0.324,2.7019992,-3.3974078,2.951986,1.1424729,0.252449,0.059590757
0.326,2.8787584,-3.623377,2.8789272,1.0475508,0.1881387,0.051138967
0.328,3.061911,-3.8255374,2.856619,0.9473839,0.116098985,0.047896504
0.33,3.2527566,-4.0117264,2.8848634,0.84367967,0.04050055,0.051055282
0.332,3.4527054,-4.1809897,2.9436595,0.7379265,-0.03513342,0.061353654
0.334,3.6596625,-4.3250446,3.008642,0.63138795,-0.108119726,0.07897626
0.336,3.8792892,-4.4409475,3.0734658,0.52528787,-0.17653853,0.10350335
0.338,4.0994177,-4.5017667,3.1462872,0.42106777,-0.23878077,0.13386258
0.34,4.3240433,-4.5003333,3.2332392,0.32036126,-0.29313976,0.16849051
0.342,4.556422,-4.4434505,3.3329535,0.22544187,-0.33703905,0.20646435
0.344,4.794013,-4.331539,3.4459038,0.13891909,-0.367948,0.24762669
0.346,5.0311093,-4.15671,3.5623152,0.06380984,-0.38226599,0.29275936
0.348,5.2585897,-3.9064422,3.6654408,0.004268959,-0.37405115,0.34376287
0.35,5.468061,-3.57022,3.7390368,-0.033814758,-0.3351083,0.40195277
0.352,5.6527834,-3.1432557,3.7628589,-0.043633968,-0.25489378,0.46820045
0.354,5.80764,-2.6279173,3.7102654,-0.018562824,-0.122203566,0.54423654
0.356,5.9269066,-2.0321736,3.5614595,0.04760419,0.07272047,0.6318493
0.358,6.0028973,-1.3658015,3.3086562,0.16040668,0.33882913,0.7319025
0.36,6.0266986,-0.6371763,2.9490693,0.32449648,0.68418556,0.84416616
0.362,5.9900904,0.14387643,2.4821525,0.5427903,1.112566,0.9662355
0.364,5.8888316,0.96449226,1.9079819,0.8154503,1.6208559,1.0932277
0.366,5.722192,1.8098034,1.2286453,1.1384032,2.1985435,1.218401
0.368,5.490862,2.6646476,0.45080376,1.503392,2.8288958,1.3292036
0.37,5.1971607,3.5139706,-0.41314912,1.8977132,3.4889488,1.409471
0.372,4.8458967,4.3427067,-1.3462131,2.3033998,4.1489043,1.4445194
0.374,4.445085,5.1354895,-2.3285544,2.6980915,4.7728786,1.4231826
0.376,4.0047383,5.87696,-3.3376644,3.0570116,5.322345,1.3394717
0.378,3.5373094,6.5523987,-4.3490257,3.3548203,5.75835,1.1929829
0.38,3.0583138,7.1484594,-5.3360305,3.5683298,6.0445633,0.9883983
0.382,2.5808723,7.6557264,-6.2733374,3.6797075,6.151929,0.7353084
0.384,2.1190538,8.068188,-7.135903,3.6787066,6.062565,0.44703817
0.386,1.6891503,8.382132,-7.9004197,3.5639815,5.772209,0.1395855
0.388,1.304872,8.597498,-8.548834,3.3435235,5.292288,-0.16954279
0.39,0.97926044,8.715675,-9.065364,3.0336494,4.6500444,-0.46357703
0.392,0.72362137,8.741087,-9.437596,2.656919,3.8862154,-0.72832537
0.394,0.54685307,8.681066,-9.659652,2.2397668,3.0510035,-0.95312804
0.396,0.4546113,8.54462,-9.731437,1.8093594,2.1981645,-1.131849
0.398,0.44931412,8.342298,-9.657511,1.391089,1.3798018,-1.2622643
0.4,0.5304227,8.085628,-9.447082,1.0060415,0.63966155,-1.3455501
0.402,0.6940875,7.786893,-9.113105,0.66901886,0.008555591,-1.3859012
0.404,0.9335265,7.457968,-8.671373,0.38808626,-0.4970473,-1.3887999
0.406,1.2387519,7.1106567,-8.139692,0.16589233,-0.8750093,-1.3612343
0.408,1.5980806,6.755986,-7.536353,0.00091966987,-1.1345624,-1.3118597
0.41,1.9979043,6.4044952,-6.8785973,-0.11212711,-1.292839,-1.2489154
0.412,2.4238868,6.065769,-6.1851463,-0.18133831,-1.3727024,-1.178947
0.414,2.8610013,5.747707,-5.47097,-0.2162173,-1.3984405,-1.1068189
0.416,3.2954986,5.456497,-4.7465167,-0.22637315,-1.3909566,-1.0352844
0.418,3.7185788,5.1954107,-4.0230284,-0.22064929,-1.3657349,-0.96510124
0.42,4.1154537,4.96928,-3.3178463,-0.20613657,-1.333066,-0.8958121
0.422,4.4666367,4.783919,-2.6367106,-0.18871133,-1.2998576,-0.82372755
0.424,4.7710013,4.634925,-1.9773772,-0.17274418,-1.2696754,-0.74585104
0.426,5.0177975,4.5229406,-1.3505309,-0.16040602,-1.2425586,-0.66283476
0.428,5.191575,4.450989,-0.7655127,-0.15243727,-1.2162517,-0.5772357
0.43,5.310904,4.402954,-0.21206999,-0.14889307,-1.188518,-0.49215835
0.432,5.382029,4.3730965,0.32927203,-0.14907944,-1.1568305,-0.40991843
0.434,5.392615,4.370347,0.86151195,-0.152001,-1.1186609,-0.33148295
0.436,5.345649,4.399769,1.3674154,-0.15687856,-1.0725214,-0.25728017
0.438,5.2491693,4.4665904,1.83271,-0.16294083,-1.0178987,-0.18750338
0.44,5.107278,4.574873,2.2630823,-0.16922238,-0.95461833,-0.12262645
0.442,4.9237976,4.7177505,2.6758332,-0.17453103,-0.8827822,-0.06354414
0.444,4.705251,4.883447,3.0803485,-0.17760894,-0.803368,-0.010835379
0.446,4.450948,5.0673246,3.4629517,-0.17703776,-0.7172855,0.035711437
0.448,4.1760235,5.2469497,3.7993774,-0.1713222,-0.62471527,0.07646511
0.45,3.8774247,5.4248996,4.0745034,-0.1590209,-0.5250401,0.111638196
0.452,3.5552197,5.613059,4.2841134,-0.13867728,-0.41664943,0.14159098
0.454,3.2156303,5.811391,4.423581,-0.10880607,-0.2970763,0.16694234
0.456,2.8668442,6.0106883,4.4986277,-0.06799781,-0.16335472,0.18855771
0.458,2.5176241,6.1998544,4.518161,-0.015180707,-0.012323903,0.20746326
0.46,2.1734922,6.37271,4.4864492,0.050159164,0.15901802,0.2247002
0.462,1.8370856,6.5290704,4.4091673,0.12780759,0.35294443,0.24121371
0.464,1.5098267,6.673195,4.2944527,0.21667829,0.57026654,0.2578188
0.466,1.1950469,6.809417,4.1414375,0.31474024,0.80987847,0.27519885
0.468,0.89732945,6.9394865,3.940554,0.4190434,1.0682763,0.29380947
0.47,0.6223223,7.060005,3.6848993,0.5258038,1.3394216,0.31383005
0.472,0.37302136,7.16795,3.3724658,0.6306107,1.6148406,0.33514097
0.474,0.1493026,7.2614517,3.0083055,0.7287199,1.8840976,0.3573863
0.476,-0.04986143,7.3387694,2.6001263,0.81541246,2.1355798,0.37997276
0.478,-0.22612941,7.398206,2.1559036,0.8863807,2.3574257,0.40213543
0.48,-0.38128722,7.438688,1.6824911,0.9380456,2.538508,0.42297524
0.482,-0.5175797,7.459675,1.1874037,0.9677669,2.669351,0.44156843
0.484,-0.6370342,7.4611697,0.68302214,0.97394663,2.742797,0.45707583
0.486,-0.7419486,7.444678,0.17865616,0.95601654,2.754438,0.46881515
0.488,-0.83406687,7.4121246,-0.3154992,0.9143343,2.7027693,0.47623098
0.49,-0.91625905,7.365764,-0.7896956,0.8500188,2.5890007,0.47893745
0.492,-0.9910604,7.3068237,-1.2338223,0.7647756,2.4167569,0.47672266
0.494,-1.0612638,7.2362123,-1.6392083,0.66072047,2.19154,0.46947986
0.496,-1.1301055,7.1552534,-1.9992945,0.5402075,1.9200794,0.45725355
0.498,-1.2007661,7.064863,-2.3075788,0.40600026,1.6105639,0.44021755
0.5,-1.2744815,6.964694,-2.5587547,0.26115328,1.271809,0.4183975
0.502,-1.352406,6.85425,-2.7503166,0.10888578,0.91284907,0.39179522
0.504,-1.4366653,6.733757,-2.8776817,-0.047407348,0.5431405,0.3604487
0.506,-1.5291027,6.6037903,-2.9401398,-0.20425154,0.17217511,0.32419917
0.508,-1.6366409,6.467287,-2.9416385,-0.35820404,-0.19093642,0.28273362
0.51,-1.7553438,6.321544,-2.8783462,-0.50593144,-0.5376116,0.23572464
0.512,-1.8806536,6.1641665,-2.754722,-0.6444131,-0.86031556,0.1827712
0.514,-2.0151458,5.9986734,-2.5807693,-0.771062,-1.1528432,0.12356648
0.516,-2.1553588,5.826768,-2.3609927,-0.8837484,-1.4102708,0.057942927
0.518,-2.2937965,5.6473403,-2.104103,-0.981034,-1.6295375,-0.014252067
0.52,-2.4291153,5.4593935,-1.8186513,-1.062145,-1.8093767,-0.09310192
0.522,-2.5603888,5.2618556,-1.5057843,-1.1270137,-1.9502685,-0.17861629
0.524,-2.6819806,5.0539145,-1.1728142,-1.1761942,-2.0541701,-0.27068758
0.526,-2.7928753,4.8369875,-0.8318575,-1.2107352,-2.1242518,-0.36912447
0.528,-2.8932436,4.6123266,-0.48604095,-1.2320867,-2.164676,-0.47370446
0.53,-2.9813774,4.382746,-0.13769487,-1.2419477,-2.180088,-0.58398616
0.532,-3.0569725,4.1537056,0.20816702,-1.2421055,-2.1753535,-0.69936275
0.534,-3.1192486,3.929861,0.5463574,-1.234401,-2.1553543,-0.81919885
0.536,-3.1654673,3.7130332,0.8707594,-1.2204939,-2.1244757,-0.9428951
0.538,-3.192049,3.504341,1.1746526,-1.2019045,-2.0864923,-1.0701638
0.54,-3.1955462,3.305183,1.4514322,-1.1803308,-2.044952,-1.2006803
0.542,-3.1733408,3.1177766,1.6948597,-1.1572546,-2.0027785,-1.333816
0.544,-3.1238937,2.9454167,1.8992624,-1.1339909,-1.9629433,-1.469338
0.546,-3.0467334,2.7909892,2.061413,-1.1118056,-1.9278945,-1.6072667
0.548,-2.942233,2.6569955,2.1801171,-1.0917529,-1.8993814,-1.7476416
0.55,-2.8113942,2.5455976,2.254837,-1.0747781,-1.8793086,-1.8905563
0.552,-2.6551545,2.4588094,2.2853255,-1.0617185,-1.8691857,-2.0356152
0.554,-2.4742162,2.3978648,2.2714915,-1.0531689,-1.8695627,-2.1815414
0.556,-2.2701154,2.3637757,2.2132888,-1.0494646,-1.8807255,-2.3264067
0.558,-2.0452306,2.3573406,2.1108959,-1.0507342,-1.9029865,-2.467623
0.56,-1.8018019,2.3784075,1.9642892,-1.0567943,-1.936016,-2.6017582
0.562,-1.5426335,2.4253027,1.7742229,-1.0669602,-1.9786888,-2.7250772
0.564,-1.2711321,2.4953923,1.5420725,-1.0799019,-2.029055,-2.8340986
0.566,-0.9916552,2.585724,1.2692976,-1.093379,-2.0838642,-2.9256518
0.568,-0.7094881,2.6931868,0.9583858,-1.1042858,-2.1386194,-2.9971113
0.57,-0.4298272,2.814377,0.61296153,-1.1089224,-2.1877937,-3.046585
0.572,-0.15778798,2.9460702,0.23733425,-1.1031613,-2.2245142,-3.0730708
0.574,0.101827145,3.0848935,-0.1639595,-1.0830562,-2.2414038,-3.0766425
0.576,0.3440274,3.2277045,-0.58591974,-1.0454532,-2.2312527,-3.058348
0.578,0.5646262,3.370983,-1.0230582,-0.9885114,-2.188018,-3.020129
0.58,0.75848305,3.5126781,-1.470284,-0.9120509,-2.107745,-2.9646335
0.582,0.9223411,3.650334,-1.9207232,-0.8176463,-1.9894446,-2.8950794
0.584,1.0565345,3.781458,-2.3676207,-0.70862883,-1.8358718,-2.815215
0.586,1.1594298,3.9052377,-2.8051786,-0.5897512,-1.6536001,-2.729091
0.588,1.2309053,4.020508,-3.2242963,-0.46665522,-1.4526024,-2.6408136
0.59,1.2746048,4.1245546,-3.6153476,-0.34538358,-1.2456808,-2.5544167
0.592,1.2883234,4.218384,-3.9674354,-0.23171005,-1.0470078,-2.473394
0.594,1.2782147,4.3008833,-4.2753043,-0.13047719,-0.8702444,-2.4007266
0.596,1.2515972,4.3699093,-4.5370398,-0.04568851,-0.7274698,-2.3386436
0.598,1.2091079,4.4256935,-4.744665,0.019906342,-0.6273408,-2.2878857
0.6,1.1524189,4.4693637,-4.8876877,0.06490499,-0.5748964,-2.2481005
0.602,1.0885444,4.5003624,-4.9606633,0.089063644,-0.5710191,-2.2181878
0.604,1.0257041,4.5175037,-4.959625,0.09328109,-0.6118949,-2.1965027
0.606,0.9700775,4.519801,-4.8817306,0.07938439,-0.69041723,-2.1814685
0.608,0.92708254,4.505851,-4.728797,0.049775004,-0.79744005,-2.171876
0.61,0.90081096,4.4741325,-4.504679,0.0073524415,-0.92204726,-2.16673
0.612,0.89505005,4.424012,-4.212257,-0.044656217,-1.0529802,-2.165533
0.614,0.9139366,4.3553114,-3.8577669,-0.10296345,-1.1801511,-2.1684153
0.616,0.9616053,4.267028,-3.447174,-0.1644408,-1.2952065,-2.1757169
0.618,1.0439177,4.1563935,-2.9858782,-0.22636521,-1.391974,-2.1877894
0.62,1.155489,4.025753,-2.4878745,-0.28638643,-1.4661548,-2.204829
0.622,1.2928079,3.8758662,-1.9596283,-0.3425841,-1.5155113,-2.2270215
0.624,1.4597687,3.7018738,-1.404927,-0.39341354,-1.5392125,-2.2539742
0.626,1.6532856,3.502567,-0.83436966,-0.43740126,-1.5374155,-2.2845201
0.628,1.8676174,3.280758,-0.25740993,-0.4731885,-1.5115727,-2.3170273
0.63,2.103443,3.0390172,0.31269908,-0.49945855,-1.4631273,-2.3492875
0.632,2.3593276,2.7807436,0.8592832,-0.514948,-1.3933003,-2.378735
0.634,2.6274595,2.5118527,1.3712643,-0.51841027,-1.3034102,-2.4027035
0.636,2.902516,2.2384233,1.8409138,-0.508543,-1.1944095,-2.4187381
0.638,3.1788836,1.9674484,2.2571936,-0.48402542,-1.0668671,-2.4247227
0.64,3.4479356,1.7054081,2.6104841,-0.44381186,-0.92130303,-2.4187284
0.642,3.7022204,1.4564646,2.8951626,-0.38732144,-0.75844634,-2.3990202
0.644,3.933926,1.2255365,3.107952,-0.3145933,-0.5793369,-2.3644283
0.646,4.1341558,1.0195545,3.2485533,-0.22635227,-0.38562495,-2.3146966
0.648,4.2940736,0.84533983,3.317579,-0.12417364,-0.17998672,-2.2506003
0.65,4.4067545,0.70775974,3.3177238,-0.010606408,0.033726692,-2.1738346
0.652,4.4671826,0.60950273,3.2529192,0.11080545,0.25039852,-2.0869682
0.654,4.4728,0.55154866,3.1273956,0.23565888,0.46354735,-1.9934587
0.656,4.423412,0.5337261,2.9455454,0.35880458,0.6655363,-1.89753
0.658,4.3205757,0.5538837,2.7118886,0.4745798,0.84802675,-1.8039634
0.66,4.166398,0.607815,2.4325495,0.5771383,1.002384,-1.7178681
0.662,3.9632604,0.6901674,2.1157422,0.660841,1.1202816,-1.6442288
0.664,3.7141368,0.79472905,1.771076,0.72068787,1.1945031,-1.5874398
0.666,3.423129,0.9148818,1.4081665,0.75281245,1.219766,-1.5509953
0.668,3.0954394,1.0438775,1.03686,0.7548647,1.193303,-1.5372185
0.67,2.7378361,1.1756971,0.66490746,0.72637045,1.115507,-1.5468488
0.672,2.35738,1.3053885,0.2989627,0.6689786,0.990256,-1.578898
0.674,1.9614842,1.4282813,-0.055030584,0.58627427,0.8244013,-1.6309038
0.676,1.5576768,1.5402135,-0.39219856,0.48361862,0.6277617,-1.6988928
0.678,1.1527926,1.6375512,-0.7088171,0.36768317,0.41192868,-1.7780282
0.68,0.75287664,1.7175686,-1.0027345,0.24562153,0.18920183,-1.8630695
0.682,0.36373866,1.7781179,-1.2735717,0.124605,-0.027990818,-1.9487312
0.684,-0.010058165,1.8179971,-1.5215514,0.011223912,-0.22915298,-2.0305967
0.686,-0.36463106,1.837321,-1.7470214,-0.089113265,-0.4061932,-2.1055415
0.688,-0.6967112,1.8372469,-1.9505019,-0.17253688,-0.55347174,-2.171855
0.69,-1.0028527,1.8191385,-2.1327367,-0.23687908,-0.6683668,-2.2291806
0.692,-1.2802448,1.7846029,-2.2956555,-0.28147316,-0.75092936,-2.2783911
0.694,-1.5290728,1.736048,-2.4409945,-0.30678254,-0.80322814,-2.3214626
0.696,-1.7467753,1.675143,-2.5686152,-0.31414038,-0.828823,-2.3609922
0.698,-1.9314469,1.6039412,-2.6806219,-0.3055783,-0.83232176,-2.399581
0.7,-2.083124,1.5252651,-2.7777753,-0.283608,-0.8188174,-2.4395154
0.702,-2.196467,1.4387677,-2.860938,-0.25096032,-0.79343396,-2.4827883
0.704,-2.2741857,1.3469315,-2.9271605,-0.21037436,-0.76115084,-2.5310886
0.706,-2.3170104,1.2511648,-2.9679277,-0.16450268,-0.7266112,-2.5856543
0.708,-2.3191473,1.1495707,-2.9834604,-0.115819365,-0.69390327,-2.6472526
0.71,-2.2762837,1.0393819,-2.9759073,-0.06652373,-0.6664949,-2.7161603
0.712,-2.1905515,0.92035437,-2.9428558,-0.018488407,-0.6471205,-2.7921398
0.714,-2.063611,0.7924032,-2.8810346,0.026801944,-0.63756025,-2.8744195
0.716,-1.8948679,0.6542498,-2.7875478,0.06826007,-0.6385534,-2.9617307
0.718,-1.683488,0.50541544,-2.6591249,0.10516715,-0.6499071,-3.0523036
0.72,-1.4302907,0.34619087,-2.4939237,0.1371584,-0.67052835,-3.1438918
0.722,-1.1366572,0.175706,-2.2930923,0.16416627,-0.6986717,-3.233934
0.724,-0.80529547,-0.007050693,-2.0602882,0.1863119,-0.73216474,-3.3197556
0.726,-0.44077176,-0.20122537,-1.7991545,0.20383608,-0.76864076,-3.3988004
0.728,-0.04767391,-0.40500522,-1.5140972,0.21706402,-0.8057221,-3.4688244
0.73,0.36854059,-0.6152557,-1.2112961,0.22637749,-0.84115696,-3.5279722
0.732,0.8020386,-0.8282302,-0.89765495,0.23219079,-0.87290704,-3.5749075
0.734,1.2458824,-1.0393926,-0.5805722,0.23493373,-0.89916074,-3.6088014
0.736,1.6938785,-1.2448157,-0.2671963,0.2350561,-0.91832054,-3.6294134
0.738,2.1397028,-1.4417914,0.037804484,0.23299444,-0.9290215,-3.6370506
0.74,2.5778828,-1.6282724,0.33180016,0.22920191,-0.9301449,-3.6324284
0.742,3.0040033,-1.8036726,0.6117259,0.2240982,-0.92088985,-3.6166751
0.744,3.4148166,-1.9686253,0.8741667,0.21805125,-0.90084493,-3.5912871
0.746,3.8074844,-2.12418,1.11476,0.21139538,-0.87012315,-3.5581512
0.748,4.178791,-2.270454,1.3285793,0.20439649,-0.8294203,-3.5194278
0.75,4.5258203,-2.4065948,1.5107522,0.19722319,-0.7800369,-3.4773908
0.752,4.844972,-2.5307374,1.6571622,0.18992698,-0.7238995,-3.4342506
0.754,5.1329203,-2.6411943,1.7645204,0.1823892,-0.66343856,-3.392017
0.756,5.386797,-2.7368667,1.8306978,0.17435116,-0.60145056,-3.3523502
0.758,5.604784,-2.8175356,1.8560803,0.16539979,-0.5410309,-3.3164008
0.76,5.7862945,-2.8835878,1.8419269,0.15503961,-0.48535478,-3.284773
0.762,5.930487,-2.9357548,1.7908235,0.14272344,-0.43749714,-3.2574325
0.764,6.036945,-2.9753087,1.7069658,0.12788272,-0.4002428,-3.233781
0.766,6.1050353,-3.0031617,1.5953224,0.11000872,-0.37589145,-3.2127829
0.768,6.1342607,-3.0195458,1.4612181,0.088694036,-0.36607468,-3.1930778
0.77,6.1254954,-3.0249763,1.3107039,0.06365979,-0.3717227,-3.173111
0.772,6.0812273,-3.0204787,1.1494603,0.034762025,-0.39298773,-3.1512682
0.774,6.0041437,-3.0070367,0.9835948,0.0019840598,-0.4293362,-3.1260114
0.776,5.896686,-2.9860253,0.8194729,-0.034593314,-0.47969413,-3.096077
0.778,5.7615547,-2.9594042,0.66353905,-0.07481736,-0.54263055,-3.060787
0.78,5.600405,-2.9288974,0.52307844,-0.11845899,-0.6165525,-3.0201745
0.782,5.415364,-2.8957624,0.40464324,-0.16521004,-0.6997985,-2.9750392
0.784,5.2103024,-2.8611178,0.31495446,-0.214661,-0.7906839,-2.926963
0.786,4.988684,-2.8260725,0.25897208,-0.26628837,-0.8874078,-2.8781228
0.788,4.7544923,-2.7919583,0.2400758,-0.31940922,-0.9880039,-2.8310683
0.79,4.5110483,-2.7598372,0.2607608,-0.37319833,-1.0902808,-2.7883654
0.792,4.260785,-2.7300706,0.32264173,-0.42668888,-1.1918244,-2.7522788
0.794,4.0060077,-2.7024446,0.42610848,-0.4788567,-1.2901286,-2.7245502
0.796,3.7495928,-2.6767244,0.57032645,-0.52863854,-1.3826723,-2.7062588
0.798,3.4944773,-2.6524024,0.75304556,-0.5751146,-1.4672037,-2.6978707
0.8,3.2428205,-2.6285362,0.9728903,-0.6176923,-1.5419757,-2.6992078
0.802,2.9966516,-2.6040058,1.2283399,-0.6561421,-1.6058942,-2.7095351
0.804,2.7574112,-2.5770693,1.5171413,-0.69069624,-1.6585829,-2.7279031
0.806,2.5264273,-2.5463443,1.8361577,-0.7219746,-1.7003217,-2.7534332
0.808,2.3055997,-2.510428,2.1814873,-0.7509479,-1.7319443,-2.7854657
0.81,2.0964046,-2.4677854,2.548858,-0.7788104,-1.7545749,-2.8235974
0.812,1.9012128,-2.417148,2.9340777,-0.8067899,-1.7693814,-2.867783
0.814,1.7217323,-2.3571572,3.3335185,-0.83597594,-1.77734,-2.9181924
0.816,1.559516,-2.2868128,3.744234,-0.86720043,-1.7790822,-2.9750938
0.818,1.416197,-2.2052348,4.164057,-0.9009541,-1.7748495,-3.0386376
0.82,1.2927846,-2.1116052,4.5903563,-0.9374049,-1.7645383,-3.108686
0.822,1.1910849,-2.005939,5.0193977,-0.9764443,-1.7477611,-3.1847517
0.824,1.112966,-1.888773,5.447001,-1.0177432,-1.7240163,-3.2659938
0.826,1.060288,-1.7610066,5.869915,-1.0608547,-1.6928408,-3.3512135
0.828,1.0343065,-1.6237922,6.285426,-1.1054083,-1.6538806,-3.4389653
0.83,1.036626,-1.4786274,6.6914454,-1.1512352,-1.6070503,-3.5277224
0.832,1.0685723,-1.3274283,7.0859623,-1.1983708,-1.5525422,-3.615876
0.834,1.1315162,-1.1724825,7.467675,-1.2470928,-1.4908004,-3.701847
0.836,1.2261443,-1.0163279,7.8353257,-1.2979414,-1.4226407,-3.784303
0.838,1.3530755,-0.86129045,8.1870775,-1.3516371,-1.3492836,-3.8622031
0.84,1.5120035,-0.7099016,8.521282,-1.4090095,-1.2723403,-3.9348936
0.842,1.7017479,-0.5643146,8.836639,-1.4709203,-1.1937234,-4.0021296
0.844,1.9210553,-0.42658877,9.131147,-1.5381958,-1.1155152,-4.064061
0.846,2.1683292,-0.2984624,9.402271,-1.6115496,-1.0397437,-4.1211214
0.848,2.4414372,-0.1808796,9.64742,-1.6914642,-0.9681753,-4.1738777
0.85,2.7379854,-0.07449341,9.864369,-1.7781729,-0.9021493,-4.222896
0.852,3.0555155,0.020420551,10.051114,-1.8715594,-0.84239066,-4.2685795
0.854,3.3919086,0.10306597,10.206569,-1.9711628,-0.78909767,-4.3112516
0.856,3.7450998,0.17242718,10.33091,-2.0761857,-0.7419547,-4.35116
0.858,4.1131673,0.2272172,10.42457,-2.1855385,-0.70014584,-4.388353
0.86,4.4933906,0.2663579,10.488093,-2.2979562,-0.6625285,-4.422719
0.862,4.883487,0.28867865,10.521765,-2.4120977,-0.62784505,-4.4540806
0.864,5.2808537,0.2934742,10.525656,-2.5266504,-0.5949465,-4.4822807
0.866,5.6826982,0.28026724,10.499596,-2.640405,-0.5628979,-4.507172
0.868,6.0856953,0.24928999,10.443518,-2.752357,-0.5311779,-4.5286784
0.87,6.4861035,0.20128012,10.358263,-2.8617105,-0.4997158,-4.546789
0.872,6.8808,0.13732481,10.245371,-2.9679165,-0.4688928,-4.5616107
0.874,7.2663183,0.05867338,10.10655,-3.0706794,-0.4394902,-4.573355
0.876,7.639383,-0.03354931,9.943775,-3.1699088,-0.41258252,-4.5823183
0.878,7.996711,-0.13796759,9.760012,-3.2657042,-0.38939595,-4.588817
0.88,8.33413,-0.25227928,9.557915,-3.3583019,-0.37112927,-4.593174
0.882,8.647017,-0.37360716,9.341103,-3.448004,-0.35878992,-4.595619
0.884,8.931141,-0.4993453,9.112894,-3.5351517,-0.35306156,-4.5962696
0.886,9.182485,-0.6269202,8.8765,-3.6201808,-0.35430205,-4.5952106
0.888,9.398852,-0.754163,8.636234,-3.7035205,-0.36251366,-4.592552
0.89,9.57861,-0.8783431,8.395954,-3.7855513,-0.37733507,-4.588351
0.892,9.71879,-0.9962485,8.158247,-3.866652,-0.39813566,-4.5826654
0.894,9.816744,-1.1044388,7.926194,-3.9471753,-0.4241091,-4.5755515
0.896,9.871208,-1.2004061,7.7032824,-4.0274544,-0.45438516,-4.567052
0.898,9.881084,-1.2817466,7.4927053,-4.1077924,-0.48817742,-4.5571938
0.9,9.845828,-1.3456583,7.2975836,-4.188499,-0.5248697,-4.5460052
0.902,9.765866,-1.38979,7.120144,-4.269894,-0.5640062,-4.533556
0.904,9.642835,-1.412813,6.9614906,-4.352295,-0.6053121,-4.519927
0.906,9.477916,-1.4133832,6.822142,-4.4360037,-0.6486261,-4.5051956
0.908,9.272962,-1.3903053,6.702671,-4.521303,-0.69380796,-4.4894395
0.91,9.031021,-1.342618,6.6023808,-4.608468,-0.7407253,-4.4726596
0.912,8.756319,-1.2696939,6.520434,-4.6977215,-0.78929555,-4.454806
0.914,8.454074,-1.1717215,6.4562654,-4.7891836,-0.8393191,-4.4358187
0.916,8.129956,-1.0492918,6.409726,-4.882881,-0.8905133,-4.415612
0.918,7.7898827,-0.9032736,6.3804398,-4.978839,-0.9425695,-4.3940706
0.92,7.4402566,-0.73520064,6.3683214,-5.076958,-0.99490356,-4.371156
0.922,7.0875244,-0.54678655,6.3729396,-5.177101,-1.0467805,-4.346886
0.924,6.738896,-0.3398416,6.392944,-5.279094,-1.0973165,-4.321397
0.926,6.401641,-0.11629534,6.4265704,-5.382693,-1.1454684,-4.2948585
0.928,6.083071,0.12152743,6.471892,-5.4876447,-1.1902008,-4.267426
0.93,5.791037,0.3709793,6.528253,-5.5937347,-1.2304331,-4.239183
0.932,5.5318336,0.6295898,6.596256,-5.700753,-1.2650591,-4.210187
0.934,5.3109813,0.89501595,6.6761146,-5.8085365,-1.2931213,-4.180475
0.936,5.1330557,1.1649957,6.7667594,-5.916919,-1.3137913,-4.150045
0.938,5.001969,1.4371448,6.8665876,-6.0256834,-1.3262724,-4.1188655
0.94,4.9200373,1.7095792,6.9736605,-6.1345477,-1.3298413,-4.087007
0.942,4.888519,1.9809196,7.086487,-6.2431507,-1.3239008,-4.05461
0.944,4.907545,2.2500677,7.2032876,-6.3510075,-1.3079313,-4.0219207
0.946,4.9758844,2.5158234,7.322163,-6.45747,-1.2814982,-3.9893486
0.948,5.0906296,2.7773638,7.441108,-6.5617914,-1.2443624,-3.9574192
0.95,5.247692,3.0341828,7.5578213,-6.6631737,-1.1965151,-3.9267354
0.952,5.44165,3.2861605,7.66997,-6.7608433,-1.1381617,-3.897906
0.954,5.6671476,3.5339026,7.775161,-6.854074,-1.0697416,-3.871519
0.956,5.9174995,3.7773883,7.8725185,-6.9422717,-0.9919938,-3.8481169
0.958,6.180432,4.0155754,7.9572926,-7.024939,-0.90587556,-3.828193
0.96,6.450244,4.249695,8.026482,-7.1016946,-0.81244385,-3.8121827
0.962,6.719798,4.482937,8.076653,-7.172251,-0.71274114,-3.800424
0.964,6.979225,4.7174807,8.103769,-7.2363834,-0.6077466,-3.7932553
0.966,7.2211814,4.953935,8.106577,-7.2939315,-0.49833345,-3.7909467
0.968,7.4384594,5.1916404,8.083481,-7.344812,-0.38522315,-3.7936316
0.97,7.6239686,5.431463,8.03342,-7.3889627,-0.26892686,-3.801366
0.972,7.7713695,5.6751323,7.953852,-7.4263473,-0.14978552,-3.8140917
0.974,7.8760347,5.9238644,7.842278,-7.457102,-0.028224707,-3.8315837
0.976,7.9349155,6.1781797,7.6974525,-7.481432,0.09536815,-3.8534827
0.978,7.945656,6.438262,7.518994,-7.499647,0.22053432,-3.8792536
0.98,7.9069185,6.704338,7.3066,-7.5122113,0.3466587,-3.9083042
0.982,7.8184047,6.976411,7.060386,-7.5197024,0.47299767,-3.9400244
0.984,7.6812963,7.254283,6.781286,-7.5228424,0.59865475,-3.9738147
0.986,7.498133,7.5375614,6.470949,-7.522373,0.72263694,-4.009245
0.988,7.272647,7.8254633,6.131782,-7.518983,0.8438792,-4.0460176
0.99,7.0096316,8.116978,5.7665186,-7.513484,0.96141005,-4.083464
0.992,6.7141695,8.410609,5.3776674,-7.5067964,1.0742967,-4.1210723
0.994,6.3920193,8.705053,4.9686766,-7.4998236,1.1815155,-4.158737
0.996,6.050417,8.998834,4.543642,-7.4932365,1.2823949,-4.196653
0.998,5.694911,9.290955,4.105805,-7.4875765,1.3765843,-4.2349286
1,5.331995,9.579536,3.6592731,-7.483268,1.4639206,-4.27349
1.002,4.9698887,9.862022,3.2090988,-7.480544,1.5445778,-4.3122854
1.004,4.615576,10.136231,2.7591867,-7.4794083,1.6189005,-4.351343
1.006,4.2761707,10.400705,2.3139172,-7.4796906,1.6872748,-4.390661
1.008,3.9587607,10.653936,1.8777454,-7.481147,1.7501457,-4.430082
1.01,3.669766,10.893926,1.4546444,-7.483496,1.8080741,-4.469341
1.012,3.414516,11.11916,1.0491945,-7.486512,1.8616524,-4.508127
1.014,3.1971602,11.328877,0.66555583,-7.489955,1.9115161,-4.546206
1.016,3.021246,11.522446,0.306795,-7.4936385,1.9583014,-4.583405
1.018,2.8890462,11.699186,-0.025172114,-7.4973984,2.0026457,-4.619635
1.02,2.801754,11.858801,-0.3290167,-7.5010986,2.0451815,-4.654888
1.022,2.758996,12.001467,-0.6039219,-7.504615,2.0865114,-4.6892247
1.024,2.7595115,12.127583,-0.84986186,-7.507781,2.1271362,-4.72274
1.026,2.8007574,12.237973,-1.0670404,-7.510395,2.167405,-4.7555294
1.028,2.8788528,12.33366,-1.2566857,-7.5122232,2.207482,-4.787654
1.03,2.9893198,12.416053,-1.4213254,-7.5129824,2.2473052,-4.8191404
1.032,3.1267161,12.486621,-1.5640168,-7.512348,2.2866402,-4.8500094
1.034,3.284724,12.5466385,-1.6879197,-7.509965,2.3251283,-4.880276
1.036,3.4565916,12.597697,-1.796715,-7.505437,2.3623266,-4.9099565
1.038,3.635049,12.641621,-1.8947072,-7.4983335,2.3977313,-4.9390726
1.04,3.8133657,12.679927,-1.9871562,-7.488323,2.4308205,-4.967539
1.042,3.9836922,12.714565,-2.0795002,-7.4751573,2.4611926,-4.995317
1.044,4.139142,12.747402,-2.1768363,-7.458544,2.4884844,-5.022784
1.046,4.273713,12.779775,-2.2837114,-7.438259,2.5124435,-5.0500607
1.048,4.3816333,12.813267,-2.404509,-7.4142275,2.5330653,-5.07698
1.05,4.458207,12.848625,-2.5437574,-7.386616,2.5502024,-5.1034384
1.052,4.4996815,12.886706,-2.7059534,-7.3556724,2.5637507,-5.129616
1.054,4.503099,12.927978,-2.8946414,-7.321658,2.5737696,-5.155813
1.056,4.4666977,12.973122,-3.1121345,-7.284923,2.5803163,-5.1821485
1.058,4.3891387,13.022668,-3.3601303,-7.245927,2.583569,-5.208567
1.06,4.2704988,13.077145,-3.639806,-7.20517,2.5837927,-5.2350016
1.062,4.1119456,13.136516,-3.9519365,-7.163142,2.5812755,-5.261437
1.064,3.9150023,13.200678,-4.296338,-7.1203375,2.5762994,-5.287805
1.066,3.6830795,13.270301,-4.6727934,-7.077223,2.5692239,-5.3139687
1.068,3.4248695,13.345979,-5.077579,-7.0342226,2.560483,-5.3396883
1.07,3.1420789,13.426086,-5.507918,-6.9917135,2.5505462,-5.364666
1.072,2.8400254,13.507715,-5.960022,-6.950029,2.5398216,-5.388569
1.074,2.5265005,13.589737,-6.42951,-6.9093685,2.5288148,-5.4111257
1.076,2.2074647,13.6724,-6.9140186,-6.8698835,2.5179334,-5.4320836
1.078,1.889656,13.756269,-7.409219,-6.831756,2.5074513,-5.451245
1.08,1.5804851,13.83983,-7.9099183,-6.7951727,2.4974666,-5.468461
1.082,1.2870691,13.920724,-8.409312,-6.7603436,2.4878762,-5.4836764
1.084,1.0156187,13.997066,-8.901056,-6.727494,2.478416,-5.496939
1.086,0.7712548,14.067612,-9.380066,-6.696863,2.4686542,-5.508391
1.088,0.55915236,14.131263,-9.841972,-6.668663,2.458043,-5.518213
1.09,0.38371956,14.186666,-10.283327,-6.6430254,2.446022,-5.526615
1.092,0.2478357,14.232979,-10.700309,-6.61999,2.4320493,-5.533832
1.094,0.15339833,14.269592,-11.089005,-6.5994234,2.4156885,-5.5400767
1.096,0.101385,14.295686,-11.446631,-6.5809574,2.39661,-5.5455866
1.098,0.09107089,14.310826,-11.772104,-6.5640545,2.374569,-5.550574
1.1,0.1212312,14.314763,-12.064398,-6.547984,2.3494256,-5.5551505
1.102,0.18965077,14.307417,-12.323161,-6.5318747,2.3211176,-5.559429
1.104,0.2926066,14.289052,-12.549379,-6.5147886,2.289573,-5.563554
1.106,0.42542195,14.260109,-12.745469,-6.4957848,2.2546778,-5.567686
1.108,0.582371,14.221801,-12.914569,-6.473976,2.2162576,-5.571994
1.11,0.75728464,14.175031,-13.060707,-6.4485874,2.174087,-5.5766973
1.112,0.943382,14.121044,-13.188555,-6.418973,2.1278846,-5.582047
1.114,1.1336005,14.061196,-13.303606,-6.384681,2.0773532,-5.588278
1.116,1.3208277,13.996949,-13.411341,-6.345437,2.0221658,-5.595544
1.118,1.4974782,13.930174,-13.517431,-6.301117,1.9620111,-5.6039524
1.12,1.6567843,13.862563,-13.6275215,-6.2517586,1.8966908,-5.613539
1.122,1.7930675,13.795229,-13.747931,-6.1975465,1.8260865,-5.624275
1.124,1.9007249,13.7295065,-13.8839445,-6.138721,1.7503794,-5.636073
1.126,1.9751444,13.666502,-14.040669,-6.0755224,1.6700436,-5.6487846
1.128,2.0125813,13.60725,-14.222655,-6.008298,1.5856537,-5.6621637
1.13,2.0103312,13.55293,-14.434103,-5.937394,1.49806,-5.6759286
1.132,1.9669361,13.504629,-14.678184,-5.863171,1.4083714,-5.6897273
1.134,1.8819823,13.463023,-14.957026,-5.7860165,1.3178583,-5.703209
1.136,1.756846,13.428269,-15.271761,-5.7063665,1.227874,-5.715989
1.138,1.5943885,13.400166,-15.622378,-5.624671,1.1397712,-5.727706
1.14,1.3981991,13.37845,-16.007599,-5.5413527,1.0548744,-5.738065
1.142,1.1731458,13.362224,-16.425236,-5.456815,0.97442764,-5.746857
1.144,0.9246974,13.350774,-16.872595,-5.371407,0.89950216,-5.753983
1.146,0.659163,13.3430195,-17.34614,-5.285451,0.8309884,-5.7594166
1.148,0.38339806,13.337898,-17.841696,-5.1992607,0.7695072,-5.763237
1.15,0.10397625,13.3343525,-18.353943,-5.1130924,0.7153952,-5.7655416
1.152,-0.1709547,13.330902,-18.877718,-5.027175,0.6685885,-5.7664704
1.154,-0.43429947,13.326065,-19.407667,-4.9417706,0.6286565,-5.766234
1.156,-0.67911243,13.318512,-19.93845,-4.8571405,0.5948041,-5.7649775
1.158,-0.8989439,13.306316,-20.464607,-4.7735686,0.5659229,-5.7627788
1.16,-1.0882969,13.28821,-20.980427,-4.6913185,0.5406121,-5.7596593
1.162,-1.2424812,13.262895,-21.48065,-4.6106634,0.51725346,-5.7556067
1.164,-1.3582602,13.22995,-21.960924,-4.531846,0.49413976,-5.750544
1.166,-1.4330711,13.18824,-22.418299,-4.4550385,0.46955845,-5.74437
1.168,-1.464778,13.137394,-22.849094,-4.3803377,0.44189817,-5.736964
1.17,-1.4539833,13.077061,-23.251003,-4.30774,0.40972236,-5.7282395
1.172,-1.4012251,13.007264,-23.62183,-4.237111,0.37185448,-5.7181377
1.174,-1.3087587,12.928498,-23.960361,-4.1681957,0.32734385,-5.70661
1.176,-1.1798201,12.841681,-24.266706,-4.100613,0.2755304,-5.6936016
1.178,-1.0188723,12.748194,-24.540968,-4.033946,0.21595234,-5.6790876
1.18,-0.83053017,12.649476,-24.78463,-3.9677358,0.14836079,-5.663075
1.182,-0.62061024,12.547133,-24.999722,-3.901475,0.072713494,-5.6455836
1.184,-0.39464092,12.443323,-25.188698,-3.8346453,-0.010847747,-5.6266794
1.186,-0.15832806,12.340201,-25.35445,-3.7667296,-0.102065206,-5.6064796
1.188,0.082214355,12.239786,-25.500572,-3.6972644,-0.20051402,-5.5850554
1.19,0.32121086,12.144159,-25.631039,-3.6258326,-0.30563688,-5.562445
1.192,0.55329037,12.055222,-25.74986,-3.552104,-0.4167552,-5.5386157
1.194,0.77353096,11.974981,-25.860746,-3.4758477,-0.53307205,-5.5134807
1.196,0.9779196,11.905037,-25.967144,-3.3969283,-0.6537038,-5.486877
1.198,1.163209,11.846494,-26.072495,-3.315274,-0.77764416,-5.4586244
1.2,1.3264408,11.800344,-26.17917,-3.230863,-0.90380067,-5.4285126
1.202,1.4663124,11.766855,-26.290203,-3.1437535,-1.0310202,-5.3962526
1.204,1.5815468,11.7465105,-26.409088,-3.054082,-1.1581502,-5.361581
1.206,1.6715984,11.739681,-26.538334,-2.9619837,-1.2839797,-5.3243012
1.208,1.7371559,11.746267,-26.679625,-2.8676224,-1.4073796,-5.2843175
1.21,1.779356,11.765998,-26.834679,-2.771195,-1.5273283,-5.2416115
1.212,1.7998905,11.798285,-27.004587,-2.672883,-1.6428785,-5.196265
1.214,1.8012705,11.842007,-27.189796,-2.5728846,-1.753216,-5.1484494
1.216,1.7858505,11.896067,-27.389605,-2.4713883,-1.8577008,-5.0983906
1.218,1.7571039,11.958899,-27.603142,-2.3685822,-1.9559169,-5.046348
1.22,1.7181206,12.029354,-27.829079,-2.2646546,-2.047665,-4.9925947
1.222,1.6728067,12.105967,-28.066511,-2.1597543,-2.1329877,-4.9373965
1.224,1.6242647,12.187893,-28.31448,-2.0540187,-2.2121713,-4.880955
1.226,1.5755234,12.2744255,-28.570745,-1.9475899,-2.2857645,-4.8234134
1.228,1.5305281,12.364439,-28.833952,-1.8405865,-2.35459,-4.764866
1.23,1.4921589,12.45726,-29.102478,-1.7331359,-2.419709,-4.7053604
1.232,1.4628496,12.552623,-29.37407,-1.6253508,-2.482409,-4.644868
1.234,1.4456024,12.650059,-29.647202,-1.5173728,-2.5441446,-4.583356
1.236,1.4429588,12.749187,-29.91986,-1.4093828,-2.6065001,-4.52079
1.238,1.4568529,12.850089,-30.19008,-1.3016105,-2.6711264,-4.4571233
1.24,1.4890594,12.952767,-30.456417,-1.194303,-2.7396443,-4.3923063
1.242,1.5409842,13.057206,-30.717531,-1.0877191,-2.813593,-4.3263416
1.244,1.6135798,13.16386,-30.972008,-0.9821088,-2.8943539,-4.2593083
1.246,1.7071257,13.273459,-31.218649,-0.8777066,-2.9831033,-4.191355
1.248,1.8217993,13.386657,-31.456377,-0.7747315,-3.080787,-4.1226764
1.25,1.957489,13.503589,-31.684244,-0.6733745,-3.1881158,-4.053544
1.252,2.113305,13.625103,-31.901363,-0.5738241,-3.3055968,-3.9842768
1.254,2.288476,13.751602,-32.10689,-0.47626764,-3.4336076,-3.9152877
1.256,2.4817047,13.883737,-32.29998,-0.38086802,-3.572361,-3.8471127
1.258,2.6914139,14.02166,-32.47986,-0.287798,-3.7219176,-3.7802927
1.26,2.9154186,14.165407,-32.64596,-0.19723016,-3.8822327,-3.7153733
1.262,3.1512604,14.315073,-32.79694,-0.10931021,-4.0530963,-3.6528776
1.264,3.396143,14.470614,-32.932095,-0.024137259,-4.234119,-3.593317
1.266,3.6468668,14.632094,-33.050682,0.05823183,-4.424768,-3.5371609
1.268,3.9000998,14.799713,-33.152447,0.13781512,-4.624296,-3.4847484
1.27,4.152586,14.973175,-33.23687,0.21467853,-4.8317327,-3.4363232
1.272,4.4007454,15.151984,-33.30309,0.28893065,-5.0459557,-3.3920155
1.274,4.641486,15.335304,-33.350372,0.36070096,-5.265753,-3.3518195
1.276,4.870967,15.52294,-33.377613,0.43012762,-5.4898405,-3.3156514
1.278,5.0854654,15.713779,-33.384697,0.49732375,-5.7169747,-3.2833972
1.28,5.2828274,15.906971,-33.370434,0.56236136,-5.945969,-3.2548833
1.282,5.45973,16.101913,-33.33464,0.6252706,-6.1756864,-3.229939
1.284,5.613743,16.29754,-33.277096,0.68602717,-6.4050293,-3.2084217
1.286,5.7426834,16.492573,-33.197258,0.74456966,-6.6329145,-3.1902466
1.288,5.8450813,16.686073,-33.094715,0.8008107,-6.85822,-3.1753483
1.29,5.9200163,16.877266,-32.96938,0.85470617,-7.0797067,-3.1637044
1.292,5.967181,17.065151,-32.821087,0.90623677,-7.2959948,-3.1553192
1.294,5.9868317,17.248514,-32.649536,0.9554038,-7.5055256,-3.1502242
1.296,5.979574,17.426228,-32.454838,1.0022689,-7.7065773,-3.148446
1.298,5.946705,17.597439,-32.236988,1.0469227,-7.897256,-3.1500306
1.3,5.8894978,17.761368,-31.996017,1.0894957,-8.075589,-3.1550539
1.302,5.8092613,17.917236,-31.73211,1.130173,-8.239574,-3.1636121
1.304,5.7078633,18.064367,-31.44578,1.1691729,-8.387236,-3.175831
1.306,5.5870934,18.202438,-31.137363,1.2067354,-8.516732,-3.1918845
1.308,5.448818,18.331244,-30.80714,1.2431206,-8.626354,-3.2119238
1.31,5.294924,18.450655,-30.455208,1.2785779,-8.714666,-3.2360969
1.312,5.1270523,18.560715,-30.081768,1.3133689,-8.7805395,-3.2645514
1.314,4.9468575,18.66171,-29.686928,1.3477244,-8.823156,-3.2974255
1.316,4.755746,18.754154,-29.27084,1.3818625,-8.842018,-3.334874
1.318,4.5552363,18.838634,-28.834183,1.4159517,-8.83693,-3.377018
1.32,4.346572,18.916048,-28.377657,1.4501194,-8.807955,-3.4239728
1.322,4.1314282,18.987377,-27.901915,1.4844685,-8.755372,-3.4758925
1.324,3.911368,19.053904,-27.408066,1.5190638,-8.679661,-3.5329695
1.326,3.6878238,19.11694,-26.897564,1.5539738,-8.58139,-3.5954342
1.328,3.4620602,19.177896,-26.37211,1.5892167,-8.4611845,-3.6635747
1.33,3.2355578,19.238556,-25.83343,1.6248035,-8.319682,-3.737696
1.332,3.0095222,19.300991,-25.282974,1.6607463,-8.157492,-3.8181152
1.334,2.7856731,19.366842,-24.721891,1.6970183,-7.975162,-3.9051635
1.336,2.565891,19.437654,-24.152397,1.7335868,-7.773205,-3.9991822
1.338,2.3516817,19.515488,-23.575912,1.7703868,-7.552142,-4.1004953
1.34,2.145122,19.601946,-22.994217,1.8073552,-7.3124876,-4.209388
1.342,1.9480153,19.698656,-22.409462,1.8444316,-7.0547686,-4.326151
1.344,1.7621913,19.807274,-21.823814,1.881521,-6.779572,-4.451049
1.346,1.5898986,19.929726,-21.239288,1.9185452,-6.487526,-4.5843205
1.348,1.4335698,20.067833,-20.658022,1.9554522,-6.179325,-4.7261577
1.35,1.2952946,20.223112,-20.082012,1.9922282,-5.8556542,-4.876706
1.352,1.1776879,20.396845,-19.512938,2.0288758,-5.517193,-5.0360446
1.354,1.0832696,20.589916,-18.95253,2.0654218,-5.1645813,-5.20418
1.356,1.0145328,20.803112,-18.402567,2.1019208,-4.7983656,-5.3810964
1.358,0.97408056,21.036852,-17.864635,2.138426,-4.4190044,-5.5667067
1.36,0.96466166,21.291565,-17.34078,2.1750164,-4.0268254,-5.7608204
1.362,0.98924977,21.567081,-16.832867,2.2118192,-3.6220384,-5.963235
1.364,1.0504862,21.863358,-16.342737,2.2489696,-3.2047806,-6.173694
1.366,1.1511825,22.179876,-15.87179,2.286667,-2.775086,-6.391882
1.368,1.2935085,22.516336,-15.42112,2.3251293,-2.3329415,-6.617441
1.37,1.4796093,22.872456,-14.991898,2.3646104,-1.878366,-6.84992
1.372,1.7115092,23.247488,-14.585535,2.4054313,-1.4114146,-7.0888247
1.374,1.9908693,23.640553,-14.203049,2.4479587,-0.93222356,-7.333558
1.376,2.3192189,24.050531,-13.844902,2.4925945,-0.4410677,-7.583404
1.378,2.6974618,24.476393,-13.51147,2.5397625,0.06163907,-7.8375673
1.38,3.126298,24.917038,-13.202971,2.5898829,0.5752647,-8.095202
1.382,3.6061006,25.371275,-12.919392,2.6433644,1.0989418,-8.355376
1.384,4.136364,25.837938,-12.660639,2.7005515,1.6315958,-8.617074
1.386,4.716693,26.31571,-12.426449,2.7617135,2.1719134,-8.879213
1.388,5.346749,26.802973,-12.216566,2.827022,2.7183225,-9.140667
1.39,6.02541,27.29777,-12.030557,2.8965673,3.2690423,-9.400268
1.392,6.751334,27.798061,-11.86751,2.970317,3.8221192,-9.65682
1.394,7.522889,28.30198,-11.7266655,3.048108,4.3754816,-9.909135
1.396,8.338118,28.807678,-11.607304,3.1297274,4.927041,-10.1559925
1.398,9.195108,29.313156,-11.508459,3.2149043,5.4747577,-10.396181
1.4,10.092039,29.815704,-11.429241,3.3033822,6.0167646,-10.628494
1.402,11.026844,30.312637,-11.368585,3.3949134,6.551424,-10.851765
1.404,11.99707,30.801472,-11.325151,3.4893062,7.0773907,-11.064856
1.406,13.000347,31.279802,-11.297643,3.5864651,7.5936904,-11.266676
1.408,14.03437,31.745037,-11.284923,3.6863525,8.099733,-11.456204
1.41,15.096653,32.194603,-11.285991,3.7890184,8.595275,-11.632509
1.412,16.184832,32.625946,-11.299845,3.894531,9.080402,-11.794754
1.414,17.29626,33.036873,-11.325614,4.002946,9.55549,-11.942271
1.416,18.428162,33.42518,-11.362685,4.114297,10.021091,-12.07452
1.418,19.577656,33.78891,-11.410087,4.2285347,10.477928,-12.191067
1.42,20.74173,34.126537,-11.467051,4.3454995,10.9268,-12.291624
1.422,21.91728,34.4368,-11.532328,4.464954,11.368528,-12.375912
1.424,23.101128,34.718704,-11.604878,4.5865803,11.803968,-12.443755
1.426,24.290243,34.97154,-11.683521,4.70991,12.233807,-12.494972
1.428,25.48192,35.19501,-11.766805,4.8344083,12.658764,-12.529422
1.43,26.673376,35.38916,-11.853363,4.959506,13.079446,-12.546953
1.432,27.861881,35.554077,-11.941726,5.0846,13.496309,-12.547343
1.434,29.045486,35.6903,-12.030419,5.2090793,13.909633,-12.5303
1.436,30.22307,35.798576,-12.118046,5.332354,14.319538,-12.495553
1.438,31.393562,35.879807,-12.2036295,5.453846,14.725842,-12.4429
1.44,32.55691,35.9348,-12.285902,5.572962,15.128186,-12.372153
1.442,33.713684,35.964256,-12.363691,5.6891074,15.526041,-12.283218
1.444,34.86525,35.968513,-12.436075,5.801613,15.918761,-12.176174
1.446,36.01316,35.9485,-12.502949,5.909758,16.305597,-12.051212
1.448,37.160267,35.90497,-12.563963,6.01275,16.68586,-11.908686
1.45,38.31005,35.83867,-12.617895,6.109728,17.058979,-11.749115
1.452,39.466026,35.750046,-12.664893,6.1997685,17.42457,-11.573145
1.454,40.632782,35.638634,-12.705037,6.2819266,17.782482,-11.381508
1.456,41.814587,35.504242,-12.738515,6.3551874,18.13278,-11.175024
1.458,43.016098,35.346912,-12.76515,6.418535,18.475689,-10.954506
1.46,44.24246,35.166492,-12.785087,6.4709415,18.811468,-10.720758
1.462,45.499115,34.962414,-12.799784,6.5113297,19.14032,-10.474599
1.464,46.79217,34.7337,-12.811144,6.538637,19.46242,-10.216831
1.466,48.127716,34.47893,-12.820406,6.5517917,19.77773,-9.94822
1.468,49.51136,34.196526,-12.829281,6.5496902,20.085968,-9.66956
1.47,50.94896,33.884815,-12.83939,6.5312166,20.3867,-9.381579
1.472,52.445877,33.541904,-12.8517475,6.4952955,20.679312,-9.084984
1.474,54.007896,33.165527,-12.866035,6.4409094,20.963028,-8.780411
1.476,55.640347,32.75383,-12.882299,6.3671227,21.236956,-8.468359
1.478,57.34992,32.30423,-12.901642,6.2730474,21.500206,-8.149178
1.48,59.144363,31.813639,-12.925198,6.15798,21.751993,-7.823106
1.482,61.03109,31.2807,-12.953846,6.02138,21.991575,-7.490271
1.484,63.017166,30.704552,-12.988991,5.8628116,22.218294,-7.150634
1.486,65.11049,30.085258,-13.031757,5.681857,22.431507,-6.804004
1.488,67.32057,29.422535,-13.082762,5.478064,22.63067,-6.4500685
1.49,69.655304,28.71953,-13.143738,5.250956,22.815413,-6.088441
1.492,72.12251,27.981873,-13.217171,4.9999523,22.985565,-5.718699
1.494,74.72853,27.217628,-13.304152,4.724313,23.141096,-5.340417
1.496,77.47969,26.43665,-13.406467,4.423087,23.282135,-4.953121
1.498,80.38271,25.649193,-13.526051,4.0951605,23.40908,-4.556225
1.5,83.442665,24.869219,-13.66617,3.7392812,23.522554,-4.1490474
1.502,86.661316,24.120731,-13.833136,3.35398,23.622995,-3.7307262
1.504,90.0263,23.444359,-14.02935,2.9376626,23.710764,-3.3001378
1.506,93.53468,22.857533,-14.237297,2.4887948,23.786335,-2.855888
1.508,97.18057,22.366903,-14.458107,2.006031,23.850304,-2.3963146
1.51,100.96202,22.004326,-14.704901,1.4882569,23.903076,-1.9194169
1.512,104.86772,21.821754,-14.978947,0.93462086,23.944937,-1.4230016
1.514,108.884926,21.85917,-15.272239,0.344656,23.976152,-0.9047438
1.516,112.9968,22.167088,-15.586233,-0.28152752,23.997158,-0.36202008
1.518,117.19207,22.779625,-15.913128,-0.9433718,24.008726,0.20821089
1.52,121.453735,23.738684,-16.254747,-1.6397471,24.012056,0.80920154
1.522,125.75565,25.130568,-16.616268,-2.368936,24.008488,1.4440526
1.524,130.06792,26.987068,-17.013596,-3.1287012,23.999264,2.1153278
1.526,134.41025,29.306602,-17.416954,-3.9163637,23.985552,2.8249795
1.528,138.78772,32.064323,-17.851984,-4.729002,23.967688,3.5743392
1.53,143.19417,35.301266,-18.3355,-5.5638447,23.944296,4.36401
1.532,147.54904,39.07454,-18.879185,-6.4183264,23.911507,5.1933007
1.534,151.84262,43.41574,-19.47065,-7.2905097,23.861494,6.0589213
1.536,156.07895,48.37745,-20.047218,-8.179956,23.784039,6.956678
1.538,160.27063,54.010864,-20.587727,-9.086634,23.66756,7.882685
1.54,164.41124,60.267715,-21.178997,-10.011153,23.496706,8.833376
1.542,168.50728,67.105,-21.784569,-10.956373,23.250769,9.804506
1.544,172.55118,74.39552,-22.345024,-11.925781,22.908329,10.792857
1.546,176.54749,82.01226,-22.868282,-12.922708,22.448528,11.796877
1.548,180.5502,89.95673,-23.277927,-13.950697,21.851385,12.819334
1.55,184.60858,98.18251,-23.457294,-15.01248,21.101305,13.869158
1.552,188.76105,106.57735,-23.382313,-16.109642,20.187435,14.959436
1.554,193.05331,115.034706,-23.118954,-17.244072,19.101543,16.107958
1.556,197.51498,123.470085,-22.675003,-18.417692,17.84198,17.343237
1.558,202.14714,131.77269,-22.008354,-19.63276,16.411612,18.70713
1.56,206.92172,139.83517,-21.070583,-20.88702,14.825287,20.240013
1.562,211.8623,147.5325,-19.819372,-22.172222,13.11772,21.970413
1.564,216.97987,154.68442,-18.251322,-23.488785,11.322003,23.932585
1.566,222.27171,161.16634,-16.335808,-24.85112,9.464272,26.144089
1.568,227.70433,166.88745,-14.031266,-26.271093,7.565337,28.60665
1.57,233.25023,171.76408,-11.29664,-27.750797,5.650811,31.310663
1.572,238.85945,175.73634,-8.104238,-29.293991,3.747769,34.200172
1.574,244.44627,178.77715,-4.4390335,-30.911192,1.8798983,37.18473
1.576,249.90611,180.87425,-0.29676437,-32.62301,0.041918755,40.18371
1.578,255.12636,182.02722,4.312351,-34.439747,-1.7848699,43.084473
1.58,259.98807,182.25063,9.371666,-36.35625,-3.6340175,45.746796
1.582,264.36566,181.58002,14.849844,-38.346,-5.55339,48.012043
1.584,268.12766,180.0762,20.69345,-40.351734,-7.5955687,49.70929
1.586,271.1517,177.80775,26.840828,-42.291134,-9.816921,50.677204
1.588,273.31903,174.85858,33.221764,-44.062622,-12.272917,50.79566
1.59,274.51877,171.3262,39.752872,-45.54465,-14.997097,49.99792
1.592,274.66327,167.30676,46.328712,-46.601963,-17.98281,48.27648
1.594,273.69714,162.89719,52.82467,-47.097904,-21.176075,45.68837
1.596,271.59665,158.2028,59.102905,-46.90715,-24.476145,42.351925
1.598,268.3664,153.33588,65.01906,-45.930275,-27.743685,38.43148
1.6,264.04092,148.40482,70.429535,-44.106277,-30.809368,34.123215
1.602,258.68298,143.51266,75.19527,-41.4201,-33.489376,29.633152
1.604,252.38364,138.75162,79.191696,-37.909367,-35.61189,25.155703
1.606,245.2568,134.20007,82.316284,-33.66544,-37.037598,20.865068
1.608,237.43573,129.92413,84.48961,-28.828259,-37.6736,16.91086
1.61,229.06859,125.97426,85.658295,-23.57724,-37.488888,13.412516
1.612,220.31476,122.381775,85.79712,-18.115252,-36.514854,10.460698
1.614,211.34607,119.15706,84.90304,-12.655035,-34.84419,8.1283865
1.616,202.31694,116.32511,82.98744,-7.4017153,-32.61999,6.466834
1.618,193.37488,113.90402,80.11354,-2.5251274,-30.000177,5.4804883
1.62,184.64966,111.87326,76.37952,1.8480978,-27.147156,5.1413474
1.622,176.26299,110.189606,71.891,5.624488,-24.221931,5.3756275
1.624,168.31505,108.81995,66.76435,8.749415,-21.379984,6.059974
1.626,160.88548,107.71748,61.140343,11.221491,-18.753948,7.052744
1.628,154.02386,106.84659,55.158104,13.087078,-16.443024,8.181411
1.63,147.7633,106.15739,48.967625,14.428285,-14.495876,9.234898
1.632,142.12105,105.56342,42.71405,15.335596,-12.935476,10.039783
1.634,137.09326,105.03598,36.537098,15.905252,-11.7567005,10.4690695
1.636,132.61794,104.56214,30.519814,16.234314,-10.925886,10.450699
1.638,128.64879,104.1262,24.783333,16.412983,-10.3881,9.975372
1.64,125.14596,103.640274,19.409126,16.52796,-10.066153,9.085487
1.642,122.120575,103.01839,14.448372,16.658335,-9.867108,7.8579106
1.644,119.49558,102.21528,9.912052,16.86473,-9.703185,6.3993006
1.646,117.18977,101.17872,5.7626762,17.18613,-9.500612,4.8351436
1.648,115.12828,99.87637,2.004467,17.643002,-9.198948,3.290506
1.65,113.2658,98.36849,-1.2885361,18.238459,-8.754395,1.8743095
1.652,111.55227,96.68556,-4.1907387,18.959658,-8.144843,0.6698189
1.654,109.95744,94.90839,-6.7835846,19.781248,-7.3716154,-0.27327204
1.656,108.4447,93.07558,-9.07864,20.668436,-6.456165,-0.9359703
1.658,106.94618,91.10137,-11.164488,21.581814,-5.43147,-1.3232136
1.66,105.4227,88.974396,-13.133213,22.481632,-4.3368545,-1.4610395
1.662,103.85982,86.746,-14.967789,23.330917,-3.2145376,-1.3921461
1.664,102.24376,84.44796,-16.59156,24.096806,-2.1037807,-1.166811
1.666,100.579704,82.089096,-18.01559,24.750557,-1.0379863,-0.8346796
1.668,98.88974,79.706215,-19.296528,25.269535,-0.04340601,-0.43897915
1.67,97.20303,77.330635,-20.479391,25.639341,0.8623638,-0.013750076
1.672,95.48581,75.00807,-21.5874,25.852243,1.6698027,0.41699123
1.674,93.717285,72.820175,-22.605143,25.906065,2.3756323,0.8390446
1.676,91.8864,70.779045,-23.548252,25.80407,2.9817147,1.2463636
1.678,90.000946,68.87385,-24.43689,25.55384,3.4936776,1.6384678
1.68,88.05095,67.104355,-25.283792,25.165953,3.9194999,2.0186958
1.682,86.03955,65.46556,-26.087301,24.653397,4.268617,2.3933563
1.684,83.98897,63.944534,-26.839813,24.031124,4.550455,2.7702942
1.686,81.92078,62.539597,-27.533884,23.315369,4.7738523,3.1568923
1.688,79.84812,61.258984,-28.161924,22.522224,4.9465537,3.558381
1.69,77.78,60.113846,-28.724329,21.666824,5.0744457,3.977006
1.692,75.726906,59.11003,-29.222275,20.763063,5.1617975,4.4123745
1.694,73.70241,58.24592,-29.652409,19.823463,5.2115927,4.8623333
1.696,71.71437,57.52636,-30.019598,18.859098,5.225822,5.323423
1.698,69.77421,56.95171,-30.332499,17.879755,5.205943,5.7911158
1.7,67.895325,56.51802,-30.597702,16.894098,5.153373,6.2600894
1.702,66.08433,56.22558,-30.811903,15.909697,5.0697484,6.7245855
1.704,64.33811,56.073277,-30.966524,14.933141,4.957104,7.178659
1.706,62.650475,56.048923,-31.053255,13.970222,4.8179207,7.616396
1.708,61.01708,56.133377,-31.067257,13.026045,4.6550865,8.03223
1.71,59.43655,56.307526,-31.007484,12.105104,4.4718175,8.421281
1.712,57.907585,56.554413,-30.875542,11.211408,4.2715025,8.7797985
1.714,56.429375,56.861164,-30.679735,10.348421,4.0575037,9.1054125
1.716,54.99965,57.220383,-30.432396,9.519103,3.8331375,9.397289
1.718,53.615936,57.62587,-30.145285,8.7259035,3.6015713,9.6560335
1.72,52.27595,58.070637,-29.828178,7.9708395,3.3657491,9.883233
1.722,50.977127,58.54711,-29.486961,7.2555065,3.1282942,10.080951
1.724,49.71643,59.04679,-29.124296,6.5810957,2.8915043,10.251318
1.726,48.49076,59.56092,-28.742579,5.948421,2.6573374,10.3962345
1.728,47.29734,60.080254,-28.344822,5.357909,2.4274209,10.517152
1.73,46.133038,60.596386,-27.934206,4.8095956,2.203004,10.615013
1.732,44.99489,61.101006,-27.513521,4.30305,1.9849186,10.690315
1.734,43.879616,61.586464,-27.084816,3.8374252,1.7737195,10.743285
1.736,42.78429,62.04535,-26.649696,3.4114647,1.569645,10.774057
1.738,41.705837,62.470722,-26.208986,3.0235348,1.3726692,10.78299
1.74,40.64158,62.85639,-25.762764,2.671713,1.1825651,10.770924
1.742,39.589058,63.1968,-25.310162,2.3538399,0.9989277,10.739318
1.744,38.5468,63.487476,-24.849209,2.0676222,0.82122374,10.690227
1.746,37.513786,63.725494,-24.37767,1.8106942,0.64880395,10.62628
1.748,36.489113,63.908997,-23.893007,1.5806667,0.4809351,10.550519
1.75,35.472668,64.03674,-23.392485,1.3751581,0.31678677,10.466204
1.752,34.464584,64.10822,-22.874008,1.1918261,0.15543556,10.376594
1.754,33.465702,64.122665,-22.335976,1.0283737,-0.0040593147,10.284708
1.756,32.476807,64.080086,-21.777132,0.88258755,-0.16268945,10.193177
1.758,31.499073,63.98058,-21.195986,0.7522956,-0.32148838,10.104115
1.76,30.533821,63.825127,-20.59118,0.6353425,-0.48153973,10.01912
1.762,29.582233,63.615555,-19.96175,0.52964115,-0.6439314,9.939293
1.764,28.645678,63.35374,-19.306808,0.4331845,-0.809731,9.865264
1.766,27.725574,63.042194,-18.625782,0.34407938,-0.9799528,9.79721
1.768,26.823381,62.683617,-17.91816,0.26058626,-1.155585,9.734897
1.77,25.9403,62.281097,-17.183819,0.18112373,-1.3375416,9.677855
1.772,25.077307,61.837395,-16.422802,0.104284525,-1.526646,9.625354
1.774,24.23489,61.355404,-15.635475,0.028844833,-1.723638,9.576548
1.776,23.413025,60.837666,-14.822109,-0.046248138,-1.9291859,9.530551
1.778,22.612057,60.286007,-13.983077,-0.121865034,-2.1438584,9.486478
1.78,21.831917,59.7021,-13.119409,-0.19873977,-2.3681197,9.443482
1.782,21.072384,59.08712,-12.232119,-0.27743334,-2.6023173,9.400772
1.784,20.33296,58.4423,-11.32202,-0.35835034,-2.8466969,9.357655
1.786,19.613571,57.76806,-10.390115,-0.441724,-3.1013186,9.313558
1.788,18.914053,57.06468,-9.437409,-0.52762175,-3.3660617,9.268028
1.79,18.234325,56.332546,-8.464972,-0.6159366,-3.6405692,9.220716
1.792,17.574343,55.57202,-7.473803,-0.70635456,-3.924255,9.171358
1.794,16.93411,54.78346,-6.4649878,-0.79841113,-4.2162385,9.119754
1.796,16.313805,53.96731,-5.4398875,-0.89146495,-4.51536,9.065749
1.798,15.713747,53.124016,-4.399814,-0.9847215,-4.820209,9.009232
1.8,15.133974,52.254234,-3.3461537,-1.077244,-5.12911,8.950038
1.802,14.574792,51.358486,-2.2803106,-1.1680074,-5.440134,8.8879175
1.804,14.036131,50.437424,-1.2038641,-1.2559086,-5.7511177,8.822477
1.806,13.517985,49.4918,-0.11812687,-1.3397975,-6.0597243,8.7531805
1.808,13.020046,48.522373,0.9751568,-1.4185045,-6.363433,8.679312
1.81,12.542131,47.530033,2.074236,-1.4908643,-6.6595817,8.599985
1.812,12.083916,46.515877,3.1771116,-1.5557679,-6.9454126,8.514202
1.814,11.644775,45.48118,4.281848,-1.6121669,-7.21812,8.420898
1.816,11.223974,44.42736,5.3860607,-1.6591127,-7.4748645,8.318983
1.818,10.820477,43.35621,6.4872227,-1.6957525,-7.7128406,8.207452
1.82,10.433045,42.269386,7.582755,-1.7213771,-7.9292927,8.085426
1.822,10.060507,41.168762,8.66968,-1.7354193,-8.121581,7.9522595
1.824,9.701323,40.056293,9.7450695,-1.737488,-8.287247,7.8074975
1.826,9.354128,38.93403,10.80576,-1.7273722,-8.424065,7.65099
1.828,9.017324,37.804264,11.84845,-1.7050676,-8.530054,7.4827967
1.83,8.689235,36.669266,12.86989,-1.670768,-8.603535,7.303212
1.832,8.368219,35.531425,13.866739,-1.6248689,-8.64322,7.1127386
1.834,8.052687,34.393154,14.835583,-1.5680025,-8.648194,6.912094
1.836,7.741329,33.256817,15.773293,-1.5010595,-8.617998,6.7022686
1.838,7.4328394,32.124756,16.676868,-1.4251528,-8.552597,6.4844923
1.84,7.1262937,30.999226,17.543085,-1.3416255,-8.452479,6.2603283
1.842,6.820685,29.882793,18.369144,-1.2519834,-8.318601,6.03159
1.844,6.5153065,28.778116,19.152246,-1.157886,-8.152299,5.8002987
1.846,6.2094836,27.687677,19.889885,-1.0610852,-7.9552374,5.568657
1.848,5.903248,26.613974,20.579897,-0.9633682,-7.729423,5.338928
1.85,5.5965614,25.55948,21.220322,-0.8664584,-7.4770803,5.1133537
1.852,5.28979,24.52666,21.809586,-0.77196777,-7.2005587,4.894019
1.854,4.9835906,23.517569,22.346394,-0.6813487,-6.902341,4.6827626
1.856,4.6784887,22.534435,22.829784,-0.59583294,-6.5849385,4.481054
1.858,4.3754416,21.579231,23.259232,-0.51643586,-6.2508526,4.2899256
1.86,4.0753307,20.653795,23.634407,-0.44394565,-5.902521,4.109907
1.862,3.7789674,19.759697,23.95544,-0.37895775,-5.542352,3.9410374
1.864,3.4876423,18.898365,24.222763,-0.3219223,-5.1726966,3.7829247
1.866,3.2024739,18.07079,24.43697,-0.2731321,-4.7958174,3.6348042
1.868,2.9246197,17.278004,24.599007,-0.23280168,-4.4139047,3.4956548
1.87,2.655288,16.520462,24.710228,-0.20108879,-4.029102,3.364323
1.872,2.3957725,15.7985115,24.772303,-0.17812455,-3.6434827,3.2396097
1.874,2.1470816,15.112326,24.787169,-0.16400683,-3.2589967,3.1203566
1.876,1.9101024,14.461823,24.757109,-0.15879309,-2.877479,3.0055158
1.878,1.685772,13.846676,24.684566,-0.16250902,-2.500624,2.8941853
1.88,1.4749398,13.266262,24.57207,-0.17514473,-2.1299794,2.7856255
1.882,1.278321,12.7199135,24.422575,-0.19665658,-1.7668827,2.67925
1.884,1.0963743,12.206806,24.239199,-0.2269693,-1.4124818,2.5746033
1.886,0.92955637,11.726141,24.02501,-0.26599008,-1.0677384,2.4713254
1.888,0.7780113,11.277024,23.783283,-0.3135718,-0.73341334,2.369102
1.89,0.6419593,10.858284,23.51754,-0.36952722,-0.4100619,2.2676206
1.892,0.5214081,10.468754,23.231033,-0.43363088,-0.09808761,2.1665738
1.894,0.41636825,10.107169,22.926804,-0.5056379,0.2022627,2.0656393
1.896,0.3265941,9.772478,22.608112,-0.58528304,0.49084318,1.9645442
1.898,0.2518587,9.463493,22.27801,-0.67226946,0.76755613,1.8630996
1.9,0.19173312,9.179118,21.939537,-0.76626724,1.0323758,1.7611634
1.902,0.14576638,8.918497,21.595484,-0.86690784,1.2853752,1.6586429
1.904,0.11367023,8.680717,21.248306,-0.9738203,1.5266823,1.5554705
1.906,0.095179915,8.464929,20.900036,-1.0866386,1.7564545,1.4516197
1.908,0.0898931,8.270082,20.5522,-1.2049826,1.9748952,1.3471323
1.91,0.097408175,8.095415,20.206282,-1.3284962,2.1822398,1.2420954
1.912,0.11741018,7.9402533,19.863417,-1.4568114,2.378764,1.1366277
1.914,0.14968753,7.8040996,19.52454,-1.5895792,2.5647821,1.0308657
1.916,0.19387925,7.686426,19.190512,-1.7264695,2.7406633,0.92494357
1.918,0.24989974,7.58696,18.861858,-1.8671751,2.906835,0.81896293
1.92,0.31738472,7.5054617,18.53879,-2.0114346,3.0637736,0.7130183
1.922,0.39627206,7.4416046,18.22127,-2.1590133,3.211976,0.6071531
1.924,0.48647964,7.3950477,17.908947,-2.3097024,3.3519635,0.5013982
1.926,0.5878025,7.3657627,17.601715,-2.463339,3.4842603,0.39579085
1.928,0.7000983,7.3535905,17.299307,-2.6197827,3.6093483,0.29036984
1.93,0.8233882,7.358363,17.001219,-2.7788937,3.727645,0.185182
1.932,0.9573121,7.379852,16.70693,-2.9405274,3.8395452,0.08024931
1.934,1.1018307,7.417751,16.415892,-3.1045475,3.9453688,-0.024452686
1.936,1.2567649,7.4715486,16.12762,-3.2707942,4.0453105,-0.1289891
1.938,1.421757,7.540575,15.841665,-3.439077,4.1394596,-0.23344126
1.94,1.5966544,7.6241684,15.557569,-3.60917,4.2278194,-0.3379401
1.942,1.7811503,7.721465,15.274973,-3.780806,4.310297,-0.4426331
1.944,1.9749029,7.831559,14.993519,-3.9537022,4.3867264,-0.54770803
1.946,2.1773913,7.953433,14.713,-4.127544,4.456915,-0.65339917
1.948,2.3880208,8.08597,14.433284,-4.3020387,4.520671,-0.7599835
1.95,2.6062613,8.22798,14.154357,-4.4768963,4.5778265,-0.86776125
1.952,2.831309,8.378216,13.876321,-4.651858,4.6282887,-0.97704744
1.954,3.0623724,8.535324,13.599294,-4.826713,4.6720567,-1.0881661
1.956,3.2987237,8.698034,13.323756,-5.001292,4.7092247,-1.2013791
1.958,3.539215,8.865385,13.049964,-5.1754446,4.7399607,-1.3168759
1.96,3.7829328,9.036147,12.77826,-5.349041,4.764539,-1.4347414
1.962,4.0289693,9.209202,12.508701,-5.5219727,4.7832694,-1.5549257
1.964,4.2763567,9.383482,12.241634,-5.6941004,4.7964892,-1.6772267
1.966,4.5241203,9.55801,11.977359,-5.8653083,4.8045473,-1.8012671
1.968,4.771384,9.7321,11.71607,-6.035446,4.8077946,-1.9265361
1.97,5.0171347,9.905117,11.457944,-6.204335,4.8065443,-2.052393
1.972,5.2606635,10.076633,11.203339,-6.3717933,4.8011394,-2.1781285
1.974,5.501745,10.245862,10.952517,-6.5376353,4.7918916,-2.3030393
1.976,5.7382,10.41366,10.705249,-6.7016926,4.779151,-2.4264386
1.978,5.969415,10.579972,10.462095,-6.863842,4.7632203,-2.5476816
1.98,6.1955953,10.745021,10.22413,-7.0239835,4.744389,-2.6661882
1.982,6.41688,10.909187,9.991244,-7.182105,4.722923,-2.78143
1.984,6.6328793,11.07317,9.7633095,-7.338244,4.6990004,-2.8929033
1.986,6.8434525,11.237566,9.540441,-7.4925103,4.6727047,-3.0000942
1.988,7.049123,11.40291,9.322548,-7.6450486,4.6440773,-3.102515
1.99,7.250082,11.56985,9.109781,-7.7960567,4.6131325,-3.199758
1.992,7.446869,11.738892,8.902426,-7.945762,4.5798416,-3.2914882
1.994,7.6402845,11.910834,8.70096,-8.094447,4.544129,-3.3774295
1.996,7.831219,12.086281,8.505867,-8.242375,4.505927,-3.4573874
1.998,8.020789,12.26614,8.317635,-8.389791,4.465232,-3.5312445
2,8.210323,12.451195,8.13681,-8.536929,4.422122,-3.598997
2.002,8.401222,12.642093,7.964,-8.683974,4.376824,-3.6607416
2.004,8.59491,12.839657,7.799983,-8.830985,4.329931,-3.7166524
2.006,8.792876,13.044419,7.645276,-8.977912,4.2822323,-3.767044
2.008,8.996717,13.256867,7.500536,-9.12476,4.234512,-3.8122334
2.01,9.208166,13.47743,7.366264,-9.271374,4.1879272,-3.8524756
2.012,9.428869,13.706293,7.242753,-9.417409,4.143941,-3.8880587
2.014,9.660215,13.943684,7.1304426,-9.562415,4.1041427,-3.9192758
2.016,9.903636,14.189796,7.0297194,-9.705747,4.0702944,-3.9463346
2.018,10.160496,14.444835,6.9407907,-9.846642,4.0442004,-3.9693685
2.02,10.432212,14.708851,6.8635345,-9.984233,4.0275283,-3.9884794
2.022,10.719921,14.981766,6.7977877,-10.117649,4.021697,-4.0037494
2.024,11.024461,15.263441,6.743153,-10.246109,4.0277567,-4.015271
2.026,11.346937,15.553724,6.6990204,-10.368954,4.046311,-4.0231943
2.028,11.687914,15.852526,6.6647696,-10.48571,4.0775304,-4.0278044
2.03,12.047984,16.159636,6.6395926,-10.596102,4.1211443,-4.0295434
2.032,12.427454,16.47494,6.6226063,-10.699991,4.176523,-4.0289907
2.034,12.82667,16.798384,6.6128216,-10.797378,4.242733,-4.0268145
2.036,13.246068,17.129833,6.6092844,-10.888289,4.3187084,-4.023705
2.038,13.685692,17.469296,6.611248,-10.972778,4.4033613,-4.0203004
2.04,14.145678,17.816963,6.618291,-11.050829,4.495648,-4.017145
2.042,14.626289,18.172749,6.6297145,-11.122361,4.5946755,-4.014583
2.044,15.1263895,18.53704,6.6444016,-11.187191,4.6997657,-4.0127664
2.046,15.645184,18.91016,6.661391,-11.245049,4.810567,-4.011704
2.048,16.182713,19.29235,6.6805043,-11.295553,4.9270654,-4.011324
2.05,16.739126,19.683832,6.7012815,-11.338231,5.0495777,-4.0114985
2.052,17.313667,20.084679,6.723256,-11.372509,5.17877,-4.012125
2.054,17.905426,20.49503,6.7455354,-11.397672,5.3156896,-4.0131316
2.056,18.513636,20.914974,6.7673225,-11.412852,5.4617267,-4.0145874
2.058,19.137972,21.344002,6.7877874,-11.417069,5.618446,-4.0166864
2.06,19.777905,21.781982,6.8056116,-11.409177,5.7877707,-4.019668
2.062,20.433016,22.227865,6.819771,-11.387768,5.972001,-4.02388
2.064,21.103485,22.680122,6.82868,-11.35148,6.173255,-4.0297203
2.066,21.789392,23.13674,6.830035,-11.298993,6.3935094,-4.037498
2.068,22.491169,23.594732,6.8217463,-11.229028,6.6346107,-4.0473886
2.07,23.208454,24.05091,6.801575,-11.140461,6.898143,-4.059517
2.072,23.940434,24.501686,6.767129,-11.032328,7.1853685,-4.0739384
2.074,24.685883,24.943262,6.7156324,-10.903849,7.4971933,-4.0906444
2.076,25.445349,25.37101,6.643971,-10.754556,7.834017,-4.1093783
2.078,26.217585,25.779736,6.5493116,-10.584163,8.19587,-4.129669
2.08,27.00121,26.164047,6.428808,-10.392493,8.582402,-4.1510243
2.082,27.794426,26.518188,6.2792163,-10.179525,8.992884,-4.1728806
2.084,28.59473,26.836601,6.0971985,-9.945414,9.426252,-4.1946445
2.086,29.40173,27.111856,5.880768,-9.690444,9.881192,-4.2157726
2.088,30.212282,27.33786,5.626768,-9.415011,10.356219,-4.235816
2.09,31.022087,27.508135,5.332315,-9.119662,10.849517,-4.254592
2.092,31.826729,27.616636,4.9964943,-8.805139,11.359073,-4.2721243
2.094,32.622917,27.657097,4.618124,-8.472369,11.882669,-4.2886496
2.096,33.406254,27.623755,4.196875,-8.122435,12.417872,-4.3046675
2.098,34.171295,27.511463,3.7326422,-7.7565966,12.961977,-4.320876
2.1,34.912315,27.315977,3.2257776,-7.376192,13.511942,-4.3381
2.102,35.622753,27.033817,2.6768208,-6.9827046,14.064362,-4.357121
2.104,36.296055,26.662092,2.0867205,-6.5777273,14.615352,-4.378587
2.106,36.924892,26.19926,1.4573593,-6.1627994,15.160565,-4.402875
2.108,37.501583,25.64472,0.7908497,-5.7394094,15.69512,-4.430031
2.11,38.017548,24.999664,0.089660645,-5.3089714,16.21366,-4.4595814
2.112,38.464092,24.266788,-0.6431198,-4.872907,16.710258,-4.4904246
2.114,38.83259,23.450247,-1.4039917,-4.432748,17.17833,-4.520744
2.116,39.114563,22.555998,-2.1889477,-3.990164,17.61089,-4.547988
2.118,39.301926,21.59169,-2.993885,-3.5471375,18.000456,-4.5689073
2.12,39.38699,20.566246,-3.8141518,-3.1062841,18.339113,-4.5796556
2.122,39.36345,19.489758,-4.644928,-2.6707478,18.618895,-4.576064
2.124,39.22646,18.373428,-5.4812326,-2.244272,18.832123,-4.5539722
2.126,38.97189,17.22892,-6.317914,-1.8310486,18.971926,-4.5095325
2.128,38.596184,16.069546,-7.1503563,-1.4357152,19.032425,-4.4396315
2.13,38.098747,14.908341,-7.973173,-1.0631272,19.009033,-4.3423367
2.132,37.481503,13.757777,-8.780481,-0.7181705,18.898752,-4.2169523
2.134,36.748245,12.630116,-9.566496,-0.40556312,18.700293,-4.063942
2.136,35.903957,11.537499,-10.325245,-0.12947845,18.4142,-3.8849802
2.138,34.956326,10.490814,-11.050891,0.106621504,18.042795,-3.6828246
2.14,33.914856,9.499874,-11.737514,0.30015087,17.590027,-3.4610095
2.142,32.79108,8.573244,-12.379291,0.44941497,17.06112,-3.2235427
2.144,31.597736,7.717783,-12.9704895,0.5537424,16.462551,-2.9745288
2.146,30.34879,6.938883,-13.505976,0.6134746,15.801626,-2.7180583
2.148,29.059547,6.2402573,-13.981007,0.62988174,15.086235,-2.458013
2.15,27.745754,5.623472,-14.391731,0.6050856,14.324628,-2.1979046
2.152,26.423536,5.088996,-14.734449,0.542011,13.525227,-1.9408443
2.154,25.109934,4.63504,-15.005981,0.444242,12.696426,-1.6895667
2.156,23.82046,4.2579823,-15.204446,0.3159331,11.846464,-1.446346
2.158,22.568981,3.9533434,-15.329472,0.1616857,10.983244,-1.2129683
2.16,21.368553,3.7155163,-15.38142,-0.013603568,10.114262,-0.99090034
2.162,20.231867,3.5382137,-15.361654,-0.20495397,9.246566,-0.7812308
2.164,19.169754,3.414604,-15.272253,-0.40739,8.386769,-0.58471125
2.166,18.190962,3.3369176,-15.116924,-0.61607623,7.5410466,-0.40189108
2.168,17.301924,3.2974498,-14.900316,-0.82646686,6.7151103,-0.2332411
2.17,16.507093,3.287965,-14.627746,-1.0344834,5.914017,-0.07923817
2.172,15.809216,3.3009038,-14.305717,-1.2365159,5.142273,0.059600163
2.174,15.208344,3.329049,-13.940856,-1.4294252,4.4037614,0.182659
2.176,14.703115,3.365293,-13.540182,-1.6108063,3.701375,0.28925723
2.178,14.290346,3.4032397,-13.111231,-1.7789283,3.0369685,0.3787581
2.18,13.966286,3.436946,-12.661514,-1.9327536,2.4113154,0.45060718
2.182,13.725644,3.4608026,-12.198323,-2.0717642,1.824398,0.5044527
2.184,13.562268,3.469493,-11.72864,-2.1959312,1.2753468,0.5401471
2.186,13.467506,3.4589148,-11.258802,-2.3057785,0.7624587,0.55772185
2.188,13.433622,3.425405,-10.794811,-2.402179,0.28351626,0.5574786
2.19,13.452412,3.3660393,-10.341907,-2.4863071,-0.16402262,0.5399522
2.192,13.5150175,3.278651,-9.904146,-2.5594938,-0.58283675,0.50579876
2.194,13.612689,3.1617289,-9.48473,-2.6231308,-0.9755444,0.45568016
2.196,13.73641,3.0148022,-9.086683,-2.678555,-1.3445299,0.39027205
2.198,13.877883,2.8377495,-8.711547,-2.7270396,-1.6918708,0.31034568
2.2,14.029429,2.6314359,-8.360494,-2.7697215,-2.0192566,0.21688798
2.202,14.183976,2.3970232,-8.034206,-2.8075733,-2.3279417,0.111158445
2.204,14.334291,2.1365483,-7.7322626,-2.841421,-2.618776,-0.005267419
2.206,14.474257,1.8527746,-7.4544196,-2.8719437,-2.8922586,-0.13042992
2.208,14.598828,1.5486667,-7.199371,-2.8997266,-3.148602,-0.26198238
2.21,14.703877,1.227274,-6.965753,-2.925266,-3.3878531,-0.39735436
2.212,14.786323,0.8921321,-6.751621,-2.9490554,-3.60997,-0.5338588
2.214,14.843125,0.5470562,-6.5549603,-2.971634,-3.814981,-0.66872936
2.216,14.872392,0.19569862,-6.373908,-2.9935155,-4.003082,-0.7994566
2.218,14.873071,-0.15821302,-6.206315,-3.0151916,-4.174684,-0.9239651
2.22,14.845196,-0.5113877,-6.0500054,-3.0371077,-4.3303967,-1.0406756
2.222,14.788974,-0.86073446,-5.903113,-3.0596416,-4.471018,-1.1485314
2.224,14.705104,-1.2034276,-5.7639017,-3.0830967,-4.5974846,-1.24699
2.226,14.5943775,-1.536865,-5.6305776,-3.107671,-4.7108855,-1.3359946
2.228,14.45796,-1.8590701,-5.5012765,-3.133411,-4.8123226,-1.4158537
2.23,14.297202,-2.1680546,-5.374461,-3.1602266,-4.902874,-1.4871286
2.232,14.113336,-2.4621522,-5.2484617,-3.187908,-4.9835463,-1.5505412
2.234,13.907814,-2.7400043,-5.121735,-3.216139,-5.055206,-1.6068709
2.236,13.682508,-3.0004504,-4.9928074,-3.2445192,-5.1185784,-1.6568717
2.238,13.440403,-3.243546,-4.85987,-3.2725708,-5.174202,-1.701141
2.24,13.182947,-3.4690013,-4.7219014,-3.299792,-5.222457,-1.7401092
2.242,12.91138,-3.6761143,-4.5782995,-3.3257246,-5.263621,-1.7740746
2.244,12.627303,-3.8648484,-4.4282885,-3.3499453,-5.2978377,-1.8031595
2.246,12.333388,-4.03583,-4.2714987,-3.3720818,-5.325102,-1.8272696
2.248,12.031803,-4.189829,-4.107632,-3.3918622,-5.3452973,-1.8461624
2.25,11.724714,-4.32752,-3.9366121,-3.4090734,-5.3581877,-1.8595755
2.252,11.41406,-4.4498644,-3.7585804,-3.4235492,-5.3634396,-1.8673613
2.254,11.102201,-4.5579576,-3.5738392,-3.4351785,-5.360685,-1.8696222
2.256,10.791359,-4.6528535,-3.3827553,-3.4438572,-5.349456,-1.8666885
2.258,10.483485,-4.735597,-3.1859336,-3.4494848,-5.329235,-1.859167
2.26,10.180634,-4.8070874,-2.983934,-3.4519598,-5.299488,-1.8479118
2.262,9.884484,-4.8685765,-2.7773504,-3.4511483,-5.259709,-1.8339969
2.264,9.596494,-4.9208794,-2.5671263,-3.4468746,-5.2094116,-1.8185576
2.266,9.318508,-4.964463,-2.3541508,-3.4389236,-5.1482134,-1.8026769
2.268,9.051984,-5.0004907,-2.1395996,-3.4270682,-5.0758867,-1.7872224
2.27,8.797945,-5.0302677,-1.9246678,-3.4110377,-4.9923754,-1.7727374
2.272,8.556747,-5.0551534,-1.710469,-3.390533,-4.8977804,-1.7594355
2.274,8.328897,-5.0764823,-1.4984273,-3.3652463,-4.7923384,-1.7471639
2.276,8.114402,-5.0949974,-1.2896664,-3.3348653,-4.6763945,-1.7354743
2.278,7.9130535,-5.1113367,-1.0853364,-3.2990859,-4.5504255,-1.7236862
2.28,7.7244678,-5.12618,-0.8866807,-3.2576149,-4.4149375,-1.7109392
2.282,7.5478554,-5.140077,-0.6947415,-3.2101846,-4.2704597,-1.6963493
2.284,7.3823147,-5.1535344,-0.51062274,-3.1565611,-4.117501,-1.6790966
2.286,7.2265368,-5.166798,-0.33538973,-3.096574,-3.9565222,-1.6585084
2.288,7.078739,-5.180144,-0.1701839,-3.0301561,-3.7879152,-1.6340908
2.29,6.936515,-5.193737,-0.016466618,-2.9573393,-3.6120176,-1.6055545
2.292,6.7975335,-5.207614,0.12465,-2.8782656,-3.4291143,-1.5728009
2.294,6.659144,-5.2210484,0.25230646,-2.79319,-3.2394464,-1.535876
2.296,6.519285,-5.232881,0.365582,-2.7024674,-3.0432584,-1.494952
2.298,6.3760223,-5.2417336,0.46349502,-2.6065247,-2.8408191,-1.4502213
2.3,6.227429,-5.246678,0.5453403,-2.5058339,-2.6324887,-1.4018517
2.302,6.07176,-5.2473,0.61020017,-2.4008422,-2.4186745,-1.3499168
2.304,5.906824,-5.24316,0.6572375,-2.2919865,-2.1998599,-1.2943981
2.306,5.73088,-5.2337823,0.68583465,-2.1796298,-1.9765689,-1.2351532
2.308,5.542184,-5.218238,0.6954323,-2.0640597,-1.7493262,-1.1719542
2.31,5.339365,-5.1958613,0.6855806,-1.9455141,-1.5186355,-1.104491
2.312,5.1211977,-5.1657467,0.6559857,-1.8241584,-1.2849426,-1.0324507
2.314,4.8868084,-5.126887,0.60624397,-1.7000948,-1.0485742,-0.9555475
2.316,4.6357656,-5.078596,0.5359411,-1.5733974,-0.80975884,-0.8735523
2.318,4.3679056,-5.019993,0.44473994,-1.4441471,-0.5686563,-0.7863008
2.32,4.083444,-4.9501915,0.33246064,-1.3124268,-0.32542968,-0.6936684
2.322,3.7830706,-4.8684406,0.19881523,-1.1783856,-0.080305785,-0.5955501
2.324,3.4680195,-4.7742944,0.04393822,-1.0423353,0.16638419,-0.49183136
2.326,3.139893,-4.6673393,-0.1319677,-0.904784,0.41413406,-0.3824023
2.328,2.8007913,-4.547467,-0.32851267,-0.76641405,0.6622391,-0.26729107
2.33,2.4529583,-4.4148655,-0.54503846,-0.628069,0.909765,-0.14671487
2.332,2.099452,-4.269962,-0.7805731,-0.49081117,1.1554378,-0.021073535
2.334,1.7433403,-4.1137767,-1.0340167,-0.356,1.3976381,0.10908331
2.336,1.3881143,-3.9475436,-1.3039286,-0.22523937,1.6344669,0.24301419
2.338,1.0373728,-3.7728715,-1.5886034,-0.10029122,1.8639095,0.37971553
2.34,0.6950397,-3.5919244,-1.8861585,0.01701808,2.0839808,0.5178407
2.342,0.36500338,-3.4069462,-2.1943302,0.1249437,2.2928507,0.65563834
2.344,0.05084143,-3.2206395,-2.5107045,0.22196668,2.4890628,0.79101515
2.346,-0.24368864,-3.035577,-2.8326304,0.3069296,2.6715798,0.9216045
2.348,-0.51529527,-2.854756,-3.1572142,0.37919295,2.839865,1.044976
2.35,-0.7609116,-2.6809626,-3.481729,0.43870977,2.9938974,1.1588452
2.352,-0.9778365,-2.5170643,-3.8034742,0.4860439,3.1340566,1.261281
2.354,-1.1637065,-2.36567,-4.119631,0.5223012,3.2610438,1.3509675
2.356,-1.3171856,-2.2291675,-4.42762,0.5490126,3.3757353,1.4273978
2.358,-1.4371847,-2.1093087,-4.7250333,0.56796175,3.4790683,1.4909565
2.36,-1.5231228,-2.0076964,-5.0098686,0.5809938,3.571999,1.5428779
2.362,-1.5750316,-1.9253118,-5.2806044,0.58983326,3.6554306,1.5851023
2.364,-1.5933597,-1.862504,-5.536015,0.5959749,3.7302527,1.619973
2.366,-1.5791291,-1.8193936,-5.7755313,0.60057783,3.7973888,1.6499711
2.368,-1.5338225,-1.79548,-5.998901,0.6044595,3.8577893,1.6774133
2.37,-1.4594449,-1.789771,-6.2064614,0.60813826,3.912459,1.7042243
2.372,-1.3580766,-1.8007809,-6.399028,0.6118711,3.9624074,1.7317517
2.374,-1.2321805,-1.8266428,-6.5775633,0.6157561,4.008647,1.7607373
2.376,-1.0845653,-1.8651395,-6.743522,0.61983085,4.0520616,1.7913086
2.378,-0.9181022,-1.9135641,-6.898456,0.6241497,4.0932713,1.8231535
2.38,-0.73570156,-1.9691712,-7.044273,0.6287674,4.1325345,1.8557067
2.382,-0.5401779,-2.029138,-7.1829624,0.6336913,4.1697226,1.8882351
2.384,-0.33445758,-2.0908158,-7.3165283,0.6388275,4.2043443,1.919941
2.386,-0.121365964,-2.1515512,-7.4470124,0.64401644,4.235641,1.9499705
2.388,0.096370935,-2.2088602,-7.576234,0.6490171,4.262565,1.97743
2.39,0.31619757,-2.260416,-7.706033,0.6534674,4.283802,2.0015106
2.392,0.5356423,-2.304209,-7.837904,0.6568348,4.2978,2.0215516
2.394,0.75245273,-2.3383732,-7.9730577,0.658471,4.302882,2.0371072
2.396,0.96468496,-2.3612742,-8.112307,0.65767354,4.297359,2.0479152
2.398,1.1705823,-2.371621,-8.256,0.65371156,4.279579,2.053849
2.4,1.3687506,-2.368406,-8.403945,0.645894,4.2480383,2.0549195
2.402,1.5582073,-2.3509386,-8.556053,0.6336392,4.2014203,2.0512161
2.404,1.7377405,-2.3192914,-8.712096,0.61651266,4.138686,2.0429184
2.406,1.9056505,-2.273862,-8.871247,0.59425473,4.0591207,2.0302472
2.408,2.0605454,-2.214974,-9.032569,0.56682706,3.9623759,2.0134258
2.41,2.2017303,-2.1426096,-9.195,0.5343973,3.8484635,1.9926946
2.412,2.3286262,-2.0564303,-9.357053,0.49734583,3.7177558,1.968305
2.414,2.4412255,-1.9565074,-9.517367,0.45622545,3.5709424,1.940534
2.416,2.539657,-1.84325,-9.674628,0.41173673,3.4090402,1.9096817
2.418,2.6243804,-1.717777,-9.82753,0.36469132,3.2333088,1.8760644
2.42,2.6957858,-1.5811183,-9.9746895,0.31598106,3.0451996,1.8400265
2.422,2.7548065,-1.4346124,-10.114885,0.2665184,2.8463118,1.801903
2.424,2.8019185,-1.27971,-10.246891,0.21719718,2.6383615,1.7620295
2.426,2.8378868,-1.1178424,-10.3694935,0.16892257,2.4230855,1.7207557
2.428,2.8635378,-0.95032334,-10.481721,0.12251364,2.202202,1.6783834
2.43,2.8797894,-0.7784384,-10.582612,0.07870525,1.9773607,1.6352007
2.432,2.8873796,-0.6035177,-10.6715765,0.038149863,1.750109,1.5914289
2.434,2.887249,-0.4266882,-10.748011,0.0013742,1.521852,1.5472062
2.436,2.880525,-0.24912155,-10.811399,-0.031230211,1.2938098,1.50269
2.438,2.867939,-0.071697,-10.86156,-0.059364464,1.0670228,1.4579777
2.44,2.8503652,0.10458708,-10.898312,-0.082886755,0.84231234,1.4131066
2.442,2.8287957,0.27877927,-10.921584,-0.10175433,0.620313,1.3680913
2.444,2.8040254,0.45020068,-10.931271,-0.116050445,0.40147507,1.3229173
2.446,2.7768059,0.6180843,-10.9274645,-0.12595554,0.18610586,1.2775636
2.448,2.747739,0.7820983,-10.91025,-0.13172708,-0.025632676,1.232005
2.45,2.7175171,0.94181234,-10.8796625,-0.13369979,-0.23366842,1.186223
2.452,2.686722,1.0971017,-10.835786,-0.13222241,-0.43799007,1.1402103
2.454,2.655789,1.2479974,-10.778655,-0.12764627,-0.6386015,1.0939517
2.456,2.6252675,1.3944709,-10.708306,-0.12035614,-0.8355295,1.0474705
2.458,2.5955603,1.5368932,-10.624872,-0.11071572,-1.0287749,1.0008017
2.46,2.5671134,1.6755137,-10.528287,-0.099042624,-1.2182854,0.9540183
2.462,2.5403285,1.8107817,-10.418637,-0.08561662,-1.4039884,0.907205
2.464,2.5154996,1.9433626,-10.295992,-0.07065371,-1.5857458,0.8604571
2.466,2.4929771,2.0739617,-10.160274,-0.05432412,-1.7633609,0.81389827
2.468,2.473052,2.2033048,-10.011478,-0.036726683,-1.9366043,0.76765084
2.47,2.4560685,2.33217,-9.849724,-0.017898977,-2.1052139,0.7218523
2.472,2.4423528,2.4613502,-9.675035,0.0021672845,-2.2689102,0.67666614
2.474,2.4321218,2.5915897,-9.48757,0.023519486,-2.427424,0.63223827
2.476,2.4254763,2.7238145,-9.287429,0.0462341,-2.5804844,0.58872056
2.478,2.4228048,2.8588398,-9.074935,0.07041225,-2.727836,0.54623085
2.48,2.4243007,2.9974113,-8.850353,0.096150994,-2.8692126,0.50483274
2.482,2.4301922,3.1401765,-8.614085,0.123583406,-3.004375,0.46454054
2.484,2.4406343,3.2877638,-8.366552,0.15285078,-3.1331038,0.42532444
2.486,2.4557626,3.4407253,-8.108114,0.18407805,-3.2552106,0.38707203
2.488,2.4755895,3.599378,-7.839399,0.21741718,-3.3705134,0.3496305
2.49,2.500021,3.7641542,-7.560986,0.25303805,-3.4788628,0.31280327
2.492,2.5292256,3.9352355,-7.273494,0.29109645,-3.580164,0.27636957
2.494,2.5630298,4.112791,-6.977557,0.33175248,-3.6743279,0.24010088
2.496,2.6013737,4.296816,-6.673966,0.37513196,-3.7613156,0.20381422
2.498,2.6441524,4.4871306,-6.363502,0.42133516,-3.8411062,0.16734993
2.5,2.691041,4.683518,-6.0468874,0.47043347,-3.9137025,0.13058923
2.502,2.7418594,4.885805,-5.7250595,0.5224663,-3.9791038,0.09342287
2.504,2.7962756,5.0935183,-5.398715,0.57744944,-4.0373173,0.05578002
2.506,2.854073,5.3061185,-5.0687556,0.63535786,-4.0883393,0.017589323
2.508,2.9150562,5.522991,-4.7361217,0.69617426,-4.132133,-0.021215666
2.51,2.978899,5.743499,-4.401756,0.75990456,-4.168632,-0.060749725
2.512,3.045008,5.9668355,-4.0666075,0.8265509,-4.197751,-0.10112458
2.514,3.1130762,6.1921926,-3.731605,0.8961344,-4.2193904,-0.1424692
2.516,3.1828995,6.4188,-3.3977578,0.96871424,-4.2334146,-0.1849093
2.518,3.254117,6.645696,-3.065998,1.0443575,-4.2396903,-0.22855982
2.52,3.3262718,6.8720593,-2.7372417,1.1231716,-4.238082,-0.27352577
2.522,3.3990946,7.096947,-2.4124608,1.2052674,-4.2284737,-0.31985402
2.524,3.4722338,7.319513,-2.092602,1.2907588,-4.210767,-0.36753616
2.526,3.5453978,7.5388803,-1.7784841,1.379744,-4.1849003,-0.4165003
2.528,3.618247,7.7542233,-1.4709854,1.4723105,-4.1508584,-0.46660328
2.53,3.6906703,7.964823,-1.1710348,1.5685153,-4.1086946,-0.51764643
2.532,3.7620249,8.169867,-0.8794614,1.6683751,-4.058524,-0.56938344
2.534,3.8324828,8.368734,-0.5968992,1.7718658,-4.00053,-0.6215236
2.536,3.9018328,8.560822,-0.32419562,1.8788939,-3.9349453,-0.6737566
2.538,3.9698057,8.745428,-0.061849475,1.989331,-3.8620875,-0.7257897
2.54,4.03654,8.921869,0.1894033,2.1029987,-3.7823238,-0.77732754
2.542,4.1018524,9.089654,0.4292333,2.219666,-3.6960883,-0.82809055
2.544,4.165621,9.248425,0.65708864,2.339056,-3.603874,-0.8778534
2.546,4.22774,9.397765,0.8724731,2.460856,-3.5061886,-0.92642057
2.548,4.288277,9.537289,1.0752327,2.5847335,-3.4035861,-0.97362584
2.55,4.347472,9.666706,1.2650317,2.7103198,-3.2966373,-1.019349
2.552,4.4049854,9.7858305,1.4417362,2.837245,-3.1859457,-1.0634782
2.554,4.4611607,9.894496,1.6052921,2.9651306,-3.0721185,-1.1059372
2.556,4.516055,9.992526,1.7556338,3.0935996,-2.9557586,-1.1466637
2.558,4.569931,10.07984,1.8929045,3.2222724,-2.8375094,-1.185619
2.56,4.622791,10.156453,2.0173116,3.3507934,-2.7179956,-1.2227523
2.562,4.6748323,10.222329,2.129085,3.4787881,-2.5978458,-1.258032
2.564,4.7263165,10.277408,2.2286482,3.60589,-2.4777195,-1.2914004
2.566,4.7773113,10.321895,2.3163528,3.7317276,-2.358275,-1.3228114
2.568,4.828021,10.355828,2.3928242,3.8559237,-2.24017,-1.3522086
2.57,4.878619,10.379404,2.4585843,3.9780931,-2.1240525,-1.3795493
2.572,4.9291143,10.392931,2.5144515,4.097868,-2.0105405,-1.4048185
2.574,4.97965,10.396517,2.5609455,4.2148957,-1.9002132,-1.428026
2.576,5.030246,10.390529,2.5989199,4.3288536,-1.7935883,-1.4492216
2.578,5.0809364,10.375321,2.6291375,4.439451,-1.6911211,-1.4684987
2.58,5.1316075,10.351377,2.6523743,4.5464597,-1.5932051,-1.48597
2.582,5.182251,10.319106,2.6694999,4.6496873,-1.5001364,-1.5017579
2.584,5.2328563,10.278978,2.6813188,4.74899,-1.4121488,-1.5159973
2.586,5.283328,10.231635,2.6886463,4.84426,-1.329381,-1.5288031
2.588,5.3336334,10.177469,2.692357,4.9354362,-1.2519243,-1.5402713
2.59,5.3835325,10.117096,2.6931112,5.0224648,-1.1798046,-1.5504626
2.592,5.4328647,10.051205,2.6916332,5.1053,-1.1129872,-1.5593876
2.594,5.481485,9.9802475,2.6886742,5.1838994,-1.051419,-1.5670334
2.596,5.5292583,9.904844,2.6847382,5.2582164,-0.99501276,-1.5733614
2.598,5.576038,9.82552,2.680408,5.3281884,-0.9436631,-1.5783025
2.6,5.6215153,9.742902,2.6761796,5.393753,-0.8972742,-1.5817952
2.602,5.665495,9.657566,2.6724398,5.454838,-0.85573554,-1.5837786
2.604,5.707972,9.57003,2.6695514,5.5113807,-0.818949,-1.5842067
2.606,5.7486777,9.480861,2.6677952,5.5633216,-0.78681004,-1.5830789
2.608,5.7875347,9.390575,2.6674109,5.6106024,-0.75923246,-1.5804164
2.61,5.8244495,9.299596,2.6686697,5.6531854,-0.73613256,-1.576262
2.612,5.8591948,9.208211,2.6716418,5.6910763,-0.71741515,-1.5707047
2.614,5.8919635,9.116806,2.676307,5.7242723,-0.70301837,-1.5638584
2.616,5.922558,9.0257225,2.682818,5.752798,-0.6928779,-1.5558403
2.618,5.9508343,8.935314,2.6914136,5.7767124,-0.68690205,-1.5468001
2.62,5.97684,8.845771,2.702123,5.7960844,-0.6850045,-1.5368899
2.622,6.000513,8.7573395,2.715011,5.810992,-0.68710977,-1.5262481
2.624,6.0218463,8.669996,2.7299252,5.8215213,-0.6931336,-1.5150201
2.626,6.0409126,8.583552,2.7467647,5.8277555,-0.7029935,-1.5033424
2.628,6.0578175,8.498112,2.7655573,5.8297787,-0.7166006,-1.4913366
2.63,6.0724707,8.413543,2.7862382,5.827677,-0.73386437,-1.4791245
2.632,6.0849285,8.329843,2.8088455,5.821547,-0.7546921,-1.4668255
2.634,6.095316,8.246854,2.833486,5.8114758,-0.7789763,-1.4545522
2.636,6.103611,8.164591,2.8600593,5.797559,-0.80662876,-1.442424
2.638,6.1099334,8.082977,2.8886333,5.779911,-0.8375424,-1.4305234
2.64,6.1144066,8.0018635,2.919312,5.7586412,-0.87163603,-1.4189318
2.642,6.117263,7.921124,2.9521098,5.733863,-0.90881544,-1.4076871
2.644,6.1184187,7.84064,2.9869194,5.70571,-0.9490307,-1.3968102
2.646,6.1180334,7.760275,3.023898,5.6743054,-0.9922372,-1.386281
2.648,6.1163692,7.6798472,3.0630188,5.639786,-1.0383774,-1.3760812
2.65,6.113287,7.5993376,3.1044598,5.602295,-1.087381,-1.3662117
2.652,6.109057,7.518564,3.1481771,5.5619516,-1.1391711,-1.3566782
2.654,6.103843,7.4373374,3.1942143,5.518885,-1.1936609,-1.3474965
2.656,6.097728,7.35562,3.242588,5.4732537,-1.2507545,-1.3386858
2.658,6.090782,7.2732663,3.2933455,5.4252,-1.3103082,-1.3302859
2.66,6.0830803,7.190222,3.3464417,5.374894,-1.3721566,-1.3223612
2.662,6.074838,7.1064453,3.4019094,5.3225183,-1.436078,-1.3149983
2.664,6.0660076,7.0218124,3.4596872,5.268231,-1.5018082,-1.30831
2.666,6.0567675,6.9363394,3.519814,5.212163,-1.5690176,-1.3024228
2.668,6.047219,6.8499675,3.582224,5.154454,-1.6373336,-1.2974716
2.67,6.0374975,6.762796,3.646809,5.095196,-1.706359,-1.2935694
2.672,6.027526,6.674839,3.7135882,5.0344315,-1.7756859,-1.2907685
2.674,6.017508,6.5862412,3.7823958,4.972193,-1.8448987,-1.2890863
2.676,6.007457,6.496957,3.8532715,4.908506,-1.913611,-1.2884529
2.678,5.9974594,6.4072404,3.9261236,4.843402,-1.9814677,-1.2887267
2.68,5.9876094,6.317175,4.000883,4.7769294,-2.0481565,-1.2897124
2.682,5.977927,6.226779,4.077369,4.709175,-2.11339,-1.2912098
2.684,5.968484,6.1363525,4.155592,4.640289,-2.1769245,-1.2930162
2.686,5.959427,6.0459867,4.2353783,4.5704594,-2.2385147,-1.2949574
2.688,5.9506483,5.955735,4.3166437,4.499923,-2.2979417,-1.2969425
2.69,5.942331,5.8657293,4.399357,4.4289722,-2.3549664,-1.2989392
2.692,5.934429,5.7760596,4.483342,4.3578916,-2.4093666,-1.3009974
2.694,5.9269037,5.6868353,4.5684934,4.2869825,-2.460902,-1.3032155
2.696,5.919912,5.598098,4.65468,4.21651,-2.5093496,-1.3057337
2.698,5.9133086,5.510028,4.7417126,4.1467133,-2.55448,-1.3086972
2.7,5.907297,5.422694,4.829642,4.0777965,-2.5961294,-1.3122162
2.702,5.9018197,5.336138,4.918223,4.0098763,-2.6341715,-1.3163431
2.704,5.896996,5.2503533,5.0072494,3.9430313,-2.6685333,-1.3210737
2.706,5.892852,5.1654954,5.0966783,3.87731,-2.6991878,-1.3263506
2.708,5.889363,5.081683,5.186286,3.812693,-2.726137,-1.3321042
2.71,5.886673,4.9989195,5.276042,3.749114,-2.7494094,-1.3382525
2.712,5.8848276,4.9173017,5.3656554,3.6865,-2.7690763,-1.3447074
2.714,5.883692,4.836946,5.455165,3.6247556,-2.7852309,-1.3513558
2.716,5.883428,4.7579846,5.544444,3.5637887,-2.7979972,-1.3581262
2.718,5.8839498,4.680514,5.633303,3.5035388,-2.807495,-1.3649318
2.72,5.885322,4.6046557,5.7217565,3.443959,-2.8138666,-1.3717072
2.722,5.887696,4.5306563,5.809639,3.385024,-2.8172352,-1.3784256
2.724,5.8908916,4.458629,5.897043,3.3267488,-2.8177254,-1.3850706
2.726,5.8949866,4.3887005,5.9838204,3.269171,-2.815453,-1.391655
2.728,5.900077,4.320961,6.069827,3.2123294,-2.8105273,-1.3981981
2.73,5.9061275,4.255627,6.1550136,3.1562927,-2.8030386,-1.4047313
2.732,5.913128,4.1929083,6.239433,3.1011202,-2.7930684,-1.4112921
2.734,5.9210644,4.133097,6.3232355,3.0468678,-2.780682,-1.417912
2.736,5.9298472,4.076496,6.4064474,2.9935894,-2.7659495,-1.4245942
2.738,5.9393044,4.023174,6.488999,2.9413097,-2.7489202,-1.4313452
2.74,5.9495764,3.9732482,6.570797,2.8900416,-2.7296348,-1.4381583
2.742,5.960565,3.926736,6.651717,2.8397732,-2.708132,-1.445
2.744,5.972215,3.883864,6.7317176,2.7904587,-2.6844513,-1.4518541
2.746,5.984453,3.8445444,6.81078,2.7420614,-2.6586323,-1.4586914
2.748,5.997295,3.808872,6.888732,2.6945145,-2.6307278,-1.4654601
2.75,6.010549,3.7769852,6.965546,2.6477406,-2.6007943,-1.4721377
2.752,6.0241776,3.7488909,7.041117,2.6016567,-2.568905,-1.4786915
2.754,6.0383596,3.7246666,7.1154566,2.5561876,-2.535137,-1.4851118
2.756,6.0530066,3.7042928,7.188416,2.511251,-2.499586,-1.4913915
2.758,6.068109,3.6877344,7.2599387,2.4667768,-2.4623609,-1.4975412
2.76,6.0837865,3.6747837,7.329935,2.4227004,-2.4235659,-1.5035962
2.762,6.1000824,3.6653826,7.3983426,2.3789644,-2.3833086,-1.509603
2.764,6.1170263,3.6592872,7.4651575,2.3355367,-2.3416967,-1.5156287
2.766,6.1347427,3.6562827,7.530377,2.292393,-2.2988155,-1.5217489
2.768,6.153382,3.6559732,7.5938993,2.2495275,-2.2547429,-1.5280788
2.77,6.173084,3.658072,7.655699,2.2069385,-2.2095318,-1.5347227
2.772,6.1939363,3.6621442,7.71577,2.1646395,-2.1632206,-1.5418193
2.774,6.2161045,3.6677554,7.774008,2.1226373,-2.1158216,-1.5494936
2.776,6.239773,3.6744833,7.830475,2.0809522,-2.0673344,-1.5578601
2.778,6.26491,3.6818411,7.885211,2.0396028,-2.0177395,-1.5670199
2.78,6.2916965,3.6893668,7.938202,1.9986119,-1.9669969,-1.5770487
2.782,6.320334,3.6966455,7.989354,1.9580171,-1.9150546,-1.5879853
2.784,6.3507767,3.703181,8.038691,1.9178343,-1.8618643,-1.599854
2.786,6.383292,3.7086568,8.086205,1.8780899,-1.807372,-1.6126479
2.788,6.417876,3.7125707,8.131897,1.8388171,-1.751527,-1.6263111
2.79,6.4544935,3.7145936,8.17572,1.8000308,-1.6942854,-1.6407936
2.792,6.493168,3.7145023,8.217718,1.7617524,-1.6356298,-1.656011
2.794,6.5338845,3.7118812,8.2578745,1.7239999,-1.5755486,-1.6718746
2.796,6.5764847,3.7065644,8.296201,1.6867774,-1.5140584,-1.6882852
2.798,6.6208577,3.6985102,8.332604,1.650081,-1.451189,-1.7051305
2.8,6.666835,3.6875188,8.3671255,1.6138946,-1.3870015,-1.7223185
2.802,6.714362,3.6735563,8.399704,1.5781995,-1.3215694,-1.7397677
2.804,6.7630634,3.6566007,8.430282,1.5429653,-1.2549846,-1.7573826
2.806,6.812726,3.6366742,8.458859,1.508146,-1.1873516,-1.7750819
2.808,6.863184,3.613827,8.485227,1.4736912,-1.1187814,-1.792797
2.81,6.913949,3.5882344,8.509424,1.439598,-1.0492265,-1.8103752
2.812,6.964837,3.5599601,8.531352,1.4057467,-0.9790065,-1.8278842
2.814,7.0154514,3.5292993,8.551041,1.3721019,-0.9081328,-1.845202
2.816,7.0654893,3.4964638,8.568327,1.3386089,-0.83670133,-1.8622617
2.818,7.114661,3.4616618,8.5832815,1.3052025,-0.764808,-1.8790061
2.82,7.162521,3.4251935,8.595691,1.2718236,-0.6925427,-1.8953803
2.822,7.2087746,3.38726,8.605658,1.238412,-0.62000394,-1.9113108
2.824,7.253152,3.3481293,8.612988,1.2049079,-0.5473065,-1.9267526
2.826,7.2953873,3.3080645,8.617703,1.1712387,-0.47457957,-1.9416604
2.828,7.3350673,3.2673573,8.619853,1.137341,-0.4019657,-1.9559989
2.83,7.372125,3.226289,8.619278,1.1031438,-0.3296286,-1.9697392
2.832,7.406186,3.1850796,8.616076,1.0685813,-0.25773323,-1.982877
2.834,7.4371047,3.143891,8.610145,1.0335897,-0.18644421,-1.9953856
2.836,7.4648275,3.1028566,8.601555,0.99810505,-0.1159312,-2.0072513
2.838,7.4892564,3.0621986,8.590185,0.96208704,-0.046332806,-2.0184593
2.84,7.51033,3.021941,8.576221,0.9255096,0.022227764,-2.028991
2.842,7.528041,2.9821177,8.55963,0.888354,0.08966139,-2.0388331
2.844,7.5424232,2.942795,8.540491,0.8506192,0.15590578,-2.0479755
2.846,7.553525,2.9039903,8.518864,0.81231433,0.22093192,-2.056428
2.848,7.56166,2.8656185,8.494829,0.77345634,0.28471658,-2.0642145
2.85,7.566787,2.827593,8.468565,0.73407775,0.34726736,-2.0713832
2.852,7.569109,2.7898748,8.440148,0.6942099,0.40859854,-2.0780008
2.854,7.568905,2.7523355,8.40975,0.6538954,0.4687422,-2.084137
2.856,7.5663853,2.7149124,8.377479,0.61318475,0.5277316,-2.0898662
2.858,7.5616946,2.6774595,8.343566,0.57213414,0.58560365,-2.0952485
2.86,7.5552144,2.639838,8.308097,0.5308064,0.64240164,-2.100347
2.862,7.5472383,2.6020086,8.271273,0.4892708,0.6981652,-2.1051824
2.864,7.5379424,2.563893,8.233281,0.44756866,0.7528308,-2.1098077
2.866,7.527535,2.5253868,8.194335,0.40580785,0.8066575,-2.114067
2.868,7.5163026,2.4865003,8.154575,0.36400372,0.85951406,-2.1179993
2.87,7.5044336,2.4473138,8.114211,0.3221866,0.91142493,-2.1215253
2.872,7.492132,2.4078107,8.073501,0.28037715,0.96239614,-2.1245456
2.874,7.479618,2.3679686,8.032536,0.23857224,1.0124125,-2.126958
2.876,7.4669523,2.3279688,7.9915695,0.19674361,1.0614672,-2.1286693
2.878,7.454221,2.2880044,7.950763,0.15485263,1.1095333,-2.1295843
2.88,7.441572,2.2481253,7.910346,0.11285138,1.1565744,-2.1296134
2.882,7.429079,2.2084343,7.8703833,0.070675135,1.2025542,-2.1286998
2.884,7.4168267,2.1691403,7.8311415,0.028260589,1.247429,-2.126801
2.886,7.4047866,2.1304266,7.792651,-0.014457643,1.2911553,-2.1238995
2.888,7.393093,2.0923586,7.7550764,-0.057529926,1.3336799,-2.1200159
2.89,7.381739,2.0550814,7.7185826,-0.100993514,1.3749855,-2.11518
2.892,7.370738,2.0186667,7.6832576,-0.1448654,1.4150627,-2.109435
2.894,7.36001,1.9833678,7.6492605,-0.1891604,1.45392,-2.1028476
2.896,7.3494754,1.949131,7.6166368,-0.23386222,1.4915801,-2.0955064
2.898,7.3392487,1.9161419,7.585416,-0.27894294,1.528102,-2.0874858
2.9,7.329259,1.8844731,7.555701,-0.32436794,1.5635594,-2.0788665
2.902,7.3194757,1.8541521,7.5274963,-0.37008733,1.5980464,-2.0697272
2.904,7.309897,1.8252076,7.5008435,-0.41604203,1.6316628,-2.0601408
2.906,7.30048,1.7976794,7.475694,-0.46218306,1.6645291,-2.0501604
2.908,7.291245,1.7715656,7.4520545,-0.50845236,1.696766,-2.0398254
2.91,7.282158,1.7469234,7.429915,-0.5548064,1.7284832,-2.0291808
2.912,7.273147,1.7238768,7.4092236,-0.6012055,1.7597904,-2.018227
2.914,7.264295,1.7024044,7.389984,-0.64762837,1.7907783,-2.006964
2.916,7.2555733,1.6824764,7.372087,-0.6940665,1.8215172,-1.995384
2.918,7.24693,1.6642106,7.355629,-0.74052006,1.8520647,-1.9834576
2.92,7.238465,1.6476321,7.3403907,-0.78699696,1.8824496,-1.9711573
2.922,7.2301297,1.6328338,7.3263984,-0.83354044,1.9126843,-1.958453
2.924,7.221936,1.6197631,7.313513,-0.88017696,1.9427755,-1.9453154
2.926,7.2138834,1.6085073,7.301729,-0.92695475,1.9727037,-1.9317323
2.928,7.2060003,1.5991888,7.290965,-0.97391975,2.002447,-1.9177022
2.93,7.198465,1.5917726,7.281192,-1.0211116,2.0319934,-1.9032252
2.932,7.1911154,1.5864407,7.272225,-1.0685476,2.0613194,-1.8883269
2.934,7.184043,1.5832027,7.2641296,-1.1162504,2.09041,-1.873049
2.936,7.177287,1.5821203,7.256796,-1.1642332,2.1192658,-1.8574257
2.938,7.1710777,1.5832934,7.2501087,-1.2124895,2.1478887,-1.8415065
2.94,7.165336,1.5868055,7.244109,-1.261003,2.1762972,-1.8253322
2.942,7.1600823,1.5926015,7.23875,-1.3097574,2.2045398,-1.8089342
2.944,7.1555476,1.6008446,7.23396,-1.3587335,2.2326562,-1.7923318
2.946,7.1517625,1.6115851,7.2296395,-1.407918,2.260716,-1.7755406
2.948,7.1486974,1.6247599,7.2258835,-1.4572948,2.2887971,-1.7585557
2.95,7.1464806,1.6404161,7.2224646,-1.5068588,2.3169918,-1.7413638
2.952,7.145193,1.6585408,7.2194414,-1.5566214,2.3453808,-1.7239606
2.954,7.144971,1.679102,7.216737,-1.6065845,2.3740437,-1.7063477
2.956,7.145948,1.7020354,7.2142463,-1.6567578,2.403064,-1.6885467
2.958,7.1481524,1.7273258,7.2119546,-1.7071494,2.432501,-1.6705866
2.96,7.151643,1.7549043,7.2098055,-1.7577435,2.4623938,-1.6525364
2.962,7.156537,1.7846872,7.2078443,-1.8085409,2.4927697,-1.6344749
2.964,7.1628466,1.8165274,7.205966,-1.8595113,2.5236433,-1.6164842
2.966,7.1707697,1.850291,7.204135,-1.9106088,2.5550148,-1.5986911
2.968,7.180316,1.8859769,7.2022924,-1.961784,2.5868795,-1.58118
2.97,7.1914387,1.9233007,7.200513,-2.0129833,2.6192288,-1.5640465
2.972,7.204091,1.9621551,7.1986957,-2.0641391,2.6520612,-1.547371
2.974,7.2183437,2.0022998,7.196924,-2.1151934,2.685379,-1.5312022
2.976,7.2344027,2.0436585,7.1951303,-2.1660862,2.7191825,-1.5155693
2.978,7.252035,2.0860152,7.1933794,-2.2167814,2.7534738,-1.5004926
2.98,7.2712393,2.1291978,7.1917,-2.2672343,2.7882726,-1.4859703
2.982,7.292036,2.1730418,7.1899967,-2.3174038,2.8235972,-1.4719679
2.984,7.314274,2.2175076,7.1883445,-2.3672633,2.8594577,-1.4584788
2.986,7.338059,2.262409,7.186758,-2.4167938,2.895885,-1.4454786
2.988,7.363228,2.3077862,7.185236,-2.4659576,2.9328938,-1.4329469
2.99,7.38978,2.3534477,7.1837845,-2.5147178,2.9704926,-1.420876
2.992,7.417553,2.399553,7.182384,-2.5630498,3.0086894,-1.4092454
2.994,7.4464893,2.4459953,7.1810217,-2.6109319,3.0474854,-1.398032
2.996,7.476551,2.4927127,7.179725,-2.658347,3.0868547,-1.3872287
2.998,7.5075083,2.5399437,7.178439,-2.7052746,3.1268039,-1.376822
3,7.5394115,2.5876927,7.1772075,-2.7517178,3.1673024,-1.366796
3.002,7.572016,2.636105,7.175973,-2.7976613,3.2083335,-1.3571482
3.004,7.605411,2.6851854,7.1747427,-2.8431118,3.249885,-1.347885
3.006,7.6393747,2.7351718,7.1735086,-2.8880436,3.2919538,-1.3390199
3.008,7.6739264,2.7860715,7.1722674,-2.932448,3.3345406,-1.3305601
3.01,7.709058,2.8381248,7.1709795,-2.9763076,3.3776288,-1.3225213
3.012,7.7446537,2.8915424,7.169552,-3.0195842,3.4212477,-1.3149397
3.014,7.7806287,2.946539,7.1679955,-3.0622282,3.4654171,-1.3078426
3.016,7.817052,3.0032728,7.166215,-3.1041732,3.5101762,-1.3012376
3.018,7.8538613,3.0618823,7.1642156,-3.1453536,3.5555623,-1.2951357
3.02,7.891033,3.122677,7.1618814,-3.1857038,3.6016183,-1.2895238
3.022,7.9286327,3.1857095,7.1591372,-3.22515,3.6483939,-1.2843881
3.024,7.9666195,3.2514274,7.155835,-3.2636404,3.6959417,-1.2796943
3.026,8.005086,3.3200362,7.1520166,-3.301135,3.7442966,-1.2753909
3.028,8.044027,3.3915963,7.1475015,-3.3375893,3.7934806,-1.2714438
3.03,8.083601,3.4662862,7.1422806,-3.3729925,3.843517,-1.2678049
3.032,8.123899,3.5443993,7.1362762,-3.4073377,3.8943946,-1.2644464
3.034,8.164996,3.6261435,7.1293736,-3.4406347,3.9460778,-1.2613542
3.036,8.207052,3.711536,7.1214857,-3.4729176,3.9985254,-1.258569
3.038,8.250156,3.8006716,7.1125956,-3.5042071,4.05168,-1.2561245
3.04,8.294323,3.8938265,7.1026115,-3.534534,4.1054626,-1.2540852
3.042,8.339916,3.9909515,7.091567,-3.5639367,4.1598153,-1.2525476
3.044,8.38693,4.092115,7.0792866,-3.592441,4.2146606,-1.2515974
3.046,8.435504,4.1973257,7.065831,-3.6200552,4.2699385,-1.2513258
3.048,8.485708,4.306616,7.051149,-3.6467857,4.3255873,-1.2518107
3.05,8.537606,4.4199457,7.035189,-3.6726236,4.3815637,-1.253097
3.052,8.591601,4.5372725,7.017956,-3.6975527,4.437807,-1.2552259
3.054,8.6475115,4.658575,6.999378,-3.721553,4.494274,-1.2582108
3.056,8.705595,4.783744,6.9796257,-3.7446113,4.550923,-1.2620578
3.058,8.76611,4.9127455,6.958572,-3.7666907,4.60772,-1.266762
3.06,8.829045,5.045532,6.9364686,-3.7877808,4.6646085,-1.2723029
3.062,8.894441,5.1821175,6.913362,-3.807866,4.72155,-1.2786795
3.064,8.962327,5.322487,6.889261,-3.826927,4.7785206,-1.2858677
3.066,9.032951,5.466364,6.864237,-3.844969,4.835463,-1.2938644
3.068,9.106342,5.613664,6.8382435,-3.8619957,4.892359,-1.3026613
3.07,9.182794,5.7641954,6.8112307,-3.8780103,4.9491754,-1.3122666
3.072,9.262232,5.917896,6.783146,-3.8930163,5.0058913,-1.3226914
3.074,9.34466,6.0746746,6.7541137,-3.9070106,5.062491,-1.3339485
3.076,9.43018,6.2344904,6.724192,-3.9199686,5.1189427,-1.3460641
3.078,9.518886,6.3972063,6.693431,-3.9318771,5.175223,-1.3590524
3.08,9.6109,6.5628505,6.6617827,-3.942714,5.2313094,-1.3729327
3.082,9.706248,6.731304,6.6292686,-3.952461,5.287172,-1.3876948
3.084,9.804862,6.9025297,6.595885,-3.9610896,5.342776,-1.4033393
3.086,9.906816,7.076413,6.5616035,-3.968589,5.398064,-1.4198192
3.088,10.012243,7.2528563,6.526493,-3.9749343,5.4529543,-1.4370738
3.09,10.121157,7.4318285,6.4904847,-3.9801152,5.507361,-1.455016
3.092,10.233653,7.6131797,6.453675,-3.98412,5.5611897,-1.473574
3.094,10.349745,7.796764,6.4160194,-3.9869475,5.6143813,-1.4926728
3.096,10.469356,7.9823656,6.377413,-3.9885864,5.6668324,-1.5122308
3.098,10.592578,8.169576,6.3378243,-3.9890294,5.7184505,-1.5321684
3.1,10.719374,8.358328,6.2970862,-3.9882693,5.769145,-1.5524123
3.102,10.84981,8.548164,6.255128,-3.9862733,5.8188596,-1.5729195
3.104,10.983829,8.738807,6.211687,-3.9830008,5.8675795,-1.5936717
3.106,11.121382,8.929761,6.1666903,-3.9784245,5.915337,-1.614702
3.108,11.262356,9.120642,6.120022,-3.9725046,5.9622154,-1.6361002
3.11,11.406382,9.311148,6.071557,-3.965239,6.0083733,-1.6580133
3.112,11.553495,9.500617,6.02113,-3.9566343,6.0540023,-1.6806343
3.114,11.703427,9.688522,5.968418,-3.9467144,6.0993195,-1.7041715
3.116,11.855947,9.87402,5.913086,-3.9355254,6.1445546,-1.7288104
3.118,12.010572,10.0564785,5.854782,-3.9231305,6.1899123,-1.754705
3.12,12.166853,10.235018,5.793288,-3.9095922,6.235554,-1.7819273
3.122,12.324251,10.408941,5.728408,-3.8949652,6.2815533,-1.8104708
3.124,12.482232,10.577411,5.659831,-3.8792825,6.32792,-1.8402317
3.126,12.640025,10.73954,5.5872607,-3.8625646,6.3746,-1.8710241
3.128,12.796748,10.89448,5.510457,-3.8447943,6.4214697,-1.902611
3.13,12.95178,11.041222,5.429196,-3.8259497,6.468362,-1.9347179
3.132,13.103952,11.17889,5.343198,-3.805967,6.515071,-1.9671048
3.134,13.252279,11.306377,5.252267,-3.7847915,6.561357,-1.9995344
3.136,13.395815,11.422752,5.156074,-3.762339,6.6069694,-2.0317988
3.138,13.533572,11.527082,5.054502,-3.7385497,6.6516433,-2.0637329
3.14,13.664121,11.618563,4.947443,-3.7133589,6.69512,-2.0952344
3.142,13.786446,11.696137,4.8347206,-3.6867445,6.737134,-2.1262085
3.144,13.899369,11.759014,4.7162404,-3.658687,6.7773623,-2.1565592
3.146,14.00175,11.8063545,4.5918093,-3.6291962,6.8154364,-2.1861196
3.148,14.092448,11.837378,4.461212,-3.5982919,6.8509364,-2.214682
3.15,14.170399,11.851274,4.3244557,-3.566029,6.8834553,-2.2419858
3.152,14.234332,11.847626,4.181551,-3.5324707,6.912582,-2.2677484
3.154,14.283348,11.825812,4.0324793,-3.4977174,6.937926,-2.2916667
3.156,14.316598,11.785465,3.8772218,-3.4618983,6.959108,-2.3134396
3.158,14.333078,11.726387,3.715849,-3.4251826,6.9758263,-2.3327773
3.16,14.332103,11.648439,3.5484118,-3.3877459,6.987827,-2.3494139
3.162,14.312751,11.551819,3.3749022,-3.3498063,6.9949174,-2.3631165
3.164,14.274452,11.436695,3.1954594,-3.3116128,6.996945,-2.3736777
3.166,14.2165165,11.303396,3.010013,-3.2734153,6.993776,-2.3808997
3.168,14.138424,11.152433,2.818779,-3.2354808,6.985275,-2.384589
3.17,14.039911,10.984574,2.6217842,-3.1980727,6.971265,-2.3845458
3.172,13.920909,10.800537,2.4192247,-3.1614282,6.9515133,-2.3805523
3.174,13.7811165,10.601465,2.2113519,-3.1257882,6.9257603,-2.3723722
3.176,13.620343,10.388559,1.9984608,-3.0913637,6.8936834,-2.3597684
3.178,13.438766,10.163002,1.7807522,-3.0583766,6.8548985,-2.342495
3.18,13.236688,9.925954,1.5586252,-3.027026,6.808986,-2.3203077
3.182,13.014359,9.678729,1.3323288,-2.9975142,6.7555037,-2.2930295
3.184,12.772274,9.422815,1.1019917,-2.970045,6.694061,-2.260537
3.186,12.510986,9.159611,0.8679247,-2.9448586,6.624271,-2.2227561
3.188,12.231179,8.890685,0.630548,-2.922225,6.5458107,-2.1796951
3.19,11.933773,8.617634,0.3901677,-2.902433,6.4584,-2.1314328
3.192,11.61984,8.342057,0.14720488,-2.8857813,6.361796,-2.0781014
3.194,11.290544,8.065447,-0.097922325,-2.8725781,6.2557893,-2.0198677
3.196,10.947271,7.789336,-0.34472275,-2.8631353,6.1401944,-1.9569304
3.198,10.591563,7.5151043,-0.5928464,-2.857773,6.0148582,-1.8895075
3.2,10.225169,7.2440653,-0.8416481,-2.8567939,5.8796463,-1.8178086
3.202,9.849952,6.977333,-1.0905833,-2.8605042,5.7344284,-1.7420441
3.204,9.468048,6.7158995,-1.339086,-2.8691776,5.579058,-1.6624024
3.206,9.081753,6.460657,-1.5862951,-2.8830755,5.4133554,-1.5790586
3.208,8.693325,6.212322,-1.8315039,-2.9024215,5.2371306,-1.4921567
3.21,8.305241,5.971245,-2.0737557,-2.9274228,5.050184,-1.401844
3.212,7.9200854,5.7377043,-2.3122292,-2.95823,4.8523355,-1.3082948
3.214,7.540335,5.5117702,-2.5458148,-2.9949393,4.643469,-1.2117472
3.216,7.1685057,5.293358,-2.7735217,-3.0375917,4.4235563,-1.1125107
3.218,6.8074036,5.08205,-2.9942951,-3.0861444,4.192705,-1.0109775
3.22,6.4593334,4.8773627,-3.2071247,-3.140474,3.95119,-0.9076216
3.222,6.1265745,4.6788116,-3.4107695,-3.2003381,3.699451,-0.80298156
3.224,5.810992,4.485889,-3.6041765,-3.2653866,3.4381094,-0.69760394
3.226,5.51464,4.297933,-3.7861643,-3.3351588,3.1679657,-0.59199643
3.228,5.239116,4.114286,-3.9558814,-3.4090548,2.8899467,-0.48661035
3.23,4.9857745,3.934218,-4.112527,-3.4863844,2.6051617,-0.38180214
3.232,4.755852,3.7568831,-4.2555933,-3.5663645,2.314822,-0.27782214
3.234,4.549825,3.5817986,-4.384768,-3.6481628,2.0202322,-0.17480713
3.236,4.36813,3.4085863,-4.4997354,-3.73091,1.7227732,-0.072773695
3.238,4.2109303,3.2367795,-4.600599,-3.8137293,1.4238477,0.028333902
3.24,4.077687,3.0662305,-4.6875653,-3.895743,1.1248928,0.12858248
3.242,3.9679499,2.8968372,-4.7609754,-3.976132,0.82731986,0.22804797
3.244,3.8808646,2.728662,-4.8214135,-4.054157,0.5324851,0.3267634
3.246,3.8150866,2.5618703,-4.8698187,-4.129139,0.24165216,0.4247297
3.248,3.769207,2.3968663,-4.90713,-4.2004895,-0.044036627,0.52189064
3.25,3.741857,2.2337909,-4.934454,-4.2677364,-0.32359976,0.61813784
3.252,3.731006,2.073205,-4.9529486,-4.3305054,-0.596272,0.71331036
3.254,3.7349534,1.9157357,-4.963724,-4.3885293,-0.86149395,0.8072369
3.256,3.7515848,1.7620358,-4.967949,-4.4416614,-1.1189222,0.89975345
3.258,3.7790728,1.612795,-4.9666424,-4.489879,-1.3684204,0.9907005
3.26,3.8153625,1.4687169,-4.9609146,-4.5332556,-1.6100383,1.0799365
3.262,3.8585467,1.3304904,-4.9517837,-4.5719633,-1.8439579,1.1673012
3.264,3.9068053,1.1988105,-4.939982,-4.6062365,-2.0704603,1.2526542
3.266,3.9580333,1.0742706,-4.9261866,-4.636383,-2.2899308,1.3358558
3.268,4.0108294,0.95743966,-4.9109306,-4.662723,-2.5027692,1.4167674
3.27,4.063434,0.8488656,-4.8943744,-4.685609,-2.7093794,1.4952707
3.272,4.114496,0.74897635,-4.8766327,-4.705369,-2.9101276,1.5712711
3.274,4.1627116,0.6581885,-4.8576965,-4.7222967,-3.1053243,1.6446878
3.276,4.2069945,0.5769488,-4.8373303,-4.7366467,-3.29519,1.715474
3.278,4.24612,0.5055096,-4.8152,-4.7486033,-3.4798758,1.7836034
3.28,4.279201,0.44395173,-4.7908907,-4.758313,-3.6594367,1.8490723
3.282,4.3053904,0.3925384,-4.763978,-4.7658405,-3.833843,1.9119179
3.284,4.3240266,0.35119885,-4.733793,-4.771199,-4.0030127,1.9721771
3.286,4.3346705,0.32002646,-4.6996937,-4.7743254,-4.1667943,2.0299177
3.288,4.33671,0.29897672,-4.6610055,-4.7751346,-4.324982,2.085195
3.29,4.329765,0.28803724,-4.6171594,-4.7735066,-4.477343,2.138064
3.292,4.313752,0.28690675,-4.5675263,-4.769293,-4.6236143,2.1885524
3.294,4.288387,0.29522437,-4.5115,-4.7623434,-4.7635217,2.2366858
3.296,4.2535343,0.31274706,-4.4485774,-4.7524986,-4.8967705,2.2824764
3.298,4.2091517,0.33888024,-4.378429,-4.739611,-5.0230656,2.3259344
3.3,4.1552153,0.373136,-4.3005924,-4.723561,-5.142106,2.3670583
3.302,4.0917816,0.41499007,-4.214794,-4.7042356,-5.253614,2.4058545
3.304,4.0188127,0.46388838,-4.1208544,-4.6815515,-5.3572907,2.4423115
3.306,3.9363842,0.51928544,-4.018647,-4.655446,-5.4528427,2.4764414
3.308,3.844596,0.5806076,-3.9080086,-4.625865,-5.539986,2.5082545
3.31,3.7434258,0.64726955,-3.7890582,-4.5927696,-5.618431,2.5377765
3.312,3.633063,0.7187832,-3.66179,-4.556129,-5.6878695,2.5650496
3.314,3.5136619,0.79468346,-3.5263991,-4.515927,-5.7479873,2.5901165
3.316,3.38516,0.8744144,-3.383283,-4.4721456,-5.7985115,2.6130362
3.318,3.2480521,0.9574983,-3.2326822,-4.42477,-5.8391776,2.6339169
3.32,3.1023412,1.0434618,-3.0750601,-4.373792,-5.869711,2.652902
3.322,2.948231,1.1317493,-2.9108114,-4.3192124,-5.889896,2.6701336
3.324,2.786141,1.2218938,-2.740512,-4.2609897,-5.89951,2.685787
3.326,2.6162348,1.3135183,-2.5648034,-4.1991143,-5.898378,2.700003
3.328,2.4388037,1.4061849,-2.3842463,-4.133572,-5.886351,2.712934
3.33,2.2543566,1.4994134,-2.1994133,-4.064353,-5.8633113,2.724715
3.332,2.06322,1.5928509,-2.011039,-3.9914327,-5.8291335,2.7354426
3.334,1.8661072,1.686079,-1.8197095,-3.9147873,-5.7837405,2.7451816
3.336,1.663398,1.7787282,-1.6261225,-3.8344138,-5.7270617,2.7539437
3.338,1.455809,1.8702507,-1.4309274,-3.75031,-5.659039,2.7617
3.34,1.2440431,1.9603649,-1.2348397,-3.6624649,-5.5796285,2.768384
3.342,1.0286553,2.0486863,-1.0385414,-3.5708823,-5.488794,2.7738855
3.344,0.81056917,2.1347568,-0.842478,-3.4755616,-5.3865333,2.778054
3.346,0.5906273,2.2180414,-0.64751923,-3.37651,-5.272855,2.780691
3.348,0.36957687,2.2982447,-0.45411903,-3.273747,-5.1478057,2.7816124
3.35,0.14844638,2.374975,-0.26299202,-3.167298,-5.011502,2.7806408
3.352,-0.07183927,2.447794,-0.07468134,-3.0572007,-4.864105,2.7776253
3.354,-0.2904487,2.5164437,0.110042214,-2.9435134,-4.705822,2.7724526
3.356,-0.50644046,2.5806174,0.29086187,-2.8262959,-4.5369477,2.7650635
3.358,-0.7187891,2.6400237,0.46706063,-2.7056217,-4.357821,2.7554524
3.36,-0.926742,2.6946054,0.6381362,-2.581598,-4.168847,2.743654
3.362,-1.1292021,2.744183,0.80355924,-2.4543715,-3.9704661,2.7297297
3.364,-1.3254695,2.7886024,0.9627241,-2.324113,-3.7631958,2.7137961
3.366,-1.5146947,2.8278797,1.1152203,-2.1910236,-3.5475974,2.6960003
3.368,-1.6960948,2.8621178,1.2604527,-2.055354,-3.3242905,2.6765134
3.37,-1.8689791,2.891468,1.3980374,-1.9174063,-3.0939052,2.6555443
3.372,-2.0327187,2.9160273,1.5274421,-1.7775271,-2.8571496,2.6332643
3.374,-2.1868505,2.9362547,1.6483274,-1.636107,-2.6147864,2.609892
3.376,-2.3308885,2.9524884,1.7603039,-1.4935791,-2.3676147,2.5856676
3.378,-2.4645529,2.965112,1.8631397,-1.3504188,-2.1164854,2.560809
3.38,-2.5874119,2.9745827,1.9563694,-1.2071174,-1.862275,2.5355265
3.382,-2.6993022,2.9813795,2.0398068,-1.0641809,-1.6058736,2.5099874
3.384,-2.8001382,2.9860659,2.1133041,-0.92209685,-1.3482059,2.484324
3.386,-2.889879,2.9891298,2.176641,-0.7813605,-1.0902004,2.45862
3.388,-2.968445,2.9910638,2.22966,-0.6424359,-0.8327839,2.4329283
3.39,-3.0360963,2.9924693,2.2722845,-0.5057439,-0.5768666,2.4072466
3.392,-3.0929868,2.9937751,2.3045344,-0.3716635,-0.32333142,2.3815417
3.394,-3.13943,2.99549,2.3263006,-0.24054396,-0.073018044,2.3557334
3.396,-3.1758835,2.9980783,2.3376136,-0.11267358,0.17326525,2.3297434
3.398,-3.2025795,3.0019171,2.338625,0.011698902,0.41479155,2.303475
3.4,-3.2201388,3.007463,2.3293386,0.13236374,0.6509013,2.2768238
3.402,-3.2290602,3.0151186,2.3100338,0.2491591,0.88100386,2.2496717
3.404,-3.2298338,3.0251575,2.280799,0.36195946,1.1045957,2.2219021
3.406,-3.223093,3.0377457,2.241751,0.47066724,1.3212672,2.1934242
3.408,-3.209444,3.0533204,2.1931896,0.5752161,1.5306635,2.164149
3.41,-3.1897159,3.0719733,2.1352727,0.67556095,1.732537,2.1340272
3.412,-3.1645517,3.0939612,2.0682688,0.7717007,1.9266945,2.1030257
3.414,-3.134544,3.1194441,1.992359,0.8636471,2.1130111,2.0711462
3.416,-3.1004944,3.148432,1.9077877,0.95145214,2.2914236,2.0384204
3.418,-3.063011,3.1811109,1.8147405,1.0351818,2.4619305,2.0048888
3.42,-3.022717,3.217515,1.7133883,1.1149061,2.6245663,1.9706265
3.422,-2.9803507,3.2576146,1.6039191,1.190731,2.7794068,1.9357164
3.424,-2.9365325,3.301313,1.4865338,1.2627715,2.9265475,1.900223
3.426,-2.8918138,3.3485727,1.3614442,1.3311406,3.0661135,1.8642483
3.428,-2.8469985,3.399342,1.2287507,1.3959558,3.1982481,1.8278452
3.43,-2.802538,3.4534416,1.0885911,1.4573319,3.3230803,1.7910569
3.432,-2.758956,3.5106957,0.9411503,1.5153738,3.440753,1.7539223
3.434,-2.716817,3.5708756,0.78655934,1.5701834,3.5513813,1.7164497
3.436,-2.6764905,3.6336298,0.6249374,1.6218545,3.6550658,1.6786325
3.438,-2.6385832,3.6985712,0.45641625,1.6704534,3.7519016,1.6404624
3.44,-2.6033568,3.765347,0.2811433,1.7160447,3.8419447,1.6019275
3.442,-2.5711746,3.8335354,0.0993675,1.7586876,3.9252498,1.563029
3.444,-2.542686,3.9027421,-0.08867192,1.7984211,4.0018363,1.5237784
3.446,-2.5180507,3.9726386,-0.28270233,1.8352716,4.071698,1.4841981
3.448,-2.497708,4.0426702,-0.48249638,1.8692683,4.134819,1.444306
3.45,-2.4816966,4.112146,-0.6878514,1.9004347,4.191192,1.4041221
3.452,-2.4703584,4.1805067,-0.89837563,1.9287921,4.2408037,1.363676
3.454,-2.4639452,4.2471247,-1.1138611,1.954359,4.283658,1.3229879
3.456,-2.4625957,4.311512,-1.3336773,1.9771689,4.31977,1.2820712
3.458,-2.4664984,4.37317,-1.5575583,1.9972484,4.3491683,1.2409335
3.46,-2.4758422,4.43156,-1.7849437,2.0146291,4.371893,1.1996009
3.462,-2.4907825,4.4863367,-2.015305,2.0293472,4.3879967,1.1581149
3.464,-2.5112376,4.537041,-2.2480125,2.0414367,4.397546,1.1165007
3.466,-2.5374312,4.583351,-2.4825659,2.0509155,4.40061,1.0748191
3.468,-2.569501,4.625075,-2.7182777,2.0578165,4.3972573,1.0331699
3.47,-2.607387,4.6620016,-2.954635,2.0621617,4.387545,0.9916797
3.472,-2.6512437,4.693997,-3.190889,2.0639725,4.3715143,0.95051324
3.474,-2.7008953,4.720912,-3.4263725,2.0632718,4.349192,0.9098517
3.476,-2.7564003,4.742839,-3.660474,2.060061,4.320597,0.86987454
3.478,-2.8179083,4.7598324,-3.8924665,2.0543308,4.285728,0.83075863
3.48,-2.8852072,4.77191,-4.121701,2.046066,4.244554,0.79267716
3.482,-2.9582045,4.779367,-4.347467,2.0352554,4.197016,0.7558094
3.484,-3.0368266,4.7823076,-4.56903,2.0218704,4.1430473,0.7203064
3.486,-3.120881,4.780992,-4.7856216,2.005904,4.082571,0.68626094
3.488,-3.2102652,4.7756624,-4.9965158,1.9873168,4.015532,0.6537225
3.49,-3.3048055,4.7666683,-5.2009816,1.9660857,3.9418871,0.6226586
3.492,-3.4041948,4.7542605,-5.398279,1.942184,3.861654,0.59297127
3.494,-3.5080814,4.738752,-5.5876913,1.9155802,3.7749028,0.56450576
3.496,-3.6162233,4.720404,-5.7685184,1.8862405,3.681776,0.5370617
3.498,-3.7280962,4.699651,-5.94015,1.8541621,3.582476,0.5104582
3.5,-3.8433802,4.676808,-6.101971,1.8193494,3.477274,0.48454368
3.502,-3.9616368,4.652198,-6.2533417,1.7818387,3.366472,0.4592272
