Time_s_,Acc_x_m_s_2_,Acc_y_m_s_2_,Acc_z_m_s_2_,Gyro_x_1_s_,Gyro_y_1_s_,Gyro_z_1_s_
0,2.9166267,-1.0377587,3.215053,0.286811,-1.4972724,-0.2630788
0.002,2.8935244,-1.0059551,3.173571,0.30184323,-1.4569106,-0.2748658
0.004,2.8594038,-0.96364516,3.137956,0.3139859,-1.4211059,-0.28917718
0.006,2.8138907,-0.909954,3.1082523,0.32219884,-1.3919834,-0.30642307
0.008,2.7556973,-0.84315974,3.0840461,0.3253531,-1.3719351,-0.32695824
0.01,2.6844754,-0.76195,3.0643945,0.32236496,-1.3634598,-0.3510725
0.012,2.5998366,-0.66532624,3.0478833,0.31232628,-1.3687637,-0.37894854
0.014,2.5012555,-0.55254865,3.0328915,0.2946513,-1.3893285,-0.41058153
0.016,2.3877919,-0.42256975,3.0179465,0.26918548,-1.4255269,-0.44562092
0.018,2.260562,-0.27601007,3.0023427,0.23640797,-1.4762391,-0.4832399
0.02,2.118081,-0.11230469,2.9878032,0.19753692,-1.5386727,-0.52214754
0.022,1.9583129,0.06963156,2.9713295,0.15452754,-1.6084329,-0.56067264
0.024,1.7849294,0.26722142,2.9458835,0.10997349,-1.6797974,-0.59684217
0.026,1.5989352,0.47956857,2.9087965,0.06697115,-1.746202,-0.628518
0.028,1.4007562,0.7059074,2.8582456,0.029152274,-1.8001294,-0.6542975
0.03,1.1915205,0.9445981,2.788822,-0.00092175603,-1.8368837,-0.67106843
0.032,0.9736301,1.1934767,2.6963387,-0.019897819,-1.8507407,-0.6772772
0.034,0.7501323,1.4499269,2.5785608,-0.024962783,-1.837394,-0.6717303
0.036,0.5228081,1.7119035,2.4342508,-0.014164001,-1.7945156,-0.65369684
0.038,0.29387623,1.9770898,2.262366,0.013343811,-1.7216388,-0.62300324
0.04,0.066471726,2.2423263,2.0612578,0.057314187,-1.6198645,-0.5800709
0.042,-0.15653843,2.504366,1.8297716,0.11634132,-1.4920394,-0.5261415
0.044,-0.37208045,2.7597682,1.5683377,0.18796223,-1.3424973,-0.46327186
0.046,-0.5767933,3.0049453,1.2782017,0.26883432,-1.1766069,-0.3941049
0.048,-0.76719975,3.2360787,0.9617611,0.3549815,-1.0004677,-0.32164568
0.05,-0.9402315,3.4499993,0.6228539,0.44215706,-0.82062215,-0.2492263
0.052,-1.0940378,3.64445,0.26536947,0.5262144,-0.6435293,-0.1804186
0.054,-1.2266226,3.8173587,-0.10626966,0.6034371,-0.4753216,-0.1184105
0.056,-1.3377143,3.968861,-0.49227524,0.6708499,-0.3217727,-0.06584743
0.058,-1.42214,4.094924,-0.88167864,0.72648466,-0.18777704,-0.024755761
0.06,-1.4772352,4.1940575,-1.2687395,0.7693978,-0.07713792,0.003630668
0.062,-1.5059352,4.267633,-1.6451702,0.79961336,0.0074961483,0.018954903
0.064,-1.5048268,4.314513,-2.0056784,0.81804335,0.06492543,0.021778762
0.066,-1.4706882,4.33401,-2.3467865,0.82626826,0.0952321,0.013430953
0.068,-1.4082658,4.3301034,-2.66089,0.8262059,0.099744216,-0.004130721
0.07,-1.3219681,4.306964,-2.9408588,0.8198765,0.08088145,-0.028500706
0.072,-1.2127306,4.2670155,-3.183774,0.80911005,0.04170826,-0.05707507
0.074,-1.0787144,4.210985,-3.3850884,0.7953479,-0.014366835,-0.08715902
0.076,-0.9228976,4.142589,-3.5402353,0.779535,-0.08385712,-0.11618057
0.078,-0.74975777,4.065622,-3.6496334,0.7620857,-0.16361174,-0.14192092
0.08,-0.5631623,3.982164,-3.715886,0.7429625,-0.25095326,-0.16274655
0.082,-0.36658835,3.8938222,-3.739128,0.7218647,-0.34366268,-0.17780346
0.084,-0.16356611,3.802225,-3.7188869,0.6984486,-0.4399578,-0.18709117
0.086,0.042282104,3.709919,-3.6568656,0.6725046,-0.53828686,-0.1913334
0.088,0.24757695,3.6189067,-3.5564888,0.64417756,-0.6370706,-0.1918303
0.09,0.44978213,3.5304132,-3.4217267,0.6141938,-0.7344079,-0.19032028
0.092,0.6468246,3.4452808,-3.2567692,0.58382535,-0.8280537,-0.18873675
0.094,0.83651936,3.364457,-3.0662775,0.55482584,-0.91511995,-0.1886493
0.096,1.0168965,3.2890613,-2.855176,0.52922153,-0.99261194,-0.19107524
0.098,1.186768,3.2196429,-2.628392,0.50899154,-1.057771,-0.19651593
0.1,1.3455248,3.1562796,-2.3911834,0.49589366,-1.1078322,-0.20483463
0.102,1.4926155,3.0988126,-2.1494036,0.49131092,-1.1405772,-0.21533412
0.104,1.6279397,3.0473228,-1.9089849,0.49609774,-1.1548675,-0.22670907
0.106,1.7514383,3.0021148,-1.6757444,0.5105351,-1.1506304,-0.2372791
0.108,1.8631887,2.9643078,-1.4552454,0.53439164,-1.1286007,-0.24565525
0.11,1.9630191,2.9350624,-1.2521994,0.5670063,-1.0901511,-0.25064743
0.112,2.050505,2.9156997,-1.0702271,0.6073723,-1.0374058,-0.25113994
0.114,2.1251388,2.9074092,-0.9115808,0.65430653,-0.9727588,-0.24624945
0.116,2.1861691,2.911747,-0.77764654,0.7065479,-0.8984632,-0.23548993
0.118,2.2334526,2.9295418,-0.6687621,0.76277655,-0.8166492,-0.21893194
0.12,2.2662482,2.9618416,-0.5844178,0.8217398,-0.7292096,-0.19715118
0.122,2.2841647,3.0094557,-0.52322984,0.88226277,-0.6379924,-0.17119037
0.124,2.2871895,3.072957,-0.48306942,0.9431354,-0.5449429,-0.14256181
0.126,2.2761672,3.1518555,-0.46129382,1.0029858,-0.45222545,-0.11317894
0.128,2.2509298,3.2462344,-0.4550326,1.0602301,-0.36253086,-0.08530569
0.13,2.2137196,3.35426,-0.46255577,1.11305,-0.27923784,-0.061380416
0.132,2.167394,3.4732056,-0.47750604,1.1594479,-0.2063025,-0.043873847
0.134,2.1108835,3.602446,-0.49146402,1.1973023,-0.14811811,-0.0350354
0.136,2.0468123,3.7386703,-0.50053906,1.2245126,-0.10912153,-0.036723316
0.138,1.9785429,3.8778453,-0.50166893,1.2392682,-0.093218684,-0.050266832
0.14,1.9091012,4.0163956,-0.48908913,1.2402638,-0.103254616,-0.076432586
0.142,1.8409333,4.1507645,-0.45937073,1.2268982,-0.14054081,-0.11527023
0.144,1.7764384,4.277599,-0.4114213,1.1994163,-0.20456842,-0.16593981
0.146,1.7193747,4.3930817,-0.34492397,1.1590708,-0.29281598,-0.2267004
0.148,1.6727033,4.4941883,-0.25948703,1.1080209,-0.40111476,-0.29532063
0.15,1.6383929,4.5790224,-0.15395534,1.0491388,-0.5236206,-0.36913902
0.152,1.6183238,4.6463513,-0.028078318,0.985801,-0.65348935,-0.44508472
0.154,1.6137409,4.6955595,0.11709118,0.9214735,-0.78399855,-0.5200812
0.156,1.6250725,4.7265644,0.27994347,0.8594029,-0.9087985,-0.59126616
0.158,1.6518362,4.740446,0.45798016,0.80235684,-1.0222219,-0.6562396
0.16,1.6932199,4.738353,0.64776504,0.75250715,-1.1199658,-0.7130978
0.162,1.7484006,4.7215533,0.8466841,0.7113343,-1.1993573,-0.76043886
0.164,1.8167799,4.6917396,1.0511336,0.67957795,-1.2592521,-0.7975511
0.166,1.8949672,4.652223,1.2571422,0.6573211,-1.2998885,-0.824453
0.168,1.9800283,4.605621,1.4623455,0.6441041,-1.3227898,-0.84173167
0.17,2.070417,4.5541477,1.661913,0.639015,-1.3303751,-0.8503006
0.172,2.1661875,4.498999,1.851427,0.64081156,-1.325592,-0.85120803
0.174,2.2612517,4.4439793,2.0318933,0.6480166,-1.311561,-0.84562844
0.176,2.3517346,4.3914075,2.2053618,0.6590693,-1.2913105,-0.8348473
0.178,2.4394467,4.340846,2.3677616,0.6724353,-1.2676173,-0.8201862
0.18,2.5253315,4.2922,2.5168695,0.68669903,-1.2428533,-0.8028723
0.182,2.6066375,4.24716,2.653655,0.70061016,-1.2188629,-0.7839765
0.184,2.6798115,4.2081366,2.77662,0.7131515,-1.1969523,-0.7644228
0.186,2.7454562,4.174854,2.8848271,0.7235366,-1.1778402,-0.74496406
0.188,2.8053699,4.1467514,2.982009,0.73125297,-1.1616865,-0.726163
0.19,2.860644,4.1245017,3.071506,0.73603696,-1.1481956,-0.7083832
0.192,2.9122405,4.108029,3.1529112,0.7378286,-1.1367173,-0.6917895
0.194,2.960928,4.096062,3.2250366,0.7367698,-1.1263267,-0.6763333
0.196,3.0076702,4.086648,3.2885988,0.73314977,-1.1160159,-0.6618991
0.198,3.05365,4.0779104,3.3448615,0.7273859,-1.1046107,-0.64832175
0.2,3.0998886,4.0682178,3.3942451,0.7199739,-1.0909249,-0.63530123
0.202,3.1473694,4.0561953,3.4364252,0.7115068,-1.0739036,-0.62254
0.204,3.1973364,4.040645,3.4709923,0.70264876,-1.0524862,-0.6096974
0.206,3.250948,4.020488,3.4973156,0.6940564,-1.0257316,-0.59636855
0.208,3.3087323,3.9950187,3.5144544,0.68638146,-0.99287456,-0.58209383
0.21,3.371528,3.9636602,3.5217786,0.6802521,-0.9533619,-0.56640744
0.212,3.4397693,3.9259882,3.5190425,0.67625,-0.907011,-0.54884374
0.214,3.513789,3.8814478,3.5059862,0.67485887,-0.8540266,-0.528994
0.216,3.5938044,3.8294573,3.4827657,0.67641425,-0.7949791,-0.50648254
0.218,3.6797206,3.769362,3.4501433,0.6810827,-0.73072606,-0.48100454
0.22,3.7716017,3.7005851,3.4085808,0.68886995,-0.6623009,-0.4524206
0.222,3.869367,3.6228447,3.359087,0.699644,-0.5908624,-0.42078894
0.224,3.9707875,3.5369792,3.302789,0.71315503,-0.5176552,-0.38627797
0.226,4.075474,3.4428031,3.2434535,0.72900707,-0.4439707,-0.34921312
0.228,4.1828012,3.3396382,3.182842,0.74666613,-0.37118316,-0.31012002
0.23,4.2931423,3.2261853,3.12156,0.7654123,-0.3008306,-0.2697305
0.232,4.4055037,3.1014562,3.0624475,0.78436697,-0.23463613,-0.22892019
0.234,4.5203853,2.9641035,3.0083613,0.80250067,-0.17453748,-0.18871596
0.236,4.6379585,2.8132744,2.961893,0.81866074,-0.12265724,-0.1502845
0.238,4.756131,2.6486487,2.9254055,0.831604,-0.08117524,-0.11487609
0.24,4.872722,2.4694371,2.9021425,0.84011734,-0.052161157,-0.083756104
0.242,4.9862075,2.2735364,2.897585,0.8431169,-0.03734234,-0.05813229
0.244,5.0958734,2.059547,2.9128346,0.8397883,-0.037856907,-0.038958997
0.246,5.2014484,1.831764,2.946951,0.82967806,-0.05409278,-0.026904672
0.248,5.3096313,1.5935798,2.9961643,0.812765,-0.08559492,-0.022276372
0.25,5.417811,1.3474386,3.0618227,0.7894815,-0.13095629,-0.024923578
0.252,5.525562,1.0934091,3.1446495,0.7606713,-0.18810849,-0.034314856
0.254,5.6278286,0.8340562,3.24134,0.72747326,-0.25456142,-0.04974489
0.256,5.718444,0.5716548,3.3503308,0.6911677,-0.32744682,-0.07037528
0.258,5.7945657,0.306506,3.4744573,0.653213,-0.40374875,-0.095387146
0.26,5.8511353,0.040270686,3.6106672,0.61498415,-0.48089445,-0.12418405
0.262,5.882667,-0.22420266,3.747399,0.57757765,-0.55707115,-0.15644735
0.264,5.8883595,-0.48500037,3.873516,0.5417283,-0.6309145,-0.19207272
0.266,5.8664904,-0.7371036,3.9827983,0.5077303,-0.70168734,-0.23131719
0.268,5.8141375,-0.9735867,4.0731387,0.475545,-0.7692317,-0.2748109
0.27,5.7268453,-1.1864457,4.1414123,0.44516128,-0.8332788,-0.32340705
0.272,5.6007075,-1.3673024,4.183064,0.41690186,-0.89299494,-0.37781063
0.274,5.4305496,-1.5076017,4.1941566,0.39108178,-0.94741875,-0.4376781
0.276,5.2130637,-1.6003163,4.170064,0.36791632,-0.99545014,-0.5015956
0.278,4.945237,-1.6391542,4.1042023,0.34802145,-1.0350307,-0.5676194
0.28,4.6236753,-1.6186901,3.992555,0.3321485,-1.0636681,-0.63347775
0.282,4.247537,-1.5356783,3.8302188,0.321435,-1.0778319,-0.69595706
0.284,3.8170354,-1.3889585,3.61217,0.3175931,-1.0728178,-0.75099355
0.286,3.3345923,-1.1801147,3.3365095,0.32211024,-1.0442528,-0.79437745
0.288,2.8038,-0.91343653,3.0041978,0.33587357,-0.9884596,-0.82195115
0.29,2.229227,-0.59462464,2.620089,0.3592217,-0.90240437,-0.83031285
0.292,1.6173265,-0.23119104,2.191156,0.39184353,-0.7847415,-0.81796235
0.294,0.9763311,0.16742608,1.725076,0.43275416,-0.6365502,-0.785717
0.296,0.31570834,0.5900458,1.2300931,0.48023224,-0.4616914,-0.7369884
0.298,-0.3539364,1.0241525,0.71519434,0.53176606,-0.26673096,-0.67792904
0.3,-1.0210328,1.4562309,0.18932816,0.5839907,-0.060509354,-0.61680657
0.302,-1.6734688,1.8726454,-0.33882815,0.63269997,0.14630648,-0.5631347
0.304,-2.2987876,2.2597172,-0.86042035,0.6732481,0.34199584,-0.5265219
0.306,-2.8844244,2.6034348,-1.3656304,0.7009476,0.5147251,-0.5153705
0.308,-3.4198778,2.8909495,-1.8412776,0.7115246,0.65364516,-0.53556526
0.31,-3.894363,3.1119034,-2.2795715,0.70142746,0.7495758,-0.589628
0.312,-4.2950544,3.2563195,-2.6810734,0.66808295,0.79583925,-0.67659986
0.314,-4.6171465,3.3181014,-3.0308259,0.6103855,0.7892806,-0.79232615
0.316,-4.8570757,3.2945309,-3.321533,0.5289238,0.73046076,-0.9301677
0.318,-5.009755,3.184509,-3.551043,0.42600304,0.623281,-1.0820477
0.32,-5.0736213,2.9901428,-3.7120652,0.30552483,0.4748669,-1.2394847
0.322,-5.0521393,2.7179255,-3.8028312,0.17258024,0.2948445,-1.3946347
0.324,-4.9478135,2.3744152,-3.827086,0.032867372,0.09404525,-1.541205
0.326,-4.765336,1.9679354,-3.7900276,-0.107800186,-0.116398394,-1.6749907
0.328,-4.5142612,1.5107245,-3.694279,-0.24356657,-0.32541472,-1.7941706
0.33,-4.203943,1.0158343,-3.5446723,-0.3690602,-0.5229844,-1.8984988
0.332,-3.8454335,0.49640378,-3.3496954,-0.48023102,-0.7014755,-1.9883608
0.334,-3.4488869,-0.034942195,-3.1145432,-0.57424116,-0.85532105,-2.0643833
0.336,-3.0271137,-0.5648618,-2.847863,-0.64972794,-0.9815165,-2.1277254
0.338,-2.5933695,-1.0801493,-2.555746,-0.70672107,-1.079154,-2.1796844
0.34,-2.1607776,-1.5681802,-2.2421222,-0.7458651,-1.1476374,-2.221036
0.342,-1.7396997,-2.0182989,-1.9150287,-0.7682015,-1.1870388,-2.2523556
0.344,-1.3407915,-2.4214735,-1.5817099,-0.7753808,-1.198678,-2.2740731
0.346,-0.97238636,-2.7713573,-1.2490312,-0.769311,-1.1833154,-2.2859716
0.348,-0.63962513,-3.06411,-0.9235066,-0.75216645,-1.1419189,-2.2880046
0.35,-0.3466138,-3.2969923,-0.6108558,-0.726124,-1.0760696,-2.2805357
0.352,-0.097197294,-3.4679682,-0.31829596,-0.69308597,-0.9879801,-2.2644703
0.354,0.104812205,-3.5772662,-0.047236443,-0.6546886,-0.8809142,-2.2413323
0.356,0.25703347,-3.6311574,0.20268214,-0.61244696,-0.75920796,-2.212988
0.358,0.35312033,-3.6340206,0.4332763,-0.5680994,-0.6280992,-2.181555
0.36,0.39830744,-3.5897079,0.6410588,-0.5236041,-0.49303135,-2.149273
0.362,0.39581907,-3.5011501,0.8241478,-0.48111606,-0.35954618,-2.118324
0.364,0.3530227,-3.3748956,0.9842409,-0.44284725,-0.23293018,-2.090602
0.366,0.276886,-3.2177258,1.1207864,-0.41080582,-0.11766046,-2.0674891
0.368,0.17044508,-3.0354056,1.2298481,-0.38673335,-0.017429233,-2.0498748
0.37,0.038385868,-2.8357615,1.3143694,-0.3720532,0.065047204,-2.038115
0.372,-0.115359545,-2.6278768,1.3834062,-0.36778766,0.12803161,-2.0321875
0.374,-0.29166126,-2.4195404,1.4417735,-0.3744877,0.1706075,-2.031812
0.376,-0.48906374,-2.2206602,1.4883237,-0.39219183,0.19262749,-2.03648
0.378,-0.7038907,-2.0416183,1.5190725,-0.420461,0.19464946,-2.0455117
0.38,-0.931459,-1.8918316,1.5328932,-0.45840955,0.17792392,-2.0580745
0.382,-1.1685537,-1.7789123,1.5303912,-0.50477225,0.14444363,-2.0731843
0.384,-1.4123574,-1.7084037,1.5122736,-0.5579283,0.09687376,-2.089784
0.386,-1.6611078,-1.683461,1.4793444,-0.6159767,0.038534343,-2.1067562
0.388,-1.9134228,-1.7049276,1.432159,-0.67678964,-0.026732266,-2.122983
0.39,-2.1673875,-1.7729645,1.3716635,-0.7381574,-0.09479678,-2.1374567
0.392,-2.4213223,-1.8869921,1.2989888,-0.7978616,-0.1615116,-2.1493106
0.394,-2.674311,-2.0455396,1.2147186,-0.8537463,-0.22319448,-2.157963
0.396,-2.9257503,-2.2456243,1.1175147,-0.9039184,-0.27660072,-2.163107
0.398,-3.1753335,-2.4833455,1.0049376,-0.94681,-0.31908605,-2.1646793
0.4,-3.4228516,-2.754806,0.87285304,-0.9813778,-0.3496885,-2.1632116
0.402,-3.667616,-3.056057,0.7181258,-1.0069968,-0.36819983,-2.1595116
0.404,-3.9084225,-3.3829546,0.5389831,-1.0235281,-0.37521714,-2.1546743
0.406,-4.143527,-3.7307231,0.33502173,-1.0313315,-0.37230527,-2.1499498
0.408,-4.371348,-4.0942082,0.10766721,-1.0310419,-0.3615009,-2.1467795
0.41,-4.589916,-4.468081,-0.14029908,-1.0233808,-0.34498283,-2.1467788
0.412,-4.7971563,-4.8472214,-0.40493846,-1.0090599,-0.32498822,-2.1513374
0.414,-4.990573,-5.226634,-0.68161106,-0.9887762,-0.30391216,-2.161477
0.416,-5.167999,-5.601206,-0.9657314,-0.96316826,-0.2839043,-2.1777833
0.418,-5.325856,-5.9662886,-1.2551444,-0.93284965,-0.26687902,-2.200382
0.42,-5.462078,-6.3182807,-1.5428696,-0.8985434,-0.25480497,-2.2289848
0.422,-5.5768538,-6.652712,-1.8163412,-0.8609446,-0.24933153,-2.2628691
0.424,-5.664357,-6.9676914,-2.0788531,-0.8207476,-0.2519347,-2.3010242
0.426,-5.7208166,-7.262423,-2.324587,-0.7787061,-0.26392806,-2.3422036
0.428,-5.7459993,-7.5355244,-2.544178,-0.735643,-0.28628552,-2.385079
0.43,-5.738246,-7.7870016,-2.7351134,-0.69246817,-0.31979257,-2.428575
0.432,-5.693844,-8.018524,-2.890853,-0.65011,-0.36494344,-2.4719198
0.434,-5.6136007,-8.229518,-3.0032282,-0.60946774,-0.4218521,-2.5146646
0.436,-5.4982204,-8.420147,-3.0670314,-0.5713414,-0.4902454,-2.5566864
0.438,-5.345746,-8.592676,-3.08136,-0.5363508,-0.5693102,-2.598077
0.44,-5.157982,-8.748046,-3.0447834,-0.5048834,-0.6576444,-2.6390586
0.442,-4.9355316,-8.888223,-2.95405,-0.47704807,-0.753252,-2.6798964
0.444,-4.678297,-9.015762,-2.8105285,-0.45264792,-0.85362816,-2.7206943
0.446,-4.387364,-9.132711,-2.6152692,-0.43122256,-0.9558463,-2.7613237
0.448,-4.06507,-9.240507,-2.3701658,-0.4121706,-1.0567049,-2.8014138
0.45,-3.7142892,-9.341283,-2.078412,-0.39481026,-1.1530263,-2.840326
0.452,-3.339237,-9.436759,-1.7422929,-0.37847507,-1.2418103,-2.8772697
0.454,-2.9446735,-9.527592,-1.365521,-0.36261475,-1.3204411,-2.9113436
0.456,-2.5360188,-9.613359,-0.9515295,-0.3468643,-1.386827,-2.9416568
0.458,-2.1186137,-9.693458,-0.50371075,-0.33108544,-1.43945,-2.9673948
0.46,-1.6977541,-9.767309,-0.026304722,-0.31537795,-1.477323,-2.9878564
0.462,-1.2791563,-9.83359,0.47632408,-0.30001917,-1.499897,-3.0024667
0.464,-0.8689418,-9.890732,0.9986186,-0.2854163,-1.5069575,-3.0107577
0.466,-0.47429526,-9.93608,1.5341046,-0.27207562,-1.4986026,-3.0123801
0.468,-0.101819515,-9.96696,2.0763674,-0.26059836,-1.4751545,-3.0070355
0.47,0.24209285,-9.979667,2.6186538,-0.25160897,-1.4371707,-2.9945407
0.472,0.5509887,-9.96995,3.1547916,-0.24575523,-1.385492,-2.974699
0.474,0.81900835,-9.933229,3.6797853,-0.24373876,-1.3212361,-2.9471393
0.476,1.0407076,-9.865101,4.188987,-0.24639797,-1.2459588,-2.911429
0.478,1.2119954,-9.761709,4.6783566,-0.25466514,-1.161703,-2.867328
0.48,1.3297725,-9.6197,5.1438856,-0.26956907,-1.0708644,-2.8147547
0.482,1.3923335,-9.436447,5.5819263,-0.29216504,-0.9761125,-2.7537632
0.484,1.3993568,-9.210241,5.9898653,-0.32351118,-0.88027495,-2.6845691
0.486,1.3515353,-8.940341,6.3654585,-0.36457995,-0.7862346,-2.607845
0.488,1.2503788,-8.626805,6.7071505,-0.41614562,-0.69676226,-2.5248208
0.49,1.0986087,-8.2702055,7.014015,-0.47873086,-0.6143096,-2.4372709
0.492,0.90099573,-7.8720756,7.285685,-0.55253196,-0.54087174,-2.3474321
0.494,0.6622889,-7.434747,7.52244,-0.6374137,-0.4779355,-2.2579558
0.496,0.3897314,-6.961648,7.725031,-0.73292065,-0.42631173,-2.1718028
0.498,0.08992481,-6.4571743,7.8945823,-0.8382559,-0.3860234,-2.0920026
0.5,-0.2303673,-5.9253516,8.0331,-0.9523794,-0.3563174,-2.0213828
0.502,-0.564142,-5.3703985,8.1434355,-1.0740316,-0.33576328,-1.9623561
0.504,-0.90344787,-4.7967725,8.227599,-1.2018535,-0.32225794,-1.9167675
0.506,-1.2399958,-4.2100153,8.287136,-1.3344775,-0.31319433,-1.8857739
0.508,-1.565779,-3.6156466,8.324982,-1.4706076,-0.30564317,-1.8699057
0.51,-1.8723245,-3.0194068,8.345757,-1.6090647,-0.29657862,-1.8690915
0.512,-2.1521978,-2.4265692,8.353739,-1.7488116,-0.2831256,-1.8828042
0.514,-2.3986053,-1.8419981,8.352705,-1.8889644,-0.2627757,-1.9102008
0.516,-2.6052155,-1.2705526,8.345215,-2.0288043,-0.2335521,-1.9502698
0.518,-2.7646918,-0.71719646,8.332521,-2.167816,-0.19415492,-2.0019674
0.52,-2.8738992,-0.18462324,8.31736,-2.305647,-0.143991,-2.0642724
0.522,-2.9303195,0.32512188,8.302204,-2.4421213,-0.08325684,-2.1362007
0.524,-2.9307363,0.8099003,8.2878895,-2.577258,-0.012796819,-2.216696
0.526,-2.8725724,1.26773,8.274902,-2.711262,0.065966606,-2.3047633
0.528,-2.7545898,1.6973879,8.264034,-2.844501,0.15113223,-2.3994565
0.53,-2.5760524,2.098269,8.2566805,-2.9774473,0.24057198,-2.4997647
0.532,-2.3369865,2.470065,8.253113,-3.1105855,0.33225727,-2.6044946
0.534,-2.0390785,2.8133132,8.254438,-3.2444317,0.42431837,-2.7123318
0.536,-1.684951,3.1288016,8.26203,-3.3795893,0.5149353,-2.821893
0.538,-1.2769542,3.4175406,8.27597,-3.5166972,0.6024954,-2.9317627
0.54,-0.81809604,3.680814,8.296303,-3.6563854,0.68560976,-3.0405216
0.542,-0.3114121,3.9196646,8.323534,-3.7993095,0.7631495,-3.1468592
0.544,0.23997866,4.1354117,8.358102,-3.9461205,0.83408105,-3.2496219
0.546,0.8323454,4.3296504,8.400788,-4.0975075,0.8974496,-3.347817
0.548,1.4612758,4.5035815,8.452029,-4.254076,0.9523703,-3.4405746
0.55,2.1227202,4.6583986,8.512573,-4.4162836,0.99799216,-3.5271916
0.552,2.8111107,4.79712,8.582206,-4.584431,1.0336332,-3.6071334
0.554,3.5195923,4.923021,8.661209,-4.7586174,1.0586953,-3.6798687
0.556,4.2425146,5.0389423,8.750842,-4.9388046,1.072567,-3.7448277
0.558,4.975405,5.1476507,8.852285,-5.1247377,1.0747284,-3.8013773
0.56,5.7124925,5.2529893,8.966277,-5.315957,1.0649142,-3.848824
0.562,6.4480586,5.3588386,9.094153,-5.5118647,1.0431285,-3.8864813
0.564,7.1762843,5.4687757,9.237436,-5.7117605,1.0096734,-3.913762
0.566,7.8907137,5.586634,9.397043,-5.9148607,0.9652915,-3.9301958
0.568,8.584696,5.716792,9.573384,-6.120274,0.9112271,-3.9354758
0.57,9.250775,5.8640275,9.76658,-6.32702,0.8491508,-3.9295008
0.572,9.882095,6.032578,9.976955,-6.534021,0.7811736,-3.912362
0.574,10.472396,6.226488,10.20501,-6.7401476,0.70979047,-3.884388
0.576,11.015559,6.4493346,10.45036,-6.9442453,0.63777375,-3.8462315
0.578,11.505817,6.7046776,10.713953,-7.145194,0.5680499,-3.7988343
0.58,11.936616,6.9953866,10.994923,-7.341959,0.5036162,-3.7433658
0.582,12.302571,7.323477,11.291781,-7.5336404,0.44733632,-3.6812387
0.584,12.598626,7.690369,11.601686,-7.7195015,0.4017862,-3.6139984
0.586,12.820785,8.09682,11.920793,-7.899028,0.3690943,-3.543384
0.588,12.965606,8.543358,12.244146,-8.071782,0.350931,-3.4712882
0.59,13.030963,9.029419,12.566589,-8.237384,0.34865093,-3.3997102
0.592,13.016029,9.553717,12.88278,-8.395571,0.36309862,-3.3306096
0.594,12.921124,10.114319,13.186461,-8.546148,0.39449453,-3.26576
0.596,12.747365,10.708574,13.47168,-8.688921,0.44243926,-3.206695
0.598,12.497421,11.3329315,13.7325,-8.823692,0.50609016,-3.1547282
0.6,12.17547,11.983159,13.962505,-8.950326,0.58416957,-3.1109343
0.602,11.787215,12.654454,14.156618,-9.068762,0.6750587,-3.0761
0.604,11.337609,13.340408,14.311221,-9.179103,0.7768493,-3.0507271
0.606,10.831171,14.03385,14.41943,-9.281607,0.88729995,-3.0350826
0.608,10.277675,14.730154,14.478214,-9.376622,1.0042145,-3.029247
0.61,9.685616,15.425419,14.483122,-9.46451,1.1256832,-3.0331528
0.612,9.063462,16.114283,14.429917,-9.545763,1.2498176,-3.0466127
0.614,8.420713,16.790262,14.319691,-9.620913,1.3748858,-3.0692716
0.616,7.765892,17.447336,14.1542635,-9.690439,1.4994969,-3.1006622
0.618,7.107666,18.080105,13.935265,-9.754772,1.6226486,-3.1402855
0.62,6.454865,18.68457,13.664433,-9.814315,1.7436529,-3.1876538
0.622,5.816521,19.257298,13.344263,-9.86945,1.8621652,-3.242295
0.624,5.2009854,19.79494,12.97837,-9.9205265,1.9782716,-3.3037133
0.626,4.6159306,20.294624,12.572685,-9.967862,2.092316,-3.3714266
0.628,4.066287,20.754667,12.133717,-10.011794,2.2048347,-3.4449482
0.63,3.5593083,21.172659,11.666804,-10.052687,2.3164911,-3.5236824
0.632,3.1001432,21.54779,11.177834,-10.09095,2.4278812,-3.6070867
0.634,2.6911879,21.88073,10.673888,-10.1268,2.5395494,-3.6947393
0.636,2.3342357,22.172985,10.162024,-10.160327,2.651942,-3.7861438
0.638,2.0308444,22.425844,9.648358,-10.191698,2.765202,-3.880423
0.64,1.7811818,22.641138,9.138184,-10.220988,2.8792353,-3.976886
0.642,1.584074,22.821133,8.636093,-10.248206,2.993529,-4.075143
0.644,1.4384108,22.96838,8.144658,-10.273085,3.1074958,-4.174876
0.646,1.3415298,23.086172,7.665544,-10.29506,3.2204392,-4.2756925
0.648,1.2897239,23.178148,7.2007375,-10.313418,3.3315558,-4.3771915
0.65,1.2784824,23.24829,6.751089,-10.327314,3.439982,-4.4790325
0.652,1.3025641,23.30079,6.3163624,-10.335808,3.5448124,-4.5809603
0.654,1.3565073,23.339155,5.8956757,-10.337972,3.6450841,-4.682805
0.656,1.4349914,23.366774,5.4868093,-10.333002,3.7398427,-4.7844515
0.658,1.5323715,23.386778,5.0864353,-10.320311,3.828102,-4.8857822
0.66,1.6428986,23.401735,4.691386,-10.29963,3.9089303,-4.9867425
0.662,1.7607431,23.413782,4.2983513,-10.271004,3.98138,-5.0873494
0.664,1.8809838,23.42448,3.9031749,-10.234803,4.044548,-5.187636
0.666,1.9974856,23.436028,3.5021982,-10.191581,4.097773,-5.287641
0.668,2.10528,23.448618,3.0913172,-10.142008,4.140625,-5.3874474
0.67,2.1998205,23.46316,2.6671748,-10.086823,4.17299,-5.4870577
0.672,2.2767925,23.480242,2.2267408,-10.026725,4.195176,-5.5863295
0.674,2.332509,23.500172,1.7675052,-9.962312,4.207929,-5.6849546
0.676,2.3642488,23.522776,1.2877321,-9.894065,4.212386,-5.782495
0.678,2.3701448,23.547516,0.78665876,-9.822414,4.2100577,-5.878372
0.68,2.349256,23.57383,0.26457214,-9.747718,4.2027497,-5.9719048
0.682,2.3009453,23.601103,-0.27753544,-9.670327,4.1924596,-6.062387
0.684,2.2255216,23.628826,-0.83784294,-9.590611,4.1813197,-6.149214
0.686,2.1238093,23.656462,-1.4137297,-9.508957,4.1715,-6.2318563
0.688,1.9968925,23.68367,-2.0040317,-9.425921,4.1650105,-6.3099155
0.69,1.8475714,23.709892,-2.6053548,-9.342023,4.163683,-6.383296
0.692,1.6785984,23.734943,-3.2139077,-9.257557,4.169243,-6.4523125
0.694,1.4941587,23.758492,-3.825335,-9.172834,4.1830735,-6.517001
0.696,1.2988868,23.780254,-4.4350805,-9.088105,4.2062855,-6.577429
0.698,1.0976901,23.79965,-5.037929,-9.003703,4.239514,-6.6338778
0.7,0.8956809,23.816196,-5.6294136,-8.919919,4.283022,-6.686843
0.702,0.69844866,23.829346,-6.2054143,-8.836952,4.3367214,-6.736903
0.704,0.51129055,23.838707,-6.7620597,-8.754929,4.400178,-6.784572
0.706,0.33994865,23.843788,-7.29645,-8.673925,4.472555,-6.8302493
0.708,0.18944025,23.844278,-7.8062787,-8.593972,4.5527344,-6.87427
0.71,0.06407499,23.839848,-8.289054,-8.515035,4.639316,-6.916979
0.712,-0.032669544,23.829987,-8.743793,-8.437005,4.7306976,-6.9587097
0.714,-0.09523058,23.81484,-9.170899,-8.359678,4.8251705,-6.999728
0.716,-0.11967611,23.794569,-9.567576,-8.282812,4.92096,-7.040188
0.718,-0.106594324,23.766747,-9.935408,-8.206129,5.01631,-7.0801277
0.72,-0.054832697,23.7287,-10.275669,-8.129298,5.1095147,-7.1195245
0.722,0.03661275,23.67982,-10.590086,-8.051949,5.1989694,-7.158354
0.724,0.16576159,23.62137,-10.881563,-7.9736624,5.2831984,-7.196613
0.726,0.33123374,23.553633,-11.153679,-7.8940105,5.3608527,-7.2343745
0.728,0.5304657,23.475615,-11.409711,-7.8125353,5.430738,-7.2718287
0.73,0.7590218,23.386534,-11.65235,-7.7287683,5.491846,-7.309251
0.732,1.0126892,23.285105,-11.886656,-7.642234,5.5433187,-7.3469734
0.734,1.2856381,23.171518,-12.116706,-7.552495,5.5845413,-7.385336
0.736,1.5726602,23.045698,-12.347834,-7.4591584,5.6151514,-7.424638
0.738,1.8684566,22.907795,-12.584873,-7.3618956,5.6350136,-7.465057
0.74,2.167474,22.7578,-12.8323555,-7.260464,5.6442895,-7.506626
0.742,2.4643085,22.595608,-13.094422,-7.1547074,5.643492,-7.5491962
0.744,2.7534766,22.421343,-13.37471,-7.0445576,5.6334305,-7.5923934
0.746,3.0298157,22.235168,-13.676702,-6.930042,5.61516,-7.6356072
0.748,3.2884865,22.037432,-14.003614,-6.8112545,5.589988,-7.678006
0.75,3.5256653,21.828564,-14.358083,-6.6883583,5.5593657,-7.718498
0.752,3.738267,21.609135,-14.742052,-6.561605,5.5246367,-7.75592
0.754,3.923921,21.37942,-15.156725,-6.431205,5.4871235,-7.789051
0.756,4.081343,21.139643,-15.602799,-6.2974586,5.447937,-7.8167205
0.758,4.2095437,20.889942,-16.08017,-6.160726,5.407815,-7.8379183
0.76,4.3087587,20.63032,-16.587545,-6.021331,5.3672266,-7.851794
0.762,4.380082,20.360489,-17.122992,-5.8796225,5.326181,-7.8577323
0.764,4.4251356,20.080212,-17.684174,-5.735998,5.2842407,-7.855428
0.766,4.446044,19.789228,-18.268091,-5.590792,5.24068,-7.8448105
0.768,4.4454794,19.487484,-18.871058,-5.4443283,5.194455,-7.826007
0.77,4.4267926,19.174742,-19.48889,-5.296949,5.1443057,-7.799321
0.772,4.393525,18.850672,-20.1167,-5.1489763,5.088803,-7.7651496
0.774,4.3493233,18.514692,-20.749058,-5.000742,5.0263944,-7.7238755
0.776,4.299179,18.165237,-21.38055,-4.8526263,4.955431,-7.67587
0.778,4.246893,17.80244,-22.00487,-4.705056,4.874188,-7.6214995
0.78,4.1964808,17.42524,-22.616304,-4.5584965,4.7809634,-7.5611105
0.782,4.151408,17.032852,-23.20923,-4.413502,4.6740623,-7.495033
0.784,4.1149473,16.624756,-23.778494,-4.27068,4.5519013,-7.4235735
0.786,4.0895844,16.200981,-24.319252,-4.1306286,4.413051,-7.34705
0.788,4.077366,15.761693,-24.827232,-3.993926,4.25633,-7.2657895
0.79,4.080019,15.30727,-25.298502,-3.861062,4.080934,-7.1801023
0.792,4.0984306,14.838121,-25.729527,-3.7324,3.8864615,-7.0902905
0.794,4.133088,14.354969,-26.117737,-3.6081617,3.672967,-6.9966054
0.796,4.1838446,13.858994,-26.461065,-3.4883962,3.4409597,-6.899249
0.798,4.24988,13.351604,-26.758228,-3.3729873,3.1913517,-6.798381
0.8,4.32936,12.834817,-27.008953,-3.2616777,2.9254227,-6.694123
0.802,4.4205494,12.310739,-27.213688,-3.1541138,2.644723,-6.5865793
0.804,4.5210533,11.781514,-27.374197,-3.0499115,2.3510084,-6.4758577
0.806,4.6280003,11.249664,-27.492628,-2.9486637,2.0461907,-6.3620415
0.808,4.7382965,10.717885,-27.572258,-2.8500686,1.7321831,-6.245294
0.81,4.849062,10.1891,-27.616402,-2.7537954,1.4109138,-6.1257515
0.812,4.9568796,9.666239,-27.62883,-2.6595788,1.084368,-6.003599
0.814,5.0587606,9.152079,-27.613605,-2.5672634,0.7544327,-5.879084
0.816,5.151185,8.649359,-27.574537,-2.4766746,0.4230994,-5.7524977
0.818,5.231184,8.160824,-27.515564,-2.3876405,0.09239103,-5.624116
0.82,5.2960043,7.68902,-27.44123,-2.3000126,-0.23570183,-5.494304
0.822,5.3432903,7.236486,-27.35606,-2.2136025,-0.5591489,-5.363431
0.824,5.3707952,6.805526,-27.264528,-2.1281414,-0.87591887,-5.231832
0.826,5.3769975,6.3981724,-27.170834,-2.0433488,-1.1840532,-5.0998254
0.828,5.3609743,6.016231,-27.078815,-1.9589243,-1.4817573,-4.9677153
0.83,5.3223495,5.6617436,-26.991764,-1.8745395,-1.7674544,-4.835765
0.832,5.2613726,5.336384,-26.912586,-1.7898865,-2.039856,-4.7041874
0.834,5.17927,5.04071,-26.844606,-1.704725,-2.2980576,-4.573142
0.836,5.076777,4.7755537,-26.789673,-1.6188672,-2.5415578,-4.4427195
0.838,4.955847,4.541507,-26.749905,-1.5322382,-2.770298,-4.313021
0.84,4.8191295,4.3384943,-26.727417,-1.4448726,-2.984653,-4.1841154
0.842,4.668744,4.166747,-26.721832,-1.3569189,-3.1853755,-4.0560594
0.844,4.508607,4.025462,-26.73407,-1.2686677,-3.373561,-3.928921
0.846,4.3415246,3.9144177,-26.76385,-1.180497,-3.5505755,-3.8028347
0.848,4.1711392,3.832654,-26.81083,-1.0928376,-3.71796,-3.67797
0.85,4.0006685,3.7793975,-26.874195,-1.0061486,-3.8773623,-3.5545685
0.852,3.8333826,3.7535043,-26.952785,-0.92089075,-4.030471,-3.4329271
0.854,3.6721888,3.7539,-27.044922,-0.8374905,-4.178967,-3.3134155
0.856,3.5199642,3.7794275,-27.148474,-0.7563175,-4.324498,-3.196437
0.858,3.3791914,3.8290062,-27.26147,-0.67763746,-4.4685564,-3.0823975
0.86,3.2518167,3.9008617,-27.382063,-0.6016337,-4.6124506,-2.971719
0.862,3.1394386,3.9939766,-27.50609,-0.5283694,-4.7573223,-2.8648431
0.864,3.0424452,4.107196,-27.630737,-0.45781147,-4.904135,-2.7622092
0.866,2.9615526,4.2389965,-27.752485,-0.38982773,-5.053647,-2.6642296
0.868,2.8966217,4.3882465,-27.868092,-0.3242103,-5.2064385,-2.5713086
0.87,2.847103,4.5536003,-27.974783,-0.26073956,-5.36293,-2.4838142
0.872,2.8120794,4.733914,-28.069746,-0.19919014,-5.5234356,-2.4020717
0.874,2.7900925,4.927976,-28.149433,-0.13937163,-5.6881967,-2.3263454
0.876,2.779045,5.134405,-28.210306,-0.08112109,-5.8574066,-2.2569013
0.878,2.7766962,5.351626,-28.24916,-0.024308085,-6.031225,-2.1939697
0.88,2.7803135,5.578156,-28.26317,0.031151295,-6.2097316,-2.1377378
0.882,2.7870607,5.812536,-28.249727,0.08533287,-6.3929253,-2.0883937
0.884,2.7938519,6.053324,-28.206636,0.13827157,-6.5807066,-2.046061
0.886,2.7974281,6.298913,-28.131865,0.19001305,-6.7728186,-2.010872
0.888,2.7945776,6.5477705,-28.023659,0.24059892,-6.9688077,-1.9829798
0.89,2.7818441,6.798435,-27.88028,0.2900114,-7.16809,-1.9625239
0.892,2.7561893,7.0494137,-27.700405,0.33827305,-7.36982,-1.9496312
0.894,2.7143383,7.2991834,-27.482647,0.38532948,-7.572994,-1.9444178
0.896,2.6534872,7.546061,-27.226208,0.43106818,-7.7764463,-1.946949
0.898,2.5709372,7.788562,-26.930481,0.47534347,-7.978862,-1.9572693
0.9,2.464264,8.025183,-26.59555,0.51798177,-8.178786,-1.9753625
0.902,2.3318548,8.254778,-26.221952,0.5587852,-8.374656,-2.001192
0.904,2.1721258,8.476167,-25.810356,0.597558,-8.564795,-2.0346851
0.906,1.9845333,8.688416,-25.36204,0.63411474,-8.747377,-2.0756922
0.908,1.7687998,8.890568,-24.878609,0.668288,-8.920451,-2.1239867
0.91,1.5250578,9.08205,-24.361893,0.69994116,-9.081966,-2.1793127
0.912,1.2540741,9.262285,-23.814817,0.7289548,-9.229852,-2.2414026
0.914,0.956727,9.431286,-23.239742,0.75526357,-9.3620205,-2.3099399
0.916,0.6351042,9.588781,-22.639336,0.77881694,-9.476365,-2.3845863
0.918,0.29171467,9.734564,-22.016483,0.7995658,-9.570832,-2.4650326
0.92,-0.07096195,9.868652,-21.374344,0.8174968,-9.643521,-2.551038
0.922,-0.44995213,9.991236,-20.716255,0.83260226,-9.692712,-2.6423748
0.924,-0.84186554,10.102661,-20.045776,0.8448936,-9.716883,-2.738866
0.926,-1.2429643,10.203394,-19.36678,0.8544115,-9.714736,-2.8403664
0.928,-1.6492052,10.293962,-18.68313,0.8612162,-9.685191,-2.946777
0.93,-2.0562553,10.374863,-17.99868,0.8653376,-9.627447,-3.0579972
0.932,-2.4599986,10.446671,-17.317125,0.8668072,-9.540953,-3.1739345
0.934,-2.855936,10.510231,-16.642063,0.86562157,-9.425438,-3.2944822
0.936,-3.2398968,10.566261,-15.977439,0.86178493,-9.280882,-3.4195552
0.938,-3.6079226,10.615488,-15.326962,0.8552771,-9.107529,-3.5491388
0.94,-3.9561486,10.658512,-14.694004,0.8460743,-8.90587,-3.6832561
0.942,-4.281126,10.696357,-14.0816345,0.83414954,-8.676658,-3.8219764
0.944,-4.5790215,10.729915,-13.49293,0.8194755,-8.420802,-3.965467
0.946,-4.8463736,10.760061,-12.9307165,0.8019838,-8.139445,-4.113895
0.948,-5.0802236,10.787713,-12.397218,0.78165984,-7.8338404,-4.2675223
0.95,-5.2777185,10.81365,-11.895022,0.75853693,-7.505403,-4.4266095
0.952,-5.436281,10.839016,-11.426635,0.7326571,-7.1556697,-4.591363
0.954,-5.553879,10.865069,-10.994011,0.7040459,-6.7863474,-4.7619057
0.956,-5.6284294,10.892958,-10.598737,0.67277455,-6.3992987,-4.9383082
0.958,-5.658379,10.924064,-10.241762,0.6389629,-5.996565,-5.1205935
0.96,-5.642326,10.959497,-9.923685,0.6027787,-5.580345,-5.3087482
0.962,-5.5793157,11.000846,-9.645208,0.56442803,-5.152972,-5.5027447
0.964,-5.4682493,11.049717,-9.4069195,0.5241194,-4.716827,-5.702538
0.966,-5.3084965,11.107667,-9.208894,0.48205483,-4.2742763,-5.908038
0.968,-5.0995626,11.176162,-9.050036,0.4384269,-3.8276029,-6.11915
0.97,-4.8410187,11.257258,-8.92924,0.3934123,-3.378913,-6.335723
0.972,-4.5328636,11.352207,-8.846559,0.34714705,-2.9301214,-6.557557
0.974,-4.17454,11.462704,-8.800204,0.29971057,-2.4828808,-6.7843723
0.976,-3.76661,11.590656,-8.788726,0.25112784,-2.0385838,-7.015833
0.978,-3.3092105,11.737514,-8.810004,0.2013967,-1.5983713,-7.2515473
0.98,-2.8028927,11.905293,-8.8622875,0.15048899,-1.1631289,-7.491035
0.982,-2.2482624,12.095627,-8.944283,0.09839025,-0.73352385,-7.7338057
0.984,-1.6457042,12.310426,-9.053886,0.045120403,-0.31000948,-7.979372
0.986,-0.99508935,12.551359,-9.189164,-0.009247541,0.10719156,-8.227287
0.988,-0.29676008,12.819941,-9.348473,-0.06455022,0.5180912,-8.477137
0.99,0.44893485,13.117741,-9.529927,-0.12053621,0.9229677,-8.728526
0.992,1.2410043,13.446836,-9.731096,-0.17684752,1.3223674,-8.981047
0.994,2.0791283,13.808763,-9.950111,-0.2330299,1.7170873,-9.234312
0.996,2.9625657,14.205233,-10.185308,-0.28850773,2.108207,-9.487936
0.998,3.8911774,14.637749,-10.435022,-0.34262747,2.4970016,-9.741458
1,4.8655267,15.10715,-10.698099,-0.39467347,2.8849187,-9.994346
1.002,5.884796,15.614576,-10.973843,-0.44391596,3.2734945,-10.2459345
1.004,6.9483747,16.161152,-11.262703,-0.48961222,3.6643705,-10.49547
1.006,8.055211,16.74834,-11.565199,-0.5310105,4.0592136,-10.742098
1.008,9.204278,17.377453,-11.882086,-0.56740594,4.4597034,-10.984874
1.01,10.394501,18.049627,-12.213984,-0.59811234,4.8674884,-11.222743
1.012,11.624857,18.765553,-12.561099,-0.62249184,5.284053,-11.454611
1.014,12.894136,19.525768,-12.923359,-0.63995814,5.7107716,-11.679392
1.016,14.201046,20.33042,-13.300525,-0.6499882,6.1489944,-11.895969
1.018,15.544634,21.179195,-13.6925335,-0.65209246,6.5999584,-12.103276
1.02,16.923998,22.071217,-14.099948,-0.6458266,7.064777,-12.300276
1.022,18.338003,23.005371,-14.522684,-0.6307545,7.544486,-12.485966
1.024,19.78564,23.979713,-14.961243,-0.60642874,8.040018,-12.659457
1.026,21.264904,24.992302,-15.415914,-0.57241356,8.552174,-12.819936
1.028,22.773708,26.040167,-15.886429,-0.5282699,9.081569,-12.966682
1.03,24.309475,27.119617,-16.372368,-0.47353768,9.628662,-13.099046
1.032,25.869436,28.226238,-16.872742,-0.40771294,10.193827,-13.216415
1.034,27.450272,29.354511,-17.385569,-0.3301735,10.777268,-13.318244
1.036,29.048462,30.49833,-17.90828,-0.24023223,11.379103,-13.403941
1.038,30.659174,31.651611,-18.437843,-0.13708758,11.999325,-13.472983
1.04,32.277466,32.807484,-18.970303,-0.019865274,12.637772,-13.524802
1.042,33.898296,33.95851,-19.501518,0.11232114,13.29398,-13.558775
1.044,35.515743,35.09713,-20.02688,0.26031494,13.966995,-13.574272
1.046,37.124535,36.215385,-20.541405,0.42478514,14.655176,-13.570616
1.048,38.719296,37.305107,-21.03986,0.6060772,15.355995,-13.547092
1.05,40.294323,38.358868,-21.516735,0.80402803,16.065842,-13.502926
1.052,41.844753,39.369537,-21.966534,1.0178542,16.780054,-13.437356
1.054,43.365932,40.330673,-22.38369,1.2460134,17.493,-13.349596
1.056,44.854652,41.236313,-22.7625,1.4862158,18.198345,-13.238876
1.058,46.30889,42.080845,-23.09805,1.7354376,18.889395,-13.104485
1.06,47.727062,42.859127,-23.38562,1.9900614,19.559582,-12.945756
1.062,49.109245,43.566742,-23.62151,2.2460825,20.202847,-12.7621
1.064,50.456585,44.200333,-23.802597,2.4993162,20.814096,-12.553072
1.066,51.771862,44.756905,-23.926067,2.7456515,21.38948,-12.318251
1.068,53.059612,45.2343,-23.99012,2.9812531,21.926468,-12.057446
1.07,54.325306,45.631386,-23.99464,3.2027209,22.423674,-11.770645
1.072,55.574936,45.9478,-23.94052,3.4071283,22.880793,-11.458015
1.074,56.815643,46.183975,-23.82934,3.592041,23.298462,-11.120038
1.076,58.054836,46.340477,-23.66351,3.755451,23.677883,-10.757443
1.078,59.300106,46.419113,-23.4468,3.8957362,24.020622,-10.371162
1.08,60.559555,46.422085,-23.184147,4.011609,24.328396,-9.962393
1.082,61.841743,46.351807,-22.881203,4.1020317,24.602919,-9.53262
1.084,63.154213,46.211105,-22.543781,4.166109,24.84573,-9.083618
1.086,64.50438,46.002937,-22.177982,4.2030153,25.058067,-8.617317
1.088,65.90004,45.729927,-21.789883,4.2119837,25.240948,-8.135793
1.09,67.34901,45.39441,-21.38466,4.192289,25.395039,-7.641113
1.092,68.85751,45.000763,-20.968166,4.1431627,25.520683,-7.135256
1.094,70.43171,44.553566,-20.549095,4.063779,25.617977,-6.620088
1.096,72.078094,44.058342,-20.135988,3.9532413,25.686855,-6.09727
1.098,73.802765,43.52189,-19.734673,3.810514,25.727243,-5.5681353
1.1,75.61439,42.952568,-19.353249,3.6345062,25.739155,-5.033758
1.102,77.5171,42.36611,-19.003555,3.4240189,25.72285,-4.494963
1.104,79.51436,41.77697,-18.687733,3.1777706,25.678967,-3.9524155
1.106,81.61459,41.18891,-18.40371,2.894455,25.608635,-3.4065118
1.108,83.82465,40.613216,-18.156763,2.5727706,25.513634,-2.8574662
1.11,86.14686,40.076096,-17.95453,2.2114263,25.396563,-2.3052864
1.112,88.5778,39.608437,-17.799173,1.8091841,25.260586,-1.7497897
1.114,91.12078,39.23917,-17.692076,1.3649473,25.109432,-1.1906013
1.116,93.777534,38.993923,-17.629978,0.87788296,24.947407,-0.62707996
1.118,96.55361,38.898735,-17.619453,0.34728622,24.779068,-0.05824566
1.12,99.4441,38.98526,-17.655546,-0.22730541,24.608904,0.5172746
1.122,102.44902,39.29792,-17.739561,-0.8458967,24.441301,1.1012344
1.124,105.566376,39.886368,-17.876617,-1.5079694,24.28026,1.69571
1.126,108.8029,40.79166,-18.06915,-2.2125735,24.128893,2.3031015
1.128,112.14458,42.06646,-18.315449,-2.9582844,23.989372,2.9260945
1.13,115.5787,43.749226,-18.645105,-3.7428732,23.862991,3.567643
1.132,119.083885,45.879246,-19.050346,-4.563383,23.749456,4.2300353
1.134,122.66731,48.468952,-19.496384,-5.416898,23.64596,4.9145226
1.136,126.35435,51.49642,-20.050217,-6.300401,23.548126,5.6221004
1.138,130.14096,55.004066,-20.761753,-7.209795,23.450811,6.3535886
1.14,134.01794,58.997025,-21.603848,-8.1407385,23.346334,7.1084113
1.142,137.91156,63.513012,-22.587006,-9.089747,23.223549,7.88444
1.144,141.82698,68.637726,-23.678907,-10.053366,23.06939,8.678736
1.146,145.7699,74.42792,-24.813684,-11.028925,22.868788,9.487248
1.148,149.7168,80.81442,-25.97181,-12.01523,22.603159,10.305927
1.15,153.6518,87.72209,-27.14597,-13.012747,22.251013,11.132932
1.152,157.57501,95.09587,-28.292004,-14.022784,21.788227,11.967506
1.154,161.49814,102.87822,-29.383278,-15.047046,21.189194,12.810058
1.156,165.44519,111.015594,-30.420147,-16.087965,20.42743,13.66455
1.158,169.4394,119.4119,-31.347633,-17.14682,19.478905,14.540166
1.16,173.51431,127.967705,-32.12275,-18.222866,18.321957,15.450306
1.162,177.66049,136.61607,-32.744423,-19.31538,16.933138,16.412888
1.164,181.85948,145.27023,-33.18118,-20.422302,15.290761,17.45625
1.166,186.11377,153.80309,-33.34956,-21.539326,13.377941,18.620804
1.168,190.3995,162.07352,-33.156094,-22.65623,11.198329,19.918377
1.17,194.73997,169.80157,-32.57797,-23.76412,8.75845,21.376608
1.172,199.19373,176.76695,-31.529938,-24.86743,6.0751133,23.016281
1.174,203.79068,182.97083,-29.943913,-25.965874,3.243938,24.676826
1.176,208.482,188.35464,-27.747934,-27.116554,0.14566803,26.5494
1.178,213.22787,192.80444,-24.860674,-28.302956,-3.1429005,28.500656
1.18,217.95241,196.21983,-21.219082,-29.524187,-6.58209,30.477001
1.182,222.56721,198.53795,-16.776691,-30.791615,-10.110275,32.374516
1.184,226.9769,199.7212,-11.514231,-32.137547,-13.685035,34.092625
1.186,231.06616,199.76588,-5.4440117,-33.58362,-17.276611,35.514515
1.188,234.72168,198.69302,1.3973949,-35.123276,-20.85764,36.51604
1.19,237.83023,196.54114,8.969424,-36.720737,-24.404173,36.981476
1.192,240.25883,193.3763,17.21681,-38.307777,-27.902538,36.807808
1.194,241.87296,189.26355,26.059078,-39.778385,-31.346428,35.914124
1.196,242.55925,184.28835,35.355694,-40.98952,-34.71775,34.24713
1.198,242.23088,178.56934,44.924053,-41.769836,-37.965603,31.782263
1.2,240.82172,172.24765,54.57163,-41.93749,-41.010803,28.551184
1.202,238.29778,165.47069,64.0939,-41.31681,-43.741425,24.65759
1.204,234.65503,158.39381,73.276794,-39.764954,-46.01116,20.224728
1.206,229.92366,151.17242,81.90177,-37.20222,-47.65975,15.393203
1.208,224.16766,143.95966,89.755295,-33.627033,-48.532974,10.346623
1.21,217.47789,136.90306,96.64955,-29.12015,-48.50324,5.3049164
1.212,209.97804,130.1352,102.42937,-23.84219,-47.492306,0.5118427
1.214,201.81267,123.78183,106.962585,-18.018463,-45.4858,-3.778429
1.216,193.14075,117.9611,110.1532,-11.911577,-42.539997,-7.324353
1.218,184.13438,112.7595,111.95598,-5.7987614,-38.785465,-9.927974
1.22,174.97299,108.22824,112.37082,0.049946785,-34.41819,-11.458324
1.222,165.83374,104.39574,111.433365,5.3977137,-29.68489,-11.84536
1.224,156.87341,101.27376,109.21648,10.069229,-24.834068,-11.138687
1.226,148.23283,98.85716,105.82422,13.960686,-20.104265,-9.476011
1.228,140.0293,97.12213,101.3987,17.021034,-15.74666,-6.975897
1.23,132.36609,96.02101,96.093124,19.292336,-11.793896,-4.140402
1.232,125.31375,95.48115,90.0829,20.789427,-8.4540825,-1.1445913
1.234,118.91638,95.41772,83.552475,21.60584,-5.79538,1.6829634
1.236,113.18358,95.74786,76.682144,21.877352,-3.8362956,4.080009
1.238,108.11955,96.37226,69.6405,21.764034,-2.5202928,5.82661
1.24,103.70032,97.202705,62.607193,21.40905,-1.7499857,6.7982535
1.242,99.88669,98.14695,55.70096,20.932003,-1.4094114,6.965651
1.244,96.59828,99.13481,49.00378,20.436754,-1.369329,6.3817434
1.246,93.7398,100.115295,42.666176,20.00949,-1.4897814,5.1725793
1.248,91.24701,100.974396,36.769325,19.713625,-1.6329145,3.5131655
1.25,89.05731,101.64763,31.29677,19.587196,-1.6853533,1.6019243
1.252,87.15665,102.05146,26.260788,19.642729,-1.5712495,-0.36343363
1.254,85.4474,102.08922,21.623253,19.871567,-1.2408042,-2.2225494
1.256,83.85109,101.72841,17.324814,20.24375,-0.6767216,-3.8622108
1.258,82.329254,101.055145,13.359251,20.716986,0.10072994,-5.177474
1.26,80.84181,100.127144,9.724632,21.24667,1.0469131,-6.097536
1.262,79.34346,98.96327,6.3825817,21.786457,2.0985994,-6.6148534
1.264,77.79407,97.577705,3.3182392,22.290485,3.1815119,-6.767905
1.266,76.158714,95.97994,0.5394707,22.718395,4.221655,-6.6223364
1.268,74.41994,94.21544,-1.9965744,23.038164,5.1550817,-6.257311
1.27,72.56363,92.31929,-4.3053703,23.226286,5.9358683,-5.7518015
1.272,70.61823,90.29468,-6.3624344,23.271248,6.5386944,-5.1742344
1.274,68.608215,88.171104,-8.178169,23.175129,6.9583144,-4.577775
1.276,66.52693,86.010605,-9.799656,22.946194,7.203461,-3.9993248
1.278,64.38518,83.87309,-11.259102,22.595352,7.2912655,-3.4624023
1.28,62.143944,81.9097,-12.517063,22.139053,7.2471952,-2.9786682
1.282,59.74649,80.15876,-13.600193,21.597166,7.1043196,-2.5471044
1.284,57.18022,78.46716,-14.513283,20.989147,6.896786,-2.1552896
1.286,54.498657,76.804565,-15.268215,20.33305,6.6549606,-1.7846327
1.288,51.72184,75.21534,-15.888229,19.645357,6.4046707,-1.4161029
1.29,48.88495,73.73314,-16.382847,18.940308,6.166708,-1.034769
1.292,46.012703,72.36652,-16.758825,18.229456,5.9564843,-0.63171864
1.294,43.11879,71.11897,-17.017088,17.521694,5.784071,-0.20402813
1.296,40.223854,69.98584,-17.155308,16.823475,5.6538486,0.24623156
1.298,37.33754,68.9642,-17.178318,16.138857,5.5650406,0.71370506
1.3,34.468365,68.05841,-17.113293,15.469803,5.5131016,1.1913643
1.302,31.644653,67.26706,-16.99047,14.816652,5.4909015,1.6714377
1.304,28.89617,66.604324,-16.831005,14.178491,5.489804,2.1459866
1.306,26.237503,66.07282,-16.620516,13.553552,5.5005274,2.6070714
1.308,23.67257,65.65453,-16.336805,12.939938,5.51406,3.046852
1.31,21.206844,65.32566,-15.976099,12.336148,5.5226755,3.458149
1.312,18.842804,65.06873,-15.539007,11.741284,5.520755,3.8352695
1.314,16.58554,64.86575,-15.027746,11.155205,5.505292,4.1744127
1.316,14.435896,64.70233,-14.4434805,10.578528,5.476166,4.4737263
1.318,12.393359,64.566055,-13.789544,10.012579,5.4359465,4.7331343
1.32,10.459998,64.44479,-13.079847,9.459183,5.389473,4.9540615
1.322,8.636221,64.32852,-12.333552,8.920574,5.3433127,5.139033
1.324,6.91924,64.20918,-11.566417,8.399205,5.3049755,5.291252
1.326,5.303995,64.08216,-10.792159,7.897515,5.282116,5.4142966
1.328,3.783513,63.947136,-10.0252285,7.4178376,5.281801,5.511771
1.33,2.3508615,63.806908,-9.279684,6.962202,5.3097606,5.586983
1.332,0.99905586,63.666122,-8.567093,6.5322123,5.3698854,5.6428447
1.334,-0.280715,63.529644,-7.89592,6.128937,5.4639273,5.681881
1.336,-1.4980946,63.400387,-7.2734575,5.7527795,5.5913234,5.706168
1.338,-2.6658926,63.279095,-6.706111,5.403345,5.7492576,5.717541
1.34,-3.8002596,63.166553,-6.2000585,5.079392,5.9328837,5.7179966
1.342,-4.916848,63.06384,-5.760234,4.7789083,6.1356792,5.709787
1.344,-6.0309205,62.97114,-5.390314,4.49922,6.3496857,5.6953406
1.346,-7.155954,62.888885,-5.0925016,4.2369394,6.5655465,5.6773043
1.348,-8.304356,62.817852,-4.867715,3.9880803,6.7729087,5.658725
1.35,-9.486325,62.75835,-4.7145643,3.7481818,6.960982,5.6431775
1.352,-10.709521,62.709347,-4.627871,3.5123725,7.118607,5.6346827
1.354,-11.979397,62.668644,-4.6002865,3.2753928,7.2343965,5.6375265
1.356,-13.298727,62.63212,-4.6215773,3.0317917,7.2970815,5.656
1.358,-14.666224,62.593563,-4.678191,2.7759538,7.295603,5.694219
1.36,-16.07811,62.54418,-4.7553577,2.502232,7.219427,5.7559037
1.362,-17.526836,62.47304,-4.836562,2.2051687,7.0586247,5.843915
1.364,-19.001728,62.36765,-4.903533,1.879743,6.804121,5.959851
1.366,-20.488806,62.214256,-4.9371967,1.5217183,6.4482102,6.103597
1.368,-21.971313,61.998924,-4.918313,1.1279774,5.985057,6.2729506
1.37,-23.429905,61.708164,-4.8287477,0.69686294,5.4111648,6.463278
1.372,-24.8432,61.328827,-4.651163,0.22847891,4.725999,6.667535
1.374,-26.188112,60.848854,-4.368531,-0.27504396,3.9325159,6.8763933
1.376,-27.441284,60.25728,-3.9650793,-0.80955887,3.0375276,7.0787034
1.378,-28.580574,59.5448,-3.4273233,-1.3690028,2.0519047,7.262103
1.38,-29.585224,58.704327,-2.7440891,-1.9455991,0.99050874,7.413872
1.382,-30.436417,57.73153,-1.9069214,-2.5302553,-0.12803704,7.5218954
1.384,-31.118172,56.6251,-0.9108944,-3.113079,-1.2818322,7.5755696
1.386,-31.617973,55.387497,0.24514008,-3.6839356,-2.4465458,7.5666485
1.388,-31.926876,54.024563,1.5581112,-4.2330384,-3.5963173,7.490041
1.39,-32.039276,52.54524,3.021103,-4.7515187,-4.704672,7.344566
1.392,-31.9532,50.962105,4.6227474,-5.2318926,-5.7454386,7.1331296
1.394,-31.670376,49.289886,6.3473825,-5.6683064,-6.693616,6.8622503
1.396,-31.196033,47.54577,8.175538,-6.0566206,-7.526167,6.541404
1.398,-30.53857,45.748775,10.084554,-6.3942723,-8.222624,6.182131
1.4,-29.70921,43.919086,12.048654,-6.679987,-8.765418,5.796878
1.402,-28.721844,42.077393,14.039341,-6.913508,-9.140646,5.397745
1.404,-27.592014,40.244415,16.026217,-7.095312,-9.338688,4.995514
1.406,-26.337217,38.440514,17.977688,-7.226266,-9.354233,4.599084
1.408,-24.97543,36.684975,19.862133,-7.307326,-9.186434,4.2149215
1.41,-23.52479,34.99505,21.648735,-7.339484,-8.8391,3.8469396
1.412,-22.003025,33.38633,23.307592,-7.323675,-8.320525,3.4963815
1.414,-20.428493,31.872353,24.810926,-7.260904,-7.6432676,3.1621377
1.416,-18.81757,30.463476,26.134834,-7.1524744,-6.823644,2.8413174
1.418,-17.184998,29.167152,27.259161,-7.0002165,-5.881267,2.5298147
1.42,-15.542965,27.986668,28.167547,-6.8066454,-4.838368,2.2228951
1.422,-13.90366,26.92236,28.848028,-6.5750237,-3.7189944,1.9157052
1.424,-12.279941,25.97375,29.294964,-6.3094006,-2.5480888,1.6038244
1.426,-10.681835,25.138132,29.506453,-6.014531,-1.3506479,1.2835672
1.428,-9.117347,24.410694,29.484493,-5.695756,-0.150781,0.9522486
1.43,-7.5954247,23.785807,29.236988,-5.3587527,1.0291362,0.6082027
1.432,-6.123644,23.257137,28.776041,-5.0093565,2.1692703,0.25086427
1.434,-4.7072906,22.81705,28.116554,-4.653386,3.2528796,-0.11931443
1.436,-3.351324,22.457466,27.276432,-4.2964783,4.2666864,-0.5009508
1.438,-2.0600767,22.170755,26.277443,-3.9439387,5.2011266,-0.89181745
1.44,-0.8372507,21.949097,25.143421,-3.6006527,6.050414,-1.2890406
1.442,0.31522942,21.784048,23.899128,-3.271,6.812202,-1.6892873
1.444,1.3969307,21.667315,22.569832,-2.9587643,7.4870915,-2.089023
1.446,2.4074764,21.591652,21.180561,-2.6670666,8.078132,-2.4845326
1.448,3.3484526,21.550116,19.75543,-2.3983352,8.590176,-2.8719647
1.45,4.2227464,21.536697,18.31731,-2.154367,9.02927,-3.2473752
1.452,5.0333176,21.545956,16.887108,-1.9363124,9.402104,-3.6069233
1.454,5.784594,21.573772,15.483671,-1.7445978,9.715533,-3.9471364
1.456,6.4807982,21.616562,14.123503,-1.5789064,9.976326,-4.26519
1.458,7.126881,21.671082,12.821208,-1.438268,10.1909,-4.55913
1.46,7.727904,21.735067,11.588558,-1.3211902,10.365154,-4.827926
1.462,8.289307,21.806625,10.434205,-1.2257866,10.50435,-5.071397
1.464,8.817662,21.883907,9.364909,-1.1499128,10.613141,-5.2901516
1.466,9.319607,21.965645,8.3848,-1.0912764,10.695601,-5.4854283
1.468,9.80114,22.050854,7.4953814,-1.0475109,10.755232,-5.6589174
1.47,10.268242,22.138897,6.697009,-1.0162859,10.795056,-5.8125305
1.472,10.726366,22.229004,5.98812,-0.9953408,10.817672,-5.948266
1.474,11.180222,22.320274,5.3659263,-0.9825742,10.82528,-6.0680523
1.476,11.634288,22.410934,4.826725,-0.9760728,10.819716,-6.173677
1.478,12.092625,22.499466,4.3664684,-0.9741149,10.802551,-6.2667933
1.48,12.558397,22.584293,3.9810147,-0.97516084,10.775121,-6.348938
1.482,13.034128,22.664045,3.6663394,-0.9778495,10.738573,-6.4215126
1.484,13.521595,22.737507,3.4176502,-0.98103,10.693874,-6.48578
1.486,14.021967,22.803272,3.2294807,-0.9836807,10.641853,-6.5428834
1.488,14.535953,22.860022,3.0956674,-0.98491335,10.583221,-6.593885
1.49,15.063431,22.906645,3.0100813,-0.98398376,10.518582,-6.639766
1.492,15.603391,22.942192,2.9666314,-0.98020816,10.44848,-6.6814175
1.494,16.15415,22.965786,2.9595876,-0.972965,10.373366,-6.7196183
1.496,16.714008,22.97666,2.983809,-0.9616773,10.2937155,-6.7550416
1.498,17.280634,22.97435,3.0344067,-0.9457762,10.210035,-6.7882514
1.5,17.851265,22.958618,3.106719,-0.92470837,10.122841,-6.8196917
1.502,18.422821,22.928694,3.1968527,-0.89797354,10.032745,-6.8496375
1.504,18.99176,22.884642,3.3014832,-0.8651228,9.940449,-6.87827
1.506,19.554535,22.826145,3.4178057,-0.8257716,9.846758,-6.905709
1.508,20.107586,22.75251,3.5432658,-0.7796371,9.752574,-6.932001
1.51,20.647022,22.66313,3.6752894,-0.7265756,9.658898,-6.9571185
1.512,21.169119,22.55761,3.81141,-0.6665616,9.566832,-6.981002
1.514,21.670044,22.435658,3.9494078,-0.5996547,9.477482,-7.0035625
1.516,22.146353,22.297209,4.087145,-0.5260112,9.391938,-7.024704
1.518,22.59495,22.14188,4.222532,-0.44582343,9.311221,-7.0442696
1.52,23.012674,21.96986,4.3536854,-0.35929823,9.236247,-7.0620556
1.522,23.396708,21.781342,4.4789486,-0.2666316,9.167798,-7.077784
1.524,23.744774,21.576653,4.596797,-0.16802001,9.106382,-7.0910788
1.526,24.054873,21.356256,4.7058597,-0.06364131,9.052279,-7.1014686
1.528,24.325352,21.12061,4.804763,0.046328545,9.00547,-7.108378
1.53,24.554958,20.87058,4.8923464,0.16171789,8.965653,-7.1111126
1.532,24.742802,20.606787,4.9677615,0.28236508,8.9322195,-7.1089063
1.534,24.88821,20.33007,5.030381,0.40805197,8.904228,-7.1009316
1.536,24.991016,20.041323,5.0796633,0.53849936,8.880413,-7.0863314
1.538,25.051098,19.741402,5.115377,0.6733587,8.859268,-7.0642977
1.54,25.069233,19.431137,5.1375737,0.8121698,8.839056,-7.0341234
1.542,25.046368,19.111317,5.146596,0.9543514,8.817833,-6.9952583
1.544,24.983929,18.782896,5.1429825,1.0992353,8.7936125,-6.947446
1.546,24.883596,18.446667,5.1273685,1.2460587,8.764335,-6.8907623
1.548,24.74748,18.103672,5.1006074,1.3939536,8.728043,-6.8255854
1.55,24.577618,17.754868,5.0637555,1.5419607,8.6828575,-6.7525115
1.552,24.3765,17.401157,5.017966,1.6890643,8.62711,-6.672413
1.554,24.146748,17.0436,4.964444,1.8341787,8.559359,-6.5863037
1.556,23.891472,16.68299,4.90442,1.9761851,8.478451,-6.495246
1.558,23.613575,16.320501,4.8393927,2.1139498,8.3835125,-6.400222
1.56,23.316408,15.957044,4.7706475,2.2463858,8.273984,-6.3020616
1.562,23.00324,15.59379,4.69971,2.3724627,8.149556,-6.2013817
1.564,22.677324,15.231955,4.6276946,2.4912643,8.010141,-6.0985928
1.566,22.341898,14.87274,4.5559425,2.601983,7.8558283,-5.993888
1.568,21.999928,14.517465,4.485622,2.7039495,7.6868925,-5.887296
1.57,21.654503,14.167356,4.4179688,2.7966514,7.5036764,-5.778735
1.572,21.30851,13.823778,4.3539524,2.8797219,7.3066316,-5.668111
1.574,20.964432,13.488037,4.294405,2.9529407,7.0962934,-5.555347
1.576,20.624496,13.161415,4.24016,3.0162077,6.873265,-5.4404526
1.578,20.290691,12.845208,4.1917105,3.069543,6.63826,-5.3235626
1.58,19.96489,12.540529,4.149541,3.113061,6.392131,-5.204935
1.582,19.64811,12.248638,4.1139727,3.146988,6.135866,-5.0849657
1.584,19.341545,11.9704275,4.0850973,3.171646,5.8706493,-4.964192
1.586,19.046011,11.706818,4.063073,3.187449,5.5978613,-4.8432517
1.588,18.761845,11.458424,4.0479207,3.1949224,5.3190413,-4.722909
1.59,18.489342,11.225784,4.039546,3.1946874,5.0358467,-4.603979
1.592,18.22836,11.009262,4.0376215,3.1874533,4.750016,-4.487301
1.594,17.97868,10.808934,4.0420523,3.1740108,4.4633064,-4.3737097
1.596,17.739826,10.624756,4.052359,3.155191,4.177402,-4.263961
1.598,17.51127,10.45644,4.068227,3.131844,3.8938396,-4.158678
1.6,17.292276,10.303616,4.0889916,3.1047778,3.6139724,-4.058359
1.602,17.082035,10.165617,4.1140223,3.07479,3.3389406,-3.9634209
1.604,16.879757,10.041624,4.142701,3.0425906,3.069639,-3.8741856
1.606,16.684578,9.930582,4.1743536,3.0087984,2.8067384,-3.790799
1.608,16.495607,9.831448,4.2084646,2.9739532,2.5506983,-3.7133098
1.61,16.311775,9.743137,4.244587,2.9384885,2.301786,-3.6417112
1.612,16.132214,9.664598,4.2820473,2.9027214,2.0601215,-3.575968
1.614,15.956329,9.594758,4.3202157,2.866855,1.8256786,-3.5159683
1.616,15.783382,9.532547,4.3584995,2.8309956,1.5983229,-3.4615736
1.618,15.612684,9.477054,4.396474,2.7951515,1.3778372,-3.4125993
1.62,15.443977,9.427246,4.4338365,2.759273,1.1639109,-3.3688614
1.622,15.276924,9.38216,4.4704056,2.7232504,0.95616,-3.3301682
1.624,15.111382,9.340754,4.505972,2.6869376,0.7541535,-3.2963176
1.626,14.9473915,9.302153,4.5405693,2.650169,0.55739343,-3.2671049
1.628,14.784614,9.26581,4.574239,2.612755,0.36534923,-3.242319
1.63,14.623468,9.23106,4.607213,2.5745246,0.17747483,-3.2217536
1.632,14.464127,9.197346,4.639863,2.5353003,-0.0067887753,-3.2052085
1.634,14.306904,9.164134,4.6726675,2.4949021,-0.18801847,-3.192488
1.636,14.15209,9.131232,4.7060127,2.4531567,-0.3667513,-3.183411
1.638,14.000357,9.098189,4.740615,2.409894,-0.5434789,-3.1778116
1.64,13.852005,9.064756,4.777189,2.3649716,-0.71861076,-3.1755214
1.642,13.707682,9.03089,4.8164697,2.3182518,-0.8924686,-3.176372
1.644,13.568168,8.996398,4.859321,2.2696407,-1.0652521,-3.1801937
1.646,13.433897,8.961414,4.9066267,2.2190735,-1.2370529,-3.1867948
1.648,13.305464,8.925855,4.958974,2.166529,-1.4078293,-3.1959515
1.65,13.183175,8.889581,5.0171986,2.1120625,-1.5774064,-3.207392
1.652,13.067566,8.852391,5.082085,2.0557761,-1.745496,-3.2208023
1.654,12.959089,8.813984,5.1544447,1.9978535,-1.9117181,-3.2358224
1.656,12.858092,8.774136,5.2349796,1.9385377,-2.0756326,-3.2520702
1.658,12.764631,8.732664,5.3242574,1.878134,-2.2367425,-3.2691457
1.66,12.679033,8.6893425,5.422834,1.8169817,-2.3945403,-3.2866619
1.662,12.601235,8.644128,5.531149,1.7554541,-2.5485194,-3.3042738
1.664,12.531319,8.596615,5.649331,1.6939409,-2.6981654,-3.321678
1.666,12.469242,8.546666,5.777687,1.6328447,-2.8429847,-3.3386388
1.668,12.414927,8.493828,5.9160013,1.5725448,-2.9824672,-3.3550081
1.67,12.368159,8.437845,6.064292,1.5133896,-3.1160965,-3.3706656
1.672,12.328627,8.378363,6.2221704,1.455684,-3.2433457,-3.3855367
1.674,12.29603,8.314799,6.3894277,1.399678,-3.3636708,-3.3995366
1.676,12.270028,8.246777,6.565644,1.3455917,-3.476497,-3.4125946
1.678,12.250092,8.173819,6.750355,1.2936265,-3.5812514,-3.4246335
1.68,12.235742,8.09546,6.9429636,1.2439443,-3.677378,-3.435544
1.682,12.226346,8.011185,7.1430073,1.1967,-3.764337,-3.445175
1.684,12.221424,7.9206157,7.349779,1.1520488,-3.8416276,-3.45335
1.686,12.220314,7.8232865,7.562522,1.110163,-3.9087663,-3.4598765
1.688,12.22226,7.718769,7.780553,1.0712532,-3.9653127,-3.4645755
1.69,12.226527,7.606736,8.003162,1.0355883,-4.01089,-3.4673193
1.692,12.232461,7.486923,8.22949,1.0035117,-4.0451436,-3.468043
1.694,12.23936,7.3592005,8.458656,0.975453,-4.067774,-3.466776
1.696,12.246447,7.2235723,8.689829,0.9519025,-4.0785213,-3.4635983
1.698,12.253048,7.0798893,8.92189,0.93336105,-4.077173,-3.4586055
1.7,12.258274,6.9284616,9.153901,0.92028576,-4.063551,-3.4518688
1.702,12.261763,6.769569,9.385161,0.9130601,-4.0375066,-3.4434004
1.704,12.26269,6.6039133,9.614613,0.9119099,-3.998962,-3.4331045
1.706,12.260467,6.4322433,9.84117,0.9168813,-3.9478827,-3.4207406
1.708,12.254519,6.2553377,10.063776,0.9278265,-3.8843062,-3.405962
1.71,12.244343,6.0740104,10.281515,0.94440913,-3.8083396,-3.3883333
1.712,12.229401,5.8892674,10.493289,0.9661586,-3.72017,-3.3673885
1.714,12.209028,5.7022285,10.6980095,0.9924971,-3.6200829,-3.342695
1.716,12.182861,5.514023,10.894658,1.022819,-3.508465,-3.3139026
1.718,12.150231,5.3259687,11.082242,1.0565221,-3.385864,-3.280778
1.72,12.111234,5.139144,11.259619,1.0930424,-3.2529473,-3.2432094
1.722,12.065327,4.95483,11.425977,1.13192,-3.110534,-3.2012444
1.724,12.012272,4.774176,11.580341,1.1727748,-2.9595554,-3.1550593
1.726,11.951974,4.5984344,11.72193,1.2152846,-2.801087,-3.1049135
1.728,11.884291,4.4286523,11.850045,1.2591602,-2.6363094,-3.0511255
1.73,11.809156,4.265801,11.96424,1.3040894,-2.4665387,-2.9939969
1.732,11.726721,4.1106067,12.064035,1.3497262,-2.2931023,-2.9338174
1.734,11.637027,3.9639368,12.149217,1.395712,-2.117322,-2.870901
1.736,11.539918,3.8263247,12.219554,1.4416381,-1.940532,-2.8056242
1.738,11.435919,3.6983027,12.275186,1.4870414,-1.7640225,-2.7383456
1.74,11.325134,3.58012,12.316181,1.5314524,-1.5890021,-2.6694393
1.742,11.208112,3.4719162,12.342831,1.5743525,-1.4166048,-2.5992954
1.744,11.085219,3.3738687,12.355564,1.6152153,-1.2478513,-2.5283337
1.746,10.957138,3.2856617,12.355037,1.6535151,-1.083638,-2.456998
1.748,10.824312,3.2072654,12.341901,1.6887424,-0.92472136,-2.3857608
1.75,10.68748,3.1381714,12.317054,1.7204593,-0.7716987,-2.3151674
1.752,10.547266,3.0778117,12.281265,1.7482932,-0.625022,-2.2458096
1.754,10.404137,3.02576,12.235372,1.7719848,-0.4850067,-2.1782937
1.756,10.259025,2.9812324,12.180586,1.7913598,-0.35182238,-2.1132278
1.758,10.1126175,2.9436367,12.117956,1.8063471,-0.22554289,-2.0511744
1.76,9.965503,2.912561,12.048581,1.8169671,-0.106146194,-1.9925992
1.762,9.818323,2.8874836,11.973367,1.8232913,0.006460756,-1.9378312
1.764,9.671522,2.8677876,11.893313,1.8254492,0.11239131,-1.8870287
1.766,9.525701,2.8528194,11.809413,1.8235942,0.21179506,-1.8401831
1.768,9.381386,2.8418407,11.722681,1.8178989,0.30481845,-1.7970985
1.77,9.238892,2.834181,11.634018,1.8085204,0.39163166,-1.7574338
1.772,9.098702,2.82904,11.544338,1.7956427,0.4724244,-1.7207484
1.774,8.960999,2.8259318,11.4546795,1.7794217,0.5473727,-1.6865486
1.776,8.826312,2.8241765,11.365643,1.759994,0.61666346,-1.6543131
1.778,8.694888,2.8232968,11.278078,1.7374957,0.6804959,-1.6235397
1.78,8.567029,2.8228602,11.192586,1.7120562,0.73909855,-1.5937961
1.782,8.443134,2.8223474,11.109877,1.6837991,0.79270685,-1.5647101
1.784,8.323353,2.8215382,11.030549,1.6528723,0.841595,-1.5360163
1.786,8.208179,2.819936,10.955114,1.6194277,0.8860187,-1.5075321
1.788,8.097978,2.8172987,10.884116,1.5836225,0.9262359,-1.4791458
1.79,7.9930964,2.813265,10.81794,1.5456505,0.9625464,-1.4508103
1.792,7.893947,2.807694,10.756936,1.5057194,0.9952581,-1.4225922
1.794,7.8008094,2.8001702,10.701542,1.4640437,1.0246892,-1.3946478
1.796,7.7138944,2.7905827,10.652023,1.4208709,1.0511985,-1.3671743
1.798,7.6336846,2.7786574,10.608663,1.3764431,1.0751318,-1.3403853
1.8,7.5603166,2.764363,10.571455,1.3310014,1.0968374,-1.3145179
1.802,7.4940515,2.7474108,10.540544,1.2847781,1.1166474,-1.2897663
1.804,7.4351745,2.7276769,10.515908,1.2379482,1.1348743,-1.2662855
1.806,7.3835588,2.7051845,10.497386,1.1906829,1.1518239,-1.2441785
1.808,7.339526,2.6800592,10.484741,1.1430987,1.1677673,-1.2235031
1.81,7.302961,2.6522784,10.477643,1.0953037,1.1829717,-1.2042509
1.812,7.273556,2.6218953,10.475449,1.0473917,1.1977055,-1.1863929
1.814,7.2513123,2.5889664,10.477647,0.99945027,1.212208,-1.1698596
1.816,7.235782,2.5537567,10.483733,0.95157546,1.226718,-1.1545678
1.818,7.2267246,2.516586,10.493037,0.9038744,1.2414584,-1.1404366
1.82,7.2237334,2.4777575,10.504752,0.85646564,1.2566245,-1.1273662
1.822,7.226522,2.4376888,10.5182295,0.80947906,1.2723998,-1.1152711
1.824,7.2346964,2.396641,10.532726,0.7630434,1.2889074,-1.1040901
1.826,7.2476926,2.3550153,10.547426,0.71728075,1.3062469,-1.0937567
1.828,7.265074,2.3130078,10.561505,0.67230844,1.3244741,-1.0841979
1.83,7.286042,2.2710261,10.574498,0.62824535,1.3435938,-1.0753605
1.832,7.3102775,2.2293649,10.585508,0.5851902,1.3635674,-1.0671974
1.834,7.337006,2.188283,10.594064,0.54324913,1.3843157,-1.0596629
1.836,7.3655105,2.1480725,10.599635,0.50250936,1.4057362,-1.0527252
1.838,7.3952465,2.1090853,10.601738,0.4630372,1.4277003,-1.0463662
1.84,7.4256573,2.0715644,10.599996,0.42489836,1.4500622,-1.0405518
1.842,7.45612,2.035825,10.594079,0.38813332,1.4726793,-1.0352525
1.844,7.4860935,2.0021605,10.583842,0.35277417,1.495413,-1.030428
1.846,7.515234,1.9707537,10.569278,0.31883004,1.5181457,-1.0260117
1.848,7.542824,1.9418883,10.550226,0.2862846,1.54077,-1.0218976
1.85,7.568461,1.9157925,10.52686,0.25510788,1.5631917,-1.0179774
1.852,7.5916924,1.8926921,10.499229,0.22523512,1.5853472,-1.0141149
1.854,7.6124,1.8728167,10.467406,0.19659331,1.6071754,-1.0101241
1.856,7.6302133,1.8563571,10.431527,0.16908085,1.6286284,-1.0058296
1.858,7.6449995,1.8435392,10.391769,0.14261472,1.6496799,-1.0010294
1.86,7.656534,1.8347507,10.348315,0.11708394,1.6702942,-0.99552095
1.862,7.664805,1.83018,10.301404,0.09239437,1.690434,-0.9891091
1.864,7.6700363,1.8299506,10.251294,0.06843591,1.7100563,-0.98161787
1.866,7.672133,1.83426,10.198151,0.045104183,1.7291063,-0.97288305
1.868,7.671264,1.8432126,10.142407,0.022295237,1.7474946,-0.9627705
1.87,7.6677833,1.856884,10.084046,-8.659065e-05,1.765127,-0.9511592
1.872,7.6618104,1.8752954,10.02358,-0.022129372,1.781884,-0.9379553
1.874,7.6537685,1.8984821,9.96128,-0.043943845,1.7976084,-0.9231034
1.876,7.6438646,1.9262401,9.897397,-0.065629624,1.8121334,-0.9065706
1.878,7.632485,1.9584975,9.832284,-0.08729079,1.825276,-0.8883252
1.88,7.619976,1.9950086,9.766402,-0.109053895,1.836833,-0.8683755
1.882,7.6067796,2.0356178,9.699968,-0.13102908,1.8466,-0.8467536
1.884,7.5931168,2.0799963,9.6334505,-0.15335517,1.8543851,-0.8235055
1.886,7.5792766,2.127814,9.567483,-0.17614663,1.8600155,-0.7987056
1.888,7.5657096,2.178708,9.502371,-0.1995209,1.8633612,-0.77244127
1.89,7.5525875,2.2322779,9.438674,-0.2235704,1.864327,-0.7448119
1.892,7.540142,2.2881355,9.376809,-0.24837857,1.8628577,-0.71591127
1.894,7.528801,2.3457506,9.317243,-0.27402028,1.8589551,-0.68585074
1.896,7.518674,2.4047275,9.260326,-0.3005327,1.8526775,-0.6547273
1.898,7.5100775,2.4644861,9.206374,-0.32794908,1.8441253,-0.6226332
1.9,7.5029697,2.5246458,9.155782,-0.35626885,1.8334345,-0.58965915
1.902,7.497604,2.584607,9.108638,-0.3854916,1.820787,-0.5558676
1.904,7.4939923,2.6441555,9.065166,-0.41560534,1.8063835,-0.5212981
1.906,7.4923205,2.702814,9.025375,-0.44658855,1.7904223,-0.48597628
1.908,7.492525,2.7602816,8.989439,-0.47841838,1.7731209,-0.44993305
1.91,7.494671,2.8162022,8.957301,-0.5110657,1.7546924,-0.4131676
1.912,7.498721,2.8704047,8.928824,-0.54450536,1.7353106,-0.37569368
1.914,7.5044603,2.9226298,8.903905,-0.5787193,1.7151364,-0.33754134
1.916,7.512179,2.972601,8.882293,-0.6136858,1.6943238,-0.2987552
1.918,7.5214615,3.0202851,8.863779,-0.6493726,1.6729764,-0.25938183
1.92,7.532399,3.0655243,8.848034,-0.6857574,1.6511838,-0.21947609
1.922,7.544907,3.108346,8.834755,-0.72281647,1.6290133,-0.17910536
1.924,7.5588827,3.1486893,8.823625,-0.76053447,1.6065029,-0.13831341
1.926,7.574355,3.186549,8.814254,-0.7989137,1.5836856,-0.09712005
1.928,7.591034,3.2221856,8.806292,-0.8379347,1.5605838,-0.055520408
1.93,7.608964,3.2557166,8.799424,-0.8775971,1.5372062,-0.013482749
1.932,7.627875,3.2873564,8.793285,-0.9178976,1.5135843,0.02903837
1.934,7.6477866,3.3173146,8.787671,-0.95883214,1.4897484,0.072110176
1.936,7.668584,3.345923,8.782297,-1.0004108,1.4657466,0.11579072
1.938,7.6902175,3.373423,8.776935,-1.0426326,1.4416276,0.16013885
1.94,7.7125216,3.4001865,8.771315,-1.0855165,1.4174596,0.20518497
1.942,7.7353,3.4264715,8.765425,-1.1290652,1.3933023,0.25094822
1.944,7.758761,3.4525623,8.759091,-1.1733018,1.3692293,0.29741445
1.946,7.782637,3.4788265,8.752156,-1.2182277,1.3453089,0.3445524
1.948,7.80669,3.5056064,8.744657,-1.2638513,1.3215802,0.3923157
1.95,7.830815,3.533195,8.736411,-1.3101977,1.2980835,0.44067392
1.952,7.8548727,3.5619285,8.72753,-1.3572688,1.274839,0.48958677
1.954,7.878673,3.5920281,8.717939,-1.4050925,1.2518516,0.53902256
1.956,7.9020286,3.6238713,8.707595,-1.4536684,1.2291105,0.5889631
1.958,7.924786,3.6576571,8.696549,-1.5030096,1.206612,0.6393904
1.96,7.94683,3.6935143,8.684811,-1.5531119,1.1843464,0.6902756
1.962,7.967901,3.7317352,8.672347,-1.6039605,1.162295,0.74159014
1.964,7.9877653,3.7721782,8.659219,-1.6555293,1.1404452,0.79328626
1.966,8.006198,3.8151019,8.645489,-1.7077781,1.1188253,0.84533834
1.968,8.023086,3.8603861,8.631178,-1.7606453,1.0974468,0.89769626
1.97,8.038388,3.908001,8.616229,-1.8140829,1.07631,0.95032245
1.972,8.051826,3.9578717,8.600762,-1.8680261,1.0554274,1.0031663
1.974,8.063362,4.009844,8.584832,-1.9224192,1.0347975,1.0561924
1.976,8.072733,4.063746,8.568245,-1.9772153,1.0144016,1.1093689
1.978,8.080065,4.1192985,8.551189,-2.0323665,0.9941932,1.1626502
1.98,8.085031,4.1763167,8.5337925,-2.0878232,0.9741361,1.215996
1.982,8.087715,4.2345457,8.515923,-2.1435468,0.9541871,1.2693571
1.984,8.087892,4.2937202,8.497598,-2.1994956,0.93429655,1.3226597
1.986,8.085571,4.3536515,8.478895,-2.2556221,0.91440356,1.3758452
1.988,8.080742,4.4140825,8.459827,-2.3118827,0.89446497,1.4288498
1.99,8.073352,4.4747477,8.440268,-2.3682373,0.8744324,1.4816196
1.992,8.063221,4.5353427,8.420395,-2.4246404,0.85428274,1.5341038
1.994,8.050315,4.595779,8.399977,-2.4810624,0.8339906,1.5862938
1.996,8.034303,4.655836,8.378717,-2.5374897,0.8135469,1.6381685
1.998,8.015325,4.7152786,8.356893,-2.5938883,0.7929474,1.6897374
2,7.9934325,4.7742343,8.334437,-2.6502428,0.77219206,1.7410098
2.002,7.968243,4.8327785,8.311214,-2.7065449,0.7512766,1.7919886
2.004,7.939494,4.8909287,8.287018,-2.7627656,0.730193,1.8426583
2.006,7.907129,4.9487495,8.261737,-2.8188767,0.70896345,1.893007
2.008,7.8708153,5.006462,8.235277,-2.8748314,0.68759674,1.9430054
2.01,7.830511,5.064179,8.207241,-2.9305708,0.66610956,1.9926062
2.012,7.785663,5.1224475,8.17748,-2.9860272,0.644506,2.0417588
2.014,7.73619,5.1814494,8.145761,-3.041125,0.6228075,2.0904288
2.016,7.681746,5.24173,8.1119175,-3.095799,0.6010253,2.1385963
2.018,7.622191,5.303726,8.07557,-3.1499677,0.57916045,2.1862342
2.02,7.5572643,5.367854,8.036545,-3.2035599,0.55717826,2.2333589
2.022,7.486701,5.434691,7.9945993,-3.2565215,0.53505945,2.2800024
2.024,7.4103465,5.504868,7.949568,-3.3087912,0.5127533,2.326217
2.026,7.3280225,5.578967,7.9013176,-3.360341,0.4901669,2.3720987
2.028,7.239743,5.6576514,7.849775,-3.4111414,0.46718717,2.417778
2.03,7.145593,5.741526,7.7948008,-3.4611797,0.44371784,2.4633896
2.032,7.0456557,5.831214,7.73646,-3.5104668,0.41963285,2.5090666
2.034,6.9402614,5.927261,7.6747694,-3.5590563,0.39474916,2.5549138
2.036,6.829888,6.0301113,7.6100903,-3.607029,0.36886263,2.6010485
2.038,6.715098,6.1399508,7.542695,-3.654489,0.34175608,2.6475751
2.04,6.5966873,6.256947,7.473056,-3.7015862,0.31317872,2.694519
2.042,6.475648,6.3810654,7.4019027,-3.748488,0.2828636,2.7418551
2.044,6.353125,6.5122185,7.329794,-3.795401,0.2505482,2.7894738
2.046,6.2302957,6.6501093,7.2576895,-3.8425555,0.21596637,2.8371437
2.048,6.1086817,6.7942343,7.186703,-3.89018,0.1788938,2.8845336
2.05,5.9898705,6.943922,7.117794,-3.9385138,0.1391474,2.931227
2.052,5.8755026,7.0984907,7.052149,-3.9877617,0.09661403,2.9767044
2.054,5.767054,7.2569695,6.9910126,-4.038082,0.05126168,3.0203786
2.056,5.666552,7.418195,6.935751,-4.0895534,0.0031722337,3.06163
2.058,5.5757823,7.580885,6.887767,-4.1421614,-0.04746498,3.0998247
2.06,5.4963326,7.7437935,6.84857,-4.1957955,-0.10030877,3.1343596
2.062,5.4299097,7.905444,6.8196583,-4.2502184,-0.1548501,3.1646876
2.064,5.378047,8.064459,6.8022966,-4.3050632,-0.21041942,3.190355
2.066,5.341958,8.219684,6.7976856,-4.3598237,-0.2661565,3.21103
2.068,5.3225756,8.369976,6.8067102,-4.413878,-0.32106215,3.2265093
2.07,5.3206677,8.514537,6.8300457,-4.466538,-0.37399435,3.2367404
2.072,5.336652,8.6526785,6.8680887,-4.5170455,-0.4237041,3.2418392
2.074,5.370555,8.784217,6.9207067,-4.564626,-0.4688764,3.2420316
2.076,5.4221935,8.908935,6.9874935,-4.608518,-0.50820744,3.2376833
2.078,5.4908476,9.027363,7.0676565,-4.648011,-0.5404365,3.229252
2.08,5.5756273,9.139996,7.16026,-4.6824927,-0.5644277,3.2172832
2.082,5.6752357,9.24791,7.263747,-4.7114816,-0.57925653,3.2023768
2.084,5.7880096,9.352469,7.3763914,-4.73463,-0.5842948,3.1852102
2.086,5.9124064,9.455177,7.496323,-4.7517586,-0.5791698,3.166461
2.088,6.046227,9.558038,7.6210265,-4.7628293,-0.56378675,3.1468081
2.09,6.1873655,9.663026,7.7479415,-4.76798,-0.53836626,3.1268594
2.092,6.3334,9.772272,7.8743105,-4.7675195,-0.5033926,3.1071546
2.094,6.4820023,9.887979,7.9973993,-4.761901,-0.4595699,3.0881588
2.096,6.6307917,10.012129,8.114439,-4.751688,-0.40779406,3.070219
2.098,6.7773647,10.146692,8.222764,-4.7375164,-0.34906483,3.0535483
2.1,6.91915,10.293738,8.319668,-4.720025,-0.28442016,3.0382278
2.102,7.053956,10.454918,8.402777,-4.699839,-0.21491842,3.0241592
2.104,7.17957,10.631745,8.469832,-4.6775007,-0.14158642,3.011123
2.106,7.293924,10.825592,8.519069,-4.653479,-0.06539138,2.998794
2.108,7.394664,11.0374,8.548572,-4.628109,0.012771003,2.9867823
2.11,7.480174,11.267525,8.556998,-4.6016088,0.09210538,2.9746718
2.112,7.5490737,11.516317,8.543424,-4.5741286,0.17188098,2.9620705
2.114,7.6001306,11.783629,8.50733,-4.5457387,0.2514582,2.9486442
2.116,7.6319904,12.068872,8.448319,-4.516501,0.3302744,2.9341486
2.118,7.643821,12.3710375,8.36644,-4.486507,0.40786332,2.9184036
2.12,7.6349926,12.688753,8.262215,-4.455895,0.48381916,2.9013171
2.122,7.605071,13.020022,8.136131,-4.4248424,0.5578059,2.882847
2.124,7.5538454,13.362617,7.988933,-4.3935328,0.6295368,2.8629913
2.126,7.481078,13.714016,7.8215494,-4.36215,0.6987618,2.8417969
2.128,7.386317,14.071406,7.635051,-4.3308578,0.76524377,2.819345
2.13,7.2698607,14.431877,7.4306445,-4.2997437,0.828792,2.7957428
2.132,7.131936,14.792366,7.209643,-4.2687845,0.88926136,2.7710996
2.134,6.972657,15.149838,6.9734006,-4.237825,0.94656605,2.745519
2.136,6.792167,15.501221,6.7230196,-4.206574,1.0007037,2.7191386
2.138,6.591143,15.843435,6.459841,-4.174654,1.0517738,2.6921306
2.14,6.3700624,16.17349,6.185096,-4.141614,1.0999488,2.6647441
2.142,6.129497,16.488468,5.899688,-4.1069775,1.145458,2.6373048
2.144,5.8701134,16.78588,5.6045675,-4.070294,1.1885943,2.6102219
2.146,5.592597,17.063484,5.300399,-4.0311923,1.229622,2.584026
2.148,5.297868,17.31941,4.987897,-3.9894037,1.26878,2.5593371
2.15,4.986344,17.552273,4.6674027,-3.9448414,1.3062222,2.5368974
2.152,4.6586666,17.761093,4.338852,-3.8975985,1.3419712,2.5174787
2.154,4.315667,17.945148,4.0026603,-3.8479471,1.3758979,2.5018697
2.156,3.958119,18.104275,3.6589704,-3.7963028,1.4077177,2.4908175
2.158,3.5867567,18.23883,3.307702,-3.743199,1.4369777,2.4849539
2.16,3.2024367,18.34959,2.9490776,-3.6892443,1.4630687,2.4847918
2.162,2.805834,18.437584,2.583109,-3.6350667,1.4852343,2.4906697
2.164,2.3978465,18.504208,2.2098308,-3.5812912,1.5025959,2.5027359
2.166,1.9791567,18.551178,1.8293772,-3.5284753,1.5141368,2.5209546
2.168,1.5507853,18.580334,1.4418688,-3.477112,1.5187175,2.5451343
2.17,1.1137414,18.593609,1.0477924,-3.4276009,1.51512,2.5749855
2.172,0.6689863,18.593184,0.64787817,-3.3802588,1.5019985,2.6101456
2.174,0.21751404,18.58117,0.24315453,-3.335374,1.4779181,2.650233
2.176,-0.23941374,18.559568,-0.16488695,-3.2931972,1.441397,2.6948214
2.178,-0.7006149,18.530375,-0.5742483,-3.253971,1.3909183,2.743459
2.18,-1.164803,18.495266,-0.98262215,-3.2179375,1.3250046,2.7956114
2.182,-1.6305947,18.455742,-1.3873425,-3.1853008,1.2422155,2.850666
2.184,-2.0964828,18.413137,-1.7854877,-3.1562328,1.1412406,2.9079032
2.186,-2.560996,18.368563,-2.1739063,-3.1308422,1.0209606,2.9664838
2.188,-3.0225234,18.322746,-2.549326,-3.1091347,0.8805095,3.0254354
2.19,-3.479313,18.27627,-2.908289,-3.090985,0.7193039,3.083672
2.192,-3.9294126,18.229403,-3.2472167,-3.0761333,0.53710467,3.1400185
2.194,-4.3711395,18.18224,-3.5624719,-3.0641553,0.33400875,3.193263
2.196,-4.802395,18.134628,-3.850416,-3.054498,0.110495806,3.2421937
2.198,-5.2213936,18.086243,-4.107464,-3.0464954,-0.13260913,3.2856946
2.2,-5.626141,18.03655,-4.3299966,-3.0393913,-0.39408943,3.322746
2.202,-6.0146375,17.985064,-4.5148087,-3.0323856,-0.6723696,3.3524551
2.204,-6.385007,17.93126,-4.658862,-3.0246713,-0.96553826,3.3740604
2.206,-6.7356195,17.874544,-4.7597485,-3.0154283,-1.2713549,3.3869605
2.208,-7.064697,17.814098,-4.8153725,-3.0038636,-1.5872909,3.3906515
2.21,-7.3704357,17.748917,-4.823843,-2.9892056,-1.9105374,3.3847768
2.212,-7.6514263,17.6782,-4.7840033,-2.9706867,-2.2380927,3.36908
2.214,-7.9064236,17.600943,-4.6950502,-2.9475718,-2.5668445,3.3434339
2.216,-8.13444,17.51633,-4.5568047,-2.9191668,-2.8936439,3.3078425
2.218,-8.334718,17.423767,-4.3696156,-2.8848162,-3.2154033,3.2624817
2.22,-8.506992,17.322508,-4.134317,-2.843946,-3.5291102,3.2076519
2.222,-8.651265,17.212008,-3.8523948,-2.7960687,-3.8319337,3.143787
2.224,-8.767667,17.09184,-3.525609,-2.740856,-4.1213,3.0714078
2.226,-8.856556,16.961733,-3.1563997,-2.6781254,-4.3948827,2.99111
2.228,-8.918705,16.821476,-2.7476215,-2.6078417,-4.650601,2.9035091
2.23,-8.955186,16.67072,-2.302599,-2.5301335,-4.886653,2.8092437
2.232,-8.967134,16.509422,-1.8248369,-2.4452927,-5.101497,2.7089372
2.234,-8.955846,16.337517,-1.3182983,-2.3537462,-5.2938404,2.6031585
2.236,-8.922698,16.154966,-0.7873582,-2.256033,-5.4625907,2.4924378
2.238,-8.869231,15.961873,-0.23664296,-2.152766,-5.6069207,2.3772671
2.24,-8.797367,15.758144,0.32894838,-2.0446033,-5.72622,2.258103
2.242,-8.708847,15.5437155,0.90434396,-1.9322145,-5.8201222,2.135396
2.244,-8.605245,15.318596,1.4844911,-1.8162689,-5.8884735,2.0095873
2.246,-8.488173,15.083215,2.0647435,-1.6974115,-5.9313674,1.8811162
2.248,-8.359637,14.838107,2.6402547,-1.576277,-5.949112,1.7504188
2.25,-8.221286,14.58396,3.2063675,-1.4534593,-5.942257,1.6179335
2.252,-8.074609,14.321292,3.7587533,-1.3295474,-5.9115834,1.4840521
2.254,-7.9212418,14.050528,4.2930617,-1.2051007,-5.8581195,1.3491935
2.256,-7.7622833,13.772075,4.805332,-1.0806541,-5.7831273,1.2137884
2.258,-7.5990267,13.486558,5.291953,-0.95672035,-5.688107,1.0782737
2.26,-7.4321184,13.19456,5.74978,-0.8338115,-5.574825,0.94313645
2.262,-7.2625794,12.896981,6.176478,-0.7124606,-5.445285,0.80888665
2.264,-7.09149,12.594925,6.5697594,-0.59316874,-5.3017006,0.676059
2.266,-6.9195175,12.289482,6.928111,-0.4764347,-5.146418,0.5452014
2.268,-6.7472973,11.981771,7.250786,-0.36275327,-4.9819255,0.41678286
2.27,-6.57559,11.673005,7.537328,-0.25259602,-4.81077,0.29121137
2.272,-6.4048147,11.364332,7.7880564,-0.14641237,-4.635519,0.16881585
2.274,-6.2354655,11.0571,8.004013,-0.044615626,-4.458714,0.049858093
2.276,-6.068088,10.752586,8.186508,0.0524081,-4.2827888,-0.065508485
2.278,-5.9031935,10.45219,8.337375,0.14435935,-4.1099677,-0.17726308
2.28,-5.7412963,10.157182,8.45869,0.23099035,-3.942256,-0.28550893
2.282,-5.5825877,9.868664,8.552917,0.31212306,-3.781409,-0.39044476
2.284,-5.427308,9.587694,8.622779,0.3876422,-3.628887,-0.4923455
2.286,-5.2755303,9.315044,8.671084,0.45750916,-3.4858873,-0.59147125
2.288,-5.1274157,9.051478,8.700655,0.52175784,-3.3533087,-0.68802875
2.29,-4.982957,8.797636,8.7143135,0.5804964,-3.2317433,-0.7821694
2.292,-4.842181,8.553859,8.714904,0.63393605,-3.1214852,-0.8739731
2.294,-4.7049356,8.320338,8.705293,0.6824089,-3.0225186,-0.96345663
2.296,-4.5710745,8.097208,8.687994,0.72637546,-2.934496,-1.0505812
2.298,-4.440406,7.884189,8.665414,0.766459,-2.8567717,-1.1352715
2.3,-4.3125496,7.681013,8.639511,0.80342364,-2.7883976,-1.2173963
2.302,-4.1871777,7.4871135,8.612057,0.83814454,-2.7281818,-1.2967598
2.304,-4.0637236,7.3020086,8.584303,0.87156355,-2.674727,-1.3731279
2.306,-3.9420536,7.124999,8.557201,0.90464705,-2.6265023,-1.4461865
2.308,-3.8214047,6.9553003,8.5314865,0.93830425,-2.5819006,-1.5155754
2.31,-3.701456,6.7921844,8.507344,0.97333384,-2.5393445,-1.5808952
2.312,-3.5817533,6.634868,8.485007,1.0103886,-2.4972966,-1.6417575
2.314,-3.461809,6.482457,8.464284,1.0499384,-2.4543207,-1.6978
2.316,-3.3411887,6.3344874,8.444993,1.0922827,-2.4091501,-1.7487421
2.318,-3.2197633,6.1904035,8.426777,1.1375017,-2.3607087,-1.7944146
2.32,-3.0972164,6.049871,8.409161,1.1855184,-2.3081474,-1.8348007
2.322,-2.973541,5.912546,8.391534,1.2361469,-2.2507803,-1.8699746
2.324,-2.8484964,5.7782526,8.373485,1.2890875,-2.1881661,-1.9001873
2.326,-2.7220075,5.6468673,8.354404,1.3439701,-2.1200566,-1.9258232
2.328,-2.593866,5.518317,8.333949,1.4003959,-2.0464187,-1.9473381
2.33,-2.4642987,5.3928914,8.311543,1.4579384,-1.9674468,-1.9652224
2.332,-2.3332973,5.270642,8.286932,1.5161532,-1.8835402,-1.9799395
2.334,-2.2010016,5.1519723,8.259686,1.5746074,-1.7952567,-1.9919091
2.336,-2.067588,5.037172,8.229724,1.6328777,-1.7032877,-2.00152
2.338,-1.9332652,4.9266148,8.196707,1.6905751,-1.6083889,-2.0091224
2.34,-1.7981472,4.820923,8.160611,1.7473524,-1.5113394,-2.015053
2.342,-1.6623626,4.7203608,8.121187,1.8029009,-1.412919,-2.0196326
2.344,-1.5264282,4.6254797,8.078441,1.8569497,-1.3138762,-2.0231342
2.346,-1.3903601,4.5364447,8.032608,1.9092664,-1.2149069,-2.025788
2.348,-1.25407,4.45361,7.983856,1.9596624,-1.1166475,-2.0277631
2.35,-1.1176867,4.37729,7.932372,2.0080009,-1.0196639,-2.02919
2.352,-0.98129153,4.307681,7.8782773,2.0541933,-0.92444813,-2.0301766
2.354,-0.8450048,4.244891,7.821597,2.0981874,-0.83143634,-2.0308144
2.356,-0.7089143,4.188763,7.7623057,2.1399965,-0.74099886,-2.0311944
2.358,-0.5728648,4.138994,7.7003703,2.1796687,-0.6534622,-2.0313988
2.36,-0.43690777,4.095627,7.635992,2.2172847,-0.56914186,-2.0315213
2.362,-0.30089355,4.0586967,7.569346,2.252941,-0.48832726,-2.0316775
2.364,-0.16463709,4.028115,7.5007477,2.286755,-0.41127777,-2.031941
2.366,-0.028366327,4.003866,7.4305716,2.3188226,-0.33824134,-2.0323887
2.368,0.108119726,3.9855719,7.359103,2.3492417,-0.2694392,-2.0330963
2.37,0.2447474,3.9730015,7.286782,2.378052,-0.20505074,-2.0341218
2.372,0.38178492,3.9655938,7.213745,2.4052844,-0.14520812,-2.035532
2.374,0.519227,3.9627995,7.1403513,2.4309404,-0.08998993,-2.0373685
2.376,0.6571119,3.964094,7.066987,2.454964,-0.039423883,-2.0396993
2.378,0.79535556,3.9690175,6.9938602,2.4772727,0.0065431,-2.0425746
2.38,0.9340265,3.977213,6.9215307,2.4977665,0.048011303,-2.0460548
2.382,1.0729795,3.9883897,6.8503714,2.516321,0.08514476,-2.0502267
2.384,1.2121835,4.0021687,6.780735,2.532819,0.11817098,-2.055176
2.386,1.3515961,4.0182376,6.7131586,2.5471692,0.14731431,-2.0609908
2.388,1.4910469,4.0361776,6.64815,2.5593045,0.17282969,-2.0677335
2.39,1.630575,4.055594,6.5862722,2.5692096,0.19495434,-2.0754359
2.392,1.7698805,4.076284,6.5278893,2.5769048,0.21390271,-2.0841007
2.394,1.9089735,4.0979075,6.4734583,2.5824738,0.22987854,-2.0937152
2.396,2.0476105,4.1202736,6.4235477,2.5860386,0.24306726,-2.104219
2.398,2.1858284,4.143092,6.3785224,2.587762,0.25364727,-2.115543
2.4,2.323661,4.1660557,6.3386765,2.5878377,0.26180536,-2.1276128
2.402,2.4609137,4.18925,6.304492,2.5864692,0.26774144,-2.1403735
2.404,2.59762,4.2125387,6.276179,2.5838575,0.27167803,-2.1537864
2.406,2.7337935,4.2357388,6.2539988,2.5802093,0.27384633,-2.1678169
2.408,2.8695533,4.258832,6.2380877,2.575735,0.2745098,-2.1824508
2.41,3.0047193,4.281871,6.2285085,2.5706282,0.2739364,-2.1976678
2.412,3.1393747,4.304868,6.225342,2.5650597,0.27238673,-2.2134454
2.414,3.2736843,4.3279176,6.228507,2.559188,0.27013195,-2.2297347
2.416,3.4079065,4.351115,6.238029,2.5531564,0.26741284,-2.2464454
2.418,3.5419464,4.374707,6.253653,2.5470614,0.2644338,-2.2634795
2.42,3.6761746,4.3987556,6.2752523,2.5409887,0.26136065,-2.2806938
2.422,3.8106258,4.4234867,6.302393,2.534995,0.25834423,-2.2979467
2.424,3.9454086,4.4492226,6.3348403,2.5291147,0.2554859,-2.3150945
2.426,4.0805807,4.476073,6.3722687,2.5233645,0.25285637,-2.3320205
2.428,4.216331,4.504367,6.4142346,2.5177379,0.25052655,-2.3486412
2.43,4.3527184,4.5342903,6.460272,2.5122442,0.24853414,-2.3648887
2.432,4.4899545,4.56599,6.510021,2.5069022,0.24690199,-2.3807626
2.434,4.627926,4.5997224,6.562962,2.5017376,0.2456584,-2.396332
2.436,4.766662,4.635568,6.618653,2.4968154,0.2448219,-2.4116943
2.438,4.906061,4.6736717,6.6765485,2.4921982,0.24441648,-2.4269814
2.44,5.0460873,4.714056,6.7364273,2.4879606,0.24449837,-2.4423597
2.442,5.18675,4.7567925,6.7978864,2.4841933,0.24509639,-2.4580016
2.444,5.3277817,4.801903,6.860556,2.481004,0.24626797,-2.474072
2.446,5.4690905,4.849421,6.924021,2.4784849,0.24805963,-2.4907131
2.448,5.6105127,4.8992615,6.988156,2.47671,0.25051504,-2.508022
2.45,5.7518797,4.951368,7.0527167,2.4757566,0.25366473,-2.5260687
2.452,5.892841,5.0057716,7.1175537,2.4756622,0.257551,-2.544857
2.454,6.0333,5.0622883,7.1824193,2.4764402,0.26219034,-2.5643468
2.456,6.172993,5.1209536,7.2473,2.4780722,0.26758653,-2.5844533
2.458,6.3116245,5.1815934,7.312051,2.4805272,0.27374035,-2.6050558
2.46,6.4489255,5.244169,7.3767204,2.4837422,0.2806698,-2.6260114
2.462,6.584709,5.308652,7.4413543,2.4876392,0.28837448,-2.6471636
2.464,6.718717,5.3749723,7.50609,2.4921336,0.2968582,-2.6683578
2.466,6.8507905,5.443077,7.570923,2.4971461,0.30612636,-2.6894264
2.468,6.9807663,5.5130844,7.636101,2.502606,0.3161732,-2.710228
2.47,7.1084914,5.5848613,7.7015753,2.5084422,0.32700175,-2.730627
2.472,7.2337346,5.658331,7.7674193,2.5146294,0.33861953,-2.7504902
2.474,7.356442,5.7334995,7.83383,2.521153,0.35103583,-2.7697349
2.476,7.4766626,5.8102546,7.9006596,2.52802,0.36424577,-2.788281
2.478,7.5941978,5.8885584,7.96798,2.5352702,0.3782454,-2.8060718
2.48,7.7090564,5.96817,8.035643,2.542982,0.393049,-2.8230605
2.482,7.8211565,6.0488973,8.103731,2.551239,0.40865576,-2.839222
2.484,7.9304647,6.130653,8.171966,2.5601454,0.42510015,-2.8545651
2.486,8.036943,6.2131796,8.240146,2.5698133,0.44239384,-2.8690648
2.488,8.14068,6.2961397,8.308066,2.580358,0.46055746,-2.8826904
2.49,8.241572,6.379243,8.375382,2.5918918,0.47960204,-2.8954132
2.492,8.339567,6.462126,8.441832,2.604518,0.49953175,-2.9072025
2.494,8.434527,6.544427,8.507025,2.6183238,0.52034533,-2.9180136
2.496,8.52636,6.625757,8.570532,2.633356,0.542039,-2.9277978
2.498,8.61499,6.7058315,8.631934,2.6496449,0.5645862,-2.9364946
2.5,8.700254,6.7842827,8.690865,2.667212,0.5879882,-2.9440312
2.502,8.782072,6.8606277,8.747001,2.6860454,0.6122244,-2.9503565
2.504,8.860217,6.934679,8.799939,2.7061112,0.6372826,-2.9553974
2.506,8.934592,7.0062494,8.849165,2.7273502,0.66314757,-2.959107
2.508,9.005062,7.0749893,8.894469,2.7496915,0.68981785,-2.9614139
2.51,9.0713005,7.1407957,8.935599,2.773055,0.7172861,-2.9622562
2.512,9.133432,7.203294,8.972197,2.7973418,0.74554276,-2.9615805
2.514,9.191179,7.2623715,9.004132,2.8224442,0.774524,-2.959337
2.516,9.2444935,7.3178763,9.031338,2.8482425,0.80415154,-2.9554758
2.518,9.2931385,7.3697944,9.053795,2.8746219,0.8343262,-2.9499435
2.52,9.3371525,7.4180636,9.0715065,2.901445,0.86491007,-2.9426954
2.522,9.37638,7.4627743,9.084559,2.9285655,0.8957274,-2.9336956
2.524,9.410649,7.503788,9.093141,2.955839,0.9265933,-2.9229105
2.526,9.440023,7.5411973,9.097389,2.9830995,0.9573039,-2.910321
2.528,9.464497,7.5749955,9.097645,3.0101657,0.9876674,-2.8958917
2.53,9.484002,7.6054163,9.09413,3.0368588,1.0175151,-2.879602
2.532,9.498554,7.6324844,9.087256,3.0629835,1.0467026,-2.8614528
2.534,9.508248,7.6561317,9.077302,3.088336,1.0751172,-2.841422
2.536,9.513286,7.6765265,9.064521,3.1127343,1.1026909,-2.8195138
2.538,9.513666,7.6936026,9.049299,3.1360013,1.1293828,-2.7957416
2.54,9.5092945,7.707424,9.031978,3.1579714,1.1552192,-2.7701337
2.542,9.500427,7.7180004,9.01289,3.178493,1.1802202,-2.7427065
2.544,9.487125,7.7252474,8.992299,3.1974459,1.204444,-2.7135017
2.546,9.469454,7.729224,8.970436,3.2147346,1.2279392,-2.682552
2.548,9.447607,7.729812,8.947479,3.230268,1.2507548,-2.6499088
2.55,9.4216175,7.727009,8.923602,3.2439818,1.2729199,-2.615638
2.552,9.391609,7.720707,8.89889,3.255811,1.2944298,-2.5798135
2.554,9.357537,7.7109118,8.873491,3.2656786,1.3152375,-2.542509
2.556,9.3195915,7.6975675,8.847377,3.2735233,1.3352634,-2.5037858
2.558,9.277793,7.6807337,8.820605,3.2792726,1.354398,-2.4637134
2.56,9.232109,7.6603265,8.793118,3.282858,1.3724691,-2.4223497
2.562,9.182835,7.636333,8.764883,3.284202,1.3892913,-2.3797233
2.564,9.129808,7.6088505,8.735932,3.283206,1.404647,-2.335832
2.566,9.073181,7.57797,8.705963,3.2797778,1.4183061,-2.2906644
2.568,9.013021,7.5437865,8.674948,3.2738318,1.4300532,-2.2441769
2.57,8.949227,7.5064583,8.642689,3.2652807,1.4396693,-2.196328
2.572,8.881742,7.4662294,8.609083,3.2540305,1.4469392,-2.1470914
2.574,8.810618,7.423312,8.573921,3.239996,1.4516921,-2.096437
2.576,8.735758,7.37797,8.537191,3.2231114,1.4537818,-2.0443451
2.578,8.657196,7.3304806,8.498813,3.2033138,1.4530882,-1.990836
2.58,8.574789,7.281211,8.458692,3.1805716,1.4495418,-1.9359263
2.582,8.488625,7.230589,8.416826,3.1548796,1.4430945,-1.8796625
2.584,8.3985405,7.17892,8.373137,3.1262538,1.4337258,-1.822088
2.586,8.304499,7.126488,8.327611,3.0947337,1.4214499,-1.7632565
2.588,8.206646,7.073704,8.280197,3.0603874,1.406285,-1.7032357
2.59,8.104818,7.021026,8.230871,3.0232966,1.388278,-1.6420753
2.592,7.9989586,6.9690285,8.179661,2.9835396,1.3674688,-1.5798396
2.594,7.889,6.918187,8.126486,2.9412036,1.3438866,-1.516581
2.596,7.7751994,6.8688054,8.071252,2.8963716,1.3175838,-1.4523783
2.598,7.657574,6.821251,8.013936,2.8491058,1.2885901,-1.3873198
2.6,7.536377,6.77563,7.954475,2.7994637,1.2569208,-1.3214961
2.602,7.4119005,6.7323318,7.892812,2.7474961,1.2225773,-1.2550341
2.604,7.284251,6.6916437,7.828769,2.6932547,1.1855519,-1.1880639
2.606,7.1536202,6.6540146,7.76226,2.6367817,1.145823,-1.1207541
2.608,7.0201273,6.6198483,7.6930947,2.5781372,1.1033313,-1.0532925
2.61,6.8840218,6.5895734,7.621013,2.5173836,1.0580015,-0.9858725
2.612,6.7454357,6.5636516,7.54595,2.4545841,1.0097177,-0.9187069
2.614,6.6045713,6.5423107,7.4676547,2.3898258,0.95833313,-0.85201097
2.616,6.4616404,6.5259132,7.3859143,2.3232224,0.9036596,-0.7860098
2.618,6.3167315,6.5148716,7.300427,2.2549186,0.8454784,-0.7209101
2.62,6.1700983,6.509574,7.2109776,2.1850722,0.7835432,-0.656903
2.622,6.021841,6.5104327,7.117113,2.1138906,0.71763504,-0.5942238
2.624,5.872056,6.5176864,7.0183697,2.0416167,0.64753544,-0.53314114
2.626,5.7209177,6.5318284,6.9142756,1.9685137,0.57303256,-0.47394785
2.628,5.5684595,6.553083,6.8044257,1.894858,0.49393982,-0.41696626
2.63,5.4145746,6.581711,6.6883097,1.8209194,0.41012034,-0.36251715
2.632,5.2594223,6.6180577,6.5654707,1.7469574,0.3215079,-0.31093758
2.634,5.1029615,6.6623764,6.43554,1.6732035,0.22810593,-0.2625857
2.636,4.945076,6.7147903,6.2981668,1.5998476,0.13001218,-0.2178104
2.638,4.785504,6.775439,6.153117,1.5270454,0.027412862,-0.17697555
2.64,4.6241,6.844523,6.000432,1.4548991,-0.07944775,-0.14038305
2.642,4.4606094,6.9221206,5.840254,1.3834327,-0.19030257,-0.1082675
2.644,4.294718,7.008316,5.672872,1.3126172,-0.3049225,-0.08072753
2.646,4.1258993,7.1030097,5.499027,1.242374,-0.42312384,-0.057706606
2.648,3.9538448,7.2061553,5.319356,1.1725525,-0.5448347,-0.038987648
2.65,3.7782826,7.3174253,5.134835,1.1029565,-0.6701082,-0.024176585
2.652,3.5986052,7.43657,4.946739,1.033352,-0.79911387,-0.012727931
2.654,3.4144492,7.5631437,4.7566504,0.96348846,-0.9320974,-0.004032638
2.656,3.225463,7.696545,4.566402,0.8931129,-1.0693438,0.0025429465
2.658,3.031115,7.83627,4.377983,0.82198143,-1.2111342,0.0075655133
2.66,2.831285,7.981647,4.19347,0.7499312,-1.3576555,0.011485741
2.662,2.6256099,8.131897,4.0153017,0.676857,-1.5089335,0.0145564675
2.664,2.414094,8.28614,3.845821,0.6027436,-1.6648086,0.016842209
2.666,2.1967297,8.443455,3.6876605,0.52769804,-1.8248755,0.01824323
2.668,1.9736362,8.602853,3.5429823,0.4519335,-1.9884703,0.018510848
2.67,1.7451715,8.763378,3.413973,0.3757841,-2.1546764,0.01732923
2.672,1.5115498,8.924126,3.3026824,0.29972297,-2.3223042,0.014371306
2.674,1.273591,9.084001,3.2107265,0.22433978,-2.489923,0.009341449
2.676,1.031952,9.242063,3.139675,0.15032995,-2.6559064,0.0020777285
2.678,0.7874117,9.397385,3.090588,0.0784955,-2.8184469,-0.007453993
2.68,0.5412538,9.549091,3.0640883,0.009723723,-2.9755902,-0.019157514
2.682,0.29461718,9.696379,3.06048,-0.05503732,-3.1253128,-0.032819808
2.684,0.048723936,9.838589,3.0794904,-0.11482757,-3.2655597,-0.048138767
2.686,-0.19520307,9.975233,3.12036,-0.16870975,-3.3943474,-0.0647195
2.688,-0.43607163,10.10586,3.1818562,-0.2158215,-3.5098095,-0.0821228
2.69,-0.67245936,10.230171,3.2624931,-0.25540113,-3.6102693,-0.09989399
2.692,-0.90328526,10.348002,3.3603969,-0.28684425,-3.6943102,-0.117592156
2.694,-1.1275997,10.4593935,3.4732273,-0.3097043,-3.7608094,-0.13483381
2.696,-1.3444636,10.564512,3.5984097,-0.3237058,-3.808962,-0.15131581
2.698,-1.553093,10.663538,3.7332656,-0.32875806,-3.8383026,-0.1668342
2.7,-1.7528727,10.756585,3.8749666,-0.3249545,-3.8487387,-0.18128729
2.702,-1.9432061,10.843882,4.0204153,-0.31252736,-3.840521,-0.19464847
2.704,-2.124037,10.925901,4.1667805,-0.29183722,-3.8142402,-0.20698503
2.706,-2.2954822,11.003275,4.311089,-0.26335752,-3.7707682,-0.21847105
2.708,-2.45783,11.076482,4.450678,-0.22765613,-3.711236,-0.22932804
2.71,-2.6115158,11.146129,4.58288,-0.18536043,-3.636983,-0.2398608
2.712,-2.7571406,11.212599,4.705156,-0.1371485,-3.549468,-0.25043935
2.714,-2.8953488,11.276198,4.8153505,-0.08374894,-3.4502668,-0.26150334
2.716,-3.026928,11.337016,4.9115567,-0.025910914,-3.3410177,-0.27353334
2.718,-3.1526692,11.3952875,4.992085,0.035602212,-3.223382,-0.28705218
2.72,-3.273673,11.451068,5.0556507,0.10003233,-3.0990312,-0.30258122
2.722,-3.3910255,11.504384,5.1011953,0.16661036,-2.9696183,-0.32061914
2.724,-3.5057046,11.555291,5.12816,0.23458344,-2.836763,-0.3416279
2.726,-3.619051,11.603728,5.136274,0.30320734,-2.702089,-0.3660022
2.728,-3.7319136,11.649596,5.125429,0.37174654,-2.5671952,-0.394031
2.73,-3.8454587,11.692646,5.096192,0.4394787,-2.4336257,-0.42591512
2.732,-3.9605079,11.732625,5.049358,0.5057033,-2.3029017,-0.46172166
2.734,-4.0779567,11.769434,4.9859414,0.5697335,-2.176499,-0.5014264
2.736,-4.1984415,11.802609,4.9070597,0.630898,-2.055819,-0.5449006
2.738,-4.3222866,11.831808,4.8139453,0.6885778,-1.9421598,-0.5919047
2.74,-4.4500384,11.856677,4.7082205,0.7422075,-1.8366237,-0.64214385
2.742,-4.5818357,11.876851,4.5914164,0.79131067,-1.7401309,-0.69525486
2.744,-4.7178397,11.89209,4.464956,0.83551043,-1.6533798,-0.7508457
2.746,-4.8577642,11.902142,4.330617,0.8745233,-1.5768099,-0.8084867
2.748,-5.001294,11.906937,4.189864,0.9081936,-1.5106001,-0.8677511
2.75,-5.1478777,11.906174,4.0443153,0.93646264,-1.454706,-0.9281999
2.752,-5.297037,11.899861,3.8952584,0.9593781,-1.4088857,-0.9893692
2.754,-5.447961,11.887909,3.744206,0.97706187,-1.3727239,-1.0508015
2.756,-5.599697,11.8704605,3.5923014,0.98969054,-1.3456982,-1.1120518
2.758,-5.751272,11.847661,3.440796,0.9974637,-1.3272353,-1.1726729
2.76,-5.901745,11.819742,3.2908077,1.00059,-1.316766,-1.2322185
2.762,-6.050067,11.787127,3.14329,0.9992677,-1.3137397,-1.2902946
2.764,-6.194928,11.750103,2.998972,0.9936749,-1.317662,-1.3465309
2.766,-6.3352604,11.709113,2.8585844,0.9839523,-1.3281145,-1.4006178
2.768,-6.4699936,11.664566,2.7228162,0.9702188,-1.3447442,-1.4522945
2.77,-6.597915,11.616819,2.592172,0.9525851,-1.3672311,-1.5013629
2.772,-6.718033,11.566463,2.467019,0.93115896,-1.3952814,-1.5476832
2.774,-6.8294153,11.513948,2.3478825,0.9060626,-1.4285961,-1.5911824
2.776,-6.931155,11.459813,2.235014,0.87745553,-1.4668276,-1.6318427
2.778,-7.0224113,11.404464,2.1288962,0.8455545,-1.5095508,-1.6697073
2.78,-7.1025043,11.348483,2.029764,0.81062317,-1.5562406,-1.704855
2.782,-7.170895,11.292235,1.9377776,0.77299774,-1.6062725,-1.7374022
2.784,-7.227387,11.236198,1.8530933,0.73308057,-1.6589262,-1.7674899
2.786,-7.271603,11.1806755,1.7755817,0.69131666,-1.7133877,-1.7952837
2.788,-7.303397,11.126079,1.705153,0.6481942,-1.7687936,-1.8209358
2.79,-7.3229947,11.072802,1.6416755,0.60424525,-1.8242592,-1.8445834
2.792,-7.330471,11.021111,1.5846901,0.5599896,-1.8789233,-1.8663818
2.794,-7.3262258,10.971346,1.5339987,0.5159535,-1.9319779,-1.8864632
2.796,-7.310584,10.923704,1.4890536,0.4726246,-1.9826659,-1.9049447
2.798,-7.2839575,10.878424,1.449268,0.43045563,-2.0303187,-1.9219413
2.8,-7.2470183,10.835767,1.4138759,0.38986894,-2.0743823,-1.9375664
2.802,-7.200498,10.795885,1.3820887,0.35121664,-2.1143954,-1.9519277
2.804,-7.145008,10.75893,1.3530563,0.3148016,-2.1500156,-1.9651334
2.806,-7.0813828,10.725064,1.3260677,0.28085518,-2.1810062,-1.9772993
2.808,-7.0106335,10.694312,1.3000842,0.24955878,-2.2072415,-1.9885231
2.81,-6.9333916,10.666927,1.274122,0.22100909,-2.2286868,-1.9988921
2.812,-6.8506393,10.642967,1.2473984,0.19526392,-2.2453928,-2.0084853
2.814,-6.7631745,10.622342,1.2188706,0.1723206,-2.2574916,-2.017373
2.816,-6.6718144,10.60521,1.1878259,0.15212448,-2.2651832,-2.025616
2.818,-6.5773067,10.5915985,1.153236,0.13456446,-2.268732,-2.0332696
2.82,-6.480351,10.581512,1.1144818,0.11950225,-2.2684233,-2.040383
2.822,-6.3816094,10.574931,1.0709776,0.106766224,-2.264573,-2.047008
2.824,-6.281751,10.571842,1.0222837,0.09614411,-2.2575278,-2.0531895
2.826,-6.1812277,10.572298,0.9678514,0.087402254,-2.2476492,-2.0589828
2.828,-6.080591,10.57615,0.90739894,0.08027439,-2.2353044,-2.064433
2.83,-5.98022,10.583363,0.8406321,0.07449837,-2.220894,-2.0695567
2.832,-5.8802733,10.593797,0.767521,0.06978682,-2.2048373,-2.0743344
2.834,-5.781148,10.60734,0.68799174,0.06585102,-2.1875632,-2.0787358
2.836,-5.68289,10.623957,0.60207915,0.062383115,-2.169511,-2.0827057
2.838,-5.5857015,10.643481,0.5101737,0.05907695,-2.1511545,-2.086179
2.84,-5.489663,10.665785,0.4123628,0.055647686,-2.1329403,-2.0890749
2.842,-5.394699,10.690767,0.3090583,0.051831566,-2.1153173,-2.0913134
2.844,-5.300727,10.71807,0.20081186,0.047367662,-2.098732,-2.0928316
2.846,-5.2078047,10.747531,0.08821797,0.042050466,-2.0835905,-2.0935628
2.848,-5.1158323,10.778958,-0.027914047,0.03569953,-2.0702708,-2.093466
2.85,-5.024519,10.8120775,-0.14690387,0.028173469,-2.059114,-2.0925384
2.852,-4.933705,10.846479,-0.26791835,0.01937753,-2.0504198,-2.0907931
2.854,-4.842931,10.881884,-0.38995373,0.009264704,-2.0444386,-2.088263
2.856,-4.752198,10.918079,-0.5123142,-0.002194386,-2.0414028,-2.0850105
2.858,-4.6609516,10.954455,-0.63384414,-0.014983479,-2.041487,-2.0811021
2.86,-4.569142,10.990682,-0.75368667,-0.029077549,-2.044826,-2.0766292
2.862,-4.476218,11.026364,-0.87072575,-0.04442417,-2.0515273,-2.0716772
2.864,-4.3818007,11.0611105,-0.9840925,-0.060969368,-2.0616584,-2.0663366
2.866,-4.285587,11.094446,-1.0927267,-0.078656405,-2.075241,-2.0607123
2.868,-4.1871243,11.125895,-1.1957549,-0.097425066,-2.0922475,-2.0549157
2.87,-4.0860515,11.155104,-1.2923536,-0.11719987,-2.1126158,-2.0490499
2.872,-3.9818625,11.181468,-1.3818069,-0.13790502,-2.1362076,-2.0432491
2.874,-3.8741136,11.204789,-1.4633619,-0.15947026,-2.162855,-2.0376346
2.876,-3.7624161,11.2246275,-1.536367,-0.18179405,-2.192338,-2.0323358
2.878,-3.6462636,11.240652,-1.6003162,-0.20475787,-2.2243788,-2.0274785
2.88,-3.5253928,11.252653,-1.6546615,-0.2282291,-2.258656,-2.0231886
2.882,-3.39943,11.260314,-1.6992056,-0.25204125,-2.2948053,-2.0195842
2.884,-3.2680273,11.263498,-1.733607,-0.27602085,-2.3324287,-2.01682
2.886,-3.131079,11.262128,-1.7577791,-0.2999667,-2.3711019,-2.01504
2.888,-2.9883888,11.256108,-1.7716953,-0.32364905,-2.4103682,-2.0143797
2.89,-2.8399024,11.245322,-1.7753377,-0.34683037,-2.4497821,-2.0149841
2.892,-2.6855516,11.22987,-1.7689486,-0.36927325,-2.4888728,-2.0169888
2.894,-2.5254402,11.209859,-1.7528546,-0.39073277,-2.5272098,-2.020546
2.896,-2.359858,11.185568,-1.7274691,-0.41097626,-2.5643759,-2.025779
2.898,-2.1891692,11.157087,-1.693332,-0.42978054,-2.599967,-2.0327933
2.9,-2.013632,11.124672,-1.6511611,-0.44694525,-2.6336389,-2.0416784
2.902,-1.8339767,11.0885725,-1.6016028,-0.46228516,-2.6650681,-2.0525033
2.904,-1.6507165,11.049107,-1.5455594,-0.47561285,-2.6939826,-2.0653098
2.906,-1.4645972,11.006675,-1.4838952,-0.4867819,-2.7201483,-2.080112
2.908,-1.2765013,10.961692,-1.417454,-0.49566978,-2.7433994,-2.0968983
2.91,-1.0871193,10.914395,-1.3471286,-0.502177,-2.7636075,-2.1156068
2.912,-0.8973428,10.865365,-1.2740393,-0.5062548,-2.7806935,-2.1361396
2.914,-0.7080663,10.814978,-1.1989756,-0.5078786,-2.7946215,-2.1583643
2.916,-0.5202315,10.763641,-1.1230224,-0.5071017,-2.8054013,-2.1820893
2.918,-0.33453602,10.711768,-1.0468476,-0.50400794,-2.8130786,-2.2070975
2.92,-0.15192461,10.659727,-0.97132933,-0.49874207,-2.8177137,-2.2330985
2.922,0.027010202,10.607894,-0.89727366,-0.49148062,-2.81938,-2.2597797
2.924,0.20167065,10.556569,-0.8250943,-0.48244554,-2.8181293,-2.2868013
2.926,0.37150943,10.505991,-0.7555653,-0.47186375,-2.814002,-2.3138075
2.928,0.53606474,10.456466,-0.68914187,-0.459954,-2.8070045,-2.34045
2.93,0.6951287,10.408001,-0.62637806,-0.4469399,-2.797098,-2.3664
2.932,0.84849715,10.360776,-0.567651,-0.4330101,-2.784218,-2.391351
2.934,0.9960414,10.314745,-0.5132743,-0.4183304,-2.768284,-2.4150262
2.936,1.1378309,10.26989,-0.46338153,-0.40301672,-2.7492023,-2.4371867
2.938,1.2739383,10.226317,-0.41821694,-0.38715553,-2.726893,-2.4576073
2.94,1.404738,10.184103,-0.37791312,-0.3708063,-2.7013142,-2.4760969
2.942,1.530432,10.143227,-0.3427025,-0.35400015,-2.6724863,-2.49252
2.944,1.6515199,10.103659,-0.31252825,-0.33674002,-2.6404939,-2.5067432
2.946,1.7684186,10.065275,-0.2875054,-0.31901804,-2.6055152,-2.5186698
2.948,1.8816463,10.028116,-0.26772785,-0.3008297,-2.567789,-2.528221
2.95,1.9917268,9.992118,-0.25311613,-0.28216535,-2.5276232,-2.5353503
2.952,2.0990105,9.957277,-0.24362361,-0.2630145,-2.4853973,-2.540036
2.954,2.2040458,9.923565,-0.23924911,-0.24338046,-2.4415197,-2.5422735
2.956,2.3071623,9.890975,-0.23987377,-0.22328371,-2.3964298,-2.5420754
2.958,2.4087615,9.859519,-0.24543309,-0.20278439,-2.3505394,-2.5394697
2.96,2.50931,9.829169,-0.2557237,-0.18191999,-2.304245,-2.5345147
2.962,2.6088638,9.799983,-0.27042496,-0.16074398,-2.2578998,-2.5273116
2.964,2.7076886,9.772026,-0.28920114,-0.13932893,-2.211805,-2.51797
2.966,2.806027,9.745137,-0.31168664,-0.11776546,-2.16622,-2.5066235
2.968,2.9038968,9.719468,-0.33762348,-0.09615627,-2.1213503,-2.4934125
2.97,3.0014415,9.695079,-0.36658323,-0.07459405,-2.0773442,-2.4785132
2.972,3.0986545,9.671918,-0.39803243,-0.05319649,-2.0343304,-2.4620912
2.974,3.1953752,9.650116,-0.4315555,-0.032076925,-1.9924215,-2.4443316
2.976,3.2915611,9.629702,-0.46659517,-0.011349291,-1.9517362,-2.4254115
2.978,3.3870826,9.610754,-0.5026491,0.008883506,-1.91242,-2.4054985
2.98,3.4819572,9.593369,-0.539236,0.028524905,-1.8746369,-2.3847442
2.982,3.5759768,9.57741,-0.57590663,0.0474737,-1.8385956,-2.3632827
2.984,3.6689534,9.562919,-0.6121254,0.06565827,-1.8045413,-2.3412318
2.986,3.7607703,9.549853,-0.6475534,0.08300319,-1.7727554,-2.3186965
2.988,3.8514166,9.538232,-0.68189883,0.09947023,-1.7435372,-2.295776
2.99,3.9407096,9.527933,-0.7148549,0.11502519,-1.7171936,-2.2725914
2.992,4.028529,9.519088,-0.7460766,0.12968409,-1.6940112,-2.249309
2.994,4.1148243,9.5115595,-0.7756458,0.143495,-1.6742388,-2.2261453
2.996,4.1996493,9.505323,-0.8033279,0.15652981,-1.6580797,-2.2033405
2.998,4.282671,9.500464,-0.8293353,0.16888878,-1.645685,-2.1811893
3,4.3639975,9.497015,-0.8535983,0.18069687,-1.6371468,-2.1600018
3.002,4.443507,9.494879,-0.8762266,0.19208911,-1.6325105,-2.1400986
3.004,4.521245,9.493971,-0.8974035,0.20319396,-1.6317608,-2.1217954
3.006,4.59682,9.494345,-0.9172646,0.21412438,-1.6348581,-2.1053696
3.008,4.6700697,9.496058,-0.93607193,0.22496614,-1.6417122,-2.0910654
3.01,4.740637,9.499135,-0.9540038,0.23576719,-1.6522177,-2.0790656
3.012,4.808298,9.503519,-0.9713529,0.24652874,-1.6662441,-2.0695114
3.014,4.87251,9.509441,-0.9883426,0.25720316,-1.6836525,-2.062478
3.016,4.9329557,9.516691,-1.0050242,0.2677027,-1.7042695,-2.0579908
3.018,4.9891567,9.525444,-1.0218067,0.27791655,-1.7278979,-2.0560262
3.02,5.0405326,9.535837,-1.0386208,0.28770983,-1.7543333,-2.0565546
3.022,5.0865374,9.547733,-1.0554669,0.2969247,-1.7833444,-2.0594923
3.024,5.126459,9.561318,-1.0725348,0.3054006,-1.8146871,-2.0647225
3.026,5.159581,9.576563,-1.0897391,0.31298184,-1.8481123,-2.07209
3.028,5.1852846,9.593698,-1.1071746,0.31950772,-1.8833654,-2.081407
3.03,5.2028165,9.612829,-1.1248146,0.3248328,-1.9201733,-2.0924516
3.032,5.211606,9.634015,-1.1425561,0.32882953,-1.9582814,-2.1049519
3.034,5.211021,9.657392,-1.1605675,0.33138347,-1.997438,-2.1186156
3.036,5.2005553,9.683026,-1.1786968,0.33241183,-2.0373876,-2.133117
3.038,5.179721,9.710934,-1.19678,0.3318466,-2.0778847,-2.1480932
3.04,5.1481256,9.741238,-1.2147591,0.32963693,-2.1186907,-2.1631947
3.042,5.1055894,9.773876,-1.2325085,0.32574666,-2.1595883,-2.1780822
3.044,5.0521545,9.808854,-1.250001,0.32016402,-2.2003863,-2.192454
3.046,4.9877024,9.846064,-1.2672392,0.3128816,-2.2409217,-2.2060485
3.048,4.9124045,9.885129,-1.283905,0.30389708,-2.281109,-2.2186184
3.05,4.826316,9.92574,-1.2998368,0.29326248,-2.3209324,-2.230034
3.052,4.729853,9.967539,-1.3148253,0.28102756,-2.3604298,-2.2402344
3.054,4.62346,10.00996,-1.328836,0.26724362,-2.3997247,-2.2492278
3.056,4.507473,10.052534,-1.3415954,0.2519604,-2.4390137,-2.2570665
3.058,4.3823595,10.094694,-1.3529367,0.23521864,-2.478539,-2.263861
3.06,4.2487626,10.135792,-1.3625237,0.21707392,-2.5185666,-2.2697568
3.062,4.1073203,10.175132,-1.3701206,0.19753712,-2.5593767,-2.274918
3.064,3.9585056,10.21208,-1.3752071,0.17663932,-2.6012447,-2.2795234
3.066,3.8031204,10.245741,-1.377469,0.15437311,-2.6444087,-2.283749
3.068,3.6416886,10.275211,-1.3763924,0.13070965,-2.6890597,-2.287745
3.07,3.4746192,10.299615,-1.3714254,0.10562557,-2.7353487,-2.2916207
3.072,3.3025165,10.318039,-1.3619415,0.07906175,-2.7833614,-2.2954447
3.074,3.1257708,10.329447,-1.3472363,0.050945997,-2.833117,-2.2992282
3.076,2.9448917,10.333111,-1.3264378,0.021219015,-2.8845685,-2.3029747
3.078,2.7601073,10.327926,-1.2986497,-0.010167122,-2.9376,-2.3066497
3.08,2.5716462,10.313012,-1.2628648,-0.043231845,-2.992045,-2.3102295
3.082,2.3795872,10.287544,-1.2181597,-0.07798684,-3.0476947,-2.3136883
3.084,2.1840744,10.250362,-1.1634754,-0.11440611,-3.1043153,-2.3170109
3.086,1.9848974,10.200555,-1.0975437,-0.15242338,-3.1616318,-2.3202221
3.088,1.7817998,10.137129,-1.0192932,-0.19193506,-3.2193637,-2.3233857
3.09,1.5746806,10.058955,-0.92729783,-0.23278761,-3.2772458,-2.3266268
3.092,1.3633578,9.965268,-0.8201664,-0.27479136,-3.335031,-2.3301146
3.094,1.1471958,9.855244,-0.69649947,-0.31769753,-3.39254,-2.334038
3.096,0.9258218,9.728529,-0.5546802,-0.36124396,-3.449661,-2.3385987
3.098,0.69895554,9.583278,-0.3930074,-0.40515172,-3.5063803,-2.3439925
3.1,0.46600342,9.418004,-0.20994659,-0.44912648,-3.562773,-2.3504074
3.102,0.22664309,9.231997,-0.0032239892,-0.4928677,-3.6189737,-2.3580496
3.104,-0.02000761,9.023568,0.22835293,-0.53613687,-3.675169,-2.3670495
3.106,-0.27430344,8.790033,0.48713928,-0.5786755,-3.7315807,-2.3775327
3.108,-0.5357418,8.529889,0.77563894,-0.6202538,-3.7883945,-2.3896344
3.11,-0.80482507,8.241566,1.0955845,-0.66064155,-3.8457131,-2.4034605
3.112,-1.0822222,7.923865,1.448334,-0.6996094,-3.903494,-2.4191532
3.114,-1.3680091,7.574857,1.8353379,-0.73692024,-3.9615297,-2.4368646
3.116,-1.6614788,7.191923,2.2579687,-0.7723087,-4.0194182,-2.4567518
3.118,-1.9618834,6.7725434,2.717787,-0.8054857,-4.076507,-2.4790099
3.12,-2.269023,6.314794,3.2151814,-0.83610046,-4.1319294,-2.5038426
3.122,-2.582371,5.8167753,3.750275,-0.8637936,-4.184626,-2.5314426
3.124,-2.9012065,5.2766304,4.322829,-0.8882104,-4.2334,-2.5620244
3.126,-3.2246144,4.69302,4.9318852,-0.90892494,-4.276907,-2.5958607
3.128,-3.5515618,4.06457,5.5762377,-0.9255154,-4.3137236,-2.633266
3.13,-3.8811517,3.3906198,6.2536006,-0.93763924,-4.3424797,-2.6744251
3.132,-4.2123504,2.6709719,6.9614224,-0.94501126,-4.3618927,-2.7194374
3.134,-4.5438733,1.9057968,7.6965985,-0.94747794,-4.370837,-2.7685628
3.136,-4.874463,1.0962048,8.455199,-0.9450221,-4.3683496,-2.821971
3.138,-5.203023,0.24371934,9.232485,-0.93781173,-4.3535886,-2.8795598
3.14,-5.528219,-0.6493306,10.023112,-0.92621624,-4.3258595,-2.9411292
3.142,-5.84886,-1.5796053,10.821288,-0.91075397,-4.284616,-3.0064776
3.144,-6.1635056,-2.5428483,11.620895,-0.89207256,-4.229489,-3.0753314
3.146,-6.4708514,-3.5339231,12.415331,-0.8710556,-4.1602664,-3.1470833
3.148,-6.769451,-4.546504,13.197558,-0.84882414,-4.0767913,-3.2206335
3.15,-7.0579524,-5.5733905,13.960561,-0.8266665,-3.9789572,-3.294374
3.152,-7.334938,-6.6064534,14.697341,-0.8060014,-3.8667638,-3.3662078
3.154,-7.5988355,-7.636683,15.401133,-0.7883333,-3.740304,-3.4335601
3.156,-7.848264,-8.654441,16.065481,-0.7752007,-3.5997767,-3.4934022
3.158,-8.081639,-9.64929,16.684227,-0.7681252,-3.4455988,-3.5424044
3.16,-8.297483,-10.610241,17.251966,-0.7685741,-3.2784948,-3.5770936
3.162,-8.494422,-11.525826,17.764086,-0.77791715,-3.0995421,-3.594114
3.164,-8.67092,-12.384729,18.216604,-0.79744864,-2.9101758,-3.5904312
3.166,-8.824937,-13.176188,18.606396,-0.828326,-2.7122087,-3.563473
3.168,-8.954598,-13.889733,18.931372,-0.8716006,-2.5077524,-3.5113423
3.17,-9.0585,-14.515141,19.190441,-0.9282348,-2.2991962,-3.432959
3.172,-9.134921,-15.043165,19.383541,-0.9991173,-2.0891473,-3.3281257
3.174,-9.182287,-15.465355,19.511465,-1.0850117,-1.8802642,-3.1976104
3.176,-9.199266,-15.774261,19.575792,-1.1864772,-1.6751113,-3.0431738
3.178,-9.184485,-15.963804,19.578691,-1.3038516,-1.4760687,-2.8675036
3.18,-9.136219,-16.029074,19.523344,-1.4372292,-1.2852969,-2.6741223
3.182,-9.053331,-15.966648,19.413435,-1.5863719,-1.1046314,-2.467255
3.184,-8.935087,-15.77414,19.253393,-1.7506912,-0.93552536,-2.251725
3.186,-8.780315,-15.450663,19.048094,-1.9292939,-0.7790315,-2.0325537
3.188,-8.588019,-14.99649,18.802786,-2.12102,-0.6358254,-1.8144538
3.19,-8.357718,-14.413035,18.522749,-2.324566,-0.5062884,-1.6018977
3.192,-8.088701,-13.70298,18.213608,-2.538588,-0.39048564,-1.3988662
3.194,-7.7805834,-12.869621,17.880949,-2.7617464,-0.28811306,-1.2083656
3.196,-7.433153,-11.917294,17.52968,-2.9928467,-0.1985209,-1.03227
3.198,-7.0466433,-10.8511,17.164907,-3.2308314,-0.12071431,-0.87141633
3.2,-6.641393,-9.734569,16.802488,-3.474655,-0.053362608,-0.72588384
3.202,-6.203501,-8.532194,16.43825,-3.7233214,0.005099416,-0.5951365
3.204,-5.7346034,-7.253442,16.076193,-3.9758878,0.056444764,-0.47808754
3.206,-5.2370634,-5.908266,15.719779,-4.2314267,0.10270393,-0.3732221
3.208,-4.7137465,-4.505734,15.371939,-4.4889455,0.14602089,-0.2788167
3.21,-4.167504,-3.0556424,15.0351,-4.747348,0.18859148,-0.19313902
3.212,-3.6017537,-1.5687783,14.710676,-5.005415,0.23262,-0.114524245
3.214,-3.0197873,-0.054624557,14.400606,-5.261834,0.28020978,-0.04142189
3.216,-2.4256072,1.4779711,14.105059,-5.515197,0.33325696,0.027567148
3.218,-1.8236394,3.0190866,13.824015,-5.764025,0.39329958,0.09367859
3.22,-1.2175612,4.559436,13.557644,-6.0068684,0.46142864,0.15798628
3.222,-0.61061,6.0901375,13.306137,-6.2423,0.538249,0.2213968
3.224,-0.006652832,7.603816,13.06893,-6.468942,0.62389493,0.2846527
3.226,0.5903101,9.09417,12.845088,-6.685485,0.71804357,0.34830248
3.228,1.1767325,10.555483,12.63325,-6.886697,0.815835,0.41037238
3.23,1.7501149,11.982128,12.432843,-7.0743303,0.9180324,0.4722154
3.232,2.3080273,13.369625,12.243017,-7.2473183,1.0225329,0.53345525
3.234,2.848434,14.714146,12.062721,-7.4048595,1.127101,0.5935421
3.236,3.3693523,16.012814,11.89106,-7.546522,1.2295496,0.6518047
3.238,3.8694582,17.26354,11.727076,-7.672264,1.3279328,0.7075486
3.24,4.3479395,18.464813,11.56996,-7.782484,1.4206498,0.7601372
3.242,4.8043985,19.615898,11.41884,-7.877953,1.506573,0.80906177
3.244,5.2385254,20.716743,11.272816,-7.959758,1.5850656,0.8540292
3.246,5.6503496,21.767647,11.131351,-8.029197,1.6558957,0.8949467
3.248,6.0402145,22.769608,10.994207,-8.087713,1.7191784,0.93189573
3.25,6.408696,23.724056,10.861307,-8.136747,1.7753093,0.9650444
