Time_s_,Acc_x_m_s_2_,Acc_y_m_s_2_,Acc_z_m_s_2_,Gyro_x_1_s_,Gyro_y_1_s_,Gyro_z_1_s_
0,1.1944542,-1.0479668,1.4423083,0.22125009,0.9527657,-0.53907883
0.002,1.2189006,-1.0631064,1.3992046,0.22455934,0.9702408,-0.5357301
0.004,1.2452992,-1.0783314,1.3531989,0.22805732,0.9881455,-0.5323186
0.006,1.273849,-1.0936852,1.3043572,0.2316975,1.00601,-0.5289841
0.008,1.3046982,-1.109404,1.2528026,0.23540375,1.0231826,-0.5258885
0.01,1.337865,-1.1256326,1.198827,0.2390588,1.0388712,-0.52325404
0.012,1.3734456,-1.1424844,1.1425356,0.24253088,1.0521789,-0.52133757
0.014,1.4115586,-1.1602327,1.0841087,0.2456797,1.0621623,-0.52042425
0.016,1.4524527,-1.1791276,1.023987,0.24835,1.0679424,-0.5207943
0.018,1.4958729,-1.1992984,0.96243155,0.25040245,1.0688233,-0.52269113
0.02,1.5419587,-1.2210178,0.8998068,0.25174114,1.0644044,-0.5262787
0.022,1.590696,-1.2444198,0.8364297,0.25230935,1.0546561,-0.53161186
0.024,1.6419022,-1.2696557,0.7727661,0.25212583,1.0399647,-0.53861034
0.026,1.6953576,-1.2968838,0.7091745,0.2512561,1.0210497,-0.5470702
0.028,1.7508173,-1.3262229,0.6460704,0.24991068,0.99926126,-0.55663747
0.03,1.8080488,-1.3576704,0.58384025,0.24808502,0.9750983,-0.56695795
0.032,1.8665185,-1.3913039,0.52282953,0.24596703,0.94978714,-0.577536
0.034,1.9257619,-1.4270818,0.46336418,0.24374554,0.9243877,-0.5878715
0.036,1.9851999,-1.4649215,0.40579396,0.24158813,0.89970684,-0.5975006
0.038,2.0443008,-1.5046676,0.35021976,0.23963088,0.87627757,-0.6060034
0.04,2.1023946,-1.5460856,0.2968894,0.23794867,0.8543314,-0.61300606
0.042,2.158938,-1.5889639,0.24607715,0.23658124,0.83384657,-0.6182134
0.044,2.2133048,-1.6329205,0.19822147,0.23550905,0.8145581,-0.6214103
0.046,2.2652063,-1.6775748,0.15389279,0.2346926,0.79606307,-0.6224874
0.048,2.3138893,-1.7218541,0.11339682,0.234055,0.7778318,-0.62143314
0.05,2.3575172,-1.7640555,0.07676877,0.23348351,0.7593006,-0.6183164
0.052,2.3940542,-1.8024149,0.043940503,0.23286068,0.7399302,-0.6132629
0.054,2.422183,-1.8360187,0.015072711,0.23206498,0.7192476,-0.60646564
0.056,2.4430437,-1.8664709,-0.009623067,0.23100077,0.6968627,-0.5981853
0.058,2.4550388,-1.8915327,-0.030427858,0.22958604,0.6725165,-0.5887053
0.06,2.4578598,-1.9115545,-0.046670634,0.22775763,0.6460732,-0.5783179
0.062,2.4506965,-1.9263847,-0.05768678,0.22547781,0.61752194,-0.56733906
0.064,2.4326575,-1.9350429,-0.06315741,0.2227284,0.5869467,-0.5560622
0.066,2.4033391,-1.9366158,-0.06301331,0.21950242,0.5545498,-0.54473996
0.068,2.362268,-1.929883,-0.057588674,0.21579972,0.52061915,-0.5335848
0.07,2.309297,-1.9140401,-0.046697997,0.21164298,0.4855162,-0.52277476
0.072,2.2440526,-1.8884788,-0.030135999,0.20706694,0.44963777,-0.5124526
0.074,2.1661072,-1.8527284,-0.0078478865,0.20210695,0.41339308,-0.50274104
0.076,2.0752625,-1.8063174,0.01986595,0.19682834,0.37720823,-0.49375647
0.078,1.971193,-1.7491294,0.052279957,0.19134155,0.34153044,-0.48566777
0.08,1.8540468,-1.6813965,0.08889805,0.18581529,0.30682895,-0.47876716
0.082,1.7241404,-1.6034696,0.12918486,0.18044402,0.27357885,-0.47347113
0.084,1.5816963,-1.516143,0.17239314,0.1754618,0.24228558,-0.47022498
0.086,1.4274447,-1.4204013,0.21757618,0.17114519,0.2135059,-0.46953484
0.088,1.2622931,-1.3176146,0.2634622,0.16787514,0.187847,-0.4720113
0.09,1.0874317,-1.2094111,0.3090382,0.16611165,0.16595753,-0.47835273
0.092,0.9043384,-1.097579,0.35302973,0.16635785,0.14853777,-0.4892865
0.094,0.7147,-0.9839352,0.39449957,0.16912006,0.13637164,-0.5054975
0.096,0.5205553,-0.8704608,0.4321858,0.17483798,0.13025573,-0.5275577
0.098,0.32427093,-0.75932336,0.46519047,0.18387276,0.13090016,-0.55587137
0.1,0.12835814,-0.65249014,0.49266315,0.19639847,0.1387199,-0.59053326
0.102,-0.06435448,-0.5521244,0.51401705,0.21236266,0.15378672,-0.6312008
0.104,-0.2513708,-0.46008942,0.5287337,0.2313927,0.17568852,-0.67701817
0.106,-0.42974758,-0.37817323,0.5365656,0.2527784,0.20351778,-0.72666097
0.108,-0.5965198,-0.30795118,0.5374247,0.27549556,0.235868,-0.77847546
0.11,-0.74948364,-0.2506259,0.53157324,0.29829204,0.27091828,-0.830633
0.112,-0.8863307,-0.20676377,0.5193304,0.31980368,0.3065358,-0.8813592
0.114,-1.0053549,-0.17643547,0.50107515,0.3386846,0.34052682,-0.92911994
0.116,-1.1050537,-0.15939867,0.4774481,0.3537758,0.37080374,-0.9727683
0.118,-1.1844321,-0.15492815,0.44923413,0.36424303,0.39561388,-1.0116435
0.12,-1.2427243,-0.16189069,0.41720742,0.36966652,0.41367948,-1.0455941
0.122,-1.2803686,-0.17881578,0.38227516,0.37009266,0.42432332,-1.0748831
0.124,-1.2978764,-0.20394272,0.3453005,0.36598605,0.4274766,-1.1000719
0.126,-1.2963004,-0.23534024,0.30710712,0.3581719,0.42365733,-1.1218765
0.128,-1.2768208,-0.27123433,0.26852044,0.34769812,0.41384956,-1.1410307
0.13,-1.2408912,-0.30984807,0.23036206,0.3357024,0.3993325,-1.1581475
0.132,-1.1903976,-0.34970433,0.19345304,0.32323986,0.38150644,-1.1736505
0.134,-1.1270791,-0.38933593,0.15848851,0.31121194,0.36175898,-1.1877372
0.136,-1.0528841,-0.42741176,0.12604454,0.30030233,0.3413165,-1.2005119
0.138,-0.96984684,-0.46282342,0.096502684,0.29092288,0.32111585,-1.2120895
0.14,-0.8800453,-0.4945906,0.06998075,0.2831897,0.30174673,-1.2226003
0.142,-0.7850106,-0.52211386,0.0465289,0.27694964,0.2834525,-1.2321978
0.144,-0.68628454,-0.54497993,0.026094422,0.27188605,0.26616195,-1.2411093
0.146,-0.5850338,-0.5632229,0.008467369,0.26757574,0.24952464,-1.249656
0.148,-0.48219466,-0.5772019,-0.00625246,0.26359218,0.23297495,-1.2582287
0.15,-0.3783326,-0.5876471,-0.018243924,0.2595462,0.2158919,-1.26719
0.152,-0.27400136,-0.59541076,-0.027654115,0.25510013,0.19775784,-1.2768114
0.154,-0.16948684,-0.60146016,-0.03479196,0.25002372,0.1782664,-1.2872903
0.156,-0.065052986,-0.60694826,-0.039927877,0.24418168,0.15729836,-1.2987487
0.158,0.03968954,-0.6134838,-0.043108445,0.23754668,0.13493925,-1.3111792
0.16,0.14583436,-0.6228303,-0.044161074,0.23021081,0.111416,-1.3243918
0.162,0.25401455,-0.6362526,-0.042785224,0.22232036,0.087073825,-1.3380193
0.164,0.363895,-0.6537304,-0.039045606,0.2140325,0.06230776,-1.351548
0.166,0.4744835,-0.6749282,-0.033025023,0.20549235,0.037528493,-1.3644214
0.168,0.58431864,-0.69903183,-0.025030358,0.19681315,0.013096022,-1.3761077
0.17,0.6931653,-0.72594804,-0.0151098855,0.18803671,-0.0106956735,-1.3861332
0.172,0.8009254,-0.7562329,-0.002984222,0.17911997,-0.03367999,-1.3941125
0.174,0.9071897,-0.7907026,0.011569437,0.16995111,-0.05578138,-1.3997478
0.176,1.0111157,-0.83004767,0.028807612,0.16035715,-0.07700493,-1.4028189
0.178,1.1117196,-0.87431216,0.04871791,0.15013734,-0.09742848,-1.4031531
0.18,1.2077758,-0.9228337,0.07098189,0.13906443,-0.117157236,-1.4006083
0.182,1.2982309,-0.9744631,0.09529288,0.12691063,-0.1363208,-1.3950444
0.184,1.3821517,-1.0281446,0.121774115,0.11345649,-0.15503085,-1.3863442
0.186,1.4584609,-1.0830152,0.15083005,0.09852483,-0.17338799,-1.3744278
0.188,1.5264398,-1.1379845,0.18318993,0.08196384,-0.19147149,-1.3592707
0.19,1.5850495,-1.1920635,0.21918276,0.0636626,-0.2093932,-1.3409253
0.192,1.6330851,-1.2441019,0.25933632,0.043557182,-0.22727272,-1.3195451
0.194,1.6699071,-1.293035,0.30396807,0.021653906,-0.2452383,-1.295409
0.196,1.6951282,-1.3381639,0.35354397,-0.0020053536,-0.26341748,-1.2689153
0.198,1.7082746,-1.3787107,0.40858886,-0.027331546,-0.28193393,-1.2405585
0.2,1.7093524,-1.4142692,0.46950042,-0.05419059,-0.30087098,-1.2108805
0.202,1.6982217,-1.4444367,0.5366509,-0.08242345,-0.32022908,-1.1804479
0.204,1.6751262,-1.4692543,0.6103093,-0.111829564,-0.33988738,-1.1497986
0.206,1.6404371,-1.4885751,0.69056,-0.14215063,-0.3596225,-1.119383
0.208,1.5941656,-1.5020692,0.77743614,-0.17308223,-0.37907434,-1.0895289
0.21,1.5377868,-1.5102994,0.8714647,-0.20427197,-0.3977286,-1.0604111
0.212,1.4719036,-1.513145,0.9708107,-0.23535869,-0.41496295,-1.0321094
0.214,1.3969946,-1.5106636,1.0751607,-0.26602954,-0.4300881,-1.0046211
0.216,1.3140917,-1.5029995,1.1843003,-0.29599884,-0.4424286,-0.97786266
0.218,1.2247956,-1.4900743,1.2962292,-0.32505256,-0.45138288,-0.9517268
0.22,1.1301732,-1.4720452,1.4110328,-0.35306948,-0.45649934,-0.9260712
0.222,1.0311823,-1.4494019,1.5282233,-0.38000906,-0.45749658,-0.9007684
0.224,0.92879605,-1.4226232,1.6466113,-0.40593135,-0.45426276,-0.87575555
0.226,0.82388186,-1.3923277,1.7649932,-0.43097016,-0.4468813,-0.850996
0.228,0.7175494,-1.3591168,1.8820016,-0.45532858,-0.43562797,-0.8264867
0.23,0.6103639,-1.3232164,1.9963176,-0.47920972,-0.42090276,-0.8022372
0.232,0.5033594,-1.2845666,2.1066628,-0.50280046,-0.4031806,-0.7782624
0.234,0.3969014,-1.2429032,2.2120578,-0.52625906,-0.38299197,-0.7545537
0.236,0.29125318,-1.1979437,2.3111176,-0.54967594,-0.3608384,-0.7310853
0.238,0.18677208,-1.1493759,2.4025555,-0.57312524,-0.33723935,-0.70781904
0.24,0.083434284,-1.0970352,2.4849494,-0.5966282,-0.31261355,-0.6846396
0.242,-0.018519878,-1.0407783,2.556871,-0.62013525,-0.2872864,-0.6614164
0.244,-0.11897823,-0.9807459,2.6169946,-0.6436221,-0.26171258,-0.6380624
0.246,-0.21769881,-0.91721153,2.6643,-0.66696596,-0.23607945,-0.6144094
0.248,-0.31446326,-0.8505801,2.697837,-0.68999225,-0.21046,-0.59029055
0.25,-0.40886587,-0.7814171,2.7168531,-0.71253884,-0.18511015,-0.5656179
0.252,-0.5007638,-0.7101462,2.7206268,-0.7343774,-0.16018376,-0.54024535
0.254,-0.5900337,-0.63753176,2.7084084,-0.7552151,-0.13572517,-0.51407635
0.256,-0.6763476,-0.56424403,2.6797314,-0.77468586,-0.11170679,-0.48702127
0.258,-0.7591903,-0.49111927,2.6341774,-0.7923351,-0.08801448,-0.4589401
0.26,-0.83788955,-0.41916648,2.571379,-0.8076486,-0.0644238,-0.42965928
0.262,-0.9114808,-0.34962106,2.4910374,-0.8200881,-0.04063195,-0.3990078
0.264,-0.9788977,-0.2841026,2.3931768,-0.8291554,-0.016279072,-0.3668657
0.266,-1.0393106,-0.22386652,2.2781508,-0.83446735,0.009043932,-0.3331618
0.268,-1.0918603,-0.17034075,2.1466353,-0.8358214,0.035773695,-0.29792276
0.27,-1.1356452,-0.12495914,1.9993808,-0.8332463,0.06431815,-0.2613131
0.272,-1.1697991,-0.088910535,1.8372619,-0.8270259,0.09499386,-0.2236174
0.274,-1.1937969,-0.06342995,1.6611357,-0.81770366,0.12801468,-0.18524578
0.276,-1.2072493,-0.049335092,1.4718868,-0.806038,0.16348279,-0.14667973
0.278,-1.2098186,-0.047337234,1.2706487,-0.79290986,0.20139423,-0.10845295
0.28,-1.2014151,-0.057810396,1.0585732,-0.77924097,0.2416631,-0.07115665
0.282,-1.1824765,-0.08048707,0.8368591,-0.76588356,0.284079,-0.035400208
0.284,-1.153456,-0.11538154,0.6067739,-0.75356805,0.3282821,-0.0017930556
0.286,-1.1152695,-0.16187757,0.369604,-0.74281794,0.3737283,0.029127363
0.288,-1.069386,-0.21925259,0.12719671,-0.73393834,0.4196879,0.056896757
0.29,-1.0179838,-0.2861368,-0.119315736,-0.7270386,0.46525496,0.08116077
0.292,-0.9627782,-0.3617376,-0.369551,-0.72204363,0.5093627,0.10171637
0.294,-0.9051361,-0.4452291,-0.6217759,-0.71879363,0.55071145,0.11846792
0.296,-0.84795433,-0.53446704,-0.8730444,-0.71712565,0.58786714,0.13148588
0.298,-0.7930991,-0.6278922,-1.1226261,-0.7168519,0.6195035,0.14102843
0.3,-0.74222004,-0.72439206,-1.3703538,-0.7179416,0.64405763,0.14737651
0.302,-0.6976788,-0.82209516,-1.6153198,-0.72046113,0.6600927,0.15093316
0.304,-0.661683,-0.91916037,-1.8559245,-0.72454333,0.6665727,0.15218756
0.306,-0.6364784,-1.0138078,-2.0905325,-0.7304838,0.66254807,0.15152986
0.308,-0.623705,-1.1047268,-2.3178468,-0.7387147,0.64727664,0.14934368
0.31,-0.6253728,-1.1903925,-2.5366802,-0.74980533,0.62028736,0.14594842
0.312,-0.64250976,-1.2697797,-2.7455592,-0.7644934,0.581318,0.14149392
0.314,-0.6760475,-1.3418673,-2.9428034,-0.7836264,0.53027654,0.13602915
0.316,-0.7262273,-1.4065416,-3.1263068,-0.80812013,0.46717182,0.12956004
0.318,-0.7923983,-1.4640418,-3.2938855,-0.8389178,0.39200607,0.121974394
0.32,-0.8746369,-1.5144448,-3.4440415,-0.87691176,0.30485004,0.11303818
0.322,-0.9716362,-1.558211,-3.5739694,-0.9229238,0.20579498,0.10244614
0.324,-1.0816634,-1.5955101,-3.6830819,-0.9776507,0.09494305,0.089830026
0.326,-1.2027334,-1.6271956,-3.7703862,-1.0414169,-0.027339637,0.07463453
0.328,-1.3329401,-1.654654,-3.8334355,-1.1141375,-0.1604994,0.05615268
0.33,-1.4694757,-1.6789695,-3.8727021,-1.195339,-0.30372226,0.03371363
0.332,-1.6092082,-1.7017114,-3.887604,-1.2841287,-0.4558301,0.0067019016
0.334,-1.7485421,-1.7253408,-3.8769147,-1.379133,-0.6151054,-0.025475115
0.336,-1.8840867,-1.7524831,-3.8398104,-1.4785693,-0.77930945,-0.06328754
0.338,-2.0127957,-1.7856832,-3.7764196,-1.5803299,-0.94568485,-0.1069271
0.34,-2.131034,-1.82815,-3.6877491,-1.6821107,-1.1110135,-0.15626085
0.342,-2.2352905,-1.8830411,-3.5754492,-1.7814566,-1.2717202,-0.21083805
0.344,-2.3223636,-1.9531908,-3.4422913,-1.8758464,-1.4240377,-0.26991305
0.346,-2.3895838,-2.041113,-3.2910864,-1.9627972,-1.5641078,-0.3325015
0.348,-2.4345932,-2.1490192,-3.125002,-2.0399375,-1.6881595,-0.39742544
0.35,-2.4552383,-2.2787457,-2.9478576,-2.105109,-1.7927015,-0.4634204
0.352,-2.4495945,-2.4320662,-2.7635598,-2.1565418,-1.874702,-0.5292568
0.354,-2.4166927,-2.6102672,-2.5755057,-2.1929479,-1.9317408,-0.5938982
0.356,-2.354937,-2.814648,-2.3877122,-2.2136235,-1.9621243,-0.65658677
0.358,-2.2654676,-3.0450082,-2.2064266,-2.2184758,-1.9649317,-0.71676433
0.36,-2.1490371,-3.3012357,-2.0386422,-2.2080417,-1.9399917,-0.77408975
0.362,-2.0061877,-3.5830271,-1.8882108,-2.1834283,-1.8879447,-0.82844555
0.364,-1.8393703,-3.8889656,-1.7578983,-2.146232,-1.8102084,-0.8798224
0.366,-1.6505427,-4.2175493,-1.6520314,-2.0984251,-1.708919,-0.9281784
0.368,-1.4419403,-4.566834,-1.5740879,-2.0422196,-1.5869274,-0.97349006
0.37,-1.215796,-4.9339776,-1.526335,-1.9799476,-1.4477189,-1.015774
0.372,-0.9744625,-5.3154364,-1.5101292,-1.9139079,-1.2952603,-1.0551256
0.374,-0.7208016,-5.707363,-1.5264081,-1.8462634,-1.1340398,-1.0918245
0.376,-0.4580027,-6.1059546,-1.575953,-1.7789257,-0.9688245,-1.1264094
0.378,-0.19058108,-6.507455,-1.6589068,-1.7134943,-0.80444366,-1.1596148
0.38,0.07661152,-6.90781,-1.7740897,-1.6513093,-0.64564556,-1.1921784
0.382,0.3381827,-7.3024845,-1.9195027,-1.5933368,-0.4966938,-1.224832
0.384,0.5875964,-7.685833,-2.0922394,-1.5402262,-0.36133558,-1.2583629
0.386,0.8188634,-8.052404,-2.290043,-1.4924425,-0.24274611,-1.2933004
0.388,1.0281718,-8.398144,-2.5114212,-1.4503477,-0.14340043,-1.3297731
0.39,1.2117445,-8.719119,-2.753684,-1.4141504,-0.0649752,-1.3675975
0.392,1.3659534,-9.011371,-3.0124154,-1.3839053,-0.008513331,-1.4064362
0.394,1.4867065,-9.270866,-3.2822433,-1.3594918,0.025584161,-1.4459119
0.396,1.5700138,-9.493794,-3.5568867,-1.3407468,0.037423074,-1.4855709
0.398,1.6124792,-9.676623,-3.830011,-1.3275707,0.027434468,-1.5249515
0.4,1.6134651,-9.817915,-4.096844,-1.3199121,-0.003725946,-1.563627
0.402,1.572258,-9.916349,-4.35215,-1.3177915,-0.055187464,-1.6011899
0.404,1.4890811,-9.97113,-4.592744,-1.3212284,-0.12579983,-1.6371553
0.406,1.3671827,-9.983483,-4.8172545,-1.3301314,-0.21402133,-1.6708411
0.408,1.2066846,-9.953123,-5.023055,-1.3442186,-0.3176841,-1.7011442
0.41,1.0093744,-9.880351,-5.209042,-1.3629394,-0.43383604,-1.7264099
0.412,0.7794173,-9.767116,-5.376878,-1.385396,-0.5585717,-1.7445515
0.414,0.5206034,-9.615521,-5.527348,-1.4102266,-0.68692034,-1.7532859
0.416,0.23717809,-9.427813,-5.660569,-1.4355745,-0.8128363,-1.7504084
0.418,-0.065615416,-9.207162,-5.777319,-1.4591475,-0.9295634,-1.7340322
0.42,-0.38177705,-8.95778,-5.879726,-1.478359,-1.0300968,-1.7028852
0.422,-0.7052243,-8.68515,-5.97069,-1.4905617,-1.1076387,-1.6565683
0.424,-1.0296865,-8.395391,-6.0535917,-1.4933382,-1.1561983,-1.5957073
0.426,-1.349281,-8.095068,-6.132096,-1.4848139,-1.1712136,-1.5220338
0.428,-1.6574214,-7.791458,-6.2100887,-1.4638388,-1.1498818,-1.4383727
0.43,-1.9522377,-7.489562,-6.2911477,-1.4301465,-1.0915623,-1.3484534
0.432,-2.228515,-7.1968336,-6.3764524,-1.3844528,-0.9981615,-1.2566512
0.434,-2.4739294,-6.9244685,-6.4723644,-1.3285098,-0.8741174,-1.1676254
0.436,-2.6794267,-6.680857,-6.5809364,-1.2649634,-0.7260885,-1.085901
0.438,-2.846795,-6.4673104,-6.6975813,-1.1970592,-0.5623559,-1.0156176
0.44,-2.9832623,-6.28045,-6.824152,-1.1282849,-0.39199948,-0.9603306
0.442,-3.08228,-6.123543,-6.96577,-1.0620657,-0.22424608,-0.92268914
0.444,-3.130785,-6.00428,-7.115035,-1.0014657,-0.067686945,-0.9042206
0.446,-3.1238823,-5.9240093,-7.2628994,-0.94898486,0.070504665,-0.90516365
0.448,-3.0659416,-5.878401,-7.4105387,-0.9064597,0.18499681,-0.92441595
0.45,-2.9623108,-5.8653874,-7.560459,-0.87498206,0.27248162,-0.9597793
0.452,-2.8144429,-5.886182,-7.706341,-0.85489917,0.33160305,-1.0081583
0.454,-2.6229293,-5.939846,-7.8403597,-0.84599775,0.36266392,-1.0658766
0.456,-2.3881505,-6.0230947,-7.9603033,-0.8476953,0.36711472,-1.1290791
0.458,-2.1120327,-6.131747,-8.067301,-0.85916775,0.34714937,-1.1941237
0.46,-1.7974858,-6.2616324,-8.159359,-0.8794377,0.30526286,-1.2580808
0.462,-1.4480674,-6.4086885,-8.231201,-0.907437,0.24398974,-1.319125
0.464,-1.0686707,-6.568711,-8.279141,-0.94174707,0.16619736,-1.3762509
0.466,-0.6646582,-6.737541,-8.299855,-0.9804836,0.07439512,-1.4292812
0.468,-0.2385118,-6.9119167,-8.288451,-1.0213536,-0.028420389,-1.4785279
0.47,0.20478582,-7.0874677,-8.242878,-1.0617056,-0.1379512,-1.524551
0.472,0.65833926,-7.2588615,-8.16708,-1.0983206,-0.24878597,-1.5678766
0.474,1.115113,-7.4205594,-8.066932,-1.1275082,-0.3552183,-1.6080655
0.476,1.565449,-7.5664296,-7.94735,-1.1454015,-0.45107675,-1.6434219
0.478,1.9995234,-7.690958,-7.8146152,-1.1483002,-0.5295279,-1.6718258
0.48,2.4077334,-7.789756,-7.6750884,-1.1331857,-0.5841081,-1.6909356
0.482,2.7815058,-7.8595896,-7.5345755,-1.0981698,-0.60962486,-1.6977369
0.484,3.1134486,-7.897858,-7.39773,-1.0426887,-0.6023026,-1.6889577
0.486,3.39754,-7.902428,-7.267831,-0.967425,-0.55981255,-1.6622072
0.488,3.629462,-7.8719306,-7.147423,-0.8739885,-0.4816836,-1.6167233
0.49,3.806369,-7.8059673,-7.039278,-0.76477003,-0.3696053,-1.5535649
0.492,3.926846,-7.705639,-6.9458275,-0.6429296,-0.22737974,-1.4754236
0.494,3.9916396,-7.573756,-6.8689003,-0.5123785,-0.06082806,-1.3865724
0.496,4.001875,-7.4137583,-6.8085403,-0.3776581,0.12252805,-1.2926888
0.498,3.958518,-7.228934,-6.763207,-0.24377458,0.31384483,-1.2003889
0.5,3.8648548,-7.0241704,-6.7315626,-0.11599122,0.50316644,-1.1166556
0.502,3.7268214,-6.805956,-6.712343,0.00031449646,0.6798521,-1.0481468
0.504,3.552734,-6.5816984,-6.703974,0.099856585,0.83328414,-1.0006272
0.506,3.352521,-6.359293,-6.7045355,0.1777078,0.9537213,-0.9785491
0.508,3.1363873,-6.1469955,-6.7115073,0.22974758,1.0331903,-0.98465574
0.51,2.9130883,-5.951947,-6.720278,0.25315636,1.066421,-1.0196888
0.512,2.6915889,-5.7810073,-6.7270393,0.2468379,1.0515344,-1.0823054
0.514,2.4807348,-5.6405673,-6.7288227,0.2117553,0.99046934,-1.1691244
0.516,2.2882135,-5.536141,-6.722498,0.15100366,0.88892657,-1.2751408
0.518,2.1236343,-5.4735727,-6.7057714,0.069363,0.7555814,-1.3945385
0.52,1.9941746,-5.4568644,-6.677163,-0.027105281,0.6017169,-1.5209552
0.522,1.904385,-5.488409,-6.6360903,-0.1316138,0.43912208,-1.6481706
0.524,1.8575054,-5.569322,-6.585173,-0.23732714,0.278591,-1.7707018
0.526,1.854791,-5.699151,-6.5284977,-0.33822393,0.12948415,-1.8843502
0.528,1.8951119,-5.87526,-6.469902,-0.42948043,-0.0006287694,-1.9867833
0.53,1.9758269,-6.0934286,-6.4127846,-0.5075895,-0.107046604,-2.077165
0.532,2.0928626,-6.347419,-6.36052,-0.57028985,-0.18804681,-2.1552372
0.534,2.241118,-6.630267,-6.316254,-0.61630154,-0.24360067,-2.2213762
0.536,2.4149532,-6.9342365,-6.2829647,-0.645102,-0.2746303,-2.2769604
0.538,2.6071796,-7.2512655,-6.2626505,-0.6567951,-0.28277415,-2.3236473
0.54,2.8144531,-7.5753326,-6.2561502,-0.6520052,-0.26996833,-2.3624225
0.542,3.0289156,-7.8984694,-6.2647448,-0.6317959,-0.23806888,-2.3935466
0.544,3.2377772,-8.210419,-6.283928,-0.5974666,-0.18874025,-2.4170024
0.546,3.4338999,-8.504627,-6.3133683,-0.55038345,-0.123800874,-2.4328666
0.548,3.6205761,-8.780973,-6.3555236,-0.49199218,-0.045556545,-2.4413688
0.55,3.8024392,-9.041063,-6.4035883,-0.4239734,0.043005228,-2.442982
0.552,3.9692717,-9.278048,-6.4484777,-0.34828627,0.1381622,-2.4384897
0.554,4.10891,-9.482494,-6.492077,-0.26719663,0.2356959,-2.4290066
0.556,4.221281,-9.653431,-6.533367,-0.18317714,0.33113825,-2.415904
0.558,4.314388,-9.794769,-6.559416,-0.09880038,0.42004833,-2.4005969
0.56,4.3937798,-9.906613,-6.5589495,-0.01662523,0.49827775,-2.384396
0.562,4.4593797,-9.986688,-6.5305357,0.060896643,0.56220967,-2.368498
0.564,4.510193,-10.035696,-6.472964,0.13148235,0.60899746,-2.3539298
0.566,4.5458355,-10.056717,-6.38042,0.19311583,0.63668114,-2.341518
0.568,4.5674257,-10.05295,-6.247224,0.24410966,0.64431846,-2.3317957
0.57,4.576539,-10.027225,-6.073417,0.2832254,0.63199466,-2.3249226
0.572,4.5745306,-9.982064,-5.863458,0.3098016,0.600838,-2.3206413
0.574,4.563912,-9.920476,-5.620571,0.3237677,0.55295587,-2.318291
0.576,4.546378,-9.845617,-5.3478603,0.32567403,0.49133682,-2.3167815
0.578,4.5228367,-9.7609005,-5.0488243,0.3165797,0.4196841,-2.3146787
0.58,4.4947076,-9.670646,-4.725684,0.29798013,0.3421734,-2.3103364
0.582,4.463767,-9.579487,-4.380272,0.27166203,0.26312438,-2.3020585
0.584,4.43183,-9.491926,-4.015662,0.23956601,0.18674475,-2.288314
0.586,4.400421,-9.411516,-3.6370864,0.20365453,0.11687398,-2.2679155
0.588,4.3698955,-9.340463,-3.251402,0.1658192,0.05678588,-2.2401025
0.59,4.3395324,-9.280006,-2.8673015,0.12781164,0.00911063,-2.2046318
0.592,4.307751,-9.230615,-2.4944172,0.09122433,-0.024199903,-2.1618032
0.594,4.2726717,-9.192476,-2.142393,0.05744507,-0.04187596,-2.112452
0.596,4.232457,-9.165885,-1.8200946,0.027653402,-0.043271124,-2.0578303
0.598,4.1858835,-9.151015,-1.5349222,0.0027710088,-0.02836126,-1.9994285
0.6,4.131437,-9.148119,-1.2925639,-0.016537042,0.0023056269,-1.9387944
0.602,4.0680103,-9.157424,-1.0970681,-0.029898621,0.047583938,-1.8774203
0.604,3.995055,-9.178993,-0.95113254,-0.037240505,0.1057699,-1.8165746
0.606,3.912253,-9.212693,-0.8561295,-0.03883657,0.1746591,-1.7572372
0.608,3.8199725,-9.258422,-0.8122337,-0.035288367,0.25153422,-1.7000854
0.61,3.7190845,-9.3159275,-0.8184967,-0.027539656,0.3331607,-1.6454415
0.612,3.6107683,-9.385055,-0.87317014,-0.01681716,0.41589412,-1.5932717
0.614,3.496651,-9.465909,-0.97279453,-0.004567357,0.49585643,-1.543306
0.616,3.377712,-9.558884,-1.1125586,0.007667404,0.56915534,-1.4951371
0.618,3.2564712,-9.664201,-1.2875731,0.018391794,0.6321149,-1.4484415
0.62,3.1345165,-9.781647,-1.4909387,0.026274934,0.6816086,-1.403093
0.622,3.0143871,-9.9114275,-1.7166431,0.03031486,0.7153173,-1.3592199
0.624,2.8972569,-10.053577,-1.9581167,0.030005816,0.7319887,-1.3172337
0.626,2.7848952,-10.208146,-2.2088063,0.025368547,0.7315874,-1.277771
0.628,2.6780577,-10.374205,-2.4620023,0.017011257,0.7153497,-1.2416129
0.63,2.5767074,-10.550304,-2.7115037,0.006060636,0.6856651,-1.2095442
0.632,2.4827716,-10.736003,-2.9512537,-0.0059134583,0.64581776,-1.1822653
0.634,2.3982787,-10.930727,-3.1761851,-0.017041404,0.5996592,-1.1603166
0.636,2.3244433,-11.133515,-3.3813798,-0.025323303,0.5512237,-1.1440262
0.638,2.2616174,-11.343259,-3.563367,-0.028822001,0.5043409,-1.1335105
0.64,2.2091146,-11.558978,-3.7198763,-0.025803685,0.46236825,-1.1287576
0.642,2.1653798,-11.779457,-3.8501337,-0.014856668,0.4280038,-1.129745
0.644,2.1279979,-12.0025015,-3.9547946,0.005025277,0.403185,-1.1364836
0.646,2.0942645,-12.225215,-4.03491,0.034474928,0.38914952,-1.1490483
0.648,2.061823,-12.44437,-4.0925627,0.07378032,0.38652763,-1.1675413
0.65,2.0289824,-12.657025,-4.1302037,0.12295297,0.39550963,-1.192117
0.652,1.9935353,-12.860035,-4.151182,0.18179995,0.41602936,-1.2229123
0.654,1.9528191,-13.050511,-4.1592326,0.249984,0.44779143,-1.2599019
0.656,1.9042544,-13.225559,-4.158404,0.327065,0.4903235,-1.3027936
0.658,1.8452792,-13.381955,-4.1533384,0.4124868,0.5429718,-1.3509806
0.66,1.773729,-13.516696,-4.148199,0.50555307,0.6047305,-1.403524
0.662,1.6879196,-13.627204,-4.1448584,0.6053464,0.6740681,-1.4591146
0.664,1.5877719,-13.711622,-4.1445384,0.710647,0.74879444,-1.5160953
0.666,1.4720503,-13.768219,-4.1477737,0.8198749,0.8259706,-1.5725396
0.668,1.340982,-13.796325,-4.154344,0.93112826,0.9019872,-1.6264476
0.67,1.1955723,-13.796396,-4.163449,1.0421467,0.9725656,-1.6758848
0.672,1.0373638,-13.769394,-4.173681,1.1504108,1.0329564,-1.7189724
0.674,0.8686197,-13.716692,-4.1830673,1.2532814,1.0782046,-1.7540312
0.676,0.69169164,-13.640078,-4.188773,1.3481086,1.1035519,-1.7798097
0.678,0.5090977,-13.541731,-4.1872067,1.4324023,1.1048177,-1.7955779
0.68,0.32298076,-13.424033,-4.1742897,1.5040629,1.0788026,-1.8011671
0.682,0.13621163,-13.289402,-4.145995,1.5614524,1.0235567,-1.7968804
0.684,-0.049345374,-13.140365,-4.098592,1.6035254,0.9385553,-1.7833536
0.686,-0.2326585,-12.978936,-4.0283837,1.6299133,0.82494897,-1.7613617
0.688,-0.41336858,-12.807127,-3.9325576,1.6409322,0.6856095,-1.7317257
0.69,-0.59097564,-12.6264105,-3.808464,1.6375197,0.52483976,-1.6952293
0.692,-0.7637838,-12.438801,-3.6552498,1.6211525,0.34808245,-1.652608
0.694,-0.93080544,-12.245673,-3.472321,1.5937415,0.16159856,-1.6045244
0.696,-1.0915962,-12.047926,-3.2574992,1.5574013,-0.028029382,-1.5517073
0.698,-1.2470609,-11.846353,-3.0080714,1.5143204,-0.2142722,-1.4950899
0.7,-1.3994279,-11.640628,-2.7236881,1.4666213,-0.39108407,-1.4358135
0.702,-1.5504661,-11.430978,-2.4069486,1.4162648,-0.55322987,-1.3752482
0.704,-1.7004386,-11.217576,-2.0597818,1.3648863,-0.69655687,-1.3149582
0.706,-1.8512168,-10.9998665,-1.6861529,1.3137735,-0.81814504,-1.25667
0.708,-2.0043583,-10.777116,-1.2913513,1.2637587,-0.91631544,-1.202198
0.71,-2.1601238,-10.548859,-0.87930167,1.2152244,-0.99061865,-1.1532824
0.712,-2.3191338,-10.314796,-0.45396268,1.1681759,-1.0417328,-1.1114457
0.714,-2.4817033,-10.075023,-0.019431591,1.1222409,-1.0712806,-1.0778573
0.716,-2.6467867,-9.830247,0.42010474,1.0767984,-1.0816143,-1.0532988
0.718,-2.8123963,-9.581249,0.8603976,1.0311078,-1.0756176,-1.0381225
0.72,-2.9747186,-9.33014,1.2985086,0.9843411,-1.0565434,-1.0322098
0.722,-3.1357832,-9.07781,1.7317041,0.9356673,-1.0278562,-1.0348917
0.724,-3.2929635,-8.82599,2.1569815,0.8843151,-0.99307317,-1.045153
0.726,-3.4409802,-8.576337,2.5713549,0.8296248,-0.955526,-1.0618831
0.728,-3.5786774,-8.329393,2.9731603,0.7710422,-0.9181231,-1.0838342
0.73,-3.7019207,-8.087681,3.3604276,0.70814914,-0.8833461,-1.109612
0.732,-3.8072724,-7.854061,3.7327032,0.6406461,-0.8531983,-1.1378548
0.734,-3.8917222,-7.6309667,4.0882807,0.56838703,-0.82905424,-1.1672887
0.736,-3.9514523,-7.420454,4.4265614,0.49144644,-0.81150067,-1.1967497
0.738,-3.9833798,-7.2250023,4.745985,0.41,-0.800442,-1.2252823
0.74,-3.9841795,-7.0462713,5.0459323,0.32426488,-0.79530096,-1.2522485
0.742,-3.9525661,-6.8842225,5.3252,0.23448773,-0.7951412,-1.2772418
0.744,-3.8885562,-6.737854,5.5833488,0.14092718,-0.7986444,-1.3000336
0.746,-3.7921026,-6.606134,5.8197584,0.04380673,-0.80435115,-1.320536
0.748,-3.6621249,-6.4882097,6.0345383,-0.056750193,-0.8108288,-1.3387946
0.75,-3.497301,-6.3828263,6.2277613,-0.16066064,-0.8167968,-1.3548633
0.752,-3.2965546,-6.288784,6.399544,-0.2678749,-0.8215131,-1.3689308
0.754,-3.0591576,-6.205065,6.550071,-0.3783334,-0.8244915,-1.3810769
0.756,-2.7849026,-6.130314,6.679505,-0.4921875,-0.825835,-1.391131
0.758,-2.475067,-6.062523,6.7886534,-0.60968494,-0.8262602,-1.3989409
0.76,-2.131711,-5.9987955,6.878489,-0.7309724,-0.8268087,-1.4044074
0.762,-1.7564597,-5.93596,6.9505653,-0.8561835,-0.82882917,-1.4072375
0.764,-1.3508421,-5.870432,7.006856,-0.9854799,-0.83396184,-1.4069358
0.766,-0.91647094,-5.7987804,7.0495954,-1.1190122,-0.8438802,-1.4029559
0.768,-0.45542538,-5.717629,7.0816207,-1.2568519,-0.8600534,-1.3946885
0.77,0.02986753,-5.623396,7.106056,-1.39906,-0.88371724,-1.3814881
0.772,0.5369167,-5.512336,7.12515,-1.5457112,-0.91577536,-1.3627741
0.774,1.0617714,-5.3801584,7.141961,-1.6968645,-0.95683634,-1.3380393
0.776,1.6021557,-5.223069,7.160201,-1.852612,-1.0071292,-1.306863
0.778,2.154426,-5.0369396,7.183865,-2.0130353,-1.066479,-1.268905
0.78,2.7148218,-4.817588,7.2176113,-2.178273,-1.1345127,-1.2239739
0.782,3.2796075,-4.5612154,7.2662706,-2.3484867,-1.2106544,-1.1721189
0.784,3.8448167,-4.2650185,7.3344417,-2.5238256,-1.2939444,-1.1136094
0.786,4.4064894,-3.9263468,7.4259396,-2.704405,-1.38301,-1.0489233
0.788,4.960287,-3.542897,7.5438643,-2.890303,-1.476126,-0.9787704
0.79,5.502483,-3.112939,7.6903853,-3.0814717,-1.5711937,-0.9041307
0.792,6.0284343,-2.635201,7.8668704,-3.277649,-1.6656904,-0.82617813
0.794,6.534233,-2.1086245,8.073611,-3.4783478,-1.7567561,-0.74617577
0.796,7.016073,-1.5329264,8.309846,-3.682894,-1.841255,-0.6655193
0.798,7.47075,-0.90860724,8.574278,-3.8904343,-1.9159622,-0.5857093
0.8,7.8952007,-0.23681957,8.86482,-4.09998,-1.97772,-0.5082854
0.802,8.28544,0.48107064,9.1797495,-4.310438,-2.0235407,-0.43477583
0.804,8.63859,1.2423401,9.515959,-4.520678,-2.0506628,-0.3666103
0.806,8.952727,2.0433176,9.867723,-4.729629,-2.0565448,-0.30498818
0.808,9.227287,2.8800561,10.227612,-4.9363,-2.039291,-0.25109646
0.81,9.462712,3.7479377,10.589391,-5.13961,-1.9973369,-0.20595476
0.812,9.65836,4.643013,10.94795,-5.338539,-1.9295568,-0.17003836
0.814,9.81308,5.5612965,11.295819,-5.5323195,-1.8355463,-0.14343035
0.816,9.927785,6.497867,11.6265545,-5.7202845,-1.7154782,-0.12606646
0.818,10.00339,7.4477987,11.934271,-5.901854,-1.5700405,-0.117697015
0.82,10.040377,8.406296,12.211554,-6.0766234,-1.4006152,-0.117788516
0.822,10.041208,9.368369,12.451574,-6.2443748,-1.2092198,-0.12563547
0.824,10.008195,10.329366,12.648706,-6.4050245,-0.99835527,-0.14046213
0.826,9.943551,11.284947,12.797894,-6.558617,-0.77094996,-0.16148576
0.828,9.849557,12.2305565,12.895387,-6.705323,-0.5301992,-0.18800333
0.83,9.727326,13.162799,12.937467,-6.8453865,-0.27954316,-0.21944529
0.832,9.583587,14.077037,12.922226,-6.9791455,-0.022451043,-0.25540495
0.834,9.419905,14.969558,12.8492565,-7.1069684,0.23768604,-0.29556262
0.836,9.237164,15.836514,12.719048,-7.229255,0.49761033,-0.33971095
0.838,9.039629,16.673868,12.532441,-7.346407,0.7542465,-0.38771296
0.84,8.829605,17.47952,12.290417,-7.4588013,1.0047824,-0.4394362
0.842,8.609006,18.252186,11.995289,-7.5667863,1.2466938,-0.49475884
0.844,8.38032,18.99014,11.650915,-7.670717,1.4777946,-0.55355144
0.846,8.144884,19.691502,11.260424,-7.7708817,1.6963735,-0.61567044
0.848,7.904632,20.35498,10.829086,-7.8675175,1.9011822,-0.6809797
0.85,7.660785,20.979372,10.362111,-7.960805,2.0914488,-0.7493304
0.852,7.4149127,21.56368,9.864334,-8.050834,2.2669325,-0.8205346
0.854,7.169777,22.10678,9.340429,-8.137618,2.4278681,-0.8943751
0.856,6.927533,22.608053,8.79516,-8.221104,2.5748386,-0.9706087
0.858,6.6888514,23.067947,8.233612,-8.301167,2.7087266,-1.0489793
0.86,6.454109,23.487316,7.660898,-8.377653,2.8305795,-1.1292138
0.862,6.2236185,23.867216,7.0817566,-8.450408,2.9415298,-1.2110138
0.864,5.997923,24.208893,6.5003514,-8.519281,3.0426302,-1.2941458
0.866,5.7769227,24.513567,5.920002,-8.584154,3.1347578,-1.3783925
0.868,5.5607724,24.782427,5.34321,-8.6449175,3.2186348,-1.4636114
0.87,5.3492026,25.016855,4.771681,-8.70145,3.2947998,-1.5497499
0.872,5.1416645,25.218458,4.207328,-8.753611,3.3636699,-1.6368186
0.874,4.9373655,25.388786,3.6519928,-8.80122,3.425554,-1.724855
0.876,4.735066,25.529644,3.1073246,-8.844098,3.4806657,-1.8139396
0.878,4.533426,25.6427,2.5747461,-8.882055,3.5291855,-1.9041781
0.88,4.331207,25.72921,2.0552626,-8.914938,3.5712929,-1.9956312
0.882,4.12681,25.790562,1.5493498,-8.942669,3.6071587,-2.08833
0.884,3.9191155,25.827887,1.0573149,-8.965255,3.636919,-2.1823118
0.886,3.7066736,25.842695,0.57923126,-8.982782,3.6607203,-2.2775826
0.888,3.4880729,25.836319,0.11498356,-8.995499,3.678757,-2.3741488
0.89,3.2618608,25.810146,-0.3355236,-9.003756,3.691266,-2.4719641
0.892,3.0269809,25.765268,-0.7724161,-9.008057,3.6985674,-2.570905
0.894,2.78255,25.703032,-1.1957278,-9.008976,3.701128,-2.6707554
0.896,2.5278609,25.624676,-1.6051726,-9.007111,3.6995835,-2.7712243
0.898,2.262604,25.531517,-2.0005383,-9.00303,3.694693,-2.8719606
0.9,1.9869027,25.424854,-2.3818517,-8.997248,3.687286,-2.9725385
0.902,1.7000601,25.306984,-2.7475863,-8.990184,3.6782615,-3.0725179
0.904,1.4045644,25.178684,-3.0982122,-8.982157,3.66855,-3.1715074
0.906,1.101023,25.041954,-3.4333172,-8.973385,3.659078,-3.2691708
0.908,0.79103637,24.898748,-3.7528143,-8.963974,3.6507487,-3.365247
0.91,0.47650957,24.751156,-4.057439,-8.953967,3.6444147,-3.4595613
0.912,0.15990543,24.60136,-4.3480577,-8.943306,3.6408613,-3.552003
0.914,-0.15673697,24.451777,-4.626645,-8.931877,3.6408482,-3.6425402
0.916,-0.4707018,24.303913,-4.894589,-8.919556,3.645039,-3.7311954
0.918,-0.7792473,24.159119,-5.1531954,-8.906158,3.654075,-3.8180299
0.92,-1.0796959,24.019537,-5.4017367,-8.89144,3.6686454,-3.9031706
0.922,-1.3695049,23.886477,-5.6409855,-8.875088,3.6894255,-3.9867673
0.924,-1.6462159,23.760504,-5.8717184,-8.85674,3.7170553,-4.069001
0.926,-1.9072789,23.642334,-6.095166,-8.835996,3.7521224,-4.150095
0.928,-2.1506324,23.532667,-6.3138375,-8.812372,3.7951648,-4.230353
0.93,-2.3744943,23.431755,-6.5301123,-8.785322,3.8465939,-4.3101454
0.932,-2.5785427,23.339882,-6.745229,-8.7542305,3.90665,-4.389923
0.934,-2.7624102,23.256815,-6.9609814,-8.718436,3.9753447,-4.4701934
0.936,-2.9266398,23.182371,-7.178878,-8.677298,4.0523877,-4.5515165
0.938,-3.0721889,23.1162,-7.401208,-8.630175,4.137288,-4.634367
0.94,-3.1998992,23.057423,-7.6300163,-8.576477,4.2292776,-4.719158
0.942,-3.3112803,23.0051,-7.867072,-8.5156975,4.327336,-4.80623
0.944,-3.4083328,22.958467,-8.113871,-8.447427,4.430265,-4.8957872
0.946,-3.4932282,22.916555,-8.371147,-8.371373,4.536719,-4.987876
0.948,-3.5682552,22.87794,-8.639426,-8.2874,4.6453457,-5.082368
0.95,-3.636061,22.841547,-8.919289,-8.195475,4.7548337,-5.179056
0.952,-3.6989715,22.806301,-9.212043,-8.095704,4.8640027,-5.277626
0.954,-3.7586594,22.771189,-9.518835,-7.9883695,4.9717593,-5.3776655
0.956,-3.8174787,22.73556,-9.840824,-7.8738165,5.077085,-5.4787116
0.958,-3.8769016,22.698498,-10.179786,-7.75247,5.179096,-5.580295
0.96,-3.9379525,22.658941,-10.536564,-7.624822,5.2769985,-5.6819954
0.962,-4.001577,22.616009,-10.910896,-7.4914036,5.3701835,-5.7834134
0.964,-4.0682783,22.568933,-11.302679,-7.352778,5.4581933,-5.884124
0.966,-4.1379,22.516956,-11.712216,-7.20956,5.54072,-5.983689
0.968,-4.208957,22.459356,-12.139315,-7.0623603,5.617584,-6.081659
0.97,-4.2807055,22.395708,-12.584187,-6.911729,5.6886787,-6.1775765
0.972,-4.3519483,22.3257,-13.046149,-6.7581763,5.7539234,-6.270932
0.974,-4.421031,22.248281,-13.524511,-6.602194,5.8130813,-6.3612437
0.976,-4.486203,22.16287,-14.018835,-6.444215,5.8657503,-6.4481034
0.978,-4.5456715,22.06961,-14.528439,-6.2846303,5.911347,-6.5311933
0.98,-4.597494,21.968445,-15.05222,-6.1237864,5.9491034,-6.610276
0.982,-4.6397924,21.859041,-15.588573,-5.9620137,5.9780293,-6.685159
0.984,-4.6703224,21.740778,-16.135445,-5.7996035,5.9970856,-6.755703
0.986,-4.6870184,21.612875,-16.690203,-5.6368756,6.0051847,-6.821756
0.988,-4.687441,21.47477,-17.24894,-5.4741106,6.0013943,-6.8831434
0.99,-4.6710043,21.326235,-17.807722,-5.311559,5.9850507,-6.9396234
0.992,-4.636142,21.166595,-18.367035,-5.1494465,5.9556847,-6.990936
0.994,-4.580948,20.993805,-18.924892,-4.9879713,5.913069,-7.036748
0.996,-4.502886,20.80837,-19.47047,-4.8272614,5.8572216,-7.076684
0.998,-4.4026937,20.61031,-19.998499,-4.6673975,5.788333,-7.110427
1,-4.279292,20.398218,-20.505552,-4.508398,5.7066793,-7.137768
1.002,-4.131378,20.171013,-20.986938,-4.35027,5.612499,-7.1586485
1.004,-3.9578447,19.92826,-21.439514,-4.1930084,5.506029,-7.1730423
1.006,-3.7576103,19.669884,-21.860905,-4.036606,5.387406,-7.1810193
1.008,-3.5303984,19.395443,-22.24644,-3.8810248,5.2568555,-7.182759
1.01,-3.2774448,19.104576,-22.59142,-3.7262816,5.114638,-7.1784883
1.012,-2.998866,18.796745,-22.894484,-3.57233,4.9610863,-7.168448
1.014,-2.6979628,18.473045,-23.153824,-3.4191155,4.7966347,-7.1528263
1.016,-2.3754978,18.133675,-23.369257,-3.266506,4.6218443,-7.131832
1.018,-2.0337353,17.779957,-23.541384,-3.1143112,4.43738,-7.105692
1.02,-1.6751003,17.413303,-23.671398,-2.962246,4.243957,-7.07464
1.022,-1.3028803,17.035088,-23.76099,-2.8100336,4.04235,-7.0388436
1.024,-0.9199171,16.64676,-23.811893,-2.6575143,3.833183,-6.9985056
1.026,-0.5297613,16.25079,-23.827639,-2.5044925,3.6171722,-6.953892
1.028,-0.13673496,15.849618,-23.81237,-2.3508391,3.395131,-6.9051766
1.03,0.25518894,15.444958,-23.772655,-2.196609,3.167791,-6.8524656
1.032,0.64216614,15.03935,-23.714134,-2.0418477,2.9358447,-6.795841
1.034,1.0199642,14.635972,-23.642612,-1.8866148,2.700109,-6.735302
1.036,1.3841743,14.237677,-23.563732,-1.7310578,2.461545,-6.6709223
1.038,1.7311192,13.847054,-23.482227,-1.5753825,2.2212567,-6.602867
1.04,2.0576553,13.466634,-23.402744,-1.4197972,1.9805982,-6.5312223
1.042,2.361206,13.098696,-23.330587,-1.2645184,1.7410388,-6.4560337
1.044,2.639802,12.745323,-23.270422,-1.1097251,1.5039976,-6.3773746
1.046,2.892087,12.4084425,-23.226416,-0.9555874,1.2707841,-6.295316
1.048,3.1173425,12.089542,-23.201723,-0.802245,1.0425131,-6.2099576
1.05,3.3148804,11.790486,-23.19926,-0.6498382,0.8199353,-6.121501
1.052,3.4847965,11.512718,-23.221355,-0.49849856,0.6033454,-6.0301876
1.054,3.6280231,11.257264,-23.269775,-0.34831643,0.39258635,-5.9363265
1.056,3.7458763,11.025003,-23.345575,-0.19938052,0.18709064,-5.840322
1.058,3.840332,10.816605,-23.448671,-0.051835537,-0.014134884,-5.742712
1.06,3.9140224,10.632591,-23.577854,0.09410256,-0.21231246,-5.644114
1.062,3.9698668,10.473205,-23.731287,0.23814434,-0.40885544,-5.545145
1.064,4.010894,10.338486,-23.906458,0.37989002,-0.6052444,-5.446391
1.066,4.04054,10.228294,-24.100399,0.51884234,-0.8028747,-5.348419
1.068,4.0624123,10.142517,-24.309513,0.65446216,-1.0029814,-5.2517595
1.07,4.080018,10.080914,-24.530415,0.7861779,-1.2065787,-5.156878
1.072,4.0966606,10.043388,-24.759182,0.91344666,-1.4143872,-5.0641527
1.074,4.115654,10.029587,-24.99155,1.0358168,-1.626782,-4.973887
1.076,4.1402197,10.039078,-25.22275,1.1529719,-1.8438632,-4.8863544
1.078,4.1725116,10.07116,-25.448189,1.2647858,-2.065363,-4.8017287
1.08,4.215331,10.125023,-25.662998,1.3711523,-2.2909458,-4.7201166
1.082,4.2708282,10.199835,-25.863066,1.4721026,-2.5200598,-4.641651
1.084,4.3400364,10.295298,-26.043882,1.5678154,-2.7518573,-4.566429
1.086,4.4244,10.410447,-26.20103,1.6584376,-2.985352,-4.494532
1.088,4.5248613,10.544033,-26.330835,1.7441111,-3.21956,-4.4260516
1.09,4.641414,10.694857,-26.429688,1.8251083,-3.453458,-4.360976
1.092,4.773989,10.861941,-26.495287,1.9017289,-3.6860514,-4.2993035
1.094,4.9216137,11.0442295,-26.526047,1.9742646,-3.9165053,-4.241233
1.096,5.0828557,11.240813,-26.520758,2.043009,-4.144021,-4.187036
1.098,5.255631,11.450515,-26.479183,2.1082366,-4.367815,-4.136986
1.1,5.4389114,11.671974,-26.400791,2.170216,-4.58721,-4.0913973
1.102,5.6300597,11.903921,-26.281857,2.2291963,-4.8016553,-4.050621
1.104,5.8256187,12.146072,-26.122566,2.2854257,-5.010645,-4.014973
1.106,6.0218487,12.395271,-25.930775,2.3391032,-5.213696,-3.984792
1.108,6.217624,12.649717,-25.70747,2.3903685,-5.410358,-3.960399
1.11,6.4091988,12.909008,-25.452496,2.4393394,-5.600176,-3.9420679
1.112,6.5925984,13.172516,-25.167984,2.4861088,-5.7826557,-3.9300318
1.114,6.764321,13.438803,-24.855598,2.5307617,-5.957264,-3.924495
1.116,6.920876,13.706314,-24.517391,2.5733392,-6.123353,-3.9256134
1.118,7.05991,13.974085,-24.15793,2.6138544,-6.280222,-3.9335139
1.12,7.1795278,14.241396,-23.781487,2.6522927,-6.4271116,-3.948308
1.122,7.2777243,14.507124,-23.390663,2.6886463,-6.5632,-3.9700832
1.124,7.3524737,14.770445,-22.98754,2.7229033,-6.687636,-3.9989305
1.126,7.402053,15.030493,-22.574707,2.7550397,-6.79953,-4.034959
1.128,7.425167,15.286312,-22.154848,2.785016,-6.897993,-4.0782223
1.13,7.4210367,15.53714,-21.730679,2.8127782,-6.98211,-4.1287637
1.132,7.3897967,15.7825985,-21.305267,2.8382878,-7.050955,-4.186594
1.134,7.3318996,16.022388,-20.880823,2.8614933,-7.103651,-4.2516656
1.136,7.2479763,16.256382,-20.459284,2.8823538,-7.1393757,-4.3238277
1.138,7.139947,16.484346,-20.042362,2.900823,-7.1573744,-4.4028482
1.14,7.009666,16.705708,-19.631304,2.9168632,-7.156974,-4.488434
1.142,6.8595963,16.920317,-19.22725,2.9304135,-7.137638,-4.5802364
1.144,6.6925697,17.12771,-18.83098,2.9414222,-7.0989695,-4.6779356
1.146,6.511758,17.327707,-18.443024,2.9498482,-7.0407076,-4.781209
1.148,6.320676,17.52014,-18.063805,2.9556644,-6.9627085,-4.889795
1.15,6.122853,17.704998,-17.693386,2.9588351,-6.864995,-5.0035243
1.152,5.922076,17.882223,-17.331717,2.9593382,-6.7477274,-5.122319
1.154,5.722136,18.051865,-16.978445,2.9571545,-6.6111784,-5.246174
1.156,5.527068,18.213781,-16.633472,2.952207,-6.455744,-5.375145
1.158,5.341103,18.367771,-16.296375,2.9444036,-6.281891,-5.5093145
1.16,5.168528,18.513617,-15.966732,2.933636,-6.090091,-5.648731
1.162,5.0136747,18.65114,-15.64423,2.9198112,-5.880782,-5.793412
1.164,4.8806314,18.780182,-15.32859,2.902869,-5.654325,-5.9433146
1.166,4.7734632,18.900724,-15.019951,2.8827872,-5.410965,-6.0982647
1.168,4.6959543,19.012981,-14.718672,2.8595593,-5.1508837,-6.2580185
1.17,4.652075,19.117167,-14.425403,2.8332472,-4.8741946,-6.4222674
1.172,4.645278,19.213444,-14.1405735,2.8039966,-4.580918,-6.5906324
1.174,4.6786084,19.302406,-13.865137,2.7720242,-4.2710586,-6.762699
1.176,4.7552247,19.384762,-13.5996065,2.7376025,-3.944663,-6.9380474
1.178,4.8771787,19.461672,-13.345545,2.701067,-3.6018493,-7.116292
1.18,5.0468874,19.534317,-13.103246,2.6628196,-3.2428436,-7.2970867
1.182,5.266415,19.603779,-12.874497,2.6232603,-2.8680582,-7.4801645
1.184,5.5369444,19.67161,-12.66036,2.5828102,-2.4780943,-7.665279
1.186,5.8596573,19.73983,-12.461257,2.5418699,-2.0737793,-7.8522043
1.188,6.2353086,19.811035,-12.278237,2.5008135,-1.6561732,-8.040747
1.19,6.6644554,19.887703,-12.112067,2.459959,-1.2265179,-8.230774
1.192,7.147207,19.972595,-11.963964,2.41959,-0.78622603,-8.422123
1.194,7.683952,20.068535,-11.835535,2.3799438,-0.3368199,-8.6146145
1.196,8.274256,20.17879,-11.728095,2.3412442,0.120149374,-8.808081
1.198,8.917648,20.306625,-11.642997,2.3036728,0.58316827,-9.002305
1.2,9.613495,20.455526,-11.581705,2.2673814,1.0509157,-9.197105
1.202,10.360363,20.629272,-11.545261,2.2325082,1.5222654,-9.3922825
1.204,11.157085,20.831545,-11.534961,2.1991966,1.9962654,-9.587618
1.206,12.002022,21.0657,-11.5515995,2.1675718,2.4722943,-9.782826
1.208,12.8932905,21.334936,-11.595984,2.1377726,2.9499245,-9.977556
1.21,13.8282795,21.64235,-11.66852,2.1099432,3.4290562,-10.171347
1.212,14.804066,21.990955,-11.769533,2.0842793,3.9099364,-10.363608
1.214,15.817179,22.383427,-11.89933,2.0609717,4.392955,-10.553623
1.216,16.863873,22.822014,-12.057348,2.0402598,4.8787007,-10.740411
1.218,17.940151,23.307915,-12.242733,2.0224638,5.367917,-10.922826
1.22,19.041546,23.8421,-12.454798,2.0079541,5.8614078,-11.099577
1.222,20.163157,24.424599,-12.692283,1.9971762,6.3600616,-11.269222
1.224,21.300007,25.054937,-12.953621,1.9906106,6.8647904,-11.430239
1.226,22.447062,25.731949,-13.2368355,1.9887853,7.3765388,-11.581028
1.228,23.599075,26.453941,-13.539289,1.9922547,7.896323,-11.7199545
1.23,24.751547,27.218407,-13.85799,2.001636,8.425256,-11.84539
1.232,25.899559,28.022488,-14.189269,2.01754,8.964562,-11.955675
1.234,27.039186,28.862268,-14.529091,2.0405846,9.515524,-12.04919
1.236,28.166962,29.73338,-14.872888,2.0713363,10.079358,-12.124323
1.238,29.280085,30.630598,-15.216445,2.1102781,10.65711,-12.179476
1.24,30.376606,31.548502,-15.555088,2.1578012,11.249561,-12.213169
1.242,31.455711,32.481014,-15.884352,2.214129,11.85698,-12.224049
1.244,32.5171,33.42192,-16.200426,2.2792687,12.478943,-12.210942
1.246,33.562817,34.3642,-16.496862,2.3529706,13.114302,-12.172923
1.248,34.594627,35.302006,-16.770557,2.434678,13.761203,-12.109343
1.25,35.616272,36.228905,-17.016468,2.5235662,14.41712,-12.019886
1.252,36.632423,37.137924,-17.230324,2.6185207,15.07897,-11.904591
1.254,37.64915,38.022118,-17.408752,2.7181697,15.743363,-11.763823
1.256,38.673286,38.87496,-17.54862,2.820946,16.406773,-11.598284
1.258,39.711426,39.690643,-17.647785,2.925136,17.065746,-11.408905
1.26,40.771317,40.463646,-17.705158,3.0290058,17.716976,-11.196863
1.262,41.86135,41.18835,-17.720716,3.1307793,18.357464,-10.963461
1.264,42.99022,41.85917,-17.69491,3.228719,18.98428,-10.710066
1.266,44.16686,42.47112,-17.628466,3.3210773,19.594696,-10.438104
1.268,45.399445,43.02027,-17.523321,3.406169,20.186192,-10.14897
1.27,46.696472,43.502766,-17.38247,3.4823472,20.756336,-9.84408
1.272,48.06458,43.91568,-17.209099,3.5479944,21.302792,-9.524763
1.274,49.510918,44.25561,-17.007057,3.6016107,21.823341,-9.192301
1.276,51.04298,44.5191,-16.781012,3.6417372,22.315874,-8.847804
1.278,52.66669,44.703598,-16.537743,3.6670516,22.77829,-8.492391
1.28,54.386677,44.806892,-16.284044,3.676348,23.208717,-8.127223
1.282,56.207016,44.827538,-16.02621,3.6685467,23.605484,-7.7533054
1.284,58.131084,44.764084,-15.770094,3.6426582,23.966927,-7.371647
1.286,60.16181,44.615265,-15.522152,3.597729,24.2915,-6.9831467
1.288,62.30308,44.380302,-15.287731,3.5328155,24.57798,-6.5886683
1.29,64.55651,44.060226,-15.073467,3.4469156,24.825356,-6.1890516
1.292,66.923096,43.657936,-14.884115,3.3388567,25.032784,-5.785081
1.294,69.4047,43.177017,-14.723602,3.207296,25.199863,-5.3773623
1.296,72.00311,42.622055,-14.59626,3.0506897,25.326694,-4.9663935
1.298,74.71918,42.00045,-14.505161,2.8672981,25.413887,-4.55264
1.3,77.55496,41.32171,-14.452518,2.6551905,25.462727,-4.136449
1.302,80.51091,40.598576,-14.439678,2.4121652,25.475052,-3.7180572
1.304,83.58653,39.84478,-14.4656105,2.1358867,25.453447,-3.297439
1.306,86.780975,39.074574,-14.531021,1.8240261,25.40135,-2.8743024
1.308,90.093704,38.305843,-14.635101,1.4742994,25.322672,-2.4480414
1.31,93.52023,37.568996,-14.780792,1.0845985,25.221695,-2.0177422
1.312,97.05742,36.905163,-14.967018,0.65313005,25.10305,-1.5820687
1.314,100.6932,36.338036,-15.185806,0.17856526,24.971693,-1.1392303
1.316,104.42415,35.880234,-15.434261,-0.3398118,24.832941,-0.68690825
1.318,108.244415,35.57686,-15.713337,-0.9020872,24.692091,-0.22235942
1.32,112.14227,35.48368,-16.015713,-1.5075934,24.553986,0.2575189
1.322,116.10713,35.64942,-16.335,-2.154819,24.423048,0.75614065
1.324,120.13162,36.118202,-16.672749,-2.8415084,24.303003,1.2771579
1.326,124.20138,36.9504,-17.03877,-3.5647366,24.196623,1.8242065
1.328,128.30319,38.20346,-17.456486,-4.320985,24.105598,2.4007528
1.33,132.42627,39.911907,-17.926788,-5.1065435,24.029882,3.009742
1.332,136.55966,42.108284,-18.425653,-5.9178324,23.967367,3.6534162
1.334,140.71365,44.794106,-18.987736,-6.751637,23.913725,4.333401
1.336,144.92055,47.97146,-19.655205,-7.6053867,23.862242,5.0506687
1.338,149.1071,51.718105,-20.462074,-8.477225,23.80337,5.8056207
1.34,153.24646,56.060337,-21.39551,-9.365118,23.725084,6.5978675
1.342,157.3493,61.070698,-22.437536,-10.268086,23.611023,7.424889
1.344,161.42245,66.781235,-23.50153,-11.188517,23.440872,8.2831135
1.346,165.459,73.145164,-24.616035,-12.12904,23.193285,9.170938
1.348,169.46083,80.1094,-25.778713,-13.092291,22.84329,10.086993
1.35,173.43887,87.61186,-26.936453,-14.082445,22.36182,11.029396
1.352,177.41418,95.586365,-28.05096,-15.104525,21.719809,11.99827
1.354,181.4214,103.97328,-29.11764,-16.1639,20.88847,12.997047
1.356,185.49463,112.679886,-30.095642,-17.26539,19.839188,14.033095
1.358,189.67354,121.59873,-30.934038,-18.412119,18.543726,15.115858
1.36,193.9524,130.64413,-31.608059,-19.60677,16.972645,16.25877
1.362,198.31984,139.71652,-32.075386,-20.84978,15.10112,17.48299
1.364,202.78036,148.69093,-32.26524,-22.136505,12.914005,18.813026
1.366,207.27058,157.43875,-32.070625,-23.457405,10.410979,20.257061
1.368,211.80185,165.66011,-31.448967,-24.799934,7.5985126,21.831638
1.37,216.47241,173.0967,-30.341883,-26.159004,4.496907,23.547146
1.372,221.2583,179.76405,-28.644457,-27.54227,1.1265602,25.396109
1.374,226.09384,185.59,-26.262047,-28.954784,-2.494276,27.352503
1.376,230.92918,190.44786,-23.12275,-30.388344,-6.335003,29.38133
1.378,235.66273,194.22552,-19.155254,-31.82861,-10.352875,31.43822
1.38,240.19447,196.84233,-14.312331,-33.265675,-14.4755,33.426662
1.382,244.41005,198.24905,-8.570923,-34.70928,-18.642595,35.254776
1.384,248.1759,198.42998,-1.9340596,-36.165245,-22.798267,36.8233
1.386,251.35002,197.40446,5.5615187,-37.620155,-26.890678,38.01421
1.388,253.7987,195.21928,13.847353,-39.040802,-30.879154,38.69834
1.39,255.40616,191.92784,22.848185,-40.364098,-34.713703,38.752705
1.392,256.05716,187.59163,32.479023,-41.49952,-38.356956,38.06165
1.394,255.63454,182.30783,42.615425,-42.330204,-41.773632,36.5294
1.396,254.05405,176.19258,53.08942,-42.718388,-44.907555,34.08722
1.398,251.26212,169.37296,63.705765,-42.515606,-47.686516,30.73649
1.4,247.23958,161.99791,74.250916,-41.57967,-50.032627,26.573103
1.402,241.99931,154.22446,84.5039,-39.802998,-51.85073,21.721498
1.404,235.58997,146.21082,94.23721,-37.130672,-53.031487,16.343489
1.406,228.09427,138.1143,103.2281,-33.568275,-53.471237,10.662128
1.408,219.62634,130.08911,111.26701,-29.190565,-53.082024,4.945835
1.41,210.3287,122.280685,118.16968,-24.137873,-51.805412,-0.5146446
1.412,200.36682,114.82258,123.78617,-18.60297,-49.62638,-5.428459
1.414,189.92238,107.83778,128.00278,-12.811346,-46.579662,-9.533576
1.416,179.18567,101.433716,130.74725,-7.001705,-42.756172,-12.624582
1.418,168.3483,95.69652,131.98871,-1.4068718,-38.30245,-14.56955
1.42,157.59978,90.680756,131.74333,3.765398,-33.412266,-15.315174
1.422,147.11539,86.414375,130.0654,8.351963,-28.296486,-14.918622
1.424,137.05756,82.92291,127.0415,12.251379,-23.168217,-13.526596
1.426,127.55429,80.21603,122.79765,15.420589,-18.218908,-11.357186
1.428,118.70969,78.25027,117.48957,17.855862,-13.612322,-8.681256
1.43,110.60425,76.96183,111.28578,19.588043,-9.486362,-5.800944
1.432,103.28711,76.28475,104.37053,20.688324,-5.940012,-3.0133111
1.434,96.77646,76.14467,96.940704,21.264675,-3.0388288,-0.5520655
1.436,91.0705,76.44409,89.19426,21.453335,-0.7789526,1.378425
1.438,86.14127,77.08635,81.32508,21.381088,0.8841095,2.647283
1.44,81.93928,77.99023,73.48576,21.154343,2.022994,3.213029
1.442,78.40012,79.06707,65.79222,20.864601,2.7341805,3.1084862
1.444,75.43303,80.24634,58.39508,20.582523,3.1158018,2.419138
1.446,72.93365,81.443115,51.41068,20.362225,3.2850027,1.275264
1.448,70.89174,82.51013,44.91007,20.238876,3.355093,-0.17063558
1.45,69.230095,83.373276,38.898438,20.228825,3.4166412,-1.7594242
1.452,67.842476,83.931854,33.370617,20.331192,3.54502,-3.3641307
1.454,66.6441,84.14789,28.264608,20.52959,3.8002806,-4.8920565
1.456,65.57537,84.05434,23.629696,20.804813,4.2104244,-6.2284293
1.458,64.577774,83.66908,19.461115,21.134789,4.771694,-7.282588
1.46,63.597466,83.0036,15.704649,21.490398,5.4588375,-8.021942
1.462,62.58587,82.0637,12.331133,21.84248,6.228406,-8.452844
1.464,61.499115,80.84636,9.341795,22.163136,7.0273094,-8.605525
1.466,60.30919,79.37845,6.698929,22.426876,7.8018575,-8.525817
1.468,58.996185,77.69032,4.369524,22.612906,8.503933,-8.26705
1.47,57.584545,75.79016,2.3474178,22.706757,9.096194,-7.883362
1.472,56.089092,73.70455,0.6102619,22.7014,9.557609,-7.424177
1.474,54.49973,71.482925,-0.8824463,22.597134,9.883765,-6.930495
1.476,52.85497,69.172134,-2.1857605,22.396875,10.079124,-6.433284
1.478,51.106323,66.94563,-3.282772,22.104328,10.153454,-5.950298
1.48,49.149357,64.87311,-4.1815968,21.7266,10.124594,-5.4868937
1.482,47.017963,62.781788,-4.9317017,21.27343,10.016048,-5.0399413
1.484,44.762962,60.65625,-5.5622616,20.75491,9.8514185,-4.600016
1.486,42.398384,58.553444,-6.082222,20.181404,9.652624,-4.153141
1.488,39.969254,56.51828,-6.508993,19.563305,9.439141,-3.6849709
1.49,37.496155,54.574417,-6.8485355,18.910336,9.226762,-3.1845765
1.492,34.999825,52.733826,-7.1046925,18.231539,9.027405,-2.6457005
1.494,32.50549,51.000626,-7.281643,17.535265,8.849562,-2.0674229
1.496,30.035278,49.373512,-7.38126,16.829044,8.698089,-1.454041
1.498,27.601013,47.85366,-7.4078407,16.119453,8.574171,-0.8138013
1.5,25.205177,46.459976,-7.389145,15.41205,8.476278,-0.15738583
1.502,22.863567,45.216335,-7.362587,14.7114105,8.401108,0.5033269
1.504,20.604576,44.124786,-7.3433666,14.021202,8.344105,1.1561751
1.506,18.439228,43.1832,-7.3262835,13.344077,8.299789,1.7896762
1.508,16.37246,42.38977,-7.3045387,12.681765,8.26243,2.3937626
1.51,14.407293,41.729927,-7.2730217,12.035173,8.226612,2.96032
1.512,12.547464,41.189796,-7.2323055,11.4047,8.187687,3.4831738
1.514,10.794618,40.758694,-7.181875,10.790517,8.142168,3.9579768
1.516,9.145373,40.427986,-7.1229067,10.192819,8.088009,4.3820696
1.518,7.5978813,40.187084,-7.058197,9.612006,8.02479,4.754225
1.52,6.146637,40.02906,-6.9943542,9.048782,7.953498,5.0745544
1.522,4.787303,39.946293,-6.942813,8.504101,7.8762608,5.344428
1.524,3.515048,39.929573,-6.914236,7.9791594,7.7961264,5.5662346
1.526,2.3234682,39.971245,-6.9157543,7.4752264,7.716673,5.7431083
1.528,1.206213,40.065926,-6.95254,6.9934626,7.641609,5.8786616
1.53,0.15694427,40.210503,-7.0292315,6.534763,7.574394,5.976776
1.532,-0.8316717,40.402977,-7.1490035,6.099472,7.517807,6.0415287
1.534,-1.7660007,40.64028,-7.312173,5.687292,7.4736967,6.0771337
1.536,-2.6522593,40.919422,-7.5173044,5.297283,7.4427986,6.0879703
1.538,-3.496789,41.23565,-7.761609,4.9278646,7.424675,6.078455
1.54,-4.3070874,41.583553,-8.042922,4.576949,7.417738,6.052903
1.542,-5.0919275,41.95742,-8.35946,4.242089,7.419445,6.015469
1.544,-5.860649,42.351467,-8.709779,3.9207132,7.42647,5.970025
1.546,-6.622018,42.759277,-9.092494,3.6103063,7.434785,5.920003
1.548,-7.3839726,43.173897,-9.505806,3.3084302,7.440045,5.8686123
1.55,-8.153851,43.589718,-9.946871,3.012951,7.4378967,5.818791
1.552,-8.93849,44.00183,-10.411909,2.7220955,7.424064,5.773053
1.554,-9.74326,44.40625,-10.896006,2.4343772,7.3942413,5.733699
1.556,-10.572237,44.799564,-11.393743,2.1485677,7.3442483,5.703133
1.558,-11.428181,45.17826,-11.899141,1.8636248,7.270148,5.6839914
1.56,-12.31209,45.538097,-12.4058275,1.5786071,7.168172,5.679047
1.562,-13.223739,45.874565,-12.907183,1.2926023,7.0345426,5.6912026
1.564,-14.161243,46.182426,-13.396519,1.0045748,6.8654604,5.7235446
1.566,-15.120989,46.45627,-13.867088,0.71330917,6.6570873,5.778912
1.568,-16.097647,46.690147,-14.312134,0.41737843,6.4055276,5.8595257
1.57,-17.08417,46.877796,-14.724763,0.11521721,6.106899,5.9667606
1.572,-18.072239,47.01313,-15.096994,-0.19475341,5.757474,6.1008363
1.574,-19.051975,47.090225,-15.4207945,-0.5139748,5.3537908,6.2605076
1.576,-20.011715,47.103527,-15.688383,-0.8435693,4.8929358,6.4429774
1.578,-20.939356,47.048264,-15.892259,-1.1841364,4.372861,6.64383
1.58,-21.822384,46.919895,-16.02417,-1.5355365,3.7926767,6.8569736
1.582,-22.64803,46.714417,-16.076223,-1.8967342,3.1529207,7.0748053
1.584,-23.403532,46.42816,-16.040802,-2.2657557,2.4557452,7.288482
1.586,-24.077364,46.05861,-15.910942,-2.6397543,1.705013,7.4884744
1.588,-24.65884,45.60429,-15.6802635,-3.0151253,0.906262,7.665181
1.59,-25.139278,45.065018,-15.3431,-3.3876743,0.06666547,7.809448
1.592,-25.511063,44.442146,-14.894953,-3.7528293,-0.80507106,7.9131584
1.594,-25.768848,43.73816,-14.332956,-4.1059074,-1.6988447,7.9698215
1.596,-25.909351,42.95684,-13.656322,-4.4423466,-2.6034315,7.9749665
1.598,-25.931557,42.10289,-12.866017,-4.7579303,-3.5066626,7.926469
1.6,-25.837114,41.182095,-11.965319,-5.0488577,-4.3955626,7.8247776
1.602,-25.629436,40.20095,-10.959521,-5.311835,-5.256715,7.6725736
1.604,-25.314405,39.1672,-9.855545,-5.5442533,-6.076574,7.4745135
1.606,-24.899742,38.089294,-8.662057,-5.7441616,-6.841656,7.236928
1.608,-24.394697,36.9761,-7.389447,-5.910106,-7.53876,6.9669714
1.61,-23.810127,35.83644,-6.05016,-6.041133,-8.155558,6.6719265
1.612,-23.157534,34.679405,-4.65806,-6.1367273,-8.681075,6.3587523
1.614,-22.448948,33.513496,-3.2286425,-6.1967316,-9.105957,6.0337133
1.616,-21.69629,32.347073,-1.7781897,-6.2212777,-9.422754,5.7019897
1.618,-20.911568,31.18755,-0.32427645,-6.21071,-9.626237,5.3674297
1.62,-20.10625,30.04181,1.1150641,-6.165597,-9.713692,5.0327945
1.622,-19.291527,28.916124,2.5219512,-6.0867815,-9.684978,4.699855
1.624,-18.478184,27.816319,3.878693,-5.9754686,-9.542619,4.369509
1.626,-17.672577,26.74604,5.1695156,-5.833257,-9.291679,4.042066
1.628,-16.882309,25.70853,6.379362,-5.662201,-8.939556,3.7174978
1.63,-16.113384,24.705238,7.4943132,-5.4648395,-8.495802,3.3956025
1.632,-15.371954,23.7384,8.5030155,-5.2442045,-7.971844,3.0762482
1.634,-14.662742,22.810173,9.396249,-5.003831,-7.380572,2.7595425
1.636,-13.988825,21.92187,10.166727,-4.747716,-6.7359033,2.445856
1.638,-13.352772,21.074234,10.809946,-4.4801445,-6.052347,2.1357622
1.64,-12.75708,20.268227,11.324118,-4.205556,-5.344462,1.8299576
1.642,-12.2023945,19.504883,11.710039,-3.928425,-4.626423,1.529175
1.644,-11.688779,18.785461,11.970289,-3.6531305,-3.9116352,1.2342162
1.646,-11.214813,18.109211,12.110016,-3.3838067,-3.2123675,0.94590074
1.648,-10.7789955,17.476093,12.135711,-3.1242313,-2.5394046,0.6650367
1.65,-10.378974,16.88573,12.055884,-2.8777037,-1.9017786,0.39237416
1.652,-10.011452,16.337471,11.880794,-2.6469908,-1.3065915,0.12862319
1.654,-9.672849,15.830627,11.621876,-2.4342928,-0.7589661,-0.12563735
1.656,-9.359413,15.364489,11.291206,-2.2412016,-0.26206446,-0.36992317
1.658,-9.067276,14.938513,10.90116,-2.0687318,0.18278798,-0.6037933
1.66,-8.792246,14.551123,10.463871,-1.9173697,0.5759385,-0.82688713
1.662,-8.529712,14.200399,9.990734,-1.7871133,0.91918606,-1.0389404
1.664,-8.275252,13.885984,9.493271,-1.6775589,1.2154655,-1.2397807
1.666,-8.024994,13.606392,8.981712,-1.5879419,1.4685329,-1.4293941
1.668,-7.7749996,13.359953,8.465804,-1.5172373,1.6826533,-1.6078811
1.67,-7.5215054,13.145153,7.9543056,-1.4642303,1.8623154,-1.7755016
1.672,-7.2608714,12.960093,7.454866,-1.4276158,2.0120041,-1.9327278
1.674,-6.9900675,12.803193,6.9741573,-1.4060338,2.1359878,-2.0801935
1.676,-6.706269,12.672535,6.5175123,-1.3981352,2.238233,-2.218679
1.678,-6.406935,12.566551,6.0890713,-1.4026194,2.322311,-2.3490493
1.68,-6.0902033,12.483681,5.69193,-1.4182813,2.391319,-2.4722478
1.682,-5.7542467,12.422226,5.3278112,-1.444006,2.4478998,-2.5892298
1.684,-5.39788,12.380581,4.9977756,-1.4787714,2.4942837,-2.7009
1.686,-5.0204678,12.357083,4.7020187,-1.5216343,2.5322905,-2.8080873
1.688,-4.621373,12.350065,4.4402733,-1.5717125,2.563392,-2.9114804
1.69,-4.200059,12.358058,4.2118034,-1.6281903,2.5887887,-3.0115983
1.692,-3.7562883,12.379501,4.015561,-1.6903167,2.6094458,-3.1087637
1.694,-3.2902663,12.413392,3.8501844,-1.7574043,2.6261802,-3.2031705
1.696,-2.8024065,12.458514,3.7142365,-1.8288156,2.6397538,-3.294897
1.698,-2.2934935,12.513983,3.6061182,-1.9039612,2.6509347,-3.3839426
1.7,-1.7645073,12.5792885,3.5242822,-1.9822733,2.660558,-3.470276
1.702,-1.2168021,12.653889,3.4673586,-2.0631847,2.6695528,-3.55387
1.704,-0.6515007,12.737589,3.4339044,-2.1461535,2.6789696,-3.6347213
1.706,-0.070130825,12.83028,3.422591,-2.2306204,2.689982,-3.7128792
1.708,0.52585554,12.932078,3.4318652,-2.3159883,2.703859,-3.788429
1.71,1.1349394,13.043262,3.4601517,-2.4015954,2.7219224,-3.8614664
1.712,1.7554444,13.164278,3.5057635,-2.4867244,2.7454848,-3.9321265
1.714,2.385848,13.295229,3.5670342,-2.570639,2.7758415,-4.000581
1.716,3.0250306,13.436453,3.6424081,-2.6525867,2.8141656,-4.0670033
1.718,3.6716685,13.588101,3.7302766,-2.731793,2.8615155,-4.1316347
1.72,4.3243656,13.750566,3.8291395,-2.8074937,2.918789,-4.194817
1.722,4.981515,13.92404,3.9373322,-2.8789754,2.986654,-4.256945
1.724,5.641931,14.108624,4.053387,-2.9455771,3.065541,-4.3184495
1.726,6.304433,14.304289,4.1756554,-3.0066867,3.1556156,-4.379805
1.728,6.96784,14.510838,4.3027954,-3.0617666,3.2568426,-4.4415226
1.73,7.6308107,14.728006,4.433355,-3.1103542,3.3689728,-4.504138
1.732,8.292285,14.955344,4.565827,-3.1520667,3.4915624,-4.568171
1.734,8.951061,15.192273,4.6986217,-3.1865525,3.6240394,-4.634091
1.736,9.606052,15.438182,4.8302975,-3.2135296,3.7657406,-4.702301
1.738,10.256266,15.692351,4.959505,-3.2327442,3.9159722,-4.7731094
1.74,10.900734,15.954027,5.0848455,-3.24397,4.074032,-4.846716
1.742,11.53854,16.222574,5.204995,-3.2469912,4.239273,-4.923201
1.744,12.168871,16.497116,5.3188696,-3.2416127,4.411095,-5.002523
1.746,12.791162,16.776814,5.4255037,-3.2276642,4.588994,-5.084504
1.748,13.405006,17.060358,5.5240784,-3.204958,4.772575,-5.1688647
1.75,14.009947,17.346512,5.613859,-3.1733384,4.961469,-5.25523
1.752,14.605464,17.63408,5.693927,-3.1326823,5.155356,-5.3431115
1.754,15.191273,17.921751,5.764003,-3.0829074,5.3539634,-5.431961
1.756,15.767499,18.207891,5.823936,-3.0240116,5.5570035,-5.521169
1.758,16.334372,18.49097,5.87349,-2.95603,5.7641687,-5.610068
1.76,16.892138,18.769108,5.912618,-2.8790565,5.975115,-5.6979814
1.762,17.441082,19.040224,5.9412565,-2.793263,6.189442,-5.7842374
1.764,17.98154,19.302292,5.9593945,-2.6988661,6.4066944,-5.8682175
1.766,18.513958,19.553114,5.96724,-2.5961049,6.6263614,-5.9494143
1.768,19.03869,19.790247,5.96502,-2.4852211,6.8478446,-6.027454
1.77,19.556057,20.011404,5.9529967,-2.3664632,7.0705214,-6.1021404
1.772,20.0663,20.214657,5.9317274,-2.240053,7.2937016,-6.1734657
1.774,20.56927,20.396881,5.90121,-2.1062226,7.516659,-6.2415867
1.776,21.065151,20.556372,5.8621473,-1.9651552,7.7386456,-6.3068347
1.778,21.553965,20.690933,5.815146,-1.8170252,7.9589124,-6.3696113
1.78,22.035128,20.798546,5.760661,-1.6620092,8.1767025,-6.4303184
1.782,22.507843,20.877506,5.6993103,-1.500306,8.391209,-6.489277
1.784,22.971415,20.9262,5.63155,-1.3321487,8.601568,-6.5466113
1.786,23.424538,20.943697,5.5580416,-1.1577984,8.806896,-6.6022553
1.788,23.865849,20.929043,5.47949,-0.97759926,9.006249,-6.6558785
1.79,24.29375,20.881853,5.396645,-0.7919438,9.19866,-6.7069592
1.792,24.706543,20.802013,5.3100376,-0.60128593,9.383106,-6.75481
1.794,25.102345,20.68989,5.220504,-0.4061129,9.5585575,-6.7986155
1.796,25.479034,20.54603,5.128706,-0.20699334,9.723969,-6.837523
1.798,25.834705,20.371572,5.035306,-0.0045161247,9.878311,-6.870722
1.8,26.167202,20.167625,4.940933,0.20067453,10.020606,-6.897493
1.802,26.474716,19.935993,4.8463564,0.40787125,10.1498995,-6.917158
1.804,26.755474,19.67836,4.7521696,0.61639285,10.265397,-6.9292417
1.806,27.008001,19.39696,4.6588454,0.82552576,10.366379,-6.933458
1.808,27.230726,19.093948,4.566828,1.0345423,10.452242,-6.9296613
1.81,27.422562,18.771847,4.476511,1.2427194,10.522511,-6.9178376
1.812,27.582586,18.432995,4.3881407,1.4493356,10.576783,-6.8980875
1.814,27.7101,18.079803,4.3020515,1.6536665,10.614803,-6.8705673
1.816,27.804703,17.714796,4.2181892,1.8550096,10.636353,-6.8355274
1.818,27.86623,17.34035,4.1368356,2.052649,10.641266,-6.793196
1.82,27.8947,16.95893,4.0579267,2.2458687,10.629452,-6.7438
1.822,27.890364,16.572702,3.9814587,2.4339504,10.600825,-6.6875687
1.824,27.853926,16.183868,3.9073362,2.6161857,10.555334,-6.62471
1.826,27.785583,15.794474,3.8354492,2.7918866,10.4929695,-6.5554295
1.828,27.686096,15.406467,3.765524,2.9604037,10.413765,-6.479927
1.83,27.556524,15.021636,3.6973968,3.1211145,10.317836,-6.39844
1.832,27.39794,14.641581,3.6307306,3.2734642,10.205381,-6.31129
1.834,27.21135,14.267857,3.565268,3.4169874,10.076704,-6.2188582
1.836,26.99796,13.901884,3.5008368,3.5513024,9.932235,-6.121618
1.838,26.758995,13.544914,3.4370828,3.6761353,9.772589,-6.0201635
1.84,26.495934,13.19807,3.373794,3.7912717,9.598495,-5.915154
1.842,26.210213,12.862276,3.3109121,3.896585,9.410792,-5.807324
1.844,25.903366,12.538429,3.248232,3.992011,9.210432,-5.697419
1.846,25.577017,12.226949,3.1857061,4.077505,8.998433,-5.5861998
1.848,25.232712,11.928514,3.1231909,4.15303,8.775855,-5.4743743
1.85,24.872314,11.643265,3.060606,4.218564,8.543791,-5.3625965
1.852,24.497536,11.371481,2.9979687,4.274067,8.303284,-5.251434
1.854,24.110264,11.1132965,2.93534,4.319521,8.05533,-5.141369
1.856,23.71215,10.868511,2.8727336,4.354904,7.800865,-5.0328226
1.858,23.305065,10.637228,2.8102655,4.380209,7.540729,-4.9260974
1.86,22.891167,10.419203,2.7481976,4.395499,7.275672,-4.8214436
1.862,22.47267,10.214007,2.6870055,4.4009023,7.006359,-4.719134
1.864,22.051714,10.0211115,2.626831,4.396618,6.73335,-4.6194186
1.866,21.63002,9.840324,2.5678444,4.3829026,6.457156,-4.5225897
1.868,21.209408,9.671135,2.51046,4.360092,6.1781964,-4.4289336
1.87,20.791893,9.513016,2.4551764,4.3285737,5.896843,-4.3387136
1.872,20.379261,9.365661,2.402588,4.2887926,5.6134396,-4.2521677
1.874,19.973272,9.228542,2.3531427,4.2412205,5.328294,-4.169504
1.876,19.575447,9.101328,2.3073535,4.1863327,5.0417447,-4.090861
1.878,19.187305,8.983579,2.2657104,4.124628,4.7541504,-4.01632
1.88,18.810146,8.874793,2.22862,4.056595,4.4658885,-3.9459262
1.882,18.445347,8.77451,2.1967106,3.9827328,4.177383,-3.8796456
1.884,18.093899,8.682157,2.170313,3.9035447,3.8890896,-3.8174052
1.886,17.756649,8.597145,2.1497908,3.8195014,3.6014745,-3.7591116
1.888,17.434168,8.51911,2.135459,3.7310987,3.3150327,-3.7046628
1.89,17.127283,8.447448,2.1278067,3.6387992,3.0302525,-3.6539633
1.892,16.83632,8.38162,2.1269865,3.543064,2.7475708,-3.606927
1.894,16.56152,8.320951,2.133265,3.4443312,2.4673877,-3.5635006
1.896,16.303192,8.264696,2.1468296,3.343007,2.1900752,-3.5236783
1.898,16.061188,8.212242,2.1677296,3.2394745,1.915942,-3.4875154
1.9,15.83564,8.162695,2.1961508,3.1340864,1.645238,-3.4551265
1.902,15.626207,8.115313,2.2321544,3.027176,1.3781537,-3.4266834
1.904,15.432604,8.06923,2.2757106,2.9190407,1.1148477,-3.4023957
1.906,15.254653,8.023714,2.326811,2.8099475,0.85545546,-3.382474
1.908,15.091763,7.9778404,2.3855484,2.700138,0.60008365,-3.3671365
1.91,14.943349,7.9307585,2.4517305,2.5898654,0.3488533,-3.356553
1.912,14.808798,7.881709,2.5253904,2.4793508,0.10189831,-3.350821
1.914,14.6874695,7.8299727,2.6062818,2.3688293,-0.14061129,-3.349931
1.916,14.578706,7.7746615,2.6943345,2.2585273,-0.37846452,-3.3537586
1.918,14.481684,7.7152033,2.7893445,2.1486745,-0.61142206,-3.3620715
1.92,14.395569,7.6508174,2.8911405,2.039516,-0.8391862,-3.3745027
1.922,14.319493,7.5811877,2.999486,1.9312907,-1.061403,-3.390585
1.924,14.252665,7.505908,3.114071,1.824241,-1.2776792,-3.4098027
1.926,14.194181,7.4247007,3.2346416,1.7186029,-1.4875865,-3.4315834
1.928,14.143313,7.33747,3.3607566,1.6145968,-1.690691,-3.4553108
1.93,14.099273,7.2442584,3.491888,1.5124443,-1.886563,-3.4804115
1.932,14.061224,7.1452,3.6275609,1.4123266,-2.0747833,-3.506325
1.934,14.028262,7.040469,3.7672713,1.314403,-2.2549527,-3.5325441
1.936,14.000021,6.93038,3.9103584,1.2188148,-2.426719,-3.558625
1.938,13.975649,6.81535,4.056251,1.1256844,-2.5897849,-3.5841658
1.94,13.954574,6.6958,4.2042174,1.035128,-2.7439141,-3.6088247
1.942,13.936443,6.5721827,4.3537188,0.9472377,-2.888939,-3.632306
1.944,13.920716,6.445183,4.503994,0.8621289,-3.0247138,-3.654368
1.946,13.907019,6.315261,4.654325,0.7799043,-3.151145,-3.6748
1.948,13.895122,6.183179,4.8041787,0.7006799,-3.2681873,-3.6934233
1.95,13.884623,6.049518,4.952853,0.6245701,-3.3758483,-3.7100835
1.952,13.875326,5.9148626,5.099633,0.5516759,-3.4741666,-3.7246585
1.954,13.867048,5.7798705,5.244087,0.48210132,-3.5632007,-3.7370443
1.956,13.859689,5.645178,5.3856225,0.41592103,-3.6430326,-3.7471747
1.958,13.85314,5.5112886,5.5238886,0.35318244,-3.713799,-3.7550125
1.96,13.847192,5.3787823,5.6583934,0.29391026,-3.7756429,-3.7605557
1.962,13.84197,5.2481976,5.7888823,0.23809773,-3.8287227,-3.763813
1.964,13.837339,5.1200657,5.914979,0.1857279,-3.8731928,-3.7648296
1.966,13.833379,4.99496,6.0364933,0.13676655,-3.9092371,-3.7636533
1.968,13.830014,4.8733344,6.153107,0.09117532,-3.9370399,-3.7603452
1.97,13.827189,4.755598,6.2647905,0.04891604,-3.9567764,-3.754962
1.972,13.824819,4.6422434,6.3714447,0.009948611,-3.9686213,-3.7475421
1.974,13.822835,4.533835,6.4729733,-0.025789976,-3.9727588,-3.7381072
1.976,13.821257,4.430549,6.5692477,-0.058379054,-3.969373,-3.726654
1.978,13.819919,4.332844,6.660322,-0.08791256,-3.958666,-3.7131612
1.98,13.818708,4.241089,6.7461867,-0.11451292,-3.9408426,-3.6976123
1.982,13.817609,4.155428,6.8267403,-0.13832086,-3.9161015,-3.6799934
1.984,13.816556,4.0760617,6.902075,-0.15950221,-3.8846633,-3.6602936
1.986,13.815412,4.0029874,6.972172,-0.17822546,-3.846771,-3.6385427
1.988,13.8141,3.9360447,7.0370417,-0.19467175,-3.8026624,-3.6148038
1.99,13.812597,3.8753421,7.0967426,-0.20900387,-3.7525864,-3.5892076
1.992,13.810665,3.820619,7.1511974,-0.22137439,-3.6967936,-3.561936
1.994,13.808326,3.7716205,7.200481,-0.23190498,-3.6355367,-3.5332053
1.996,13.805353,3.7280664,7.244644,-0.24068236,-3.5690758,-3.5032845
1.998,13.801741,3.6894922,7.2836924,-0.24775976,-3.4976707,-3.472476
2,13.797218,3.655558,7.317663,-0.25314778,-3.421579,-3.4410868
2.002,13.791744,3.625678,7.346692,-0.2568305,-3.3410387,-3.4094129
2.004,13.785286,3.5994534,7.370847,-0.25876698,-3.2562869,-3.3777242
2.006,13.777621,3.5763059,7.3902216,-0.2589209,-3.1675546,-3.3462124
2.008,13.768798,3.5555995,7.404925,-0.25725773,-3.0750659,-3.3150249
2.01,13.758468,3.5369523,7.4149294,-0.25377065,-2.979058,-3.2842088
2.012,13.746656,3.5196445,7.420388,-0.24846312,-2.8797529,-3.2537365
2.014,13.7332535,3.5031922,7.421377,-0.24138317,-2.777367,-3.2235172
2.016,13.718124,3.4870725,7.4179907,-0.23260328,-2.672142,-3.1933987
2.018,13.701251,3.4707787,7.4102497,-0.22224635,-2.5643396,-3.1631968
2.02,13.682586,3.4539368,7.398406,-0.21043074,-2.4542296,-3.1327116
2.022,13.66219,3.4359832,7.382426,-0.19730163,-2.3421006,-3.1017504
2.024,13.639901,3.4166832,7.3624625,-0.18302223,-2.2282681,-3.070153
2.026,13.61574,3.3957448,7.3387,-0.167743,-2.113061,-3.037809
2.028,13.589815,3.3728254,7.3111835,-0.15160686,-1.9968412,-3.0046785
2.03,13.562198,3.3478754,7.2800446,-0.1347547,-1.8799461,-2.9707613
2.032,13.533013,3.3206706,7.245408,-0.11731366,-1.7627188,-2.9361148
2.034,13.502319,3.2911782,7.2074175,-0.09940818,-1.6454986,-2.900832
2.036,13.470276,3.2592661,7.1662817,-0.08114735,-1.5286201,-2.8650465
2.038,13.436972,3.2249005,7.122057,-0.06263287,-1.4123898,-2.8289003
2.04,13.402622,3.1880813,7.075161,-0.043974888,-1.2970893,-2.7925267
2.042,13.367352,3.148962,7.0256495,-0.025245544,-1.1829822,-2.7560325
2.044,13.331314,3.1077414,6.9737816,-0.006527826,-1.0702938,-2.7195098
2.046,13.294571,3.0644693,6.919794,0.012134548,-0.95923245,-2.6830235
2.048,13.257429,3.019356,6.8639956,0.030688839,-0.8499547,-2.6466248
2.05,13.220022,2.972634,6.8066177,0.049106743,-0.7425958,-2.610339
2.052,13.182384,2.9245954,6.74793,0.06736005,-0.6372605,-2.574172
2.054,13.144809,2.8755376,6.6883416,0.08543202,-0.53402746,-2.5381308
2.056,13.107265,2.825881,6.628085,0.10330173,-0.43298155,-2.502227
2.058,13.0699,2.775941,6.5674725,0.120932795,-0.33417988,-2.4664524
2.06,13.032916,2.7261238,6.506783,0.13829619,-0.23770112,-2.43082
2.062,12.996438,2.676846,6.446371,0.15533155,-0.1436367,-2.39533
2.064,12.960456,2.6284146,6.3864536,0.17197622,-0.05207777,-2.3599741
2.066,12.92499,2.5813065,6.3272686,0.18815467,0.03685367,-2.3247485
2.068,12.89027,2.535905,6.26903,0.20377618,0.12302241,-2.2896378
2.07,12.856375,2.4925103,6.212081,0.2187694,0.20631951,-2.2546496
2.072,12.823166,2.4513254,6.156519,0.23307222,0.2866379,-2.2198017
2.074,12.790762,2.4126725,6.1026206,0.2466292,0.3638928,-2.18514
2.076,12.759177,2.3767343,6.050516,0.25942737,0.43800622,-2.1507409
2.078,12.728421,2.3436291,6.0004888,0.27146262,0.5089324,-2.1166852
2.08,12.698514,2.3134522,5.9525423,0.28273833,0.5766388,-2.0830781
2.082,12.669565,2.2862687,5.906951,0.29327303,0.64114004,-2.0500188
2.084,12.641289,2.262075,5.863928,0.30310383,0.7024493,-2.01762
2.086,12.613766,2.2409034,5.823642,0.3122661,0.76060504,-1.9859902
2.088,12.587118,2.222591,5.786214,0.3208036,0.8156793,-1.9552026
2.09,12.56111,2.2070644,5.7517304,0.32877317,0.86775625,-1.9253107
2.092,12.535767,2.1942465,5.7203083,0.33622387,0.91692865,-1.8963366
2.094,12.510906,2.1840615,5.6921086,0.34321734,0.96330905,-1.8682928
2.096,12.486537,2.1763864,5.667167,0.34979817,1.0070337,-1.8411552
2.098,12.462516,2.1712909,5.6456757,0.35601944,1.0482395,-1.8148665
2.1,12.438661,2.1685023,5.627553,0.36192015,1.087079,-1.7893475
2.102,12.414933,2.167962,5.6129403,0.367532,1.123695,-1.7645111
2.104,12.391298,2.1695733,5.601671,0.37287778,1.1582539,-1.7402574
2.106,12.367526,2.173347,5.5937443,0.3779717,1.1909096,-1.7164799
2.108,12.343419,2.1790178,5.5892525,0.3828285,1.221834,-1.6930854
2.11,12.318969,2.186477,5.588034,0.38746253,1.2512065,-1.6699835
2.112,12.29411,2.1956534,5.589951,0.39189017,1.2791812,-1.6471301
2.114,12.268493,2.2063642,5.594872,0.39613578,1.3059281,-1.6244764
2.116,12.242377,2.218357,5.6026053,0.40024883,1.3316042,-1.602006
2.118,12.215468,2.2316055,5.612912,0.4042891,1.3563685,-1.5797293
2.12,12.187807,2.2458613,5.6256437,0.40833655,1.3803761,-1.557666
2.122,12.1593685,2.2610939,5.6406136,0.41248438,1.4037433,-1.5358381
2.124,12.130192,2.2770681,5.6575055,0.41683114,1.4265823,-1.5142503
2.126,12.100276,2.2936487,5.6761403,0.42146558,1.4489849,-1.4929082
2.128,12.06966,2.3106613,5.6962996,0.4264607,1.4710319,-1.4717908
2.13,12.0384445,2.3279834,5.7176194,0.4318698,1.4927862,-1.4508531
2.132,12.006665,2.3454053,5.7400475,0.43771714,1.5142701,-1.4300278
2.134,11.974686,2.362657,5.7633367,0.44398952,1.535494,-1.4092346
2.136,11.942428,2.3796768,5.787193,0.45063967,1.5564265,-1.3883817
2.138,11.910248,2.396253,5.8116097,0.4575857,1.5770154,-1.3673688
2.14,11.878149,2.4121926,5.8364983,0.464705,1.5971932,-1.3460901
2.142,11.846331,2.42743,5.8617463,0.47185168,1.6168653,-1.32446
2.144,11.814895,2.4417624,5.887332,0.4788689,1.6359407,-1.302406
2.146,11.784066,2.4551983,5.913262,0.48562238,1.6543094,-1.2798729
2.148,11.753974,2.467692,5.9395847,0.49198684,1.671876,-1.2568095
2.15,11.724766,2.478977,5.9662733,0.49786392,1.6885439,-1.2332127
2.152,11.696528,2.4890506,5.993433,0.5031863,1.7042611,-1.2091057
2.154,11.6693535,2.4978452,6.0211687,0.50793386,1.7190136,-1.1845174
2.156,11.643288,2.5054307,6.049612,0.5121243,1.7328058,-1.1594841
2.158,11.618301,2.5117145,6.078796,0.5157906,1.745681,-1.1340505
2.16,11.594522,2.5167537,6.1088314,0.5189896,1.7577249,-1.1082596
2.162,11.571723,2.5205042,6.139775,0.52176225,1.7690344,-1.0821172
2.164,11.549941,2.5230029,6.1716104,0.5241676,1.7797475,-1.0556129
2.166,11.529272,2.52417,6.2043877,0.5262455,1.7900084,-1.028714
2.168,11.509444,2.5241408,6.238167,0.5280098,1.7999597,-1.0013762
2.17,11.4903755,2.5230172,6.2728868,0.52946496,1.8097515,-0.9735367
2.172,11.4718075,2.5208354,6.308502,0.53059906,1.8195155,-0.9451302
2.174,11.4538765,2.5177631,6.3449035,0.53140175,1.8293743,-0.9161069
2.176,11.436371,2.5139203,6.3819494,0.5318559,1.839433,-0.8864335
2.178,11.418964,2.5094547,6.4195094,0.53193367,1.8497607,-0.85610986
2.18,11.401551,2.5046306,6.4573646,0.53161633,1.8604066,-0.82513785
2.182,11.383992,2.4996617,6.495311,0.53088474,1.8713987,-0.79353434
2.184,11.36608,2.494672,6.5330462,0.52970225,1.8827325,-0.76131785
2.186,11.347674,2.4899542,6.5703425,0.52803415,1.8944074,-0.7285118
2.188,11.328437,2.4857302,6.606932,0.52583826,1.9063817,-0.69512457
2.19,11.308253,2.4822786,6.6426406,0.52306473,1.9186058,-0.66114366
2.192,11.286868,2.4797235,6.6770663,0.51964796,1.9310257,-0.62653315
2.194,11.264166,2.4784606,6.7099056,0.5155315,1.9435639,-0.5912558
2.196,11.239907,2.4785554,6.7410336,0.5106565,1.9561338,-0.5552722
2.198,11.213684,2.4803195,6.7700787,0.5049492,1.9686384,-0.51853156
2.2,11.185504,2.483923,6.7969112,0.49834046,1.9809883,-0.48099777
2.202,11.1549835,2.4895978,6.821307,0.49076122,1.9930722,-0.4426608
2.204,11.122134,2.497376,6.8430257,0.4821427,2.004778,-0.40350416
2.206,11.086681,2.5075357,6.8620157,0.47240195,2.0159626,-0.36353403
2.208,11.048559,2.5199738,6.8780413,0.46146244,2.0264773,-0.32276353
2.21,11.007644,2.534902,6.8911343,0.44924808,2.0361845,-0.28120196
2.212,10.963857,2.5522215,6.9010925,0.4356724,2.0449197,-0.23886305
2.214,10.917011,2.5720344,6.9080606,0.42065364,2.0525098,-0.1957542
2.216,10.867259,2.5942786,6.911994,0.40412152,2.0587845,-0.15187433
2.218,10.814522,2.6189966,6.912859,0.38597625,2.063556,-0.10721466
2.22,10.7586775,2.64605,6.91073,0.36614847,2.0666375,-0.061763763
2.222,10.699828,2.6754386,6.905819,0.3445604,2.0678444,-0.0155136585
2.224,10.638146,2.7069516,6.8982716,0.32113728,2.0669847,0.031522185
2.226,10.573477,2.7406235,6.888288,0.2958103,2.0638785,0.07932246
2.228,10.50597,2.7761986,6.876168,0.2685057,2.058361,0.1278499
2.23,10.4358,2.8135047,6.8620405,0.2391775,2.0502946,0.17704424
2.232,10.363002,2.8524227,6.846237,0.20777369,2.0395517,0.22685328
2.234,10.287777,2.8928893,6.829101,0.1742574,2.0260262,0.27719045
2.236,10.210208,2.9346778,6.8109527,0.13858765,2.0096495,0.32798043
2.238,10.130476,2.9777849,6.7920165,0.10073081,1.9903964,0.37916982
2.24,10.04866,3.0220394,6.7727094,0.06065941,1.9682502,0.43071675
2.242,9.964912,3.0674777,6.7532215,0.018333882,1.943245,0.4826141
2.244,9.879252,3.1140494,6.7339706,-0.02626744,1.915438,0.53485554
2.246,9.791976,3.161747,6.7152214,-0.073165774,1.8849219,0.58745587
2.248,9.703004,3.2105932,6.6972337,-0.12237337,1.8518126,0.6404375
2.25,9.6126,3.2605677,6.680138,-0.17388988,1.8162571,0.69383174
2.252,9.520873,3.3117647,6.6642756,-0.22768064,1.7784196,0.7476654
2.254,9.427896,3.3642344,6.6497498,-0.28370073,1.7384915,0.80194837
2.256,9.333746,3.418026,6.6368055,-0.34188208,1.6966766,0.8566876
2.258,9.238618,3.4732683,6.625581,-0.40213037,1.653191,0.91187537
2.26,9.142618,3.530085,6.616083,-0.464338,1.6082699,0.96750134
2.262,9.045889,3.5884986,6.60843,-0.52839243,1.5621331,1.0235434
2.264,8.948622,3.6486208,6.602569,-0.5941653,1.5149987,1.0799751
2.266,8.8509245,3.710411,6.598486,-0.6615264,1.4670933,1.136781
2.268,8.753078,3.7741132,6.5961,-0.73034406,1.4186509,1.1939418
2.27,8.655102,3.8396797,6.5953503,-0.8005038,1.3698719,1.2514253
2.272,8.55734,3.9071603,6.5960507,-0.87187356,1.3209416,1.309217
2.274,8.459819,3.9766035,6.598139,-0.94436085,1.2720442,1.3672986
2.276,8.362562,4.048081,6.60139,-1.0178592,1.2233219,1.425661
2.278,8.26595,4.1215076,6.6056805,-1.0922754,1.1748948,1.4842856
2.28,8.170029,4.1970043,6.610775,-1.1675344,1.1268586,1.5431528
2.282,8.074977,4.2745457,6.616444,-1.2435611,1.07927,1.6022443
2.284,7.9806447,4.3540506,6.6224394,-1.3203073,1.0321673,1.6615268
2.286,7.8872585,4.435507,6.628617,-1.3977071,0.98556304,1.7209612
2.288,7.794877,4.5188255,6.634687,-1.475708,0.93944204,1.7805126
2.29,7.703576,4.6038795,6.640358,-1.5542681,0.89375174,1.8401413
2.292,7.6132746,4.690716,6.645459,-1.6333302,0.8484284,1.8997977
2.294,7.5240636,4.779194,6.649842,-1.7128477,0.80341,1.9594407
2.296,7.4359336,4.8691607,6.653277,-1.7927682,0.75861996,2.0190146
2.298,7.349019,4.9604993,6.6555305,-1.8730389,0.71396965,2.0784612
2.3,7.2632675,5.052992,6.6563916,-1.9536061,0.66937673,2.1377094
2.302,7.178638,5.1464715,6.6558523,-2.0344164,0.6247459,2.19667
2.304,7.0951233,5.2407026,6.6538043,-2.11543,0.5800033,2.2552352
2.306,7.012664,5.3356752,6.6501565,-2.196616,0.5350693,2.3132703
2.308,6.931608,5.431056,6.644967,-2.2779424,0.48988396,2.3706305
2.31,6.8522177,5.52654,6.6382465,-2.3593864,0.44440472,2.4271557
2.312,6.7749014,5.621916,6.630154,-2.4409387,0.39858198,2.4826825
2.314,6.6998177,5.716837,6.620803,-2.5226083,0.35238326,2.537056
2.316,6.6270566,5.8109274,6.6102057,-2.604425,0.3057928,2.590136
2.318,6.556976,5.904055,6.598737,-2.6864245,0.2587992,2.6418092
2.32,6.489996,5.9958005,6.5868964,-2.7686472,0.21139503,2.6919975
2.322,6.426425,6.086046,6.575056,-2.8511596,0.16361582,2.7406523
2.324,6.366814,6.174324,6.563743,-2.9340134,0.11553955,2.787735
2.326,6.3114715,6.2603393,6.5535474,-3.0172558,0.06730211,2.8332067
2.328,6.2607455,6.343792,6.544923,-3.1009064,0.01908648,2.8770533
2.33,6.214971,6.424455,6.538493,-3.1849618,-0.028847098,2.919258
2.332,6.174227,6.5021524,6.534668,-3.2693644,-0.07619548,2.959822
2.334,6.138644,6.576666,6.5339947,-3.3540056,-0.12263107,2.998773
2.336,6.1083736,6.6478553,6.537014,-3.438734,-0.16779482,3.0361607
2.338,6.083504,6.715602,6.5442214,-3.52334,-0.21132767,3.0720901
2.34,6.064096,6.779881,6.5562057,-3.607569,-0.25286257,3.10669
2.342,6.0500817,6.840626,6.573324,-3.691128,-0.29204798,3.1401398
2.344,6.041278,6.897877,6.596016,-3.7736945,-0.32858896,3.1726327
2.346,6.037506,6.951876,6.624567,-3.8549745,-0.3622523,3.2044141
2.348,6.038667,7.002762,6.659233,-3.934678,-0.3928483,3.2357602
2.35,6.0444226,7.050909,6.700135,-4.012579,-0.42023414,3.2669635
2.352,6.0545774,7.0966334,6.7473593,-4.088511,-0.44428825,3.2982688
2.354,6.068945,7.140259,6.8009024,-4.162389,-0.46492517,3.3298664
2.356,6.087157,7.1823044,6.860638,-4.234179,-0.4820181,3.3618731
2.358,6.1092024,7.2232246,6.926396,-4.303905,-0.49544084,3.394337
2.36,6.1347227,7.263523,6.9979806,-4.371622,-0.5050278,3.4271874
2.362,6.163559,7.30362,7.0750427,-4.4374037,-0.51058865,3.4602764
2.364,6.19566,7.344022,7.157242,-4.5013337,-0.5118554,3.4933724
2.366,6.230874,7.3852024,7.244135,-4.5634546,-0.5085285,3.5261712
2.368,6.2690477,7.42764,7.3352995,-4.62377,-0.5002816,3.558367
2.37,6.3101716,7.4719353,7.4303327,-4.6822777,-0.48677653,3.5896618
2.372,6.354213,7.5187263,7.5287037,-4.738949,-0.46768284,3.6197906
2.374,6.401248,7.568474,7.630036,-4.7937317,-0.44269443,3.648549
2.376,6.451037,7.621834,7.733752,-4.846571,-0.4115882,3.6758318
2.378,6.5036864,7.6792793,7.839369,-4.8974085,-0.37422466,3.7016187
2.38,6.559153,7.74139,7.9462943,-4.946176,-0.33054793,3.7259724
2.382,6.617507,7.808813,8.054066,-4.9928255,-0.28059483,3.7490287
2.384,6.678634,7.8819923,8.162127,-5.037292,-0.2244699,3.7709959
2.386,6.7423525,7.9615593,8.269848,-5.079522,-0.16231275,3.792132
2.388,6.8084245,8.047968,8.376524,-5.119455,-0.09430015,3.8127294
2.39,6.8766727,8.141663,8.481628,-5.157037,-0.02060306,3.8331137
2.392,6.946745,8.24324,8.584444,-5.1922307,0.058608294,3.8535898
2.394,7.0182886,8.353288,8.684282,-5.2250247,0.14319754,3.8744667
2.396,7.090688,8.472311,8.780375,-5.255404,0.23307014,3.8960128
2.398,7.163467,8.600688,8.871826,-5.283386,0.32818317,3.9184353
2.4,7.2360263,8.738869,8.957949,-5.3089604,0.4285184,3.9418406
2.402,7.3077188,8.887088,9.037652,-5.3321447,0.53404415,3.966236
2.404,7.37772,9.045652,9.109913,-5.35292,0.6447284,3.991541
2.406,7.445154,9.214819,9.17358,-5.371241,0.7605196,4.0176344
2.408,7.50922,9.394791,9.227483,-5.3870525,0.8813032,4.0443487
2.41,7.5689235,9.585702,9.27055,-5.400312,1.006901,4.071514
2.412,7.623484,9.787619,9.301429,-5.4109893,1.1370722,4.098924
2.414,7.6719103,10.000515,9.318985,-5.4190736,1.2715151,4.126459
2.416,7.7133675,10.224253,9.32189,-5.4246125,1.4098661,4.1540327
2.418,7.7467003,10.458733,9.308889,-5.4277,1.5516646,4.181616
2.42,7.7708263,10.703788,9.278915,-5.4285226,1.6963918,4.2092376
2.422,7.7847815,10.959026,9.230775,-5.4273214,1.8434501,4.2369514
2.424,7.787793,11.224206,9.163401,-5.424377,1.9921863,4.2648153
2.426,7.7792583,11.49877,9.075945,-5.4200373,2.141876,4.2928734
2.428,7.758341,11.782098,8.967384,-5.414669,2.2917218,4.321126
2.43,7.7242165,12.073492,8.836967,-5.40865,2.4408622,4.349547
2.432,7.6763034,12.372052,8.684265,-5.402364,2.5884085,4.378089
2.434,7.61378,12.677097,8.508728,-5.396174,2.733381,4.406646
2.436,7.536168,12.9878,8.310226,-5.3904166,2.874781,4.4350853
2.438,7.443292,13.303196,8.088901,-5.385386,3.0116026,4.4632587
2.44,7.334901,13.622165,7.84484,-5.3813305,3.142865,4.490987
2.442,7.210993,13.943291,7.578383,-5.378463,3.2676458,4.518078
2.444,7.0716424,14.265413,7.290024,-5.376946,3.385062,4.544331
2.446,6.917017,14.586874,6.9802985,-5.376898,3.4943376,4.5695543
2.448,6.7471647,14.906295,6.649927,-5.3784137,3.5947554,4.5935884
2.45,6.5623436,15.22212,6.2997866,-5.381567,3.6856515,4.616308
2.452,6.3632097,15.532672,5.9308248,-5.3864336,3.766416,4.6376443
2.454,6.150452,15.83622,5.544206,-5.3931055,3.8364582,4.6575785
2.456,5.9249296,16.130997,5.1411986,-5.4016767,3.8951879,4.6761456
2.458,5.687481,16.415176,4.723259,-5.412256,3.94202,4.6934156
2.46,5.4392314,16.686981,4.291674,-5.424995,3.9763432,4.709481
2.462,5.1812286,16.944706,3.8481436,-5.440021,3.997529,4.7244306
2.464,4.9148283,17.18668,3.394094,-5.457454,4.004962,4.7383156
2.466,4.6412544,17.41125,2.931499,-5.477386,3.998024,4.751164
2.468,4.3618793,17.616798,2.4621587,-5.4998894,3.9761071,4.7629266
2.47,4.078409,17.801939,1.9878922,-5.524972,3.9386263,4.773492
2.472,3.7920089,17.965458,1.5108204,-5.5525784,3.8850574,4.7827306
2.474,3.5044851,18.106064,1.0328808,-5.582595,3.8148963,4.7904725
2.476,3.2171335,18.22277,0.55657816,-5.614838,3.727717,4.796553
2.478,2.9316397,18.31453,0.08387518,-5.6490865,3.6231723,4.80086
2.48,2.6491797,18.380512,-0.38276863,-5.6850696,3.5010092,4.8032703
2.482,2.3714442,18.420017,-0.84120464,-5.722473,3.361135,4.803668
2.484,2.0997603,18.432718,-1.2890244,-5.7609468,3.2036104,4.8019156
2.486,1.8354336,18.41845,-1.7238135,-5.800083,3.0286517,4.7978454
2.488,1.5793614,18.376972,-2.1431203,-5.839458,2.8366995,4.791286
2.49,1.3327625,18.30852,-2.5445938,-5.878535,2.6283875,4.7820153
2.492,1.09642,18.213701,-2.9259815,-5.916751,2.404513,4.769784
2.494,0.8712042,18.093084,-3.2849064,-5.9534564,2.1660535,4.7543736
2.496,0.65760076,17.947247,-3.6194737,-5.98792,1.9141481,4.7356095
2.498,0.4557101,17.777008,-3.9274566,-6.019395,1.6500697,4.7133713
2.5,0.2662053,17.583664,-4.2067356,-6.0471,1.3751721,4.687642
2.502,0.0889698,17.36905,-4.4557,-6.0702343,1.0909551,4.658483
2.504,-0.07592659,17.134832,-4.672695,-6.0880346,0.7989775,4.626066
2.506,-0.22854352,16.88279,-4.8564014,-6.0997763,0.5008906,4.5906305
2.508,-0.3690784,16.614939,-5.005501,-6.1048217,0.19839656,4.552514
2.51,-0.49816912,16.333408,-5.1191664,-6.1026225,-0.10676694,4.5121145
2.512,-0.6162163,16.040651,-5.1964355,-6.092717,-0.41280603,4.4698915
2.514,-0.7241343,15.739216,-5.236858,-6.074704,-0.71789205,4.4263086
2.516,-0.82248664,15.431698,-5.2400045,-6.0482616,-1.0201862,4.381821
2.518,-0.9122857,15.1207075,-5.205964,-6.013158,-1.3178821,4.336893
2.52,-0.9942157,14.809149,-5.1351132,-5.9692473,-1.6091964,4.291974
2.522,-1.0693817,14.499434,-5.028029,-5.916388,-1.892405,4.2475038
2.524,-1.1386617,14.193967,-4.8855476,-5.8545575,-2.1658812,4.2038183
2.526,-1.2033958,13.895282,-4.7087135,-5.7838144,-2.4281952,4.1611423
2.528,-1.2643688,13.605537,-4.498891,-5.704236,-2.6779847,4.119695
2.53,-1.3227559,13.326617,-4.2578373,-5.615946,-2.914031,4.0796356
2.532,-1.3794793,13.06028,-3.987267,-5.5191092,-3.1352804,4.0409546
2.534,-1.4356098,12.807969,-3.6891763,-5.413913,-3.340866,4.003507
2.536,-1.4920242,12.570654,-3.3659005,-5.300593,-3.5301054,3.9670048
2.538,-1.549603,12.349026,-3.019741,-5.1794567,-3.702468,3.9310718
2.54,-1.6090741,12.143382,-2.653342,-5.050854,-3.8575609,3.895224
2.542,-1.6711096,11.953559,-2.269536,-4.9151773,-3.995055,3.8588834
2.544,-1.736257,11.778966,-1.8710148,-4.772849,-4.1146364,3.8213491
2.546,-1.8049126,11.618792,-1.4607133,-4.6242795,-4.2159796,3.781868
2.548,-1.8774778,11.471746,-1.0415989,-4.4698653,-4.298743,3.7395983
2.55,-1.9542849,11.336427,-0.6165168,-4.3099475,-4.3625965,3.6936982
2.552,-2.0353293,11.211192,-0.18842486,-4.1447988,-4.4072666,3.6433835
2.554,-2.120596,11.094246,0.23969102,-3.9746857,-4.4325395,3.5879612
2.556,-2.2100587,10.983637,0.66495854,-3.799875,-4.438367,3.5269213
2.558,-2.3032231,10.877245,1.0844768,-3.6206648,-4.4248652,3.4599695
2.56,-2.399788,10.772923,1.4954995,-3.4374118,-4.3923864,3.387063
2.562,-2.4992502,10.668672,1.895406,-3.2505715,-4.341458,3.3083694
2.564,-2.6012487,10.562445,2.2816353,-3.0607285,-4.2727847,3.2242599
2.566,-2.7052581,10.452545,2.65174,-2.8685906,-4.1872544,3.1352842
2.568,-2.810619,10.33743,3.0036495,-2.6749766,-4.0858693,3.042149
2.57,-2.9168088,10.215684,3.3353539,-2.4807646,-3.969714,2.945651
2.572,-3.0233195,10.086137,3.6449594,-2.2868452,-3.839942,2.8466058
2.574,-3.1296756,9.948016,3.931056,-2.0941072,-3.6977828,2.745831
2.576,-3.235216,9.800747,4.1920877,-1.9034402,-3.5445178,2.6440983
2.578,-3.3396027,9.644162,4.427031,-1.715641,-3.3814647,2.54218
2.58,-3.4426064,9.478158,4.6351223,-1.5314659,-3.2099595,2.4407885
2.582,-3.5436857,9.303027,4.815729,-1.3516606,-3.031463,2.340501
2.584,-3.642951,9.119342,4.968623,-1.1769053,-2.8474958,2.2418365
2.586,-3.7401638,8.927776,5.0935707,-1.0078173,-2.6595216,2.1453164
2.588,-3.8352997,8.729373,5.1909437,-0.8449358,-2.46894,2.0514002
2.59,-3.9282107,8.525262,5.261188,-0.6887101,-2.2770839,1.9604368
2.592,-4.0192275,8.316591,5.30513,-0.5394719,-2.0851943,1.8726394
2.594,-4.108597,8.104584,5.3235717,-0.39744228,-1.8943908,1.7881094
2.596,-4.196415,7.8904967,5.317609,-0.26275063,-1.7057095,1.7068806
2.598,-4.2828693,7.67581,5.2885203,-0.13541126,-1.520048,1.6289096
2.6,-4.368307,7.4618134,5.2377276,-0.015329182,-1.3381753,1.5540805
2.602,-4.453132,7.2495694,5.16682,0.09768134,-1.1607296,1.4822323
2.604,-4.5376863,7.0405636,5.0772986,0.20386726,-0.988214,1.4131626
2.606,-4.6221056,6.8360662,4.9711504,0.30357197,-0.82099795,1.3466502
2.608,-4.706604,6.637383,4.8498616,0.39718336,-0.659373,1.2824601
2.61,-4.791879,6.4453254,4.715067,0.48511636,-0.50355566,1.2203804
2.612,-4.8781247,6.2603154,4.568615,0.56780016,-0.35368395,1.1602232
2.614,-4.9655323,6.0832825,4.412156,0.6456479,-0.20984231,1.1018702
2.616,-5.054652,5.914974,4.2474213,0.7190543,-0.07208538,1.0452578
2.618,-5.145599,5.756046,4.0758724,0.7883707,0.05955729,0.99036497
2.62,-5.238305,5.6068773,3.899048,0.85390174,0.18509181,0.9372187
2.622,-5.3329186,5.467665,3.7181842,0.9158962,0.30455688,0.88585865
2.624,-5.4291296,5.338479,3.5346525,0.97454524,0.41802388,0.8363223
2.626,-5.5270014,5.219293,3.3494911,1.0300006,0.52559423,0.7886376
2.628,-5.6261725,5.1099315,3.1638703,1.0823731,0.6274252,0.7428009
2.63,-5.726578,5.0099754,2.9787009,1.1317654,0.7237134,0.6987773
2.632,-5.827692,4.919232,2.7947693,1.1782827,0.81469846,0.6564722
2.634,-5.929125,4.8373723,2.6127267,1.2220433,0.9006735,0.61573887
2.636,-6.03022,4.7635584,2.4331827,1.2631795,0.98197097,0.5763767
2.638,-6.1305685,4.697344,2.256557,1.3018363,1.0589792,0.5381321
2.64,-6.229507,4.637987,2.083135,1.3381951,1.1320769,0.5007346
2.642,-6.3263826,4.584662,1.9131869,1.372441,1.2016655,0.4638914
2.644,-6.4204316,4.5364146,1.7467691,1.4047701,1.2681389,0.42731988
2.646,-6.5109844,4.4925604,1.5840381,1.435373,1.3318877,0.39076728
2.648,-6.597267,4.4521713,1.4246849,1.4644392,1.3932742,0.3540238
2.65,-6.6788764,4.414393,1.2687329,1.4921409,1.4526194,0.3169291
2.652,-6.7551126,4.3784833,1.1160572,1.5186075,1.5102056,0.2794041
2.654,-6.825372,4.3435745,0.96646833,1.543934,1.5662735,0.24142507
2.656,-6.8891816,4.3088026,0.81962824,1.5681906,1.620999,0.20303029
2.658,-6.9461803,4.2737184,0.67525196,1.5913935,1.674519,0.16429856
2.66,-6.995835,4.2376194,0.5330796,1.61352,1.7268906,0.12536147
2.662,-7.038067,4.2000394,0.39295197,1.6345137,1.7781234,0.08637488
2.664,-7.072648,4.160551,0.25456977,1.6542759,1.8281554,0.04750502
2.666,-7.0993004,4.118844,0.11777878,1.6726747,1.8768595,0.008936256
2.668,-7.118083,4.0747185,-0.017504215,1.6895598,1.9240406,-0.029187262
2.67,-7.1289997,4.0279365,-0.15151143,1.7047533,1.9694597,-0.06673086
2.672,-7.13227,3.9784868,-0.28428626,1.7180756,2.0128279,-0.103571385
2.674,-7.128109,3.9264472,-0.41575742,1.7293272,2.0538356,-0.13961959
2.676,-7.1166434,3.8718348,-0.5458443,1.7383344,2.0921412,-0.17482516
2.678,-7.098297,3.8148012,-0.67447734,1.7449362,2.1274123,-0.2091487
2.68,-7.0731983,3.7555332,-0.8013811,1.7489973,2.159323,-0.24259064
2.682,-7.0419235,3.6943777,-0.92635417,1.7504063,2.1875815,-0.27516162
2.684,-7.004943,3.6315374,-1.0489199,1.7490693,2.2119493,-0.30689
2.686,-6.9625797,3.567286,-1.1688719,1.7449421,2.2322176,-0.33780015
2.688,-6.915454,3.5019886,-1.2858193,1.7379937,2.2482407,-0.36792868
2.69,-6.863814,3.435974,-1.3990808,1.7282354,2.25994,-0.3973111
2.692,-6.808202,3.3695037,-1.5084541,1.7157031,2.2672741,-0.42597347
2.694,-6.749049,3.3029773,-1.6133232,1.7004497,2.270263,-0.45393708
2.696,-6.6866736,3.2366557,-1.7134469,1.68257,2.2689629,-0.48121345
2.698,-6.621698,3.170736,-1.8080628,1.6621699,2.2634943,-0.5078157
2.7,-6.554468,3.1054573,-1.8969852,1.6393926,2.2539995,-0.53374636
2.702,-6.485345,3.0410817,-1.9796883,1.6143886,2.2406802,-0.5590175
2.704,-6.4144483,2.9778183,-2.0558872,1.5873512,2.223751,-0.5836257
2.706,-6.342169,2.915899,-2.125125,1.558497,2.2034583,-0.6076047
2.708,-6.268867,2.8554504,-2.187342,1.52806,2.1800838,-0.6309857
2.71,-6.1946545,2.7965386,-2.2422056,1.4962966,2.1539228,-0.653808
2.712,-6.119706,2.7394454,-2.2896733,1.4634752,2.1252832,-0.67612356
2.714,-6.0442076,2.6841304,-2.3295832,1.4298766,2.094486,-0.69799405
2.716,-5.9682302,2.6307452,-2.3619637,1.3957832,2.0618575,-0.71946293
2.718,-5.8918552,2.579332,-2.3868084,1.3614781,2.0277162,-0.7405555
2.72,-5.8151913,2.5299027,-2.4043393,1.3272252,1.992359,-0.7612908
2.722,-5.7381477,2.4825664,-2.4146228,1.2932832,1.956081,-0.78163373
2.724,-5.6608696,2.4372737,-2.4179463,1.2598848,1.9191567,-0.8015568
2.726,-5.583135,2.3941276,-2.4145665,1.2272397,1.8818464,-0.82102585
2.728,-5.50511,2.353092,-2.4047632,1.1955531,1.8443972,-0.84001243
2.73,-5.426671,2.314271,-2.3889773,1.1649867,1.8070474,-0.85850036
2.732,-5.347781,2.2775433,-2.3675523,1.1356952,1.7700412,-0.876485
2.734,-5.2685757,2.2430232,-2.3410368,1.1078075,1.7336128,-0.89398146
2.736,-5.188855,2.2106485,-2.309701,1.0814564,1.6979741,-0.9110369
2.738,-5.1087265,2.1805108,-2.274125,1.0567632,1.6633352,-0.9277225
2.74,-5.0278955,2.152622,-2.2347782,1.0338334,1.6299038,-0.9441187
2.742,-4.9466267,2.1270978,-2.1921198,1.0127774,1.5978535,-0.96031165
2.744,-4.8647676,2.10384,-2.1465886,0.99368346,1.5673231,-0.97638464
2.746,-4.7823157,2.0830889,-2.098741,0.97662526,1.5384316,-0.9924017
2.748,-4.699204,2.0647144,-2.0490153,0.9616753,1.5112616,-1.0084109
2.75,-4.615355,2.0488567,-1.9977343,0.9488646,1.4858454,-1.0244315
2.752,-4.5309057,2.035603,-1.9455469,0.93820393,1.4621717,-1.0404377
2.754,-4.445872,2.025007,-1.8926132,0.92967737,1.4401952,-1.0563815
2.756,-4.3600564,2.017085,-1.8393579,0.92324567,1.4198282,-1.0721841
2.758,-4.2736435,2.0119236,-1.7860113,0.9188344,1.4009826,-1.0877687
2.76,-4.1864514,2.009534,-1.7329184,0.91634744,1.3835189,-1.1030302
2.762,-4.09861,2.010065,-1.6802635,0.91568327,1.3672855,-1.1178755
2.764,-4.010036,2.0135322,-1.6283104,0.9167267,1.3521369,-1.1322403
2.766,-3.9207935,2.0200384,-1.577146,0.91937625,1.3379077,-1.1460695
2.768,-3.830873,2.0295036,-1.5268722,0.9235235,1.3244547,-1.1593368
2.77,-3.7403207,2.0420585,-1.4775767,0.9290868,1.3116318,-1.1720438
2.772,-3.6489725,2.057676,-1.429368,0.9359888,1.2993134,-1.1842074
2.774,-3.5570064,2.076377,-1.3821789,0.9441652,1.2874012,-1.1958563
2.776,-3.4644568,2.0982332,-1.3360482,0.95356333,1.2758021,-1.2070405
2.778,-3.3710935,2.1230574,-1.2910011,0.96414983,1.2644476,-1.2177914
2.78,-3.2771735,2.1509202,-1.2469034,0.9758949,1.2533,-1.2281437
2.782,-3.182595,2.1817393,-1.2036028,0.98877496,1.2423311,-1.2381347
2.784,-3.0872269,2.215442,-1.1611798,1.0027809,1.2315428,-1.2478116
2.786,-2.9911299,2.2518682,-1.1194575,1.0179013,1.2209393,-1.2572448
2.788,-2.8943155,2.2908485,-1.0784452,1.0341263,1.2105438,-1.2665
2.79,-2.7969694,2.3322015,-1.0379249,1.0514364,1.2003877,-1.2756635
2.792,-2.6987865,2.375704,-0.99788934,1.0698246,1.1905146,-1.2848177
2.794,-2.599933,2.4211977,-0.958391,1.0892807,1.1809694,-1.2940702
2.796,-2.5005767,2.468465,-0.91924775,1.1097957,1.1717926,-1.3035092
2.798,-2.4006133,2.5173397,-0.8804563,1.1313556,1.1630201,-1.3132107
2.8,-2.3002293,2.5675745,-0.8421439,1.1539412,1.1546752,-1.3232408
2.802,-2.1994228,2.6190689,-0.804116,1.1775259,1.1467681,-1.333625
2.804,-2.098344,2.6716194,-0.7664289,1.2020819,1.1393071,-1.3443556
2.806,-1.9971359,2.7251885,-0.72902954,1.2275845,1.132282,-1.3554025
2.808,-1.8956746,2.7796772,-0.69208944,1.2539799,1.1256747,-1.3666836
2.81,-1.7943279,2.8349955,-0.65554667,1.2812182,1.1194578,-1.378106
2.812,-1.6931016,2.8910227,-0.6193824,1.3092437,1.1135883,-1.3895297
2.814,-1.5923015,2.9477696,-0.5836568,1.3380078,1.1080426,-1.4008052
2.816,-1.4918199,3.0049639,-0.54844785,1.3674448,1.1027778,-1.4117874
2.818,-1.3919115,3.062672,-0.5137698,1.3974996,1.0977578,-1.4223288
2.82,-1.2927419,3.120776,-0.47962257,1.4281183,1.0929514,-1.4323199
2.822,-1.1943665,3.1790154,-0.44600698,1.4592458,1.088325,-1.441672
2.824,-1.0968839,3.2373123,-0.41302204,1.4908378,1.0838487,-1.4503484
2.826,-1.0006181,3.295518,-0.38068637,1.5228648,1.079506,-1.4583559
2.828,-0.9055238,3.3533773,-0.34898534,1.5553212,1.0752941,-1.4657545
2.83,-0.8117689,3.4106917,-0.31787246,1.588193,1.0711954,-1.4726543
2.832,-0.7194155,3.4670866,-0.28744078,1.621492,1.0672361,-1.4792212
2.834,-0.62864983,3.5222936,-0.25761047,1.655247,1.063414,-1.4856442
2.836,-0.53968257,3.575985,-0.2284095,1.6894867,1.0597479,-1.4921254
2.838,-0.45239216,3.6277897,-0.19988063,1.7242513,1.0562551,-1.4988601
2.84,-0.36705548,3.6771848,-0.17186767,1.7595801,1.0529416,-1.5060403
2.842,-0.28365636,3.7240188,-0.14439905,1.795502,1.0498074,-1.5138081
2.844,-0.20226602,3.7677214,-0.11745787,1.8320426,1.0468359,-1.5222465
2.846,-0.123020306,3.8080266,-0.09101635,1.8691915,1.0439972,-1.5313933
2.848,-0.046046525,3.8446813,-0.065035224,1.9069146,1.041253,-1.5412135
2.85,0.028592028,3.8772767,-0.039417684,1.9451759,1.0385385,-1.5516095
2.852,0.10108191,3.9056122,-0.014085114,1.9839166,1.0357746,-1.5624361
2.854,0.17113858,3.92963,0.011058509,2.023066,1.032871,-1.5734962
2.856,0.23885725,3.9490967,0.0360502,2.062534,1.0297242,-1.5845876
2.858,0.30424225,3.9640589,0.06106502,2.102239,1.0262123,-1.5954893
2.86,0.36715874,3.9744558,0.0861519,2.1420913,1.0222265,-1.6059768
2.862,0.42786193,3.9803963,0.11157107,2.1819983,1.0176493,-1.6158499
2.864,0.48627844,3.9821,0.1372605,2.221874,1.012382,-1.6249349
2.866,0.5424516,3.9797046,0.16341144,2.261641,1.0063335,-1.6331043
2.868,0.59644777,3.9735918,0.19024605,2.3012223,0.99943024,-1.6402588
2.87,0.648397,3.964128,0.21782207,2.3405497,0.99162775,-1.6463358
2.872,0.6985541,3.9514315,0.24630451,2.3795724,0.9828942,-1.6513038
2.874,0.7470418,3.9359968,0.2757815,2.4182377,0.9732323,-1.6551692
2.876,0.7938048,3.9181802,0.30645084,2.456515,0.96264637,-1.6579766
2.878,0.8392428,3.8983307,0.33841455,2.4943767,0.95117986,-1.659782
2.88,0.8834698,3.8768055,0.3717351,2.5317996,0.93887246,-1.6606686
2.882,0.92644984,3.8539457,0.40650105,2.56877,0.9257663,-1.6607203
2.884,0.96841663,3.8301127,0.44283378,2.6052985,0.91192526,-1.6600171
2.886,1.0096087,3.8056471,0.48078334,2.641388,0.89737475,-1.6586473
2.888,1.0499839,3.7809873,0.5203868,2.6770315,0.8821585,-1.6566691
2.89,1.089891,3.7564516,0.5617869,2.712235,0.8662977,-1.6541307
2.892,1.1292876,3.7323368,0.60492504,2.746992,0.84979117,-1.6510488
2.894,1.1682136,3.7090008,0.64983094,2.7812915,0.8326336,-1.6474029
2.896,1.2067468,3.6868293,0.6965294,2.815119,0.81480414,-1.6431651
2.898,1.2450306,3.6661677,0.7450837,2.848446,0.7962589,-1.6382768
2.9,1.2832516,3.6472936,0.795454,2.8812397,0.7769598,-1.6326495
2.902,1.3212644,3.630521,0.8476273,2.9134672,0.75684845,-1.6261883
2.904,1.359177,3.6161366,0.90164375,2.9450734,0.7358704,-1.6187973
2.906,1.3971071,3.6042788,0.9574046,2.9760056,0.7139689,-1.6103729
2.908,1.435043,3.5951955,1.0149633,3.006207,0.6910764,-1.6008412
2.91,1.4718883,3.5890067,1.0721439,3.035626,0.66714996,-1.5901318
2.912,1.5086012,3.585651,1.1304431,3.0642092,0.6421552,-1.5782461
2.914,1.5451629,3.5851228,1.1896899,3.0919201,0.616076,-1.5652298
2.916,1.5815248,3.5872989,1.2497413,3.1187346,0.5889163,-1.5512016
2.918,1.6175612,3.5920522,1.3104194,3.1446342,0.56070846,-1.5363383
2.92,1.6534283,3.5991492,1.3715147,3.1696222,0.53152573,-1.5208769
2.922,1.6889343,3.6083894,1.4327148,3.1937196,0.50144947,-1.5051037
2.924,1.7240607,3.619398,1.4938965,3.21697,0.47058338,-1.48932
2.926,1.758675,3.6319985,1.5548084,3.2394114,0.43904063,-1.4738246
2.928,1.7928542,3.64575,1.6152468,3.2611063,0.40693638,-1.4588685
2.93,1.8263729,3.660325,1.6748977,3.2821019,0.37437412,-1.4446521
2.932,1.8591961,3.6753583,1.7335439,3.3024466,0.34144068,-1.4312952
2.934,1.8912486,3.6905503,1.7910058,3.322163,0.3082027,-1.4188378
2.936,1.9225798,3.7055879,1.847122,3.3412464,0.27471104,-1.4072343
2.938,1.9529145,3.7201862,1.9016564,3.3592224,0.2422553,-1.3967885
2.94,1.9822891,3.7341058,1.9544672,3.376321,0.2102777,-1.3871483
2.942,2.0105808,3.7472646,2.0054877,3.39244,0.17902094,-1.378211
2.944,2.0378616,3.7594004,2.0545871,3.4074702,0.14874274,-1.3698732
2.946,2.0641062,3.7704444,2.101665,3.4213183,0.11971128,-1.3620472
2.948,2.0891101,3.7803464,2.1467743,3.433918,0.09217036,-1.3546715
2.95,2.1129775,3.7892075,2.1897664,3.4452336,0.06632,-1.347702
2.952,2.1356819,3.7967944,2.2307103,3.4552782,0.042316318,-1.341119
2.954,2.1573024,3.8033047,2.2696767,3.464103,0.020225585,-1.3349166
2.956,2.1777377,3.8087368,2.306622,3.4717815,7.015467e-05,-1.3290889
2.958,2.1972036,3.813048,2.341676,3.4784143,-0.018189967,-1.3236408
2.96,2.2154918,3.8165112,2.3748484,3.4841177,-0.034650505,-1.3185643
