Time_s_,Acc_x_m_s_2_,Acc_y_m_s_2_,Acc_z_m_s_2_,Gyro_x_1_s_,Gyro_y_1_s_,Gyro_z_1_s_
0,-0.5426185,0.33083713,-0.41074488,0.19250603,0.41337168,0.17584646
0.002,-0.536738,0.33086327,-0.41061547,0.19439572,0.4174457,0.17691718
0.004,-0.53059554,0.33147413,-0.4109794,0.19645317,0.42245328,0.17829633
0.006,-0.52436286,0.3329946,-0.41186583,0.19867855,0.42849657,0.17999962
0.008,-0.5177695,0.33541793,-0.4132655,0.20103206,0.43562198,0.18203123
0.01,-0.5107124,0.33895424,-0.41493654,0.20345747,0.44383508,0.18434788
0.012,-0.5030316,0.34372094,-0.41655123,0.20590481,0.453076,0.18686104
0.014,-0.49450314,0.34983754,-0.41774872,0.20828807,0.46315634,0.18945108
0.016,-0.48511553,0.3574401,-0.41806138,0.2104897,0.47376475,0.19200154
0.018,-0.47465688,0.36656827,-0.41692498,0.2123509,0.48449215,0.194354
0.02,-0.46288046,0.37733218,-0.4139908,0.21367227,0.49482375,0.19633853
0.022,-0.44969386,0.38983747,-0.40877885,0.21423385,0.5041636,0.19778499
0.024,-0.43466443,0.40398666,-0.40074295,0.21377996,0.51184547,0.19855663
0.026,-0.41755533,0.41964227,-0.3891801,0.21201444,0.51716685,0.19857028
0.028,-0.3980662,0.43676507,-0.37343675,0.20870303,0.51963586,0.1978161
0.03,-0.37602383,0.45532447,-0.3529593,0.20349465,0.5184478,0.19629067
0.032,-0.35118434,0.47529453,-0.32750264,0.1961774,0.513168,0.19400465
0.034,-0.32330462,0.49656653,-0.29680148,0.18665153,0.5035586,0.1909143
0.036,-0.2920801,0.5190701,-0.26088658,0.17493816,0.48963368,0.18693818
0.038,-0.2574407,0.5426828,-0.21988879,0.16124734,0.47170657,0.18194064
0.04,-0.21928279,0.56721085,-0.1740198,0.1459754,0.45039272,0.17576717
0.042,-0.17766002,0.5924988,-0.12367414,0.12969008,0.42662233,0.16822636
0.044,-0.1327316,0.6183121,-0.069423005,0.11308634,0.40154898,0.15912542
0.046,-0.08454734,0.6444832,-0.012097713,0.09692632,0.37651056,0.14830261
0.048,-0.03342691,0.6707385,0.047185965,0.08198158,0.35288897,0.1356287
0.05,0.020447016,0.6968626,0.10704418,0.068969,0.33201957,0.12102211
0.052,0.076705635,0.72261083,0.16612959,0.058501057,0.3150767,0.104426615
0.054,0.13499609,0.7478963,0.22287019,0.051044166,0.3029827,0.085839696
0.056,0.1957396,0.77296,0.27658874,0.046882093,0.29637495,0.06530196
0.058,0.25752878,0.79752547,0.32465655,0.046126902,0.29554713,0.0429044
0.06,0.32027173,0.821606,0.36521092,0.048724465,0.30049688,0.018775482
0.062,0.38353813,0.845081,0.39663756,0.05449821,0.31093603,-0.006918459
0.064,0.44726253,0.8678144,0.4177001,0.06315586,0.3263128,-0.033952072
0.066,0.5110973,0.88962305,0.42774943,0.07430241,0.34587312,-0.06202615
0.068,0.57492137,0.91068685,0.42635432,0.08749652,0.36874428,-0.09077828
0.07,0.6384424,0.9311539,0.4133432,0.10225911,0.3939373,-0.119800605
0.072,0.7016189,0.9511589,0.38877,0.1180462,0.42035532,-0.14861445
0.074,0.76435524,0.9708339,0.352818,0.13427928,0.44686624,-0.17670523
0.076,0.8263746,0.9903549,0.30605,0.15034954,0.47233737,-0.20357643
0.078,0.887265,1.0100683,0.24944262,0.16564661,0.49567533,-0.22881481
0.08,0.94706094,1.0301628,0.18395512,0.17962137,0.5158557,-0.25211847
0.082,1.0052656,1.0509992,0.1108975,0.19179,0.5319724,-0.27331457
0.084,1.0617293,1.0727986,0.031232163,0.20180474,0.5433136,-0.29234254
0.086,1.116075,1.0960867,-0.05381983,0.20948231,0.54942274,-0.30925307
0.088,1.1675031,1.1212454,-0.14323547,0.2148102,0.55014354,-0.32415453
0.09,1.2154838,1.1483467,-0.23589747,0.21796344,0.5456456,-0.33724838
0.092,1.2595681,1.1774265,-0.33049896,0.21925548,0.5364196,-0.34872803
0.094,1.2992315,1.2084162,-0.42577338,0.21910256,0.5231833,-0.35875842
0.096,1.3337071,1.2418021,-0.52079034,0.21795924,0.50682825,-0.36741918
0.098,1.3622661,1.2781737,-0.61456114,0.21627623,0.48833883,-0.37472838
0.1,1.3843346,1.3183486,-0.70644224,0.21445468,0.46867046,-0.3806642
0.102,1.399189,1.3631053,-0.7961181,0.212793,0.44862533,-0.38519832
0.104,1.4060363,1.4129364,-0.88275516,0.21146548,0.42871612,-0.38830978
0.106,1.4041549,1.4683733,-0.9656772,0.21051423,0.40914163,-0.39001608
0.108,1.3931782,1.529582,-1.0445666,0.2098646,0.3897776,-0.3904022
0.11,1.3725175,1.5966643,-1.1186968,0.20937422,0.3702222,-0.38966578
0.112,1.3418916,1.6695064,-1.1871574,0.20884341,0.34988683,-0.38815233
0.114,1.3009744,1.7480321,-1.2495315,0.20809866,0.32811522,-0.38636494
0.116,1.2498753,1.8317356,-1.3055103,0.2070272,0.30435604,-0.38496342
0.118,1.1886938,1.9201822,-1.3548865,0.20560142,0.27831584,-0.3847245
0.12,1.1181455,2.012446,-1.3978927,0.20391263,0.25006545,-0.38649365
0.122,1.0390885,2.1075451,-1.4347988,0.20218845,0.2201142,-0.39112556
0.124,0.95247054,2.2044384,-1.4658042,0.20078602,0.18944108,-0.39938545
0.126,0.8597621,2.3019161,-1.4913919,0.20018095,0.15945217,-0.41186473
0.128,0.7624336,2.3987503,-1.5121468,0.20087866,0.13185206,-0.42894927
0.13,0.66231215,2.4934497,-1.5283746,0.20334223,0.10845656,-0.45070556
0.132,0.56142235,2.584647,-1.5406148,0.20794287,0.09099339,-0.47684428
0.134,0.46152765,2.6710134,-1.5495874,0.21486175,0.08089115,-0.5066873
0.136,0.36461723,2.7512977,-1.5561903,0.22404392,0.079091445,-0.53916496
0.138,0.2728027,2.8242288,-1.5611691,0.23518607,0.08596034,-0.57291454
0.14,0.18813527,2.8886535,-1.5651927,0.24775413,0.10122727,-0.6063891
0.142,0.112231016,2.9437213,-1.5686731,0.26102662,0.12400848,-0.63808936
0.144,0.04656911,2.9890149,-1.5721816,0.27418655,0.1528983,-0.6666978
0.146,-0.007681489,3.0244749,-1.576022,0.28641325,0.18612061,-0.6912462
0.148,-0.0493598,3.0502028,-1.58076,0.29696962,0.22174256,-0.711193
0.15,-0.077855706,3.066493,-1.5869075,0.30530742,0.25780186,-0.72641885
0.152,-0.0927521,3.0738943,-1.5949113,0.31109464,0.2925281,-0.73714614
0.154,-0.09414685,3.0731287,-1.6050884,0.31422827,0.32447708,-0.74384767
0.156,-0.0824492,3.065229,-1.6176091,0.31483996,0.35265622,-0.7471461
0.158,-0.058247447,3.051548,-1.6323187,0.31323034,0.37658733,-0.7476948
0.16,-0.02244842,3.0333543,-1.6491576,0.30982375,0.39623803,-0.7460702
0.162,0.0239681,3.0120342,-1.6680404,0.30506814,0.41193607,-0.74272573
0.164,0.079695225,2.9888628,-1.6887475,0.29936233,0.4242338,-0.7379093
0.166,0.14337838,2.964918,-1.710862,0.29301098,0.4337669,-0.7316942
0.168,0.2136097,2.9413972,-1.733722,0.28616634,0.44111037,-0.7239997
0.17,0.28863454,2.9194343,-1.7567598,0.27885187,0.44663838,-0.7146829
0.172,0.36700046,2.9000707,-1.7792366,0.27099106,0.450453,-0.7035888
0.174,0.4473095,2.8840137,-1.8005353,0.26243547,0.45238322,-0.69061625
0.176,0.52834404,2.8720388,-1.820178,0.2529749,0.45201284,-0.67573625
0.178,0.60860807,2.8642201,-1.8376217,0.24239433,0.44875172,-0.65898913
0.18,0.6869309,2.860884,-1.8523558,0.23051542,0.44190806,-0.64044136
0.182,0.7622886,2.8620458,-1.8637545,0.21721,0.430817,-0.6201479
0.184,0.8337194,2.867717,-1.8713624,0.20244026,0.4150041,-0.59816927
0.186,0.9008155,2.877695,-1.8748964,0.18625803,0.39425296,-0.57455635
0.188,0.9630187,2.8916278,-1.8737783,0.1688126,0.3686862,-0.5493718
0.19,1.0193985,2.9094172,-1.8675854,0.15034266,0.33874625,-0.5226809
0.192,1.0695863,2.930831,-1.8557324,0.1311815,0.30515262,-0.49449688
0.194,1.1132559,2.9554446,-1.8376694,0.1117188,0.26884073,-0.4647623
0.196,1.1499734,2.9829187,-1.8131398,0.09238073,0.23087204,-0.43331105
0.198,1.1789129,3.0134764,-1.7813234,0.073573396,0.19231665,-0.3998795
0.2,1.1987059,3.0476499,-1.7427434,0.05563868,0.15415537,-0.3641721
0.202,1.2075742,3.0865135,-1.6985099,0.038831696,0.11715382,-0.32589638
0.204,1.2052886,3.1293244,-1.6470153,0.023274358,0.08180127,-0.28479838
0.206,1.1927717,3.1755836,-1.5902101,0.008970328,0.048260573,-0.2407058
0.208,1.1699289,3.2247498,-1.5309415,-0.004174594,0.016393527,-0.19353482
0.21,1.1357137,3.2758152,-1.4695528,-0.016331173,-0.014189525,-0.14333026
0.212,1.0892534,3.329083,-1.4058875,-0.027693791,-0.044015277,-0.090265095
0.214,1.0299267,3.3858955,-1.3407133,-0.038437195,-0.07357559,-0.03464307
0.216,0.95722544,3.4471648,-1.2757338,-0.048666377,-0.103231445,0.023149086
0.218,0.8708426,3.513224,-1.2123592,-0.058373537,-0.13309167,0.08267039
0.22,0.77056944,3.5840669,-1.151971,-0.06748289,-0.16294967,0.1434966
0.222,0.65631855,3.6599157,-1.0958939,-0.075818814,-0.19225343,0.20525423
0.224,0.52814686,3.740699,-1.0455046,-0.08315378,-0.22014768,0.26765907
0.226,0.3859843,3.8267722,-1.0021868,-0.089275084,-0.24555787,0.33053592
0.228,0.2304802,3.9181862,-0.96751314,-0.09401935,-0.26737922,0.39383578
0.23,0.061965704,4.0153885,-0.94278544,-0.09726137,-0.28443426,0.45765716
0.232,-0.11863494,4.1182117,-0.9290731,-0.09909226,-0.2959175,0.522093
0.234,-0.31030166,4.2263427,-0.92715603,-0.099789575,-0.3014924,0.58729815
0.236,-0.5118036,4.339264,-0.93770015,-0.099589944,-0.3007902,0.6535831
0.238,-0.7209879,4.455826,-0.96176535,-0.09883577,-0.2941048,0.72097856
0.24,-0.93519163,4.574881,-1.0008771,-0.09799531,-0.28248554,0.7894314
0.242,-1.1515512,4.694842,-1.055606,-0.0975658,-0.26729745,0.8590415
0.244,-1.367407,4.8150253,-1.1258296,-0.098079935,-0.25013316,0.9298181
0.246,-1.5793793,4.933873,-1.2113947,-0.10011932,-0.23290779,1.0015813
0.248,-1.7842726,5.04949,-1.3110213,-0.10423672,-0.21773738,1.0740533
0.25,-1.9795524,5.160577,-1.4222058,-0.110902414,-0.20678727,1.1469194
0.252,-2.1620116,5.26509,-1.54189,-0.12049517,-0.20213224,1.2197932
0.254,-2.328889,5.3611565,-1.6665778,-0.13328624,-0.20568746,1.292207
0.256,-2.4778216,5.446705,-1.7929504,-0.14943007,-0.21909797,1.3636123
0.258,-2.606328,5.5198193,-1.9175563,-0.16896142,-0.24369176,1.4333721
0.26,-2.7125096,5.5793414,-2.0367897,-0.19181068,-0.28041345,1.5007396
0.262,-2.7949157,5.6239223,-2.147011,-0.21782215,-0.32977217,1.5648248
0.264,-2.852607,5.652974,-2.244013,-0.24674383,-0.3917852,1.6246724
0.266,-2.8853564,5.666002,-2.323914,-0.2782851,-0.46595806,1.6792746
0.268,-2.8930519,5.6625605,-2.3832881,-0.31214878,-0.55134594,1.7277026
0.27,-2.876018,5.642536,-2.419051,-0.34796435,-0.64649284,1.7691865
0.272,-2.8357794,5.606416,-2.428364,-0.38531956,-0.7496904,1.8031046
0.274,-2.7735476,5.554558,-2.4089727,-0.42367268,-0.85905737,1.8290104
0.276,-2.6909165,5.48777,-2.359329,-0.4623673,-0.97249407,1.8466249
0.278,-2.58953,5.406658,-2.27845,-0.5007643,-1.088075,1.8558813
0.28,-2.47115,5.312207,-2.16572,-0.53822875,-1.2041631,1.8567939
0.282,-2.3380213,5.2054625,-2.021047,-0.57420844,-1.3193755,1.849455
0.284,-2.192358,5.087818,-1.8446921,-0.6083087,-1.4328536,1.8339771
0.286,-2.0361452,4.9603624,-1.6375026,-0.6402819,-1.5440906,1.81052
0.288,-1.8709221,4.8239336,-1.4004736,-0.6701724,-1.6531177,1.7792099
0.29,-1.6984487,4.6785946,-1.1345663,-0.6983631,-1.7608223,1.7401364
0.292,-1.5204282,4.524621,-0.84105253,-0.7253523,-1.8681288,1.6936532
0.294,-1.3385301,4.3622527,-0.5213686,-0.7515949,-1.9759171,1.6400955
0.296,-1.1543256,4.19191,-0.17748715,-0.7774477,-2.085071,1.5796784
0.298,-0.9690125,4.013746,0.18817827,-0.803039,-2.196149,1.5128208
0.3,-0.7834053,3.8278642,0.5733257,-0.8281723,-2.3089674,1.4402056
0.302,-0.59817994,3.634389,0.97411674,-0.8522805,-2.4224374,1.3626319
0.304,-0.41346145,3.4331403,1.3867908,-0.8744116,-2.534624,1.281038
0.306,-0.22935355,3.2238102,1.8076884,-0.8932475,-2.6427348,1.1965623
0.308,-0.048265815,3.0068526,2.2321494,-0.9071437,-2.7432313,1.1105518
0.31,0.1291554,2.7824616,2.656195,-0.91434157,-2.8321486,1.0245007
0.312,0.30588734,2.5480642,3.076107,-0.91312087,-2.9053643,0.9399555
0.314,0.48068416,2.3024583,3.4852395,-0.9019726,-2.9588926,0.8584927
0.316,0.65261865,2.0435739,3.8825037,-0.8797372,-2.9891484,0.7815293
0.318,0.82215965,1.7718914,4.2651644,-0.8457191,-2.9932609,0.710187
0.32,0.9900974,1.4896483,4.625259,-0.7997304,-2.9691937,0.64530087
0.322,1.1569579,1.1971332,4.9543214,-0.7420701,-2.9157786,0.5873731
0.324,1.3230565,0.8938407,5.2451506,-0.6735929,-2.832818,0.53655696
0.326,1.4890326,0.5796028,5.4919577,-0.5956112,-2.720952,0.4927501
0.328,1.655023,0.25519508,5.690245,-0.50983536,-2.5817678,0.4556114
0.33,1.8214056,-0.07866335,5.836417,-0.41821843,-2.4177895,0.4246904
0.332,1.9887359,-0.42230058,5.9286904,-0.32284117,-2.232169,0.39938956
0.334,2.1574547,-0.7768996,5.968057,-0.22593623,-2.028801,0.37904653
0.336,2.3303242,-1.1454536,5.9588146,-0.12978178,-1.8123087,0.362905
0.338,2.510887,-1.5298172,5.9045277,-0.03686756,-1.5881304,0.35013118
0.34,2.695736,-1.9285986,5.8068614,0.05012113,-1.362117,0.33990473
0.342,2.8772647,-2.3387177,5.6661115,0.12873822,-1.1397991,0.3312888
0.344,3.0673904,-2.7667804,5.4930687,0.19657645,-0.9271373,0.3231152
0.346,3.2745075,-3.2179682,5.293435,0.25127155,-0.73012245,0.31455004
0.348,3.4878554,-3.6854768,5.0716605,0.29066104,-0.55404335,0.30503824
0.35,3.7107904,-4.162287,4.841567,0.31294733,-0.40353668,0.29388615
0.352,3.9487371,-4.6431828,4.609439,0.31690535,-0.28227314,0.28038067
0.354,4.201576,-5.127501,4.3818445,0.3020443,-0.19262952,0.26405567
0.356,4.468435,-5.6131177,4.1717315,0.2686374,-0.13559705,0.24486779
0.358,4.7484884,-6.090563,3.978008,0.21761698,-0.11058682,0.2232915
0.36,5.040552,-6.550591,3.7991915,0.15043537,-0.115449056,0.20037451
0.362,5.3417487,-6.9884815,3.649667,0.06892362,-0.14672041,0.17762733
0.364,5.6479845,-7.4025073,3.5424216,-0.02486942,-0.19992965,0.15690976
0.366,5.9560676,-7.7891374,3.475329,-0.128759,-0.26980954,0.1403848
0.368,6.265646,-8.140841,3.4328794,-0.24032663,-0.3507797,0.1300742
0.37,6.5763197,-8.449215,3.403232,-0.35728055,-0.4376697,0.1273238
0.372,6.8837323,-8.704756,3.3823967,-0.47739592,-0.5252283,0.13251787
0.374,7.18149,-8.895266,3.3699017,-0.59790844,-0.6081452,0.14501593
0.376,7.463874,-9.009968,3.3634923,-0.7149485,-0.68138146,0.16411622
0.378,7.7261677,-9.042932,3.3597083,-0.8239712,-0.74055713,0.18951665
0.38,7.9635596,-8.987388,3.3523808,-0.91951877,-0.7797833,0.22076249
0.382,8.173475,-8.836761,3.3293056,-0.9951844,-0.79129326,0.25674474
0.384,8.354131,-8.588814,3.2737346,-1.0438274,-0.7669139,0.2964108
0.386,8.503005,-8.244807,3.1681242,-1.0571665,-0.6972548,0.34031484
0.388,8.616438,-7.807001,2.996731,-1.0261395,-0.5712063,0.3907065
0.39,8.690032,-7.2795353,2.7464955,-0.9425196,-0.37806085,0.44979912
0.392,8.720105,-6.6692977,2.4066546,-0.8002734,-0.109169364,0.5187556
0.394,8.703398,-5.9871416,1.9701567,-0.59595156,0.24120988,0.5979387
0.396,8.637493,-5.2459335,1.4337059,-0.3293992,0.6744788,0.6865295
0.398,8.522087,-4.460059,0.7970532,-0.004136443,1.1870021,0.7814835
0.4,8.359293,-3.645134,0.063657954,0.37232053,1.7686511,0.87655735
0.402,8.153139,-2.817792,-0.75909525,0.7881088,2.4026103,0.96322525
0.404,7.90899,-1.9949281,-1.6596364,1.2275931,3.0676003,1.03157
0.406,7.6333437,-1.1940274,-2.6221251,1.6725035,3.7392933,1.0707244
0.408,7.333588,-0.43247604,-3.6273885,2.1029172,4.3908377,1.070927
0.41,7.018524,0.27321696,-4.653839,2.4986134,4.994477,1.0253878
0.412,6.6974177,0.9082196,-5.6773057,2.8407307,5.523052,0.9311023
0.414,6.3800173,1.4602127,-6.672993,3.1131911,5.95122,0.7892284
0.416,6.076568,1.9199452,-7.6156483,3.3036876,6.256785,0.60521287
0.418,5.7990456,2.2803712,-8.4804535,3.4044178,6.422194,0.38820183
0.42,5.5567484,2.5381248,-9.244381,3.4124355,6.435993,0.14963916
0.422,5.3557835,2.6948488,-9.887448,3.3297572,6.2943563,-0.09819026
0.424,5.204523,2.7545135,-10.393109,3.1635892,6.002287,-0.34331262
0.426,5.1090374,2.7228045,-10.750664,2.9257076,5.5734262,-0.5752571
0.428,5.073264,2.605426,-10.951488,2.6311674,5.02975,-0.78602016
0.43,5.0991597,2.4097097,-10.989445,2.2970662,4.4004574,-0.9708899
0.432,5.1862245,2.1461768,-10.86355,1.941882,3.7197518,-1.1278894
0.434,5.331436,1.8272388,-10.578543,1.5836763,3.022094,-1.2565283
0.436,5.52973,1.4663,-10.14436,1.238647,2.3397975,-1.3572444
0.438,5.7744875,1.0763967,-9.575703,0.9199947,1.7014712,-1.4318466
0.44,6.0572762,0.67032266,-8.890385,0.6367308,1.1285714,-1.4838777
0.442,6.3679113,0.26041746,-8.108887,0.3937265,0.63393307,-1.5174727
0.444,6.6955204,-0.14145708,-7.2532063,0.19270724,0.22328301,-1.5356908
0.446,7.027071,-0.5242934,-6.346186,0.03286862,-0.10365723,-1.5406681
0.448,7.3490596,-0.88010025,-5.407296,-0.08924776,-0.3524166,-1.5347301
0.45,7.655075,-1.2053647,-4.4526143,-0.17900255,-0.53162646,-1.5201808
0.452,7.9402514,-1.4975002,-3.4959993,-0.2423661,-0.6505928,-1.4986362
0.454,8.182606,-1.7464883,-2.5587554,-0.2850051,-0.717861,-1.4710438
0.456,8.369303,-1.9473925,-1.6525192,-0.31166103,-0.7410305,-1.438399
0.458,8.505653,-2.106601,-0.78584003,-0.32616848,-0.7273582,-1.4016412
0.46,8.582607,-2.228601,0.027395621,-0.33162025,-0.68338597,-1.3615984
0.462,8.592764,-2.3145719,0.7835296,-0.33026502,-0.6143496,-1.3198605
0.464,8.537156,-2.3623643,1.4789288,-0.3237012,-0.5248245,-1.2786165
0.466,8.417201,-2.371116,2.1066506,-0.31326482,-0.41907394,-1.2399293
0.468,8.236037,-2.3462691,2.6729934,-0.30017897,-0.30105838,-1.2054873
0.47,7.997401,-2.291389,3.1786149,-0.28549004,-0.17442663,-1.1767021
0.472,7.7082777,-2.2064917,3.6145473,-0.2700397,-0.04264395,-1.1547209
0.474,7.375599,-2.0899673,3.9756355,-0.25453654,0.09098744,-1.1401881
0.476,7.004768,-1.9436457,4.270117,-0.23967765,0.22351985,-1.1331447
0.478,6.5993404,-1.7749853,4.514981,-0.22626825,0.3525492,-1.133269
0.48,6.164744,-1.5922334,4.715609,-0.2152438,0.4762513,-1.1400616
0.482,5.710164,-1.4029458,4.8671737,-0.20754263,0.5934304,-1.1527969
0.484,5.245825,-1.216249,4.9631515,-0.20403114,0.70348114,-1.1705891
0.486,4.78016,-1.0383592,5.0012374,-0.20544854,0.8062825,-1.1924782
0.488,4.319644,-0.8708235,4.981581,-0.21233514,0.9020698,-1.2175074
0.49,3.8704314,-0.7175628,4.9076405,-0.22502425,0.9913008,-1.2447748
0.492,3.4374142,-0.58327186,4.7873964,-0.24353606,1.0746014,-1.2735502
0.494,3.0245576,-0.46926773,4.630681,-0.2675801,1.1527077,-1.3032665
0.496,2.636963,-0.3762871,4.4450707,-0.2966128,1.2263792,-1.333475
0.498,2.2801979,-0.30645323,4.2348046,-0.32969487,1.2967104,-1.3637273
0.5,1.9596004,-0.26236755,4.0020547,-0.3655433,1.3649795,-1.3936362
0.502,1.6788304,-0.24571991,3.7486174,-0.40278512,1.4322748,-1.4226824
0.504,1.4401911,-0.2562949,3.4747758,-0.43983042,1.5000619,-1.4500446
0.506,1.2448013,-0.29411513,3.1811025,-0.47505927,1.5698266,-1.4750531
0.508,1.0918233,-0.35891914,2.868598,-0.50694895,1.6429629,-1.4971045
0.51,0.9789094,-0.4498704,2.5382216,-0.5340713,1.7208545,-1.5155017
0.512,0.90289664,-0.5663022,2.1911,-0.5552158,1.8046309,-1.5296464
0.514,0.8607518,-0.70770824,1.8285656,-0.56947553,1.8950329,-1.5391484
0.516,0.8498382,-0.87247616,1.4514456,-0.57630116,1.9923315,-1.5438728
0.518,0.86647576,-1.0579456,1.0613658,-0.57554877,2.0961022,-1.5439487
0.52,0.9072603,-1.2615612,0.6600303,-0.56751263,2.205147,-1.5396987
0.522,0.9691318,-1.4805641,0.25010863,-0.5529504,2.3174872,-1.531546
0.524,1.0480993,-1.7124486,-0.16490021,-0.5330735,2.4303694,-1.5199958
0.526,1.1399981,-1.9549992,-0.5822843,-0.5094613,2.5404286,-1.5055434
0.528,1.240464,-2.2058892,-0.99926543,-0.48397076,2.6438265,-1.4886044
0.53,1.3449624,-2.4625077,-1.412691,-0.45859826,2.7364793,-1.4694479
0.532,1.449066,-2.7224913,-1.8192732,-0.43531156,2.814395,-1.448154
0.534,1.5484614,-2.983924,-2.214898,-0.41595435,2.8738785,-1.4246676
0.536,1.6392382,-3.2448535,-2.5954666,-0.40218663,2.911733,-1.3988914
0.538,1.7162488,-3.503222,-2.9563923,-0.39541137,2.9254212,-1.3707541
0.54,1.7748264,-3.7568998,-3.293753,-0.39675033,2.9130945,-1.3403773
0.542,1.8116189,-4.004002,-3.6057816,-0.40707076,2.8736534,-1.3081244
0.544,1.8243519,-4.2435575,-3.8910406,-0.42696857,2.8067827,-1.2745922
0.546,1.809637,-4.4747095,-4.1474037,-0.45682108,2.7128937,-1.2406068
0.548,1.7652316,-4.6970654,-4.372723,-0.49673903,2.5931818,-1.2071643
0.55,1.6882665,-4.9094524,-4.565434,-0.546547,2.4497728,-1.175246
0.552,1.5767887,-5.110748,-4.723447,-0.605872,2.285379,-1.1457734
0.554,1.4302018,-5.300967,-4.8450274,-0.67405224,2.1035073,-1.1194656
0.556,1.2511592,-5.4815207,-4.932225,-0.7499802,1.9086256,-1.0969065
0.558,1.0406106,-5.653695,-4.988391,-0.8324022,1.7052974,-1.078613
0.56,0.7975426,-5.818515,-5.0140815,-0.91984355,1.4983432,-1.0647657
0.562,0.5262196,-5.977786,-5.0135107,-1.0106736,1.2924571,-1.0555227
0.564,0.23010278,-6.1328487,-4.991986,-1.1032554,1.0917732,-1.0512755
0.566,-0.08636665,-6.286453,-4.9528084,-1.1959383,0.89977497,-1.0525627
0.568,-0.4168303,-6.441861,-4.9010653,-1.2871578,0.71904206,-1.0600909
0.57,-0.7569022,-6.600046,-4.84006,-1.3754557,0.55134094,-1.0746548
0.572,-1.1023452,-6.7618084,-4.7709866,-1.4596113,0.39775848,-1.0971916
0.574,-1.4470346,-6.929146,-4.6959534,-1.5386556,0.25863087,-1.1287596
0.576,-1.784976,-7.104395,-4.6166167,-1.6118435,0.1337111,-1.1705235
0.578,-2.1099544,-7.2901254,-4.534534,-1.6785247,0.02254057,-1.2236085
0.58,-2.413453,-7.4884596,-4.4511805,-1.7381976,-0.07556939,-1.2890542
0.582,-2.6901174,-7.6985626,-4.372373,-1.7905682,-0.16150302,-1.367818
0.584,-2.9327934,-7.920942,-4.2997146,-1.8355415,-0.23620683,-1.460655
0.586,-3.1337907,-8.156871,-4.2321267,-1.8732061,-0.30070895,-1.5679332
0.588,-3.2875562,-8.4058,-4.170296,-1.9038774,-0.3566572,-1.6896842
0.59,-3.3899667,-8.6665,-4.1144295,-1.928288,-0.4064247,-1.8255458
0.592,-3.4375656,-8.93759,-4.064452,-1.94752,-0.45261288,-1.9744325
0.594,-3.4288812,-9.21644,-4.0197167,-1.962922,-0.49843466,-2.1347437
0.596,-3.3652434,-9.499067,-3.9781957,-1.9759321,-0.5475812,-2.304354
0.598,-3.2498896,-9.780684,-3.9374046,-1.9877598,-0.60357356,-2.4803007
0.6,-3.0875697,-10.055441,-3.8940225,-1.9992065,-0.66953766,-2.658995
0.602,-2.8838878,-10.317231,-3.8449118,-2.0105755,-0.74771225,-2.8362927
0.604,-2.644867,-10.560415,-3.7877545,-2.021449,-0.8388617,-3.007514
0.606,-2.3775067,-10.779837,-3.721459,-2.0306363,-0.9420787,-3.1676884
0.608,-2.0892048,-10.971564,-3.6458635,-2.0363097,-1.0546019,-3.3116136
0.61,-1.7866845,-11.133412,-3.560886,-2.0360277,-1.1716163,-3.4340615
0.612,-1.4853003,-11.26101,-3.466353,-2.0268936,-1.2864578,-3.5303283
0.614,-1.1896081,-11.354802,-3.373458,-2.005847,-1.390796,-3.596695
0.616,-0.905617,-11.415144,-3.2956676,-1.9699091,-1.4748269,-3.6307244
0.618,-0.6456785,-11.442203,-3.236969,-1.9164634,-1.5278268,-3.6315439
0.62,-0.41921663,-11.436894,-3.2013092,-1.8435149,-1.5388904,-3.5999732
0.622,-0.23134899,-11.400913,-3.19562,-1.7497972,-1.4977453,-3.5385303
0.624,-0.087800026,-11.335511,-3.2230606,-1.6349218,-1.3959284,-3.4512548
0.626,0.0067625046,-11.242765,-3.2862577,-1.4994146,-1.2277262,-3.3431876
0.628,0.051457405,-11.126673,-3.3927722,-1.3448672,-0.99107736,-3.2199557
0.63,0.046640873,-10.992002,-3.5476975,-1.1741813,-0.68862754,-3.0872579
0.632,-0.0061893463,-10.842563,-3.7538095,-0.99160546,-0.3282323,-2.95051
0.634,-0.10448694,-10.680824,-4.0133085,-0.8024478,0.0773384,-2.8145573
0.636,-0.24439883,-10.509758,-4.3240995,-0.61280453,0.51104486,-2.6834748
0.638,-0.42037797,-10.332607,-4.6806154,-0.4292387,0.95271695,-2.5604734
0.64,-0.62653065,-10.152008,-5.076998,-0.25823575,1.3808599,-2.4480443
0.642,-0.8570876,-9.96933,-5.5051665,-0.10599589,1.7744964,-2.3480036
0.644,-1.1052539,-9.785547,-5.9554205,0.02221483,2.1154327,-2.2612774
0.646,-1.364429,-9.60057,-6.41761,0.12258315,2.3889046,-2.18853
0.648,-1.6271615,-9.414516,-6.881529,0.19291097,2.5849173,-2.1301246
0.65,-1.8864025,-9.227854,-7.3362365,0.23263311,2.6995115,-2.0859573
0.652,-2.1366498,-9.041688,-7.770051,0.24274206,2.7341983,-2.055778
0.654,-2.3729708,-8.85719,-8.172861,0.22575766,2.6951938,-2.0390582
0.656,-2.5904517,-8.675645,-8.536304,0.1856677,2.5928242,-2.0349994
0.658,-2.785977,-8.497549,-8.85267,0.12740046,2.439902,-2.0425818
0.66,-2.9566162,-8.323892,-9.115137,0.05620873,2.2501798,-2.0603762
0.662,-3.1011584,-8.155336,-9.319189,-0.02274707,2.0372334,-2.086698
0.664,-3.2195377,-7.9923744,-9.462173,-0.10492751,1.8133731,-2.1198626
0.666,-3.3145905,-7.835388,-9.540985,-0.18670458,1.5889677,-2.1580894
0.668,-3.3862205,-7.6862545,-9.554911,-0.26544705,1.3721437,-2.1994593
0.67,-3.4326441,-7.5482273,-9.507499,-0.33941245,1.1686746,-2.2421055
0.672,-3.4572704,-7.4231625,-9.402315,-0.40754664,0.9822583,-2.284421
0.674,-3.461206,-7.3143597,-9.242491,-0.4693486,0.81502354,-2.3250928
0.676,-3.44589,-7.2235174,-9.035259,-0.5247186,0.6679184,-2.3631673
0.678,-3.4133227,-7.1518555,-8.786862,-0.57380587,0.5410405,-2.3981822
0.68,-3.363911,-7.1016884,-8.505756,-0.61678964,0.43400115,-2.430204
0.682,-3.29686,-7.0747585,-8.201266,-0.6537187,0.34617993,-2.4596663
0.684,-3.2135496,-7.0708046,-7.8801494,-0.68441296,0.27693287,-2.4872444
0.686,-3.1140456,-7.0894265,-7.549037,-0.7085748,0.22558528,-2.5136619
0.688,-2.9991915,-7.1295266,-7.2134323,-0.72593933,0.19148356,-2.539477
0.69,-2.8702636,-7.190349,-6.876375,-0.7363339,0.17399985,-2.5650134
0.692,-2.7266698,-7.271771,-6.5406494,-0.7397178,0.1724217,-2.5904381
0.694,-2.56817,-7.3727,-6.209793,-0.73625445,0.18578517,-2.6157253
0.696,-2.3946376,-7.491118,-5.887971,-0.72600305,0.2130627,-2.640522
0.698,-2.2051756,-7.6253085,-5.5787344,-0.70912975,0.25244695,-2.6645226
0.7,-1.9983796,-7.7741947,-5.2845335,-0.68612576,0.30187437,-2.68704
0.702,-1.7740874,-7.936439,-5.007206,-0.6576274,0.35903558,-2.7070677
0.704,-1.532417,-8.110943,-4.7485514,-0.6243561,0.42069143,-2.7238429
0.706,-1.2732337,-8.297027,-4.5099363,-0.5872067,0.48343036,-2.7366023
0.708,-0.99735355,-8.493385,-4.291627,-0.5472489,0.5442537,-2.7445035
0.71,-0.7062894,-8.698617,-4.0935874,-0.5057979,0.60026765,-2.7468536
0.712,-0.4027642,-8.911277,-3.914713,-0.46425807,0.64925444,-2.7431693
0.714,-0.09046054,-9.128917,-3.7531242,-0.42393157,0.6900786,-2.7331922
0.716,0.22709632,-9.348894,-3.606698,-0.38597453,0.7222765,-2.71687
0.718,0.5459218,-9.567833,-3.4736724,-0.35140303,0.7459573,-2.694216
0.72,0.86104584,-9.781951,-3.3535254,-0.3210442,0.7618304,-2.665279
0.722,1.1746848,-9.99045,-3.2463713,-0.29561222,0.7708717,-2.6303194
0.724,1.477917,-10.189901,-3.1426778,-0.2757634,0.77421844,-2.5897748
0.726,1.7654426,-10.378838,-3.0356598,-0.26203224,0.77317184,-2.5441227
0.728,2.0384214,-10.556934,-2.9301429,-0.2546979,0.76901317,-2.493937
0.73,2.29492,-10.723574,-2.8305004,-0.25377765,0.7630175,-2.4398274
0.732,2.5307138,-10.877822,-2.7384198,-0.25900364,0.75648695,-2.382402
0.734,2.7444682,-11.019876,-2.6586297,-0.26994327,0.7506024,-2.322278
0.736,2.935223,-11.149995,-2.593987,-0.28602436,0.7463951,-2.2601328
0.738,3.1011755,-11.267147,-2.541964,-0.30654413,0.7447362,-2.1966856
0.74,3.240427,-11.370104,-2.5027206,-0.3307231,0.74621135,-2.1327124
0.742,3.3524752,-11.45922,-2.478647,-0.35772678,0.7510696,-2.0689392
0.744,3.438321,-11.536096,-2.471417,-0.38675597,0.7592121,-2.0058997
0.746,3.4993446,-11.602053,-2.484122,-0.4171173,0.77018607,-1.9439051
0.748,3.5362659,-11.658341,-2.5198967,-0.44827485,0.78320575,-1.8830222
0.75,3.550344,-11.706388,-2.579439,-0.47986877,0.7972154,-1.823197
0.752,3.5439715,-11.7479725,-2.66362,-0.51162344,0.81105363,-1.7643483
0.754,3.5188172,-11.784497,-2.772967,-0.5432908,0.823568,-1.7064701
0.756,3.4771311,-11.818242,-2.9063601,-0.57457066,0.83378345,-1.6495887
0.758,3.4211915,-11.851156,-3.0619226,-0.6050519,0.8410396,-1.5937635
0.76,3.352757,-11.884522,-3.237315,-0.6341856,0.8449718,-1.5393168
0.762,3.2732148,-11.918863,-3.4294386,-0.66125953,0.84558964,-1.4867884
0.764,3.184249,-11.954472,-3.635197,-0.68538195,0.8432168,-1.4368397
0.766,3.0880435,-11.992246,-3.85224,-0.7054665,0.8384735,-1.3901953
0.768,2.9871016,-12.033831,-4.078907,-0.72026205,0.83225286,-1.3475313
0.77,2.8837562,-12.080749,-4.313218,-0.72846955,0.8255962,-1.3093743
0.772,2.7801118,-12.134159,-4.5529094,-0.7288709,0.81953245,-1.2760956
0.774,2.6777816,-12.194378,-4.795021,-0.72041017,0.8150245,-1.247943
0.776,2.5780656,-12.261045,-5.035857,-0.7022212,0.8129091,-1.2250972
0.778,2.4816742,-12.333398,-5.271683,-0.6737412,0.8138073,-1.2076607
0.78,2.388431,-12.410378,-5.500204,-0.6347693,0.81814396,-1.1956708
0.782,2.2980063,-12.4918585,-5.718507,-0.58548725,0.82622457,-1.1892475
0.784,2.209792,-12.576384,-5.926437,-0.526404,0.83821905,-1.188687
0.786,2.1233127,-12.663652,-6.123165,-0.4582905,0.85413575,-1.194359
0.788,2.0383565,-12.7528515,-6.308284,-0.38214076,0.8738346,-1.2066475
0.79,1.954882,-12.843596,-6.482441,-0.2991275,0.8970097,-1.2258871
0.792,1.8721814,-12.935584,-6.647106,-0.21056506,0.92314464,-1.2522582
0.794,1.7886152,-13.0286255,-6.8037167,-0.117839515,0.9515079,-1.2857193
0.796,1.7016181,-13.122299,-6.953726,-0.022385703,0.9810876,-1.3260028
0.798,1.6091547,-13.216193,-7.0990014,0.074363835,1.0105482,-1.3725697
0.8,1.5082093,-13.308955,-7.2415686,0.1710272,1.0383422,-1.4245594
0.802,1.3956112,-13.399303,-7.382611,0.26631644,1.0627745,-1.4808885
0.804,1.2685801,-13.486334,-7.5228767,0.35906264,1.0820658,-1.5402434
0.806,1.1241999,-13.569095,-7.6637826,0.4481968,1.094425,-1.6011202
0.808,0.95983493,-13.64681,-7.8068657,0.53278583,1.0981618,-1.6618874
0.81,0.77293456,-13.718475,-7.9528036,0.6120311,1.091781,-1.7208416
0.812,0.5611143,-13.783088,-8.102661,0.68530685,1.0740218,-1.7762023
0.814,0.32194808,-13.838814,-8.257062,0.7520947,1.0439883,-1.8262004
0.816,0.052580476,-13.883572,-8.416164,0.81203675,1.0011276,-1.8690573
0.818,-0.2486878,-13.915634,-8.580068,0.86500186,0.94536406,-1.9032627
0.82,-0.58331996,-13.93311,-8.748936,0.9110295,0.8770117,-1.927761
0.822,-0.95192915,-13.934606,-8.922669,0.9503527,0.7966977,-1.9419786
0.824,-1.3537784,-13.917813,-9.099872,0.98341984,0.7053397,-1.9457942
0.826,-1.7890294,-13.881821,-9.278452,1.0109195,0.6042038,-1.9395227
0.828,-2.2550654,-13.82598,-9.456604,1.0337317,0.49480572,-1.9238935
0.83,-2.748819,-13.75044,-9.631916,1.0528586,0.378759,-1.900042
0.832,-3.2660336,-13.655883,-9.8020525,1.0693661,0.2576419,-1.8695512
0.834,-3.8020663,-13.542593,-9.966452,1.0843469,0.13296464,-1.8343182
0.836,-4.3524027,-13.411129,-10.125003,1.0988375,0.006018102,-1.7963998
0.838,-4.91132,-13.262815,-10.275896,1.1137284,-0.122225255,-1.7580084
0.84,-5.472444,-13.099614,-10.416442,1.1296461,-0.25118786,-1.7214582
0.842,-6.029401,-12.924064,-10.543528,1.1469599,-0.38070104,-1.6890237
0.844,-6.5750856,-12.739607,-10.653759,1.1657797,-0.5108985,-1.6629157
0.846,-7.1016054,-12.549933,-10.745046,1.1859895,-0.64211786,-1.6451381
0.848,-7.6012845,-12.359066,-10.816893,1.207289,-0.77474153,-1.6372396
0.85,-8.066773,-12.171223,-10.867992,1.2292265,-0.90909207,-1.6402074
0.852,-8.491096,-11.990916,-10.895376,1.2512794,-1.0453024,-1.6544449
0.854,-8.868113,-11.822181,-10.896088,1.2731013,-1.182991,-1.6797743
0.856,-9.192316,-11.668627,-10.867836,1.2943801,-1.32159,-1.7153999
0.858,-9.457414,-11.534132,-10.809035,1.3150132,-1.4600588,-1.7600706
0.86,-9.657823,-11.423127,-10.718813,1.335094,-1.5970395,-1.8122097
0.862,-9.789453,-11.33978,-10.59667,1.3549277,-1.7307839,-1.8700397
0.864,-9.849293,-11.287811,-10.442313,1.3750266,-1.8592838,-1.9317311
0.866,-9.834938,-11.269937,-10.255862,1.3959557,-1.9805491,-1.9955282
0.868,-9.74486,-11.288108,-10.037874,1.4183278,-2.0925975,-2.059739
0.87,-9.578338,-11.344155,-9.789042,1.4426408,-2.1935217,-2.122856
0.872,-9.335204,-11.439217,-9.510542,1.4691371,-2.2818873,-2.183493
0.874,-9.017117,-11.573887,-9.204158,1.4978349,-2.356814,-2.2403784
0.876,-8.626231,-11.748045,-8.8721695,1.5285584,-2.417935,-2.2923813
0.878,-8.166066,-11.960735,-8.517995,1.560951,-2.465498,-2.3386202
0.88,-7.641039,-12.209929,-8.145795,1.5944711,-2.500541,-2.37845
0.882,-7.057246,-12.492298,-7.759638,1.6284251,-2.5247626,-2.4114113
0.884,-6.420946,-12.8043,-7.362967,1.6620557,-2.540271,-2.437189
0.886,-5.7396097,-13.141509,-6.9596157,1.694636,-2.5494049,-2.4556043
0.888,-5.0221314,-13.498688,-6.55355,1.725548,-2.554576,-2.4666762
0.89,-4.2775164,-13.869806,-6.1486278,1.7543775,-2.5580087,-2.470499
0.892,-3.5150664,-14.248715,-5.749047,1.7809243,-2.561535,-2.4670854
0.894,-2.7454844,-14.629101,-5.3578367,1.8052281,-2.5663676,-2.4563365
0.896,-1.9802132,-15.003018,-4.979369,1.8275086,-2.5730977,-2.4380343
0.898,-1.2314885,-15.363077,-4.6178303,1.8480513,-2.5817857,-2.4117398
0.9,-0.5108235,-15.701153,-4.27635,1.86711,-2.5920753,-2.3768845
0.902,0.17050076,-16.00921,-3.9565935,1.8848684,-2.6033444,-2.3329284
0.904,0.8015218,-16.279623,-3.6603353,1.9014068,-2.6148891,-2.2794585
0.906,1.371911,-16.50628,-3.3896222,1.9166456,-2.6261194,-2.2162528
0.908,1.873991,-16.684744,-3.145107,1.9301976,-2.6369596,-2.1434028
0.91,2.3006754,-16.81118,-2.9272099,1.9416032,-2.647563,-2.061435
0.912,2.6454556,-16.882036,-2.7367265,1.9502022,-2.6586685,-1.9713721
0.914,2.9039366,-16.89429,-2.57399,1.9552419,-2.6713753,-1.8747159
0.916,3.072663,-16.845844,-2.4381204,1.955926,-2.6871448,-1.7733965
0.918,3.1502552,-16.735756,-2.3269436,1.9514471,-2.7076256,-1.669639
0.92,3.1371906,-16.564392,-2.2381835,1.9411063,-2.7343805,-1.5658133
0.922,3.0360563,-16.334135,-2.1679664,1.9243062,-2.768979,-1.4643075
0.924,2.8514426,-16.049314,-2.1120994,1.9005784,-2.8128903,-1.3673732
0.926,2.5898685,-15.714879,-2.0663772,1.869637,-2.8672051,-1.276936
0.928,2.258598,-15.336205,-2.0261488,1.8313369,-2.9327404,-1.1945552
0.93,1.866726,-14.919151,-1.9865475,1.7855589,-3.010097,-1.1214521
0.932,1.4242492,-14.469505,-1.9427527,1.7322636,-3.0995798,-1.0584134
0.934,0.9420333,-13.994484,-1.8904083,1.6715269,-3.201055,-1.0057526
0.936,0.43366337,-13.500288,-1.8245997,1.6035095,-3.3140912,-0.96338415
0.938,-0.08854103,-12.993329,-1.7397718,1.5284393,-3.437946,-0.9307308
0.94,-0.6111522,-12.479336,-1.6309751,1.4466019,-3.5714655,-0.9067375
0.942,-1.1209133,-11.9637375,-1.4936345,1.358253,-3.713126,-0.8898895
0.944,-1.6041639,-11.451843,-1.3229613,1.26366,-3.8609974,-0.87833464
0.946,-2.0470378,-10.947873,-1.1151248,1.16309,-4.0128803,-0.8699574
0.948,-2.4374986,-10.455341,-0.8681333,1.056823,-4.166424,-0.86249626
0.95,-2.7650905,-9.9764805,-0.58018184,0.9451698,-4.3190765,-0.8535868
0.952,-3.0209386,-9.511756,-0.25010657,0.8284737,-4.4681354,-0.8408433
0.954,-3.1984868,-9.0596075,0.12180525,0.7071047,-4.6107597,-0.82195735
0.956,-3.2931356,-8.617698,0.53578097,0.58146226,-4.744012,-0.7947787
0.958,-3.3014429,-8.183149,0.9925566,0.45196933,-4.8648677,-0.7574594
0.96,-3.2214572,-7.7529035,1.4919591,0.31910157,-4.970251,-0.7086141
0.962,-3.0536733,-7.3230567,2.0322156,0.18341607,-5.057128,-0.64744574
0.964,-2.8005579,-6.889235,2.6104665,0.045502305,-5.122611,-0.5738435
0.966,-2.4666524,-6.4467397,3.224088,-0.094005585,-5.1640844,-0.48837882
0.968,-2.0592318,-5.990636,3.870622,-0.23449254,-5.179342,-0.39235753
0.97,-1.5872681,-5.515704,4.5471396,-0.37539303,-5.166626,-0.28776324
0.972,-1.0597641,-5.017373,5.2498746,-0.51623535,-5.1247096,-0.17711687
0.974,-0.4864595,-4.4914784,5.974164,-0.6566831,-5.052983,-0.06326091
0.976,0.122109056,-3.9346273,6.714512,-0.7965745,-4.9513893,0.050774395
0.978,0.7555684,-3.3441496,7.464977,-0.9359117,-4.8204026,0.16197622
0.98,1.4032878,-2.7175426,8.218614,-1.0748949,-4.6610327,0.26753658
0.982,2.0549958,-2.0532513,8.968338,-1.2138934,-4.474646,0.36503726
0.984,2.7017548,-1.3503588,9.707649,-1.3533937,-4.26294,0.45257908
0.986,3.3351643,-0.60855234,10.430225,-1.4940054,-4.027914,0.5287838
0.988,3.94818,0.17173779,11.129684,-1.636414,-3.7718096,0.5927336
0.99,4.535901,0.98899984,11.799667,-1.7812998,-3.4970102,0.6439438
0.992,5.0945787,1.8411192,12.43321,-1.9293101,-3.206028,0.6823322
0.994,5.6212177,2.7257504,13.0230665,-2.0810378,-2.9014745,0.7081667
0.996,6.114673,3.6403255,13.562838,-2.236943,-2.5860415,0.7219876
0.998,6.5749087,4.5820084,14.047459,-2.3974125,-2.2624714,0.7245656
1,7.0027895,5.5479083,14.47282,-2.5627,-1.9334222,0.71688163
1.002,7.3996305,6.5349035,14.83659,-2.7330143,-1.6015811,0.7000595
1.004,7.767841,7.5395236,15.13703,-2.9085202,-1.2697085,0.67523366
1.006,8.10996,8.557533,15.374218,-3.0893497,-0.94057345,0.6434662
1.008,8.428534,9.584841,15.548943,-3.2755923,-0.6169307,0.60569775
1.01,8.725602,10.617277,15.66214,-3.4672797,-0.30150712,0.5626865
1.012,9.003275,11.651288,15.715258,-3.6643593,0.0029881,0.51501274
1.014,9.26434,12.683272,15.711379,-3.8667116,0.29392886,0.46310157
1.016,9.511065,13.710181,15.655342,-4.0741286,0.56892014,0.40725103
1.018,9.742792,14.729379,15.552147,-4.28631,0.82581705,0.34763074
1.02,9.960041,15.737083,15.407637,-4.502929,1.062786,0.28427505
1.022,10.163372,16.729362,15.228274,-4.723603,1.2783413,0.21714908
1.024,10.352141,17.702156,15.021307,-4.9479685,1.4713691,0.14618915
1.026,10.526492,18.651552,14.794447,-5.1756806,1.6412427,0.07135767
1.028,10.686082,19.57402,14.554338,-5.406415,1.7878747,-0.0073561072
1.03,10.8300495,20.466967,14.307331,-5.6398735,1.9117181,-0.08987391
1.032,10.958267,21.328276,14.05928,-5.875723,2.013758,-0.1760385
1.034,11.070329,22.156399,13.815691,-6.113598,2.095499,-0.26559782
1.036,11.166359,22.94994,13.581704,-6.3530183,2.1589212,-0.35820735
1.038,11.246493,23.707853,13.361952,-6.593396,2.206386,-0.4533744
1.04,11.310724,24.42929,13.160574,-6.8340487,2.2405431,-0.55050135
1.042,11.359201,25.11376,12.980878,-7.0742183,2.2641554,-0.6489204
1.044,11.392498,25.761122,12.825096,-7.3130865,2.2799761,-0.7479484
1.046,11.411246,26.371788,12.69429,-7.549803,2.29063,-0.8469622
1.048,11.416464,26.946655,12.588303,-7.783508,2.2985258,-0.945372
1.05,11.409294,27.486757,12.50618,-8.013371,2.3058686,-1.0426456
1.052,11.390772,27.99359,12.446402,-8.238564,2.3146317,-1.1383914
1.054,11.361977,28.46901,12.407135,-8.458272,2.3265724,-1.2323993
1.056,11.323896,28.91454,12.385946,-8.671697,2.3433013,-1.3246099
1.058,11.277678,29.332115,12.379349,-8.878124,2.3662462,-1.4150385
1.06,11.22397,29.72357,12.382988,-9.076882,2.3966975,-1.5037766
1.062,11.1634655,30.090786,12.392159,-9.267357,2.4357922,-1.5909846
1.064,11.096414,30.435535,12.402336,-9.449028,2.484549,-1.6768388
1.066,11.022909,30.759499,12.408778,-9.62145,2.543886,-1.7615274
1.068,10.9427185,31.064358,12.406286,-9.784231,2.6145504,-1.8452239
1.07,10.854977,31.351599,12.389655,-9.936999,2.6970956,-1.9281132
1.072,10.758838,31.622372,12.35375,-10.079439,2.7919111,-2.0103996
1.074,10.653388,31.877766,12.293938,-10.211252,2.8992243,-2.0922785
1.076,10.537061,32.118904,12.206036,-10.332205,3.0191407,-2.173947
1.078,10.40841,32.347023,12.08596,-10.442087,3.1516538,-2.2555718
1.08,10.266382,32.562477,11.930527,-10.540748,3.296556,-2.3373084
1.082,10.109232,32.76555,11.736893,-10.628068,3.4534526,-2.4192533
1.084,9.9354925,32.95636,11.502821,-10.704017,3.62178,-2.5014513
1.086,9.744086,33.13471,11.226995,-10.768637,3.8007824,-2.5839021
1.088,9.53389,33.300133,10.908184,-10.821987,3.9894867,-2.666577
1.09,9.304233,33.452103,10.546478,-10.864234,4.1866164,-2.7494268
1.092,9.05484,33.58972,10.14267,-10.89563,4.390616,-2.8323925
1.094,8.785843,33.711945,9.697607,-10.916491,4.5996017,-2.9153774
1.096,8.498259,33.817516,9.212544,-10.927187,4.8114004,-2.9982815
1.098,8.193214,33.90509,8.690062,-10.928152,5.0235376,-3.0810523
1.1,7.872054,33.972992,8.132941,-10.919886,5.2332573,-3.1637182
1.102,7.5373764,34.019634,7.544859,-10.902928,5.437596,-3.246326
1.104,7.191512,34.043915,6.9296904,-10.8778515,5.6335087,-3.3290272
1.106,6.837386,34.04414,6.29193,-10.845246,5.817954,-3.4120488
1.108,6.4783645,34.018517,5.635888,-10.80572,5.988035,-3.4956632
1.11,6.1174345,33.96548,4.9660296,-10.759895,6.1411343,-3.5801563
1.112,5.7576723,33.884163,4.286763,-10.708362,6.2750006,-3.6657965
1.114,5.402159,33.773922,3.6022162,-10.651749,6.387828,-3.7528133
1.116,5.0537763,33.634373,2.9168906,-10.590696,6.478237,-3.8413653
1.118,4.7151685,33.46552,2.235489,-10.525867,6.545365,-3.9315188
1.12,4.3884406,33.267975,1.5626321,-10.45791,6.588787,-4.023296
1.122,4.0750685,33.04284,0.90237856,-10.387478,6.608614,-4.1166735
1.124,3.775653,32.791786,0.2585721,-10.315199,6.6054645,-4.2115917
1.126,3.4911718,32.516228,-0.3661418,-10.24166,6.5803833,-4.307953
1.128,3.2217605,32.21836,-0.9685664,-10.167334,6.534903,-4.4056625
1.13,2.9672878,31.901152,-1.5460489,-10.092598,6.4709806,-4.5046015
1.132,2.7271583,31.567663,-2.0974245,-10.01771,6.390929,-4.6046743
1.134,2.5002506,31.22158,-2.6218686,-9.942864,6.2974267,-4.7057996
1.136,2.2852519,30.866703,-3.1190445,-9.868191,6.1933546,-4.807884
1.138,2.0804067,30.50691,-3.5890865,-9.793749,6.081703,-4.9108105
1.14,1.8841654,30.14597,-4.032729,-9.71958,5.9655113,-5.0144405
1.142,1.6942267,29.788097,-4.451666,-9.645701,5.847804,-5.1186
1.144,1.508528,29.437563,-4.8483467,-9.572058,5.7316003,-5.223128
1.146,1.3246624,29.098627,-5.2255874,-9.498508,5.619775,-5.3278084
1.148,1.1403046,28.774885,-5.586827,-9.424862,5.515063,-5.432407
1.15,0.95330215,28.470203,-5.9361706,-9.350889,5.419979,-5.5366316
1.152,0.7617657,28.187769,-6.2771106,-9.276359,5.336707,-5.640131
1.154,0.5635538,27.930357,-6.6134043,-9.200958,5.267159,-5.7425203
1.156,0.35676146,27.70004,-6.948773,-9.124354,5.2128468,-5.843398
1.158,0.139925,27.498205,-7.286913,-9.046283,5.1748624,-5.942259
1.16,-0.08826399,27.325863,-7.6313925,-8.966532,5.1539497,-6.0384007
1.162,-0.32849455,27.18346,-7.9855337,-8.88493,5.1504507,-6.131049
1.164,-0.5808034,27.070656,-8.352062,-8.801296,5.1643825,-6.219373
1.166,-0.84446955,26.98642,-8.733055,-8.715444,5.195532,-6.3024983
1.168,-1.1179333,26.929125,-9.12932,-8.627125,5.243487,-6.3795233
1.17,-1.3980885,26.896282,-9.540297,-8.535988,5.30776,-6.449582
1.172,-1.6831436,26.885088,-9.965135,-8.441544,5.3877554,-6.5118437
1.174,-1.9688416,26.89142,-10.404379,-8.343143,5.482852,-6.565583
1.176,-2.250557,26.911219,-10.858836,-8.240011,5.5922885,-6.6102667
1.178,-2.5231571,26.940287,-11.32228,-8.131253,5.715173,-6.64554
1.18,-2.7821512,26.974813,-11.7877865,-8.015921,5.850392,-6.6713066
1.182,-3.021988,27.0094,-12.252422,-7.8930774,5.9964724,-6.687734
1.184,-3.2362766,27.03934,-12.713289,-7.7618704,6.1516056,-6.6952915
1.186,-3.4185123,27.060333,-13.169117,-7.6215744,6.313587,-6.694614
1.188,-3.5616875,27.068388,-13.617401,-7.471675,6.479758,-6.686507
1.19,-3.6604939,27.060055,-14.053995,-7.3118615,6.647061,-6.6719174
1.192,-3.7107773,27.031761,-14.474954,-7.142085,6.8121223,-6.6518693
1.194,-3.7084246,26.980206,-14.87829,-6.962494,6.971299,-6.6274314
1.196,-3.6503859,26.903048,-15.263953,-6.773428,7.120758,-6.5996423
1.198,-3.534379,26.79866,-15.631902,-6.5754204,7.256579,-6.569521
1.2,-3.3591232,26.665886,-15.983001,-6.369082,7.3749447,-6.5381026
1.202,-3.1250944,26.504162,-16.31823,-6.1550727,7.4721904,-6.5063295
1.204,-2.834155,26.313095,-16.639584,-5.9340506,7.544908,-6.4750133
1.206,-2.4894438,26.093012,-16.9497,-5.706782,7.5900187,-6.4449434
1.208,-2.0949955,25.844662,-17.251923,-5.4741735,7.604793,-6.4169145
1.21,-1.656579,25.569538,-17.549828,-5.237089,7.5872784,-6.391512
1.212,-1.1805134,25.269165,-17.847593,-4.9964695,7.536101,-6.3690495
1.214,-0.67392445,24.945343,-18.148954,-4.753277,7.450273,-6.3497276
1.216,-0.14454174,24.600368,-18.457,-4.508486,7.329391,-6.33356
1.218,0.39940834,24.236958,-18.77443,-4.263199,7.1736975,-6.3204484
1.22,0.94939995,23.85774,-19.103333,-4.018634,6.9840546,-6.310259
1.222,1.497056,23.465172,-19.445524,-3.775999,6.7620325,-6.302783
1.224,2.0344076,23.061808,-19.801731,-3.536423,6.5097923,-6.29767
1.226,2.5538673,22.650236,-20.171993,-3.300947,6.230009,-6.294602
1.228,3.0484962,22.232845,-20.555332,-3.0704553,5.925762,-6.2933035
1.23,3.51235,21.811764,-20.95007,-2.8457205,5.6004224,-6.293542
1.232,3.9404497,21.38909,-21.353891,-2.6273394,5.257469,-6.295159
1.234,4.329152,20.966677,-21.764006,-2.4157224,4.9004574,-6.2979913
1.236,4.675047,20.54701,-22.176548,-2.2110593,4.5328026,-6.3018093
1.238,4.976596,20.13177,-22.5882,-2.0133743,4.1577225,-6.306351
1.24,5.2331963,19.721811,-22.994957,-1.82255,3.7782516,-6.3113294
1.242,5.4451866,19.31809,-23.391752,-1.6383432,3.3972168,-6.3163886
1.244,5.613817,18.921839,-23.774029,-1.4604577,3.017234,-6.321105
1.246,5.7411957,18.534275,-24.137468,-1.2885867,2.6407104,-6.3249393
1.248,5.830059,18.156404,-24.477617,-1.1224291,2.2698407,-6.3272552
1.25,5.883711,17.788885,-24.79046,-0.96170306,1.9065826,-6.3273706
1.252,5.905861,17.432337,-25.072603,-0.80614334,1.5526004,-6.324511
1.254,5.900787,17.087336,-25.321016,-0.65551245,1.2092464,-6.317871
1.256,5.8729014,16.754395,-25.533587,-0.50961185,0.87749106,-6.3066616
1.258,5.8268366,16.434557,-25.708889,-0.36828387,0.55798626,-6.290146
1.26,5.7673106,16.128578,-25.84609,-0.23129201,0.25104934,-6.267496
1.262,5.699017,15.837547,-25.946175,-0.09843063,-0.043319404,-6.2379417
1.264,5.6263514,15.5629835,-26.010494,0.030403882,-0.32560626,-6.2009296
1.266,5.554021,15.306299,-26.040792,0.15536441,-0.59631324,-6.1561403
1.268,5.4860764,15.068863,-26.03924,0.2765578,-0.85587674,-6.1033053
1.27,5.4263387,14.85203,-26.008287,0.3940686,-1.1047986,-6.0422897
1.272,5.377976,14.657127,-25.951216,0.5080798,-1.3436773,-5.973133
1.274,5.343459,14.485685,-25.872227,0.6188386,-1.5731308,-5.8960834
1.276,5.3250675,14.3391285,-25.775568,0.7265307,-1.7938302,-5.811728
1.278,5.324333,14.218716,-25.665834,0.83130944,-2.0064943,-5.72098
1.28,5.3419867,14.125959,-25.548168,0.933332,-2.2117982,-5.624885
1.282,5.3799863,14.061726,-25.426796,1.0327748,-2.4104884,-5.524568
1.284,5.43801,14.027301,-25.303932,1.1298426,-2.6033564,-5.4212017
1.286,5.5156527,14.02313,-25.181826,1.2247069,-2.7913141,-5.3159585
1.288,5.612089,14.048969,-25.068022,1.3174652,-2.9753816,-5.2100143
1.29,5.7274647,14.104187,-24.968319,1.4081626,-3.1566563,-5.104485
1.292,5.860365,14.188957,-24.882998,1.4968048,-3.3362923,-5.0003886
1.294,6.008628,14.301862,-24.812038,1.5833693,-3.5154533,-4.8986487
1.296,6.1704493,14.440899,-24.754396,1.6677948,-3.69526,-4.800102
1.298,6.3430653,14.603915,-24.710522,1.7499802,-3.8767464,-4.7055306
1.3,6.5249205,14.788734,-24.681864,1.8297749,-4.060828,-4.615683
1.302,6.714823,14.993121,-24.6684,1.9069467,-4.2482433,-4.5312552
1.304,6.9105673,15.214456,-24.668037,1.9812207,-4.4395857,-4.452922
1.306,7.109764,15.449518,-24.677362,2.0522673,-4.6352916,-4.3813586
1.308,7.309949,15.694728,-24.693033,2.1196957,-4.835638,-4.317193
1.31,7.50869,15.946508,-24.71151,2.1830893,-5.040772,-4.261046
1.312,7.7039566,16.201387,-24.729593,2.2420106,-5.250682,-4.213498
1.314,7.8933287,16.45624,-24.743052,2.2960546,-5.465162,-4.175101
1.316,8.0743885,16.707802,-24.74749,2.3448696,-5.683791,-4.146318
1.318,8.244955,16.952854,-24.738428,2.3881936,-5.905886,-4.127533
1.32,8.402858,17.188078,-24.711119,2.4258604,-6.1305065,-4.1189985
1.322,8.546066,17.410366,-24.660734,2.457809,-6.3564444,-4.120839
1.324,8.672655,17.616682,-24.583168,2.4840984,-6.5821924,-4.1330457
1.326,8.780931,17.804346,-24.474743,2.504879,-6.805993,-4.15547
1.328,8.869556,17.970802,-24.331802,2.520386,-7.0259,-4.187789
1.33,8.93745,18.114109,-24.151407,2.530902,-7.239809,-4.229542
1.332,8.983498,18.232664,-23.931236,2.5367208,-7.4455338,-4.2801323
1.334,9.00666,18.325344,-23.66976,2.5381165,-7.6409044,-4.3389187
1.336,9.005896,18.39132,-23.365953,2.5353446,-7.8238063,-4.4052444
1.338,8.980351,18.43033,-23.019417,2.5286238,-7.9922113,-4.478464
1.34,8.929417,18.442343,-22.630253,2.51816,-8.144186,-4.5579815
1.342,8.852948,18.427435,-22.198963,2.5041237,-8.277914,-4.6432486
1.344,8.750775,18.38617,-21.726788,2.486677,-8.391657,-4.7337894
1.346,8.623082,18.319487,-21.215878,2.4659781,-8.4837475,-4.82917
1.348,8.47053,18.228708,-20.66888,2.44219,-8.552576,-4.9290133
1.35,8.294161,18.115742,-20.08959,2.415505,-8.596586,-5.0329876
1.352,8.095343,17.982388,-19.482178,2.3861256,-8.614253,-5.140804
1.354,7.875824,17.830559,-18.850937,2.354321,-8.604121,-5.252203
1.356,7.6375246,17.662598,-18.200394,2.3204002,-8.5648575,-5.366979
1.358,7.3832827,17.481297,-17.535553,2.2846856,-8.495237,-5.484939
1.36,7.1161537,17.289621,-16.861639,2.2475214,-8.394223,-5.605914
1.362,6.839508,17.090559,-16.183777,2.2092729,-8.26099,-5.7297993
1.364,6.5569544,16.887035,-15.507301,2.1703093,-8.094943,-5.8565207
1.366,6.2727747,16.68222,-14.837463,2.1310053,-7.8957596,-5.9860353
1.368,5.9914575,16.479034,-14.179653,2.091676,-7.6633677,-6.118327
1.37,5.7179704,16.280582,-13.53875,2.0525959,-7.397912,-6.253409
1.372,5.457699,16.090036,-12.919227,2.0139856,-7.0997944,-6.391309
1.374,5.2169094,15.910244,-12.325206,1.9760232,-6.769615,-6.5320683
1.376,5.0013266,15.744357,-11.760859,1.9388747,-6.4081545,-6.6756754
1.378,4.817309,15.595188,-11.229757,1.9026842,-6.0164557,-6.8220973
1.38,4.6710043,15.465666,-10.735418,1.8675654,-5.5958223,-6.971277
1.382,4.568906,15.358473,-10.280575,1.8335927,-5.147895,-7.1231947
1.384,4.517824,15.276222,-9.867165,1.8008338,-4.674593,-7.2778463
1.386,4.5234213,15.22165,-9.496807,1.7693579,-4.178095,-7.435274
1.388,4.5919666,15.197185,-9.170568,1.7392054,-3.660852,-7.5955596
1.39,4.7292194,15.204881,-8.88945,1.7103705,-3.1254845,-7.758839
1.392,4.940034,15.246922,-8.654164,1.6828349,-2.5747654,-7.9252996
1.394,5.2291546,15.325341,-8.464754,1.6565299,-2.0114722,-8.095121
1.396,5.600501,15.442373,-8.321195,1.6313648,-1.4383559,-8.268463
1.398,6.057294,15.599891,-8.223503,1.6072478,-0.8580632,-8.4454775
1.4,6.601911,15.799772,-8.171007,1.584084,-0.27306795,-8.626257
1.402,7.2357993,16.0435,-8.16236,1.5617902,0.31445575,-8.810868
1.404,7.959418,16.332815,-8.196242,1.5403558,0.9026463,-8.999316
1.406,8.772121,16.669266,-8.271776,1.5198593,1.4899809,-9.191605
1.408,9.672539,17.054249,-8.388081,1.5004318,2.0753431,-9.387697
1.41,10.658196,17.48907,-8.544001,1.4823205,2.6580098,-9.587521
1.412,11.725601,17.974833,-8.738611,1.465874,3.237653,-9.790962
1.414,12.870585,18.512291,-8.970864,1.4515235,3.8143005,-9.997846
1.416,14.087166,19.102234,-9.239474,1.4397857,4.3883066,-10.207891
1.418,15.368778,19.745209,-9.543009,1.4312499,4.960328,-10.4206705
1.42,16.708065,20.441332,-9.879917,1.4265492,5.5312185,-10.635553
1.422,18.097008,21.190582,-10.248378,1.4263778,6.101903,-10.851702
1.424,19.527662,21.99202,-10.6467,1.4314642,6.6733637,-11.067966
1.426,20.990602,22.844666,-11.072063,1.4425268,7.246667,-11.282923
1.428,22.47688,23.746601,-11.521879,1.4602923,7.8228083,-11.494863
1.43,23.977297,24.695618,-11.992872,1.485424,8.402716,-11.7018585
1.432,25.482582,25.688822,-12.481267,1.5185342,8.987181,-11.901666
1.434,26.984636,26.722801,-12.983203,1.5601606,9.576889,-12.091813
1.436,28.476109,27.793377,-13.494794,1.6107478,10.172359,-12.269652
1.438,29.9497,28.895485,-14.01147,1.6705842,10.77384,-12.432495
1.44,31.400013,30.02306,-14.527937,1.7398443,11.3813095,-12.577604
1.442,32.822723,31.169365,-15.039198,1.8185587,11.994589,-12.702314
1.444,34.21503,32.327267,-15.539817,1.9066329,12.613291,-12.804014
1.446,35.576637,33.488846,-16.02458,2.0038075,13.236963,-12.880285
1.448,36.907864,34.645638,-16.487644,2.1097574,13.865126,-12.928914
1.45,38.210575,35.789005,-16.923065,2.2240458,14.497332,-12.947969
1.452,39.488213,36.909985,-17.325367,2.3461304,15.1331215,-12.935886
1.454,40.745087,37.999733,-17.68977,2.4753995,15.772028,-12.891437
1.456,41.987698,39.04853,-18.010487,2.6111593,16.413502,-12.813855
1.458,43.22432,40.046936,-18.282738,2.752553,17.056925,-12.70287
1.46,44.461285,40.986595,-18.502235,2.8986058,17.701466,-12.558664
1.462,45.70649,41.859474,-18.66666,3.0482883,18.346066,-12.381939
1.464,46.96973,42.657272,-18.774286,3.2004404,18.98935,-12.1738405
1.466,48.260155,43.37281,-18.823841,3.353816,19.62952,-11.935888
1.468,49.586456,43.99992,-18.815348,3.5070834,20.264397,-11.670014
1.47,50.958,44.53324,-18.750278,3.6587868,20.891415,-11.378436
1.472,52.38358,44.96828,-18.630327,3.8073874,21.507614,-11.063516
1.474,53.871235,45.301727,-18.458267,3.9512448,22.109785,-10.727725
1.476,55.428177,45.531128,-18.237797,4.088566,22.694475,-10.373514
1.478,57.06057,45.65576,-17.974754,4.217471,23.258104,-10.003281
1.48,58.774467,45.675163,-17.676947,4.3359957,23.796995,-9.619234
1.482,60.575394,45.58942,-17.351227,4.442056,24.307516,-9.223351
1.484,62.467766,45.39885,-17.004276,4.5335712,24.786171,-8.817345
1.486,64.454216,45.10575,-16.644102,4.608291,25.229725,-8.40255
1.488,66.5381,44.712814,-16.28055,4.663878,25.635052,-7.9797583
1.49,68.72231,44.22374,-15.923103,4.698046,25.99961,-7.5494895
1.492,71.00983,43.642838,-15.579788,4.708623,26.321445,-7.1119313
1.494,73.401825,42.976044,-15.259035,4.693405,26.599024,-6.6669025
1.496,75.89976,42.230732,-14.970482,4.6502247,26.831388,-6.213973
1.498,78.50585,41.41478,-14.722145,4.577154,27.018513,-5.7526655
1.5,81.220276,40.539017,-14.520889,4.4723806,27.161144,-5.2826624
1.502,84.04288,39.617043,-14.372906,4.3341045,27.260658,-4.8037915
1.504,86.971664,38.66448,-14.282833,4.160547,27.31914,-4.316143
1.506,90.006256,37.701057,-14.258728,3.9499602,27.339447,-3.8200035
1.508,93.14086,36.751945,-14.30798,3.700448,27.324986,-3.3160133
1.51,96.37807,35.825256,-14.424088,3.4099622,27.279415,-2.8050594
1.512,99.71423,34.93474,-14.602699,3.0762172,27.206562,-2.2880802
1.514,103.1434,34.10977,-14.832977,2.6967487,27.110157,-1.7659235
1.516,106.6528,33.393932,-15.106552,2.2690907,26.994032,-1.2392673
1.518,110.24149,32.82812,-15.415276,1.7909727,26.862043,-0.7085285
1.52,113.90633,32.463192,-15.7621155,1.2603855,26.717678,-0.17373323
1.522,117.64723,32.327793,-16.153069,0.67570734,26.564009,0.3656013
1.524,121.45795,32.476887,-16.597305,0.035882473,26.403797,0.91053414
1.526,125.320755,32.971176,-17.095211,-0.65943146,26.23947,1.4627144
1.528,129.22855,33.86124,-17.644814,-1.4098215,26.07267,2.0243778
1.53,133.18958,35.17135,-18.244934,-2.2141306,25.904108,2.5982718
1.532,137.1707,36.964035,-18.903206,-3.0705123,25.733267,3.18733
1.534,141.18884,39.260468,-19.585365,-3.9763973,25.55862,3.7945857
1.536,145.23538,42.103943,-20.28517,-4.9285026,25.37717,4.4228263
1.538,149.3777,45.5193,-21.089756,-5.9236503,25.182571,5.0738473
1.54,153.53035,49.516357,-21.997492,-6.9594774,24.96494,5.7494473
1.542,157.66777,54.132244,-23.010838,-8.033515,24.712677,6.4516373
1.544,161.80862,59.462185,-24.095161,-9.143112,24.41074,7.181589
1.546,165.96964,65.56973,-25.22761,-10.285592,24.040077,7.9387736
1.548,170.1179,72.320564,-26.335314,-11.457993,23.580713,8.722264
1.55,174.26695,79.707596,-27.431196,-12.657785,23.009186,9.531653
1.552,178.41678,87.64226,-28.40743,-13.883147,22.299028,10.368106
1.554,182.58589,96.06313,-29.229158,-15.133079,21.421986,11.233361
1.556,186.81195,104.94025,-29.941214,-16.40664,20.34926,12.129955
1.558,191.12888,114.19673,-30.528854,-17.702501,19.053078,13.064496
1.56,195.56903,123.72304,-30.941235,-19.016903,17.509726,14.0504675
1.562,200.16655,133.39395,-31.117378,-20.34396,15.696688,15.103423
1.564,204.85782,143.09903,-30.98609,-21.67669,13.591847,16.2448
1.566,209.63846,152.69864,-30.467083,-23.00097,11.18471,17.492313
1.568,214.36917,162.03569,-29.497759,-24.301813,8.469841,18.855015
1.57,219.13647,170.67136,-28.12464,-25.566092,5.4463816,20.34582
1.572,224.0605,178.55937,-26.159262,-26.786844,2.1315374,21.976297
1.574,229.0105,185.67459,-23.535069,-27.983482,-1.4589148,23.738665
1.576,233.99307,191.86102,-20.187208,-29.184488,-5.327507,25.596575
1.578,238.91412,196.96025,-16.02153,-30.394611,-9.464675,27.506023
1.58,243.7141,200.83403,-10.978065,-31.595753,-13.811534,29.436214
1.582,248.3047,203.36775,-5.023965,-32.79307,-18.290703,31.283573
1.584,252.5546,204.4914,1.8529577,-34.023018,-22.834187,32.96138
1.586,256.30997,204.18431,9.633381,-35.306927,-27.371544,34.3644
1.588,259.4258,202.47029,18.256187,-36.6435,-31.831345,35.366783
1.59,261.76755,199.41176,27.617418,-38.014675,-36.144028,35.834026
1.592,263.24493,195.0445,37.62565,-39.37302,-40.246166,35.63422
1.594,263.77277,189.41843,48.194466,-40.630493,-44.074802,34.642803
1.596,263.21472,182.65602,59.218613,-41.660984,-47.559063,32.7581
1.598,261.4969,174.9045,70.50678,-42.31372,-50.61764,29.917809
1.6,258.58032,166.33932,81.827965,-42.41199,-53.1691,26.174929
1.602,254.44695,157.13643,92.94304,-41.783512,-55.135155,21.610237
1.604,249.11772,147.4767,103.61525,-40.293533,-56.422703,16.319653
1.606,242.64128,137.56088,113.617096,-37.856003,-56.939877,10.482498
1.608,235.1101,127.591156,122.7268,-34.45513,-56.603798,4.346775
1.61,226.65002,117.76623,130.73398,-30.153618,-55.35104,-1.7903347
1.612,217.41544,108.282074,137.44638,-25.0882,-53.15288,-7.602268
1.614,207.58191,99.32958,142.7034,-19.459892,-50.025345,-12.763569
1.616,197.33086,91.080345,146.40187,-13.51278,-46.029106,-16.97992
1.618,186.85608,83.67378,148.48746,-7.5071793,-41.26997,-20.02435
1.62,176.34488,77.23258,148.93733,-1.7000408,-35.908222,-21.757008
1.622,165.98338,71.83758,147.77766,3.6773338,-30.147919,-22.14392
1.624,155.94257,67.52417,145.07812,8.435724,-24.216526,-21.268341
1.626,146.37454,64.29084,140.95743,12.446385,-18.345985,-19.32056
1.628,137.39407,62.11426,135.5736,15.657738,-12.740726,-16.57216
1.63,129.09454,60.938316,129.11935,18.066486,-7.571129,-13.34409
1.632,121.541626,60.703712,121.80589,19.693184,-2.993868,-9.986362
1.634,114.77759,61.30782,113.8529,20.598658,0.8487668,-6.840874
1.636,108.82426,62.629566,105.47159,20.913813,3.881331,-4.140906
1.638,103.66264,64.54567,96.863205,20.806496,6.10543,-2.087328
1.64,99.23797,66.9411,88.215546,20.422441,7.5688562,-0.78454447
1.642,95.514656,69.653755,79.70279,19.888433,8.358754,-0.24604797
1.644,92.39223,72.56098,71.439606,19.319118,8.594442,-0.4166894
1.646,89.79282,75.516174,63.54846,18.803623,8.420867,-1.1907983
1.648,87.57338,78.39701,56.194595,18.400772,7.993334,-2.4244676
1.65,85.7367,81.0987,49.407265,18.144318,7.4629602,-3.9565682
1.652,84.20056,83.5015,43.200153,18.050995,6.9704494,-5.6259527
1.654,82.84851,85.464485,37.540154,18.11197,6.641968,-7.319989
1.656,81.587746,86.919174,32.40184,18.31047,6.571312,-8.887256
1.658,80.382935,87.97639,27.715122,18.629253,6.7976484,-10.17435
1.66,79.15854,88.594444,23.492432,19.039429,7.3175507,-11.105064
1.662,77.8687,88.81003,19.63181,19.50874,8.086265,-11.651653
1.664,76.4635,88.62197,16.121828,20.0026,9.026955,-11.823054
1.666,74.89396,88.00903,13.008385,20.484583,10.046567,-11.66204
1.668,73.13461,87.00629,10.258869,20.920433,11.047712,-11.232491
1.67,71.174805,85.67266,7.815261,21.279318,11.938705,-10.608125
1.672,69.011024,84.068375,5.629328,21.53402,12.64345,-9.864497
1.674,66.72038,82.231,3.6632032,21.66411,13.112509,-9.071534
1.676,64.29692,80.221634,1.8889084,21.661335,13.328008,-8.287153
1.678,61.834003,78.105354,0.3071494,21.526192,13.291311,-7.5555506
1.68,59.197052,76.14849,-0.9969568,21.261147,13.0148325,-6.895752
1.682,56.277718,74.194824,-2.1650085,20.871489,12.528439,-6.3009973
1.684,53.213017,72.14745,-3.186596,20.370369,11.881678,-5.751752
1.686,49.975662,70.074326,-4.059925,19.779373,11.132353,-5.2252584
1.688,46.62992,68.04019,-4.815156,19.123169,10.3375225,-4.7002287
1.69,43.185806,66.08945,-5.454258,18.425201,9.549626,-4.1585364
1.692,39.67424,64.25023,-5.973113,17.707174,8.814701,-3.5867867
1.694,36.15065,62.52537,-6.374259,16.987766,8.16907,-2.9771056
1.696,32.668087,60.901375,-6.659645,16.282028,7.637147,-2.326668
1.698,29.254189,59.361702,-6.826251,15.601828,7.2321773,-1.6367474
1.7,25.921862,57.89674,-6.872676,14.955389,6.956565,-0.91231155
1.702,22.654755,56.5521,-6.8453274,14.346322,6.8022456,-0.16230488
1.704,19.458076,55.368614,-6.808014,13.774362,6.753809,0.6018462
1.706,16.3978,54.331844,-6.8074493,13.236235,6.791626,1.3681836
1.708,13.484604,53.431473,-6.821226,12.726707,6.8942614,2.1250763
1.71,10.721678,52.6532,-6.8220854,12.239738,7.040303,2.8614411
1.712,8.121216,51.999382,-6.8025894,11.769522,7.209852,3.5668325
1.714,5.687622,51.472008,-6.7686567,11.311243,7.386012,4.23196
1.716,3.4273357,51.057236,-6.7323837,10.861654,7.556161,4.849292
1.718,1.3333454,50.74177,-6.700266,10.419163,7.7119546,5.413582
1.72,-0.6012802,50.511166,-6.6727505,9.983789,7.848778,5.9214325
1.722,-2.3845005,50.34585,-6.6446476,9.5571375,7.965255,6.3704348
1.724,-4.024105,50.22381,-6.6142645,9.142197,8.062942,6.7588997
1.726,-5.522476,50.12858,-6.593032,8.742772,8.145341,7.0859327
1.728,-6.885456,50.055458,-6.593932,8.362801,8.216917,7.3516073
1.73,-8.123154,50.005543,-6.621314,8.00583,8.282394,7.5572624
1.732,-9.244545,49.980106,-6.6746244,7.6745973,8.346057,7.705452
1.734,-10.258329,49.978516,-6.75325,7.370682,8.411222,7.7997613
1.736,-11.172686,49.996784,-6.857888,7.0942783,8.479834,7.8445897
1.738,-11.99683,50.029816,-6.9901867,6.8440924,8.55228,7.844972
1.74,-12.74352,50.07141,-7.148037,6.61749,8.627356,7.8063655
1.742,-13.428526,50.114483,-7.3291845,6.4106855,8.702481,7.734441
1.744,-14.065815,50.14827,-7.530343,6.2190857,8.773893,7.6348486
1.746,-14.667202,50.164528,-7.7490377,6.037626,8.836885,7.512948
1.748,-15.243004,50.158035,-7.9798784,5.861203,8.88624,7.373605
1.75,-15.801522,50.1266,-8.215849,5.685054,8.916624,7.221128
1.752,-16.350277,50.06957,-8.450027,5.504998,8.922874,7.059175
1.754,-16.895977,49.986362,-8.675686,5.317631,8.900207,6.890807
1.756,-17.444572,49.876335,-8.886808,5.1204376,8.844601,6.718655
1.758,-18.000832,49.73945,-9.078357,4.91185,8.752885,6.545077
1.76,-18.567883,49.57528,-9.246369,4.691177,8.622757,6.372302
1.762,-19.148167,49.383408,-9.386815,4.4585,8.452933,6.202726
1.764,-19.74386,49.163776,-9.495654,4.2146273,8.243069,6.0389442
1.766,-20.35585,48.916786,-9.568765,3.9609506,7.9935846,5.883686
1.768,-20.984255,48.64349,-9.603207,3.69916,7.7055078,5.7399235
1.77,-21.627808,48.344967,-9.597143,3.431007,7.3802266,5.610984
1.772,-22.283947,48.022354,-9.549259,3.1581583,7.0193744,5.50049
1.774,-22.949385,47.67689,-9.457807,2.8820877,6.6247387,5.412099
1.776,-23.619473,47.309578,-9.3211,2.6039789,6.198061,5.349237
1.778,-24.28893,46.92129,-9.137922,2.324647,5.740905,5.314802
1.78,-24.95184,46.512184,-8.908367,2.0445576,5.2547398,5.3109426
1.782,-25.601215,46.081806,-8.6321335,1.7638628,4.740993,5.338714
1.784,-26.228985,45.62879,-8.30945,1.4824499,4.2010474,5.3978705
1.786,-26.826405,45.151436,-7.9407496,1.200064,3.6363893,5.4867463
1.788,-27.383562,44.647316,-7.526074,0.91640884,3.0487792,5.6021924
1.79,-27.890694,44.114357,-7.064924,0.6312804,2.440292,5.7396383
1.792,-28.337807,43.550278,-6.556492,0.34466076,1.8133389,5.8932614
1.794,-28.715036,42.952755,-6.0002537,0.056836486,1.1708578,6.0561886
1.796,-29.013485,42.31979,-5.396109,-0.2314924,0.51643884,6.2208114
1.798,-29.224796,41.649567,-4.744409,-0.5192487,-0.14564052,6.3790994
1.8,-29.341576,40.940517,-4.04604,-0.8049495,-0.8103988,6.5228596
1.802,-29.358095,40.191715,-3.3025894,-1.0868263,-1.4721742,6.644084
1.804,-29.270325,39.40319,-2.5160346,-1.3629293,-2.1247501,6.7354517
1.806,-29.076246,38.575504,-1.6889715,-1.6311784,-2.7613926,6.790783
1.808,-28.775476,37.710144,-0.8249841,-1.8895805,-3.3749378,6.8053503
1.81,-28.369797,36.809227,0.07190657,-2.1364098,-3.9580512,6.7760587
1.812,-27.863117,35.875607,0.9971452,-2.3703399,-4.503384,6.7016063
1.814,-27.261711,34.91263,1.9451485,-2.5904408,-5.0037165,6.582485
1.816,-26.573027,33.92444,2.9098072,-2.7961817,-5.4523187,6.420718
1.818,-25.806396,32.915726,3.8840446,-2.9874437,-5.843052,6.219663
1.82,-24.971859,31.891415,4.8600826,-3.1643953,-6.170554,5.983652
1.822,-24.080734,30.85702,5.829795,-3.3272676,-6.430416,5.717478
1.824,-23.144855,29.818382,6.7846823,-3.4762049,-6.6192927,5.425991
1.826,-22.175823,28.781229,7.715994,-3.611237,-6.735059,5.1139035
1.828,-21.185848,27.751411,8.614661,-3.732216,-6.7769165,4.7856665
1.83,-20.186357,26.73468,9.472087,-3.8388147,-6.7452984,4.4454565
1.832,-19.18803,25.73658,10.279976,-3.9305649,-6.641808,4.097117
1.834,-18.200026,24.76225,11.030333,-4.006985,-6.4692516,3.7441578
1.836,-17.230705,23.81644,11.715789,-4.0677214,-6.23156,3.3898811
1.838,-16.287346,22.903383,12.3298435,-4.112612,-5.9335847,3.0373907
1.84,-15.375341,22.026955,12.866848,-4.1418257,-5.5810294,2.6895454
1.842,-14.499766,21.190485,13.3227415,-4.1558986,-5.1803274,2.348925
1.844,-13.663824,20.396618,13.69479,-4.155766,-4.7383733,2.0177424
1.846,-12.869312,19.647867,13.981403,-4.1426888,-4.262376,1.6977444
1.848,-12.1176405,18.94686,14.182503,-4.1182094,-3.7597613,1.3902233
1.85,-11.408623,18.295464,14.298822,-4.084091,-3.238048,1.0959663
1.852,-10.740424,17.694647,14.332182,-4.0422134,-2.70463,0.815289
1.854,-10.110864,17.144442,14.285538,-3.9944909,-2.1665664,0.5481492
1.856,-9.5173645,16.644693,14.163417,-3.942816,-1.6304209,0.29410374
1.858,-8.957033,16.194857,13.971001,-3.8890603,-1.1021005,0.052317142
1.86,-8.426158,15.793478,13.714216,-3.8350759,-0.5867985,-0.1783557
1.862,-7.920835,15.438282,13.399758,-3.7826147,-0.088967636,-0.39919817
1.864,-7.4371934,15.126577,13.034653,-3.7332683,0.3878042,-0.61146784
1.866,-6.971464,14.855341,12.626536,-3.6884947,0.84078944,-0.8163614
1.868,-6.519978,14.621239,12.183249,-3.6496048,1.2680707,-1.014919
1.87,-6.079006,14.420831,11.71222,-3.6177464,1.6684994,-1.2079328
1.872,-5.6445103,14.250731,11.219852,-3.5938478,2.0416372,-1.3958958
1.874,-5.2127542,14.107006,10.712223,-3.5786195,2.3876915,-1.5790226
1.876,-4.780489,13.985675,10.195009,-3.5725236,2.707389,-1.75728
1.878,-4.345211,13.882534,9.674013,-3.575772,3.00187,-1.9304727
1.88,-3.9048674,13.79378,9.154259,-3.5883226,3.2725468,-2.0983043
1.882,-3.458174,13.716182,8.6404915,-3.609933,3.5210202,-2.2603874
1.884,-3.0040858,13.647043,8.136013,-3.6401465,3.7489753,-2.4163616
1.886,-2.541485,13.583778,7.6437063,-3.6783233,3.9580705,-2.5659337
1.888,-2.069348,13.523919,7.1652946,-3.7236772,4.1499124,-2.7088857
1.89,-1.587105,13.465744,6.7028394,-3.7752984,4.325974,-2.8451073
1.892,-1.0946401,13.4078665,6.2577767,-3.832205,4.487556,-2.9745905
1.894,-0.5926352,13.349215,5.8311977,-3.893344,4.635802,-3.09741
1.896,-0.082276165,13.288837,5.4239182,-3.9575863,4.7717237,-3.2137547
1.898,0.43532234,13.226069,5.0364256,-4.023786,4.896175,-3.323891
1.9,0.9585408,13.160296,4.6686096,-4.090772,5.0100236,-3.4281323
1.902,1.485505,13.091289,4.320184,-4.1574,5.11409,-3.5268831
1.904,2.0140636,13.019192,3.9908662,-4.2225747,5.209165,-3.620569
1.906,2.5423086,12.943959,3.6803122,-4.2852516,5.2960644,-3.7096426
1.908,3.0679262,12.865976,3.3880768,-4.3444977,5.375675,-3.7945397
1.91,3.5887196,12.785845,3.1135952,-4.3994856,5.448912,-3.8756392
1.912,4.1026993,12.704367,2.8564627,-4.4495354,5.516731,-3.9533033
1.914,4.6078844,12.622248,2.61627,-4.4940767,5.580095,-4.0277996
1.916,5.102688,12.540568,2.3924968,-4.532658,5.639994,-4.0993385
1.918,5.585545,12.460197,2.1847425,-4.564934,5.6973777,-4.1680503
1.92,6.0549073,12.382343,1.9924939,-4.590658,5.753167,-4.23397
1.922,6.509791,12.308083,1.8153691,-4.609659,5.80828,-4.2970796
1.924,6.94963,12.238693,1.6531734,-4.6217966,5.8635736,-4.357334
1.926,7.3737364,12.175266,1.5056872,-4.627,5.919871,-4.4146843
1.928,7.782097,12.1189785,1.3726776,-4.6252337,5.9779387,-4.469078
1.93,8.174873,12.07091,1.2538989,-4.616525,6.038503,-4.5204773
1.932,8.552378,12.032029,1.1491027,-4.6009355,6.102238,-4.568879
1.934,8.915495,12.003076,1.0578451,-4.5785675,6.169735,-4.614342
1.936,9.265111,11.984935,0.979671,-4.549544,6.2415285,-4.6569815
1.938,9.602701,11.978313,0.91425085,-4.514018,6.3180523,-4.6969366
1.94,9.929467,11.983759,0.86107826,-4.472162,6.3996253,-4.7343836
1.942,10.247222,12.001894,0.81971025,-4.4241385,6.4864545,-4.7694993
1.944,10.55765,12.03331,0.7897135,-4.3701143,6.578647,-4.8024683
1.946,10.862664,12.078438,0.77061975,-4.310254,6.676194,-4.8334646
1.948,11.164206,12.137596,0.7618898,-4.2447124,6.778955,-4.8626504
1.95,11.464305,12.211029,0.7628603,-4.173649,6.8866415,-4.8901296
1.952,11.764794,12.299137,0.77322775,-4.097211,6.998882,-4.91597
1.954,12.067469,12.402002,0.79242265,-4.015576,7.1151304,-4.940199
1.956,12.3742285,12.519565,0.82009864,-3.9289255,7.2347836,-4.962788
1.958,12.686631,12.652008,0.8557623,-3.837435,7.357215,-4.9837
1.96,13.005976,12.799263,0.89910126,-3.7413025,7.4817452,-5.0029073
1.962,13.333604,12.961258,0.9498005,-3.640717,7.607626,-5.0204444
1.964,13.67091,13.137684,1.0075521,-3.5358617,7.734113,-5.036417
1.966,14.01864,13.328117,1.072274,-3.4269278,7.860478,-5.0510535
1.968,14.3776455,13.532421,1.1438571,-3.3141031,7.9860606,-5.064691
1.97,14.748537,13.749973,1.2222459,-3.1975493,8.110231,-5.0777664
1.972,15.131497,13.980347,1.3074025,-3.077431,8.232449,-5.0907545
1.974,15.526793,14.222805,1.3991978,-2.9538553,8.352266,-5.1041856
1.976,15.934419,14.476295,1.4976046,-2.8268948,8.469321,-5.118594
1.978,16.35396,14.739815,1.6026459,-2.6966033,8.583381,-5.134447
1.98,16.78465,15.012192,1.7144313,-2.5629544,8.6943245,-5.1521215
1.982,17.225899,15.2920685,1.8330874,-2.4258826,8.802126,-5.1718583
1.984,17.677217,15.577638,1.9583418,-2.285281,8.90682,-5.1937633
1.986,18.137642,15.866805,2.0897987,-2.1410208,9.008503,-5.217766
1.988,18.605877,16.15748,2.2270513,-1.992966,9.107308,-5.243642
1.99,19.080376,16.447655,2.3698306,-1.8409762,9.203364,-5.271039
1.992,19.559624,16.735191,2.5175643,-1.684916,9.296734,-5.2994857
1.994,20.04219,17.01771,2.6697083,-1.5247014,9.387413,-5.3284307
1.996,20.526041,17.292765,2.8252954,-1.3602715,9.475324,-5.357261
1.998,21.009354,17.557648,2.9835463,-1.1916149,9.560285,-5.3853474
2,21.489906,17.80961,3.1435165,-1.018758,9.641998,-5.4120564
2.002,21.965487,18.045654,3.3041868,-0.8417437,9.720106,-5.4367585
2.004,22.433792,18.262999,3.4643936,-0.660619,9.794187,-5.458864
2.006,22.892376,18.458813,3.622797,-0.47541022,9.863794,-5.47779
2.008,23.338486,18.630499,3.7778554,-0.28612733,9.928523,-5.492952
2.01,23.769558,18.77548,3.928378,-0.09274554,9.988046,-5.503778
2.012,24.182787,18.891573,4.0729456,0.104791164,10.042152,-5.509724
2.014,24.575424,18.976606,4.210143,0.30659103,10.090782,-5.510312
2.016,24.944664,19.028982,4.338566,0.5127835,10.133987,-5.5051126
2.018,25.287678,19.047363,4.457056,0.7234814,10.171892,-5.493745
2.02,25.601713,19.030529,4.564481,0.9387634,10.204662,-5.4758687
2.022,25.884108,18.977882,4.659686,1.1586249,10.232418,-5.4512405
2.024,26.132221,18.889324,4.7418194,1.3829517,10.255201,-5.4196854
2.026,26.343655,18.765135,4.810273,1.6115162,10.272846,-5.381071
2.028,26.516338,18.606373,4.8646517,1.8438818,10.284934,-5.3351874
2.03,26.648636,18.414543,4.9045553,2.079424,10.29073,-5.281714
2.032,26.739033,18.19154,4.9299593,2.3173318,10.289194,-5.2202215
2.034,26.786505,17.93977,4.9412785,2.55658,10.27898,-5.1501617
2.036,26.79052,17.66223,4.9387407,2.7959583,10.258521,-5.0709276
2.038,26.751087,17.36209,4.9230785,3.0340817,10.226086,-4.98187
2.04,26.668438,17.042814,4.8950977,3.2694268,10.179922,-4.8824444
2.042,26.543598,16.70813,4.855607,3.500386,10.118362,-4.772294
2.044,26.377796,16.361876,4.805728,3.7252939,10.039958,-4.6513567
2.046,26.17292,16.007786,4.7466307,3.9424927,9.943557,-4.5199213
2.048,25.931025,15.649725,4.679677,4.1503973,9.828388,-4.378602
2.05,25.654888,15.291557,4.606211,4.3475027,9.694055,-4.228331
2.052,25.34723,14.9368305,4.527664,4.532463,9.540569,-4.070258
2.054,25.011559,14.588721,4.4453063,4.7041006,9.368293,-3.905667
2.056,24.651302,14.250395,4.3605084,4.861435,9.177876,-3.735916
2.058,24.270239,13.924444,4.2746553,5.003703,8.9702015,-3.5623384
2.06,23.871895,13.61334,4.188949,5.130378,8.746305,-3.3862178
2.062,23.460255,13.31883,4.1044545,5.2411313,8.507269,-3.2087927
2.064,23.039095,13.042373,4.0222163,5.3358674,8.254202,-3.0312366
2.066,22.611956,12.785233,3.9429808,5.414659,7.9882317,-2.8546567
2.068,22.182327,12.5479555,3.8676934,5.47777,7.710502,-2.6800969
2.07,21.753508,12.330945,3.7970057,5.5256267,7.422202,-2.5086045
2.072,21.328257,12.134032,3.7313805,5.558826,7.124589,-2.3411946
2.074,20.909193,11.956844,3.6712508,5.5780897,6.8189197,-2.1788466
2.076,20.498676,11.798727,3.6168356,5.5842752,6.506545,-2.0224433
2.078,20.098385,11.658568,3.5683174,5.5783324,6.1888733,-1.8727694
2.08,19.709824,11.535164,3.525653,5.5613065,5.867425,-1.7305393
2.082,19.334192,11.42708,3.4888396,5.5343156,5.5437565,-1.5963771
2.084,18.972189,11.332849,3.4578626,5.4985194,5.21944,-1.4708321
2.086,18.624224,11.250886,3.4324627,5.455085,4.895992,-1.3543254
2.088,18.290407,11.179557,3.4123378,5.405136,4.5748143,-1.2471641
2.09,17.970482,11.117174,3.3971848,5.3497458,4.257106,-1.1495124
2.092,17.663942,11.062115,3.386722,5.2899113,3.943853,-1.0613981
2.094,17.370039,11.01291,3.380621,5.226464,3.6357527,-0.9827223
2.096,17.088133,10.968364,3.378474,5.1600904,3.3332021,-0.913257
2.098,16.817392,10.927119,3.3800807,5.091311,3.0363193,-0.85267615
2.1,16.556934,10.887687,3.3851576,5.020462,2.74499,-0.80061275
2.102,16.305826,10.848845,3.393572,4.9477262,2.4588997,-0.75665283
2.104,16.062962,10.809449,3.4052954,4.873114,2.1775646,-0.7204099
2.106,15.82757,10.76868,3.4203093,4.7965326,1.9004021,-0.6915188
2.108,15.598923,10.725914,3.4387534,4.717793,1.6267948,-0.6696397
2.11,15.376346,10.680562,3.4608326,4.6366563,1.356095,-0.6544584
2.112,15.159167,10.632419,3.4869754,4.552882,1.0876666,-0.645679
2.114,14.947213,10.581141,3.5175705,4.4662604,0.82093096,-0.64302087
2.116,14.740263,10.526649,3.553217,4.376672,0.5553933,-0.64620227
2.118,14.538086,10.469012,3.5945284,4.2840557,0.29064816,-0.6549345
2.12,14.340878,10.408315,3.6419945,4.188485,0.026395071,-0.66892695
2.122,14.148682,10.344676,3.6961882,4.09011,-0.23753403,-0.6878741
2.124,13.961661,10.278269,3.7574937,3.989201,-0.50112635,-0.71143687
2.126,13.780056,10.209355,3.8265927,3.8861346,-0.76418424,-0.7392675
2.128,13.604187,10.138048,3.9037192,3.7813768,-1.0262979,-0.7709887
2.13,13.434319,10.06467,3.9891806,3.6754375,-1.2869065,-0.8061633
2.132,13.270889,9.98927,4.0831647,3.5688703,-1.5453187,-0.84432566
2.134,13.114206,9.912182,4.185692,3.4622414,-1.8007417,-0.8849386
2.136,12.964581,9.833683,4.296566,3.3561373,-2.052321,-0.9274404
2.138,12.822113,9.753887,4.415448,3.251089,-2.2991605,-0.97124887
2.14,12.687037,9.672933,4.541917,3.1476119,-2.540384,-1.015789
2.142,12.559377,9.59118,4.6753078,3.0461636,-2.775167,-1.0605161
2.144,12.439115,9.508794,4.814723,2.9473205,-3.0021362,-1.1045742
2.146,12.326388,9.425766,4.959509,2.851153,-3.2214735,-1.1480596
2.148,12.22088,9.3423195,5.108572,2.7580593,-3.4322033,-1.1904085
2.15,12.12257,9.258613,5.261034,2.6682565,-3.633814,-1.2313675
2.152,12.031349,9.174714,5.415954,2.5819077,-3.8259084,-1.270769
2.154,11.947013,9.090687,5.572329,2.499115,-4.008208,-1.3085215
2.156,11.869349,9.006585,5.7293625,2.4199212,-4.1805725,-1.3446105
2.158,11.798116,8.922362,5.885873,2.344308,-4.3429813,-1.3790305
2.16,11.733058,8.83777,6.041212,2.2721856,-4.495543,-1.4117815
2.162,11.674074,8.752644,6.194666,2.2034187,-4.6384745,-1.4428823
2.164,11.620756,8.666847,6.3456182,2.1378598,-4.772079,-1.4723599
2.166,11.5729065,8.5801525,6.49363,2.0753584,-4.896673,-1.5002577
2.168,11.530168,8.49238,6.6382523,2.0158372,-5.0125546,-1.526648
2.17,11.492463,8.403208,6.779359,1.9592592,-5.119936,-1.5516474
2.172,11.459524,8.312478,6.916699,1.9056995,-5.218895,-1.5753958
2.174,11.4309635,8.220077,7.0500965,1.8552877,-5.309366,-1.5980494
2.176,11.406769,8.125708,7.1796174,1.8082216,-5.391131,-1.6197159
2.178,11.386786,8.029308,7.305165,1.7647111,-5.4638515,-1.6404545
2.18,11.3709755,7.9306808,7.426771,1.7249262,-5.5271173,-1.660222
2.182,11.359267,7.8298965,7.54432,1.6889789,-5.5804706,-1.6788478
2.184,11.351252,7.726994,7.657796,1.6569289,-5.623456,-1.6961031
2.186,11.346948,7.6219764,7.7672863,1.6287172,-5.6556544,-1.7116692
2.188,11.346341,7.5150824,7.872735,1.6042087,-5.6767473,-1.7251949
2.19,11.348966,7.406577,7.974185,1.5831908,-5.6865144,-1.7363315
2.192,11.354809,7.2967997,8.071486,1.5654442,-5.684857,-1.7447772
2.194,11.363501,7.186101,8.1646,1.550724,-5.6718097,-1.7503428
2.196,11.374755,7.0749817,8.253462,1.5388129,-5.6475196,-1.7529361
2.198,11.388325,6.9637895,8.337987,1.5294354,-5.6125846,-1.7528111
2.2,11.403801,6.8529596,8.418147,1.5227244,-5.566479,-1.7495775
2.202,11.420717,6.7427506,8.493752,1.518423,-5.510212,-1.7437959
2.204,11.438642,6.633821,8.564722,1.516476,-5.444248,-1.7356927
2.206,11.456928,6.5264015,8.630988,1.51684,-5.369119,-1.7254956
2.208,11.475348,6.420938,8.692457,1.5194885,-5.2853904,-1.7134142
2.21,11.493249,6.317746,8.749159,1.5243881,-5.193641,-1.6996417
2.212,11.5101185,6.2171197,8.8009815,1.5314907,-5.094482,-1.6843547
2.214,11.525447,6.1193357,8.847815,1.5407183,-4.988509,-1.6677322
2.216,11.538821,6.02459,8.889802,1.5519831,-4.876317,-1.6499443
2.218,11.549687,5.9330354,8.926882,1.5651443,-4.7584863,-1.6311735
2.22,11.557558,5.8448057,8.959057,1.5800552,-4.6355853,-1.611634
2.222,11.562139,5.75979,8.986335,1.5965264,-4.5081525,-1.5915347
2.224,11.563058,5.677907,9.008786,1.6143659,-4.376718,-1.5711088
2.226,11.560112,5.599037,9.02638,1.6333675,-4.2417927,-1.5505946
2.228,11.553063,5.5228806,9.0393,1.6533326,-4.1038766,-1.5302227
2.23,11.54157,5.4493623,9.047677,1.674076,-3.9634695,-1.510197
2.232,11.525671,5.3781943,9.051587,1.6954082,-3.8210573,-1.4906888
2.234,11.505407,5.3092246,9.05125,1.7171657,-3.677105,-1.4718003
2.236,11.480617,5.242328,9.046598,1.7392015,-3.5320804,-1.453605
2.238,11.451511,5.1775465,9.037732,1.7613826,-3.386443,-1.4360926
2.24,11.418059,5.114816,9.024638,1.7836041,-3.2406344,-1.4192146
2.242,11.380366,5.054127,9.007428,1.8057714,-3.0950608,-1.4028664
2.244,11.338618,4.995354,8.986039,1.827807,-2.9501076,-1.3869158
2.246,11.292919,4.9384656,8.960468,1.8496214,-2.8061414,-1.3711764
2.248,11.243687,4.8833437,8.930845,1.8711405,-2.6634805,-1.355442
2.25,11.190909,4.82998,8.897252,1.8922712,-2.5224187,-1.3394964
2.252,11.135016,4.778495,8.85977,1.9129002,-2.3832183,-1.3231165
2.254,11.076192,4.72886,8.818502,1.9329079,-2.2461143,-1.3061135
2.256,11.014701,4.6812277,8.773612,1.9521616,-2.1113167,-1.2883356
2.258,10.950856,4.6357565,8.725232,1.9705099,-1.9789952,-1.2696763
2.26,10.884953,4.592551,8.67349,1.9878002,-1.8493189,-1.2501016
2.262,10.817164,4.5516114,8.618549,2.003869,-1.7224432,-1.2296237
2.264,10.747779,4.513246,8.560557,2.0185692,-1.5985442,-1.2083067
2.266,10.677083,4.477477,8.499781,2.0317814,-1.477786,-1.1862599
2.268,10.605375,4.4443283,8.43646,2.0433865,-1.3603396,-1.1635988
2.27,10.532916,4.4139442,8.370763,2.0532992,-1.2463785,-1.1404617
2.272,10.459912,4.386321,8.302991,2.0614464,-1.136073,-1.1169779
2.274,10.3867235,4.3614407,8.233596,2.0677574,-1.0296046,-1.0932542
2.276,10.313549,4.3392076,8.162887,2.0721774,-0.9271207,-1.0693747
2.278,10.240842,4.3194942,8.091221,2.0746558,-0.8287361,-1.0453863
2.28,10.168742,4.3022165,8.019023,2.0751433,-0.73452115,-1.0213357
2.282,10.097457,4.2872105,7.9466915,2.0735943,-0.644489,-0.9972464
2.284,10.027456,4.274241,7.874753,2.0699716,-0.5586059,-0.9731468
2.286,9.95882,4.2632284,7.8034177,2.064261,-0.47679582,-0.9490674
2.288,9.891958,4.253999,7.7331147,2.0564601,-0.39891246,-0.9250463
2.29,9.82686,4.246353,7.664131,2.0465903,-0.32477677,-0.90111464
2.292,9.76394,4.2400646,7.5969543,2.0346842,-0.2541728,-0.87732816
2.294,9.70347,4.2349524,7.5317116,2.0208073,-0.18685484,-0.8537627
2.296,9.64555,4.2308774,7.4685936,2.0050478,-0.122560084,-0.830502
2.298,9.590313,4.227599,7.4077253,1.9875065,-0.061012223,-0.8076159
2.3,9.538167,4.225069,7.34922,1.9683065,-0.0019364506,-0.78518474
2.302,9.489023,4.223015,7.293365,1.9475515,0.05492018,-0.7632574
2.304,9.443112,4.221361,7.240031,1.9253439,0.109784454,-0.74187917
2.306,9.400418,4.220037,7.189339,1.9017669,0.16283719,-0.72107
2.308,9.36101,4.2190037,7.1413045,1.8768811,0.21422428,-0.7008214
2.31,9.3248825,4.2181463,7.0958476,1.8507273,0.26404002,-0.6811249
2.312,9.292081,4.2174892,7.052995,1.8233303,0.3123202,-0.6619715
2.314,9.262345,4.2168007,7.012732,1.7947005,0.35906357,-0.64335597
2.316,9.235603,4.216134,6.9750447,1.7648491,0.40421572,-0.62528914
2.318,9.21159,4.2153606,6.939931,1.7337736,0.44769785,-0.607806
2.32,9.19028,4.214443,6.9073286,1.7015005,0.48941785,-0.59096056
2.322,9.17137,4.21327,6.87719,1.6680691,0.52928615,-0.5748297
2.324,9.154634,4.211858,6.8495765,1.6335268,0.5672368,-0.55949354
2.326,9.13988,4.210142,6.8244166,1.5979514,0.60322106,-0.54504025
2.328,9.126782,4.2080884,6.8017173,1.5614333,0.63723284,-0.5315481
2.33,9.115201,4.205673,6.7815495,1.524064,0.6693052,-0.51909155
2.332,9.104817,4.202896,6.7638316,1.4859436,0.69950485,-0.5077136
2.334,9.095408,4.1996484,6.748597,1.4471635,0.72792804,-0.49742332
2.336,9.086753,4.196062,6.7359014,1.4077988,0.75469846,-0.48820227
2.338,9.0786915,4.192051,6.725527,1.3679149,0.7799547,-0.4799946
2.34,9.071068,4.187682,6.7174973,1.3275628,0.8038436,-0.47271404
2.342,9.063711,4.183075,6.711905,1.286774,0.8264952,-0.4662478
2.344,9.056378,4.1782866,6.7085824,1.2455565,0.8480435,-0.4604663
2.346,9.048881,4.1734314,6.707466,1.2039275,0.8686166,-0.45522514
2.348,9.04115,4.1685715,6.70845,1.161879,0.88832706,-0.45037338
2.35,9.033194,4.16382,6.7114058,1.1194001,0.90727836,-0.4457748
2.352,9.024723,4.159352,6.716229,1.0764716,0.92556405,-0.44131845
2.354,9.015818,4.1552753,6.722813,1.0330741,0.94327134,-0.4369017
2.356,9.006403,4.1516275,6.731023,0.9892021,0.9604882,-0.43245614
2.358,8.996255,4.1487055,6.740645,0.9448484,0.9772994,-0.4279414
2.36,8.985382,4.1465445,6.751444,0.90002394,0.99379,-0.42335287
2.362,8.973824,4.145106,6.763239,0.85473937,1.0100579,-0.41869643
2.364,8.961462,4.1445675,6.7758856,0.8090183,1.0261786,-0.41401055
2.366,8.948211,4.1450157,6.789049,0.7628877,1.0422248,-0.40933064
2.368,8.934089,4.1463575,6.8026404,0.71637934,1.0582688,-0.40468732
2.37,8.9190645,4.1486516,6.816462,0.6695226,1.0743703,-0.40011725
2.372,8.903142,4.151879,6.83039,0.62235916,1.0905836,-0.39563113
2.374,8.886129,4.155901,6.8442287,0.57489496,1.1069427,-0.39121705
2.376,8.868199,4.1606293,6.8577433,0.5271524,1.1234629,-0.38683516
2.378,8.849424,4.1659985,6.871111,0.47912434,1.1401435,-0.38242143
2.38,8.829705,4.1718564,6.884121,0.43078986,1.1569855,-0.37786838
2.382,8.80912,4.1780777,6.8967457,0.3821338,1.173969,-0.37305713
2.384,8.787806,4.18448,6.908872,0.33312923,1.191079,-0.36784238
2.386,8.766004,4.190835,6.920386,0.2837374,1.2083161,-0.36205968
2.388,8.743562,4.1972275,6.931567,0.2339301,1.2256753,-0.35554916
2.39,8.720865,4.2034383,6.9422994,0.18370004,1.2431724,-0.34815773
2.392,8.697859,4.2094364,6.95271,0.13305715,1.2608553,-0.339756
2.394,8.674873,4.2151585,6.9627476,0.082038164,1.278788,-0.3302386
2.396,8.651957,4.2206445,6.9726105,0.030713603,1.2970564,-0.3195357
2.398,8.629281,4.225684,6.9823275,-0.020829514,1.315768,-0.30762306
2.4,8.607174,4.2305236,6.9920387,-0.07250281,1.3350407,-0.29452017
2.402,8.585717,4.2352977,7.0018015,-0.12421914,1.3549895,-0.2802626
2.404,8.565051,4.240101,7.0117207,-0.17589366,1.3756943,-0.26492423
2.406,8.545448,4.2450104,7.0218215,-0.22747405,1.3972368,-0.24857385
2.408,8.527111,4.2503014,7.0321755,-0.278942,1.419665,-0.23129325
2.41,8.509998,4.256245,7.042797,-0.3303219,1.4429685,-0.21313956
2.412,8.4943695,4.2630877,7.0537114,-0.38165855,1.467112,-0.19415113
2.414,8.480295,4.271091,7.064924,-0.43303198,1.4920347,-0.1743619
2.416,8.467991,4.280589,7.076321,-0.4845218,1.5176268,-0.15379885
2.418,8.45737,4.2918744,7.0879717,-0.53622615,1.5437766,-0.13246424
2.42,8.448618,4.3052363,7.0998864,-0.58822846,1.570353,-0.110389024
2.422,8.441615,4.321071,7.111993,-0.6406073,1.5972105,-0.08758855
2.424,8.43647,4.339682,7.124239,-0.69342315,1.6242067,-0.064088106
2.426,8.433175,4.361349,7.136553,-0.74672765,1.6511838,-0.039911434
2.428,8.431617,4.3864684,7.1489277,-0.80054027,1.6779996,-0.015078485
2.43,8.431689,4.415274,7.1612134,-0.854869,1.7045273,0.010390818
2.432,8.433412,4.4479733,7.173512,-0.90969276,1.7306405,0.03649336
2.434,8.436728,4.484756,7.185693,-0.96498644,1.7562287,0.063224226
2.436,8.441309,4.5258126,7.1977572,-1.0207226,1.781209,0.09059343
2.438,8.44724,4.571152,7.2098293,-1.0768493,1.8054935,0.118594766
2.44,8.454365,4.6209025,7.2217712,-1.1333275,1.8290061,0.1471987
2.442,8.462581,4.6750674,7.2337213,-1.1901232,1.8517196,0.17638472
2.444,8.471656,4.7338104,7.245713,-1.2472112,1.8736031,0.2060813
2.446,8.481608,4.796792,7.2576838,-1.3045875,1.8946303,0.23621446
2.448,8.492258,4.864194,7.2699,-1.3622578,1.9147968,0.26669008
2.45,8.5035515,4.9357204,7.2823954,-1.4202412,1.9341177,0.29739574
2.452,8.515388,5.0113444,7.2952566,-1.4785626,1.9526054,0.32821646
2.454,8.5277,5.090975,7.3086047,-1.5372546,1.9702876,0.35905543
2.456,8.540485,5.174405,7.322576,-1.5963422,1.9871964,0.3898194
2.458,8.553538,5.2614794,7.3372746,-1.6558757,2.0033634,0.42043298
2.46,8.566867,5.352113,7.352798,-1.7158893,2.0188117,0.450845
2.462,8.58049,5.4460464,7.369104,-1.7764249,2.0335608,0.48103902
2.464,8.594211,5.543131,7.3863564,-1.8375155,2.0476315,0.511018
2.466,8.608047,5.643241,7.4045906,-1.8992046,2.06102,0.5408192
2.468,8.621895,5.746205,7.4238405,-1.9615242,2.0737128,0.570493
2.47,8.6355915,5.852004,7.4442863,-2.0245218,2.0857258,0.6001031
2.472,8.649081,5.960453,7.4658184,-2.0882144,2.0970418,0.6297122
2.474,8.662144,6.0714054,7.488445,-2.152626,2.1076634,0.65939534
2.476,8.67475,6.184676,7.51223,-2.2177525,2.117591,0.68917155
2.478,8.6866,6.300162,7.5369406,-2.283566,2.1268399,0.7190695
2.48,8.697541,6.4177356,7.562527,-2.3500166,2.1354418,0.7490861
2.482,8.707386,6.5374107,7.58885,-2.4170372,2.143421,0.77918047
2.484,8.715944,6.659046,7.6157093,-2.4845347,2.1508124,0.8093128
2.486,8.722915,6.7826033,7.6428337,-2.5523894,2.1576552,0.83943355
2.488,8.728031,6.907954,7.669814,-2.6204798,2.1639726,0.86947656
2.49,8.73112,7.034964,7.6965127,-2.6886728,2.1697807,0.8994074
2.492,8.732089,7.163584,7.7226295,-2.7568455,2.1750894,0.9292041
2.494,8.730479,7.2937384,7.7478495,-2.8248682,2.1798954,0.9588674
2.496,8.726015,7.4254513,7.771854,-2.8926392,2.1841688,0.98839897
2.498,8.71864,7.5585804,7.7941546,-2.9600878,2.1878872,1.0178229
2.5,8.707932,7.6930213,7.8144755,-3.0271535,2.1910179,1.0471479
2.502,8.693792,7.828742,7.832492,-3.0937965,2.193522,1.0763887
2.504,8.675936,7.9658,7.8479366,-3.1600082,2.195347,1.1055607
2.506,8.654274,8.104069,7.860439,-3.2257862,2.1964278,1.1346923
2.508,8.628562,8.243839,7.8697023,-3.2911415,2.1966677,1.1638042
2.51,8.598846,8.384743,7.875486,-3.356089,2.195971,1.1929499
2.512,8.564887,8.526927,7.877642,-3.4206364,2.194234,1.2221795
2.514,8.526757,8.670225,7.8759513,-3.4847932,2.191331,1.2515517
2.516,8.484416,8.814784,7.87029,-3.548555,2.1871414,1.2811202
2.518,8.437886,8.960445,7.860574,-3.6119223,2.1815434,1.3109308
2.52,8.38737,9.107073,7.846753,-3.6749094,2.1744635,1.3410355
2.522,8.333062,9.254554,7.8287587,-3.7375207,2.1658478,1.3714612
2.524,8.275326,9.402754,7.806642,-3.7997615,2.1557043,1.4021972
2.526,8.214513,9.551304,7.780589,-3.8616538,2.1441076,1.4331926
2.528,8.150877,9.699777,7.750491,-3.9232202,2.1311862,1.4643756
2.53,8.08458,9.847934,7.716634,-3.9844887,2.117133,1.4956474
2.532,8.0163,9.995382,7.679386,-4.0454865,2.1021814,1.5268856
2.534,7.9464397,10.141966,7.63899,-4.1062336,2.0866146,1.5579575
2.536,7.8753724,10.287234,7.5959373,-4.166729,2.0707407,1.5887295
2.538,7.8040295,10.430576,7.550444,-4.2269826,2.05486,1.6190791
2.54,7.7327943,10.571629,7.503089,-4.2869673,2.0392623,1.6488897
2.542,7.6621695,10.709983,7.454244,-4.3466415,2.024209,1.6780863
2.544,7.5927763,10.845084,7.4043384,-4.405971,2.009904,1.7066288
2.546,7.525361,10.97644,7.3539286,-4.464913,1.9964849,1.7345164
2.548,7.4602947,11.103697,7.3034816,-4.5234303,1.9840336,1.7618023
2.55,7.3979516,11.226401,7.253681,-4.5814853,1.9725826,1.7885875
2.552,7.338972,11.344244,7.2049394,-4.639043,1.962106,1.8150088
2.554,7.2835407,11.456813,7.1578383,-4.6960583,1.9525712,1.8412297
2.556,7.23197,11.563948,7.112917,-4.7524867,1.9439417,1.8673906
2.558,7.1845894,11.665241,7.0705223,-4.8082633,1.9361798,1.8936338
2.56,7.14152,11.760786,7.030995,-4.863293,1.9293119,1.9200611
2.562,7.1028113,11.850294,6.9947805,-4.917461,1.9233961,1.946748
2.564,7.068561,11.933807,6.9620624,-4.970642,1.9185123,1.9736956
2.566,7.0388064,12.011419,6.9330053,-5.0226808,1.9147813,2.000865
2.568,7.013351,12.083329,6.9077225,-5.0734158,1.9123524,2.0281796
2.57,6.992003,12.149688,6.8862286,-5.122685,1.9113742,2.0555286
2.572,6.9746356,12.210694,6.86841,-5.1703105,1.9120007,2.0827909
2.574,6.9610076,12.266602,6.85419,-5.216144,1.9143337,2.109827
2.576,6.950965,12.317691,6.84328,-5.260064,1.9184537,2.13651
2.578,6.9441986,12.364201,6.8354354,-5.3020086,1.9243891,2.162729
2.58,6.940498,12.4064045,6.830248,-5.341946,1.9321177,2.1883726
2.582,6.9393167,12.444678,6.827449,-5.379882,1.9415718,2.213311
2.584,6.9406047,12.479427,6.826685,-5.415849,1.9526248,2.2374191
2.586,6.9438086,12.510984,6.8274536,-5.44989,1.9651196,2.2605448
2.588,6.948848,12.53967,6.829391,-5.4820347,1.9788604,2.2825367
2.59,6.955318,12.565821,6.83219,-5.512314,1.9936213,2.3032527
2.592,6.962937,12.589703,6.835389,-5.5407033,2.009169,2.3225622
2.594,6.971442,12.61173,6.8387756,-5.567182,2.0252552,2.3403654
2.596,6.9804206,12.632274,6.841995,-5.591673,2.041635,2.3566008
2.598,6.989612,12.651601,6.8447776,-5.6140924,2.058094,2.3712535
2.6,6.998903,12.6700735,6.846839,-5.6343646,2.0744307,2.3843741
2.602,7.007859,12.687899,6.847963,-5.652412,2.090496,2.3960621
2.604,7.016417,12.705398,6.848001,-5.6681995,2.1061726,2.4064822
2.606,7.024322,12.722685,6.846742,-5.681715,2.1214082,2.415824
2.608,7.031395,12.739976,6.8441076,-5.692992,2.1361694,2.424298
2.61,7.0375037,12.757479,6.8399134,-5.7020926,2.1504834,2.4321196
2.612,7.0426097,12.775151,6.8339515,-5.709082,2.1644225,2.4394596
2.614,7.0464654,12.79307,6.826126,-5.714038,2.1780534,2.4464467
2.616,7.049006,12.811196,6.8163753,-5.717033,2.191464,2.4531612
2.618,7.0501337,12.829306,6.804446,-5.7181106,2.2047641,2.459648
2.62,7.04973,12.847567,6.790148,-5.717303,2.218032,2.4658823
2.622,7.0479484,12.865451,6.773359,-5.714603,2.2313416,2.471785
2.624,7.0446773,12.882826,6.7538357,-5.7099915,2.2447631,2.4772387
2.626,7.0398555,12.899318,6.7313976,-5.703441,2.2583365,2.4820926
2.628,7.0334263,12.914697,6.7058315,-5.694899,2.2720954,2.4862015
2.63,7.025389,12.928635,6.676944,-5.6843057,2.2860494,2.4894323
2.632,7.0157204,12.940874,6.644478,-5.671593,2.3001885,2.491671
2.634,7.004327,12.950953,6.608394,-5.6567206,2.3144934,2.492854
2.636,6.9910984,12.958736,6.5683775,-5.6396556,2.3289452,2.492951
2.638,6.9763236,12.963999,6.524416,-5.620393,2.343494,2.49196
2.64,6.9600277,12.966312,6.476188,-5.5989385,2.3580937,2.489911
2.642,6.9418893,12.96526,6.4234643,-5.5753164,2.3726976,2.4868486
2.644,6.922063,12.960346,6.3661013,-5.5495625,2.3872542,2.4828267
2.646,6.9003353,12.9514675,6.303961,-5.521738,2.4017305,2.47789
2.648,6.8763723,12.938518,6.23697,-5.491881,2.4160914,2.472078
2.65,6.850128,12.921328,6.165052,-5.4600472,2.430284,2.4654288
2.652,6.8214827,12.899828,6.088056,-5.4262877,2.4442825,2.4579496
2.654,6.7902274,12.874077,6.005984,-5.3906374,2.4580777,2.4496555
2.656,6.7559485,12.844125,5.9187274,-5.3531375,2.4716372,2.4405613
2.658,6.7185636,12.810106,5.8262243,-5.313809,2.4849432,2.4306822
2.66,6.6778665,12.772109,5.7283554,-5.2726793,2.497968,2.4200354
2.662,6.633447,12.730338,5.6251307,-5.22978,2.510696,2.4086814
2.664,6.585284,12.684952,5.5165076,-5.1851525,2.5230677,2.3967047
2.666,6.5330167,12.636183,5.4024086,-5.138847,2.5350313,2.3842294
2.668,6.476475,12.5842495,5.2828608,-5.090934,2.5464938,2.37141
2.67,6.415278,12.5292225,5.1578813,-5.0414867,2.5573235,2.3584428
2.672,6.349247,12.471422,5.027425,-4.9906044,2.567357,2.3455472
2.674,6.278242,12.410824,4.8916616,-4.9383984,2.5763962,2.3329663
2.676,6.2020955,12.347622,4.7507133,-4.885007,2.5842133,2.32093
2.678,6.1206493,12.281794,4.60467,-4.83056,2.590546,2.3096495
2.68,6.0336695,12.213344,4.4538183,-4.775185,2.5951247,2.299284
2.682,5.9412813,12.142321,4.298339,-4.718995,2.597688,2.2898974
2.684,5.8433247,12.068429,4.1384,-4.662081,2.5979886,2.2814727
2.686,5.7397346,11.991671,3.9744911,-4.6045027,2.5958173,2.2739065
2.688,5.630535,11.911772,3.806756,-4.546291,2.5909944,2.267016
2.69,5.5159388,11.828453,3.6356807,-4.487429,2.5833807,2.2605762
2.692,5.3960676,11.7413645,3.4616342,-4.4278507,2.5729089,2.2543297
2.694,5.2709675,11.650179,3.28507,-4.367469,2.559535,2.2480283
2.696,5.1408615,11.554491,3.1064878,-4.3061776,2.5432508,2.2414787
2.698,5.005967,11.45393,2.9263797,-4.243841,2.524102,2.2345445
2.7,4.8666363,11.348095,2.7452354,-4.1803474,2.502151,2.2271721
2.702,4.7230835,11.23669,2.5637126,-4.1156,2.4774752,2.2193806
2.704,4.575711,11.1194315,2.3822207,-4.0495257,2.4502025,2.2112372
2.706,4.4248133,10.996176,2.201436,-3.9820867,2.4204347,2.2028716
2.708,4.270793,10.866674,2.0218658,-3.9132822,2.3882723,2.1944025
2.71,4.1138473,10.730968,1.8441687,-3.8431523,2.3538444,2.18596
2.712,3.9544222,10.589222,1.6688166,-3.7717824,2.3172626,2.1776574
2.714,3.7930076,10.441488,1.4965043,-3.6992733,2.278614,2.1696002
2.716,3.629938,10.288034,1.3277187,-3.6257253,2.237968,2.1618488
2.718,3.465594,10.129199,1.1629696,-3.5512738,2.1953733,2.154449
2.72,3.3003953,9.965454,1.002842,-3.4760528,2.1508493,2.147441
2.722,3.1346362,9.797379,0.8479414,-3.4002218,2.1044054,2.1408534
2.724,2.9687202,9.625552,0.6986952,-3.3239284,2.0560348,2.1347048
2.726,2.8030453,9.450606,0.5556278,-3.2473238,2.0057337,2.1290212
2.728,2.6379523,9.273278,0.4193201,-3.1705396,1.9534898,2.1238394
2.73,2.4736555,9.094245,0.29015446,-3.093708,1.8993015,2.119184
2.732,2.3105042,8.914485,0.16861558,-3.0169458,1.843187,2.115076
2.734,2.1486876,8.734817,0.055146456,-2.9403548,1.7851651,2.1115456
2.736,1.9886075,8.555986,-0.04979396,-2.8640175,1.7252749,2.1086419
2.738,1.8304043,8.378697,-0.14584708,-2.7879848,1.6635633,2.1063833
2.74,1.6744548,8.203766,-0.23269057,-2.7122865,1.6000954,2.104796
2.742,1.5207591,8.03187,-0.3099687,-2.636921,1.5349562,2.1038918
2.744,1.3696198,7.8637233,-0.37743068,-2.561887,1.4682415,2.1036706
2.746,1.2213509,7.699864,-0.43484712,-2.4871619,1.4000459,2.1041107
2.748,1.0759203,7.540853,-0.48195553,-2.412702,1.3304965,2.1051924
2.75,0.9335665,7.387365,-0.5185292,-2.3384726,1.259743,2.1068609
2.752,0.79461974,7.2397466,-0.5444834,-2.26443,1.1879296,2.109056
2.754,0.6591782,7.0985065,-0.5597365,-2.1905303,1.1152413,2.1116772
2.756,0.5276631,6.963798,-0.5642624,-2.1167433,1.0419108,2.1146078
2.758,0.400285,6.83587,-0.5581119,-2.0430417,0.9681966,2.1176832
2.76,0.27728134,6.7147765,-0.5413594,-1.9694049,0.89441407,2.1207204
2.762,0.15887734,6.6005554,-0.51418185,-1.8958153,0.8209243,2.12352
2.764,0.045283496,6.4931,-0.47685885,-1.8222406,0.7481475,2.125839
2.766,-0.06316724,6.3923273,-0.4297378,-1.7486436,0.67655474,2.1274335
2.768,-0.1663763,6.298035,-0.37317944,-1.6749934,0.60666776,2.1280613
2.77,-0.2639552,6.210032,-0.30775,-1.601258,0.5390265,2.1274977
2.772,-0.35589635,6.1280675,-0.23391867,-1.5273806,0.4741838,2.1255379
2.774,-0.44224736,6.0519853,-0.1523478,-1.4533143,0.41266984,2.1220303
2.776,-0.52286226,5.9814515,-0.06371522,-1.3790059,0.35498667,2.1168725
2.778,-0.5977324,5.916283,0.031280994,-1.30443,0.30160344,2.1100278
2.78,-0.6668126,5.8562045,0.13186169,-1.2295855,0.2529139,2.101502
2.782,-0.73011774,5.800952,0.23714101,-1.1544868,0.20925874,2.0913432
2.784,-0.78797305,5.7504196,0.34627795,-1.0791631,0.17088813,2.0796447
2.786,-0.8405403,5.70427,0.45832872,-1.0036795,0.13798964,2.0665371
2.788,-0.8880557,5.662391,0.57240117,-0.92812526,0.11067212,2.0521548
2.79,-0.9307252,5.624635,0.68750846,-0.8525986,0.08897364,2.0366373
2.792,-0.96904963,5.590849,0.8028673,-0.7772086,0.07289189,2.0201373
2.794,-1.0034059,5.561117,0.9174955,-0.7020797,0.062365055,2.0027854
2.796,-1.0342637,5.535231,1.030465,-0.62734467,0.05728197,1.9847126
2.798,-1.0619224,5.513131,1.141121,-0.5531367,0.05750847,1.9660313
2.8,-1.086979,5.4947724,1.2486061,-0.47960335,0.0628854,1.9468473
2.802,-1.1098924,5.480069,1.3522263,-0.4068942,0.07321751,1.9272301
2.804,-1.1311959,5.4689007,1.4511799,-0.33516482,0.08829337,1.9072503
2.806,-1.1513163,5.461335,1.5449919,-0.26458758,0.107878745,1.8869596
2.808,-1.1709375,5.457254,1.6331209,-0.19532996,0.13170666,1.866403
2.81,-1.1905181,5.4564514,1.7150213,-0.12755069,0.15948611,1.8455883
2.812,-1.2105078,5.458702,1.7902842,-0.061408125,0.19089875,1.8245083
2.814,-1.2314308,5.4638023,1.85865,0.002956368,0.22559798,1.8031371
2.816,-1.2537144,5.4713573,1.9198354,0.06541233,0.26323038,1.7814152
2.818,-1.2778949,5.481214,1.9737155,0.12584418,0.30340353,1.7592901
2.82,-1.3043102,5.492858,2.0200884,0.18418168,0.34573,1.7366735
2.822,-1.3333937,5.505788,2.0590749,0.24038598,0.38983282,1.713451
2.824,-1.3656013,5.5195913,2.0905662,0.2944375,0.4353441,1.6895232
2.826,-1.4011725,5.5337725,2.1147647,0.3463514,0.48193827,1.6647887
2.828,-1.4404383,5.5477133,2.1317668,0.39618343,0.52933866,1.639145
2.83,-1.483585,5.5608516,2.1416903,0.44401821,0.5772952,1.6125023
2.832,-1.5307964,5.5725117,2.144823,0.48995912,0.6255871,1.5847931
2.834,-1.58217,5.582054,2.1413455,0.5341408,0.6740504,1.5559855
2.836,-1.63776,5.5890083,2.1315284,0.5766818,0.7225313,1.5260665
2.838,-1.6974889,5.5926476,2.1157684,0.6177161,0.7709081,1.4950514
2.84,-1.7612745,5.592333,2.094411,0.65735817,0.819072,1.4629744
2.842,-1.8289969,5.5873804,2.0677495,0.69570094,0.8669163,1.4298861
2.844,-1.9003286,5.577231,2.036202,0.7328093,0.91433436,1.3958426
2.846,-1.9750642,5.5614204,2.0001001,0.7687317,0.96121496,1.3609228
2.848,-2.052866,5.5394983,1.9597825,0.8034797,1.0074558,1.3251917
2.85,-2.13343,5.511,1.9157528,0.8370609,1.0529557,1.2887247
2.852,-2.2162983,5.4756627,1.8682785,0.8694757,1.0975944,1.2515992
2.854,-2.301088,5.4332,1.8178273,0.9006971,1.1412662,1.213896
2.856,-2.3874414,5.38349,1.7647469,0.9307093,1.1838603,1.1756939
2.858,-2.47478,5.3264947,1.7094333,0.9594853,1.2252597,1.13709
2.86,-2.5607395,5.265313,1.6538258,0.9870204,1.2653576,1.0981929
2.862,-2.6465125,5.197888,1.597074,1.0133059,1.3040335,1.0591204
2.864,-2.7316425,5.1245127,1.539602,1.0383197,1.3411708,1.0200208
2.866,-2.815739,5.0457435,1.4816921,1.0620581,1.3766549,0.98105645
2.868,-2.8983748,4.9620714,1.4238284,1.08451,1.4103808,0.9423953
2.87,-2.9791183,4.8742065,1.3662077,1.1056854,1.4422358,0.9042106
2.872,-3.0576653,4.7827644,1.3091851,1.1255653,1.4721208,0.86668825
2.874,-3.133683,4.688514,1.2530936,1.1441381,1.4999499,0.830008
2.876,-3.206949,4.5921984,1.1981614,1.1614116,1.5256219,0.79434156
2.878,-3.2772608,4.494563,1.144605,1.17739,1.5490403,0.7598283
2.88,-3.3446062,4.3963847,1.0926925,1.1920894,1.5700972,0.7265943
2.882,-3.4087613,4.2983956,1.0424906,1.2055136,1.5886875,0.69472
2.884,-3.4695525,4.2011967,0.9941344,1.2176783,1.6046908,0.66426355
2.886,-3.5270762,4.1054993,0.9477867,1.2286024,1.6179667,0.6352501
2.888,-3.58136,4.01176,0.9034114,1.238207,1.6287651,0.608382
2.89,-3.6324255,3.9205246,0.86105585,1.2466222,1.6369836,0.58323073
2.892,-3.6804574,3.8321886,0.8207581,1.2538851,1.642692,0.5598376
2.894,-3.7253861,3.7470567,0.78247905,1.2600548,1.6460258,0.5382361
2.896,-3.7674026,3.6653967,0.74618983,1.2652069,1.647196,0.5184439
2.898,-3.8065479,3.5873704,0.7118206,1.2694235,1.6464671,0.5004563
2.9,-3.8430018,3.513098,0.6793091,1.2727973,1.6441467,0.4842348
2.902,-3.877008,3.4426274,0.64857435,1.2754462,1.6405578,0.46972883
2.904,-3.9085054,3.3758926,0.61957383,1.2774678,1.6360179,0.45683855
2.906,-3.9376729,3.3127928,0.5922601,1.2789615,1.6308355,0.4454518
2.908,-3.9647837,3.2533166,0.5664605,1.2800367,1.6252555,0.4354378
2.91,-3.9899857,3.1973195,0.5420804,1.2807726,1.6194912,0.42665994
