Time_s_,Acc_x_m_s_2_,Acc_y_m_s_2_,Acc_z_m_s_2_,Gyro_x_1_s_,Gyro_y_1_s_,Gyro_z_1_s_
0,0.30272955,-0.25252977,0.2314389,0.23645109,-0.2791981,0.46794719
0.002,0.29018185,-0.24673241,0.23901017,0.2358142,-0.2794959,0.46545923
0.004,0.27682832,-0.24063173,0.24844486,0.23501325,-0.28011566,0.462508
0.006,0.26247793,-0.23408891,0.2597506,0.23399994,-0.28112096,0.45903823
0.008,0.24742734,-0.22725633,0.2726377,0.23270893,-0.28258717,0.4549875
0.01,0.23151281,-0.21997657,0.28747457,0.23106785,-0.28457144,0.45031694
0.012,0.21476334,-0.21217757,0.3042217,0.22900692,-0.28711,0.44499665
0.014,0.1974176,-0.20392577,0.32287768,0.22646677,-0.290208,0.43900415
0.016,0.17958444,-0.19517045,0.34331506,0.22339603,-0.29384753,0.43233874
0.018,0.16158338,-0.1859363,0.36536205,0.21978633,-0.29794043,0.4250124
0.02,0.14326684,-0.17605983,0.3889934,0.21566334,-0.30234355,0.41705066
0.022,0.124771014,-0.16545396,0.41412464,0.21109895,-0.30686113,0.40848073
0.024,0.10635604,-0.15405096,0.44044277,0.20618635,-0.31121385,0.3993455
0.026,0.08847896,-0.14202341,0.46788406,0.20105693,-0.3150567,0.38968596
0.028,0.071348496,-0.12943642,0.49639902,0.19577356,-0.3180372,0.37941048
0.03,0.05539324,-0.11639766,0.5257189,0.19057801,-0.31974408,0.36876285
0.032,0.040986195,-0.10295296,0.5555363,0.18557581,-0.31977034,0.35782048
0.034,0.028626693,-0.08922502,0.5854018,0.18085766,-0.31777912,0.34667322
0.036,0.01880239,-0.075284116,0.6148681,0.176492,-0.31349033,0.33540875
0.038,0.011862088,-0.06115051,0.64330345,0.17251188,-0.30672288,0.32412523
0.04,0.008480765,-0.046873555,0.6701132,0.16893107,-0.29743573,0.31290835
0.042,0.009056218,-0.03246364,0.69471806,0.16574979,-0.28569013,0.301816
0.044,0.014049806,-0.017806947,0.7165693,0.16298059,-0.2716185,0.29088372
0.046,0.023946628,-0.002994284,0.7350827,0.16063456,-0.25542593,0.28012258
0.048,0.038977504,0.0119586885,0.74982715,0.1587115,-0.23737627,0.26952466
0.05,0.059579313,0.027005553,0.7603409,0.15721007,-0.21774629,0.25906038
0.052,0.08584909,0.04206398,0.76622444,0.1561213,-0.196793,0.24869603
0.054,0.11791845,0.057249233,0.7672822,0.1554119,-0.17479505,0.2383784
0.056,0.15565136,0.07277638,0.7633819,0.15506084,-0.15200911,0.22804184
0.058,0.19982307,0.0881563,0.75401735,0.15501897,-0.12870848,0.21761703
0.06,0.25062737,0.1031954,0.7387305,0.15524594,-0.10518995,0.20704018
0.062,0.3079133,0.11791375,0.71755415,0.15570536,-0.081776455,0.19623774
0.064,0.37132728,0.13238059,0.69101954,0.15635501,-0.05882761,0.18511932
0.066,0.4404619,0.14685807,0.65931946,0.15717196,-0.036707714,0.17360844
0.068,0.5151293,0.16150224,0.62287474,0.15815464,-0.015766904,0.16164142
0.07,0.59522855,0.17607388,0.5822258,0.15934439,0.003721878,0.14917482
0.072,0.6804023,0.1904423,0.5377763,0.16080365,0.021557309,0.13623163
0.074,0.770463,0.20451298,0.4898668,0.1626208,0.037665904,0.122891314
0.076,0.8652406,0.218155,0.43873474,0.1649011,0.05213462,0.10930854
0.078,0.96471167,0.2312029,0.38453752,0.1677593,0.065169245,0.09567559
0.08,1.0690665,0.24353606,0.327184,0.17129435,0.07709738,0.082243636
0.082,1.1782749,0.25505432,0.2665642,0.17559731,0.08833383,0.069289714
0.084,1.2923137,0.26552725,0.20254599,0.18070781,0.09932763,0.05709114
0.086,1.4108189,0.27500618,0.13538055,0.18664335,0.11047301,0.045890138
0.088,1.5334507,0.28365052,0.06561853,0.19336356,0.122078866,0.03586279
0.09,1.6599917,0.29129052,-0.0061810613,0.2007609,0.13424999,0.027131319
0.092,1.789887,0.29783612,-0.078895524,0.20867422,0.1468337,0.019746456
0.094,1.9224653,0.3032481,-0.15182406,0.2169224,0.15955588,0.013692804
0.096,2.056803,0.3077504,-0.22375791,0.22531398,0.1720067,0.008842509
0.098,2.1918402,0.3116274,-0.29368412,0.23364794,0.18362331,0.00502206
0.1,2.3260214,0.31530493,-0.36089754,0.24172187,0.19375691,0.0020344704
0.102,2.4584131,0.31913853,-0.42458564,0.24933608,0.2017662,-0.00031003729
0.104,2.5874515,0.3237809,-0.48443726,0.25630808,0.20705627,-0.0021942295
0.106,2.7119482,0.3298828,-0.5398689,0.26249576,0.20914909,-0.0038034245
0.108,2.8299656,0.3383677,-0.59044176,0.2678216,0.2077599,-0.0053291433
0.11,2.9399276,0.3500631,-0.63581836,0.27226853,0.20284727,-0.006992504
0.112,3.0399344,0.36600816,-0.67582667,0.2759169,0.19462228,-0.009026729
0.114,3.128682,0.38679683,-0.7103505,0.2788968,0.18356569,-0.011665616
0.116,3.2048206,0.4130988,-0.7389338,0.28143853,0.17044115,-0.0151018575
0.118,3.2671266,0.44551957,-0.76120746,0.28385052,0.15621378,-0.019483745
0.12,3.3146906,0.48450398,-0.77736276,0.2864772,0.14199662,-0.024894617
0.122,3.3468826,0.53029954,-0.7874379,0.28969285,0.1289552,-0.031319104
0.124,3.3631544,0.5831971,-0.7917574,0.29386115,0.11816795,-0.038659096
0.126,3.3636303,0.6433635,-0.79100657,0.29930148,0.11053164,-0.046778943
0.128,3.3484347,0.7107481,-0.78603774,0.3062844,0.10668912,-0.055497468
0.13,3.3184216,0.7851478,-0.7779858,0.31496757,0.106995806,-0.06465191
0.132,3.2745214,0.8662267,-0.76798815,0.32543346,0.111535914,-0.074117646
0.134,3.2179785,0.95342743,-0.75722915,0.33767235,0.12019077,-0.083853096
0.136,3.150079,1.046166,-0.74683833,0.35161072,0.13272852,-0.093861796
0.138,3.0727892,1.1434785,-0.7378303,0.36715424,0.14891216,-0.10414735
0.14,2.9879494,1.2443357,-0.73098207,0.384157,0.16855568,-0.114697605
0.142,2.8975687,1.3474557,-0.726745,0.40244213,0.19156966,-0.12543136
0.144,2.8038113,1.4516383,-0.7255122,0.42180526,0.21798189,-0.13618894
0.146,2.708726,1.555501,-0.72765464,0.4420032,0.2478638,-0.14671871
0.148,2.6145592,1.6576476,-0.73325825,0.46271735,0.28110665,-0.1567302
0.15,2.5230613,1.7567841,-0.7423014,0.483559,0.3173463,-0.16592354
0.152,2.4359586,1.8517408,-0.7547267,0.50407434,0.35593155,-0.17410886
0.154,2.3548849,1.9413658,-0.77019405,0.52377117,0.39587462,-0.18127343
0.156,2.280962,2.0247824,-0.78822124,0.54213715,0.4358399,-0.18761477
0.158,2.2153504,2.1012714,-0.808321,0.5586632,0.4742249,-0.19353965
0.16,2.1586924,2.1702502,-0.82977057,0.57289183,0.50931513,-0.1995877
0.162,2.1113968,2.2314162,-0.8519011,0.5844823,0.53952444,-0.20637093
0.164,2.0737004,2.2844906,-0.8742368,0.59324896,0.56357193,-0.21447065
0.166,2.045277,2.3297691,-0.89625776,0.5991854,0.5806863,-0.22435285
0.168,2.025683,2.3674123,-0.91744035,0.6024961,0.59069127,-0.2362731
0.17,2.0143094,2.3979192,-0.9374573,0.6035412,0.59400445,-0.25025547
0.172,2.0107613,2.4217668,-0.9565351,0.60281587,0.5916336,-0.2660752
0.174,2.0145617,2.4394338,-0.97520447,0.6009033,0.5850026,-0.28332135
0.176,2.0250359,2.451613,-0.9937563,0.59840214,0.5757709,-0.30147183
0.178,2.0410104,2.4590578,-1.0124832,0.59586984,0.5656488,-0.31996292
0.18,2.0615888,2.4629097,-1.031713,0.59379816,0.5562057,-0.33828092
0.182,2.0857565,2.4640732,-1.0517066,0.5925576,0.5487032,-0.3560224
0.184,2.112663,2.4634848,-1.0727131,0.5924004,0.5440018,-0.37292108
0.186,2.141618,2.4620092,-1.094792,0.59342504,0.5425272,-0.3888219
0.188,2.1717763,2.4603353,-1.1182276,0.5956074,0.5442607,-0.40367275
0.19,2.2024035,2.459092,-1.1431081,0.5988194,0.5488428,-0.41749772
0.192,2.233118,2.4588718,-1.169749,0.6028408,0.55563337,-0.43034297
0.194,2.2636914,2.4601202,-1.198366,0.60741866,0.56383663,-0.44222546
0.196,2.2941227,2.4631915,-1.2296317,0.61229753,0.5726014,-0.45317814
0.198,2.3244781,2.468253,-1.2639452,0.6172444,0.5811121,-0.4632097
0.2,2.3547812,2.4757752,-1.301707,0.6220453,0.5886737,-0.4723241
0.202,2.3851614,2.4859157,-1.3433824,0.6265379,0.59476846,-0.4805105
0.204,2.4156654,2.4987776,-1.388676,0.6306399,0.5991151,-0.48774967
0.206,2.4465394,2.5143774,-1.4374846,0.6343362,0.6016829,-0.49403116
0.208,2.477796,2.5327618,-1.4893786,0.63767153,0.60264635,-0.4993213
0.21,2.509654,2.5537813,-1.5437036,0.6407441,0.60234994,-0.50356126
0.212,2.541771,2.577569,-1.6000198,0.6436752,0.60129184,-0.50664926
0.214,2.5741005,2.6041005,-1.6578374,0.6466083,0.5999956,-0.5084646
0.216,2.6062665,2.6335475,-1.7169473,0.64966285,0.59894633,-0.50886005
0.218,2.6383462,2.665847,-1.7772484,0.6529605,0.59853745,-0.5077028
0.22,2.6699367,2.7010722,-1.8386865,0.6566168,0.5990205,-0.50487465
0.222,2.7009602,2.73932,-1.901515,0.660726,0.60048187,-0.5003006
0.224,2.7308137,2.7809417,-1.9659024,0.66536975,0.6028489,-0.49393222
0.226,2.7589688,2.8262897,-2.032309,0.6706196,0.60590994,-0.48575804
0.228,2.784912,2.875691,-2.1011956,0.6765306,0.60937387,-0.47578657
0.23,2.808176,2.9291956,-2.1728382,0.6831516,0.612926,-0.46403125
0.232,2.8282285,2.986981,-2.2475333,0.6905209,0.6162206,-0.45051605
0.234,2.8445683,3.0491445,-2.325283,0.69865227,0.6188898,-0.43523097
0.236,2.8565702,3.115474,-2.4058788,0.70753706,0.6205687,-0.4181511
0.238,2.8636897,3.1859834,-2.4889803,0.7171346,0.6208768,-0.3992254
0.24,2.8654194,3.2604175,-2.574131,0.72736406,0.6194012,-0.37840492
0.242,2.861186,3.338536,-2.6609008,0.73809415,0.61566055,-0.35564974
0.244,2.8501408,3.4203782,-2.7484164,0.7491633,0.60908544,-0.33094534
0.246,2.8317769,3.5057955,-2.836035,0.7603984,0.59902215,-0.30429864
0.248,2.8054037,3.5944602,-2.922912,0.77160835,0.5847366,-0.27574614
0.25,2.770287,3.686253,-3.00804,0.7825909,0.5654333,-0.24530508
0.252,2.7256467,3.78089,-3.090361,0.79313636,0.5403263,-0.21297956
0.254,2.6706553,3.8780806,-3.16854,0.8030435,0.50868344,-0.17878759
0.256,2.6046724,3.9776263,-3.2411408,0.8121185,0.46992868,-0.14272332
0.258,2.526897,4.079366,-3.3067393,0.8201692,0.42365333,-0.1048
0.26,2.4366841,4.1831665,-3.3636518,0.827031,0.3696617,-0.06500754
0.262,2.3328576,4.2890124,-3.408789,0.8325856,0.30804947,-0.023314506
0.264,2.2154498,4.3968363,-3.4423115,0.8367864,0.23920614,0.02032511
0.266,2.0843883,4.5067897,-3.4651039,0.83965635,0.16379371,0.066004455
0.268,1.9382116,4.6192822,-3.4742126,0.84128463,0.08275959,0.11383973
0.27,1.7750214,4.735702,-3.4675593,0.8418304,-0.0027700365,0.16395593
0.272,1.5958422,4.855985,-3.4426558,0.84147984,-0.091522574,0.2164932
0.274,1.400275,4.9800406,-3.4019449,0.8403996,-0.18217508,0.2715611
0.276,1.1893063,5.1064787,-3.347318,0.8387317,-0.27341586,0.32918692
0.278,0.96279705,5.2354226,-3.2788491,0.83655983,-0.36402398,0.38930604
0.28,0.7212305,5.367809,-3.1962404,0.83389205,-0.45294696,0.45175657
0.282,0.4651612,5.5047846,-3.099321,0.830646,-0.539347,0.51622933
0.284,0.19505072,5.6470118,-2.9891398,0.8266625,-0.622621,0.5822712
0.286,-0.08818436,5.794615,-2.8671818,0.82173127,-0.70237356,0.64931333
0.288,-0.3831396,5.9476485,-2.7353609,0.8156305,-0.7784277,0.71670234
0.29,-0.68860674,6.1058683,-2.595799,0.8081453,-0.85084206,0.7837702
0.292,-1.0031574,6.269288,-2.450492,0.7991195,-0.91981745,0.84990245
0.294,-1.3250575,6.4379005,-2.301473,0.7885807,-0.985304,0.9147087
0.296,-1.6525254,6.611534,-2.150899,0.7766095,-1.0474921,0.9779139
0.298,-1.9834847,6.790184,-2.0009346,0.7633151,-1.1067473,1.0394017
0.3,-2.3158648,6.973328,-1.8538568,0.7488545,-1.163277,1.0992855
0.302,-2.6475718,7.160389,-1.7116343,0.7334504,-1.2169216,1.157854
0.304,-2.975448,7.35017,-1.5758691,0.7174294,-1.2672346,1.2154425
0.306,-3.2965498,7.54125,-1.4482354,0.7010801,-1.3140349,1.272387
0.308,-3.608217,7.7328024,-1.3302586,0.6847346,-1.3570567,1.3292727
0.31,-3.9078999,7.9236503,-1.2230655,0.6687215,-1.3958526,1.3867663
0.312,-4.1926556,8.112633,-1.1274762,0.65331453,-1.4299256,1.4454303
0.314,-4.4593945,8.298375,-1.0438646,0.6386986,-1.4588562,1.5056567
0.316,-4.705332,8.479301,-0.9720462,0.6249356,-1.4824274,1.567712
0.318,-4.9278316,8.653858,-0.91120595,0.61194915,-1.5007426,1.6317016
0.32,-5.12479,8.820617,-0.85982776,0.59952235,-1.5143445,1.6975563
0.322,-5.294181,8.978034,-0.8162143,0.5872673,-1.5242856,1.76496
0.324,-5.4341955,9.124594,-0.778078,0.5746981,-1.5320629,1.8333328
0.326,-5.543323,9.258996,-0.7430292,0.5612707,-1.5396018,1.9017766
0.328,-5.620609,9.380108,-0.7081378,0.5464432,-1.5490459,1.9690448
0.33,-5.6656237,9.487129,-0.67049,0.52970445,-1.5626198,2.0336063
0.332,-5.6785564,9.579363,-0.62746084,0.5106348,-1.582375,2.0937068
0.334,-5.659468,9.656044,-0.5764353,0.48900574,-1.6099007,2.1474483
0.336,-5.6089835,9.716351,-0.5147777,0.46482372,-1.6460924,2.1929595
0.338,-5.528575,9.760031,-0.4401164,0.4383337,-1.6911061,2.22853
0.34,-5.4201646,9.787157,-0.35045493,0.4100529,-1.7442787,2.2527025
0.342,-5.2856216,9.797842,-0.24404055,0.38072985,-1.8042347,2.2643757
0.344,-5.1269536,9.792034,-0.11969596,0.3512743,-1.8690667,2.2628515
0.346,-4.9466286,9.770118,0.023693576,0.32269073,-1.9365866,2.247836
0.348,-4.7472134,9.732294,0.18662752,0.29591066,-2.004766,2.2193146
0.35,-4.5310993,9.6788025,0.36909878,0.2719003,-2.0714087,2.1776745
0.352,-4.3009644,9.609856,0.57070345,0.25151747,-2.1346128,2.1234944
0.354,-4.0588827,9.525389,0.79052,0.23542988,-2.1931703,2.057439
0.356,-3.8070397,9.425501,1.027662,0.22404641,-2.246656,1.9802539
0.358,-3.5473883,9.310385,1.2808677,0.21749026,-2.295159,1.8927593
0.36,-3.2811325,9.179212,1.5492024,0.21575904,-2.3387856,1.7958385
0.362,-3.0116863,9.032591,1.8317385,0.21864033,-2.3780851,1.6902255
0.364,-2.7402198,8.870728,2.1277826,0.22579241,-2.413934,1.5767878
0.366,-2.4658372,8.691802,2.433877,0.23679864,-2.4471345,1.45671
0.368,-2.1877663,8.493105,2.7464817,0.25117576,-2.4781961,1.3313897
0.37,-1.9065735,8.273689,3.0644042,0.26840615,-2.5072045,1.2023305
0.372,-1.6225929,8.034664,3.3844273,0.2879498,-2.533726,1.0711032
0.374,-1.336179,7.777047,3.704658,0.30929494,-2.5567923,0.9392784
0.376,-1.0470376,7.4999785,4.0230575,0.33199966,-2.5750089,0.8083935
0.378,-0.75372624,7.2014537,4.334328,0.3556677,-2.5866878,0.67981887
0.38,-0.45459962,6.879396,4.6347423,0.37999928,-2.5899086,0.5546982
0.382,-0.15078807,6.534434,4.920188,0.40482128,-2.5827694,0.43390068
0.384,0.15801907,6.1672935,5.1904235,0.43007624,-2.5635667,0.31797183
0.386,0.47140336,5.779578,5.442827,0.45578587,-2.5308995,0.2071361
0.388,0.7873471,5.3723545,5.669756,0.48200095,-2.483793,0.10137144
0.39,1.1013613,4.944436,5.8702846,0.5087841,-2.4218497,0.00048541278
0.392,1.4286118,4.486997,6.0456142,0.53608865,-2.3453329,-0.09582676
0.394,1.762823,4.003481,6.1791396,0.5638998,-2.2546568,-0.18799016
0.396,2.1008236,3.500008,6.266444,0.59236693,-2.1501136,-0.27648672
0.398,2.450575,2.9788067,6.31224,0.62147844,-2.0326664,-0.3616466
0.4,2.8126888,2.4398253,6.321542,0.6509844,-1.9037919,-0.44338927
0.402,3.1848712,1.8867183,6.3049483,0.6805236,-1.7648494,-0.5213502
0.404,3.557313,1.3357399,6.2544017,0.7096596,-1.6171038,-0.5952515
0.406,3.930429,0.797449,6.149198,0.7379073,-1.4619544,-0.6648695
0.408,4.3120985,0.27142954,5.991619,0.76471734,-1.3008984,-0.7297859
0.41,4.6977086,-0.24293339,5.80186,0.78941435,-1.1354398,-0.7892081
0.412,5.079462,-0.74376464,5.585282,0.81114,-0.96720344,-0.8421463
0.414,5.4554834,-1.2256783,5.3268914,0.82883,-0.79809606,-0.88768536
0.416,5.8277345,-1.682936,5.0176535,0.8412255,-0.6303043,-0.92504436
0.418,6.1917963,-2.1072412,4.660106,0.8470979,-0.4658864,-0.95383304
0.42,6.544178,-2.4910777,4.264875,0.84505874,-0.30735254,-0.9744946
0.422,6.88192,-2.825733,3.8433852,0.83394754,-0.15725085,-0.98722905
0.424,7.202,-3.1014042,3.4020925,0.81282735,-0.01834765,-0.99168885
0.426,7.5019546,-3.310501,2.9506128,0.7812212,0.106588244,-0.98773277
0.428,7.778654,-3.4429655,2.498179,0.7397679,0.21613777,-0.9754634
0.43,8.032876,-3.4905548,2.0446763,0.69002235,0.3099026,-0.95476604
0.432,8.266015,-3.4511356,1.585066,0.6349161,0.3890853,-0.9247319
0.434,8.476717,-3.3254423,1.1161429,0.57939106,0.45827484,-0.88344026
0.436,8.662159,-3.1135364,0.63581127,0.52986276,0.5250548,-0.8284713
0.438,8.82026,-2.816471,0.140269,0.49322337,0.596889,-0.7578703
0.44,8.948448,-2.4386275,-0.37363386,0.47670543,0.6818866,-0.6700319
0.442,9.043399,-1.9876633,-0.9073634,0.4879441,0.79067314,-0.563931
0.444,9.102767,-1.4743841,-1.4632494,0.5342024,0.9342749,-0.44055453
0.446,9.125462,-0.9108889,-2.0445924,0.6214012,1.1218456,-0.30394232
0.448,9.111145,-0.3105302,-2.6552544,0.7527196,1.3589783,-0.16149244
0.45,9.061465,0.31252718,-3.2967744,0.9275535,1.6476729,-0.023289025
0.452,8.976717,0.9440446,-3.9668665,1.1417881,1.9871256,0.09821507
0.454,8.85907,1.569469,-4.661486,1.3881651,2.3719797,0.1884046
0.456,8.712879,2.1737623,-5.376214,1.6559831,2.7902827,0.23323068
0.458,8.543171,2.7428114,-6.1054997,1.9314419,3.2241602,0.22203147
0.46,8.354778,3.2644694,-6.8423486,2.1990047,3.651086,0.1486623
0.462,8.15323,3.7285035,-7.5770745,2.4430003,4.04467,0.011972368
0.464,7.9441233,4.126709,-8.297154,2.6489177,4.3765106,-0.18332465
0.466,7.7335014,4.4534035,-8.988216,2.8044682,4.6196074,-0.42635673
0.468,7.5275993,4.7057033,-9.634966,2.900566,4.7516937,-0.701558
0.47,7.332142,4.884267,-10.223222,2.932189,4.7579327,-0.9910124
0.472,7.1547184,4.9912066,-10.740358,2.8987541,4.632854,-1.2764698
0.474,6.999817,5.031199,-11.17537,2.8043218,4.382023,-1.5410028
0.476,6.8700323,5.0124817,-11.5164795,2.6567047,4.0210156,-1.7716558
0.478,6.7678165,4.944578,-11.754,2.4668777,3.5737512,-1.9600823
0.48,6.696079,4.835828,-11.883047,2.2475975,3.069025,-2.1020858
0.482,6.656354,4.6935606,-11.899908,2.0118976,2.5364695,-2.1975439
0.484,6.6476245,4.5263443,-11.802491,1.7710882,2.0046895,-2.2500916
0.486,6.6679697,4.344453,-11.591993,1.5381392,1.4964932,-2.26631
0.488,6.714266,4.157689,-11.272951,1.3204169,1.0280803,-2.254302
0.49,6.782444,3.9737287,-10.852677,1.1237023,0.60872185,-2.2221472
0.492,6.867733,3.7981014,-10.340005,0.9517225,0.24354684,-2.1768343
0.494,6.9650526,3.6351094,-9.745345,0.8057144,-0.06761485,-2.124514
0.496,7.0684958,3.4881146,-9.080344,0.6844236,-0.3300581,-2.0702534
0.498,7.1745863,3.3583088,-8.355802,0.58514696,-0.5499959,-2.0171638
0.5,7.279887,3.248057,-7.588563,0.5046798,-0.73240566,-1.9665695
0.502,7.364599,3.1652086,-6.793733,0.4401043,-0.8809588,-1.9186764
0.504,7.4341984,3.103812,-5.9692707,0.38909155,-0.998836,-1.8734865
0.506,7.488276,3.0568323,-5.1275735,0.34949917,-1.0891963,-1.8306366
0.508,7.517271,3.0223815,-4.2869215,0.3191016,-1.1544404,-1.7890831
0.51,7.52246,3.0004146,-3.4611437,0.2962614,-1.1957761,-1.7483946
0.512,7.5074654,2.9870505,-2.6648004,0.27999482,-1.2143555,-1.7091973
0.514,7.4809246,2.9691467,-1.892107,0.26949996,-1.2117447,-1.6724045
0.516,7.440381,2.9441652,-1.1319733,0.26396492,-1.1894966,-1.6388234
0.518,7.3792405,2.920003,-0.3986594,0.26281288,-1.1491911,-1.609502
0.52,7.3051105,2.901888,0.28415567,0.26577824,-1.0929401,-1.5857275
0.522,7.2256193,2.8903966,0.91447157,0.27273163,-1.0232692,-1.5683681
0.524,7.140567,2.8825905,1.5068941,0.28340653,-0.9426944,-1.557617
0.526,7.0488763,2.875075,2.0646205,0.29727435,-0.85371584,-1.5533289
0.528,6.9556184,2.8630242,2.5780392,0.31362617,-0.7587925,-1.555272
0.53,6.8639355,2.8437889,3.0338132,0.33168262,-0.66018134,-1.5629644
0.532,6.775196,2.8148615,3.423593,0.3505752,-0.55984306,-1.5757759
0.534,6.690481,2.773409,3.7475579,0.36959752,-0.45918518,-1.592842
0.536,6.6095867,2.7194057,4.0040207,0.38816783,-0.35952264,-1.6131703
0.538,6.5326805,2.6508398,4.1932225,0.40651497,-0.26250097,-1.6356544
0.54,6.4568787,2.5677278,4.324251,0.4221564,-0.16865443,-1.659175
0.542,6.37909,2.4753442,4.4075236,0.4361816,-0.07926816,-1.6828046
0.544,6.2990007,2.3784072,4.4483175,0.44839433,0.004920453,-1.7058192
0.546,6.217391,2.2785926,4.449102,0.45873177,0.08331734,-1.7276684
0.548,6.133459,2.1768875,4.4132752,0.46722212,0.1554667,-1.7480509
0.55,6.0463696,2.0759463,4.343224,0.4740571,0.22110695,-1.76696
0.552,5.954866,1.9792515,4.2402267,0.47959855,0.28023306,-1.784687
0.554,5.8575983,1.8901068,4.107762,0.48435202,0.33319715,-1.8016423
0.556,5.750923,1.811346,3.9501064,0.48893034,0.38072157,-1.8182852
0.558,5.6321588,1.7444519,3.7714827,0.49405771,0.42390046,-1.835086
0.56,5.498295,1.689873,3.5755117,0.5005034,0.46401054,-1.8525009
0.562,5.346897,1.6479001,3.3634336,0.50901294,0.50227463,-1.870892
0.564,5.175546,1.6193175,3.1366687,0.52016896,0.5397314,-1.8904933
0.566,4.982233,1.6051106,2.8986225,0.534271,0.57706594,-1.9113399
0.568,4.7660675,1.6059568,2.653498,0.5512354,0.61451244,-1.9333131
0.57,4.5275,1.6219215,2.4057927,0.57060754,0.6518339,-1.9562
0.572,4.267993,1.6525965,2.1589453,0.5916362,0.688388,-1.97975
0.574,3.989133,1.6972455,1.9148932,0.61331034,0.72322434,-2.0036983
0.576,3.6929083,1.7545623,1.6750348,0.63441986,0.75523543,-2.027724
0.578,3.3817985,1.8221731,1.4406176,0.6536826,0.78332317,-2.051466
0.58,3.05903,1.8971736,1.2134395,0.6698669,0.80660725,-2.0745628
0.582,2.7280135,1.9762754,0.99555147,0.6818551,0.8244758,-2.096654
0.584,2.3923979,2.0563054,0.789045,0.68872523,0.8366739,-2.1173317
0.586,2.0558012,2.1342413,0.59586525,0.68980277,0.8433365,-2.1361108
0.588,1.7226075,2.207213,0.4168753,0.684627,0.84481215,-2.1525164
0.59,1.3969299,2.272638,0.25252014,0.67303014,0.8417095,-2.166174
0.592,1.082824,2.3282514,0.102932274,0.65521276,0.8349831,-2.1768138
0.594,0.7839776,2.3719993,-0.031958908,0.6316895,0.8257202,-2.184255
0.596,0.5035893,2.4021316,-0.15271433,0.60329294,0.81511426,-2.1884408
0.598,0.2451886,2.4173331,-0.2597078,0.57113445,0.80445266,-2.1895137
0.6,0.011259556,2.4172466,-0.35279733,0.5365156,0.7949662,-2.1878788
0.602,-0.19573635,2.4015303,-0.43304646,0.5008763,0.78776824,-2.1841338
0.604,-0.3736242,2.3702533,-0.50070727,0.46561033,0.78375614,-2.1790123
0.606,-0.5209566,2.323937,-0.55542886,0.43198708,0.7834722,-2.1733243
0.608,-0.6373643,2.263771,-0.5974969,0.40104178,0.7870288,-2.1679103
0.61,-0.7219133,2.190474,-0.6283133,0.37349162,0.79406047,-2.163574
0.612,-0.773938,2.1047187,-0.6502457,0.34964338,0.803686,-2.1609945
0.614,-0.79408175,2.0079143,-0.66458756,0.32942337,0.81464386,-2.1606457
0.616,-0.7832514,1.9023098,-0.6722036,0.31243187,0.8254719,-2.1627934
0.618,-0.74228513,1.7896581,-0.6737776,0.29801348,0.83460677,-2.1675053
0.62,-0.6725779,1.6715178,-0.6694039,0.2853535,0.8406061,-2.1747015
0.622,-0.57509506,1.5489993,-0.65896785,0.27357927,0.8422963,-2.1842108
0.624,-0.45113036,1.423696,-0.64293987,0.26182547,0.8387939,-2.1957664
0.626,-0.30237132,1.2963437,-0.6206814,0.24931952,0.82952684,-2.2090793
0.628,-0.12996271,1.1674726,-0.5916707,0.23553514,0.8142618,-2.223881
0.63,0.06454262,1.037573,-0.55616736,0.22025308,0.79308707,-2.2399929
0.632,0.28032312,0.9066879,-0.5148525,0.20350268,0.7663286,-2.257301
0.634,0.51592624,0.77496785,-0.46813238,0.1854904,0.7345534,-2.2756891
0.636,0.76897717,0.6427513,-0.41689667,0.1666503,0.698637,-2.2950616
0.638,1.0377693,0.50981027,-0.36151886,0.14754772,0.65968764,-2.315335
0.64,1.3201234,0.37608966,-0.302392,0.12879732,0.6189878,-2.3364062
0.642,1.6134772,0.24131441,-0.24029467,0.111001134,0.5780421,-2.3581138
0.644,1.9149965,0.10589957,-0.1766357,0.09466109,0.5384321,-2.3802347
0.646,2.2221162,-0.029672146,-0.11179813,0.08015214,0.50165343,-2.4024794
0.648,2.5320861,-0.16494554,-0.045908503,0.06768976,0.4690267,-2.4244647
0.65,2.8416002,-0.2993915,0.020368915,0.057287604,0.44156379,-2.4457104
0.652,3.1477757,-0.43278176,0.08629655,0.048812732,0.41987497,-2.4657204
0.654,3.4479795,-0.56443125,0.15053198,0.041989923,0.404119,-2.4840555
0.656,3.7389781,-0.69378746,0.21226215,0.036428347,0.39394617,-2.5003319
0.658,4.0179467,-0.82015276,0.27026784,0.031668782,0.3885822,-2.5141883
0.66,4.282245,-0.9430656,0.323752,0.027167872,0.38689542,-2.5253212
0.662,4.529495,-1.0616674,0.37224734,0.02233304,0.3874601,-2.5335085
0.664,4.756395,-1.1746227,0.41481817,0.016537875,0.38866943,-2.5385673
0.666,4.9615483,-1.2813505,0.45158005,0.0091487765,0.38888866,-2.5403326
0.668,5.1429577,-1.3810717,0.48323506,-0.00047203898,0.38654673,-2.5386891
0.67,5.298688,-1.4725763,0.5090853,-0.012920082,0.38021913,-2.5335493
0.672,5.4286175,-1.5552601,0.5291045,-0.028701618,0.3687595,-2.5248754
0.674,5.5320106,-1.6287704,0.5442523,-0.048221856,0.35139674,-2.5126493
0.676,5.6079073,-1.6926436,0.554756,-0.0717262,0.32782567,-2.4969013
0.678,5.6562543,-1.7467691,0.5604919,-0.09932884,0.2982299,-2.4777303
0.68,5.677353,-1.7914765,0.5605477,-0.13101962,0.2632087,-2.4552875
0.682,5.672084,-1.8269278,0.5543288,-0.166691,0.22366865,-2.4297826
0.684,5.6413283,-1.8531296,0.541538,-0.20612952,0.18076053,-2.401435
0.686,5.5864725,-1.8707297,0.5223059,-0.24902856,0.13579044,-2.3704731
0.688,5.5102553,-1.8800132,0.4973839,-0.2950021,0.09007168,-2.337172
0.69,5.4137864,-1.8811568,0.46690565,-0.3436928,0.044819996,-2.301789
0.692,5.2981634,-1.8745357,0.43136305,-0.3947503,0.0011513978,-2.2645931
0.694,5.165873,-1.8611536,0.3908913,-0.44784665,-0.03997989,-2.2258558
0.696,5.01929,-1.8420941,0.34497714,-0.5026703,-0.07777373,-2.1858895
0.698,4.860494,-1.8184333,0.293491,-0.55894685,-0.111621745,-2.1450586
0.7,4.6919484,-1.7915778,0.23622394,-0.616444,-0.14111987,-2.1037972
0.702,4.516543,-1.7629583,0.17308539,-0.6749558,-0.16606244,-2.0625994
0.704,4.337106,-1.733871,0.10415317,-0.73423445,-0.18636665,-2.022002
0.706,4.1562324,-1.7055788,0.030062012,-0.7940111,-0.20208843,-1.9825778
0.708,3.9754705,-1.6789746,-0.048364468,-0.85396004,-0.21337596,-1.9449201
0.71,3.796698,-1.6551214,-0.13067302,-0.9137048,-0.22045198,-1.9096651
0.712,3.621558,-1.6346693,-0.2153846,-0.97280985,-0.22357918,-1.8774158
0.714,3.4513626,-1.6183798,-0.30293602,-1.0307721,-0.22301227,-1.8486657
0.716,3.2873788,-1.6070092,-0.39300445,-1.0871191,-0.2190678,-1.8237177
0.718,3.128373,-1.6001002,-0.48254645,-1.1413988,-0.21198955,-1.8026288
0.72,2.9782124,-1.5979528,-0.57231,-1.1931945,-0.2021178,-1.7853225
0.722,2.8372402,-1.6005163,-0.66437376,-1.2421682,-0.18989058,-1.7715983
0.724,2.706068,-1.6084517,-0.7570232,-1.2881051,-0.17577201,-1.7610499
0.726,2.5837011,-1.6213295,-0.85101414,-1.3309107,-0.16038099,-1.7531458
0.728,2.4703932,-1.6391411,-0.9452051,-1.3706092,-0.14450942,-1.7473447
0.73,2.3654583,-1.6623065,-1.0387013,-1.407318,-0.12903982,-1.7430975
0.732,2.2678423,-1.6909434,-1.130554,-1.4411906,-0.114910096,-1.7399321
0.734,2.176485,-1.7247431,-1.2196687,-1.4723971,-0.10306557,-1.7374755
0.736,2.0907505,-1.762665,-1.3054292,-1.5010847,-0.09442018,-1.7354248
0.738,2.0093997,-1.8037571,-1.3883137,-1.5273527,-0.08972807,-1.7335664
0.74,1.9314647,-1.8472006,-1.4691925,-1.5512313,-0.08947762,-1.7317113
0.742,1.8554926,-1.8917089,-1.5491576,-1.5726632,-0.09379617,-1.7296675
0.744,1.7807784,-1.9362253,-1.6294353,-1.5914831,-0.10240977,-1.7272202
0.746,1.7065399,-1.9796934,-1.7110417,-1.6075172,-0.11485953,-1.7241126
0.748,1.6320366,-2.021348,-1.7944984,-1.6206354,-0.13040274,-1.719988
0.75,1.5575314,-2.0607743,-1.8802199,-1.6306305,-0.14766327,-1.7143067
0.752,1.482852,-2.097541,-1.9687876,-1.6374124,-0.16551113,-1.7067118
0.754,1.4084029,-2.1316028,-2.0607264,-1.6409842,-0.18300709,-1.6969419
0.756,1.3347831,-2.1633503,-2.1564097,-1.6414154,-0.19917318,-1.6846958
0.758,1.2626538,-2.1931646,-2.256457,-1.6389844,-0.21339014,-1.6699276
0.76,1.1929898,-2.221413,-2.3617668,-1.6341025,-0.2253345,-1.6527641
0.762,1.1274172,-2.2485073,-2.4734416,-1.6272337,-0.23500046,-1.6334655
0.764,1.0672649,-2.2754524,-2.5919254,-1.6188395,-0.24267162,-1.6123945
0.766,1.0144234,-2.3039591,-2.7169526,-1.6093912,-0.2489345,-1.5899419
0.768,0.96964043,-2.33533,-2.8477995,-1.5993527,-0.25462332,-1.5664954
0.77,0.93394244,-2.3707929,-2.983521,-1.5891184,-0.26070234,-1.5424159
0.772,0.908315,-2.4113395,-3.122841,-1.5790799,-0.2683465,-1.5180109
0.774,0.8933301,-2.458227,-3.264016,-1.5696337,-0.2787139,-1.493395
0.776,0.88899636,-2.5123968,-3.4047163,-1.5611795,-0.29283673,-1.4685019
0.778,0.8950761,-2.574616,-3.542512,-1.5540906,-0.31153885,-1.4431643
0.78,0.9111465,-2.645271,-3.6747582,-1.5486786,-0.3351765,-1.4170032
0.782,0.93593585,-2.7239788,-3.7992666,-1.5451357,-0.36355275,-1.3894498
0.784,0.967798,-2.8103747,-3.9145505,-1.5435371,-0.3959998,-1.3598579
0.786,1.0056683,-2.9040184,-4.018854,-1.543777,-0.43136433,-1.3275189
0.788,1.0474657,-3.0041137,-4.110592,-1.5455419,-0.46817866,-1.291755
0.79,1.0908916,-3.1095014,-4.189236,-1.5483887,-0.5048348,-1.2520764
0.792,1.1339675,-3.2188103,-4.254728,-1.5517831,-0.5398107,-1.2082832
0.794,1.1724924,-3.3301816,-4.305743,-1.5551718,-0.571914,-1.1605557
0.796,1.2043376,-3.442088,-4.3421516,-1.5580969,-0.60036933,-1.1094178
0.798,1.2277304,-3.5540566,-4.364953,-1.5603099,-0.6248694,-1.0557302
0.8,1.2431606,-3.6664279,-4.3744035,-1.5618104,-0.6454704,-1.0006374
0.802,1.2505289,-3.7793067,-4.3705425,-1.5628701,-0.6627462,-0.9455737
0.804,1.2501916,-3.8930006,-4.3548326,-1.5641626,-0.6780465,-0.8922812
0.806,1.2415737,-4.008069,-4.3275685,-1.5665,-0.6926334,-0.84246224
0.808,1.2264135,-4.1258683,-4.287873,-1.5708276,-0.70806783,-0.7978995
0.81,1.2053925,-4.247664,-4.235999,-1.5781634,-0.7263798,-0.7604775
0.812,1.1773216,-4.3737907,-4.1693273,-1.5894039,-0.74955386,-0.7318618
0.814,1.1454624,-4.5064445,-4.088482,-1.6052557,-0.77950764,-0.7135742
0.816,1.1132114,-4.6484966,-3.995493,-1.6261263,-0.8178319,-0.7068922
0.818,1.0822716,-4.8011756,-3.8897142,-1.6519853,-0.8655015,-0.712703
0.82,1.0553031,-4.9651175,-3.7739117,-1.6822863,-0.9226383,-0.73141193
0.822,1.0359329,-5.1415462,-3.6508405,-1.7159054,-0.98832405,-0.7628577
0.824,1.0264914,-5.3310633,-3.5223033,-1.7512612,-1.0606835,-0.80642277
0.826,1.0280026,-5.5333014,-3.3904476,-1.7863526,-1.136626,-0.860969
0.828,1.0417897,-5.7476945,-3.2567887,-1.8189675,-1.2123214,-0.9250111
0.83,1.0640256,-5.971555,-3.1187668,-1.8468705,-1.2836747,-0.9969398
0.832,1.0941312,-6.2011924,-2.972932,-1.8679874,-1.346739,-1.0751898
0.834,1.1321368,-6.432691,-2.8210561,-1.8805472,-1.3979715,-1.1583219
0.836,1.1809673,-6.664282,-2.663299,-1.8835173,-1.435026,-1.2452686
0.838,1.2414975,-6.8932495,-2.5025797,-1.8766325,-1.456879,-1.3352548
0.84,1.3148843,-7.116014,-2.3413553,-1.860341,-1.4638304,-1.4277794
0.842,1.4026608,-7.3289113,-2.1813524,-1.8359545,-1.4577411,-1.5227704
0.844,1.5061467,-7.5282745,-2.0255682,-1.8054438,-1.4415221,-1.6200687
0.846,1.625459,-7.709947,-1.8770709,-1.7713717,-1.419352,-1.7192508
0.848,1.7597781,-7.86942,-1.7362024,-1.7366503,-1.3961301,-1.8196006
0.85,1.9064143,-8.001456,-1.6010973,-1.7041897,-1.3765851,-1.9198625
0.852,2.0628433,-8.100733,-1.4695063,-1.6766403,-1.3650893,-2.0182858
0.854,2.2257938,-8.161783,-1.3396789,-1.655991,-1.3650857,-2.1125257
0.856,2.391927,-8.179474,-1.2111592,-1.6433351,-1.3786291,-2.1996
0.858,2.5579367,-8.150245,-1.0850705,-1.6388199,-1.4060832,-2.2760725
0.86,2.719926,-8.072336,-0.9633372,-1.6416522,-1.4459513,-2.338329
0.862,2.8743637,-7.946372,-0.84820354,-1.6501311,-1.4951094,-2.3831635
0.864,3.0170321,-7.774458,-0.74261165,-1.6616746,-1.5489115,-2.4082088
0.866,3.1437922,-7.560306,-0.6504431,-1.6731033,-1.6016448,-2.4121294
0.868,3.2509556,-7.309398,-0.5758269,-1.6810939,-1.6471518,-2.3947906
0.87,3.3352807,-7.0283594,-0.5229869,-1.6825603,-1.6793418,-2.3574939
0.872,3.3939102,-6.724729,-0.49542904,-1.6748785,-1.6924419,-2.3029423
0.874,3.4248066,-6.4059925,-0.496598,-1.6560081,-1.6812537,-2.2350469
0.876,3.4263225,-6.0797462,-0.5300797,-1.624712,-1.6415411,-2.1585934
0.878,3.398765,-5.7545376,-0.59838486,-1.5805776,-1.5702507,-2.0787098
0.88,3.3426883,-5.4386163,-0.7029225,-1.5240896,-1.4659587,-2.000422
0.882,3.2590036,-5.1400237,-0.84410816,-1.4565696,-1.3287884,-1.9281206
0.884,3.1524954,-4.86684,-1.0207117,-1.3802074,-1.1607522,-1.8651372
0.886,3.022019,-4.6246247,-1.2255554,-1.2979729,-0.9661329,-1.8135931
0.888,2.87173,-4.417963,-1.45536,-1.2134504,-0.75170225,-1.7743709
0.89,2.718492,-4.2547574,-1.7216778,-1.1303912,-0.5262107,-1.7469563
0.892,2.5636668,-4.138171,-2.0190737,-1.0526756,-0.30010578,-1.7297595
0.894,2.3977757,-4.064669,-2.3277435,-0.9841603,-0.08476846,-1.7203623
0.896,2.230742,-4.033959,-2.6360216,-0.9281693,0.10888871,-1.7157327
0.898,2.074407,-4.0444465,-2.944655,-0.8872539,0.2712889,-1.7129471
0.9,1.9303969,-4.091399,-3.2408128,-0.8628468,0.39577147,-1.7093908
0.902,1.8009732,-4.171212,-3.5150857,-0.855116,0.47919142,-1.7029449
0.904,1.6920295,-4.2816367,-3.7699118,-0.86296976,0.5219434,-1.6923733
0.906,1.6058302,-4.4194117,-4.000504,-0.88412195,0.5282423,-1.6773071
0.908,1.5419576,-4.5784483,-4.201579,-0.91547495,0.5052878,-1.6582903
0.91,1.4998071,-4.753441,-4.370742,-0.953414,0.4622094,-1.6366608
0.912,1.4821167,-4.942581,-4.5041447,-0.99411345,0.40882072,-1.6142473
0.914,1.4896946,-5.143347,-4.599789,-1.0337951,0.35450244,-1.593015
0.916,1.5217029,-5.3514156,-4.659132,-1.0691,0.3071617,-1.5748634
0.918,1.5757592,-5.563552,-4.683676,-1.0977353,0.27262118,-1.5611278
0.92,1.6515416,-5.778076,-4.6775937,-1.1178663,0.255065,-1.5521837
0.922,1.7487185,-5.993266,-4.6496735,-1.1280892,0.255466,-1.5482849
0.924,1.8621495,-6.204663,-4.604387,-1.1276482,0.2733234,-1.548943
0.926,1.9874573,-6.4078317,-4.5479717,-1.1160781,0.30848187,-1.5523202
0.928,2.1218665,-6.6006393,-4.490561,-1.0929494,0.35995156,-1.5558535
0.93,2.2599375,-6.7808423,-4.4386816,-1.0577272,0.42592478,-1.5570148
0.932,2.3948326,-6.9442444,-4.3996716,-1.0093026,0.5060055,-1.5530764
0.934,2.5204077,-7.085705,-4.379772,-0.9465594,0.5999627,-1.5415145
0.936,2.632062,-7.200638,-4.383658,-0.86901957,0.706861,-1.5201181
0.938,2.7254248,-7.2847514,-4.41621,-0.77674925,0.82594025,-1.4871628
0.94,2.795679,-7.334579,-4.4809036,-0.6705569,0.9558354,-1.4419659
0.942,2.838747,-7.3481855,-4.5803547,-0.5521612,1.0942683,-1.3849292
0.944,2.8499522,-7.3236446,-4.7144,-0.42416498,1.2381463,-1.317429
0.946,2.824459,-7.259115,-4.8803596,-0.29005563,1.3831428,-1.2420987
0.948,2.7596798,-7.1543846,-5.073017,-0.15396723,1.523868,-1.162723
0.95,2.654911,-7.011613,-5.285482,-0.020479262,1.6542462,-1.0837271
0.952,2.510993,-6.834912,-5.510204,0.105525136,1.7675154,-1.0099429
0.954,2.3296304,-6.6301303,-5.738974,0.2191647,1.8567774,-0.94630307
0.956,2.1144314,-6.4041486,-5.9637156,0.31595504,1.9157075,-0.897372
0.958,1.8709743,-6.16429,-6.178954,0.39216694,1.9391284,-0.8669051
0.96,1.6068373,-5.9190693,-6.3816476,0.44516817,1.9236938,-0.85738385
0.962,1.3294779,-5.6775093,-6.5688906,0.4737005,1.8684598,-0.86980003
0.964,1.0469722,-5.449046,-6.736224,0.47800514,1.7751261,-0.9036293
0.966,0.7672336,-5.242521,-6.878359,0.45985296,1.6480398,-0.9568724
0.968,0.4972043,-5.064833,-6.991026,0.42237857,1.4937768,-1.0263311
0.97,0.24242973,-4.9204264,-7.071094,0.3698875,1.3206316,-1.1078238
0.972,0.008153319,-4.8116546,-7.1173983,0.30778342,1.137563,-1.1968833
0.974,-0.20169735,-4.739611,-7.1307926,0.24150766,0.95295846,-1.2892314
0.976,-0.3845296,-4.7041864,-7.11339,0.17639294,0.7753403,-1.3803135
0.978,-0.53880954,-4.7043176,-7.068248,0.11747018,0.6110114,-1.4663557
0.98,-0.6643709,-4.7381015,-6.9987383,0.06875057,0.46329367,-1.5448664
0.982,-0.7621325,-4.80308,-6.9092317,0.0330266,0.33474144,-1.613891
0.984,-0.8336654,-4.896134,-6.804241,0.011843421,0.22710878,-1.6716852
0.986,-0.88122773,-5.013218,-6.6881003,0.005302023,0.13976577,-1.7173572
0.988,-0.9076798,-5.1497073,-6.5649066,0.012787998,0.0716714,-1.7506692
0.99,-0.9158515,-5.3005576,-6.4378376,0.033341877,0.02174437,-1.772122
0.992,-0.90846574,-5.460856,-6.30859,0.06525209,-0.012236327,-1.782768
0.994,-0.8904774,-5.625244,-6.177909,0.106141865,-0.03282976,-1.7837892
0.996,-0.85979867,-5.790721,-6.0489054,0.15323457,-0.042842716,-1.7766601
0.998,-0.8196881,-5.954266,-5.91704,0.20352024,-0.045568258,-1.763161
1,-0.7817235,-6.1105657,-5.76567,0.2540518,-0.044265002,-1.7449447
1.002,-0.7391546,-6.2594604,-5.596606,0.302069,-0.042167634,-1.723548
1.004,-0.67910457,-6.4050674,-5.4206624,0.34511948,-0.04238844,-1.7005323
1.006,-0.6098738,-6.546273,-5.235638,0.38130414,-0.047348112,-1.6772653
1.008,-0.53678346,-6.683033,-5.0283823,0.40932575,-0.05878496,-1.65478
1.01,-0.45389056,-6.8174863,-4.800281,0.42845356,-0.07776734,-1.6338024
1.012,-0.35827947,-6.950027,-4.5494537,0.43859494,-0.10447329,-1.6147187
1.014,-0.24903965,-7.080066,-4.267127,0.44026145,-0.13827834,-1.597647
1.016,-0.12526631,-7.207615,-3.9546719,0.4344746,-0.17787161,-1.582388
1.018,0.014760733,-7.335013,-3.6152682,0.42264616,-0.22142261,-1.5683655
1.02,0.1717639,-7.463352,-3.252294,0.40642923,-0.26677775,-1.5546564
1.022,0.3434627,-7.5912695,-2.8730733,0.3875063,-0.31172135,-1.540045
1.024,0.5279603,-7.718533,-2.4831715,0.3674643,-0.35405105,-1.5230894
1.026,0.72547984,-7.8468137,-2.0879967,0.3476417,-0.39170676,-1.5022708
1.028,0.9342866,-7.9761996,-1.694811,0.32907864,-0.42288464,-1.4761958
1.03,1.1507204,-8.105572,-1.3078868,0.31249565,-0.44614518,-1.4436815
1.032,1.3715059,-8.234646,-0.9313986,0.29832897,-0.4604401,-1.4038459
1.034,1.5928237,-8.363701,-0.5723923,0.28675088,-0.4650499,-1.3561763
1.036,1.8104709,-8.492159,-0.23648858,0.27776873,-0.45957965,-1.3006439
1.038,2.0199413,-8.617711,0.07103658,0.27138078,-0.44386914,-1.2377067
1.04,2.2183146,-8.738801,0.34482718,0.26764023,-0.41790357,-1.1682372
1.042,2.4027123,-8.855364,0.5802107,0.2667178,-0.38181525,-1.0933894
1.044,2.5709622,-8.967828,0.7717488,0.26888692,-0.3358561,-1.0144823
1.046,2.7202082,-9.076092,0.914183,0.27455238,-0.28043136,-0.93299365
1.048,2.8477054,-9.180007,1.0036582,0.28427923,-0.21616794,-0.85052997
1.05,2.9503045,-9.279045,1.0385553,0.29867715,-0.14401118,-0.7687683
1.052,3.0257316,-9.372526,1.0183636,0.3183441,-0.06512287,-0.6893707
1.054,3.0724068,-9.459498,0.943087,0.3438235,0.019134492,-0.6139036
1.056,3.0898528,-9.540078,0.81419444,0.3755202,0.10726927,-0.5437716
1.058,3.0776117,-9.614582,0.63318515,0.41369525,0.19775932,-0.48017135
1.06,3.036046,-9.683342,0.40143192,0.45841396,0.28903425,-0.42406273
1.062,2.9658232,-9.7464,0.120839715,0.5094888,0.37944856,-0.3762397
1.064,2.8685732,-9.8040285,-0.20455551,0.56647193,0.4672342,-0.33726645
1.066,2.7463107,-9.856926,-0.5700009,0.62864804,0.55048305,-0.30741334
1.068,2.599783,-9.90515,-0.97139704,0.6950822,0.6272409,-0.28674906
1.07,2.4319081,-9.94842,-1.4014721,0.76458573,0.6954546,-0.27516615
1.072,2.2430847,-9.985431,-1.8561475,0.8357706,0.75299966,-0.27215967
1.074,2.0353198,-10.014273,-2.329907,0.9070948,0.79777277,-0.27678794
1.076,1.8098791,-10.033297,-2.8174953,0.9769204,0.8277893,-0.28775582
1.078,1.5687151,-10.040896,-3.3119133,1.0435991,0.84123844,-0.30349877
1.08,1.3151028,-10.036484,-3.8045204,1.1055804,0.836576,-0.3222205
1.082,1.0532162,-10.020124,-4.2866163,1.1614847,0.8127029,-0.34199643
1.084,0.7862394,-9.991795,-4.748896,1.2101641,0.7690507,-0.36102363
1.086,0.51631737,-9.950647,-5.1831393,1.2507737,0.7056214,-0.37780023
1.088,0.24523973,-9.895205,-5.5820875,1.2828412,0.6231025,-0.39124918
1.09,-0.024894714,-9.824,-5.939081,1.3062437,0.5228086,-0.4008625
1.092,-0.2920096,-9.736382,-6.2477336,1.3212066,0.40667018,-0.40673825
1.094,-0.5542059,-9.632534,-6.5012345,1.3282402,0.27706853,-0.4095761
1.096,-0.80968094,-9.512976,-6.693219,1.3280635,0.13666648,-0.4105212
1.098,-1.0571506,-9.378509,-6.818262,1.3214865,-0.011826217,-0.4110432
1.1,-1.2956691,-9.230171,-6.8716316,1.3096052,-0.16531894,-0.41279188
1.102,-1.5238199,-9.068925,-6.849765,1.2934427,-0.32099044,-0.41740716
1.104,-1.7414112,-8.895551,-6.7511177,1.273935,-0.47623137,-0.42636627
1.106,-1.9482036,-8.711192,-6.574326,1.2519366,-0.62858474,-0.44078127
1.108,-2.144332,-8.516821,-6.320176,1.2281595,-0.77585036,-0.46137708
1.11,-2.3307083,-8.313326,-5.990617,1.2032177,-0.91592914,-0.48837823
1.112,-2.5077984,-8.102307,-5.5885673,1.1776063,-1.0468245,-0.5216043
1.114,-2.6765723,-7.8853335,-5.1175942,1.1517025,-1.1667528,-0.56058526
1.116,-2.8384428,-7.663912,-4.5825005,1.1258186,-1.2741125,-0.604555
1.118,-2.9949136,-7.439265,-3.989582,1.1002346,-1.3674052,-0.6525563
1.12,-3.147815,-7.212062,-3.3465343,1.0751342,-1.4453249,-0.7036459
1.122,-3.2991648,-6.982589,-2.6622584,1.0506312,-1.5069067,-0.75682646
1.124,-3.448576,-6.7516255,-1.9460945,1.0268074,-1.5514127,-0.81101644
1.126,-3.5975232,-6.5190797,-1.2075057,1.0036877,-1.5783207,-0.8652487
1.128,-3.7482257,-6.284377,-0.45444497,0.98121405,-1.5873922,-0.9186654
1.13,-3.901596,-6.0476627,0.30396864,0.9592528,-1.5787059,-0.97042096
1.132,-4.059235,-5.8081427,1.0580487,0.9375844,-1.5525932,-1.0197434
1.134,-4.2222223,-5.564659,1.7972057,0.91589165,-1.5097226,-1.0660707
1.136,-4.392723,-5.316562,2.509859,0.89376444,-1.4511656,-1.10905
1.138,-4.566246,-5.0660295,3.1870463,0.87072885,-1.3783203,-1.1485094
1.14,-4.7404046,-4.811948,3.8228626,0.84624344,-1.292977,-1.1845493
1.142,-4.9163456,-4.554284,4.4115977,0.81977373,-1.197301,-1.2176028
1.144,-5.090215,-4.2924094,4.9495296,0.79084516,-1.0937088,-1.2483125
1.146,-5.259198,-4.026928,5.4312563,0.75899804,-0.9848566,-1.2774947
1.148,-5.4192595,-3.758822,5.8534136,0.72380495,-0.87350035,-1.3060684
1.15,-5.567024,-3.4883034,6.2137365,0.6848755,-0.76242226,-1.3350428
1.152,-5.6982255,-3.2159028,6.511442,0.6418367,-0.6544327,-1.365399
1.154,-5.808112,-2.943727,6.748427,0.59408057,-0.5525871,-1.3979968
1.156,-5.892376,-2.6736236,6.927234,0.54109085,-0.4594419,-1.4335947
1.158,-5.9460535,-2.4068875,7.0516124,0.48239532,-0.3773446,-1.4728085
1.16,-5.9638367,-2.1445417,7.1263595,0.41745982,-0.30841213,-1.5160459
1.162,-5.940878,-1.8876952,7.1578894,0.3456928,-0.25439715,-1.5634568
1.164,-5.8726554,-1.637299,7.1538205,0.26654765,-0.21659514,-1.6150992
1.166,-5.7553544,-1.3933622,7.122208,0.17955166,-0.19578764,-1.6708022
1.168,-5.585301,-1.1557602,7.0719004,0.08427058,-0.1922727,-1.7300862
1.17,-5.3595076,-0.92393327,7.0120234,-0.019479543,-0.20548597,-1.792437
1.172,-5.0758343,-0.6967459,6.9521194,-0.13181946,-0.23430488,-1.8571225
1.174,-4.732825,-0.47258997,6.9014344,-0.2527742,-0.2770065,-1.922958
1.176,-4.3301077,-0.24900532,6.868978,-0.38230717,-0.33160564,-1.988594
1.178,-3.8673759,-0.023888111,6.8651752,-0.5204326,-0.39615458,-2.0525656
1.18,-3.3475738,0.20610714,6.8977613,-0.6672014,-0.46878004,-2.1133814
1.182,-2.7726226,0.44441295,6.9769797,-0.8227305,-0.5479033,-2.1696742
1.184,-2.1473498,0.6952332,7.109391,-0.9872306,-0.6323044,-2.2201946
1.186,-1.4772575,0.96364367,7.3008485,-1.1610111,-0.72107244,-2.2638333
1.188,-0.76886857,1.2547785,7.5555053,-1.3443747,-0.81346977,-2.2997398
1.19,-0.030779123,1.574302,7.875532,-1.537541,-0.90884733,-2.327537
1.192,0.72704613,1.9277706,8.262464,-1.7405924,-1.0065467,-2.3473272
1.194,1.4953623,2.32011,8.71633,-1.9533728,-1.1056267,-2.3596075
1.196,2.2651865,2.7551663,9.2361355,-2.175467,-1.2047733,-2.3652344
1.198,3.0271044,3.2360377,9.819295,-2.4061599,-1.3022286,-2.3653564
1.2,3.7705488,3.7653332,10.460567,-2.6443765,-1.3957732,-2.3612792
1.202,4.485225,4.3458023,11.152503,-2.8887324,-1.4827567,-2.3543131
1.204,5.1610656,4.980069,11.885717,-3.1376393,-1.5601896,-2.3456557
1.206,5.788751,5.669469,12.64987,-3.3893409,-1.6247813,-2.3363168
1.208,6.3600426,6.414378,13.434275,-3.642045,-1.6732416,-2.3271518
1.21,6.868017,7.213841,14.22764,-3.8940074,-1.7024633,-2.3187988
1.212,7.306669,8.065958,15.018144,-4.1436334,-1.7094865,-2.3117127
1.214,7.672564,8.967748,15.794352,-4.3894367,-1.6917062,-2.3062842
1.216,7.9631376,9.916084,16.544039,-4.6300726,-1.6469375,-2.3027935
1.218,8.1775875,10.906862,17.256065,-4.864504,-1.5735955,-2.3013847
1.22,8.3171015,11.93593,17.919436,-5.0919533,-1.4706812,-2.3021889
1.222,8.38357,12.998663,18.52305,-5.311846,-1.3377442,-2.3053577
1.224,8.381065,14.089991,19.056553,-5.524015,-1.1753236,-2.3108852
1.226,8.314886,15.204378,19.511839,-5.728475,-0.9845985,-2.3188252
1.228,8.191383,16.336123,19.883034,-5.9254637,-0.7674103,-2.3293374
1.23,8.017908,17.478828,20.165495,-6.115419,-0.5259422,-2.3424299
1.232,7.8029594,18.62614,20.355955,-6.2989125,-0.26277423,-2.3580503
1.234,7.5534286,19.772545,20.452765,-6.4766607,0.019068718,-2.3760693
1.236,7.278618,20.912258,20.455366,-6.6494875,0.3163123,-2.3962884
1.238,6.988118,22.039722,20.363342,-6.8182487,0.6255152,-2.418603
1.24,6.689702,23.150604,20.179089,-6.9837475,0.9431133,-2.443047
1.242,6.391342,24.240091,19.906704,-7.1467667,1.2655587,-2.4697075
1.244,6.099985,25.30341,19.55241,-7.3079963,1.5894251,-2.4986606
1.246,5.8229475,26.336864,19.124207,-7.468009,1.9115014,-2.5300555
1.248,5.5609407,27.339369,18.627808,-7.627199,2.2287874,-2.5641246
1.25,5.3178234,28.306349,18.067923,-7.785804,2.5385003,-2.601176
1.252,5.099662,29.234592,17.451208,-7.9438815,2.838037,-2.6415827
1.254,4.906831,30.120892,16.784216,-8.101361,3.1249852,-2.6857638
1.256,4.740553,30.963444,16.076143,-8.2579975,3.3971245,-2.7342067
1.258,4.600665,31.76007,15.334856,-8.413374,3.6524775,-2.7874532
1.26,4.4862633,32.50892,14.568139,-8.566987,3.8892224,-2.8460581
1.262,4.39524,33.20925,13.78277,-8.718229,4.1056943,-2.9105003
1.264,4.324749,33.861176,12.984093,-8.866449,4.300382,-2.9812298
1.266,4.2726316,34.46415,12.178091,-9.010998,4.4719777,-3.0586452
1.268,4.2356663,35.017273,11.370589,-9.151266,4.6193924,-3.1430156
1.27,4.209918,35.519775,10.566813,-9.286727,4.741817,-3.234392
1.272,4.191329,35.97142,9.771301,-9.416908,4.8387475,-3.3326023
1.274,4.1756325,36.372337,8.987495,-9.541403,4.910078,-3.4372346
1.276,4.1585293,36.722446,8.218358,-9.659912,4.956064,-3.54766
1.278,4.1359663,37.02212,7.46647,-9.772182,4.977384,-3.6630673
1.28,4.1037893,37.272045,6.733801,-9.878027,4.9750156,-3.7824893
1.282,4.058378,37.473003,6.0218678,-9.977306,4.9502654,-3.9048367
1.284,3.9964762,37.625862,5.3321695,-10.069925,4.9047523,-4.0289707
1.286,3.9153204,37.731277,4.6665654,-10.155785,4.840378,-4.153784
1.288,3.8126574,37.790524,4.0265565,-10.234863,4.759277,-4.2781887
1.29,3.686983,37.80507,3.4132733,-10.307171,4.663801,-4.401136
1.292,3.5375042,37.77692,2.827835,-10.372824,4.5564857,-4.5216084
1.294,3.3639956,37.708145,2.2711802,-10.432058,4.4399967,-4.6386304
1.296,3.1675587,37.600952,1.7443581,-10.485223,4.317103,-4.7513013
1.298,2.9494228,37.45777,1.248157,-10.5327425,4.1906776,-4.858801
1.3,2.7118235,37.281597,0.78315973,-10.5751,4.063567,-4.960374
1.302,2.4576683,37.075447,0.35001945,-10.612828,3.93855,-5.0553594
1.304,2.1898565,36.842644,-0.050748825,-10.64639,3.81824,-5.1432357
1.306,1.9115953,36.58702,-0.4193287,-10.676159,3.7050924,-5.223653
1.308,1.626152,36.312298,-0.75646925,-10.702397,3.6012778,-5.296463
1.31,1.3377547,36.02243,-1.0628157,-10.725234,3.5085332,-5.3616834
1.312,1.05059,35.72138,-1.3392994,-10.744696,3.4281056,-5.419557
1.314,0.7688899,35.412758,-1.5872576,-10.760639,3.3608627,-5.4705715
1.316,0.49636793,35.100716,-1.808789,-10.772804,3.3073184,-5.5153913
1.318,0.23657799,34.789474,-2.0069628,-10.780842,3.2676153,-5.5547743
1.32,-0.007312298,34.48339,-2.1856804,-10.784365,3.2415686,-5.5895014
1.322,-0.23277736,34.186512,-2.3495004,-10.782945,3.228767,-5.6203575
1.324,-0.43760824,33.902813,-2.5033097,-10.7762165,3.2286415,-5.6480846
1.326,-0.61974454,33.635498,-2.6523695,-10.763885,3.2405424,-5.673317
1.328,-0.7774427,33.387325,-2.8019552,-10.745755,3.2637815,-5.6965666
1.33,-0.9094367,33.160484,-2.9569964,-10.721681,3.29775,-5.7182307
1.332,-1.0151765,32.95726,-3.1222758,-10.69155,3.342037,-5.738637
1.334,-1.0942811,32.778866,-3.3026643,-10.655236,3.396585,-5.7580557
1.336,-1.1478045,32.62669,-3.503951,-10.61251,3.4616818,-5.776824
1.338,-1.176827,32.50164,-3.7316175,-10.56304,3.5379248,-5.795353
1.34,-1.1824327,32.404324,-3.9900985,-10.5063305,3.626215,-5.8141737
1.342,-1.1665494,32.334557,-4.2830114,-10.441738,3.7276733,-5.833951
1.344,-1.1312935,32.29161,-4.613723,-10.368467,3.8434875,-5.8554583
1.346,-1.0786321,32.27401,-4.985013,-10.285664,3.9747598,-5.8795366
1.348,-1.0104918,32.28014,-5.3988047,-10.192459,4.122368,-5.9070253
1.35,-0.9287176,32.308018,-5.8555517,-10.088056,4.286781,-5.938633
1.352,-0.83508396,32.355278,-6.354803,-9.971813,4.4679356,-5.97487
1.354,-0.73125505,32.41855,-6.895601,-9.843289,4.6651793,-6.016057
1.356,-0.61901,32.494015,-7.4764214,-9.702242,4.877266,-6.0622945
1.358,-0.4999256,32.57756,-8.09461,-9.5486555,5.1023183,-6.1134553
1.36,-0.37526894,32.664764,-8.746628,-9.382698,5.337881,-6.16926
1.362,-0.24613571,32.751007,-9.42819,-9.204693,5.580989,-6.2293553
1.364,-0.11356068,32.831364,-10.134534,-9.015092,5.828286,-6.2933826
1.366,0.021364212,32.90058,-10.860873,-8.814465,6.0760746,-6.360972
1.368,0.15786743,32.953476,-11.602055,-8.603433,6.3204284,-6.4318447
1.37,0.29551888,32.984955,-12.352501,-8.382666,6.557354,-6.505849
1.372,0.43402004,32.989876,-13.106504,-8.152878,6.7828145,-6.5829144
1.374,0.5732622,32.963207,-13.85808,-7.9147873,6.992957,-6.6629252
1.376,0.71277905,32.900005,-14.601941,-7.669138,7.184164,-6.7456837
1.378,0.85231304,32.79599,-15.333385,-7.416663,7.3531795,-6.830867
1.38,0.9918051,32.64729,-16.047928,-7.158123,7.49721,-6.918005
1.382,1.1312113,32.450657,-16.741982,-6.8942714,7.6139894,-7.0064826
1.384,1.2703152,32.203003,-17.412075,-6.625916,7.7017465,-7.095485
1.386,1.4092703,31.902443,-18.055637,-6.3538804,7.7592187,-7.1840158
1.388,1.547987,31.547586,-18.670744,-6.0790997,7.785623,-7.2709455
1.39,1.6861057,31.138111,-19.255648,-5.802617,7.7805877,-7.3550086
1.392,1.8233442,30.674366,-19.809715,-5.5256176,7.7441907,-7.4348617
1.394,1.9595165,30.157864,-20.333216,-5.2494116,7.676895,-7.509115
1.396,2.0944614,29.590801,-20.826761,-4.975408,7.5794497,-7.576422
1.398,2.2282658,28.976147,-21.29075,-4.7050376,7.45296,-7.635505
1.4,2.360608,28.317356,-21.726063,-4.439636,7.298855,-7.685257
1.402,2.4915142,27.618137,-22.134027,-4.180402,7.118814,-7.7247624
1.404,2.6208115,26.882797,-22.515675,-3.9282808,6.914784,-7.753402
1.406,2.7486467,26.115828,-22.871653,-3.6839802,6.6889234,-7.7708073
1.408,2.8754196,25.322632,-23.203096,-3.4479234,6.443568,-7.776934
1.41,3.0008688,24.508595,-23.510494,-3.2202973,6.1811066,-7.772014
1.412,3.1249866,23.679256,-23.794413,-3.0010781,5.903949,-7.756536
1.414,3.2481995,22.840014,-24.055712,-2.7901058,5.614463,-7.7311587
1.416,3.370637,21.996119,-24.294247,-2.5871305,5.314927,-7.6966186
1.418,3.4926767,21.152924,-24.509827,-2.391877,5.007423,-7.653734
1.42,3.6144323,20.315462,-24.702635,-2.204075,4.693821,-7.603364
1.422,3.735826,19.488224,-24.872837,-2.023484,4.375746,-7.546301
1.424,3.8564935,18.675564,-25.020504,-1.8498719,4.0546007,-7.4833007
1.426,3.9763613,17.881212,-25.145573,-1.6829749,3.7315888,-7.415094
1.428,4.094918,17.108917,-25.248037,-1.5225326,3.4077475,-7.342424
1.43,4.211779,16.361776,-25.328232,-1.3682715,3.083958,-7.265991
1.432,4.326217,15.642769,-25.386345,-1.2198935,2.76094,-7.1864524
1.434,4.4373207,14.954222,-25.422802,-1.0770814,2.439312,-7.104379
1.436,4.543942,14.298321,-25.437979,-0.9395108,2.1196356,-7.020245
1.438,4.644978,13.676899,-25.432796,-0.8068934,1.8024331,-6.934463
1.44,4.739488,13.0912075,-25.40839,-0.67901754,1.4881189,-6.8474736
1.442,4.826855,12.541981,-25.366625,-0.5556648,1.1772037,-6.759656
1.444,4.906087,12.030025,-25.309225,-0.43661833,0.87028575,-6.671335
1.446,4.977169,11.55494,-25.237743,-0.3216467,0.5679868,-6.5827937
1.448,5.039413,11.11614,-25.153927,-0.2104702,0.2710523,-6.494278
1.45,5.092231,10.712849,-25.059534,-0.10275555,-0.019656897,-6.4060173
1.452,5.135638,10.344086,-24.956505,0.0018372536,-0.30325186,-6.3182397
1.454,5.169689,10.008301,-24.846428,0.103684366,-0.57881856,-6.2311234
1.456,5.194336,9.704002,-24.730621,0.20316017,-0.84546304,-6.1447673
1.458,5.2097588,9.429262,-24.610588,0.30060887,-1.1023998,-6.0592213
1.46,5.216007,9.181837,-24.488413,0.3963467,-1.3489782,-5.974511
1.462,5.213339,8.959684,-24.365852,0.49060905,-1.584722,-5.890611
1.464,5.2018175,8.761436,-24.244295,0.583542,-1.8093727,-5.8074675
1.466,5.1821523,8.585384,-24.124727,0.67519426,-2.0229099,-5.724983
1.468,5.1552277,8.429754,-24.007914,0.7655132,-2.2255669,-5.6430826
1.47,5.122196,8.292761,-23.894485,0.85433376,-2.4178343,-5.5617113
1.472,5.08463,8.172556,-23.785103,0.94144034,-2.6004055,-5.4808016
1.474,5.044513,8.067466,-23.680155,1.0265464,-2.77417,-5.40032
1.476,5.0038757,7.9762983,-23.579977,1.1092917,-2.9402072,-5.3203087
1.478,4.9645615,7.8978853,-23.48451,1.1893269,-3.0996482,-5.240847
1.48,4.928596,7.8314204,-23.393787,1.2662961,-3.2535968,-5.1620655
1.482,4.898203,7.775987,-23.307621,1.3399231,-3.403093,-5.0842056
1.484,4.8753853,7.7309813,-23.225508,1.4099683,-3.5490286,-5.0075455
1.486,4.862346,7.6960335,-23.146671,1.4762635,-3.6920633,-4.932384
1.488,4.860986,7.6706734,-23.069847,1.5387436,-3.8326614,-4.859107
1.49,4.873036,7.655064,-22.993998,1.5974122,-3.9711466,-4.788194
1.492,4.899854,7.649329,-22.917664,1.6523765,-4.107677,-4.7201433
1.494,4.9424806,7.65384,-22.839329,1.7038184,-4.242284,-4.6554074
1.496,5.001438,7.668712,-22.757452,1.7519253,-4.3750486,-4.594488
1.498,5.0768013,7.694181,-22.670246,1.7968844,-4.5060773,-4.5378947
1.5,5.168497,7.73052,-22.576212,1.8388644,-4.6354666,-4.4860725
1.502,5.2755647,7.778213,-22.473997,1.8780017,-4.7633715,-4.4393783
1.504,5.39674,7.837632,-22.36214,1.9144199,-4.8899574,-4.3980618
1.506,5.530385,7.909074,-22.2399,1.9482372,-5.01537,-4.3622828
1.508,5.6741786,7.992592,-22.107094,1.9795262,-5.1397247,-4.33212
1.51,5.826045,8.088152,-21.963154,2.0083294,-5.2630463,-4.307607
1.512,5.983529,8.195749,-21.80762,2.0346656,-5.3852787,-4.288737
1.514,6.1440783,8.315163,-21.640404,2.0584977,-5.506289,-4.275468
1.516,6.3049564,8.44623,-21.461641,2.0797675,-5.625898,-4.267766
1.518,6.46313,8.5882015,-21.271162,2.0983844,-5.743869,-4.2656016
1.52,6.6164627,8.740195,-21.06968,2.1142435,-5.85989,-4.269
1.522,6.7621727,8.9015,-20.858204,2.127224,-5.973593,-4.2779922
1.524,6.8980126,9.070907,-20.637415,2.1372423,-6.0845184,-4.29259
1.526,7.02209,9.247171,-20.408667,2.1442194,-6.192129,-4.312788
1.528,7.132521,9.428891,-20.172895,2.1481223,-6.295766,-4.3385286
1.53,7.2278595,9.614446,-19.930658,2.1489491,-6.394641,-4.3696814
1.532,7.306611,9.802269,-19.682985,2.146727,-6.4878592,-4.406088
1.534,7.367919,9.990689,-19.430616,2.1415496,-6.574382,-4.44755
1.536,7.4111333,10.177964,-19.173937,2.133535,-6.65297,-4.4937983
1.538,7.4360094,10.3620615,-18.913391,2.1228845,-6.722254,-4.5445657
1.54,7.4424415,10.541177,-18.649117,2.1098166,-6.7807784,-4.59958
1.542,7.430685,10.713558,-18.381493,2.0945957,-6.826972,-4.658528
1.544,7.401181,10.877783,-18.110971,2.0775208,-6.859235,-4.721084
1.546,7.354673,11.032364,-17.838242,2.0589201,-6.875992,-4.786947
1.548,7.2918754,11.176089,-17.563597,2.0391521,-6.8757653,-4.8558116
1.55,7.2137585,11.307772,-17.286991,2.0185559,-6.857253,-4.927414
1.552,7.12138,11.426571,-17.007605,1.9974978,-6.81935,-5.0015235
1.554,7.0162606,11.531899,-16.72455,1.9763131,-6.7612095,-5.0779595
1.556,6.9004116,11.623502,-16.43754,1.9553075,-6.6822686,-5.156593
1.558,6.7761254,11.701113,-16.14629,1.934771,-6.582232,-5.2373457
1.56,6.6457148,11.765028,-15.850642,1.9149601,-6.461054,-5.320174
1.562,6.5112,11.816099,-15.550723,1.8960986,-6.3189197,-5.4051166
1.564,6.375036,11.855731,-15.247285,1.8783919,-6.15619,-5.492258
1.566,6.23998,11.885706,-14.941071,1.8620138,-5.973329,-5.58172
1.568,6.1090765,11.907812,-14.6323,1.84711,-5.7708874,-5.6736655
1.57,5.9855585,11.92423,-14.320876,1.8337762,-5.5494356,-5.768299
1.572,5.87257,11.937381,-14.007194,1.8220776,-5.3095455,-5.8658233
1.574,5.7735586,11.949759,-13.692065,1.8120446,-5.0518007,-5.9664392
1.576,5.6915646,11.964447,-13.376604,1.80371,-4.7767515,-6.0703626
1.578,5.630302,11.984667,-13.062267,1.7970784,-4.48493,-6.177832
1.58,5.593344,12.013603,-12.750509,1.7921188,-4.1768274,-6.289079
1.582,5.58426,12.054517,-12.44261,1.7888362,-3.8528788,-6.4043384
1.584,5.606668,12.110594,-12.140027,1.7872037,-3.513495,-6.5238676
1.586,5.663988,12.184994,-11.844301,1.7871886,-3.1590576,-6.6479187
1.588,5.7598634,12.280736,-11.55735,1.7887584,-2.789957,-6.776775
1.59,5.897714,12.4006195,-11.281105,1.7918724,-2.4066544,-6.910758
1.592,6.080449,12.547675,-11.01732,1.7964876,-2.0096262,-7.050146
1.594,6.311246,12.724429,-10.768021,1.8025849,-1.5993867,-7.1952095
1.596,6.592805,12.932998,-10.535043,1.8101606,-1.1765025,-7.346198
1.598,6.927719,13.175386,-10.320149,1.819241,-0.7415456,-7.5033073
1.6,7.3179307,13.45271,-10.125273,1.829915,-0.29507798,-7.6666417
1.602,7.7648897,13.765989,-9.952498,1.84233,0.1623733,-7.8361526
1.604,8.269637,14.116323,-9.803896,1.8567115,0.6302985,-8.01163
1.606,8.83242,14.504657,-9.681124,1.8733335,1.1081902,-8.19267
1.608,9.45331,14.931507,-9.5854225,1.8925331,1.5954847,-8.378708
1.61,10.131718,15.396866,-9.518486,1.9146566,2.091483,-8.569028
1.612,10.866629,15.900305,-9.4813595,1.9400375,2.595345,-8.762758
1.614,11.656313,16.441391,-9.475237,1.96902,3.1060662,-8.958891
1.616,12.49843,17.01924,-9.50082,2.0018892,3.6224957,-9.156371
1.618,13.390168,17.632923,-9.558282,2.0389025,4.14331,-9.354062
1.62,14.328131,18.281633,-9.648153,2.0802279,4.6671314,-9.550821
1.622,15.308429,18.964285,-9.770806,2.1260087,5.192605,-9.745487
1.624,16.326616,19.679325,-9.926245,2.17632,5.718452,-9.936877
1.626,17.377998,20.424799,-10.114399,2.2311957,6.2435694,-10.123842
1.628,18.457573,21.19849,-10.334483,2.2906573,6.767071,-10.305176
1.63,19.559687,21.998285,-10.585632,2.3547153,7.2883124,-10.479582
1.632,20.67895,22.821667,-10.866175,2.423419,7.8069158,-10.645653
1.634,21.809307,23.665981,-11.174091,2.496858,8.322744,-10.80187
1.636,22.94503,24.527706,-11.507019,2.575161,8.835799,-10.946667
1.638,24.080204,25.403309,-11.861887,2.6585073,9.346258,-11.0784235
1.64,25.209229,26.288902,-12.2354355,2.7471228,9.854391,-11.195492
1.642,26.326668,27.180481,-12.623818,2.8412504,10.360437,-11.296263
1.644,27.428003,28.073292,-13.023111,2.9411263,10.864509,-11.3792515
1.646,28.508423,28.962502,-13.428887,3.046935,11.366462,-11.44308
1.648,29.564243,29.84278,-13.836309,3.1587234,11.865877,-11.486517
1.65,30.592571,30.708878,-14.240551,3.2764144,12.362066,-11.508484
1.652,31.591429,31.554996,-14.636375,3.3997688,12.854052,-11.508183
1.654,32.55971,32.3753,-15.018269,3.5283384,13.340595,-11.48508
1.656,33.49729,33.163994,-15.381062,3.6614528,13.820377,-11.43889
1.658,34.404778,33.915398,-15.720153,3.7982116,14.292044,-11.369514
1.66,35.2836,34.624504,-16.031378,3.9375086,14.754362,-11.277037
1.662,36.136257,35.28635,-16.311237,4.0780854,15.20631,-11.161678
1.664,36.965706,35.896603,-16.557095,4.2185946,15.64723,-11.023796
1.666,37.77549,36.451294,-16.766682,4.357623,16.076754,-10.863844
1.668,38.569607,36.94752,-16.93832,4.493731,16.494806,-10.68239
1.67,39.353176,37.3825,-17.070946,4.6255355,16.901505,-10.480095
1.672,40.13202,37.754227,-17.163456,4.7517033,17.297081,-10.25779
1.674,40.91104,38.06156,-17.216263,4.870951,17.681732,-10.01647
1.676,41.695766,38.303734,-17.230915,4.982045,18.055515,-9.757351
1.678,42.491745,38.480904,-17.209618,5.0837636,18.41827,-9.481785
1.68,43.304478,38.59407,-17.155266,5.1749163,18.76955,-9.191305
1.682,44.139343,38.644962,-17.071144,5.2543077,19.108616,-8.887594
1.684,45.00154,38.635952,-16.960672,5.320726,19.434502,-8.572407
1.686,45.89637,38.56992,-16.826996,5.3729506,19.746048,-8.247536
1.688,46.828697,38.44969,-16.673458,5.4097824,20.042002,-7.914665
1.69,47.803833,38.278923,-16.503555,5.430011,20.321089,-7.575272
1.692,48.82696,38.061382,-16.320724,5.432445,20.581987,-7.230625
1.694,49.903572,37.80108,-16.128077,5.4159575,20.823551,-6.881827
1.696,51.03869,37.5019,-15.927986,5.379446,21.04482,-6.529721
1.698,52.23724,37.168095,-15.722527,5.3219285,21.245094,-6.1749578
1.7,53.504604,36.80375,-15.513661,5.2424707,21.423985,-5.81804
1.702,54.847378,36.412212,-15.303247,5.140314,21.581495,-5.4592867
1.704,56.271885,35.997444,-15.093129,5.0148134,21.717978,-5.098887
1.706,57.785316,35.563637,-14.884727,4.865456,21.834194,-4.736953
1.708,59.39549,35.11377,-14.679331,4.6918154,21.931314,-4.3734894
1.71,61.11011,34.652428,-14.477608,4.4935427,22.010914,-4.008416
1.712,62.9382,34.18465,-14.280542,4.2703733,22.074963,-3.6415691
1.714,64.890274,33.714867,-14.08934,4.0220537,22.125708,-3.2728052
1.716,66.97642,33.248604,-13.906639,3.7483363,22.16563,-2.9019213
1.718,69.208435,32.79251,-13.736555,3.4489045,22.197392,-2.5286179
1.72,71.596405,32.356525,-13.584698,3.1234353,22.223837,-2.1525707
1.722,74.14968,31.954304,-13.457443,2.7715452,22.247915,-1.7734165
1.724,76.874825,31.600544,-13.358719,2.3927999,22.272532,-1.3907204
1.726,79.77938,31.301773,-13.286118,1.986666,22.300488,-1.0038986
1.728,82.86705,31.069288,-13.238567,1.5525403,22.334497,-0.6122012
1.73,86.13898,30.924025,-13.216209,1.0897763,22.377102,-0.21475077
1.732,89.5941,30.890123,-13.222435,0.59772444,22.430693,0.18950415
1.734,93.23361,30.988192,-13.270073,0.075823784,22.4975,0.6017742
1.736,97.06093,31.245478,-13.368694,-0.47625995,22.579605,1.023272
1.738,101.07277,31.702438,-13.519951,-1.0586882,22.678621,1.4553242
1.74,105.25584,32.402378,-13.726719,-1.6713636,22.795866,1.8994799
1.742,109.59381,33.381836,-13.9941025,-2.3137355,22.932388,2.3572776
1.744,114.07147,34.675243,-14.334995,-2.9847746,23.088804,2.8302777
1.746,118.67685,36.311584,-14.769802,-3.6830482,23.265078,3.3201346
1.748,123.383675,38.363636,-15.302177,-4.406735,23.460173,3.8285377
1.75,128.19626,40.855278,-15.942505,-5.153409,23.671467,4.356536
1.752,133.11908,43.810505,-16.714024,-5.9205103,23.893959,4.9040275
1.754,138.1333,47.233856,-17.628483,-6.706148,24.119528,5.4696302
1.756,143.23088,51.11267,-18.715828,-7.509678,24.33699,6.051631
1.758,148.30656,55.477417,-19.99889,-8.331345,24.532042,6.6482625
1.76,153.36134,60.439,-21.433266,-9.171814,24.686937,7.256544
1.762,158.38876,66.06293,-22.997267,-10.032996,24.780245,7.871818
1.764,163.36479,72.329315,-24.633974,-10.918348,24.786964,8.489388
1.766,168.25604,79.153694,-26.321337,-11.833664,24.678547,9.106022
1.768,173.05676,86.50592,-28.029026,-12.786737,24.423246,9.719399
1.77,177.75967,94.308945,-29.664215,-13.78586,23.987988,10.327558
1.772,182.38298,102.52754,-31.229168,-14.839024,23.340336,10.931547
1.774,186.95294,111.10954,-32.7168,-15.953182,22.449438,11.538508
1.776,191.49205,119.946785,-34.0403,-17.133652,21.28745,12.16364
1.778,196.04105,128.95502,-35.173813,-18.38488,19.82631,12.829378
1.78,200.63867,138.01399,-36.04201,-19.709225,18.040062,13.56816
1.782,205.31532,146.99461,-36.56048,-21.103348,15.908398,14.418047
1.784,210.0252,155.78177,-36.634666,-22.556984,13.423935,15.39729
1.786,214.73112,164.24023,-36.16854,-24.05817,10.578821,16.536345
1.788,219.29367,172.11093,-35.145374,-25.595037,7.380947,17.86379
1.79,224.02106,179.08537,-33.49682,-27.175806,3.8442876,19.392391
1.792,228.80243,185.19302,-31.041737,-28.80559,0.011553764,21.035501
1.794,233.61801,190.38065,-27.753288,-30.495935,-4.1640835,22.854357
1.796,238.42268,194.50609,-23.553066,-32.21266,-8.607901,24.768885
1.798,243.16339,197.44997,-18.371466,-33.93557,-13.245476,26.690882
1.8,247.79312,199.1072,-12.168049,-35.675316,-17.9996,28.514742
1.802,252.20016,199.42117,-4.932789,-37.450867,-22.789265,30.125605
1.804,256.23383,198.38559,3.3137436,-39.257717,-27.533367,31.391447
1.806,259.74835,196.0444,12.50729,-41.07409,-32.154003,32.175694
1.808,262.6174,192.47049,22.53949,-42.86052,-36.579376,32.349224
1.81,264.73633,187.70802,33.277008,-44.547157,-40.747425,31.798824
1.812,266.04593,181.80289,44.577713,-46.029438,-44.60345,30.433138
1.814,266.3919,174.88795,56.360622,-47.172398,-48.08924,28.193777
1.816,265.657,167.11685,68.442764,-47.822273,-51.129574,25.058386
1.818,263.79456,158.65489,80.56152,-47.821754,-53.639038,21.071459
1.82,260.76306,149.66531,92.439926,-47.02034,-55.541233,16.369917
1.822,256.54672,140.32922,103.82613,-45.312275,-56.75972,11.070774
1.824,251.16812,130.82986,114.4809,-42.649063,-57.21201,5.321392
1.826,244.68974,121.35669,124.17242,-39.044086,-56.824364,-0.66945267
1.828,237.21205,112.0958,132.68611,-34.57979,-55.542873,-6.657236
1.83,228.87013,103.23111,139.83215,-29.398859,-53.342125,-12.368776
1.832,219.82133,94.94796,145.44328,-23.689991,-50.22841,-17.516497
1.834,210.23962,87.41003,149.38889,-17.673714,-46.247856,-21.829483
1.836,200.30272,80.7534,151.59647,-11.584501,-41.491432,-25.077389
1.838,190.19565,75.07953,152.04727,-5.649624,-36.100655,-27.08206
1.84,180.10098,70.4527,150.77611,-0.07256985,-30.25195,-27.77408
1.842,170.18787,66.90861,147.86816,4.9721813,-24.163696,-27.179447
1.844,160.60373,64.4588,143.46106,9.358625,-18.067364,-25.4219
1.846,151.47159,63.082153,137.7247,12.998657,-12.194069,-22.680714
1.848,142.89658,62.72173,130.85233,15.853907,-6.6906433,-19.358212
1.85,134.96448,63.29782,123.061874,17.895555,-1.8087951,-15.742518
1.852,127.73007,64.719185,114.5871,19.171408,2.2846384,-12.160285
1.854,121.21402,66.87598,105.6709,19.792397,5.493906,-8.912213
1.856,115.40643,69.644196,96.55183,19.886845,7.782998,-6.2434187
1.858,110.28464,72.8508,87.43462,19.574505,9.1725855,-4.311307
1.86,105.77783,76.36908,78.50965,18.982456,9.738239,-3.190116
1.862,101.81008,80.06199,69.94923,18.239912,9.604656,-2.881773
1.864,98.319885,83.80432,61.878998,17.458654,8.934855,-3.324389
1.866,95.229126,87.47863,54.405567,16.72745,7.9157753,-4.400649
1.868,92.53404,90.93117,47.589893,16.112617,6.7408657,-5.956542
1.87,90.11431,93.97,41.408195,15.65997,5.591359,-7.816162
1.872,87.877655,96.49618,35.851437,15.395067,4.63321,-9.814843
1.874,85.76226,98.5068,30.868458,15.320435,4.0120277,-11.809225
1.876,83.722565,100.04182,26.436798,15.43412,3.820849,-13.599351
1.878,81.69797,101.07406,22.513508,15.722021,4.0876284,-15.031823
1.88,79.64693,101.62096,19.001766,16.156946,4.7886086,-16.030418
1.882,77.52205,101.661285,15.900558,16.707348,5.8573194,-16.56588
1.884,75.29138,101.203735,13.181694,17.336187,7.1946287,-16.655682
1.886,72.9446,100.30995,10.74802,18.002918,8.681166,-16.355011
1.888,70.46804,99.01159,8.578686,18.66684,10.191864,-15.740755
1.89,67.86287,97.37197,6.614298,19.287634,11.61019,-14.901239
1.892,65.143974,95.451454,4.809786,19.827023,12.841412,-13.927336
1.894,62.384605,93.291985,3.1337414,20.254698,13.817926,-12.902065
1.896,59.615623,90.953316,1.5716553,20.551672,14.499546,-11.894512
1.898,56.92239,88.58467,0.1816597,20.706467,14.869306,-10.94604
1.9,53.990776,86.31818,-1.0437489,20.708008,14.924178,-10.067066
1.902,50.969383,83.96936,-2.198184,20.554928,14.688978,-9.253467
1.904,47.87092,81.515274,-3.2142706,20.260834,14.215105,-8.4934635
1.906,44.717888,79.0396,-4.099354,19.846874,13.5620165,-7.7725334
1.908,41.52455,76.59903,-4.8605065,19.336487,12.789405,-7.075865
1.91,38.290726,74.239525,-5.493674,18.755417,11.956855,-6.3894877
1.912,35.0658,71.97221,-5.992141,18.129576,11.119825,-5.702932
1.914,31.907578,69.78815,-6.353121,17.482437,10.324327,-5.008626
1.916,28.843498,67.66971,-6.5714197,16.834656,9.605857,-4.2995286
1.918,25.87402,65.61341,-6.6442094,16.204828,8.991185,-3.572247
1.92,22.986736,63.670033,-6.5884724,15.607466,8.497163,-2.8295178
1.922,20.150331,61.892693,-6.446546,15.051766,8.129814,-2.078117
1.924,17.439934,60.2627,-6.323764,14.541937,7.8873672,-1.3259902
1.926,14.888933,58.770035,-6.2260046,14.07775,7.7620783,-0.5810845
1.928,12.480663,57.415268,-6.1134243,13.6557045,7.7415595,0.14925957
1.93,10.224571,56.210365,-5.969866,13.270493,7.810344,0.85873723
1.932,8.1299,55.15384,-5.8188496,12.915725,7.951254,1.5421944
1.934,6.195142,54.244865,-5.6897907,12.584492,8.146685,2.1954887
1.936,4.4120555,53.47399,-5.6012745,12.270069,8.379592,2.8154638
1.938,2.7662218,52.830376,-5.5644665,11.966436,8.634086,3.399473
1.94,1.2436037,52.2966,-5.583659,11.668735,8.895957,3.9449635
1.942,-0.16529131,51.846497,-5.65193,11.373497,9.153303,4.449426
1.944,-1.4657454,51.46714,-5.7633734,11.078603,9.396688,4.9105053
1.946,-2.6590714,51.160763,-5.926506,10.783043,9.618988,5.3262835
1.948,-3.7500653,50.9293,-6.1451244,10.486651,9.815226,5.695469
1.95,-4.7450037,50.77175,-6.4187384,10.189832,9.982279,6.017414
1.952,-5.6488676,50.68375,-6.7430935,9.893232,10.118521,6.2920666
1.954,-6.4665155,50.657356,-7.1132298,9.597496,10.223398,6.520031
1.956,-7.2041054,50.68061,-7.5225077,9.303109,10.297142,6.702668
1.958,-7.869607,50.740086,-7.9623566,9.010319,10.340401,6.841876
1.96,-8.473158,50.82213,-8.422921,8.719104,10.35392,6.940034
1.962,-9.023782,50.912422,-8.893967,8.429252,10.338352,6.9999514
1.964,-9.528932,50.99807,-9.365423,8.140464,10.294209,7.0247593
1.966,-9.996041,51.068417,-9.826935,7.8523912,10.221733,7.017761
1.968,-10.431176,51.11438,-10.267483,7.564808,10.120991,6.9822807
1.97,-10.839638,51.127903,-10.676919,7.2776313,9.991933,6.921597
1.972,-11.225589,51.101463,-11.046337,6.9909983,9.834473,6.8390055
1.974,-11.592545,51.028625,-11.368093,6.7053127,9.648614,6.737707
1.976,-11.943877,50.904366,-11.636507,6.4211836,9.434516,6.620703
1.978,-12.282342,50.724533,-11.847947,6.1393995,9.192633,6.490882
1.98,-12.609963,50.48594,-12.000303,5.8609223,8.923842,6.3510942
1.982,-12.928713,50.186554,-12.092636,5.5867825,8.629496,6.204216
1.984,-13.240153,49.82599,-12.124665,5.3180437,8.311437,6.0532255
1.986,-13.545623,49.40544,-12.096679,5.0557346,7.9718575,5.901232
1.988,-13.84644,48.927307,-12.00984,4.8008175,7.6133137,5.7514706
1.99,-14.144258,48.395535,-11.866002,4.554105,7.238614,5.607339
1.992,-14.440561,47.814877,-11.668408,4.316284,6.850693,5.4722652
1.994,-14.736628,47.19104,-11.420902,4.0878577,6.4524956,5.349709
1.996,-15.03313,46.529694,-11.128223,3.8690858,6.046747,5.243032
1.998,-15.330643,45.83667,-10.795922,3.6599998,5.635831,5.155418
2,-15.630036,45.118477,-10.430234,3.4603581,5.2216773,5.0897264
2.002,-15.931836,44.381893,-10.036959,3.269623,4.805584,5.0483747
2.004,-16.23662,43.633255,-9.621357,3.0869534,4.3881245,5.033207
2.006,-16.54414,42.87775,-9.187497,2.9112182,3.969062,5.0454063
2.008,-16.854437,42.120228,-8.73745,2.7409966,3.5473812,5.0853972
2.01,-17.166851,41.3646,-8.273133,2.5746274,3.1212656,5.152761
2.012,-17.479925,40.614285,-7.795916,2.410255,2.688359,5.2462764
2.014,-17.791582,39.871532,-7.306175,2.2458992,2.2459478,5.3638325
2.016,-18.09894,39.137726,-6.8034687,2.0795474,1.7911928,5.5023704
2.018,-18.39811,38.41324,-6.287018,1.9092236,1.321408,5.6579275
2.02,-18.684696,37.69735,-5.755502,1.733121,0.83438313,5.8257484
2.022,-18.953615,36.98891,-5.207185,1.5496389,0.32866704,6.0004377
2.024,-19.200008,36.28639,-4.639783,1.357516,-0.19618809,6.1760273
2.026,-19.418715,35.58784,-4.050556,1.15588,-0.73939526,6.346358
2.028,-19.604702,34.891224,-3.43671,0.94430876,-1.2988498,6.505333
2.03,-19.753326,34.19459,-2.795272,0.7229593,-1.8711587,6.6471443
2.032,-19.859646,33.495937,-2.1234305,0.49250984,-2.4517272,6.7664943
2.034,-19.91908,32.793484,-1.4191846,0.2540543,-3.0348403,6.8588123
2.036,-19.927675,32.085396,-0.68045616,0.009123564,-3.6139162,6.9204884
2.038,-19.881529,31.370188,0.09395611,-0.24046206,-4.1816745,6.9490843
2.04,-19.777739,30.646746,0.90408945,-0.49276924,-4.7303915,6.9432673
2.042,-19.614386,29.914501,1.7486951,-0.7459011,-5.252244,6.9027205
2.044,-19.390696,29.173164,2.6253867,-0.99815345,-5.739581,6.8280706
2.046,-19.106583,28.423004,3.530708,-1.2481227,-6.1851687,6.720853
2.048,-18.763386,27.664963,4.4599147,-1.4947574,-6.5823736,6.583382
2.05,-18.363956,26.900425,5.4072247,-1.7373214,-6.9254265,6.4185066
2.052,-17.91169,26.131138,6.3661275,-1.9753873,-7.209593,6.2293797
2.054,-17.410992,25.359308,7.3292565,-2.2086694,-7.431177,6.019244
2.056,-16.866796,24.587433,8.288519,-2.4369266,-7.5874796,5.791188
2.058,-16.284473,23.818262,9.235227,-2.6597896,-7.67676,5.548064
2.06,-15.6698475,23.055077,10.160326,-2.8766477,-7.6981244,5.292406
2.062,-15.028976,22.30103,11.054625,-3.0865574,-7.651454,5.026419
2.064,-14.367884,21.55951,11.908852,-3.2882075,-7.5373516,4.7520547
2.066,-13.692171,20.834005,12.713685,-3.4799304,-7.3571157,4.471166
2.068,-13.007303,20.127798,13.460048,-3.6597514,-7.1127,4.185609
2.07,-12.31843,19.444263,14.139427,-3.825529,-6.8067904,3.897325
2.072,-11.630062,18.786556,14.744219,-3.9750924,-6.4428587,3.6083999
2.074,-10.946177,18.157698,15.267708,-4.1064134,-6.025207,3.3210096
2.076,-10.270136,17.560661,15.703893,-4.2177496,-5.5590053,3.037307
2.078,-9.604223,16.997732,16.047817,-4.307818,-5.0502615,2.7593367
2.08,-8.950558,16.4709,16.295752,-4.3759136,-4.505734,2.4887671
2.082,-8.31122,15.981941,16.445322,-4.4219375,-3.9327655,2.2267876
2.084,-7.687679,15.532299,16.495739,-4.446456,-3.3390527,1.9741213
2.086,-7.0807347,15.122687,16.447933,-4.4506016,-2.732461,1.7309477
2.088,-6.4911013,14.753101,16.303946,-4.4360085,-2.1209207,1.4969723
2.09,-5.919382,14.423122,16.067188,-4.4047966,-1.51212,1.2713916
2.092,-5.365787,14.131575,15.742245,-4.3594556,-0.91340137,1.0529842
2.094,-4.8303666,13.876835,15.334821,-4.302724,-0.33157992,0.8403704
2.096,-4.312501,13.6565895,14.851361,-4.2375174,0.22721791,0.63218904
2.098,-3.811634,13.468312,14.299265,-4.166836,0.75766516,0.42714882
2.1,-3.3268576,13.309157,13.686337,-4.093692,1.2553151,0.2240423
2.102,-2.8571835,13.176123,13.021328,-4.021052,1.7166345,0.021855593
2.104,-2.401957,13.066456,12.313241,-3.9517605,2.1391263,-0.18011189
2.106,-1.9611619,12.977851,11.571227,-3.8884413,2.5212939,-0.38220543
2.108,-1.5342321,12.907666,10.8046055,-3.8334665,2.8625674,-0.5844092
2.11,-1.1201154,12.853372,10.022781,-3.788833,3.16327,-0.78633696
2.112,-0.71787786,12.81253,9.234381,-3.756156,3.4245222,-0.9873382
2.114,-0.32621622,12.78298,8.447429,-3.7366307,3.6480713,-1.1865273
2.116,0.05591131,12.763128,7.669137,-3.731018,3.8362336,-1.382877
2.118,0.43022728,12.750964,6.9052196,-3.739633,3.9917338,-1.5752767
2.12,0.79807556,12.745071,6.161784,-3.7624056,4.117528,-1.7626545
2.122,1.1606637,12.743763,5.4442773,-3.7988844,4.2166986,-1.9439648
2.124,1.5192327,12.746443,4.757084,-3.848316,4.2923646,-2.1182275
2.126,1.8749852,12.752451,4.103823,-3.9096944,4.347543,-2.284554
2.128,2.2287807,12.761657,3.4875033,-3.9818227,4.3851247,-2.4421806
2.13,2.5814703,12.77388,2.910556,-4.063385,4.4078393,-2.5904531
2.132,2.9342492,12.788981,2.3745,-4.1529684,4.4182653,-2.728867
2.134,3.28807,12.806776,1.8802652,-4.2491045,4.418824,-2.8570776
2.136,3.6438372,12.827186,1.4283051,-4.350354,4.411756,-2.9749105
2.138,4.002243,12.850218,1.0185428,-4.455332,4.399121,-3.082418
2.14,4.3643775,12.876081,0.6504388,-4.562745,4.3828287,-3.1798239
2.142,4.7307363,12.905251,0.32327652,-4.671378,4.364647,-3.267518
2.144,5.1019354,12.938028,0.03626108,-4.7801056,4.3461566,-3.345988
2.146,5.478716,12.975,-0.21210575,-4.887958,4.3287787,-3.4158378
2.148,5.861225,13.0168,-0.4234748,-4.994071,4.313736,-3.4776974
2.15,6.2497516,13.064029,-0.59949446,-5.0977116,4.3020453,-3.53223
2.152,6.644373,13.117485,-0.7418418,-5.1982636,4.29451,-3.58006
2.154,7.044831,13.178165,-0.8523116,-5.2952313,4.291705,-3.6217752
2.156,7.450821,13.246697,-0.93284273,-5.3882093,4.294005,-3.657918
2.158,7.8622975,13.323851,-0.9854803,-5.4768686,4.3015976,-3.6890182
2.16,8.279093,13.410278,-1.0120649,-5.56095,4.314509,-3.7155921
2.162,8.700654,13.506849,-1.0146055,-5.6402397,4.332658,-3.7381406
2.164,9.126646,13.6142645,-0.99510336,-5.714568,4.355857,-3.7572095
2.166,9.556448,13.733336,-0.9556122,-5.783763,4.3839025,-3.7733517
2.168,9.98955,13.864748,-0.89811325,-5.8476734,4.416653,-3.7871315
2.17,10.425472,14.009191,-0.82450056,-5.906147,4.4540186,-3.799106
2.172,10.863585,14.167294,-0.73658323,-5.959046,4.496003,-3.8098042
2.174,11.303658,14.339613,-0.6361761,-6.006247,4.5427175,-3.8197176
2.176,11.745368,14.526644,-0.52511215,-6.0476346,4.5944395,-3.8292649
2.178,12.188213,14.728991,-0.40505362,-6.0830693,4.6515737,-3.838763
2.18,12.632186,14.947033,-0.27778482,-6.112458,4.714551,-3.8484814
2.182,13.0769205,15.181314,-0.14470339,-6.1357274,4.7838006,-3.8586004
2.184,13.522232,15.432421,-0.0071468353,-6.1527886,4.8597555,-3.8692737
2.186,13.968257,15.700657,0.13357687,-6.1635675,4.942805,-3.8806217
2.188,14.415064,15.986483,0.27602386,-6.1679935,5.0332503,-3.8927603
2.19,14.862455,16.29032,0.41886663,-6.1659846,5.131291,-3.9058018
2.192,15.310403,16.612375,0.5610533,-6.1574383,5.2370086,-3.9198697
2.194,15.759088,16.95259,0.70151186,-6.142243,5.3503757,-3.9351072
2.196,16.208641,17.310938,0.8393178,-6.120307,5.4712677,-3.951683
2.198,16.659046,17.687164,0.973547,-6.0915627,5.599456,-3.9698014
2.2,17.110426,18.080833,1.1034675,-6.055957,5.734609,-3.9896965
2.202,17.56284,18.49166,1.2283669,-6.013483,5.8763742,-4.011599
2.204,18.016703,18.918818,1.3476717,-5.964168,6.0243454,-4.0357103
2.206,18.472044,19.361526,1.4607341,-5.9080715,6.1780953,-4.0622067
2.208,18.929089,19.818695,1.5671909,-5.8452644,6.3371644,-4.0911717
2.21,19.38817,20.28894,1.6668828,-5.775845,6.5010757,-4.122565
2.212,19.849533,20.77064,1.759606,-5.6999216,6.669313,-4.1562204
2.214,20.313427,21.261776,1.8452762,-5.617603,6.8413053,-4.1918244
2.216,20.779976,21.759977,1.9240303,-5.528983,7.0164266,-4.2289567
2.218,21.249428,22.262705,1.9959941,-5.4341393,7.194028,-4.267133
2.22,21.721565,22.7671,2.061189,-5.333123,7.373354,-4.305831
2.222,22.196447,23.270124,2.1199088,-5.2259626,7.5535607,-4.3445654
2.224,22.67442,23.76817,2.1723197,-5.11265,7.7337637,-4.382918
2.226,23.154848,24.257479,2.2188902,-4.9931455,7.9130497,-4.4206448
2.228,23.637373,24.734272,2.2599645,-4.8673754,8.090502,-4.457705
2.23,24.121422,25.194471,2.295876,-4.7352886,8.265186,-4.4943194
2.232,24.606483,25.634352,2.3269048,-4.5968685,8.436232,-4.5309596
2.234,25.092014,26.049406,2.35328,-4.452072,8.602985,-4.568282
2.236,25.576763,26.435488,2.3753333,-4.3009005,8.764952,-4.607145
2.238,26.059847,26.788282,2.3933606,-4.1433883,8.921755,-4.6484632
2.24,26.539917,27.103804,2.407817,-3.9795747,9.073203,-4.693111
2.242,27.015408,27.37817,2.4189782,-3.809491,9.219276,-4.741783
2.244,27.48471,27.607735,2.427412,-3.633152,9.360014,-4.794844
2.246,27.945923,27.78933,2.4334316,-3.4505153,9.495491,-4.852311
2.248,28.396866,27.92012,2.437307,-3.2614625,9.625755,-4.9138165
2.25,28.835068,27.997864,2.4394836,-3.0658412,9.750742,-4.978565
2.252,29.257866,28.020699,2.4402542,-2.8634436,9.870212,-5.0454297
2.254,29.66227,27.98774,2.439898,-2.6539848,9.983762,-5.1131024
2.256,30.04481,27.898537,2.4390478,-2.437187,10.0907135,-5.1802006
2.258,30.402294,27.75346,2.4383335,-2.2127776,10.190205,-5.245321
2.26,30.731081,27.55363,2.4381943,-1.9805436,10.281221,-5.3072023
2.262,31.027483,27.300894,2.4389324,-1.7403626,10.362658,-5.3647995
2.264,31.287863,26.997734,2.441039,-1.4921913,10.433359,-5.417291
2.266,31.508217,26.647411,2.4454136,-1.2361467,10.492177,-5.4639845
2.268,31.684761,26.253822,2.4528008,-0.97252536,10.537987,-5.5042486
2.27,31.814308,25.821575,2.4640732,-0.70185494,10.569711,-5.537409
2.272,31.89399,25.355778,2.4800224,-0.42494142,10.586284,-5.5626564
2.274,31.921528,24.861925,2.5015168,-0.14283597,10.586743,-5.579071
2.276,31.894833,24.346,2.5290565,0.1431675,10.5702,-5.5855484
2.278,31.812763,23.814034,2.563261,0.43150258,10.535812,-5.5808926
2.28,31.67493,23.272049,2.6048985,0.720387,10.482826,-5.5638704
2.282,31.481934,22.726109,2.6544542,1.0079204,10.41062,-5.5333157
2.284,31.234999,22.182323,2.712554,1.2921342,10.318804,-5.4882326
2.286,30.93621,21.646545,2.7796984,1.5710768,10.207197,-5.4279075
2.288,30.588753,21.124,2.8562298,1.8428675,10.075857,-5.351983
2.29,30.19653,20.619598,2.9424343,2.1057715,9.925217,-5.2605195
2.292,29.764067,20.137661,3.0381846,2.3582852,9.7560215,-5.153994
2.294,29.296652,19.681614,3.1431937,2.599135,9.569319,-5.0333486
2.296,28.799828,19.254478,3.2571478,2.8273048,9.366436,-4.8998833
2.298,28.279554,18.858387,3.3796182,3.0420582,9.148992,-4.7552314
2.3,27.742052,18.494709,3.5100307,3.242937,8.918825,-4.601244
2.302,27.19327,18.164082,3.647614,3.4298058,8.677973,-4.439947
2.304,26.639086,17.866566,3.7914658,3.602838,8.428606,-4.273528
2.306,26.085028,17.601448,3.940516,3.7624621,8.172972,-4.104224
2.308,25.536371,17.367535,4.0936966,3.9093235,7.913306,-3.9342437
2.31,24.99777,17.16293,4.249725,4.044292,7.6518755,-3.765748
2.312,24.473387,16.985294,4.407123,4.168402,7.3908854,-3.600785
2.314,23.96651,16.831993,4.564391,4.2827854,7.1324553,-3.4411874
2.316,23.47986,16.700066,4.7200994,4.388589,6.878546,-3.2884965
2.318,23.015568,16.586397,4.8725533,4.486909,6.630948,-3.1439893
2.32,22.57491,16.488,5.020115,4.57876,6.3912244,-3.0086522
2.322,22.158613,16.401768,5.1611004,4.664989,6.1606283,-2.8831544
2.324,21.76687,16.324738,5.2940454,4.746254,5.9401007,-2.7678201
2.326,21.399557,16.254055,5.417391,4.823032,5.7302504,-2.6626961
2.328,21.055902,16.187092,5.529793,4.8955317,5.531253,-2.5675488
2.33,20.735077,16.121412,5.630159,4.9637785,5.3429475,-2.4819398
2.332,20.43544,16.054811,5.717461,5.02764,5.164896,-2.4052649
2.334,20.155216,15.985549,5.7908525,5.0868316,4.9963903,-2.336833
2.336,19.89303,15.912193,5.849611,5.140983,4.8365474,-2.2759418
2.338,19.647015,15.833384,5.8934,5.18967,4.6843424,-2.2219536
2.34,19.415283,15.748148,5.922127,5.2324967,4.5387144,-2.17431
2.342,19.195858,15.6555805,5.935968,5.26911,4.3986063,-2.132582
2.344,18.986723,15.555501,5.9354463,5.2992306,4.2629614,-2.0964518
2.346,18.78633,15.447901,5.920964,5.322668,4.130774,-2.0657473
2.348,18.592682,15.332877,5.8933444,5.3393354,4.0010986,-2.0403748
2.35,18.404236,15.210867,5.853344,5.349233,3.8730102,-2.0203319
2.352,18.21932,15.0823555,5.8020196,5.3524423,3.745616,-2.005633
2.354,18.03667,14.948015,5.7404876,5.3490467,3.618,-1.9962478
2.356,17.855045,14.808662,5.6702385,5.33915,3.489266,-1.9920924
2.358,17.67347,14.665162,5.592653,5.3228416,3.3585606,-1.9930155
2.36,17.491003,14.51849,5.509232,5.3002267,3.225145,-1.9987962
2.362,17.306974,14.369643,5.42145,5.2714014,3.0883446,-2.0091352
2.364,17.12107,14.219662,5.330852,5.236449,2.9475508,-2.0236874
2.366,16.932844,14.069578,5.2389407,5.19545,2.8022676,-2.04207
2.368,16.742237,13.920294,5.1472793,5.1485357,2.6521065,-2.0638733
2.37,16.549229,13.772734,5.0572424,5.0958724,2.496839,-2.0886927
2.372,16.353947,13.627621,4.970251,5.0376616,2.3363829,-2.116104
2.374,16.156599,13.485823,4.887637,4.9741564,2.1708086,-2.1457093
2.376,15.957594,13.348191,4.8103304,4.9056664,2.0003567,-2.1771464
2.378,15.757232,13.215317,4.739359,4.832546,1.825387,-2.2100744
2.38,15.555904,13.087698,4.675393,4.755193,1.6463814,-2.2441838
2.382,15.354004,12.965733,4.6191325,4.674035,1.4639678,-2.2791944
2.384,15.151926,12.849556,4.571267,4.589517,1.2788342,-2.314879
2.386,14.950558,12.739312,4.532441,4.502092,1.091726,-2.3510294
2.388,14.750308,12.635107,4.5029507,4.412235,0.90343696,-2.3874831
2.39,14.55159,12.536916,4.4828625,4.3204117,0.7147545,-2.424111
2.392,14.354881,12.444644,4.472187,4.2270722,0.52649075,-2.4608123
2.394,14.160443,12.357994,4.470761,4.1326613,0.33940554,-2.4975202
2.396,13.968824,12.276592,4.478359,4.037603,0.15421975,-2.5341954
2.398,13.780337,12.20014,4.4946866,3.9423122,-0.028416514,-2.570805
2.4,13.595385,12.128214,4.5193715,3.8471882,-0.20785087,-2.607262
2.402,13.414391,12.060378,4.551972,3.7525332,-0.38368118,-2.6435833
2.404,13.2375345,11.996325,4.5921373,3.6586807,-0.555411,-2.6796741
2.406,13.065266,11.935601,4.6393576,3.5658858,-0.72265303,-2.715414
2.408,12.897503,11.877837,4.6930833,3.4743695,-0.8850729,-2.7506545
2.41,12.734804,11.822647,4.752837,3.3843184,-1.0423657,-2.785184
2.412,12.577257,11.769819,4.8180494,3.2958748,-1.1942556,-2.8187528
2.414,12.425025,11.718976,4.8883047,3.2091212,-1.3405206,-2.8510637
2.416,12.278172,11.66983,4.9631495,3.1241114,-1.480937,-2.8818047
2.418,12.1366415,11.622064,5.0421333,3.0408642,-1.6153014,-2.910668
2.42,12.000521,11.575407,5.1247883,2.9593804,-1.7434285,-2.9373555
2.422,11.869753,11.529655,5.2108383,2.8796506,-1.8651234,-2.9616141
2.424,11.744402,11.484512,5.299774,2.801665,-1.9802034,-2.9832375
2.426,11.624312,11.439867,5.3912325,2.7254312,-2.0884972,-3.002066
2.428,11.509301,11.395636,5.4848075,2.6509821,-2.1898246,-3.0180283
2.43,11.399322,11.351744,5.580039,2.5783772,-2.2839954,-3.031102
2.432,11.294231,11.308074,5.6765676,2.5076792,-2.3708148,-3.0413232
2.434,11.193808,11.264522,5.7740293,2.4389958,-2.4501102,-3.0487719
2.436,11.097968,11.221081,5.872024,2.3724508,-2.5217378,-3.0535593
2.438,11.006506,11.177617,5.970117,2.3081598,-2.5855772,-3.055811
2.44,10.919225,11.134171,6.0678997,2.2462268,-2.6415462,-3.0556335
2.442,10.83602,11.090681,6.1649346,2.1867208,-2.6896167,-3.0531285
2.444,10.756445,11.047198,6.2609553,2.129686,-2.7298102,-3.048366
2.446,10.680375,11.003628,6.355547,2.0751166,-2.7622046,-3.0414038
2.448,10.607732,10.959996,6.448387,2.0229611,-2.7869296,-3.0322738
2.45,10.538183,10.91622,6.5390935,1.9731553,-2.8041654,-3.0210376
2.452,10.471575,10.872325,6.62734,1.9256067,-2.814138,-3.00776
2.454,10.407669,10.828216,6.712851,1.8802177,-2.8171687,-2.9925737
2.456,10.346086,10.783911,6.795439,1.8369418,-2.813485,-2.9755447
2.458,10.286761,10.739287,6.8748894,1.7956935,-2.803514,-2.956897
2.46,10.229395,10.694291,6.951072,1.7564428,-2.7876515,-2.9368453
2.462,10.173808,10.648812,7.0238953,1.7191703,-2.7662938,-2.9155853
2.464,10.119553,10.602934,7.093225,1.6838756,-2.739844,-2.8933296
2.466,10.066507,10.55652,7.1589417,1.6505722,-2.7086897,-2.8702645
2.468,10.014618,10.50951,7.221147,1.6192895,-2.6731791,-2.8465514
2.47,9.963552,10.461784,7.2797675,1.5900344,-2.6336298,-2.8223102
2.472,9.9131155,10.413363,7.334873,1.5628196,-2.5902934,-2.797606
2.474,9.863035,10.364156,7.3865247,1.5376276,-2.5433795,-2.7724667
2.476,9.813215,10.314086,7.4346776,1.5144428,-2.4930556,-2.7468925
2.478,9.763442,10.263204,7.479349,1.4932266,-2.4394429,-2.7208548
2.48,9.713633,10.211503,7.5205708,1.4739264,-2.3826191,-2.6943376
2.482,9.663505,10.159091,7.558455,1.4564786,-2.3226504,-2.6673126
2.484,9.613103,10.105983,7.5929527,1.4408138,-2.259605,-2.6397552
2.486,9.562217,10.052151,7.623965,1.4268613,-2.193543,-2.611661
2.488,9.510846,9.997738,7.651644,1.4145252,-2.1245306,-2.5830328
2.49,9.45881,9.942939,7.675926,1.4037218,-2.0526662,-2.5538766
2.492,9.406117,9.887786,7.696836,1.3943659,-1.9780608,-2.5242178
2.494,9.352701,9.832669,7.7142425,1.38637,-1.9008582,-2.4940903
2.496,9.298526,9.777573,7.7280884,1.3796544,-1.8212285,-2.4635413
2.498,9.243681,9.722826,7.7384486,1.374131,-1.739377,-2.4326057
2.5,9.188151,9.6687155,7.745063,1.3697231,-1.6555417,-2.401332
2.502,9.1319275,9.615444,7.748064,1.3663504,-1.5699716,-2.3697836
2.504,9.075236,9.563165,7.747373,1.3639159,-1.4829403,-2.3380108
2.506,9.018067,9.512153,7.7429123,1.362317,-1.3947339,-2.3060765
2.508,8.960495,9.462514,7.7346535,1.3614458,-1.3056384,-2.2740607
2.51,8.902483,9.41453,7.7227125,1.3611833,-1.2159483,-2.2420301
2.512,8.844177,9.368407,7.7071834,1.3614,-1.1259558,-2.2100384
2.514,8.785826,9.324271,7.6882014,1.3619541,-1.035932,-2.1781487
2.516,8.727283,9.282378,7.665795,1.362713,-0.9461447,-2.1464152
2.518,8.66891,9.242961,7.640292,1.3635297,-0.856829,-2.114884
2.52,8.610535,9.206291,7.611835,1.3642716,-0.7682151,-2.083577
2.522,8.552396,9.172464,7.580599,1.3647976,-0.6805226,-2.0525181
2.524,8.494676,9.141642,7.5467896,1.3649846,-0.59392875,-2.0217226
2.526,8.437462,9.11403,7.510624,1.3647064,-0.50860524,-1.9912157
2.528,8.380917,9.089707,7.4723854,1.3638661,-0.42471617,-1.9610188
2.53,8.325056,9.068843,7.432398,1.3623652,-0.34238324,-1.9311597
2.532,8.27004,9.051397,7.3908744,1.3601286,-0.26171714,-1.9016826
2.534,8.215917,9.03759,7.348145,1.3570957,-0.18282115,-1.8726313
2.536,8.162838,9.027318,7.3044806,1.3532183,-0.10576889,-1.8440673
2.538,8.110766,9.020513,7.2600346,1.3484526,-0.03062275,-1.8160454
2.54,8.0598545,9.016995,7.215195,1.3427835,0.042565584,-1.7886361
2.542,8.010119,9.016832,7.1701326,1.3361907,0.11374208,-1.7618976
2.544,7.961492,9.0198555,7.1249495,1.3286537,0.18287794,-1.7358911
2.546,7.9140415,9.025841,7.0799274,1.3201594,0.24994023,-1.7106755
2.548,7.8676076,9.0346155,7.03534,1.3106984,0.31488937,-1.6863022
2.55,7.8222475,9.045839,6.99128,1.3002603,0.37770745,-1.6628036
2.552,7.7779284,9.059402,6.947878,1.2888352,0.43837696,-1.6402203
2.554,7.734621,9.074874,6.905253,1.2764275,0.49688146,-1.6185662
2.556,7.6921906,9.092006,6.8634887,1.2630334,0.5532223,-1.5978422
2.558,7.6505213,9.110495,6.8226876,1.2486682,0.60739595,-1.5780439
2.56,7.6095877,9.130056,6.783006,1.2333434,0.65941703,-1.5591522
2.562,7.5692406,9.150454,6.744504,1.2170681,0.7092972,-1.5411328
2.564,7.5293827,9.171384,6.707249,1.199842,0.757081,-1.5239612
2.566,7.490058,9.192501,6.6713285,1.181674,0.80279404,-1.5076139
2.568,7.4509935,9.213692,6.6368165,1.1625705,0.8464756,-1.4920464
2.57,7.4123116,9.234741,6.6037397,1.1425322,0.888185,-1.4772358
2.572,7.373938,9.255451,6.572218,1.1215677,0.92797273,-1.4631352
2.574,7.3358626,9.275612,6.542327,1.0996752,0.96591187,-1.4497067
2.576,7.2980433,9.2951,6.514096,1.0768654,1.0020956,-1.4369038
2.578,7.2603893,9.313885,6.487574,1.0531535,1.0366035,-1.4246553
2.58,7.223047,9.331778,6.462896,1.0285691,1.0695361,-1.4128975
2.582,7.1861877,9.348781,6.4400625,1.0031232,1.1010112,-1.4015589
2.584,7.149619,9.364806,6.419091,0.97685504,1.1311334,-1.3905617
2.586,7.113562,9.379781,6.4001565,0.9497956,1.1600177,-1.3798413
2.588,7.077964,9.393701,6.3831787,0.92197675,1.1877743,-1.3693267
2.59,7.0429435,9.406546,6.3682027,0.8934276,1.2144995,-1.3589659
2.592,7.0086923,9.418294,6.3552413,0.8641829,1.2402816,-1.3487186
2.594,6.975048,9.428857,6.344254,0.83425933,1.2651939,-1.3385303
2.596,6.9422693,9.4383745,6.335326,0.80367976,1.289305,-1.3283883
2.598,6.9102426,9.446785,6.328295,0.7724657,1.3126564,-1.318281
2.6,6.8791113,9.4539995,6.323151,0.74062324,1.3352787,-1.3081939
2.602,6.848922,9.460029,6.3198237,0.70815533,1.3571981,-1.2981257
2.604,6.8196507,9.464851,6.3181343,0.67504156,1.3784097,-1.2880723
2.606,6.791291,9.468459,6.3181663,0.64127547,1.398915,-1.2780349
2.608,6.763786,9.47083,6.319708,0.6068194,1.4187006,-1.2680218
2.61,6.7370825,9.47186,6.322783,0.5716459,1.4377681,-1.2580371
2.612,6.711157,9.471647,6.3271074,0.53572255,1.4561088,-1.2480763
2.614,6.68583,9.470184,6.332656,0.49901414,1.4737225,-1.2381468
2.616,6.6611276,9.467334,6.339292,0.46148735,1.4906191,-1.2282275
2.618,6.6369886,9.46333,6.3469296,0.42311394,1.5068002,-1.2183076
2.62,6.6133423,9.458038,6.355348,0.38387913,1.5222924,-1.2083553
2.622,6.5901,9.451479,6.3644257,0.34376872,1.5371294,-1.1983416
2.624,6.566994,9.443822,6.37393,0.30277282,1.551341,-1.1882211
2.626,6.544043,9.43505,6.3839164,0.26088685,1.5649629,-1.1779513
2.628,6.521203,9.425199,6.394066,0.21812016,1.5780447,-1.1674851
2.63,6.4982405,9.414452,6.4042583,0.1744718,1.5906117,-1.1567612
2.632,6.4751916,9.402906,6.41438,0.12994272,1.6026961,-1.145733
2.634,6.4518685,9.390773,6.4242506,0.08453137,1.6143372,-1.13434
2.636,6.428152,9.37817,6.433753,0.03822398,1.6255634,-1.1225221
2.638,6.4040394,9.365238,6.4427724,-0.008998096,1.6363957,-1.1102247
2.64,6.3794007,9.352185,6.4511337,-0.057160497,1.6468515,-1.0973895
2.642,6.3541074,9.339283,6.4587207,-0.106303096,1.6569409,-1.0839634
2.644,6.328026,9.3265505,6.465455,-0.15645933,1.6666579,-1.0698906
2.646,6.30114,9.314311,6.4712815,-0.20682108,1.6789004,-1.0602475
2.648,6.273456,9.302786,6.476091,-0.25859582,1.6897345,-1.0480485
2.65,6.244772,9.292215,6.479862,-0.31125754,1.7010863,-1.0366518
2.652,6.215103,9.282793,6.482587,-0.36477435,1.7131763,-1.0264468
2.654,6.184514,9.274689,6.484343,-0.4191162,1.7262173,-1.0177554
2.656,6.1528797,9.268131,6.485033,-0.47427118,1.7403233,-1.0107504
2.658,6.12031,9.263394,6.4846506,-0.5302584,1.7554641,-1.0053233
2.66,6.086718,9.260668,6.483308,-0.5871743,1.7713753,-1.0009835
2.662,6.052084,9.259989,6.4811153,-0.6451575,1.7875617,-0.9968159
2.664,6.0164933,9.2617,6.4781785,-0.7044418,1.8032795,-0.99151516
2.666,5.9800024,9.265913,6.4746103,-0.7653022,1.81764,-0.983515
2.668,5.942767,9.272748,6.470572,-0.8280175,1.8297004,-0.9711883
2.67,5.9048405,9.282407,6.4661946,-0.8928413,1.8386116,-0.95313275
2.672,5.866274,9.294972,6.4616084,-0.9599602,1.8437805,-0.9283788
2.674,5.8271914,9.310512,6.4570403,-1.0294682,1.8449562,-0.8966223
2.676,5.7877574,9.329083,6.452668,-1.101325,1.842283,-0.85826874
2.678,5.748085,9.350773,6.4486995,-1.1753767,1.8362758,-0.81435335
2.68,5.7082567,9.375606,6.44535,-1.2513907,1.8277016,-0.7663496
2.682,5.6681685,9.403692,6.4427624,-1.3291035,1.8174409,-0.7159214
2.684,5.6281085,9.435114,6.441204,-1.4082478,1.8063627,-0.66465545
2.686,5.588129,9.469901,6.4409056,-1.4885961,1.7951837,-0.61384785
2.688,5.5482903,9.508113,6.4421277,-1.5699766,1.7844008,-0.5643723
2.69,5.5087185,9.549868,6.444974,-1.652285,1.7742838,-0.5166513
2.692,5.4692926,9.595083,6.449634,-1.7354854,1.7649034,-0.4707113
2.694,5.4303184,9.643939,6.456261,-1.8195566,1.7561831,-0.42628586
2.696,5.391681,9.696475,6.465062,-1.9045278,1.7479718,-0.38295
2.698,5.3535075,9.752684,6.476179,-1.9904276,1.7400956,-0.34019673
2.7,5.3156576,9.812665,6.4897137,-2.0777602,1.7306883,-0.29456645
2.702,5.2782674,9.876433,6.5057364,-2.165305,1.7237558,-0.25294894
2.704,5.2413936,9.944061,6.5243306,-2.253863,1.7164701,-0.2101798
2.706,5.2049966,10.015511,6.545498,-2.3433585,1.7089219,-0.16623414
2.708,5.169217,10.090834,6.569345,-2.4337204,1.7011805,-0.12112665
2.71,5.134004,10.170037,6.595828,-2.5248857,1.6933303,-0.07487202
2.712,5.0993285,10.253085,6.6248946,-2.6167772,1.6854415,-0.027521968
2.714,5.06533,10.33993,6.656585,-2.7093349,1.6776052,0.020838141
2.716,5.032136,10.430534,6.6907773,-2.80249,1.6698947,0.0701015
2.718,4.9997735,10.524872,6.7274327,-2.8961859,1.6623921,0.120147824
2.72,4.968207,10.622913,6.766477,-2.990364,1.6551857,0.17086959
2.722,4.937567,10.724598,6.8078485,-3.084981,1.6483505,0.22213852
2.724,4.9080305,10.829869,6.851415,-3.179987,1.6419675,0.2738521
2.726,4.87952,10.938607,6.897005,-3.2753377,1.6361032,0.32591498
2.728,4.852247,11.050714,6.9445395,-3.3709834,1.630808,0.37827265
2.73,4.8261647,11.166091,6.993756,-3.4668918,1.6261212,0.43088782
2.732,4.801384,11.284623,7.0445333,-3.563023,1.6220765,0.4837371
2.734,4.7778845,11.406215,7.096668,-3.6593494,1.6187036,0.5368023
2.736,4.7557507,11.5308895,7.149946,-3.755845,1.6160026,0.59007597
2.738,4.734932,11.658559,7.204281,-3.852476,1.613971,0.64354134
2.74,4.715548,11.789191,7.25947,-3.94922,1.6125836,0.69717705
2.742,4.6974163,11.922704,7.3152356,-4.046055,1.6118181,0.75095713
2.744,4.680537,12.059135,7.371533,-4.14294,1.6116397,0.8048527
2.746,4.6648574,12.198452,7.4278355,-4.2398357,1.6120028,0.8588413
2.748,4.6501746,12.3407135,7.483999,-4.336699,1.6128573,0.91291666
2.75,4.6364923,12.4858885,7.5398707,-4.433467,1.6141844,0.96708024
2.752,4.6237116,12.63407,7.5952992,-4.530067,1.6159579,1.021342
2.754,4.611788,12.7853985,7.649936,-4.6264334,1.6181631,1.075728
2.756,4.6005554,12.939709,7.703435,-4.7224874,1.6207833,1.1302778
2.758,4.5900087,13.096933,7.7557964,-4.818145,1.6238229,1.1850393
2.76,4.579891,13.257156,7.806493,-4.9133444,1.6272907,1.2400469
2.762,4.5698924,13.420331,7.8553195,-5.0080123,1.6312001,1.2953435
2.764,4.5601063,13.58659,7.9019556,-5.1020794,1.6355758,1.3509395
2.766,4.5505996,13.755956,7.9462075,-5.195526,1.6404414,1.4068079
2.768,4.541628,13.928364,7.987667,-5.2883124,1.645803,1.4628999
2.77,4.533182,14.103785,8.026082,-5.380453,1.6516588,1.5191206
2.772,4.5250545,14.282043,8.060893,-5.4719663,1.6579735,1.5753319
2.774,4.517474,14.462963,8.09203,-5.562894,1.6646862,1.6313609
2.776,4.5105867,14.646672,8.11942,-5.653281,1.6716692,1.6870469
2.778,4.5045815,14.833098,8.142932,-5.743191,1.6787271,1.7422206
2.78,4.500011,15.021978,8.162534,-5.8326926,1.6856334,1.7967343
2.782,4.497033,15.213071,8.177988,-5.921828,1.6921268,1.8504587
2.784,4.4961786,15.406071,8.189338,-6.010646,1.6979108,1.903279
2.786,4.4975863,15.600781,8.196669,-6.099183,1.7026763,1.95509
2.788,4.501748,15.796924,8.200054,-6.187435,1.7061212,2.005803
2.79,4.509052,15.994177,8.199706,-6.275387,1.7079757,2.0553486
2.792,4.520189,16.192215,8.195815,-6.3630333,1.7080162,2.1036513
2.794,4.5353513,16.390827,8.188614,-6.4503264,1.7060881,2.150619
2.796,4.5549855,16.589605,8.17837,-6.537219,1.7021337,2.196137
2.798,4.5793805,16.788343,8.165333,-6.623644,1.6961899,2.2400916
2.8,4.6088758,16.986767,8.149758,-6.709507,1.6883781,2.2823734
2.802,4.64371,17.184658,8.131938,-6.7947016,1.6788347,2.3229132
2.804,4.6839375,17.381714,8.112116,-6.879135,1.6677084,2.3617392
2.806,4.729793,17.577858,8.090555,-6.9627256,1.6551929,2.3989708
2.808,4.781085,17.772861,8.067257,-7.045394,1.6414905,2.4347465
2.81,4.8379006,17.966507,8.0424595,-7.127046,1.6267791,2.4692345
2.812,4.8998184,18.158852,8.016154,-7.207595,1.611203,2.5026538
2.814,4.966713,18.349712,7.9883676,-7.2869196,1.5948727,2.535237
2.816,5.0382104,18.538973,7.9590034,-7.3648996,1.5778646,2.5671954
2.818,5.1139293,18.72639,7.927799,-7.4413943,1.5601997,2.5986917
2.82,5.193467,18.911713,7.894632,-7.516243,1.541889,2.6298294
2.822,5.2761807,19.09486,7.8593063,-7.589305,1.5228946,2.6606226
2.824,5.361451,19.275362,7.8214335,-7.6604223,1.5031295,2.691032
2.826,5.4486537,19.452995,7.780782,-7.729488,1.4824586,2.7209797
2.828,5.53708,19.627207,7.736964,-7.7964263,1.4607053,2.7503564
2.83,5.626221,19.797583,7.689727,-7.861204,1.4376338,2.7790616
2.832,5.715295,19.963448,7.638811,-7.923814,1.4129546,2.8070128
2.834,5.803749,20.12422,7.5839787,-7.984267,1.3863251,2.8341603
2.836,5.890961,20.27906,7.5251703,-8.042589,1.3573842,2.86048
2.838,5.9762864,20.426985,7.4621005,-8.098756,1.3257802,2.8859658
2.84,6.0593033,20.567183,7.3948674,-8.152739,1.2911732,2.9106228
2.842,6.139495,20.698566,7.323405,-8.204468,1.2532763,2.934408
2.844,6.2164526,20.820038,7.2479844,-8.253805,1.2118762,2.9572215
2.846,6.289866,20.930471,7.1687355,-8.300557,1.1668153,2.978924
2.848,6.359425,21.028769,7.085912,-8.344512,1.1180022,2.9993382
2.85,6.4249024,21.113726,7.0000205,-8.38541,1.065372,3.0182605
2.852,6.486093,21.184431,6.9115367,-8.422995,1.0089402,3.0354857
2.854,6.542827,21.239796,6.8209467,-8.457014,0.94875693,3.050806
2.856,6.59514,21.278845,6.7290077,-8.487209,0.88494754,3.064035
2.858,6.643052,21.300694,6.6362514,-8.513306,0.8176732,3.0749767
2.86,6.686524,21.304684,6.543213,-8.535048,0.74710965,3.0835047
2.862,6.7256117,21.290054,6.4507103,-8.552178,0.67347765,3.0895605
2.864,6.7604027,21.256287,6.359462,-8.564468,0.5970657,3.093141
2.866,6.791271,21.20298,6.269994,-8.57166,0.51824355,3.0942504
2.868,6.818197,21.129955,6.182884,-8.573485,0.43743658,3.0929174
2.87,6.8417454,21.037014,6.0987964,-8.569666,0.35515666,3.0892105
2.872,6.862183,20.924107,6.018056,-8.559895,0.27198315,3.0832233
2.874,6.8794017,20.791164,5.9410954,-8.543829,0.18857384,3.0750437
2.876,6.8935947,20.638382,5.868049,-8.52112,0.10564494,3.064745
2.878,6.904718,20.466072,5.7993507,-8.491371,0.023993969,3.0523841
2.88,6.9131074,20.274921,5.7347302,-8.454161,-0.055533886,3.0379639
2.882,6.9191494,20.065693,5.6743994,-8.409067,-0.13207507,3.0214715
2.884,6.922627,19.839193,5.6178727,-8.355647,-0.20473456,3.0028672
2.886,6.9236555,19.596107,5.5647197,-8.293058,-0.27119184,2.9795356
2.888,6.9218516,19.337324,5.5145073,-8.22151,-0.33262086,2.954946
2.89,6.917035,19.063951,5.4667625,-8.140414,-0.3873613,2.927465
2.892,6.909087,18.777363,5.4211407,-8.049534,-0.43473148,2.8970098
2.894,6.8976493,18.478981,5.3769464,-7.948762,-0.4742434,2.8636098
2.896,6.8824754,18.170055,5.333497,-7.8381643,-0.50566506,2.8275077
2.898,6.86327,17.851944,5.2902737,-7.718,-0.5290911,2.7891707
2.9,6.839539,17.52605,5.24683,-7.588727,-0.5449321,2.749311
2.902,6.8108172,17.193928,5.202615,-7.4510093,-0.5539677,2.7088747
2.904,6.7766747,16.856886,5.15727,-7.305684,-0.55729175,2.6689746
2.906,6.7366695,16.516588,5.110648,-7.1537404,-0.5562372,2.6308208
2.908,6.6906314,16.174454,5.0626683,-6.9962263,-0.55228615,2.59559
2.91,6.6378956,15.83202,5.0134354,-6.8342366,-0.54695725,2.5642729
2.912,6.578413,15.4907055,4.963188,-6.668826,-0.54167676,2.537514
2.914,6.5117817,15.152005,4.9122553,-6.500972,-0.5376797,2.5155573
2.916,6.4377694,14.817114,4.8611135,-6.3315024,-0.5359645,2.4982338
2.918,6.3610096,14.4921055,4.8096027,-6.1611614,-0.53723764,2.4849668
2.92,6.2782025,14.173897,4.7588778,-5.9905696,-0.54199576,2.4749556
2.922,6.189727,13.863474,4.7096167,-5.8202,-0.55051076,2.4673047
2.924,6.0958805,13.561917,4.662548,-5.650392,-0.5629183,2.461173
2.926,5.997116,13.270196,4.6183996,-5.4814053,-0.5792674,2.4558878
2.928,5.8939276,12.989178,4.5778913,-5.3134093,-0.5995538,2.4510355
2.93,5.7869473,12.719644,4.5415955,-5.146514,-0.623721,2.4464326
2.932,5.6769753,12.462066,4.50994,-4.980764,-0.6516615,2.4420972
2.934,5.564644,12.217024,4.483459,-4.8161836,-0.68321013,2.4382267
2.936,5.4506235,11.984749,4.462267,-4.6527443,-0.7181405,2.4350686
2.938,5.3357067,11.765516,4.4466,-4.4904237,-0.75613856,2.4329114
2.94,5.2205,11.559361,4.436417,-4.3294315,-0.797668,2.4335346
2.942,5.105658,11.366318,4.4316053,-4.1691313,-0.8402413,2.4335124
2.944,4.991699,11.186226,4.4319286,-4.0099177,-0.8847722,2.4354486
2.946,4.879266,11.018989,4.4370656,-3.857195,-0.92913616,2.4388309
2.948,4.768798,10.864304,4.4466624,-3.7083404,-0.97366667,2.443896
2.95,4.660719,10.721736,4.4603105,-3.5643268,-1.0176735,2.4504933
2.952,4.555379,10.590902,4.4775486,-3.426206,-1.0605044,2.4584255
2.954,4.4531565,10.471222,4.4977617,-3.295041,-1.1015822,2.4674525
2.956,4.354155,10.362198,4.520522,-3.1717649,-1.1404101,2.4772942
2.958,4.2585025,10.263219,4.5454135,-3.0571175,-1.1766073,2.4876447
2.96,4.1663885,10.173685,4.571869,-2.9515662,-1.209945,2.4982057
2.962,4.077961,10.09283,4.5995245,-2.8553019,-1.2403109,2.508693
2.964,3.9932323,10.020046,4.6280155,-2.7682064,-1.2677044,2.5188818
2.966,3.912095,9.954784,4.6571417,-2.6899185,-1.2922363,2.5286152
2.968,3.8345323,9.896437,4.6865296,-2.6198962,-1.314087,2.5377862
