Time_s_,Acc_x_m_s_2_,Acc_y_m_s_2_,Acc_z_m_s_2_,Gyro_x_1_s_,Gyro_y_1_s_,Gyro_z_1_s_
0,-0.42924792,0.42670342,-0.62080127,0.2687127,-0.6464595,0.46962526
0.002,-0.44585353,0.4586169,-0.623831,0.26932168,-0.6518013,0.47318646
0.004,-0.4637973,0.49248487,-0.6291752,0.27006066,-0.65785193,0.477292
0.006,-0.48368558,0.5290552,-0.6347521,0.27097875,-0.66467917,0.4820256
0.008,-0.5054914,0.5687267,-0.6401414,0.27213135,-0.6723263,0.48745623
0.01,-0.52940893,0.6119268,-0.64518017,0.2735799,-0.6808202,0.49366173
0.012,-0.5557239,0.65842104,-0.64963514,0.2753753,-0.6901368,0.5006828
0.014,-0.5842879,0.70774955,-0.6534882,0.27756375,-0.7001995,0.5085449
0.016,-0.6153274,0.7598528,-0.6567085,0.2802013,-0.7109048,0.5172615
0.018,-0.6485418,0.81483394,-0.6593273,0.28334028,-0.7221028,0.5268393
0.02,-0.68405765,0.872976,-0.6615078,0.2870288,-0.7335955,0.5372614
0.022,-0.7216116,0.93452823,-0.6635672,0.29129803,-0.74519634,0.54848313
0.024,-0.7611196,0.9996662,-0.6655967,0.29614574,-0.7567542,0.56042844
0.026,-0.8024925,1.0684121,-0.66772175,0.30153048,-0.7681304,0.5730351
0.028,-0.8451959,1.140515,-0.6702601,0.30745316,-0.779463,0.58649427
0.03,-0.8886572,1.2155017,-0.6732798,0.31371915,-0.7904153,0.6004617
0.032,-0.93207926,1.2928593,-0.676959,0.3202116,-0.80097693,0.6149129
0.034,-0.974798,1.3719671,-0.6815788,0.32677683,-0.8113654,0.6298379
0.036,-1.0161022,1.4522945,-0.68749374,0.333199,-0.8219114,0.6452061
0.038,-1.054929,1.533244,-0.69508886,0.3392664,-0.8328959,0.6610166
0.04,-1.0901122,1.6140773,-0.70490295,0.3447902,-0.84466183,0.67720133
0.042,-1.1207894,1.6940721,-0.7171091,0.3496596,-0.8575062,0.6936713
0.044,-1.145967,1.7727602,-0.73152816,0.35386783,-0.8716546,0.7103702
0.046,-1.1647508,1.8494825,-0.74805325,0.3575511,-0.88720024,0.7272748
0.048,-1.1761016,1.9234354,-0.7666681,0.36099276,-0.90407526,0.74441004
0.05,-1.1795051,1.9938736,-0.78716594,0.36458176,-0.922055,0.7618378
0.052,-1.1744947,2.0603497,-0.80914134,0.3687883,-0.9407406,0.7796316
0.054,-1.1607478,2.1225004,-0.8322299,0.3740952,-0.959571,0.79785466
0.056,-1.1391678,2.1820755,-0.85649806,0.38089076,-0.97786796,0.8165213
0.058,-1.1090715,2.2370443,-0.88093907,0.38939053,-0.9948846,0.8355893
0.06,-1.0703962,2.2873552,-0.9049274,0.39960846,-1.0098823,0.85498965
0.062,-1.0239375,2.3335676,-0.9280791,0.4113441,-1.0222205,0.8746396
0.064,-0.9707517,2.3764908,-0.9502976,0.4242304,-1.0314025,0.8944318
0.066,-0.9120459,2.416983,-0.97116214,0.43778908,-1.0371802,0.9142917
0.068,-0.84900004,2.4559908,-0.9900729,0.45153487,-1.0395665,0.93413126
0.07,-0.7830788,2.4944777,-1.0062815,0.46503747,-1.0387844,0.9538659
0.072,-0.71588206,2.5332413,-1.0190234,0.4779712,-1.0353943,0.9733924
0.074,-0.6487912,2.573198,-1.0280697,0.4901826,-1.0301914,0.9925989
0.076,-0.5832839,2.614981,-1.0335575,0.5016882,-1.0240946,1.0113573
0.078,-0.52080286,2.659466,-1.0350502,0.5126207,-1.0181375,1.0295116
0.08,-0.4631505,2.7076714,-1.0322425,0.52317095,-1.0134146,1.0468609
0.082,-0.4120072,2.7603583,-1.0248989,0.5335268,-1.0109407,1.0631775
0.084,-0.36830795,2.8181927,-1.0128598,0.54386055,-1.0114822,1.0782743
0.086,-0.33352673,2.8815372,-0.9959892,0.5542252,-1.0157173,1.0919338
0.088,-0.3076284,2.9503045,-0.9739409,0.56462604,-1.0239216,1.1039797
0.09,-0.29139495,3.024538,-0.9469153,0.57501286,-1.0361067,1.114314
0.092,-0.28505158,3.1040306,-0.91598624,0.58525693,-1.0521522,1.1228697
0.094,-0.28807998,3.1884933,-0.8815787,0.59520054,-1.0716732,1.1296928
0.096,-0.30022848,3.2774749,-0.84429115,0.60466576,-1.0940933,1.1348752
0.098,-0.32098806,3.3703237,-0.8045122,0.61346704,-1.1187241,1.1384702
0.1,-0.34926963,3.4658647,-0.7626182,0.6214241,-1.1448365,1.1405413
0.102,-0.383708,3.5628414,-0.71937066,0.62834275,-1.1717352,1.141189
0.104,-0.42291307,3.65999,-0.6756779,0.6340393,-1.1987646,1.1405551
0.106,-0.46577096,3.7565207,-0.6322144,0.6382705,-1.2254963,1.1387815
0.108,-0.5110465,3.8514097,-0.5891494,0.6407724,-1.2517592,1.1359717
0.11,-0.5570786,3.9433103,-0.5468503,0.6412687,-1.2776219,1.1321042
0.112,-0.6026889,4.031051,-0.50482994,0.639472,-1.3034294,1.1270237
0.114,-0.6460308,4.113385,-0.46320504,0.63506615,-1.3297666,1.1204379
0.116,-0.6850357,4.1885886,-0.4235714,0.6277178,-1.3574317,1.1119311
0.118,-0.7188717,4.255637,-0.38671547,0.61706674,-1.3873358,1.1010326
0.12,-0.74612725,4.31356,-0.35321003,0.60282946,-1.4202986,1.0872506
0.122,-0.7655593,4.3616943,-0.32275036,0.5847429,-1.4571817,1.0701795
0.124,-0.77643836,4.399483,-0.2951436,0.56257474,-1.4987271,1.0495886
0.126,-0.77831674,4.426561,-0.26995105,0.5361907,-1.5454,1.0254011
0.128,-0.7712724,4.442389,-0.24657288,0.5055142,-1.5974414,0.997676
0.13,-0.7547966,4.446173,-0.22434616,0.47057503,-1.654808,0.96665573
0.132,-0.7290381,4.4375033,-0.20236361,0.4315366,-1.717185,0.93276
0.134,-0.6942638,4.416356,-0.17972812,0.3887022,-1.7840693,0.89650965
0.136,-0.6509112,4.3830166,-0.1553621,0.34253842,-1.8548006,0.85848695
0.138,-0.599576,4.338052,-0.12796485,0.29367346,-1.9285879,0.8192877
0.14,-0.5412053,4.282116,-0.09655732,0.24293399,-2.004562,0.7794914
0.142,-0.47668803,4.215675,-0.060022563,0.19128418,-2.0818043,0.73961365
0.144,-0.40689564,4.1394973,-0.01708141,0.13981175,-2.1594236,0.7000712
0.146,-0.3328154,4.0541024,0.03351754,0.08966744,-2.2364824,0.66123635
0.148,-0.25546682,3.9600644,0.092636466,0.042004824,-2.3120143,0.6234037
0.15,-0.17602491,3.85789,0.16135684,-0.0021463633,-2.3850307,0.58677536
0.152,-0.09502959,3.748204,0.24014741,-0.041896224,-2.4544778,0.55151975
0.154,-0.013252497,3.6312842,0.32890135,-0.076568246,-2.5192304,0.51780605
0.156,0.06863403,3.5078237,0.4277567,-0.10566771,-2.5780818,0.4857666
0.158,0.15018022,3.3785996,0.536564,-0.12891579,-2.6297596,0.45546806
0.16,0.23134303,3.2441275,0.654759,-0.14621961,-2.6729217,0.42698854
0.162,0.3124044,3.1043394,0.78153014,-0.15770006,-2.7063158,0.4004404
0.164,0.39269733,2.9596956,0.9167471,-0.16364682,-2.7288957,0.37595078
0.166,0.47268784,2.8101726,1.0589193,-0.16447735,-2.73987,0.35357088
0.168,0.5525613,2.6561663,1.2064062,-0.16068494,-2.7387295,0.33325177
0.17,0.6321713,2.4982672,1.3573154,-0.15283978,-2.7253058,0.3148181
0.172,0.7125235,2.3363633,1.5102099,-0.14153004,-2.699819,0.29799083
0.174,0.7944772,2.1697698,1.664521,-0.12740445,-2.6628945,0.28238636
0.176,0.87606823,1.9993399,1.81973,-0.11105347,-2.615285,0.26750723
0.178,0.9589015,1.8247561,1.972256,-0.093007565,-2.5579643,0.2527704
0.18,1.0446358,1.6444092,2.1168861,-0.07376051,-2.4920163,0.23762593
0.182,1.131698,1.4583218,2.2540746,-0.05373752,-2.4185548,0.22159186
0.184,1.2201502,1.2668614,2.3852413,-0.033358574,-2.3387072,0.20421183
0.186,1.3097874,1.0712466,2.5056083,-0.013028145,-2.2535217,0.1850631
0.188,1.4009383,0.87234145,2.6103866,0.006854415,-2.1639085,0.16382211
0.19,1.4938581,0.6709606,2.698005,0.025868952,-2.0707216,0.14028436
0.192,1.5887166,0.46793395,2.7675548,0.043588936,-1.9747963,0.114352316
0.194,1.6855271,0.2631576,2.8180401,0.059571147,-1.877053,0.08599126
0.196,1.7858111,0.056006044,2.8498654,0.07333881,-1.7784026,0.055254802
0.198,1.8897865,-0.15280113,2.862609,0.08438277,-1.6798588,0.022249758
0.2,1.9985428,-0.36206082,2.859676,0.0921793,-1.5825999,-0.0129109025
0.202,2.11065,-0.56894743,2.845403,0.09629047,-1.4878969,-0.050080955
0.204,2.2228732,-0.76881593,2.8167424,0.096420884,-1.3971436,-0.0891213
0.206,2.3331423,-0.9559778,2.7675412,0.092387974,-1.3117085,-0.1299683
0.208,2.439087,-1.1250114,2.6961823,0.08429584,-1.2323753,-0.17266461
0.21,2.537341,-1.2731967,2.6087897,0.072494656,-1.1597786,-0.21717788
0.212,2.626176,-1.4019655,2.510851,0.057388186,-1.0947564,-0.26336193
0.214,2.706531,-1.5140364,2.4009693,0.03962964,-1.0373437,-0.31089625
0.216,2.7802677,-1.6097195,2.2739236,0.020224482,-0.9866016,-0.3592528
0.218,2.849519,-1.6865085,2.1247368,0.00046649575,-0.94118416,-0.40769583
0.22,2.9148707,-1.7401894,1.950904,-0.018031955,-0.8992475,-0.45511502
0.222,2.9759512,-1.7657636,1.7533498,-0.03342226,-0.85829246,-0.50000626
0.224,3.0319493,-1.7583648,1.5353667,-0.0437468,-0.8154012,-0.5405037
0.226,3.082368,-1.713701,1.3006154,-0.04703936,-0.7674366,-0.574339
0.228,3.1272042,-1.6286159,1.0526454,-0.041405097,-0.71135557,-0.59888184
0.23,3.1654859,-1.5009359,0.7934452,-0.025298357,-0.6448357,-0.61150855
0.232,3.1960278,-1.3293992,0.52283835,0.002480626,-0.56608975,-0.6098448
0.234,3.2170627,-1.113909,0.2398988,0.042680934,-0.47406596,-0.5919552
0.236,3.226834,-0.85583234,-0.05687332,0.09547213,-0.36884558,-0.5566561
0.238,3.2233214,-0.5575814,-0.36888862,0.16047317,-0.25178373,-0.5041291
0.24,3.2040744,-0.22265029,-0.69688815,0.2368755,-0.12499224,-0.4362304
0.242,3.166994,0.1445136,-1.0406237,0.32357723,0.009476632,-0.35620666
0.244,3.1098487,0.5389819,-1.3988811,0.41924852,0.14979728,-0.2681949
0.246,3.0308645,0.95520616,-1.7697221,0.5225475,0.29448673,-0.17707177
0.248,2.928967,1.3866324,-2.1503696,0.63232464,0.442666,-0.088503204
0.25,2.8042922,1.8256576,-2.5367844,0.74744344,0.59383565,-0.008661792
0.252,2.6577263,2.2640467,-2.9237282,0.86629546,0.74773866,0.056231678
0.254,2.4912016,2.692997,-3.304981,0.9864586,0.9039471,0.10056779
0.256,2.3079932,3.1038945,-3.6740518,1.1044855,1.0611312,0.11986053
0.258,2.1120787,3.4885185,-4.0244217,1.215964,1.216398,0.11118269
0.26,1.9085426,3.839384,-4.3502054,1.3157824,1.3647157,0.07356188
0.262,1.702853,4.1495733,-4.6460414,1.3984584,1.4986814,0.008100331
0.264,1.5016065,4.413645,-4.9067826,1.4587824,1.6095064,-0.08229926
0.266,1.3112602,4.627434,-5.1279206,1.4925119,1.6880803,-0.1930612
0.268,1.1382346,4.7883234,-5.30484,1.4967608,1.7254373,-0.31840432
0.27,0.98874855,4.8954105,-5.4336796,1.4704332,1.7144842,-0.4518026
0.272,0.86818075,4.9495764,-5.5112395,1.4145962,1.6519635,-0.5865712
0.274,0.7819872,4.952562,-5.536167,1.3324023,1.5391811,-0.71664417
0.276,0.7335968,4.907795,-5.507188,1.2288398,1.3821554,-0.8370669
0.278,0.7254052,4.8195467,-5.4248905,1.1102699,1.1914154,-0.94427633
0.28,0.7585275,4.693184,-5.291463,0.9837674,0.9808902,-1.0362184
0.282,0.83230805,4.5352,-5.1108127,0.85641336,0.7662632,-1.1121793
0.284,0.9448824,4.352704,-4.8888597,0.73476946,0.56325513,-1.1723481
0.286,1.095052,4.1521525,-4.6325736,0.62421,0.38535982,-1.2176355
0.288,1.2768598,3.9411833,-4.347001,0.5286119,0.24248657,-1.249471
0.29,1.4842978,3.7278845,-4.0369253,0.45029873,0.14039546,-1.2695154
0.292,1.7134043,3.5181198,-3.7133431,0.39001828,0.080534786,-1.2792318
0.294,1.9576802,3.3166165,-3.3858128,0.3470716,0.06016448,-1.2799302
0.296,2.2108173,3.1267502,-3.057304,0.31964064,0.07317689,-1.2731284
0.298,2.4662714,2.9517465,-2.7319767,0.3052137,0.11193699,-1.2606344
0.3,2.717863,2.7945147,-2.4165144,0.3008457,0.16876361,-1.2440896
0.302,2.9601784,2.657812,-2.1166253,0.30343193,0.23679847,-1.2245898
0.304,3.1879425,2.544646,-1.836555,0.3101685,0.31068248,-1.2028052
0.306,3.3963726,2.4568715,-1.5803707,0.31891638,0.38669834,-1.1791227
0.308,3.5825648,2.3944154,-1.3497117,0.32814848,0.46253398,-1.1538947
0.31,3.7450109,2.3555925,-1.1473556,0.3367107,0.53698564,-1.1274667
0.312,3.884674,2.3374653,-0.9738171,0.3436526,0.6094856,-1.1001931
0.314,4.0037894,2.3362405,-0.8222041,0.34808192,0.67958736,-1.072472
0.316,4.103877,2.34823,-0.6848158,0.349115,0.7465162,-1.0447334
0.318,4.18671,2.3710494,-0.55977714,0.34590062,0.8090013,-1.0173682
0.32,4.254253,2.405246,-0.45082855,0.3376963,0.86524314,-0.9908048
0.322,4.3068657,2.453611,-0.3575297,0.3238577,0.91309655,-0.9655096
0.324,4.3434277,2.517466,-0.272303,0.30394733,0.95045894,-0.94197154
0.326,4.363388,2.5942035,-0.18636352,0.27778274,0.97556144,-0.92055523
0.328,4.36706,2.6785371,-0.094052434,0.2455166,0.98719394,-0.9013721
0.33,4.356848,2.7649188,0.006545186,0.20762467,0.9849261,-0.88424736
0.332,4.336065,2.848273,0.11358023,0.1648488,0.9691575,-0.8687695
0.334,4.3074675,2.924912,0.22426379,0.1181131,0.9410566,-0.85444605
0.336,4.2727704,2.9928875,0.33701622,0.068499506,0.9024224,-0.8407363
0.338,4.2330604,3.051476,0.4517126,0.017154396,0.8554374,-0.8271103
0.34,4.1893454,3.1008434,0.5697925,-0.034737468,0.8024758,-0.8130215
0.342,4.142582,3.1418192,0.69450724,-0.0860281,0.74598444,-0.79795516
0.344,4.093316,3.1756048,0.82859004,-0.13566494,0.6883131,-0.7814183
0.346,4.04107,3.2039413,0.9730321,-0.18271238,0.6316181,-0.7629776
0.348,3.9845355,3.2282484,1.130587,-0.22638962,0.577776,-0.7422653
0.35,3.923027,3.249434,1.3024653,-0.2660904,0.5283489,-0.71900517
0.352,3.8555121,3.2682238,1.4863552,-0.3013754,0.48456758,-0.69303435
0.354,3.7821305,3.2844753,1.6772404,-0.33195826,0.44733036,-0.6643157
0.356,3.7028632,3.297877,1.8691128,-0.3577088,0.41726983,-0.63295954
0.358,3.618041,3.3084197,2.0571437,-0.37864298,0.39478004,-0.59922546
0.36,3.5266852,3.3175356,2.2372696,-0.39488763,0.38007462,-0.5635598
0.362,3.427459,3.3270936,2.4053917,-0.40664566,0.3732822,-0.52652246
0.364,3.3200853,3.3384705,2.5587132,-0.41417417,0.37442976,-0.48873356
0.366,3.2045968,3.3524413,2.695758,-0.4177286,0.38355818,-0.4507871
0.368,3.081722,3.3690858,2.8155189,-0.41752708,0.40075803,-0.41323584
0.37,2.9527602,3.3879766,2.917125,-0.41375574,0.4261252,-0.37655473
0.372,2.8196821,3.408445,2.9997482,-0.40656704,0.45974877,-0.34103101
0.374,2.6840591,3.4296281,3.0615168,-0.39598918,0.5018954,-0.3067684
0.376,2.5482402,3.4502842,3.1000657,-0.38189545,0.5530086,-0.27380878
0.378,2.414227,3.4692845,3.1122744,-0.36416852,0.6134008,-0.24215207
0.38,2.2845201,3.4855566,3.0949507,-0.3427395,0.6834012,-0.21161622
0.382,2.16178,3.497574,3.0452497,-0.31758714,0.76330376,-0.18192586
0.384,2.048488,3.504151,2.9611106,-0.28870744,0.85320425,-0.15285942
0.386,1.9466472,3.5042763,2.840925,-0.256132,0.9529197,-0.12418374
0.388,1.8579931,3.4969065,2.6839552,-0.21989945,1.0619271,-0.09557796
0.39,1.7839828,3.4808033,2.4903324,-0.18011358,1.1793628,-0.06667769
0.392,1.7257235,3.454866,2.2604036,-0.13704842,1.3039101,-0.037171274
0.394,1.6839212,3.418168,1.9956193,-0.091329515,1.4336476,-0.006835729
0.396,1.6591835,3.3695354,1.6984851,-0.043997467,1.5659069,0.024492443
0.398,1.6515942,3.308087,1.3724062,0.0033973455,1.697089,0.056861117
0.4,1.6605437,3.2336211,1.0212595,0.0487985,1.8225026,0.09016211
0.402,1.6852227,3.145887,0.65041876,0.08972114,1.9363987,0.12410693
0.404,1.723491,3.0455487,0.2659492,0.12336272,2.0321593,0.15817142
0.406,1.7735429,2.9334314,-0.12561727,0.14686036,2.102677,0.19158006
0.408,1.8329538,2.8106842,-0.5179137,0.15758604,2.140963,0.2233127
0.41,1.8983662,2.6779912,-0.9041585,0.15347636,2.1408443,0.25218368
0.412,1.967273,2.5351129,-1.2752614,0.13327962,2.0977433,0.27698404
0.414,2.0369484,2.382117,-1.6246599,0.096731305,2.0094135,0.29665482
0.416,2.1048884,2.2195094,-1.9454005,0.044630587,1.8763806,0.3103882
0.418,2.167932,2.0479832,-2.2311163,-0.02121681,1.7021325,0.3177503
0.42,2.223477,1.8686049,-2.475839,-0.09822762,1.4928548,0.31879318
0.422,2.2682014,1.6825377,-2.675745,-0.18327722,1.2569253,0.31407258
0.424,2.2988763,1.4911566,-2.8282433,-0.27299687,1.0041517,0.3045755
0.426,2.3131337,1.2957292,-2.9320166,-0.36406028,0.74486023,0.2915432
0.428,2.3090937,1.0973928,-2.9872274,-0.45351923,0.4888528,0.27631083
0.43,2.2850373,0.89729404,-2.9953134,-0.5389744,0.2446939,0.26015997
0.432,2.240646,0.6963651,-2.9590898,-0.6185367,0.019366443,0.24407601
0.434,2.1756315,0.49606133,-2.881776,-0.6909119,-0.18229234,0.22846429
0.436,2.0900812,0.29807734,-2.7681308,-0.7554143,-0.35755497,0.21327578
0.438,1.9883171,0.10247958,-2.6241384,-0.8119132,-0.50561035,0.19810122
0.44,1.8729321,-0.09096813,-2.4558787,-0.8608072,-0.6274043,0.18208295
0.442,1.7442093,-0.28221804,-2.2658129,-0.90292484,-0.72523946,0.16407877
0.444,1.6053194,-0.47095346,-2.058747,-0.9392834,-0.8023293,0.14289403
0.446,1.4592314,-0.6564634,-1.8419945,-0.97100174,-0.86258006,0.117410704
0.448,1.306393,-0.8367728,-1.6191084,-0.9991019,-0.91004485,0.08663448
0.45,1.1488142,-1.0099438,-1.3931662,-1.0244237,-0.9485676,0.049669355
0.452,0.9894787,-1.1742034,-1.1692469,-1.0475143,-0.9813497,0.0057800114
0.454,0.8320115,-1.3278731,-0.94964683,-1.0686047,-1.0107238,-0.04567015
0.456,0.68202466,-1.470252,-0.73630863,-1.087596,-1.0380087,-0.10522178
0.458,0.5454501,-1.6001804,-0.5358529,-1.1040841,-1.063515,-0.17329721
0.46,0.42750013,-1.7172532,-0.35430935,-1.117455,-1.0866491,-0.25018567
0.462,0.33310634,-1.8226445,-0.19389856,-1.1270257,-1.1062024,-0.33591604
0.464,0.26558346,-1.9172797,-0.053517893,-1.1322865,-1.120832,-0.4302652
0.466,0.22817093,-2.0016184,0.068380326,-1.133112,-1.1293676,-0.53279155
0.468,0.22313583,-2.0759602,0.17159389,-1.1297987,-1.1311755,-0.64278156
0.47,0.25354975,-2.141521,0.25564152,-1.1231791,-1.1270592,-0.7594116
0.472,0.32181358,-2.1992362,0.3213178,-1.114597,-1.1193286,-0.881631
0.474,0.42748415,-2.2486267,0.3699366,-1.1057453,-1.1112717,-1.0079805
0.476,0.5693687,-2.2886355,0.40188754,-1.0985057,-1.1074535,-1.1368252
0.478,0.745418,-2.3183975,0.41996515,-1.0947529,-1.1134996,-1.2665235
0.48,0.95090485,-2.3366036,0.4299276,-1.0959704,-1.1348355,-1.395263
0.482,1.1810209,-2.3428996,0.43466374,-1.102926,-1.1759574,-1.521059
0.484,1.4302311,-2.3374307,0.4357414,-1.1154429,-1.2397959,-1.6418235
0.486,1.6915685,-2.32066,0.43639478,-1.132215,-1.3266506,-1.7552575
0.488,1.9576881,-2.293847,0.4390038,-1.1507225,-1.4336584,-1.8588846
0.49,2.2208037,-2.2585573,0.44351217,-1.1674256,-1.5548774,-1.9503404
0.492,2.4726229,-2.216269,0.44869295,-1.1781108,-1.6814623,-2.0273914
0.494,2.7053652,-2.1690564,0.45268753,-1.1783738,-1.8020991,-2.0880406
0.496,2.9121091,-2.1188622,0.45263898,-1.1642536,-1.9039567,-2.1309726
0.498,3.086565,-2.0671916,0.44480664,-1.1327612,-1.9739842,-2.1558745
0.5,3.2236304,-2.015541,0.4251514,-1.0820736,-2.000049,-2.1635096
0.502,3.3189623,-1.9653924,0.38980597,-1.0117464,-1.9724605,-2.1556427
0.504,3.369697,-1.9178151,0.3347757,-0.9226934,-1.8849881,-2.1349082
0.506,3.3735828,-1.8736937,0.25635144,-0.8170927,-1.7357447,-2.1045797
0.508,3.3296018,-1.83338,0.15137705,-0.6981726,-1.5276241,-2.0681946
0.51,3.2385218,-1.79702,0.017625287,-0.5699574,-1.2681448,-2.0291586
0.512,3.1037028,-1.7653627,-0.145683,-0.4369582,-0.96869737,-1.9902078
0.514,2.9266822,-1.7382205,-0.33564723,-0.30391777,-0.6437292,-1.9531512
0.516,2.7148817,-1.7172561,-0.55192006,-0.17549154,-0.30938235,-1.9188241
0.518,2.4770603,-1.7030766,-0.79818547,-0.055955812,0.018167451,-1.8869692
0.52,2.2158947,-1.6943891,-1.0663122,0.050962955,0.32399553,-1.8564683
0.522,1.933051,-1.6889031,-1.3481771,0.14217708,0.5956034,-1.8258756
0.524,1.6380029,-1.6867388,-1.6376092,0.21544299,0.82425076,-1.793659
0.526,1.3400599,-1.688467,-1.9276159,0.26947758,1.0050538,-1.7587577
0.528,1.0431538,-1.693159,-2.2093217,0.30397093,1.1365899,-1.7210872
0.53,0.7509421,-1.700983,-2.4750605,0.3196023,1.2210519,-1.6813768
0.532,0.47230116,-1.7152598,-2.7190747,0.31793374,1.263576,-1.6410843
0.534,0.2148802,-1.7386903,-2.9365835,0.30108482,1.2706878,-1.6024791
0.536,-0.018007219,-1.7717551,-3.1218605,0.2714604,1.2495711,-1.5682817
0.538,-0.22522384,-1.8148847,-3.271262,0.23149335,1.2075047,-1.5412347
0.54,-0.40380383,-1.8695393,-3.3822663,0.18342525,1.1509428,-1.5239618
0.542,-0.5510175,-1.937249,-3.4528859,0.12920314,1.085261,-1.5186391
0.544,-0.6646,-2.0199864,-3.4828188,0.07043213,1.0146883,-1.526702
0.546,-0.7430546,-2.1202486,-3.4726686,0.008274794,0.94242245,-1.5485713
0.548,-0.7887007,-2.2388384,-3.4236832,-0.056097507,0.8707545,-1.5837659
0.55,-0.8005017,-2.3769488,-3.3381891,-0.12150538,0.8007499,-1.6312885
0.552,-0.7747253,-2.5364046,-3.2234805,-0.18684062,0.73353595,-1.6892463
0.554,-0.71209437,-2.7183714,-3.0855513,-0.2509019,0.67057717,-1.7549348
0.556,-0.61286885,-2.9234776,-2.9282904,-0.31229156,0.61332804,-1.8254257
0.558,-0.47675955,-3.151059,-2.759007,-0.36934334,0.5635778,-1.8978726
0.56,-0.3073641,-3.3982782,-2.583781,-0.42014307,0.5236516,-1.9696018
0.562,-0.110257864,-3.6607184,-2.406848,-0.46261618,0.49616256,-2.0378273
0.564,0.108214974,-3.932707,-2.2338195,-0.49469534,0.48357624,-2.0997872
0.566,0.3395275,-4.207331,-2.068299,-0.5144596,0.48799542,-2.1532815
0.568,0.575264,-4.477551,-1.9107333,-0.52034277,0.51115185,-2.1966045
0.57,0.8070394,-4.735504,-1.7609789,-0.51137,0.55408716,-2.2283528
0.572,1.0272493,-4.973572,-1.6202763,-0.4872417,0.61682194,-2.2475197
0.574,1.2295322,-5.1853156,-1.490721,-0.44829866,0.69832957,-2.2537332
0.576,1.4080441,-5.366255,-1.3739927,-0.39566544,0.7965172,-2.2472036
0.578,1.5574266,-5.512841,-1.2704633,-0.33131492,0.908137,-2.2287967
0.58,1.673534,-5.622658,-1.1801311,-0.25817668,1.0287726,-2.200073
0.582,1.7532601,-5.6945343,-1.102264,-0.18003052,1.1531059,-2.1631937
0.584,1.7955518,-5.729531,-1.035703,-0.10133952,1.2750621,-2.1209874
0.586,1.7995605,-5.729764,-0.97700894,-0.026970923,1.3881028,-2.076862
0.588,1.7656517,-5.698206,-0.92355853,0.038119793,1.485765,-2.03462
0.59,1.696485,-5.6391296,-0.8745769,0.089271426,1.5622345,-1.9982445
0.592,1.594713,-5.5571795,-0.82575524,0.122534335,1.612859,-1.9715201
0.594,1.4642527,-5.4577184,-0.77223253,0.13503176,1.6346184,-1.9575894
0.596,1.3102632,-5.3462806,-0.71287405,0.12523061,1.62649,-1.9586222
0.598,1.1379054,-5.2283087,-0.6469524,0.09310681,1.5896719,-1.9754641
0.6,0.9525032,-5.1096215,-0.5735223,0.04017061,1.5273564,-2.0076673
0.602,0.75968647,-4.9960012,-0.49346513,-0.030999959,1.4444247,-2.0533087
0.604,0.5644455,-4.892625,-0.40873757,-0.11682975,1.3472991,-2.1088803
0.606,0.37129116,-4.804517,-0.32103693,-0.2130931,1.24246,-2.1702085
0.608,0.1841464,-4.7360697,-0.23263371,-0.3154388,1.1361336,-2.2328978
0.61,0.006198883,-4.6905026,-0.14605308,-0.41975814,1.0342314,-2.2924843
0.612,-0.15959263,-4.670026,-0.06395191,-0.5224354,0.9414566,-2.3450117
0.614,-0.31120396,-4.6762056,0.010659546,-0.6204227,0.8610238,-2.3875873
0.616,-0.44696128,-4.7094154,0.0748277,-0.71137834,0.7948312,-2.4188483
0.618,-0.56549513,-4.7696257,0.12614235,-0.7937397,0.7435677,-2.438684
0.62,-0.6662383,-4.8559656,0.1628258,-0.8667514,0.70669436,-2.447778
0.622,-0.74984956,-4.9660783,0.18341881,-0.9303779,0.6826608,-2.4475164
0.624,-0.81407046,-5.0982738,0.18571004,-0.98516834,0.6691975,-2.4398873
0.626,-0.86226416,-5.2485204,0.17237118,-1.0322046,0.6636284,-2.427095
0.628,-0.89649594,-5.4144926,0.1510092,-1.0729986,0.6630156,-2.411197
0.63,-0.9119767,-5.5950346,0.11867648,-1.109232,0.664436,-2.3940728
0.632,-0.90598536,-5.7887645,0.074900895,-1.1425253,0.665235,-2.3774102
0.634,-0.88280463,-5.992392,0.02564907,-1.1742246,0.66324186,-2.3626254
0.636,-0.845315,-6.2027283,-0.025101572,-1.2053676,0.65687156,-2.3507695
0.638,-0.7903558,-6.4187064,-0.07514799,-1.2366316,0.64536715,-2.3424294
0.64,-0.71687627,-6.6379633,-0.12120587,-1.2683104,0.62881184,-2.3377216
0.642,-0.6284931,-6.8559036,-0.15837038,-1.3003439,0.6080103,-2.3362956
0.644,-0.5274432,-7.0698013,-0.18305844,-1.332383,0.5843247,-2.3373358
0.646,-0.41318083,-7.279196,-0.19395411,-1.363954,0.5594274,-2.3396952
0.648,-0.28527093,-7.4826136,-0.18983272,-1.3945969,0.53509027,-2.3419886
0.65,-0.14612818,-7.6776476,-0.17063913,-1.4239738,0.51293176,-2.3427396
0.652,0.00021100044,-7.861383,-0.13849425,-1.4518988,0.49425,-2.3405774
0.654,0.15022373,-8.031111,-0.09581393,-1.4783678,0.479863,-2.3343744
0.656,0.30050683,-8.183963,-0.045329392,-1.5035623,0.4701648,-2.3233032
0.658,0.44764996,-8.317431,0.0095767975,-1.5277997,0.4651965,-2.3068976
0.66,0.5871668,-8.428588,0.06429234,-1.5514462,0.4647759,-2.2850547
0.662,0.71462035,-8.514837,0.11519037,-1.5748868,0.46867123,-2.2579672
0.664,0.8265631,-8.574915,0.1590089,-1.5983993,0.47667843,-2.2261221
0.666,0.9191561,-8.608195,0.19196631,-1.6220982,0.48872316,-2.1901731
0.668,0.98998094,-8.61514,0.2094345,-1.6459558,0.50488275,-2.1509004
0.67,1.0374546,-8.596377,0.20622994,-1.6697258,0.52543473,-2.1091926
0.672,1.0601928,-8.553008,0.17721835,-1.6929823,0.5508192,-2.0660594
0.674,1.0575433,-8.486341,0.11810411,-1.7151899,0.58161664,-2.0225468
0.676,1.030029,-8.398098,0.024186328,-1.7357235,0.6185134,-1.9796443
0.678,0.9783919,-8.289844,-0.10903952,-1.7539439,0.6622097,-1.9382936
0.68,0.9045465,-8.163817,-0.28535494,-1.7692144,0.71334046,-1.8993121
0.682,0.81071377,-8.022745,-0.5075273,-1.7809935,0.7724361,-1.8633829
0.684,0.6995697,-7.8700876,-0.7773558,-1.7888308,0.8397814,-1.8311208
0.686,0.57360125,-7.7092137,-1.0944524,-1.7924328,0.91534364,-1.803086
0.688,0.43627787,-7.544085,-1.4583658,-1.7917011,0.99864554,-1.7798123
0.69,0.29215145,-7.3786516,-1.8681209,-1.7867275,1.0887166,-1.7618825
0.692,0.1462512,-7.2171903,-2.3222985,-1.7777401,1.1840818,-1.7499893
0.694,0.0031580925,-7.063291,-2.8181193,-1.7651078,1.282672,-1.7448595
0.696,-0.13222528,-6.9205956,-3.3503067,-1.7493064,1.3819183,-1.7471442
0.698,-0.2558403,-6.791913,-3.912315,-1.7308887,1.4788871,-1.7573626
0.7,-0.36340022,-6.6800957,-4.496213,-1.7104514,1.5704111,-1.7758272
0.702,-0.4512111,-6.5874596,-5.093935,-1.6885834,1.6531835,-1.8025587
0.704,-0.5167432,-6.516176,-5.6972766,-1.6657791,1.7239656,-1.8371922
0.706,-0.55813396,-6.467607,-6.297381,-1.6424432,1.7797558,-1.87891
0.708,-0.5740268,-6.4424777,-6.8844113,-1.6188693,1.8179862,-1.9265215
0.71,-0.56382036,-6.4409003,-7.44789,-1.595196,1.8366839,-1.978581
0.712,-0.52754426,-6.4622355,-7.9773283,-1.5714562,1.8346199,-2.03353
0.714,-0.4653573,-6.505496,-8.463301,-1.5475452,1.8113778,-2.089841
0.716,-0.37923598,-6.5690756,-8.896794,-1.5232697,1.7674798,-2.1461277
0.718,-0.27161336,-6.6511307,-9.268525,-1.4984014,1.7043321,-2.2012038
0.72,-0.14511609,-6.749395,-9.571,-1.4727113,1.6241248,-2.254231
0.722,-0.0032737255,-6.861328,-9.7985525,-1.4459493,1.5297204,-2.3047814
0.724,0.15077019,-6.984184,-9.947112,-1.4179106,1.4244096,-2.3527956
0.726,0.31365418,-7.115122,-10.013989,-1.388465,1.3117338,-2.3984447
0.728,0.4820881,-7.250836,-9.998157,-1.3576202,1.1952949,-2.4420466
0.73,0.6526766,-7.388171,-9.90001,-1.3255471,1.0785496,-2.4840243
0.732,0.82219315,-7.524075,-9.721525,-1.2925881,0.9646121,-2.524753
0.734,0.9881625,-7.655842,-9.466057,-1.259264,0.85608375,-2.5644486
0.736,1.1488686,-7.781313,-9.1384735,-1.2262218,0.7550281,-2.603093
0.738,1.3031762,-7.898748,-8.745309,-1.1942382,0.6629517,-2.6404352
0.74,1.4506587,-8.007119,-8.294287,-1.1641755,0.5807885,-2.6760306
0.742,1.5913925,-8.106042,-7.7940655,-1.1368973,0.50902486,-2.7092452
0.744,1.725753,-8.195719,-7.2538667,-1.1132095,0.44773027,-2.7393167
0.746,1.8545517,-8.276877,-6.683188,-1.0938469,0.39662755,-2.7654178
0.748,1.9786897,-8.35065,-6.091495,-1.0794474,0.3552512,-2.7867289
0.75,2.099208,-8.418647,-5.4882107,-1.0705744,0.32297063,-2.8025308
0.752,2.217072,-8.482635,-4.8826065,-1.0676835,0.2989614,-2.8122804
0.754,2.3326433,-8.544314,-4.284097,-1.0710669,0.2822474,-2.815608
0.756,2.4461484,-8.604938,-3.7017498,-1.080843,0.27179193,-2.8122935
0.758,2.5581517,-8.666415,-3.1426678,-1.0969778,0.2665353,-2.8022606
0.76,2.668635,-8.73045,-2.6127114,-1.1192361,0.26549765,-2.7856007
0.762,2.7767978,-8.7987795,-2.117041,-1.1471934,0.2678405,-2.7624419
0.764,2.8817673,-8.872746,-1.6601055,-1.1802645,0.27293772,-2.7328491
0.766,2.981749,-8.953007,-1.2454668,-1.2176989,0.2804449,-2.6968162
0.768,3.0746055,-9.039708,-0.87533665,-1.258659,0.29023182,-2.6542442
0.77,3.1582725,-9.13322,-0.55061865,-1.3022462,0.30229136,-2.604955
0.772,3.2297304,-9.233274,-0.27174044,-1.3475727,0.31664154,-2.548731
0.774,3.2864614,-9.339075,-0.039060354,-1.3938313,0.33322263,-2.4853811
0.776,3.326629,-9.449795,0.14728355,-1.4403535,0.3517736,-2.4148753
0.778,3.347918,-9.564518,0.28867984,-1.4865847,0.3717733,-2.3374612
0.78,3.347632,-9.681781,0.38720357,-1.5320877,0.39240602,-2.2537448
0.782,3.3232903,-9.799549,0.44561636,-1.5765077,0.41262603,-2.164741
0.784,3.2727768,-9.915947,0.46686625,-1.6195748,0.43131214,-2.0718217
0.786,3.194686,-10.028968,0.45375025,-1.6610852,0.44744346,-1.9766939
0.788,3.0881495,-10.136825,0.40869808,-1.700874,0.46025378,-1.8813263
0.79,2.9524863,-10.237796,0.33443248,-1.738783,0.46929565,-1.7878023
0.792,2.788395,-10.330015,0.23384881,-1.7746326,0.4745189,-1.6981338
0.794,2.5974536,-10.412199,0.10917556,-1.808161,0.47630072,-1.6141822
0.796,2.3820426,-10.4838,-0.038032055,-1.8390211,0.4754365,-1.5375676
0.798,2.1450458,-10.544559,-0.20559049,-1.8667473,0.47303894,-1.4695977
0.8,1.8893164,-10.59448,-0.39087677,-1.8907304,0.4705572,-1.4112653
0.802,1.6186306,-10.633795,-0.59186363,-1.9102122,0.46968096,-1.3632948
0.804,1.3377013,-10.663447,-0.80725586,-1.9243143,0.4722212,-1.3261182
0.806,1.0508344,-10.684416,-1.0372348,-1.9320774,0.4800897,-1.2998657
0.808,0.7625728,-10.697896,-1.282022,-1.9325526,0.49515784,-1.2844157
0.81,0.47705245,-10.704625,-1.5413842,-1.9248337,0.5191259,-1.2794354
0.812,0.19856942,-10.705523,-1.8143332,-1.9081239,0.55331844,-1.284385
0.814,-0.06821716,-10.701275,-2.0996225,-1.8818046,0.5985344,-1.2985129
0.816,-0.31927067,-10.693019,-2.3960161,-1.8454882,0.6549954,-1.3209385
0.818,-0.55099744,-10.681893,-2.702923,-1.7990226,0.7221869,-1.3507503
0.82,-0.7604487,-10.668618,-3.0197463,-1.7425288,0.79880744,-1.3870275
0.822,-0.9456108,-10.6543,-3.3450232,-1.6763878,0.8828873,-1.4289229
0.824,-1.1057796,-10.639708,-3.6771564,-1.601248,0.97183776,-1.4756975
0.826,-1.2402308,-10.625395,-4.014979,-1.5179979,1.0625942,-1.5267577
0.828,-1.3485208,-10.611671,-4.3575716,-1.4277148,1.151768,-1.5815967
0.83,-1.4307406,-10.599124,-4.7026815,-1.3315885,1.2358972,-1.6398124
0.832,-1.4874741,-10.5885105,-5.046745,-1.2308651,1.3116299,-1.7011149
0.834,-1.5206604,-10.580459,-5.3861694,-1.1267636,1.3758761,-1.7652266
0.836,-1.5324825,-10.575813,-5.717753,-1.0204116,1.4259593,-1.8317211
0.838,-1.5254239,-10.575878,-6.0381413,-0.9128015,1.4597379,-1.8999093
0.84,-1.5021479,-10.581961,-6.34415,-0.8048255,1.4756937,-1.9688213
0.842,-1.4653379,-10.595198,-6.633416,-0.6972838,1.4729439,-2.0372596
0.844,-1.4182292,-10.616362,-6.904072,-0.5909644,1.4511968,-2.1038353
0.846,-1.3643714,-10.646114,-7.1539564,-0.48663855,1.4107661,-2.167094
0.848,-1.307421,-10.684943,-7.3813944,-0.38510936,1.3525736,-2.225631
0.85,-1.2508403,-10.733103,-7.5854526,-0.28723824,1.2780557,-2.2781658
0.852,-1.1977651,-10.790792,-7.765834,-0.19396158,1.1891685,-2.323568
0.854,-1.1506778,-10.85821,-7.9227552,-0.106244706,1.0882933,-2.3608847
0.856,-1.111855,-10.935501,-8.056401,-0.024954794,0.97823036,-2.3893852
0.858,-1.0835568,-11.0222645,-8.167498,0.049213834,0.8621203,-2.4086032
0.86,-1.0671389,-11.118039,-8.257537,0.11584072,0.7433657,-2.4183464
0.862,-1.0639901,-11.222029,-8.328645,0.17488667,0.625508,-2.4187238
0.864,-1.0747817,-11.3333435,-8.382938,0.22671236,0.5120462,-2.4101307
0.866,-1.0999134,-11.451063,-8.423016,0.27215695,0.40631709,-2.3932424
0.868,-1.1399462,-11.573697,-8.452194,0.3125339,0.311318,-2.369015
0.87,-1.195189,-11.699451,-8.473594,0.3494992,0.22954738,-2.3386402
0.872,-1.265327,-11.826567,-8.489636,0.38489404,0.16290417,-2.3034682
0.874,-1.3499377,-11.953045,-8.503143,0.42060894,0.11254093,-2.2649975
0.876,-1.4484723,-12.077006,-8.516677,0.45848343,0.07879761,-2.224792
0.878,-1.5591567,-12.197147,-8.532392,0.5001474,0.061234415,-2.1843493
0.88,-1.6812565,-12.312127,-8.553242,0.54688144,0.05868548,-2.1450222
0.882,-1.8137059,-12.42094,-8.580168,0.5995249,0.06929788,-2.107974
0.884,-1.9553509,-12.522475,-8.612923,0.65840405,0.09060767,-2.0741127
0.886,-2.1056843,-12.615865,-8.651395,0.72334063,0.1196681,-2.0440435
0.888,-2.2635865,-12.700494,-8.695215,0.7936789,0.15316597,-2.0181174
0.89,-2.427269,-12.776344,-8.743789,0.868276,0.1875408,-1.9964808
0.892,-2.5950828,-12.843204,-8.796216,0.94566405,0.21905401,-1.9791265
0.894,-2.76569,-12.901006,-8.850687,1.0241736,0.24392909,-1.9658492
0.896,-2.9382644,-12.950025,-8.904255,1.1020764,0.2585903,-1.956264
0.898,-3.111004,-12.990938,-8.953307,1.1776955,0.25976568,-1.9498844
0.9,-3.2817678,-13.024664,-8.994477,1.2494378,0.24456573,-1.9460853
0.902,-3.4481635,-13.05267,-9.024759,1.315874,0.210612,-1.9441274
0.904,-3.6079216,-13.076693,-9.040305,1.375846,0.15623385,-1.9432515
0.906,-3.7582054,-13.098403,-9.036992,1.42896,0.08200243,-1.9453547
0.908,-3.8964312,-13.119447,-9.011161,1.4741336,-0.014016628,-1.9464397
0.91,-4.0198345,-13.14157,-8.95973,1.5114152,-0.12999499,-1.9478323
0.912,-4.1257,-13.166027,-8.880323,1.5408946,-0.26413727,-1.9495014
0.914,-4.211178,-13.1935425,-8.769743,1.5629151,-0.41382086,-1.9515122
0.916,-4.2729435,-13.224907,-8.62586,1.5780008,-0.5757837,-1.9539883
0.918,-4.307532,-13.261249,-8.447268,1.5868262,-0.74635786,-1.9570491
0.92,-4.3120794,-13.303592,-8.232595,1.5901139,-0.921678,-1.9606159
0.922,-4.284094,-13.352742,-7.981451,1.5885954,-1.0978959,-1.9643354
0.924,-4.222088,-13.408915,-7.694037,1.5830076,-1.2714353,-1.9676081
0.926,-4.125223,-13.472139,-7.370632,1.5741099,-1.4390705,-1.9695494
0.928,-3.9928582,-13.541931,-7.0119705,1.5626494,-1.5979505,-1.9690329
0.93,-3.8255188,-13.617535,-6.619935,1.5493001,-1.7457418,-1.9648299
0.932,-3.6240463,-13.697611,-6.1978154,1.5347054,-1.8806028,-1.9558591
0.934,-3.3892365,-13.781068,-5.7486086,1.5194762,-2.0011332,-1.9413083
0.936,-3.1227038,-13.8667965,-5.2753196,1.5041945,-2.1063068,-1.920704
0.938,-2.8279326,-13.953592,-4.781433,1.4893565,-2.195455,-1.893961
0.94,-2.5091734,-14.039783,-4.2704287,1.475364,-2.2682686,-1.8614047
0.942,-2.170981,-14.123431,-3.7463765,1.4624767,-2.3248127,-1.82367
0.944,-1.8177066,-14.202667,-3.2133932,1.450855,-2.3655305,-1.7816308
0.946,-1.4544022,-14.275669,-2.6756685,1.440511,-2.3911893,-1.7362199
0.948,-1.0867884,-14.340377,-2.137516,1.431283,-2.4029276,-1.688325
0.95,-0.7206247,-14.394746,-1.6034226,1.422863,-2.4021983,-1.6387334
0.952,-0.3618586,-14.436812,-1.077143,1.4148797,-2.3904912,-1.5880482
0.954,-0.016620398,-14.464548,-0.56263447,1.4069318,-2.3693275,-1.536765
0.956,0.3096485,-14.476233,-0.06379366,1.398607,-2.3401961,-1.4852298
0.958,0.61221266,-14.470441,0.41622472,1.3894713,-2.30445,-1.4336394
0.96,0.8860693,-14.445843,0.8742213,1.3788145,-2.2640777,-1.3805685
0.962,1.1266453,-14.400943,1.3073843,1.3668194,-2.2179945,-1.3297033
0.964,1.3294938,-14.334283,1.7122865,1.3527001,-2.1682415,-1.2786686
0.966,1.4914125,-14.244553,2.0848556,1.3361251,-2.1151445,-1.2276652
0.968,1.6098993,-14.130936,2.4219863,1.3168077,-2.058933,-1.1769173
0.97,1.6812938,-13.992348,2.7201214,1.2945383,-1.9996722,-1.1266398
0.972,1.7028215,-13.829766,2.9758973,1.2691596,-1.9372698,-1.0770452
0.974,1.6823121,-13.645943,3.191074,1.2405838,-1.8715861,-1.028399
0.976,1.61806,-13.44022,3.362616,1.2087672,-1.8025765,-0.9809694
0.978,1.5107372,-13.211918,3.4894671,1.1736885,-1.7303635,-0.9349618
0.98,1.3655558,-12.96158,3.5717309,1.1353091,-1.655383,-0.89055747
0.982,1.1865147,-12.690553,3.6110551,1.0935817,-1.578494,-0.8479542
0.984,0.9769572,-12.39986,3.610865,1.0484273,-1.5009923,-0.8074028
0.986,0.7419652,-12.09045,3.5735655,0.99970996,-1.424704,-0.769202
0.988,0.48708344,-11.763565,3.5005956,0.9472098,-1.3519013,-0.7337144
0.99,0.21895456,-11.421042,3.3961792,0.8906294,-1.2851919,-0.70138323
0.992,-0.055560112,-11.064423,3.2652056,0.82964385,-1.2273473,-0.6726963
0.994,-0.32908154,-10.695199,3.1134589,0.76390105,-1.181075,-0.6481398
0.996,-0.5933013,-10.314933,2.9479356,0.6930418,-1.1488736,-0.6281961
0.998,-0.8402362,-9.925121,2.7763278,0.6166916,-1.1327873,-0.6132449
1,-1.0619092,-9.527061,2.6070929,0.53442764,-1.1341689,-0.6034983
1.002,-1.2500741,-9.122227,2.448989,0.44575816,-1.1538916,-0.59893256
1.004,-1.3967531,-8.711351,2.310647,0.3502519,-1.192063,-0.5993284
1.006,-1.4943717,-8.295015,2.200889,0.2474787,-1.2480499,-0.60423446
1.008,-1.5361271,-7.873413,2.1289577,0.1368129,-1.3207871,-0.6128825
1.01,-1.5159851,-7.446292,2.1041243,0.017652184,-1.4086173,-0.62429756
1.012,-1.4288138,-7.013051,2.1354337,-0.11061445,-1.5098509,-0.6373814
1.014,-1.270296,-6.5723596,2.2309008,-0.24863303,-1.622675,-0.65076125
1.016,-1.0375913,-6.122746,2.3978512,-0.3970523,-1.7450492,-0.6628837
1.018,-0.729388,-5.662618,2.643108,-0.5565114,-1.8750029,-0.67227036
1.02,-0.3463893,-5.1897287,2.9724007,-0.72759545,-2.0106971,-0.67758065
1.022,0.109004974,-4.701598,3.3902838,-0.91077435,-2.1501396,-0.6775925
1.024,0.6328974,-4.195259,3.8983834,-1.1063321,-2.2910883,-0.67136884
1.026,1.2192675,-3.667334,4.497153,-1.3143363,-2.431053,-0.65837824
1.028,1.860496,-3.1141152,5.1856003,-1.5345726,-2.567313,-0.6385317
1.03,2.5475173,-2.5320504,5.9602103,-1.7665455,-2.6967845,-0.61216813
1.032,3.269482,-1.917214,6.815876,-2.0094225,-2.8161256,-0.580099
1.034,4.015284,-1.2661178,7.7456636,-2.2620378,-2.9218693,-0.54354155
1.036,4.773412,-0.5755303,8.740181,-2.5229163,-3.0105538,-0.5039669
1.038,5.5318127,0.15730786,9.788484,-2.7903252,-3.078813,-0.462935
1.04,6.2786875,0.93445134,10.878924,-3.0623164,-3.1234837,-0.4220318
1.042,7.00271,1.7575045,11.998971,-3.3368254,-3.141747,-0.3827875
1.044,7.692958,2.6277218,13.1341095,-3.6117668,-3.1311924,-0.34656876
1.046,8.339767,3.5457282,14.268697,-3.8850858,-3.0898542,-0.31454065
1.048,8.934975,4.5113945,15.387201,-4.154857,-3.0162177,-0.2875541
1.05,9.472047,5.5234747,16.473867,-4.4193397,-2.9092484,-0.26612353
1.052,9.945887,6.5801687,17.51344,-4.677086,-2.7685366,-0.2504985
1.054,10.352759,7.678913,18.491364,-4.9269586,-2.5943315,-0.2407431
1.056,10.690749,8.816678,19.393654,-5.1680937,-2.3873312,-0.236752
1.058,10.960255,9.98926,20.207924,-5.4001336,-2.1491518,-0.23816276
1.06,11.163314,11.191901,20.923834,-5.623053,-1.8822466,-0.24447334
1.062,11.302935,12.419537,21.532307,-5.8369613,-1.5895482,-0.25513396
1.064,11.383575,13.666076,22.026426,-6.0423145,-1.2747424,-0.26954514
1.066,11.410187,14.925628,22.400627,-6.239746,-0.9418334,-0.28712374
1.068,11.388189,16.192339,22.651016,-6.4299984,-0.59531844,-0.30748412
1.07,11.324209,17.459908,22.776524,-6.613878,-0.24013686,-0.33033445
1.072,11.225354,18.721478,22.778606,-6.7922516,0.11879873,-0.35535967
1.074,11.098895,19.970455,22.661734,-6.9660244,0.47670352,-0.38234246
1.076,10.95142,21.200329,22.431885,-7.1361103,0.82885766,-0.41128576
1.078,10.789514,22.40503,22.095669,-7.303424,1.1708267,-0.44227815
1.08,10.620417,23.578602,21.662056,-7.4688687,1.4987452,-0.47542655
1.082,10.450137,24.71707,21.141092,-7.6333103,1.8094492,-0.5108826
1.084,10.275646,25.817814,20.539732,-7.797534,2.100475,-0.54881656
1.086,10.104949,26.874866,19.87178,-7.9622393,2.3700914,-0.58939886
1.088,9.942543,27.883362,19.149338,-8.127988,2.6173692,-0.63277817
1.09,9.788849,28.840378,18.383646,-8.295139,2.8421836,-0.6790831
1.092,9.646251,29.74436,17.585417,-8.463805,3.0449972,-0.7284131
1.094,9.516894,30.593884,16.76443,-8.6339245,3.226662,-0.78076744
1.096,9.401361,31.387993,15.931841,-8.8052025,3.388363,-0.8360491
1.098,9.298871,32.126774,15.098767,-8.977123,3.5314674,-0.89412975
1.1,9.208625,32.811016,14.274003,-9.148994,3.6573737,-0.95488477
1.102,9.129563,33.44135,13.464639,-9.319917,3.7674267,-1.0182498
1.104,9.059435,34.018658,12.677014,-9.488844,3.8629007,-1.0842185
1.106,8.995685,34.54421,11.916664,-9.654542,3.945052,-1.152806
1.108,8.935334,35.019516,11.18774,-9.815692,4.0150313,-1.224056
1.11,8.874638,35.44667,10.493637,-9.970975,4.0738626,-1.2980123
1.112,8.809922,35.827484,9.836483,-10.11908,4.122471,-1.3747246
1.114,8.737563,36.163826,9.217205,-10.25885,4.1616735,-1.4541352
1.116,8.654665,36.45751,8.635793,-10.3893385,4.192147,-1.5360997
1.118,8.557742,36.71039,8.091503,-10.509869,4.214427,-1.620317
1.12,8.443621,36.924248,7.582672,-10.620046,4.2289686,-1.7063129
1.122,8.309283,37.10121,7.107417,-10.719772,4.236201,-1.7935271
1.124,8.152303,37.24334,6.6627693,-10.809198,4.236595,-1.8813581
1.126,7.971097,37.35269,6.245516,-10.888675,4.230741,-1.9691923
1.128,7.764779,37.431007,5.8527155,-10.958697,4.2194614,-2.0564468
1.13,7.5330133,37.48028,5.4810314,-11.019835,4.20389,-2.142512
1.132,7.276168,37.50244,5.126522,-11.072648,4.1854806,-2.2268424
1.134,6.9952183,37.49936,4.7854996,-11.117653,4.1659756,-2.3089502
1.136,6.691716,37.473305,4.4548073,-11.1553,4.147403,-2.388443
1.138,6.367756,37.426636,4.131317,-11.186001,4.131912,-2.4649768
1.14,6.0261326,37.362137,3.8116722,-11.210153,4.121628,-2.5382698
1.142,5.670558,37.28229,3.4926224,-11.2281685,4.1185145,-2.6080933
1.144,5.305003,37.189713,3.1710186,-11.240501,4.1241255,-2.674282
1.146,4.9335866,37.08715,2.8441563,-11.247648,4.1396723,-2.7367878
1.148,4.5604405,36.977566,2.5093327,-11.250047,4.1659975,-2.7957306
1.15,4.1897964,36.86405,2.163557,-11.248077,4.2034616,-2.851343
1.152,3.825739,36.74946,1.8036661,-11.242095,4.252071,-2.9039657
1.154,3.4720817,36.635967,1.4274254,-11.2323475,4.3115764,-2.9540482
1.156,3.1325927,36.52545,1.0329647,-11.218977,4.3815355,-3.0021586
1.158,2.809802,36.420555,0.6186309,-11.202021,4.461424,-3.0489063
1.16,2.5066056,36.322857,0.18281269,-11.181403,4.5507436,-3.094863
1.162,2.224636,36.233463,-0.2761016,-11.156968,4.6491003,-3.1405518
1.164,1.9648633,36.15338,-0.7589059,-11.128433,4.7562346,-3.186436
1.166,1.7274451,36.083588,-1.2661538,-11.095419,4.871997,-3.2329156
1.168,1.5112672,36.02461,-1.7987771,-11.057476,4.9962506,-3.2803404
1.17,1.3148892,35.97642,-2.3573458,-11.014058,5.1288404,-3.329072
1.172,1.1366978,35.937946,-2.9415085,-10.964513,5.2694874,-3.3795478
1.174,0.97443044,35.90838,-3.5503855,-10.908107,5.41771,-3.4323218
1.176,0.8253873,35.886555,-4.182468,-10.8440075,5.5727835,-3.488069
1.178,0.68697965,35.870987,-4.836267,-10.771371,5.733715,-3.5475323
1.18,0.55576646,35.859837,-5.510124,-10.689356,5.899218,-3.6114957
1.182,0.4285437,35.851265,-6.202636,-10.597203,6.0677147,-3.6807165
1.184,0.30275154,35.843117,-6.912239,-10.494273,6.237384,-3.7558699
1.186,0.1761713,35.83294,-7.6368885,-10.38009,6.4062405,-3.8374465
1.188,0.047466755,35.817745,-8.374082,-10.2543745,6.5722485,-3.9257452
1.19,-0.084439754,35.794388,-9.121114,-10.117083,6.7333093,-4.020912
1.192,-0.21988535,35.75958,-9.875303,-9.968388,6.887371,-4.122858
1.194,-0.35842323,35.709835,-10.634188,-9.80862,7.03245,-4.2312307
1.196,-0.4993863,35.642036,-11.395872,-9.638327,7.1666274,-4.34554
1.198,-0.64123774,35.55287,-12.157909,-9.458207,7.2881346,-4.465252
1.2,-0.7816458,35.439217,-12.917578,-9.269106,7.395352,-4.589717
1.202,-0.91829014,35.29796,-13.672243,-9.071968,7.4868317,-4.7182407
1.204,-1.0487823,35.126194,-14.41839,-8.867804,7.5613327,-4.850083
1.206,-1.170516,34.921215,-15.153118,-8.657637,7.617896,-4.9844866
1.208,-1.2813244,34.681053,-15.874284,-8.442504,7.6558747,-5.120699
1.21,-1.3789873,34.40389,-16.58004,-8.2234125,7.6749697,-5.257955
1.212,-1.4615402,34.088615,-17.268814,-8.001334,7.6752176,-5.395513
1.214,-1.5273666,33.73442,-17.938766,-7.7771807,7.6569123,-5.532649
1.216,-1.5752506,33.34115,-18.588043,-7.5518184,7.6207047,-5.6686587
1.218,-1.6040945,32.909325,-19.215149,-7.3260617,7.5675025,-5.802799
1.22,-1.6132832,32.43973,-19.819382,-7.100662,7.4984336,-5.9343
1.222,-1.6034365,31.934166,-20.399317,-6.8763323,7.4147887,-6.0623484
1.224,-1.5751057,31.39452,-20.954155,-6.653721,7.3179464,-6.1860332
1.226,-1.5297003,30.82344,-21.483572,-6.433461,7.209359,-6.3044004
1.228,-1.4684763,30.22403,-21.987919,-6.216114,7.0904517,-6.4164863
1.23,-1.3927555,29.59955,-22.467262,-6.0021477,6.9625926,-6.521345
1.232,-1.3037643,28.953197,-22.921345,-5.7919145,6.8270082,-6.6181593
1.234,-1.2026596,28.288202,-23.349224,-5.585667,6.684674,-6.7062583
1.236,-1.0909882,27.60819,-23.75047,-5.3835564,6.5363636,-6.785136
1.238,-0.96992683,26.917038,-24.125206,-5.185655,6.3825464,-6.8545103
1.24,-0.8405094,26.218098,-24.472786,-4.991973,6.2233577,-6.9143686
1.242,-0.7031956,25.514736,-24.79229,-4.8024607,6.0586147,-6.964861
1.244,-0.55874634,24.81008,-25.083097,-4.6170015,5.887926,-7.0062923
1.246,-0.40727234,24.107021,-25.344984,-4.4354496,5.710745,-7.039146
1.248,-0.24914742,23.408104,-25.577902,-4.2576747,5.526409,-7.063992
1.25,-0.08472252,22.715446,-25.781319,-4.0835223,5.3342333,-7.081387
1.252,0.08561134,22.031065,-25.95474,-3.9128163,5.1335783,-7.0918264
1.254,0.26148796,21.356636,-26.097664,-3.7453527,4.9239535,-7.095786
1.256,0.44269753,20.693623,-26.210003,-3.5809093,4.705019,-7.0936747
1.258,0.6287756,20.04305,-26.291536,-3.4192524,4.476677,-7.0858936
1.26,0.81947136,19.40591,-26.341944,-3.2601194,4.239062,-7.072783
1.262,1.0141926,18.783037,-26.3612,-3.1032412,3.9926066,-7.0546384
1.264,1.2123098,18.175598,-26.350296,-2.9483325,3.7380028,-7.0316973
1.266,1.4124136,17.584711,-26.311028,-2.7951598,3.476209,-7.004153
1.268,1.6134729,17.010519,-26.245543,-2.6435294,3.2083127,-6.9721465
1.27,1.8132029,16.454378,-26.156221,-2.4933004,2.9355521,-6.935735
1.272,2.0097694,15.917339,-26.045498,-2.3444057,2.6592093,-6.8949265
1.274,2.2013931,15.400177,-25.916306,-2.196875,2.3805442,-6.8496866
1.276,2.3863115,14.903407,-25.771263,-2.050797,2.1007931,-6.7999625
1.278,2.5629063,14.427971,-25.613476,-1.9063039,1.8211176,-6.745719
1.28,2.729352,13.97485,-25.446558,-1.7635348,1.5425643,-6.686918
1.282,2.8839855,13.544961,-25.273928,-1.6226368,1.2661095,-6.623563
1.284,3.0254354,13.138857,-25.099113,-1.4837455,0.9926198,-6.5557003
1.286,3.1528463,12.756568,-24.925539,-1.3469586,0.72288454,-6.483429
1.288,3.2655396,12.397903,-24.756308,-1.2123399,0.45760942,-6.406894
1.29,3.3634038,12.063175,-24.594482,-1.0799556,0.19739199,-6.3263044
1.292,3.4466872,11.752287,-24.442732,-0.9498589,-0.05729562,-6.2418814
1.294,3.51608,11.465061,-24.303457,-0.82214916,-0.30613336,-6.1538916
1.296,3.5727715,11.201096,-24.17812,-0.6970004,-0.54895234,-6.0626583
1.298,3.6183958,10.959984,-24.067661,-0.57467055,-0.78575325,-5.968536
1.3,3.655221,10.741137,-23.972769,-0.45546436,-1.016655,-5.871928
1.302,3.6859121,10.543615,-23.893688,-0.33971056,-1.2418956,-5.773322
1.304,3.7135043,10.366433,-23.830265,-0.22775207,-1.4618093,-5.67322
1.306,3.741198,10.208357,-23.781805,-0.119931445,-1.6767385,-5.572158
1.308,3.7721605,10.068323,-23.747238,-0.016540855,-1.8870267,-5.4707174
1.31,3.809132,9.94511,-23.724913,0.082214594,-2.0929985,-5.3695374
1.312,3.8553166,9.837394,-23.712643,0.17620987,-2.2949548,-5.2692757
1.314,3.9133458,9.7441435,-23.708569,0.2654053,-2.4931743,-5.1705995
1.316,3.9853244,9.66451,-23.710217,0.3497967,-2.6879613,-5.074158
1.318,4.073065,9.597872,-23.714903,0.4293934,-2.879635,-4.9805813
1.32,4.177601,9.543797,-23.719982,0.5042189,-3.0685658,-4.890444
1.322,4.298916,9.502111,-23.722746,0.5742863,-3.2551198,-4.8042192
1.324,4.4370418,9.472749,-23.72117,0.63957137,-3.4397795,-4.7223334
1.326,4.590973,9.455954,-23.713217,0.7000308,-3.6230562,-4.64515
1.328,4.7594247,9.452002,-23.6966,0.7556245,-3.8054852,-4.572978
1.33,4.940743,9.461258,-23.669052,0.80632067,-3.987648,-4.5060735
1.332,5.132868,9.484141,-23.629116,0.8521049,-4.170129,-4.444669
1.334,5.332902,9.521472,-23.575542,0.8929932,-4.3534436,-4.3889995
1.336,5.5376663,9.5739975,-23.507046,0.9290842,-4.5380383,-4.3393188
1.338,5.7438745,9.642136,-23.422626,0.96051717,-4.724205,-4.2958865
1.34,5.948305,9.726649,-23.321682,0.98748004,-4.9120245,-4.2589426
1.342,6.1475973,9.828199,-23.204208,1.0101798,-5.101362,-4.2287273
1.344,6.3385115,9.94735,-23.070473,1.0288491,-5.2918234,-4.2054367
1.346,6.518241,10.084005,-22.920712,1.0437248,-5.4827614,-4.1892076
1.348,6.6839643,10.237947,-22.755169,1.0550549,-5.673299,-4.180121
1.35,6.8332095,10.408812,-22.574316,1.0630854,-5.862364,-4.1782413
1.352,6.9636154,10.595963,-22.378275,1.0680873,-6.048707,-4.183595
1.354,7.073513,10.79859,-22.167397,1.0703479,-6.2309365,-4.1961846
1.356,7.1615343,11.015379,-21.94215,1.0701846,-6.4075365,-4.21593
1.358,7.2268558,11.244751,-21.702639,1.0679916,-6.576872,-4.242715
1.36,7.268729,11.484978,-21.449171,1.0641936,-6.737255,-4.27638
1.362,7.2869573,11.734085,-21.181839,1.059235,-6.8869786,-4.3166537
1.364,7.2815633,11.989874,-20.901186,1.053538,-7.0243187,-4.3631454
1.366,7.2527685,12.250104,-20.607862,1.047487,-7.1476126,-4.415371
1.368,7.2013426,12.512289,-20.302877,1.0413723,-7.255311,-4.4727383
1.37,7.1279984,12.773926,-19.986778,1.0354264,-7.3460326,-4.534594
1.372,7.0337167,13.03253,-19.660297,1.0297773,-7.4185953,-4.6002936
1.374,6.9196334,13.285913,-19.32405,1.0244197,-7.47211,-4.669206
1.376,6.7873,13.531771,-18.978504,1.0192826,-7.5059385,-4.7407494
1.378,6.6384706,13.76818,-18.624687,1.0142586,-7.519656,-4.814399
1.38,6.474509,13.99329,-18.263132,1.0092342,-7.513032,-4.889707
1.382,6.2979507,14.20514,-17.894539,1.0041275,-7.485965,-4.966306
1.384,6.1107035,14.402409,-17.520395,0.9988897,-7.4384274,-5.0439286
1.386,5.914585,14.583778,-17.14247,0.9935394,-7.3704243,-5.122377
1.388,5.7115846,14.748516,-16.762033,0.98814374,-7.2819676,-5.2015414
1.39,5.5042987,14.895987,-16.380356,0.9827927,-7.173085,-5.281369
1.392,5.2954407,15.0261345,-15.998646,0.9776013,-7.043824,-5.3619
1.394,5.0880804,15.139294,-15.618116,0.9726607,-6.894314,-5.4432797
1.396,4.885031,15.236289,-15.240017,0.96802866,-6.72474,-5.5257874
1.398,4.6893606,15.31809,-14.8657875,0.96368825,-6.535392,-5.609833
1.4,4.504297,15.385893,-14.496597,0.95954037,-6.326623,-5.695944
1.402,4.3333,15.441062,-14.133631,0.9554548,-6.09878,-5.784719
1.404,4.179695,15.485338,-13.77796,0.9512694,-5.8522186,-5.8768167
1.406,4.0470076,15.5211525,-13.431031,0.94681203,-5.587261,-5.972988
1.408,3.9385953,15.550847,-13.09456,0.94192797,-5.3041725,-6.0739865
1.41,3.8577406,15.577183,-12.769773,0.9365223,-5.0031195,-6.180587
1.412,3.8076591,15.603333,-12.457602,0.9305453,-4.684252,-6.293497
1.414,3.791656,15.632509,-12.159283,0.924007,-4.347669,-6.413345
1.416,3.8126502,15.667719,-11.876056,0.9169579,-3.9934897,-6.5406713
1.418,3.8735902,15.712135,-11.60873,0.90950596,-3.6218994,-6.675898
1.42,3.9773324,15.769089,-11.358402,0.9017879,-3.2332273,-6.8193045
1.422,4.126496,15.841944,-11.126074,0.89394116,-2.8279636,-6.9710245
1.424,4.3234987,15.933727,-10.912869,0.88608897,-2.406775,-7.1310306
1.426,4.5704865,16.04732,-10.719609,0.8783511,-1.9705272,-7.299125
1.428,4.8690658,16.185549,-10.5468445,0.87084943,-1.5202428,-7.4750066
1.43,5.22089,16.351051,-10.395667,0.86369634,-1.0571436,-7.6582704
1.432,5.6268787,16.546144,-10.267885,0.8570227,-0.58260536,-7.848419
1.434,6.087619,16.773256,-10.164164,0.850968,-0.09809446,-8.044873
1.436,6.6038275,17.034245,-10.085346,0.845713,0.39488387,-8.246946
1.438,7.1754885,17.330696,-10.032649,0.8415057,0.89480805,-8.453849
1.44,7.8021803,17.663782,-10.006704,0.8386377,1.4001517,-8.664672
1.442,8.483753,18.034477,-10.007638,0.83744514,1.9094758,-8.878386
1.444,9.219539,18.443592,-10.035753,0.83829665,2.4214418,-9.093939
1.446,10.008848,18.89152,-10.09171,0.84159493,2.9348066,-9.31027
1.448,10.851005,19.377998,-10.176229,0.847754,3.4484887,-9.526274
1.45,11.744369,19.902538,-10.29004,0.85717225,3.9615483,-9.740833
1.452,12.687149,20.464497,-10.433614,0.8702061,4.473156,-9.952899
1.454,13.677103,21.063366,-10.607091,0.88719153,4.9825873,-10.161486
1.456,14.711513,21.698694,-10.809999,0.90837526,5.4892354,-10.365662
1.458,15.787357,22.369354,-11.041092,0.93397856,5.9926558,-10.564505
1.46,16.901041,23.073893,-11.299215,0.9641969,6.492572,-10.757093
1.462,18.048145,23.810307,-11.5829,0.9992051,6.988811,-10.942501
1.464,19.223541,24.576542,-11.889957,1.0391574,7.481353,-11.11969
1.466,20.422293,25.370035,-12.217615,1.0842371,7.9705324,-11.287565
1.468,21.638702,26.188303,-12.561908,1.134686,8.456863,-11.444939
1.47,22.86664,27.028631,-12.919085,1.1907969,8.941043,-11.590574
1.472,24.100498,27.888012,-13.28644,1.2529063,9.42391,-11.723096
1.474,25.334438,28.762932,-13.659826,1.3213949,9.906405,-11.841078
1.476,26.56295,29.649574,-14.033878,1.3966513,10.389391,-11.943098
1.478,27.780619,30.543755,-14.403668,1.4790297,10.873608,-12.027769
1.48,28.982471,31.440939,-14.765216,1.5688572,11.359591,-12.093712
1.482,30.164326,32.336227,-15.1140175,1.6663561,11.847711,-12.139605
1.484,31.322557,33.22422,-15.445891,1.7716613,12.338171,-12.164202
1.486,32.45441,34.09957,-15.756999,1.8847919,12.831072,-12.166372
1.488,33.558117,34.956707,-16.043766,2.0056767,13.326455,-12.145121
1.49,34.632935,35.789696,-16.303638,2.1341357,13.824299,-12.099599
1.492,35.678097,36.592964,-16.5343,2.269847,14.324581,-12.029121
1.494,36.69395,37.36035,-16.733166,2.4123821,14.827237,-11.933208
1.496,37.683,38.086533,-16.898792,2.5611453,15.331928,-11.81155
1.498,38.64776,38.765827,-17.030249,2.715333,15.838021,-11.664056
1.5,39.59021,39.393456,-17.12799,2.8739996,16.344608,-11.490932
1.502,40.514687,39.964806,-17.19344,3.036065,16.850372,-11.292737
1.504,41.426086,40.475346,-17.228632,3.2002082,17.353416,-11.070414
1.506,42.329323,40.92131,-17.235424,3.364932,17.851444,-10.825203
1.508,43.22911,41.300247,-17.216772,3.528542,18.342001,-10.558632
1.51,44.131508,41.609573,-17.176432,3.6892,18.822489,-10.272482
1.512,45.0426,41.847893,-17.117275,3.8448896,19.290241,-9.96871
1.514,45.966576,42.01502,-17.043076,3.9935627,19.742798,-9.6493225
1.516,46.908913,42.110725,-16.959187,4.133135,20.17797,-9.316333
1.518,47.87531,42.13601,-16.871029,4.2615547,20.593876,-8.971711
1.52,48.870895,42.0924,-16.783325,4.3768635,20.98884,-8.617355
1.522,49.900185,41.982334,-16.700415,4.47724,21.361486,-8.255015
1.524,50.96761,41.808594,-16.627121,4.5609922,21.710772,-7.8863544
1.526,52.07749,41.57499,-16.568396,4.626586,22.035679,-7.5128574
1.528,53.233994,41.285656,-16.529297,4.6726694,22.335243,-7.1359897
1.53,54.44085,40.94511,-16.514355,4.6980815,22.608654,-6.7570534
1.532,55.701576,40.557877,-16.52782,4.7017593,22.855127,-6.377309
1.534,57.01965,40.128716,-16.572468,4.6826935,23.073774,-5.9979134
1.536,58.39856,39.662388,-16.650024,4.6399035,23.26384,-5.619869
1.538,59.841457,39.16394,-16.761898,4.572448,23.424671,-5.24405
1.54,61.350975,38.63802,-16.907902,4.4793386,23.555788,-4.8712153
1.542,62.93229,38.08819,-17.087118,4.35945,23.656914,-4.5017557
1.544,64.5896,37.518787,-17.299309,4.2116776,23.728165,-4.1358004
1.546,66.32651,36.935516,-17.543419,4.034958,23.770054,-3.77345
1.548,68.14806,36.34474,-17.816624,3.8281455,23.783382,-3.4145432
1.55,70.05975,35.75128,-18.114172,3.5900645,23.76938,-3.058661
1.552,72.06668,35.160988,-18.433228,3.3196177,23.729654,-2.7051363
1.554,74.17553,34.580803,-18.770987,3.0158372,23.666204,-2.3531346
1.556,76.39497,34.017918,-19.12305,2.6778893,23.581482,-2.001606
1.558,78.72888,33.482887,-19.485909,2.3052068,23.478428,-1.6492462
1.56,81.18237,32.98822,-19.85722,1.8974304,23.360357,-1.2945361
1.562,83.756256,32.55275,-20.233902,1.4544482,23.230846,-0.9357557
1.564,86.44968,32.19907,-20.60991,0.9764364,23.09375,-0.5709677
1.566,89.26433,31.94441,-20.968079,0.46384764,22.953125,-0.19799852
1.568,92.19931,31.797142,-21.30375,-0.08259344,22.813087,0.18550348
1.57,95.25721,31.774061,-21.615665,-0.6618805,22.677748,0.581934
1.572,98.43919,31.908932,-21.901863,-1.2727356,22.551003,0.9937258
1.574,101.739624,32.245117,-22.158405,-1.913573,22.436487,1.4233515
1.576,105.1569,32.811836,-22.3796,-2.5825272,22.337387,1.8732814
1.578,108.6822,33.639347,-22.559093,-3.2775607,22.256,2.3457384
1.58,112.30019,34.784904,-22.708237,-3.996655,22.193502,2.842807
1.582,115.99344,36.29864,-22.824392,-4.737573,22.150381,3.36672
1.584,119.72916,38.197334,-22.899185,-5.49774,22.126112,3.9198291
1.586,123.53823,40.49323,-22.906258,-6.274522,22.118723,4.504371
1.588,127.438156,43.148716,-22.872896,-7.0652685,22.12439,5.1221285
1.59,131.4309,46.21424,-22.822685,-7.8673973,22.137358,5.774597
1.592,135.46603,49.767,-22.764923,-8.678852,22.149483,6.4630947
1.594,139.51979,53.867325,-22.732067,-9.498239,22.14992,7.1885314
1.596,143.56847,58.482826,-22.664734,-10.325233,22.125124,7.951045
1.598,147.62177,63.66947,-22.540682,-11.160418,22.058817,8.750864
1.6,151.6812,69.42598,-22.312271,-12.004538,21.932178,9.589807
1.602,155.7437,75.70389,-22.020765,-12.859144,21.723541,10.470076
1.604,159.83102,82.50058,-21.704004,-13.726765,21.408993,11.3925705
1.606,163.93327,89.67456,-21.28801,-14.610851,20.963634,12.358511
1.608,168.0793,97.174736,-20.731113,-15.514582,20.364922,13.371544
1.61,172.31917,104.98473,-19.945206,-16.439985,19.594425,14.437237
1.612,176.6781,112.980225,-18.947504,-17.39125,18.633717,15.562689
1.614,181.20108,121.0789,-17.741282,-18.371279,17.468227,16.75875
1.616,185.8537,129.21748,-16.331118,-19.383392,16.089458,18.046211
1.618,190.64911,137.2781,-14.663757,-20.433922,14.490671,19.463589
1.62,195.59366,145.1435,-12.687712,-21.519226,12.69696,21.030228
1.622,200.69731,152.70349,-10.367863,-22.637108,10.741251,22.778103
1.624,205.96036,159.77277,-7.7098866,-23.797548,8.653828,24.732271
1.626,211.37796,166.21758,-4.6876125,-25.02301,6.45042,26.896605
1.628,216.92426,171.93149,-1.2575617,-26.31709,4.15555,29.268982
1.63,222.55548,176.8266,2.627483,-27.679703,1.822896,31.847813
1.632,228.22597,180.83725,6.992486,-29.119911,-0.49485683,34.6117
1.634,233.83736,183.93137,11.846554,-30.636734,-2.7461987,37.453785
1.636,239.28098,186.0915,17.187092,-32.23831,-4.9189034,40.297993
1.638,244.44876,187.30775,22.997211,-33.92484,-7.0028353,43.047527
1.64,249.22478,187.58546,29.259838,-35.678005,-8.998879,45.57317
1.642,253.47234,186.96295,35.930763,-37.458416,-10.929302,47.728813
1.644,257.05136,185.50443,42.941677,-39.206417,-12.830077,49.36242
1.646,259.8343,183.26917,50.21261,-40.8431,-14.750417,50.32628
1.648,261.7009,180.31233,57.65328,-42.269455,-16.746788,50.49448
1.65,262.5454,176.7203,65.14537,-43.369747,-18.856514,49.78589
1.652,262.2832,172.60065,72.55377,-44.019924,-21.085323,48.176212
1.654,260.8692,168.06158,79.73434,-44.10018,-23.406006,45.700275
1.656,258.28906,163.21162,86.53951,-43.50477,-25.755203,42.4525
1.658,254.55305,158.16592,92.818985,-42.153774,-28.033106,38.58127
1.66,249.70502,153.03854,98.42174,-40.003242,-30.106054,34.274033
1.662,243.81995,147.93576,103.21203,-37.05459,-31.824368,29.740183
1.664,237.00069,142.94905,107.081696,-33.35911,-33.04616,25.192055
1.666,229.36975,138.15634,109.94769,-29.015858,-33.651424,20.831186
1.668,221.07043,133.62416,111.743965,-24.170393,-33.563084,16.837538
1.67,212.25952,129.40338,112.43562,-18.999527,-32.76174,13.357421
1.672,203.10214,125.52848,112.01914,-13.693606,-31.283165,10.496591
1.674,193.76445,122.020966,110.51597,-8.453524,-29.234314,8.34342
1.676,184.40398,118.89549,107.96978,-3.462335,-26.752735,6.92901
1.678,175.1681,116.161674,104.46785,1.1335206,-23.989662,6.2473288
1.68,166.18689,113.806946,100.122665,5.22605,-21.09711,6.251219
1.682,157.57066,111.79755,95.06322,8.729315,-18.2386,6.829636
1.684,149.41443,110.089096,89.42972,11.608382,-15.578077,7.8151817
1.686,141.78333,108.64844,83.36954,13.883998,-13.233311,9.016967
1.688,134.72519,107.43558,77.029945,15.606401,-11.278223,10.268909
1.69,128.26814,106.384766,70.56935,16.864029,-9.72394,11.339563
1.692,122.41599,105.44387,64.11862,17.753819,-8.567833,12.038904
1.694,117.163055,104.58977,57.790543,18.370663,-7.778926,12.2451
1.696,112.43111,103.79213,51.66915,18.805439,-7.293018,11.902397
1.698,108.161736,103.04996,45.86917,19.143196,-7.028186,11.024323
1.7,104.31051,102.27003,40.466324,19.457794,-6.889552,9.691031
1.702,100.868484,101.35946,35.494614,19.804691,-6.778978,8.03204
1.704,97.783844,100.26735,30.985271,20.219471,-6.6160593,6.2005467
1.706,95.00162,99.03016,26.872387,20.719482,-6.339308,4.35482
1.708,92.44127,97.593735,23.134903,21.307209,-5.9025126,2.6422057
1.71,90.045715,95.969696,19.728756,21.971264,-5.279683,1.1813378
1.712,87.771355,94.20079,16.684864,22.689713,-4.469591,0.0497123
1.714,85.56301,92.27438,14.000093,23.433529,-3.4966586,-0.7198322
1.716,83.404755,90.289566,11.566029,24.171112,-2.4001606,-1.1352713
1.718,81.25157,88.22659,9.331795,24.871904,-1.222913,-1.234636
1.72,79.0577,86.0428,7.224244,25.508966,-0.009279251,-1.0778131
1.722,76.81377,83.79871,5.2807646,26.059652,1.1986115,-0.7369504
1.724,74.49878,81.49669,3.5067387,26.503613,2.3656676,-0.2842512
1.726,72.16135,79.125885,1.899754,26.822748,3.4627054,0.21657872
1.728,69.78622,76.728455,0.40744734,27.005568,4.4678626,0.7152361
1.73,67.360695,74.33627,-1.0023775,27.047012,5.367918,1.1741025
1.732,64.86608,71.96973,-2.3374724,26.945604,6.155656,1.5678385
1.734,62.291332,69.70701,-3.5712762,26.703392,6.8299804,1.8859569
1.736,59.62474,67.55772,-4.716517,26.325562,7.3949747,2.1308994
1.738,56.867867,65.51163,-5.79983,25.819954,7.858347,2.3123598
1.74,54.02897,63.55662,-6.845442,25.196878,8.230039,2.4432755
1.742,51.10849,61.67961,-7.855509,24.468721,8.520661,2.537573
1.744,48.14309,59.862545,-8.824781,23.649666,8.741031,2.6084454
1.746,45.15847,58.101093,-9.749426,22.755432,8.901858,2.6668596
1.748,42.16681,56.40674,-10.627167,21.802073,9.012398,2.7200034
1.75,39.182728,54.793674,-11.468951,20.80481,9.079205,2.7708201
1.752,36.234974,53.262604,-12.273174,19.777359,9.107398,2.8192303
1.754,33.35065,51.81035,-13.033844,18.732347,9.101486,2.862963
1.756,30.54576,50.453274,-13.752262,17.681284,9.064589,2.8983674
1.758,27.83843,49.213394,-14.433533,16.634117,8.998627,2.921842
1.76,25.244812,48.085007,-15.070482,15.599266,8.90539,2.9299142
1.762,22.774956,47.050327,-15.655596,14.583738,8.786822,2.9190311
1.764,20.425232,46.097496,-16.185778,13.5933695,8.645384,2.8857844
1.766,18.194216,45.21507,-16.663275,12.633141,8.484297,2.827216
1.768,16.085648,44.38587,-17.089836,11.707429,8.3077965,2.7406254
1.77,14.099295,43.59558,-17.467035,10.820205,8.12115,2.623442
1.772,12.234099,42.832634,-17.801579,9.974909,7.9304724,2.473514
1.774,10.487805,42.09275,-18.111286,9.174423,7.742585,2.2894802
1.776,8.859405,41.37492,-18.415596,8.420908,7.564703,2.0711765
1.778,7.3483243,40.675804,-18.723188,7.715753,7.4041395,1.8200233
1.78,5.949703,39.994698,-19.044432,7.0595074,7.267852,1.5390422
1.782,4.659655,39.330624,-19.391499,6.4516397,7.161991,1.2328997
1.784,3.4715579,38.68321,-19.772762,5.890522,7.0915956,0.9078946
1.786,2.376618,38.05439,-20.196568,5.3734317,7.0603056,0.5716051
1.788,1.3665888,37.4453,-20.671501,4.896602,7.069967,0.23241544
1.79,0.43080926,36.858097,-21.204845,4.455347,7.120344,-0.10101879
1.792,-0.4394245,36.293724,-21.80353,4.044202,7.2089744,-0.4202559
1.794,-1.2541728,35.754723,-22.474392,3.65697,7.3310614,-0.71748316
1.796,-2.0228386,35.244057,-23.222965,3.286911,7.4797187,-0.9857547
1.798,-2.7544394,34.76477,-24.050865,2.927013,7.6463323,-1.2191961
1.8,-3.4571357,34.320305,-24.95648,2.5701814,7.820673,-1.4132137
1.802,-4.138557,33.9139,-25.93436,2.2094316,7.991299,-1.564496
1.804,-4.805313,33.54809,-26.976461,1.8380704,8.146279,-1.6707561
1.806,-5.462516,33.22508,-28.07212,1.4498245,8.273604,-1.7305617
1.808,-6.1134963,32.94589,-29.208305,1.0390561,8.361465,-1.7432694
1.81,-6.7600574,32.71013,-30.370152,0.60096085,8.398807,-1.708889
1.812,-7.402193,32.515766,-31.542248,0.13171406,8.375677,-1.6279804
1.814,-8.038092,32.359303,-32.707993,-0.37137097,8.283514,-1.5015965
1.816,-8.6656475,32.235847,-33.84996,-0.9096994,8.1151905,-1.3314364
1.818,-9.281093,32.138752,-34.95008,-1.4833894,7.865232,-1.1198704
1.82,-9.880373,32.060253,-35.989876,-2.0911546,7.529957,-0.8700465
1.822,-10.458172,31.991898,-36.951195,-2.7302294,7.1075478,-0.58622056
1.824,-11.008297,31.924562,-37.816143,-3.3964832,6.597968,-0.27383113
1.826,-11.524448,31.849346,-38.5679,-4.084441,6.0028915,0.060626984
1.828,-12.000591,31.758278,-39.190464,-4.787366,5.3257146,0.4097464
1.83,-12.431023,31.644302,-39.669052,-5.497427,4.571491,0.7653525
1.832,-12.810442,31.501545,-39.99073,-6.2060027,3.7467022,1.1187913
1.834,-13.134481,31.325722,-40.144577,-6.9041348,2.8589826,1.4614325
1.836,-13.40003,31.113985,-40.12249,-7.582803,1.9171076,1.7850862
1.838,-13.605612,30.865007,-39.91898,-8.233221,0.93084526,2.0822806
1.84,-13.751433,30.57894,-39.530823,-8.847197,-0.08933383,2.3466022
1.842,-13.839113,30.257074,-38.956875,-9.417414,-1.1323963,2.5729713
1.844,-13.871687,29.901869,-38.198616,-9.937666,-2.1868844,2.7578676
1.846,-13.853507,29.516895,-37.260475,-10.40307,-3.2410762,2.8995926
1.848,-13.789751,29.106112,-36.149544,-10.810125,-4.2830763,2.9981432
1.85,-13.686413,28.673939,-34.87465,-11.156803,-5.301063,3.0549645
1.852,-13.550064,28.225176,-33.446236,-11.442572,-6.2834167,3.0726838
1.854,-13.388406,27.764668,-31.87664,-11.668188,-7.218689,3.0547328
1.856,-13.208975,27.29743,-30.180187,-11.835442,-8.09578,3.0047898
1.858,-13.019937,26.828064,-28.373142,-11.946878,-8.904245,2.9263706
1.86,-12.828977,26.360096,-26.47258,-12.005545,-9.634493,2.8224971
1.862,-12.642763,25.896313,-24.496277,-12.014801,-10.277996,2.6956475
1.864,-12.467075,25.438929,-22.463184,-11.978153,-10.827586,2.5477908
1.866,-12.306875,24.989857,-20.392544,-11.899109,-11.27762,2.3805003
1.868,-12.165935,24.550213,-18.303688,-11.781092,-11.624163,2.195214
1.87,-12.046158,24.119753,-16.215363,-11.627325,-11.864893,1.9935043
1.872,-11.948103,23.697432,-14.145805,-11.440695,-11.99919,1.7771554
1.874,-11.870421,23.281586,-12.112125,-11.223825,-12.028028,1.5482461
1.876,-11.812141,22.870651,-10.130542,-10.979116,-11.954025,1.309355
1.878,-11.771189,22.463478,-8.216728,-10.708698,-11.781061,1.0634277
1.88,-11.7446575,22.058903,-6.38466,-10.414493,-11.514108,0.8133991
1.882,-11.729457,21.65644,-4.6467447,-10.098364,-11.159197,0.56200004
1.884,-11.722118,21.255892,-3.0133324,-9.762169,-10.723267,0.3116548
1.886,-11.718851,20.85714,-1.4928155,-9.40782,-10.213889,0.064407825
1.888,-11.715462,20.460474,-0.092065334,-9.0373535,-9.639177,-0.17816973
1.89,-11.70794,20.066343,1.1834915,-8.653012,-9.007757,-0.41496038
1.892,-11.693491,19.67603,2.3302805,-8.257372,-8.328648,-0.6451726
1.894,-11.669073,19.290869,3.3464193,-7.853359,-7.611111,-0.8682033
1.896,-11.630888,18.911707,4.2320604,-7.444215,-6.864469,-1.0836258
1.898,-11.575979,18.539816,4.98878,-7.033465,-6.097974,-1.2911463
1.9,-11.501402,18.175844,5.619671,-6.624822,-5.320672,-1.4905672
1.902,-11.404663,17.819893,6.1299086,-6.222071,-4.5413065,-1.681714
1.904,-11.283454,17.47225,6.526267,-5.8290024,-3.7681928,-1.864427
1.906,-11.136446,17.133572,6.8162575,-5.449275,-3.0090702,-2.0385256
1.908,-10.962162,16.803844,7.0075617,-5.0863357,-2.2710104,-2.2038307
1.91,-10.760237,16.483076,7.1078596,-4.7433186,-1.5602976,-2.3602083
1.912,-10.53017,16.170538,7.125162,-4.4229097,-0.88232386,-2.5076022
1.914,-10.271324,15.865666,7.0676994,-4.1271935,-0.24147832,-2.6460817
1.916,-9.983721,15.567223,6.944599,-3.8575811,0.35887092,-2.7759147
1.918,-9.667829,15.274175,6.766126,-3.6147478,0.9163295,-2.89753
1.92,-9.324553,14.985489,6.542527,-3.3986797,1.4294257,-3.011495
1.922,-8.954736,14.700339,6.283995,-3.2087312,1.897552,-3.1184914
1.924,-8.559718,14.418152,5.9997196,-3.0437126,2.320869,-3.2192914
1.926,-8.140915,14.1382475,5.6978116,-2.902009,2.7002268,-3.3147075
1.928,-7.7002134,13.860021,5.3854628,-2.7816944,3.037059,-3.4055638
1.93,-7.239353,13.582527,5.069059,-2.6806166,3.3332758,-3.492705
1.932,-6.760667,13.304955,4.754348,-2.5964985,3.5911903,-3.5769992
1.934,-6.266383,13.0264435,4.446143,-2.5270822,3.8134024,-3.6592488
1.936,-5.759272,12.746151,4.148546,-2.4701672,4.0026817,-3.7401934
1.938,-5.2421427,12.463423,3.8646967,-2.423666,4.1618905,-3.8204517
1.94,-4.717794,12.177849,3.5967348,-2.3855994,4.2938967,-3.9005492
1.942,-4.1893034,11.889414,3.3459282,-2.3541026,4.4015274,-3.9809203
1.944,-3.659714,11.5981865,3.1127186,-2.327457,4.48748,-4.061882
1.946,-3.1330829,11.305449,2.896737,-2.3040614,4.554321,-4.143697
1.948,-2.62038,11.01285,2.6906018,-2.282447,4.6044374,-4.226552
1.95,-2.1225684,10.696644,2.5120249,-2.261306,4.64001,-4.310523
1.952,-1.6249704,10.356927,2.3744752,-2.239488,4.663026,-4.395578
1.954,-1.1315515,10.012461,2.2729242,-2.2160065,4.675291,-4.4816055
1.956,-0.6420555,9.6579895,2.1955025,-2.190092,4.6784143,-4.5684495
1.958,-0.16199028,9.309498,2.1200264,-2.161168,4.6738615,-4.6558604
1.96,0.30413762,8.964612,2.0539463,-2.128844,4.662926,-4.743532
1.962,0.75038874,8.620742,2.005603,-2.0929508,4.6467657,-4.8311095
1.964,1.1842585,8.26432,1.9751717,-2.053503,4.626404,-4.9181585
1.966,1.609612,7.890842,1.9558845,-2.010693,4.6027465,-5.004201
1.968,2.0355024,7.5011525,1.9422244,-1.9648768,4.5766006,-5.088697
1.97,2.461539,7.103842,1.9288971,-1.9165412,4.548697,-5.171056
1.972,2.8831794,6.707613,1.9159203,-1.8662856,4.519686,-5.250684
1.974,3.2999978,6.313374,1.9100623,-1.8147671,4.4901705,-5.326976
1.976,3.719317,5.9174867,1.9129845,-1.7626513,4.460701,-5.3994474
1.978,4.1487923,5.520015,1.9168231,-1.7092313,4.4317803,-5.4697156
1.98,4.593772,5.1235075,1.9118605,-1.6532688,4.4031343,-5.541998
1.982,5.0604506,4.730323,1.8897179,-1.595332,4.3754992,-5.6151123
1.984,5.553288,4.3446007,1.8411032,-1.5323389,4.3557453,-5.683563
1.986,6.075579,3.972101,1.7557864,-1.4577358,4.35629,-5.7458806
1.988,6.630654,3.6190014,1.6244209,-1.3638344,4.3869233,-5.800427
1.99,7.2218885,3.2915776,1.4393859,-1.2439294,4.456284,-5.843853
1.992,7.85099,2.997011,1.1935331,-1.0878019,4.5788627,-5.8728933
1.994,8.517213,2.7436807,0.8792336,-0.8818917,4.7751684,-5.88154
1.996,9.218366,2.5401435,0.48874354,-0.6129637,5.067075,-5.8603883
1.998,9.951267,2.3937118,0.014749527,-0.2689793,5.476207,-5.796284
2,10.710861,2.3117523,-0.5487547,0.16116917,6.0227365,-5.6753554
2.002,11.489801,2.3018525,-1.2060399,0.685025,6.720861,-5.486299
2.004,12.279703,2.3702567,-1.9575872,1.3045545,7.5744443,-5.2218304
2.006,13.071004,2.5217519,-2.8009796,2.015523,8.575592,-4.8794336
2.008,13.853485,2.758977,-3.7306423,2.8058004,9.7025,-4.4629116
2.01,14.616859,3.082396,-4.738131,3.6542935,10.917093,-3.9838643
2.012,15.350861,3.4901042,-5.81167,4.531721,12.1668005,-3.4609199
2.014,16.045559,3.9780796,-6.9362836,5.4027042,13.389035,-2.9177115
2.016,16.692127,4.540039,-8.094025,6.228637,14.516455,-2.38072
2.018,17.282753,5.167825,-9.264299,6.9712243,15.482937,-1.8768392
2.02,17.811966,5.851273,-10.42417,7.59624,16.229767,-1.4309902
2.022,18.275776,6.5790873,-11.549104,8.076918,16.711117,-1.0643544
2.024,18.671993,7.338895,-12.613689,8.396292,16.897682,-0.793303
2.026,19.00085,8.117885,-13.592455,8.548137,16.777945,-0.628716
2.028,19.264256,8.903031,-14.460901,8.536576,16.357353,-0.5755992
2.03,19.466288,9.681625,-15.196247,8.374502,15.655918,-0.633101
2.032,19.612625,10.441573,-15.778366,8.080435,14.704712,-0.79419565
2.034,19.710423,11.171868,-16.190542,7.6771727,13.542456,-1.0475073
2.036,19.76756,11.862866,-16.419783,7.190447,12.210413,-1.3838062
2.038,19.792446,12.506641,-16.457325,6.642004,10.747447,-1.791542
2.04,19.7935,13.097153,-16.298908,6.050993,9.191993,-2.2512484
2.042,19.778992,13.63014,-15.944982,5.4359303,7.5870557,-2.7437718
2.044,19.756565,14.103039,-15.400513,4.8147845,5.973789,-3.2521472
2.046,19.733288,14.514889,-14.674906,4.200579,4.385164,-3.7605128
2.048,19.715218,14.866347,-13.781403,3.603582,2.849015,-4.2572045
2.05,19.706757,15.159766,-12.736925,3.0345027,1.3922138,-4.7342587
2.052,19.711384,15.398339,-11.560976,2.5031388,0.03902912,-5.186901
2.054,19.730972,15.586164,-10.27495,2.0166569,-1.1909422,-5.6110735
2.056,19.766985,15.727154,-8.9013195,1.580648,-2.2821112,-6.0028315
2.058,19.824333,15.825854,-7.458292,1.1987951,-3.223495,-6.359707
2.06,19.896378,15.906496,-5.9864073,0.871933,-4.0108085,-6.681473
2.062,19.965626,15.96486,-4.51363,0.59895873,-4.645603,-6.969102
2.064,20.036068,15.984486,-3.0480776,0.37738085,-5.13329,-7.2236643
2.066,20.10635,15.9761095,-1.5953493,0.20319939,-5.483451,-7.446683
2.068,20.179401,15.930917,-0.15715504,0.071041584,-5.7096195,-7.640236
2.07,20.255104,15.860157,1.2357512,-0.025265694,-5.8276196,-7.80641
2.072,20.332987,15.771928,2.5602064,-0.09204483,-5.854109,-7.9469686
2.074,20.401031,15.679761,3.806716,-0.13534832,-5.805507,-8.063273
2.076,20.454193,15.583889,4.9737797,-0.16060352,-5.6973853,-8.156155
2.078,20.48538,15.479179,6.0583324,-0.1722188,-5.543614,-8.225924
2.08,20.498226,15.356059,7.0576725,-0.1733861,-5.355745,-8.272691
2.082,20.498146,15.209459,7.9655976,-0.16607094,-5.142789,-8.296743
2.084,20.48376,15.043784,8.773674,-0.15119457,-4.911376,-8.298496
2.086,20.447968,14.865701,9.482516,-0.12886858,-4.6660805,-8.278259
2.088,20.385569,14.677196,10.1020355,-0.098659515,-4.409929,-8.236273
2.09,20.295387,14.4777565,10.640851,-0.059857845,-4.1449146,-8.172853
2.092,20.176182,14.267906,11.103992,-0.011659384,-3.8724556,-8.088592
2.094,20.028734,14.047118,11.495881,0.046595335,-3.5937383,-7.98437
2.096,19.854244,13.814713,11.820702,0.11529088,-3.3099885,-7.8613844
2.098,19.653112,13.570635,12.081078,0.19441605,-3.0226097,-7.721162
2.1,19.425251,13.3158455,12.278253,0.28352666,-2.733327,-7.5654507
2.102,19.171549,13.051008,12.414477,0.38174224,-2.4441829,-7.396222
2.104,18.894083,12.776298,12.493585,0.48781514,-2.1575155,-7.2155566
2.106,18.595173,12.4923725,12.520698,0.60024834,-1.8758113,-7.0254445
2.108,18.276377,12.200808,12.501574,0.7173934,-1.6014849,-6.8276978
2.11,17.940464,11.902702,12.442097,0.83764434,-1.3366218,-6.623866
2.112,17.590431,11.598633,12.348068,0.9595587,-1.0827012,-6.415164
2.114,17.229507,11.28923,12.223903,1.0819573,-0.8404335,-6.2024593
2.116,16.860731,10.975583,12.073995,1.2039679,-0.6096599,-5.986311
2.118,16.487232,10.659054,11.90271,1.3251117,-0.38930607,-5.767001
2.12,16.112043,10.341072,11.714792,1.445241,-0.17748618,-5.5445642
2.122,15.738375,10.023278,11.514698,1.5645021,0.028268695,-5.3189254
2.124,15.3694,9.707104,11.306281,1.6832601,0.23074126,-5.0899944
2.126,15.007849,9.393935,11.092995,1.8020098,0.43274724,-4.8577785
2.128,14.6565895,9.084822,10.877483,1.9212698,0.6368467,-4.6224666
2.13,14.317741,8.780888,10.66161,2.0415282,0.84509254,-4.3845315
2.132,13.993499,8.482918,10.446438,2.1631076,1.0587581,-4.144691
2.134,13.685733,8.191574,10.23284,2.2861276,1.2782538,-3.9038548
2.136,13.395817,7.907627,10.021124,2.4104521,1.5030929,-3.6631231
2.138,13.124508,7.631831,9.8115425,2.535687,1.7319031,-3.4237812
2.14,12.872139,7.364937,9.604322,2.6611807,1.9625107,-3.1871462
2.142,12.6384945,7.1078095,9.399441,2.786135,2.1921046,-2.9546351
2.144,12.423044,6.8612256,9.197123,2.9096427,2.4175055,-2.7277122
2.146,12.225037,6.6259685,8.997457,3.0306535,2.635259,-2.5077837
2.148,12.0433445,6.4027386,8.800314,3.1480806,2.841882,-2.2960858
2.15,11.876776,6.192007,8.605703,3.2608304,3.0340476,-2.093658
2.152,11.723904,5.994205,8.413697,3.3678741,3.2087414,-1.9012804
2.154,11.582873,5.8099713,8.22441,3.4682627,3.3634157,-1.7194875
2.156,11.451832,5.639886,8.037947,3.561177,3.4960709,-1.5485533
2.158,11.328939,5.4841685,7.8542056,3.6459315,3.6052825,-1.3885028
2.16,11.212471,5.342631,7.673444,3.72198,3.6902122,-1.239154
2.162,11.100708,5.2153597,7.49565,3.7889426,3.7505987,-1.100138
2.164,10.992206,5.102192,7.3204527,3.8465788,3.7866752,-0.9709941
2.166,10.885598,5.002846,7.1476893,3.894786,3.7990732,-0.8512355
2.168,10.779789,4.9170604,6.9771748,3.9335542,3.7887738,-0.7403405
2.17,10.673821,4.8444605,6.8085737,3.9629912,3.7569747,-0.6378261
2.172,10.566802,4.7843404,6.641392,3.9832804,3.7050605,-0.54330134
2.174,10.458029,4.7360873,6.4754114,3.9946744,3.6345327,-0.4564935
2.176,10.347058,4.698886,6.31019,3.9974751,3.5469303,-0.37723768
2.178,10.233511,4.671842,6.145578,3.9920294,3.4437695,-0.30547988
2.18,10.117639,4.653672,5.9814305,3.9786818,3.326507,-0.24125004
2.182,9.999555,4.6432514,5.8178687,3.957798,3.1964946,-0.18463838
2.184,9.87948,4.639376,5.6551065,3.9297419,3.0549676,-0.13577116
2.186,9.758111,4.6405888,5.4936185,3.8948495,2.903021,-0.09481704
2.188,9.636187,4.645535,5.3340077,3.8534565,2.7415924,-0.061908722
2.19,9.514354,4.6527634,5.1770678,3.8058677,2.5715103,-0.037141442
2.192,9.393408,4.660895,5.0238543,3.7524,2.3935127,-0.020548701
2.194,9.274558,4.6684833,4.875423,3.6933703,2.208262,-0.012139916
2.196,9.158491,4.6743784,4.732851,3.6290312,2.016363,-0.011750817
2.198,9.046114,4.677513,4.5973053,3.559665,1.8183322,-0.019084215
2.2,8.938182,4.676739,4.4700027,3.4856024,1.6147012,-0.033758998
2.202,8.835436,4.6712146,4.352173,3.4071665,1.4060155,-0.055322528
2.204,8.738683,4.6602516,4.245063,3.3246946,1.192817,-0.08321339
2.206,8.648273,4.643384,4.1498165,3.238542,0.97565234,-0.116800845
2.208,8.564767,4.6202693,4.0676346,3.1490648,0.75507736,-0.15538132
2.21,8.4883585,4.590695,3.9994783,3.056633,0.5316422,-0.19822264
2.212,8.419144,4.554546,3.9463682,2.961639,0.30593634,-0.24461567
2.214,8.357144,4.511904,3.9090273,2.864507,0.078553736,-0.29390195
2.216,8.301992,4.4630117,3.8881295,2.765653,-0.14989218,-0.34551436
2.218,8.25363,4.408179,3.884252,2.6655173,-0.37877768,-0.39897403
2.22,8.211262,4.347858,3.8978252,2.564543,-0.60747945,-0.45393017
2.222,8.174852,4.2822123,3.92875,2.463177,-0.83537495,-0.5101634
2.224,8.14364,4.211807,3.9770668,2.361828,-1.0618049,-0.567502
2.226,8.117074,4.1371155,4.0426593,2.2608697,-1.2861502,-0.62583524
2.228,8.094441,4.058683,4.125079,2.1606424,-1.5078074,-0.6850612
2.23,8.075238,3.976933,4.223752,2.0614095,-1.7261693,-0.74507344
2.232,8.058659,3.892415,4.337799,1.9633815,-1.9406565,-0.80568826
2.234,8.043984,3.8053951,4.4663854,1.8667195,-2.1506917,-0.8666673
2.236,8.030994,3.7162733,4.60839,1.771508,-2.3557222,-0.9277055
2.238,8.018927,3.6254559,4.7625866,1.6777847,-2.5552115,-0.9884416
2.24,8.007331,3.5332365,4.92777,1.5855615,-2.7486508,-1.0484418
2.242,7.9957943,3.4399996,5.1026144,1.4948262,-2.935545,-1.107259
2.244,7.98405,3.3459084,5.2856803,1.4055951,-3.115439,-1.1644571
2.246,7.9715652,3.2511144,5.4755926,1.3178875,-3.2878952,-1.2196203
2.248,7.9582887,3.1557324,5.670891,1.2317811,-3.4524853,-1.2724125
2.25,7.944086,3.0599132,5.870043,1.147398,-3.6087751,-1.3225724
2.252,7.928891,2.963653,6.071722,1.0648966,-3.7563267,-1.3699335
2.254,7.9124613,2.866946,6.2744656,0.98447686,-3.8946843,-1.4143829
2.256,7.894993,2.7697577,6.4769044,0.9063786,-4.0234056,-1.4559058
2.258,7.87646,2.6720686,6.6778193,0.83084303,-4.1420326,-1.4945209
2.26,7.8570027,2.5739365,6.875938,0.7580997,-4.2501245,-1.5302498
2.262,7.8365917,2.475316,7.070111,0.688375,-4.3472724,-1.5631204
2.264,7.8154373,2.3761206,7.2592673,0.6218538,-4.433128,-1.5931209
2.266,7.7937217,2.276415,7.4426,0.55867136,-4.507415,-1.6201977
2.268,7.771452,2.1761653,7.6192765,0.4989034,-4.5699563,-1.6442385
2.27,7.748912,2.0752885,7.7886195,0.4425881,-4.620689,-1.6650941
2.272,7.7262306,1.9738836,7.9500957,0.38970137,-4.659661,-1.6825742
2.274,7.7035737,1.8720686,8.103379,0.3401904,-4.687027,-1.6964676
2.276,7.6812334,1.7697818,8.248138,0.29394567,-4.7030473,-1.7065904
2.278,7.6594186,1.6670537,8.384261,0.25086784,-4.708107,-1.7128408
2.28,7.638235,1.5639968,8.511813,0.21081161,-4.702633,-1.7151322
2.282,7.617841,1.4608214,8.630878,0.17363346,-4.6871195,-1.7134856
2.284,7.5985303,1.357548,8.741543,0.1392051,-4.662088,-1.7079949
2.286,7.5804253,1.2544246,8.844214,0.10738182,-4.6280775,-1.6988719
2.288,7.563734,1.1515574,8.939192,0.07803881,-4.5856304,-1.686408
2.29,7.548481,1.049151,9.026923,0.0510875,-4.535241,-1.6709354
2.292,7.5348983,0.9473829,9.107743,0.026449919,-4.4773746,-1.6528077
2.294,7.523149,0.8464384,9.182152,0.004081607,-4.412454,-1.6324112
2.296,7.5132575,0.74645185,9.250528,-0.016038656,-4.3408537,-1.610109
2.298,7.505237,0.6476443,9.31341,-0.033932745,-4.262889,-1.5862079
2.3,7.499272,0.550246,9.371165,-0.049602866,-4.178858,-1.5609853
2.302,7.495331,0.45440245,9.42407,-0.06303835,-4.0890355,-1.5346433
2.304,7.4934464,0.36024594,9.47271,-0.07424235,-3.9936886,-1.5073159
2.306,7.4935923,0.2680714,9.517361,-0.083215415,-3.8930976,-1.4791002
2.308,7.495652,0.17793393,9.558386,-0.08997136,-3.7875636,-1.4500566
2.31,7.49963,0.09024072,9.596138,-0.094551384,-3.6773963,-1.4201987
2.312,7.505265,0.0051624775,9.63068,-0.0970127,-3.562939,-1.389553
2.314,7.5123158,-0.0770154,9.662187,-0.097430885,-3.4445426,-1.3581364
2.316,7.520768,-0.1560266,9.690828,-0.0959115,-3.322576,-1.3259789
2.318,7.5302887,-0.2316854,9.716672,-0.09257734,-3.1974058,-1.2931134
2.32,7.5406256,-0.30362725,9.73971,-0.08755869,-3.0694077,-1.259599
2.322,7.5515285,-0.37145424,9.759802,-0.08099139,-2.9389515,-1.225497
2.324,7.56263,-0.43488097,9.776991,-0.07301974,-2.8063917,-1.190891
2.326,7.5735683,-0.49369,9.791147,-0.0637753,-2.6720767,-1.1558669
2.328,7.584071,-0.5477481,9.8021145,-0.05341059,-2.5363505,-1.1205046
2.33,7.5937634,-0.59686136,9.809626,-0.04204017,-2.399553,-1.0848991
2.332,7.602225,-0.64078903,9.813601,-0.02981463,-2.2620173,-1.0491229
2.334,7.6092834,-0.6795447,9.81387,-0.016876042,-2.1240895,-1.0132763
2.336,7.6146283,-0.7130213,9.810259,-0.003371179,-1.9861344,-0.97744083
2.338,7.617886,-0.74129534,9.80262,0.010537982,-1.8485179,-0.9417184
2.34,7.6188364,-0.76428604,9.790792,0.024694473,-1.711622,-0.90622437
2.342,7.617394,-0.78217006,9.774689,0.038926512,-1.5758375,-0.87107235
2.344,7.613393,-0.7950413,9.754249,0.05306223,-1.44156,-0.836414
2.346,7.6065445,-0.80300474,9.729357,0.06694007,-1.3091753,-0.8024112
2.348,7.5970244,-0.80629754,9.700035,0.08041033,-1.1790686,-0.7692144
2.35,7.584729,-0.8049612,9.666212,0.0933321,-1.0515962,-0.7369828
2.352,7.569651,-0.7992265,9.628026,0.105574355,-0.9271123,-0.7058686
2.354,7.5517044,-0.7891872,9.585516,0.11701244,-0.80591667,-0.6759872
2.356,7.5312147,-0.775069,9.538816,0.12751801,-0.6882771,-0.64742213
2.358,7.508194,-0.75703764,9.488035,0.13697544,-0.57442635,-0.62023103
2.36,7.4827304,-0.7353549,9.433501,0.14526083,-0.46453723,-0.594413
2.362,7.4549723,-0.7101202,9.375412,0.15225038,-0.35874543,-0.5699361
2.364,7.4251566,-0.6815903,9.314143,0.1578245,-0.25714475,-0.54674053
2.366,7.393314,-0.64990497,9.250048,0.1618579,-0.1597828,-0.5247474
2.368,7.359684,-0.6153681,9.183404,0.16422474,-0.066679925,-0.50386333
2.37,7.3245344,-0.5781553,9.11464,0.1648157,0.022169761,-0.48399553
2.372,7.288194,-0.5385158,9.044195,0.16355072,0.106790714,-0.4650706
2.374,7.250759,-0.4965818,8.9724655,0.16036028,0.1872198,-0.44702792
2.376,7.2124214,-0.45269847,8.899841,0.15520978,0.26350006,-0.4298323
2.378,7.173659,-0.40709972,8.826741,0.148092,0.33568764,-0.4134606
2.38,7.1344724,-0.35979676,8.753539,0.13901727,0.4038396,-0.3979182
2.382,7.09527,-0.3112564,8.680553,0.1280143,0.46801826,-0.3832193
2.384,7.056216,-0.26170564,8.608302,0.115109414,0.5283093,-0.36936843
2.386,7.0176144,-0.21128178,8.537129,0.100348786,0.58481014,-0.35637918
2.388,6.979683,-0.16030025,8.467264,0.08376481,0.6376277,-0.34425047
2.39,6.9427347,-0.10897994,8.3990755,0.06537217,0.6868928,-0.33295518
2.392,6.9069986,-0.057577133,8.332875,0.04518722,0.7327471,-0.3224572
2.394,6.872658,-0.0063540936,8.268962,0.02320531,0.7753253,-0.31271324
2.396,6.8399625,0.044408083,8.207564,-0.0005699843,0.81478167,-0.3036738
2.398,6.809085,0.09458232,8.148956,-0.026142597,0.8512622,-0.29528612
2.4,6.7801385,0.14397669,8.093238,-0.053510904,0.88490796,-0.28752172
2.402,6.7534437,0.19226599,8.04068,-0.0826471,0.91587436,-0.2803651
2.404,6.7289996,0.23937464,7.9914737,-0.11350322,0.94429433,-0.2738139
2.406,6.7068806,0.28508806,7.9456663,-0.14601648,0.9703168,-0.26787966
2.408,6.687282,0.32922435,7.9033623,-0.18010868,0.9940808,-0.26259375
2.41,6.670165,0.37167597,7.86466,-0.21567148,1.0157238,-0.25799644
2.412,6.6555457,0.4124105,7.829605,-0.2525913,1.0353912,-0.25412893
2.414,6.6433806,0.45133185,7.7981796,-0.290748,1.0532297,-0.2510295
2.416,6.6335917,0.4883132,7.770469,-0.330019,1.0694036,-0.24872272
2.418,6.626202,0.5233662,7.746358,-0.37028265,1.084082,-0.24721014
2.42,6.621096,0.5564389,7.7259307,-0.41141352,1.0974439,-0.24647781
2.422,6.618244,0.5875416,7.7091317,-0.45328635,1.1096756,-0.24649577
2.424,6.6175995,0.61667824,7.695874,-0.49578166,1.1209819,-0.24721515
2.426,6.6189175,0.6438625,7.6861053,-0.5387956,1.131565,-0.24857117
2.428,6.622122,0.6692765,7.679641,-0.58220565,1.1416391,-0.2504955
2.43,6.626975,0.69297624,7.6764445,-0.62589276,1.1514149,-0.2529173
2.432,6.633425,0.71500325,7.6763372,-0.66975003,1.161093,-0.25575358
2.434,6.6413302,0.7355485,7.679166,-0.71366656,1.1708835,-0.25892097
2.436,6.650574,0.7547157,7.684834,-0.7575258,1.1809764,-0.26233727
2.438,6.661014,0.7727616,7.6931467,-0.80122674,1.1915578,-0.26590878
2.44,6.6724963,0.78983474,7.703907,-0.844676,1.2028077,-0.26954603
2.442,6.684921,0.80597305,7.7168794,-0.8878015,1.2148864,-0.27315706
2.444,6.6981683,0.8214929,7.7317667,-0.9305298,1.227953,-0.2766699
2.446,6.712079,0.83646464,7.748311,-0.9728197,1.2421389,-0.28001562
2.448,6.7266874,0.85110116,7.766363,-1.0146136,1.2575815,-0.28313753
2.45,6.741724,0.86543846,7.785517,-1.055874,1.2743708,-0.28600112
2.452,6.7569804,0.87960577,7.805539,-1.0965593,1.2926012,-0.2885992
2.454,6.7724023,0.89384055,7.826108,-1.1366231,1.3123372,-0.29094592
2.456,6.788018,0.908113,7.847065,-1.1760426,1.3336196,-0.2930764
2.458,6.803438,0.9225211,7.8681927,-1.2147766,1.3564533,-0.29503322
2.46,6.818747,0.93707895,7.889171,-1.252784,1.3808374,-0.2968536
2.462,6.833684,0.95184255,7.9097786,-1.290034,1.4067235,-0.2985612
2.464,6.8483534,0.9668472,7.929763,-1.3265235,1.434057,-0.300166
2.466,6.8624372,0.982182,7.9491186,-1.3622628,1.4627664,-0.30165306
2.468,6.8759413,0.99782276,7.967685,-1.3972678,1.4927726,-0.30299306
2.47,6.888647,1.0139158,7.9853325,-1.4315774,1.523988,-0.30412698
2.472,6.9004974,1.0303428,8.001856,-1.4652371,1.5563182,-0.30498034
2.474,6.911507,1.0472767,8.017263,-1.498307,1.5896709,-0.30547684
2.476,6.921434,1.064714,8.031526,-1.5308559,1.6239712,-0.30556127
2.478,6.9304843,1.0826044,8.044689,-1.5629466,1.6591339,-0.30518717
2.48,6.938444,1.1009903,8.056792,-1.5946254,1.6950923,-0.3043261
2.482,6.945177,1.1199226,8.0677395,-1.6259371,1.73179,-0.302966
2.484,6.950919,1.1394405,8.077609,-1.656908,1.7691894,-0.3011348
2.486,6.9554787,1.1596546,8.086457,-1.687535,1.8072672,-0.298864
2.488,6.95888,1.1805818,8.094425,-1.7178142,1.84599,-0.29619396
2.49,6.9613748,1.2023065,8.10154,-1.7477363,1.885359,-0.29315916
2.492,6.9628396,1.2250426,8.107842,-1.7772973,1.9253768,-0.28978953
2.494,6.9634304,1.2488775,8.113362,-1.8064843,1.9660447,-0.2860961
2.496,6.963247,1.2739637,8.118138,-1.8352835,2.007388,-0.28206176
2.498,6.9624834,1.3005345,8.122235,-1.863703,2.0494044,-0.27764022
2.5,6.961119,1.3287597,8.125623,-1.8917633,2.0921004,-0.27276093
2.502,6.9593935,1.3588438,8.128331,-1.9194901,2.1354785,-0.26734877
2.504,6.9574103,1.3910804,8.1303,-1.9469199,2.179536,-0.26131046
2.506,6.9552984,1.4256995,8.131478,-1.9740846,2.2242432,-0.25455403
2.508,6.9531846,1.4629683,8.1318035,-2.0010412,2.2695713,-0.24699455
2.51,6.9511824,1.5032032,8.13127,-2.0278358,2.3154583,-0.23858052
2.512,6.949341,1.5466955,8.129718,-2.0545332,2.3618526,-0.22926205
2.514,6.947778,1.5937207,8.127053,-2.0812116,2.408648,-0.21902764
2.516,6.946593,1.6445317,8.123174,-2.1079519,2.4557567,-0.20788807
2.518,6.9457393,1.6994064,8.117908,-2.134831,2.503065,-0.19587624
2.52,6.945348,1.758513,8.111115,-2.161931,2.550437,-0.1830588
2.522,6.9454126,1.8220639,8.102705,-2.189337,2.5977323,-0.16950381
2.524,6.945803,1.890209,8.092479,-2.2171233,2.6448114,-0.15530545
2.526,6.9466558,1.9629018,8.080307,-2.24536,2.6915445,-0.14055818
2.528,6.9476633,2.0403056,8.066172,-2.2740993,2.7377963,-0.12535352
2.53,6.948915,2.122278,8.049808,-2.3033798,2.7834384,-0.109775364
2.532,6.950271,2.208845,8.031208,-2.3332286,2.828352,-0.093913436
2.534,6.95156,2.299808,8.010258,-2.3636646,2.8724325,-0.0778501
2.536,6.9528193,2.3950179,7.9868546,-2.3946877,2.9155915,-0.061670184
2.538,6.9538703,2.4942694,7.960952,-2.4262931,2.9577494,-0.045440674
2.54,6.954689,2.5972664,7.932611,-2.458483,2.9988303,-0.029239535
2.542,6.9550953,2.7038262,7.901718,-2.4912457,3.0387921,-0.013137937
2.544,6.9550514,2.8135633,7.868293,-2.5245647,3.0775952,0.0028070211
2.546,6.9545774,2.9261947,7.8324003,-2.558434,3.1152012,0.0185529
2.548,6.953479,3.0414495,7.7939634,-2.592861,3.151595,0.034068465
2.55,6.9519362,3.1589236,7.753096,-2.6278572,3.186745,0.049345255
2.552,6.9498224,3.278379,7.709898,-2.6634364,3.2206497,0.06438708
2.554,6.9470882,3.399362,7.6644044,-2.69962,3.253283,0.07921684
2.556,6.943878,3.5217028,7.616733,-2.7364507,3.2846236,0.09387219
2.558,6.9399858,3.6450949,7.5668917,-2.7739646,3.3146272,0.10837078
2.56,6.9357653,3.7692492,7.51511,-2.8121974,3.3432446,0.122731924
2.562,6.9311957,3.893871,7.4614077,-2.8511777,3.3704162,0.13696873
2.564,6.9263954,4.0186787,7.405961,-2.890933,3.3960867,0.15108287
2.566,6.9213977,4.143603,7.348794,-2.9314663,3.4201794,0.16503191
2.568,6.916253,4.268486,7.290016,-2.9727616,3.4426453,0.17877424
2.57,6.911117,4.3930097,7.229804,-3.0147972,3.46343,0.19226539
2.572,6.906134,4.517155,7.1682734,-3.057549,3.4824965,0.20546484
2.574,6.9012547,4.640866,7.105515,-3.1009593,3.4998507,0.2183479
2.576,6.896725,4.7640305,7.0415087,-3.1449912,3.5155082,0.23089647
2.578,6.8925834,4.8867188,6.9765115,-3.1895971,3.529508,0.24312079
2.58,6.88903,5.008913,6.9104505,-3.2347288,3.5419097,0.25505638
2.582,6.886112,5.130663,6.8435707,-3.2803364,3.5527875,0.26675594
2.584,6.8838463,5.252077,6.775764,-3.3263774,3.5622108,0.27828586
2.586,6.8823357,5.373146,6.7071147,-3.3728058,3.5702705,0.2897122
2.588,6.88165,5.494067,6.6376414,-3.419583,3.5770478,0.30110145
2.59,6.8818817,5.6149073,6.567259,-3.466669,3.5826063,0.31252193
2.592,6.8831353,5.7356477,6.4960003,-3.5140178,3.5870247,0.32402015
2.594,6.88529,5.856355,6.4238586,-3.5615764,3.5903807,0.33563304
2.596,6.888487,5.977232,6.350759,-3.6092863,3.5927405,0.34739614
2.598,6.8926425,6.0982323,6.2764606,-3.6570826,3.5941653,0.35931706
2.6,6.897814,6.2193,6.2011037,-3.7048872,3.5947232,0.37141526
2.602,6.903827,6.34039,6.1246,-3.7526226,3.5944777,0.38371062
2.604,6.9107075,6.4614687,6.0468554,-3.8002172,3.5934935,0.3962108
2.606,6.9183908,6.5823245,5.9677167,-3.8475769,3.5918255,0.40893316
2.608,6.926789,6.7028756,5.887175,-3.8946128,3.5895162,0.42188096
2.61,6.935786,6.822777,5.8051095,-3.9412344,3.5865998,0.43506026
2.612,6.945225,6.9417796,5.7214093,-3.9873495,3.5831063,0.4484712
2.614,6.955084,7.0594845,5.6360707,-4.032864,3.5790362,0.46209252
2.616,6.965136,7.1753526,5.549003,-4.0776772,3.5743842,0.47589123
2.618,6.975277,7.288926,5.4601665,-4.121697,3.5691156,0.48982286
2.62,6.98521,7.399591,5.3694506,-4.1648364,3.5631833,0.50383043
2.622,6.9947305,7.506834,5.2769284,-4.2070055,3.5565314,0.51784706
2.624,7.0038495,7.6099386,5.182536,-4.248126,3.5490823,0.53179276
2.626,7.012085,7.708314,5.0863,-4.2881017,3.5407457,0.5455756
2.628,7.0192966,7.801285,4.9882298,-4.326862,3.5314286,0.5591006
2.63,7.025194,7.8882475,4.8883586,-4.364327,3.5210526,0.57228005
2.632,7.029598,7.96854,4.7866545,-4.4004226,3.5095248,0.58502555
2.634,7.03222,8.041676,4.683152,-4.4350853,3.4967768,0.5972705
2.636,7.032793,8.107259,4.5778613,-4.468273,3.482746,0.6089792
2.638,7.031167,8.164661,4.470767,-4.499926,3.4674067,0.6201544
2.64,7.0270996,8.213573,4.3619447,-4.5300064,3.4507318,0.6308341
2.642,7.020368,8.2535925,4.251399,-4.5584683,3.432714,0.6410979
2.644,7.010782,8.284573,4.139088,-4.58529,3.413379,0.65106785
2.646,6.998163,8.306343,4.0250254,-4.610454,3.3927445,0.6608794
2.648,6.982303,8.318836,3.9092407,-4.6339483,3.3708487,0.6707033
2.65,6.963086,8.322134,3.79163,-4.655771,3.3477302,0.6807096
2.652,6.9402847,8.316414,3.6722713,-4.675938,3.3234434,0.691072
2.654,6.913832,8.30187,3.5511122,-4.6944456,3.2980297,0.70193195
2.656,6.883583,8.278959,3.4279966,-4.7113013,3.2715364,0.7134191
2.658,6.849579,8.247948,3.3030334,-4.7265053,3.243988,0.72563493
2.66,6.8116026,8.209487,3.1761513,-4.740069,3.215397,0.7386718
2.662,6.7696977,8.16406,3.047246,-4.7519917,3.1857634,0.7526063
2.664,6.723956,8.112428,2.9163818,-4.76227,3.1550539,0.767504
2.666,6.6741962,8.055127,2.7833927,-4.7709074,3.1232224,0.7834228
2.668,6.620627,7.9929295,2.6483526,-4.7779245,3.090198,0.800441
2.67,6.5630226,7.926584,2.5112042,-4.78334,3.0558584,0.81862426
2.672,6.5016513,7.8568954,2.3719635,-4.7871995,3.0200918,0.83805394
2.674,6.436556,7.784592,2.230634,-4.789559,2.9827638,0.85880053
2.676,6.3676214,7.7102995,2.0872502,-4.7904944,2.9437084,0.88093436
2.678,6.2953315,7.634744,1.9419607,-4.7901096,2.902761,0.9045031
2.68,6.219559,7.558633,1.794804,-4.7885213,2.8597558,0.9295299
2.682,6.1406393,7.4824705,1.6460031,-4.7858286,2.8145103,0.9559982
2.684,6.0585766,7.406801,1.4956656,-4.7821503,2.7668457,0.98383594
2.686,5.973502,7.332035,1.3439056,-4.777592,2.7165997,1.0129225
2.688,5.885776,7.2585516,1.190904,-4.7722416,2.663631,1.0431037
2.69,5.795439,7.1867666,1.0369958,-4.7661743,2.607799,1.0741796
2.692,5.702753,7.116895,0.8823552,-4.7594576,2.5489888,1.105921
2.694,5.6079783,7.0489836,0.7272608,-4.7521296,2.4871268,1.1381062
2.696,5.511335,6.983225,0.57192373,-4.744222,2.4221568,1.1705087
2.698,5.412929,6.9197273,0.41664445,-4.735742,2.3540525,1.2029085
2.7,5.313038,6.858437,0.26180804,-4.726703,2.2828429,1.2351441
2.702,5.2120256,6.799341,0.10771525,-4.717105,2.2085695,1.2670542
2.704,5.1100307,6.7423763,-0.04542017,-4.706952,2.131311,1.2985296
2.706,5.0072985,6.6872725,-0.19727826,-4.696244,2.0511682,1.3295037
2.708,4.903922,6.634117,-0.3475263,-4.68499,1.9682646,1.3599389
2.71,4.8001504,6.5827055,-0.496022,-4.673196,1.8827298,1.3898342
2.712,4.6962075,6.533026,-0.64250576,-4.660888,1.7947037,1.4192162
2.714,4.5922155,6.4849687,-0.78665,-4.648082,1.7043388,1.4481153
2.716,4.488271,6.438553,-0.9282067,-4.634809,1.6117744,1.4765946
2.718,4.3846126,6.39364,-1.0669041,-4.621114,1.5171531,1.5047427
2.72,4.28131,6.350446,-1.2025058,-4.607016,1.4206159,1.5326184
2.722,4.178523,6.308792,-1.3348181,-4.5925317,1.3223132,1.5602728
2.724,4.0764394,6.268661,-1.463585,-4.5776663,1.2224085,1.5877485
2.726,3.9751098,6.2302155,-1.5886183,-4.562396,1.1210539,1.6150717
2.728,3.874642,6.1933556,-1.709576,-4.5467186,1.0184166,1.6422377
2.73,3.7751906,6.15819,-1.8262514,-4.5305943,0.91467774,1.6692163
2.732,3.6767397,6.1247354,-1.9384142,-4.5139794,0.81004363,1.6959484
2.734,3.5791748,6.0930023,-2.0458658,-4.4968224,0.70472616,1.722361
2.736,3.4828167,6.0630813,-2.148275,-4.479065,0.5989619,1.7483635
2.738,3.3874502,6.03487,-2.2454505,-4.460643,0.49300516,1.7738686
2.74,3.2931385,6.0084386,-2.3371634,-4.4414663,0.38711357,1.7987735
2.742,3.199628,5.9838333,-2.4231677,-4.421466,0.28155226,1.8229787
2.744,3.1069574,5.961132,-2.5033474,-4.4005346,0.1766057,1.8464066
2.746,3.0150914,5.9402876,-2.5773969,-4.3785825,0.07253748,1.869004
2.748,2.9238727,5.921422,-2.6452498,-4.3555336,-0.030399203,1.8907338
2.75,2.833171,5.9044375,-2.7066653,-4.3312936,-0.1319533,1.9115932
2.752,2.7429292,5.889406,-2.7615423,-4.3058143,-0.23192447,1.9315969
2.754,2.6529713,5.8762355,-2.8097613,-4.279041,-0.3301317,1.9507922
2.756,2.563266,5.8648815,-2.8511734,-4.2509637,-0.4264059,1.9692452
2.758,2.4737294,5.855429,-2.885806,-4.2215695,-0.52060103,1.9870127
2.76,2.384179,5.847727,-2.9135172,-4.190875,-0.61257535,2.0041332
2.762,2.2945693,5.8416786,-2.9342797,-4.158904,-0.7021872,2.0206325
2.764,2.2047534,5.837341,-2.948224,-4.125665,-0.78926367,2.0364778
2.766,2.114596,5.8343706,-2.9552698,-4.091126,-0.873619,2.0515945
2.768,2.0238733,5.832923,-2.9555712,-4.0552616,-0.9550438,2.0658755
2.77,1.9325328,5.832732,-2.9493365,-4.0179815,-1.0332918,2.0791743
2.772,1.8403566,5.8337817,-2.936778,-3.9792056,-1.1081024,2.0913477
2.774,1.7473322,5.83587,-2.9180698,-3.9388185,-1.1792164,2.1022809
2.776,1.6531414,5.8390675,-2.8934486,-3.8967016,-1.2463541,2.1118875
2.778,1.5576911,5.843192,-2.8632252,-3.852749,-1.3092602,2.1201093
2.78,1.4607358,5.8481765,-2.8278925,-3.806873,-1.36771,2.126947
2.782,1.3620785,5.853939,-2.787702,-3.7590082,-1.4215128,2.1324866
2.784,1.2614715,5.8604803,-2.7431238,-3.709144,-1.4705191,2.1368592
2.786,1.1587352,5.8678346,-2.694632,-3.65732,-1.5146215,2.140232
2.788,1.0535859,5.875921,-2.6426835,-3.603614,-1.5537524,2.142768
2.79,0.94593513,5.884763,-2.5877943,-3.5481505,-1.5878663,2.1446211
2.792,0.83545566,5.8943443,-2.530627,-3.4910626,-1.616946,2.145914
2.794,0.72204953,5.9045506,-2.471507,-3.4324923,-1.6409814,2.1467187
2.796,0.60556346,5.9154854,-2.4108834,-3.3725715,-1.6599934,2.1470685
2.798,0.48572138,5.927064,-2.3493564,-3.3114092,-1.6740193,2.1469407
2.8,0.36244515,5.939184,-2.2873383,-3.2490778,-1.6830964,2.146288
2.802,0.23558615,5.9518085,-2.2252712,-3.1856127,-1.6872828,2.1450398
2.804,0.105008125,5.964993,-2.1636372,-3.121028,-1.6866624,2.14314
2.806,-0.02916652,5.978567,-2.102697,-3.055302,-1.6813092,2.140537
2.808,-0.16700414,5.9923887,-2.0428052,-2.9884124,-1.6713344,2.1371956
2.81,-0.30852157,6.006288,-1.9842714,-2.920324,-1.656865,2.1331227
2.812,-0.45349085,6.020173,-1.9272914,-2.8510423,-1.6380422,2.1283617
2.814,-0.6017623,6.033663,-1.8720274,-2.780579,-1.615028,2.1229868
2.816,-0.7531856,6.0466375,-1.818484,-2.7089655,-1.5879842,2.1170988
2.818,-0.90731084,6.058738,-1.7667699,-2.6362672,-1.5570884,2.1107986
2.82,-1.0639083,6.0696774,-1.7168791,-2.5625722,-1.5225095,2.1042023
2.822,-1.2226372,6.079078,-1.6687787,-2.4879563,-1.4844085,2.0973978
2.824,-1.3830652,6.0865726,-1.6225395,-2.412484,-1.442937,2.0904446
2.826,-1.5448586,6.091833,-1.5779669,-2.3362095,-1.3982254,2.0833569
2.828,-1.7074118,6.0943894,-1.5350685,-2.2591665,-1.35035,2.076111
2.83,-1.8700988,6.0938225,-1.4937267,-2.18135,-1.2993882,2.0686207
2.832,-2.0325727,6.0898604,-1.4538827,-2.1027212,-1.245363,2.060777
2.834,-2.1943266,6.082168,-1.415483,-2.02322,-1.1882479,2.052411
2.836,-2.3546352,6.0703487,-1.3785452,-1.9427557,-1.1280026,2.0433412
2.838,-2.5130308,6.054154,-1.3431296,-1.8612208,-1.0645486,2.0333743
2.84,-2.6689637,6.033308,-1.3092,-1.7785113,-0.99779236,2.0223527
2.842,-2.8217642,6.0075293,-1.2769111,-1.6945535,-0.92764646,2.0101712
2.844,-2.9710193,5.976854,-1.246294,-1.60929,-0.85402644,1.9967653
2.846,-3.1161282,5.9411063,-1.2175732,-1.5227042,-0.7768786,1.98213
2.848,-3.256608,5.900455,-1.1909027,-1.4348263,-0.6961644,1.9663229
2.85,-3.3920913,5.8548226,-1.1665148,-1.3457339,-0.6119131,1.9494379
2.852,-3.5221128,5.804392,-1.1446602,-1.2555575,-0.52420074,1.9316168
2.854,-3.6462831,5.7494044,-1.1255441,-1.1644764,-0.4331686,1.9130138
2.856,-3.7644744,5.69028,-1.1096559,-1.0726995,-0.33902454,1.8938105
2.858,-3.8763452,5.6274266,-1.0971547,-0.9804681,-0.24204764,1.8741976
2.86,-3.9817255,5.5614114,-1.0884368,-0.88804924,-0.14259212,1.8543563
2.862,-4.080496,5.4927926,-1.0837928,-0.7957397,-0.041061625,1.83445
2.864,-4.172598,5.4222608,-1.0834825,-0.7038301,0.06206215,1.8146152
2.866,-4.257922,5.3505597,-1.0877492,-0.61262035,0.16625266,1.7949541
2.868,-4.336522,5.2782073,-1.09677,-0.52242404,0.27096772,1.7755394
2.87,-4.4084606,5.206113,-1.1108009,-0.4335451,0.3756084,1.7564023
2.872,-4.4736586,5.1348863,-1.1297989,-0.34628165,0.47958004,1.7375398
2.874,-4.532539,5.065278,-1.1537604,-0.26091167,0.58227587,1.7188917
2.876,-4.584969,4.9979653,-1.1827333,-0.17769536,0.68310994,1.7003605
2.878,-4.6313524,4.933476,-1.2165209,-0.09687129,0.7815197,1.6818206
2.88,-4.6718326,4.8723965,-1.2549384,-0.018626288,0.87696946,1.6631333
2.882,-4.70675,4.815238,-1.2978168,0.056871846,0.96897036,1.6441408
2.884,-4.73637,4.762424,-1.3448837,0.12950979,1.0571018,1.6247056
2.886,-4.760925,4.7142453,-1.3958216,0.19921172,1.1409975,1.6046654
2.888,-4.7807536,4.6710386,-1.4504001,0.26593435,1.220385,1.5838926
2.89,-4.796217,4.6330066,-1.5080442,0.3296644,1.2950711,1.5622644
2.892,-4.807642,4.6003013,-1.568567,0.39042854,1.3649317,1.5396824
2.894,-4.8154454,4.5729656,-1.6315179,0.44827378,1.4299366,1.5160742
2.896,-4.819826,4.551075,-1.6966033,0.50327194,1.4901407,1.4913886
2.898,-4.8212314,4.534544,-1.7634668,0.55550104,1.5456612,1.4655955
2.9,-4.8199363,4.52328,-1.8317907,0.60503376,1.5966669,1.4386902
2.902,-4.8162766,4.517153,-1.9012486,0.65195453,1.6433592,1.4107063
2.904,-4.8105397,4.51607,-1.9716532,0.696349,1.6859725,1.3817003
2.906,-4.8031034,4.519643,-2.0428128,0.7382858,1.7247378,1.3517573
2.908,-4.794191,4.5277143,-2.1144981,0.7778275,1.7598767,1.3209817
2.91,-4.783996,4.5398464,-2.186636,0.8150232,1.7915933,1.2894733
2.912,-4.77276,4.5557323,-2.2591453,0.8499137,1.8200696,1.2573178
2.914,-4.760653,4.5748663,-2.3318381,0.88255394,1.8454741,1.2246076
2.916,-4.7479897,4.596933,-2.4048045,0.9129915,1.8679518,1.1914085
2.918,-4.734983,4.6213446,-2.478004,0.94126666,1.8876489,1.1577507
2.92,-4.721633,4.6476345,-2.5514638,0.96745056,1.904678,1.1236427
2.922,-4.7083683,4.675235,-2.6251829,0.9916169,1.9191309,1.089046
2.924,-4.695139,4.70362,-2.6992164,1.0138562,1.9311115,1.0538999
2.926,-4.682129,4.7321205,-2.7737017,1.0342735,1.9407198,1.018145
2.928,-4.669602,4.760194,-2.8486483,1.0529861,1.9480591,0.9816938
2.93,-4.657701,4.7872953,-2.9241304,1.0701184,1.9532157,0.9444702
2.932,-4.646406,4.812903,-3.0001042,1.0858018,1.9562914,0.90641105
2.934,-4.635987,4.836362,-3.0766482,1.1001586,1.9573896,0.8674711
2.936,-4.626512,4.8571544,-3.1538193,1.1133311,1.9565961,0.8276365
2.938,-4.6182547,4.874922,-3.2316437,1.1254299,1.9539957,0.78693986
2.94,-4.6113915,4.8892035,-3.3100238,1.1365545,1.9496717,0.7454536
2.942,-4.6059885,4.899665,-3.3889294,1.1467882,1.9436623,0.7032957
2.944,-4.602209,4.905999,-3.4682946,1.1561999,1.9359932,0.6606161
2.946,-4.6001773,4.9079533,-3.5479631,1.1648324,1.9266863,0.61761445
2.948,-4.6000304,4.9053726,-3.6278422,1.1727253,1.9157089,0.57449377
2.95,-4.601836,4.8980637,-3.7078156,1.1798804,1.9030042,0.53147316
2.952,-4.605828,4.8860755,-3.7876067,1.1863008,1.8884908,0.48878062
2.954,-4.6120024,4.869288,-3.867094,1.1919951,1.8720561,0.4466185
2.956,-4.6205573,4.8478084,-3.9459689,1.1969459,1.8535775,0.40517443
2.958,-4.6314654,4.8217807,-4.02398,1.2011486,1.8329284,0.3645864
2.96,-4.6448016,4.7914467,-4.1007366,1.2046072,1.8099726,0.32495856
2.962,-4.6605196,4.757039,-4.1759076,1.2073259,1.7845824,0.28636456
2.964,-4.6788154,4.718829,-4.249113,1.2093203,1.7566562,0.24884325
2.966,-4.699488,4.676999,-4.3199067,1.2105972,1.726099,0.21241635
2.968,-4.7225614,4.6318407,-4.387974,1.211183,1.6928399,0.1770719
2.97,-4.747933,4.5837827,-4.452857,1.2111118,1.6568471,0.14278886
2.972,-4.775485,4.5330615,-4.5141506,1.2104344,1.61812,0.109545305
2.974,-4.804968,4.4799848,-4.571518,1.2092073,1.5767004,0.07731284
2.976,-4.8363585,4.424751,-4.6246185,1.2075057,1.5326797,0.046071567
2.978,-4.869341,4.367728,-4.6730494,1.2054164,1.4861876,0.015789717
2.98,-4.9030714,4.310549,-4.7172403,1.2030429,1.4373739,-0.013573602
2.982,-4.9380608,4.252475,-4.756683,1.2005068,1.3864319,-0.04203166
2.984,-4.9737644,4.1937647,-4.791236,1.1979216,1.3335912,-0.069616154
2.986,-5.0101767,4.134823,-4.820775,1.1954118,1.2790871,-0.09635052
2.988,-5.046769,4.0759015,-4.8454027,1.1930982,1.2231579,-0.12226015
2.99,-5.0834284,4.0173373,-4.8650875,1.1910794,1.1660551,-0.1473569
2.992,-5.1197786,3.9594061,-4.8799925,1.1894556,1.1080157,-0.17165318
2.994,-5.1557393,3.9023974,-4.8903475,1.1882985,1.0492545,-0.19514185
2.996,-5.190917,3.8465655,-4.8963614,1.1876551,0.98997027,-0.21782057
2.998,-5.2251873,3.792189,-4.8982434,1.1875513,0.9303269,-0.23966303
3,-5.258288,3.7395058,-4.8964424,1.1879973,0.8704428,-0.26063746
3.002,-5.2901,3.6886973,-4.8911943,1.1889787,0.8104273,-0.28069678
3.004,-5.3203874,3.6399326,-4.8829074,1.1904784,0.75034946,-0.2997993
3.006,-5.3491335,3.5932803,-4.8718834,1.1924663,0.6902581,-0.317922
3.008,-5.376261,3.5489655,-4.858582,1.1947373,0.63230926,-0.33458433
3.01,-5.401757,3.5070097,-4.8432655,1.1973149,0.5755217,-0.3500435
3.012,-5.4255414,3.4674346,-4.826331,1.2001224,0.52030593,-0.36425117
3.014,-5.447562,3.4302132,-4.808075,1.2030792,0.46711007,-0.37719804
3.016,-5.467794,3.3953905,-4.788809,1.2061101,0.41638082,-0.38890108
3.018,-5.486385,3.3627803,-4.768816,1.2091391,0.36852375,-0.39940104
3.02,-5.503413,3.3324804,-4.748303,1.2121129,0.32388115,-0.40877002
3.022,-5.51893,3.304402,-4.727418,1.2149713,0.28267968,-0.41708505
3.024,-5.5330586,3.2784188,-4.7064714,1.2176778,0.24501984,-0.42443764
3.026,-5.5458107,3.2543871,-4.6855326,1.2202097,0.2108933,-0.4309304
3.028,-5.5572505,3.2322583,-4.6647615,1.2225515,0.18018448,-0.4366595
3.03,-5.5675664,3.2119067,-4.64425,1.224701,0.1526902,-0.4417247
