Time_s_,Acc_x_m_s_2_,Acc_y_m_s_2_,Acc_z_m_s_2_,Gyro_x_1_s_,Gyro_y_1_s_,Gyro_z_1_s_
0,-0.48504883,0.53120214,-0.79828304,0.7513483,-0.18557364,1.0979624
0.002,-0.51729596,0.5643028,-0.7931737,0.752411,-0.19563818,1.1026614
0.004,-0.5522232,0.5996617,-0.7872122,0.7536788,-0.20692667,1.1078551
0.006,-0.5898626,0.6373097,-0.78033376,0.7551775,-0.21949935,1.1135911
0.008,-0.6303902,0.6772833,-0.77264965,0.7569487,-0.23338747,1.1199176
0.01,-0.674037,0.71985054,-0.76398295,0.75902593,-0.24853812,1.126889
0.012,-0.72070086,0.7649802,-0.75431854,0.76144254,-0.26484132,1.1345649
0.014,-0.7706311,0.81281453,-0.74342704,0.76422155,-0.28210425,1.1429867
0.016,-0.82375133,0.86339486,-0.7315435,0.76735944,-0.30006528,1.152168
0.018,-0.8800238,0.9168215,-0.7186025,0.7708348,-0.31841427,1.1620778
0.02,-0.9393886,0.9731703,-0.7048019,0.7745727,-0.33682752,1.172658
0.022,-1.0016893,1.0323828,-0.69024074,0.7784732,-0.3549959,1.1838208
0.024,-1.0667846,1.0943577,-0.6753435,0.7823936,-0.37267226,1.1954436
0.026,-1.134281,1.1588862,-0.6602495,0.7861734,-0.3896818,1.20738
0.028,-1.2039645,1.2259636,-0.64495385,0.78971016,-0.40641326,1.2197417
0.03,-1.2757033,1.2957622,-0.6295039,0.79271156,-0.4222057,1.2319772
0.032,-1.3491279,1.3684124,-0.6139283,0.7950187,-0.43716347,1.2439642
0.034,-1.42404,1.4439007,-0.5981251,0.7964935,-0.4514265,1.2556003
0.036,-1.5001438,1.5219629,-0.58209735,0.797032,-0.46511823,1.2668192
0.038,-1.5771618,1.6022059,-0.5657689,0.7965778,-0.47833496,1.2775847
0.04,-1.6548495,1.684292,-0.5493435,0.79512703,-0.4911273,1.2878844
0.042,-1.7330881,1.7680662,-0.53281313,0.792701,-0.50352335,1.2977622
0.044,-1.8117385,1.8534176,-0.5162982,0.7893527,-0.51551193,1.3072807
0.046,-1.8903685,1.9401987,-0.50056994,0.7851753,-0.5270305,1.3165406
0.048,-1.9689695,2.0284033,-0.48562282,0.7802709,-0.5380004,1.3256589
0.05,-2.0473084,2.1180606,-0.47179157,0.7747396,-0.54831123,1.3347378
0.052,-2.1254754,2.2092242,-0.45934063,0.7686929,-0.5578469,1.3438785
0.054,-2.2034824,2.3019137,-0.44804403,0.7622301,-0.5664828,1.3531866
0.056,-2.283545,2.398212,-0.4377873,0.7554053,-0.5741677,1.3627447
0.058,-2.3640168,2.4960895,-0.4282508,0.74825156,-0.58088255,1.3726085
0.06,-2.4449716,2.5955968,-0.41804394,0.7407894,-0.58662355,1.3828343
0.062,-2.5272927,2.6965299,-0.4072777,0.7330166,-0.5914021,1.3934109
0.064,-2.610214,2.79762,-0.39589334,0.7249154,-0.59530693,1.404301
0.066,-2.6937075,2.8991833,-0.3854529,0.7164595,-0.5984901,1.4154458
0.068,-2.7780843,3.0017958,-0.3761531,0.70763254,-0.6011778,1.4267887
0.07,-2.8635693,3.1055474,-0.36762464,0.698442,-0.6036357,1.4382606
0.072,-2.9502182,3.2107804,-0.35976395,0.6889204,-0.606138,1.4497719
0.074,-3.0380116,3.317632,-0.3527074,0.6791655,-0.60892105,1.4612044
0.076,-3.1268,3.4260335,-0.34638262,0.66931653,-0.61211604,1.4724025
0.078,-3.2163491,3.535582,-0.34054267,0.6595644,-0.6157924,1.4832062
0.08,-3.306307,3.645755,-0.3349282,0.65016115,-0.6198235,1.4935017
0.082,-3.3963137,3.7559955,-0.3296368,0.6413801,-0.62393963,1.5032398
0.084,-3.4855704,3.8659441,-0.3250931,0.63314945,-0.62898725,1.5117197
0.086,-3.5734763,3.9752202,-0.32176977,0.6262153,-0.6328533,1.5201559
0.088,-3.6591632,4.0837264,-0.32044357,0.62053335,-0.6359173,1.5283486
0.09,-3.7416775,4.191334,-0.32145452,0.61617243,-0.6379121,1.5366131
0.092,-3.8197765,4.2974734,-0.32545894,0.61307746,-0.63878983,1.5453147
0.094,-3.8921292,4.4014845,-0.33307186,0.61102515,-0.6387114,1.5549384
0.096,-3.9574988,4.502756,-0.34474516,0.6096815,-0.63805276,1.5659326
0.098,-4.0146713,4.6006427,-0.3606996,0.6085997,-0.637603,1.578503
0.1,-4.0626144,4.694513,-0.3810925,0.60725653,-0.63829315,1.5927474
0.102,-4.1001616,4.7837553,-0.40559798,0.60507566,-0.64105225,1.6086457
0.104,-4.12653,4.867692,-0.43348423,0.60143197,-0.6468592,1.6260487
0.106,-4.141016,4.9458013,-0.4634863,0.59573436,-0.65669006,1.6447151
0.108,-4.1432076,5.017625,-0.4941332,0.5874839,-0.6714402,1.6643766
0.11,-4.132725,5.0826993,-0.5244423,0.5763357,-0.6918517,1.6848062
0.112,-4.1094027,5.140601,-0.55321443,0.5620893,-0.71856993,1.7057804
0.114,-4.0730424,5.190816,-0.5789567,0.54470897,-0.7521611,1.7270579
0.116,-4.024282,5.233782,-0.6000433,0.5243399,-0.7930477,1.7483945
0.118,-3.963821,5.269651,-0.61477166,0.5013045,-0.8413942,1.7694312
0.12,-3.89291,5.298923,-0.6214132,0.47606862,-0.897025,1.789666
0.122,-3.812944,5.322174,-0.6186472,0.44919735,-0.9593378,1.8084946
0.124,-3.7251134,5.3397098,-0.60540026,0.42130747,-1.027258,1.8253126
0.126,-3.631216,5.3520503,-0.5804217,0.39303234,-1.0992014,1.839614
0.128,-3.5329583,5.359719,-0.54300773,0.36500683,-1.1731101,1.8510668
0.13,-3.4320323,5.363538,-0.49265158,0.3378554,-1.2466056,1.8595865
0.132,-3.3304138,5.3645434,-0.4295155,0.3121503,-1.3170952,1.8653897
0.134,-3.229993,5.3638916,-0.35395843,0.28838485,-1.3821399,1.8689332
0.136,-3.13256,5.3628387,-0.26719752,0.26698554,-1.4395828,1.8708638
0.138,-3.0394993,5.3624716,-0.17076236,0.2484883,-1.4870352,1.8722934
0.14,-2.9522922,5.363935,-0.066022776,0.2325629,-1.5252482,1.8726988
0.142,-2.8727682,5.3685336,0.045395248,0.21955222,-1.552885,1.8732297
0.144,-2.8020227,5.3773894,0.16144076,0.20923638,-1.5706774,1.8740531
0.146,-2.7410076,5.39153,0.28041375,0.20126957,-1.5800095,1.8750324
0.148,-2.690437,5.411921,0.400683,0.19515437,-1.5829077,1.8756968
0.15,-2.651289,5.439512,0.52100897,0.19024694,-1.5818104,1.8754547
0.152,-2.6237636,5.4747863,0.6398355,0.18586504,-1.579179,1.8737764
0.154,-2.6079407,5.5178995,0.75583166,0.18129092,-1.5776441,1.8700932
0.156,-2.60409,5.5689125,0.86838126,0.17586231,-1.5797673,1.8639454
0.158,-2.612153,5.6276693,0.9762694,0.16902477,-1.5877944,1.8550696
0.16,-2.6320045,5.69406,1.079028,0.16031039,-1.6035813,1.843372
0.162,-2.6629941,5.767495,1.1764812,0.14933795,-1.6286254,1.828849
0.164,-2.7045422,5.847388,1.2686191,0.13582575,-1.6640453,1.811551
0.166,-2.755616,5.9329853,1.3560505,0.119568765,-1.7105529,1.7915568
0.168,-2.8154547,6.023199,1.4392331,0.1004352,-1.7684786,1.7688872
0.17,-2.8833213,6.1170497,1.518342,0.07834923,-1.8377501,1.7434808
0.172,-2.957374,6.213355,1.5955892,0.053304613,-1.9179413,1.7151716
0.174,-3.0375793,6.3115277,1.6728123,0.025312304,-2.0082586,1.6837244
0.176,-3.1225948,6.4092493,1.7529491,-0.0055863857,-2.107585,1.6488783
0.178,-3.210746,6.5043664,1.8367695,-0.03931439,-2.214465,1.6104121
0.18,-3.2998638,6.5949736,1.9243466,-0.07577741,-2.3271017,1.5681806
0.182,-3.3882957,6.679265,2.0161362,-0.11485231,-2.4434257,1.522127
0.184,-3.4738872,6.7555194,2.1123183,-0.15634859,-2.5610964,1.4723058
0.186,-3.554764,6.8224993,2.2127688,-0.19994295,-2.6775563,1.418864
0.188,-3.628727,6.878973,2.3171377,-0.2451545,-2.7900743,1.3620437
0.19,-3.6933928,6.9234776,2.42478,-0.29133475,-2.8958054,1.3021643
0.192,-3.7468133,6.954508,2.5352066,-0.33761048,-2.991909,1.2396369
0.194,-3.7868574,6.970662,2.648121,-0.38289917,-3.075599,1.1749403
0.196,-3.8114529,6.9702096,2.7627802,-0.4259441,-3.144188,1.1085649
0.198,-3.8186545,6.9516582,2.8781528,-0.4653976,-3.1952767,1.041064
0.2,-3.806754,6.9136295,2.992982,-0.49996054,-3.226937,0.97310704
0.202,-3.7744124,6.855394,3.105972,-0.5284252,-3.2377677,0.9054207
0.204,-3.7202115,6.776387,3.2157838,-0.5497811,-3.2270312,0.8387769
0.206,-3.642793,6.67617,3.3207817,-0.56330264,-3.1947095,0.77392733
0.208,-3.5409386,6.554448,3.4194565,-0.56857646,-3.1413994,0.7115255
0.21,-3.413873,6.4113755,3.5101411,-0.5655359,-3.068294,0.65206355
0.212,-3.2613935,6.2472057,3.5906634,-0.5544466,-2.9770799,0.59588575
0.214,-3.0832613,6.0625186,3.6591775,-0.5358332,-2.8697934,0.54317915
0.216,-2.8801389,5.858171,3.7136726,-0.510413,-2.748637,0.49400714
0.218,-2.6528752,5.634845,3.7528036,-0.47901922,-2.615884,0.44832787
0.22,-2.4026427,5.3937707,3.776159,-0.44251984,-2.4737525,0.40600637
0.222,-2.1319344,5.1363645,3.7835393,-0.40183836,-2.3243766,0.36689937
0.224,-1.843081,4.8643475,3.77473,-0.35789645,-2.1698203,0.33081618
0.226,-1.5387194,4.5789876,3.74955,-0.31160927,-2.012067,0.29753342
0.228,-1.2245171,4.2836366,3.7090003,-0.2638669,-1.8531162,0.26677117
0.23,-0.9022317,3.9790266,3.654729,-0.21559972,-1.6950619,0.23816127
0.232,-0.57330513,3.664071,3.5862365,-0.16776723,-1.5401368,0.2112019
0.234,-0.24014333,3.3378966,3.5050268,-0.12135881,-1.3907257,0.18532124
0.236,0.09368649,3.0029373,3.4133453,-0.077409565,-1.2492706,0.15991269
0.238,0.42411867,2.664038,3.3108778,-0.03696516,-1.1182172,0.13433276
0.24,0.7477131,2.324109,3.1966438,-0.0010285676,-0.99986315,0.10792203
0.242,1.0617096,1.9836562,3.0714707,0.029500425,-0.89620495,0.08006267
0.244,1.3632386,1.6425958,2.9370546,0.053898916,-0.80884755,0.05022677
0.246,1.6491704,1.3016385,2.795587,0.071626276,-0.7388657,0.018037766
0.248,1.9127755,0.96339107,2.6483095,0.08233714,-0.686801,-0.016645752
0.25,2.1528049,0.62676466,2.5031173,0.0859605,-0.65256,-0.053771816
0.252,2.3774233,0.28616524,2.3674245,0.08266844,-0.635556,-0.093152314
0.254,2.5829802,-0.055288613,2.2372983,0.072766036,-0.63476735,-0.1343634
0.256,2.7652855,-0.39083958,2.1184275,0.056593537,-0.64898664,-0.17678966
0.258,2.9258914,-0.7153816,2.0167646,0.03436888,-0.6771165,-0.21976322
0.26,3.0674303,-1.0267789,1.924221,0.0066253543,-0.71733874,-0.26272
0.262,3.189498,-1.3218572,1.8361473,-0.025803648,-0.7675597,-0.3052581
0.264,3.2951474,-1.5977743,1.754966,-0.062258765,-0.82620573,-0.34669626
0.266,3.386831,-1.8538876,1.6834152,-0.10212088,-0.8913763,-0.3858934
0.268,3.464739,-2.0933495,1.6264133,-0.14466302,-0.9605726,-0.42178348
0.27,3.5295508,-2.320555,1.5854411,-0.18896824,-1.0310088,-0.45356584
0.272,3.5843747,-2.5355375,1.5519861,-0.23387562,-1.0995196,-0.48028442
0.274,3.6340022,-2.734121,1.5133135,-0.27796388,-1.1624224,-0.50050974
0.276,3.6830575,-2.9110322,1.4612474,-0.31964397,-1.2155586,-0.5123816
0.278,3.7336712,-3.05738,1.3945788,-0.3573738,-1.2544112,-0.5138763
0.28,3.7863178,-3.166219,1.3154534,-0.3898238,-1.2745141,-0.50311726
0.282,3.8393254,-3.231741,1.2268629,-0.41553104,-1.2714336,-0.47795743
0.284,3.8909621,-3.2463212,1.1298128,-0.43301293,-1.2419937,-0.4362753
0.286,3.9405813,-3.203505,1.020824,-0.44119447,-1.1847293,-0.37698406
0.288,3.9880204,-3.1008453,0.8947073,-0.43899745,-1.0983624,-0.30041844
0.29,4.031641,-2.9378195,0.7450062,-0.42486325,-0.9824859,-0.20835702
0.292,4.0685663,-2.714548,0.56458384,-0.39703238,-0.8386387,-0.10348947
0.294,4.0936193,-2.4314086,0.34693348,-0.35336652,-0.66877836,0.010908559
0.296,4.1025305,-2.0913897,0.08611786,-0.2912926,-0.47403038,0.13058913
0.298,4.0902896,-1.6999619,-0.22083342,-0.20801719,-0.25482872,0.25023466
0.3,4.0523376,-1.2636589,-0.57444805,-0.10012212,-0.0105305165,0.36429298
0.302,3.9844658,-0.7897595,-0.9735151,0.035982188,0.26025048,0.46739966
0.304,3.884031,-0.2870686,-1.416179,0.20267856,0.55827963,0.5543289
0.306,3.7502532,0.23388612,-1.9006245,0.39998835,0.88288254,0.62005377
0.308,3.583742,0.7615441,-2.4237256,0.62506473,1.2316854,0.6590606
0.31,3.3860888,1.2846678,-2.9794428,0.8719769,1.5998448,0.66557264
0.312,3.1603541,1.7917418,-3.5583453,1.1316917,1.979216,0.6349887
0.314,2.9109411,2.2710743,-4.1489925,1.3921705,2.357616,0.5648144
0.316,2.6437511,2.7111897,-4.7381496,1.6395916,2.7195432,0.45497394
0.318,2.3656187,3.1031022,-5.312294,1.8600712,3.047359,0.3079061
0.32,2.0846617,3.4398203,-5.85788,2.0407295,3.3217938,0.12889373
0.322,1.8096609,3.7165747,-6.3621707,2.1708152,3.523887,-0.073655486
0.324,1.5495031,3.9304187,-6.813415,2.2427015,3.6376493,-0.28919494
0.326,1.3132858,4.080127,-7.200175,2.2526515,3.652113,-0.5067127
0.328,1.1092706,4.16714,-7.5117464,2.2012043,3.5629296,-0.7160561
0.33,0.94463134,4.1946716,-7.738898,2.0931718,3.373574,-0.9088252
0.332,0.8258407,4.167553,-7.8749,1.9370596,3.0955272,-1.0789827
0.334,0.75707316,4.09185,-7.915867,1.7441813,2.7475872,-1.2233001
0.336,0.74145913,3.974432,-7.8604975,1.5272157,2.3536458,-1.3417463
0.338,0.78197503,3.8217235,-7.71089,1.2992396,1.9405986,-1.4365323
0.34,0.87560534,3.6429627,-7.471658,1.0728412,1.5349755,-1.5107219
0.342,1.0174882,3.448523,-7.1468163,0.8587678,1.1590029,-1.5678706
0.344,1.2027457,3.2470481,-6.7447,0.6650917,0.8297719,-1.6116776
0.346,1.4265859,3.043002,-6.27543,0.4972319,0.5586647,-1.6457388
0.348,1.6831846,2.839049,-5.7476034,0.35763472,0.34956902,-1.673032
0.35,1.9654685,2.6394434,-5.1705728,0.2459383,0.19930914,-1.6953523
0.352,2.2655134,2.4498522,-4.5560365,0.15951547,0.10002375,-1.7135075
0.354,2.5756707,2.274755,-3.9163823,0.093663275,0.040912732,-1.7282405
0.356,2.8889756,2.1164548,-3.2632625,0.04281026,0.010435075,-1.7402791
0.358,3.2015374,1.9749773,-2.6064222,0.0018525422,-0.0015521199,-1.7499689
0.36,3.504735,1.8531742,-1.9598697,-0.033265054,-0.0029577166,-1.7572882
0.362,3.784775,1.755697,-1.3332661,-0.06564087,0.00042152405,-1.761474
0.364,4.0422754,1.6775305,-0.72427094,-0.09753275,0.005244419,-1.7614387
0.366,4.2778873,1.6123729,-0.14036083,-0.13032758,0.010569751,-1.7566891
0.368,4.4873466,1.5576841,0.41339123,-0.16465697,0.017116234,-1.7471622
0.37,4.667829,1.514274,0.94470906,-0.20061576,0.026753262,-1.7328105
0.372,4.8201895,1.4823531,1.4547048,-0.23798701,0.041781947,-1.7136679
0.374,4.943065,1.4625776,1.9375185,-0.27633512,0.064146586,-1.6899682
0.376,5.0369606,1.4574322,2.3889089,-0.31506145,0.09498829,-1.6621593
0.378,5.1049795,1.4712254,2.8043108,-0.35345381,0.13442364,-1.6308305
0.38,5.148587,1.5069721,3.1840038,-0.3908309,0.18160495,-1.5966667
0.382,5.166856,1.562262,3.536461,-0.4266374,0.23498106,-1.5604072
0.384,5.1584883,1.6314245,3.87013,-0.46048498,0.29258335,-1.5227729
0.386,5.1232195,1.7098914,4.1844454,-0.49208164,0.352371,-1.4843198
0.388,5.063062,1.7917471,4.4730887,-0.5212303,0.41259032,-1.4453547
0.39,4.9813623,1.8745066,4.730386,-0.54779786,0.47206295,-1.4060199
0.392,4.881276,1.9581795,4.95028,-0.57169604,0.53030854,-1.366377
0.394,4.765261,2.0409212,5.130639,-0.59291816,0.58737326,-1.3263841
0.396,4.633751,2.121877,5.275075,-0.6116395,0.64349973,-1.2858791
0.398,4.486777,2.2027874,5.3885264,-0.6281778,0.6989868,-1.2447215
0.4,4.3251815,2.285242,5.4760337,-0.6429049,0.75415784,-1.2029668
0.402,4.1517572,2.36947,5.541262,-0.6562063,0.8092263,-1.1608937
0.404,3.9707441,2.4546795,5.585465,-0.6684509,0.86432594,-1.1188327
0.406,3.7848175,2.5400844,5.6090035,-0.6799653,0.9195157,-1.0771471
0.408,3.5963113,2.6249173,5.6103888,-0.6909907,0.9747984,-1.0362068
0.41,3.407775,2.7074094,5.5877185,-0.70168185,1.0301739,-0.9964201
0.412,3.2221894,2.784718,5.53983,-0.712042,1.0856332,-0.9581566
0.414,3.0410905,2.8545246,5.4662895,-0.7218818,1.141263,-0.9216326
0.416,2.8663802,2.9155536,5.3676867,-0.7307218,1.1975442,-0.8868853
0.418,2.6995149,2.9663558,5.2445593,-0.73793495,1.2550852,-0.8538573
0.42,2.542873,3.005351,5.095519,-0.74275327,1.3147694,-0.82225287
0.422,2.398323,3.0314426,4.9180307,-0.74423915,1.3778176,-0.79164946
0.424,2.267735,3.0442934,4.710264,-0.74138355,1.4455857,-0.761633
0.426,2.152367,3.0441606,4.4711394,-0.73315334,1.519437,-0.73179245
0.428,2.053198,3.030532,4.200572,-0.71854717,1.6006427,-0.7016577
0.43,1.9708645,3.0028148,3.89899,-0.6967268,1.6902279,-0.6707277
0.432,1.9067042,2.9600976,3.5687354,-0.66717434,1.7887969,-0.6385271
0.434,1.8608215,2.9019237,3.2125068,-0.62981296,1.8963343,-0.6048121
0.436,1.8320408,2.828561,2.8326888,-0.5851209,2.011865,-0.56962526
0.438,1.8196878,2.740221,2.4307802,-0.5342115,2.133197,-0.53314525
0.44,1.8236275,2.6369386,2.0086174,-0.47888297,2.256753,-0.49566317
0.442,1.8426636,2.5193768,1.5699368,-0.42164904,2.3774314,-0.45757663
0.444,1.8748846,2.388292,1.1197791,-0.36559463,2.4888337,-0.4193675
0.446,1.9177703,2.2447655,0.66418487,-0.3141585,2.5835834,-0.3815943
0.448,1.9684365,2.090235,0.20951235,-0.2708912,2.6538186,-0.34490457
0.45,2.0241697,1.9260471,-0.23775828,-0.23913425,2.6919196,-0.3099798
0.452,2.0823245,1.7534053,-0.6713513,-0.22172838,2.691304,-0.27748713
0.454,2.1401381,1.5736077,-1.0849769,-0.22072929,2.6471457,-0.24806538
0.456,2.1935406,1.3874656,-1.4730518,-0.23721164,2.556991,-0.22224177
0.458,2.24131,1.1938174,-1.8256936,-0.2711838,2.4211254,-0.20043868
0.46,2.280165,0.9933469,-2.1388483,-0.32160217,2.242673,-0.18293644
0.462,2.307881,0.7867093,-2.4083617,-0.3864485,2.0273418,-0.1698897
0.464,2.3230307,0.57423425,-2.6283684,-0.46291912,1.7827835,-0.16130218
0.466,2.3246162,0.3570193,-2.7973678,-0.54775584,1.5180206,-0.1570238
0.468,2.3113885,0.13639319,-2.9160578,-0.6375449,1.2426778,-0.15681626
0.47,2.2831311,-0.08802354,-2.9844048,-0.7290481,0.9659983,-0.16038357
0.472,2.2408552,-0.3171903,-3.0030403,-0.8192649,0.69652766,-0.16745207
0.474,2.1870735,-0.5520559,-2.9734454,-0.9056697,0.44141918,-0.17800915
0.476,2.1210673,-0.79306066,-2.8982086,-0.9863885,0.20608065,-0.19217962
0.478,2.0434299,-1.0404702,-2.7810388,-1.0601796,-0.005758643,-0.21016486
0.48,1.9572763,-1.2940571,-2.6270216,-1.1263907,-0.19204724,-0.23231773
0.482,1.8634757,-1.553248,-2.4399822,-1.184879,-0.3522868,-0.25919265
0.484,1.7649858,-1.8183178,-2.22286,-1.235759,-0.48715642,-0.29141045
0.486,1.6665308,-2.0894723,-1.980807,-1.2793461,-0.59841263,-0.32962334
0.488,1.5717123,-2.366407,-1.7193296,-1.316043,-0.68848747,-0.37419546
0.49,1.4829743,-2.648795,-1.4427621,-1.3460516,-0.7596081,-0.42516923
0.492,1.4015563,-2.9352245,-1.154908,-1.3696343,-0.8143419,-0.48261347
0.494,1.3281128,-3.2234018,-0.85896283,-1.3869017,-0.8549268,-0.5464697
0.496,1.2635422,-3.510706,-0.55739385,-1.39762,-0.8828782,-0.6165778
0.498,1.2092508,-3.7936332,-0.25418165,-1.401415,-0.89936066,-0.6929083
0.5,1.1658605,-4.068051,0.04620725,-1.3978846,-0.9052668,-0.7753954
0.502,1.1355456,-4.3310857,0.34257692,-1.3865993,-0.90104187,-0.86364263
0.504,1.1194702,-4.579498,0.6332171,-1.3671886,-0.8869392,-0.9569714
0.506,1.1180975,-4.809561,0.91524124,-1.339522,-0.8636279,-1.0546306
0.508,1.1308104,-5.0173287,1.186362,-1.3039736,-0.83224,-1.1554527
0.51,1.156853,-5.198314,1.4452825,-1.2615604,-0.7945763,-1.2577722
0.512,1.1943628,-5.3490644,1.6918608,-1.2139373,-0.75367814,-1.3598773
0.514,1.240755,-5.466552,1.9270532,-1.1633251,-0.71362126,-1.4600157
0.516,1.2932822,-5.5474205,2.1511161,-1.1123806,-0.67912686,-1.5563726
0.518,1.3498207,-5.589073,2.3633914,-1.0639131,-0.6553458,-1.647558
0.52,1.4070653,-5.589787,2.563002,-1.0205182,-0.6473981,-1.7327373
0.522,1.4615047,-5.548761,2.7488232,-0.9842303,-0.65951574,-1.8114165
0.524,1.5097117,-5.4663367,2.9197273,-0.9562786,-0.6942171,-1.8833926
0.526,1.5475403,-5.3445644,3.0745282,-0.9369297,-0.7516718,-1.9486407
0.528,1.5720196,-5.1869826,3.2113683,-0.9254084,-0.8293165,-2.007223
0.53,1.5812994,-4.9995313,3.3293092,-0.9199028,-0.92179537,-2.0592315
0.532,1.5687062,-4.7861576,3.4276237,-0.91772354,-1.0211327,-2.1046875
0.534,1.5343117,-4.55259,3.4975436,-0.91555935,-1.1172233,-2.1435156
0.536,1.4802067,-4.305626,3.5320294,-0.9098106,-1.1987518,-2.1755357
0.538,1.4043812,-4.0516634,3.5338175,-0.8969917,-1.2542827,-2.2006145
0.54,1.3034714,-3.7962725,3.5040069,-0.8739504,-1.2731779,-2.2188127
0.542,1.1781064,-3.5444274,3.4347844,-0.83831424,-1.2469337,-2.2306426
0.544,1.0352237,-3.3027234,3.3215973,-0.78891873,-1.1704643,-2.2369878
0.546,0.87698185,-3.0746248,3.1705241,-0.7256708,-1.0420225,-2.2388115
0.548,0.70336974,-2.8620071,2.98403,-0.64989555,-0.8642461,-2.2372088
0.55,0.51956964,-2.6686878,2.7572632,-0.5644073,-0.64421326,-2.2331133
0.552,0.331231,-2.4989114,2.491981,-0.47318697,-0.3925045,-2.2270772
0.554,0.14220095,-2.353884,2.1948957,-0.38101584,-0.12234412,-2.2195802
0.556,-0.04364848,-2.2326655,1.8703303,-0.29314393,0.15132192,-2.2111628
0.558,-0.22120309,-2.135373,1.5231925,-0.2147603,0.4133389,-2.202227
0.56,-0.38622165,-2.061909,1.1613216,-0.15029716,0.6501192,-2.1928923
0.562,-0.5354415,-2.0104725,0.7928751,-0.10299039,0.850598,-2.1835732
0.564,-0.6659245,-1.978184,0.42488942,-0.0747692,1.0072539,-2.1747901
0.566,-0.7743696,-1.9623561,0.06490573,-0.0661,1.1165762,-2.1668935
0.568,-0.86057097,-1.9592987,-0.28385672,-0.07598227,1.1787717,-2.1605337
0.57,-0.92317796,-1.967128,-0.61400056,-0.10208577,1.1979153,-2.1565323
0.572,-0.96180314,-1.98439,-0.9199637,-0.14117175,1.1812027,-2.1553757
0.574,-0.975443,-2.0108438,-1.1988767,-0.18943226,1.1373091,-2.1572325
0.576,-0.9710913,-2.045049,-1.4415901,-0.24286538,1.0754013,-2.162226
0.578,-0.9417525,-2.0898404,-1.6483161,-0.29762375,1.0048862,-2.1702838
0.58,-0.8857567,-2.1453876,-1.82959,-0.35033664,0.93421686,-2.1811059
0.582,-0.81359583,-2.2089875,-1.9794692,-0.39829075,0.8699603,-2.1940694
0.584,-0.7325271,-2.277784,-2.0949998,-0.43955475,0.81705046,-2.2080846
0.586,-0.6384406,-2.352612,-2.1831937,-0.47297922,0.7789253,-2.2219744
0.588,-0.5301197,-2.4347124,-2.247116,-0.49813488,0.7572712,-2.234763
0.59,-0.41449642,-2.5224254,-2.2904136,-0.5151622,0.7524158,-2.245521
0.592,-0.29664397,-2.6148958,-2.3199496,-0.5245725,0.7637747,-2.25334
0.594,-0.17742848,-2.71288,-2.342523,-0.5271682,0.7899517,-2.257534
0.596,-0.05886984,-2.8158984,-2.3631587,-0.5239183,0.8289095,-2.2577786
0.598,0.05542481,-2.921995,-2.3835692,-0.5158168,0.87829673,-2.2540877
0.6,0.1637435,-3.030237,-2.4053693,-0.50391155,0.93551415,-2.2468126
0.602,0.26673436,-3.1403966,-2.4316056,-0.48925608,0.99776226,-2.2366428
0.604,0.36361694,-3.2517507,-2.4638677,-0.47273606,1.0623713,-2.224536
0.606,0.45377874,-3.3640413,-2.5008686,-0.45527226,1.1264404,-2.211723
0.608,0.53634596,-3.4771423,-2.541067,-0.43770766,1.18769,-2.199159
0.61,0.61039793,-3.5900438,-2.5832882,-0.42058253,1.2439705,-2.187854
0.612,0.6745502,-3.7014914,-2.6265469,-0.4045285,1.2925287,-2.179008
0.614,0.72765064,-3.8106377,-2.6700902,-0.39004505,1.3320448,-2.1733096
0.616,0.7694689,-3.9165525,-2.7134178,-0.37727016,1.3620033,-2.1710339
0.618,0.80055344,-4.0182467,-2.758181,-0.36596155,1.3818749,-2.1723068
0.62,0.8210319,-4.1151276,-2.8065598,-0.35537702,1.3923385,-2.176998
0.622,0.8303709,-4.205849,-2.860223,-0.34456486,1.3947326,-2.1846874
0.624,0.8275019,-4.2889857,-2.9195867,-0.33265072,1.3904644,-2.1944268
0.626,0.8108516,-4.3629375,-2.9837832,-0.3186894,1.3815229,-2.204858
0.628,0.7784697,-4.425989,-3.0514162,-0.30183202,1.3704956,-2.2147157
0.63,0.72854257,-4.4765453,-3.1211963,-0.28150284,1.3600621,-2.22271
0.632,0.6597055,-4.5138073,-3.19121,-0.25753093,1.3522978,-2.2275712
0.634,0.5712285,-4.5375404,-3.2591634,-0.23024267,1.3489101,-2.2284942
0.636,0.46305203,-4.5469923,-3.3225813,-0.2004646,1.3511696,-2.225436
0.638,0.33531892,-4.541676,-3.378882,-0.16955423,1.3590643,-2.2191596
0.64,0.18785071,-4.5211296,-3.4261577,-0.13937974,1.3711083,-2.2110035
0.642,0.026408434,-4.488322,-3.4626267,-0.112189054,1.3848367,-2.202797
0.644,-0.14956248,-4.4453845,-3.479968,-0.09050065,1.3968313,-2.196949
0.646,-0.3395214,-4.3947935,-3.4738503,-0.07692909,1.4029982,-2.1960404
0.648,-0.5374999,-4.340027,-3.448535,-0.073836446,1.3993356,-2.202369
0.65,-0.7367711,-4.2852144,-3.403291,-0.08305794,1.3825278,-2.2177198
0.652,-0.93460226,-4.234221,-3.3298087,-0.105721414,1.3503146,-2.2432585
0.654,-1.1308625,-4.1892104,-3.2253838,-0.14204884,1.3019149,-2.279251
0.656,-1.3185298,-4.155113,-3.0958831,-0.19131762,1.238256,-2.3249972
0.658,-1.4901357,-4.136692,-2.9403834,-0.25199807,1.1617163,-2.3788831
0.66,-1.6441776,-4.134829,-2.7523293,-0.32169062,1.0760942,-2.4385157
0.662,-1.777379,-4.1500244,-2.5335124,-0.3975425,0.9854617,-2.5012872
0.664,-1.8854151,-4.1845317,-2.2900863,-0.4766379,0.8943782,-2.564171
0.666,-1.9656949,-4.240308,-2.0245888,-0.55591,0.8076832,-2.6240737
0.668,-2.0176334,-4.3169694,-1.7393214,-0.6327549,0.7282616,-2.6786816
0.67,-2.041278,-4.413069,-1.4388101,-0.70522547,0.65823245,-2.726187
0.672,-2.0368798,-4.527884,-1.1269782,-0.7720123,0.5994432,-2.7653112
0.674,-2.0058038,-4.660468,-0.8072084,-0.83265924,0.55243605,-2.7954235
0.676,-1.9499452,-4.80868,-0.48384622,-0.88716435,0.5171565,-2.8164396
0.678,-1.8720727,-4.9699326,-0.16149712,-0.93579566,0.4931819,-2.829128
0.68,-1.7747066,-5.1421556,0.1562508,-0.9791918,0.47978845,-2.834706
0.682,-1.6611385,-5.3232193,0.46560472,-1.018267,0.47629157,-2.8342178
0.684,-1.5361755,-5.51019,0.7626602,-1.0540085,0.48188564,-2.8286855
0.686,-1.3984267,-5.70218,1.0406197,-1.0873773,0.4957447,-2.819142
0.688,-1.2590423,-5.894939,1.3008391,-1.1192394,0.517071,-2.8062818
0.69,-1.1219678,-6.086801,1.5482662,-1.1504245,0.54496187,-2.790551
0.692,-0.9815161,-6.279071,1.770695,-1.1816173,0.57844234,-2.7722757
0.694,-0.8388183,-6.4727964,1.9622855,-1.213315,0.6164762,-2.751614
0.696,-0.7018912,-6.6661725,2.1274133,-1.245866,0.6579081,-2.7285988
0.698,-0.5750449,-6.858033,2.265293,-1.2794235,0.70160806,-2.7032661
0.7,-0.45598674,-7.0500774,2.375967,-1.3139441,0.7464788,-2.6757329
0.702,-0.34360123,-7.2425113,2.4605303,-1.34926,0.7915078,-2.6461203
0.704,-0.24245596,-7.432968,2.519219,-1.385094,0.83585495,-2.614618
0.706,-0.15501595,-7.62096,2.552133,-1.4210979,0.87876487,-2.581489
0.708,-0.08012962,-7.807232,2.5567641,-1.4568704,0.91956824,-2.547094
0.71,-0.017507553,-7.9908915,2.5309358,-1.4919722,0.9576516,-2.5118604
0.712,0.03107071,-8.170837,2.4746637,-1.5259632,0.992471,-2.47628
0.714,0.0653429,-8.346856,2.387716,-1.5584457,1.02359,-2.4408128
0.716,0.084204674,-8.517709,2.2698023,-1.589096,1.050726,-2.405915
0.718,0.08628249,-8.681839,2.1225154,-1.617636,1.0738093,-2.3720865
0.72,0.07089949,-8.838163,1.9484261,-1.6438652,1.0929669,-2.3398118
0.722,0.03800249,-8.985133,1.7502323,-1.667597,1.1085445,-2.3094523
0.724,-0.011600494,-9.121193,1.5308098,-1.6886765,1.1211059,-2.2812467
0.726,-0.07725811,-9.245318,1.2928823,-1.706986,1.1313704,-2.2553358
0.728,-0.15833616,-9.357271,1.040151,-1.7224683,1.1401559,-2.2317235
0.73,-0.25382924,-9.456844,0.7760668,-1.7351213,1.1482567,-2.2103393
0.732,-0.36219788,-9.543741,0.50358164,-1.7449801,1.1563613,-2.191022
0.734,-0.48123837,-9.617718,0.22483961,-1.7521577,1.1650288,-2.1734874
0.736,-0.6086464,-9.678345,-0.05786717,-1.7568122,1.1745834,-2.1574101
0.738,-0.7418549,-9.725455,-0.3419001,-1.7591988,1.1851418,-2.1425045
0.74,-0.8783078,-9.75915,-0.62359923,-1.7596077,1.1966739,-2.1285646
0.742,-1.0157042,-9.77919,-0.8997853,-1.7583334,1.2090079,-2.1155567
0.744,-1.1517608,-9.785734,-1.1669979,-1.7556746,1.2219392,-2.1035547
0.746,-1.2841673,-9.779738,-1.4221691,-1.7519047,1.2352123,-2.0927522
0.748,-1.4103303,-9.76239,-1.6629503,-1.7472283,1.248598,-2.0834455
0.75,-1.5271902,-9.735295,-1.8878776,-1.7417637,1.2619315,-2.0760157
0.752,-1.6318119,-9.70025,-2.0956612,-1.7355855,1.2750275,-2.0708697
0.754,-1.7207432,-9.659071,-2.2855086,-1.7287388,1.2876703,-2.0684426
0.756,-1.790865,-9.613685,-2.4569488,-1.7212396,1.2995751,-2.0691767
0.758,-1.8392432,-9.56664,-2.6092947,-1.7130404,1.3104204,-2.07343
0.76,-1.8629951,-9.520533,-2.7430992,-1.7040532,1.3199569,-2.0814452
0.762,-1.8602784,-9.477742,-2.8593967,-1.6941512,1.327992,-2.093328
0.764,-1.830379,-9.44,-2.9597292,-1.6831638,1.3344241,-2.1090207
0.766,-1.7730594,-9.408616,-3.0456655,-1.6708734,1.3393164,-2.1283472
0.768,-1.6881738,-9.384514,-3.1187506,-1.6570005,1.3428584,-2.151028
0.77,-1.5754104,-9.368723,-3.180182,-1.6411979,1.3453548,-2.176599
0.772,-1.4356618,-9.362119,-3.2318015,-1.623084,1.3472149,-2.20446
0.774,-1.2694354,-9.365576,-3.2749798,-1.6022754,1.3489205,-2.233874
0.776,-1.0781727,-9.379701,-3.3113966,-1.5784554,1.3509394,-2.2640958
0.778,-0.8644519,-9.404567,-3.3432393,-1.5513899,1.35361,-2.2943485
0.78,-0.63158846,-9.440059,-3.3729093,-1.5209881,1.357121,-2.3238251
0.782,-0.38340378,-9.485483,-3.402763,-1.4873147,1.3614932,-2.3517323
0.784,-0.12391591,-9.539694,-3.434627,-1.450607,1.3666329,-2.377354
0.786,0.14260054,-9.601362,-3.4698906,-1.4112451,1.3723791,-2.4001029
0.788,0.41170025,-9.6692915,-3.5093803,-1.3697114,1.3785185,-2.4195454
0.79,0.6791265,-9.742123,-3.5540578,-1.3265831,1.384893,-2.4353647
0.792,0.9409025,-9.818938,-3.6047566,-1.2825019,1.3914331,-2.447286
0.794,1.1931512,-9.8989525,-3.6618834,-1.2381483,1.398111,-2.4550672
0.796,1.4323659,-9.981689,-3.7254868,-1.194203,1.404964,-2.4585097
0.798,1.6549051,-10.0666685,-3.794979,-1.1512319,1.4120333,-2.4575486
0.8,1.8574796,-10.153285,-3.8698747,-1.1097354,1.4193366,-2.452229
0.802,2.0371916,-10.241039,-3.9498696,-1.0701802,1.426764,-2.442639
0.804,2.191623,-10.329782,-4.0347757,-1.0329869,1.4340647,-2.4288268
0.806,2.3185067,-10.4194,-4.124097,-0.998516,1.4408641,-2.4108362
0.808,2.4161618,-10.509641,-4.2166204,-0.9670817,1.4466712,-2.388732
0.81,2.4828668,-10.600313,-4.3110123,-0.9389855,1.4508768,-2.3625355
0.812,2.5178347,-10.691099,-4.40623,-0.9145103,1.4527879,-2.3322897
0.814,2.5205767,-10.781623,-4.5009475,-0.8939167,1.4516652,-2.2981427
0.816,2.4911828,-10.871655,-4.59307,-0.8773821,1.4468334,-2.2604268
0.818,2.4299068,-10.961012,-4.6803465,-0.8649706,1.4377851,-2.2196717
0.82,2.337419,-11.0492115,-4.7607408,-0.8565893,1.4242518,-2.1765778
0.822,2.2149794,-11.135597,-4.832221,-0.85196435,1.4063556,-2.131987
0.824,2.0640986,-11.2189865,-4.8934383,-0.8506292,1.384599,-2.0869029
0.826,1.8866358,-11.298471,-4.943436,-0.8519162,1.3598568,-2.042376
0.828,1.6849074,-11.373136,-4.9819403,-0.85496926,1.3333452,-1.9994582
0.83,1.461271,-11.442067,-5.0083914,-0.8587825,1.3065822,-1.959147
0.832,1.2179582,-11.504516,-5.022076,-0.86230063,1.2812655,-1.922368
0.834,0.95758057,-11.559643,-5.022672,-0.86444974,1.259136,-1.8899319
0.836,0.6827047,-11.606739,-5.0105877,-0.8641556,1.2418358,-1.8625278
0.838,0.3967688,-11.644652,-4.986968,-0.86040914,1.2308409,-1.8406954
0.84,0.10344958,-11.672938,-4.9533253,-0.85230994,1.2274117,-1.8248531
0.842,-0.19378161,-11.691463,-4.9113703,-0.8390704,1.2325256,-1.8153169
0.844,-0.49160624,-11.700375,-4.863411,-0.81999385,1.2468528,-1.812306
0.846,-0.78633,-11.700479,-4.8120794,-0.79449475,1.2707438,-1.8159151
0.848,-1.0749474,-11.692455,-4.7602005,-0.7621496,1.3042315,-1.826036
0.85,-1.3540726,-11.677633,-4.7111387,-0.7227565,1.3469712,-1.8422725
0.852,-1.6202055,-11.6578245,-4.668268,-0.6764282,1.3981698,-1.8639206
0.854,-1.8701196,-11.63532,-4.634757,-0.62357515,1.4566214,-1.890008
0.856,-2.101254,-11.61243,-4.6136503,-0.5648874,1.5207535,-1.9194161
0.858,-2.3110485,-11.591588,-4.6079993,-0.50135744,1.588599,-1.9509466
0.86,-2.498038,-11.574642,-4.620588,-0.43426728,1.6577915,-1.9833661
0.862,-2.661441,-11.563553,-4.653803,-0.36511862,1.7257103,-2.0154269
0.864,-2.8004925,-11.5607,-4.7094126,-0.29555592,1.7895648,-2.0459874
0.866,-2.9148989,-11.568426,-4.7889395,-0.22729829,1.8464711,-2.0740647
0.868,-3.0046136,-11.58862,-4.8936176,-0.16200224,1.8935951,-2.0988472
0.87,-3.0703292,-11.62284,-5.023672,-0.10113555,1.9282951,-2.11972
0.872,-3.1128604,-11.672216,-5.1788855,-0.04588467,1.9482682,-2.1362836
0.874,-3.133546,-11.738141,-5.358,0.0028629005,1.9515818,-2.148339
0.876,-3.133764,-11.821851,-5.5596867,0.04458517,1.9368358,-2.155889
0.878,-3.1166399,-11.923928,-5.782571,0.07915087,1.9032987,-2.1591148
0.88,-3.0859666,-12.0440445,-6.025038,0.10679628,1.8509421,-2.1583698
0.882,-3.0455558,-12.180895,-6.2853575,0.12808308,1.780463,-2.154104
0.884,-2.9990072,-12.332592,-6.5615587,0.14383717,1.6932421,-2.1467977
0.886,-2.9496815,-12.49705,-6.850798,0.15511602,1.5913115,-2.1369143
0.888,-2.9008896,-12.672264,-7.150593,0.16310152,1.4772296,-2.1248906
0.89,-2.8556778,-12.855827,-7.457997,0.16904418,1.3540289,-2.1111295
0.892,-2.817196,-13.045312,-7.769946,0.17422877,1.2249151,-2.0960467
0.894,-2.7889218,-13.238503,-8.08325,0.17991447,1.0931175,-2.0800362
0.896,-2.7740636,-13.432939,-8.395016,0.187296,0.9618285,-2.0634089
0.898,-2.775454,-13.625634,-8.702706,0.19743747,0.83401614,-2.0463967
0.9,-2.7961152,-13.813541,-9.003868,0.21122988,0.7123031,-2.0291557
0.902,-2.8387866,-13.993465,-9.296561,0.22933814,0.5988433,-2.0117774
0.904,-2.9051976,-14.162527,-9.579171,0.25219667,0.49527735,-1.9943271
0.906,-2.996912,-14.318025,-9.849858,0.27999842,0.40268633,-1.9768039
0.908,-3.114901,-14.457678,-10.106502,0.3126828,0.32153898,-1.9591246
0.91,-3.2595417,-14.579604,-10.34691,0.34994078,0.2517595,-1.9411402
0.912,-3.4303424,-14.682295,-10.569357,0.3912731,0.19281079,-1.9226891
0.914,-3.6264107,-14.764662,-10.77228,0.43601924,0.14375852,-1.9035503
0.916,-3.846123,-14.826069,-10.954695,0.48344886,0.10335077,-1.8835342
0.918,-4.08798,-14.866148,-11.115983,0.53280765,0.07011527,-1.862463
0.92,-4.3495965,-14.884942,-11.254714,0.5833988,0.042500466,-1.840089
0.922,-4.628107,-14.882914,-11.369707,0.6346205,0.018912286,-1.816124
0.924,-4.9211297,-14.86114,-11.460403,0.68598324,-0.0022066832,-1.7902445
0.926,-5.224761,-14.820999,-11.526489,0.737115,-0.022411048,-1.7621251
0.928,-5.5352573,-14.764015,-11.568196,0.7877964,-0.043186754,-1.7314694
0.93,-5.8488593,-14.692063,-11.586045,0.8378834,-0.06603652,-1.6980623
0.932,-6.1608624,-14.607183,-11.580876,0.88725656,-0.09247884,-1.6617885
0.934,-6.4675474,-14.511322,-11.553602,0.9358286,-0.124015346,-1.6227055
0.936,-6.764889,-14.406595,-11.50403,0.98352927,-0.1620852,-1.5811106
0.938,-7.048271,-14.295393,-11.432286,1.0302535,-0.20803693,-1.5375495
0.94,-7.314107,-14.179983,-11.340784,1.0759008,-0.26302576,-1.4927924
0.942,-7.558569,-14.062509,-11.231814,1.1203959,-0.32793185,-1.4478025
0.944,-7.7780604,-13.944902,-11.107515,1.1636633,-0.4033331,-1.4036309
0.946,-7.9691124,-13.828962,-10.970753,1.2056584,-0.4893534,-1.3613378
0.948,-8.1290045,-13.716689,-10.823814,1.2463986,-0.58570313,-1.3219495
0.95,-8.25544,-13.609337,-10.669392,1.2859576,-0.69170403,-1.2864554
0.952,-8.346266,-13.50816,-10.5106325,1.3244704,-0.80631953,-1.2557127
0.954,-8.399524,-13.414359,-10.35035,1.3621154,-0.92821294,-1.2303998
0.956,-8.414089,-13.329042,-10.190922,1.3991308,-1.0558146,-1.210992
0.958,-8.389086,-13.253016,-10.034497,1.4357499,-1.187433,-1.1977218
0.96,-8.324488,-13.186461,-9.88319,1.4722217,-1.3213465,-1.1906319
0.962,-8.220599,-13.129363,-9.739,1.5087705,-1.4558419,-1.189594
0.964,-8.078551,-13.080989,-9.603925,1.5455874,-1.5893332,-1.194285
0.966,-7.8993897,-13.041094,-9.47882,1.5828252,-1.7203459,-1.2041845
0.968,-7.684876,-13.00914,-9.364813,1.6206949,-1.8473942,-1.2186034
0.97,-7.437681,-12.984702,-9.26115,1.6593914,-1.96912,-1.2366551
0.972,-7.1600437,-12.9669285,-9.165963,1.6991203,-2.084236,-1.257312
0.974,-6.856587,-12.953871,-9.080202,1.7401116,-2.191466,-1.2794559
0.976,-6.53102,-12.943447,-9.003982,1.7825643,-2.2896247,-1.3018978
0.978,-6.187644,-12.933159,-8.936865,1.8266484,-2.3776867,-1.3234531
0.98,-5.8329678,-12.92034,-8.879052,1.8724974,-2.4546816,-1.342978
0.982,-5.468995,-12.9044285,-8.827139,1.9201765,-2.5198376,-1.35947
0.984,-5.099674,-12.882959,-8.777152,1.9696782,-2.572711,-1.3721199
0.986,-4.731342,-12.853133,-8.727916,2.0208604,-2.6132867,-1.3803433
0.988,-4.366278,-12.812428,-8.676681,2.0734088,-2.642033,-1.3837852
0.99,-4.0084023,-12.758609,-8.620275,2.1268206,-2.6600106,-1.3823773
0.992,-3.6610024,-12.68968,-8.5542555,2.1804354,-2.668927,-1.3763989
0.994,-3.327761,-12.603874,-8.474225,2.23337,-2.671125,-1.3664384
0.996,-3.011472,-12.499743,-8.377096,2.2845798,-2.6695065,-1.353339
0.998,-2.7139297,-12.376147,-8.2597475,2.3328822,-2.667343,-1.3381299
1,-2.436364,-12.232429,-8.118785,2.3769648,-2.6682158,-1.3219655
1.002,-2.1794586,-12.068144,-7.950754,2.4155211,-2.6755228,-1.3060124
1.004,-1.9426242,-11.88303,-7.75185,2.4472163,-2.6923652,-1.2913518
1.006,-1.7249765,-11.677543,-7.518174,2.4707272,-2.721453,-1.2789382
1.008,-1.5246913,-11.452693,-7.245488,2.4848897,-2.7648294,-1.269498
1.01,-1.3396192,-11.209803,-6.9299774,2.4886198,-2.8238897,-1.2634721
1.012,-1.1669205,-10.950162,-6.5682693,2.4809558,-2.8994534,-1.2610193
1.014,-1.0037905,-10.675016,-6.157463,2.4611626,-2.9914703,-1.2620363
1.016,-0.8467685,-10.385983,-5.6948633,2.4286013,-3.0993161,-1.2661777
1.018,-0.6921482,-10.084521,-5.1783266,2.382774,-3.2218997,-1.27287
1.02,-0.5363095,-9.771912,-4.6057734,2.3233178,-3.357819,-1.281353
1.022,-0.37593317,-9.449357,-3.9752226,2.2499235,-3.5055656,-1.2907269
1.024,-0.2078751,-9.11753,-3.2852468,2.1623847,-3.6633427,-1.299992
1.026,-0.029445201,-8.776901,-2.5348878,2.0605738,-3.8292081,-1.3080702
1.028,0.16191903,-8.427772,-1.7239655,1.9444077,-4.0011334,-1.3138856
1.03,0.36787343,-8.069822,-0.8539992,1.8139138,-4.176875,-1.3164021
1.032,0.58924115,-7.702328,0.07320779,1.6692244,-4.3538465,-1.3146896
1.034,0.8267996,-7.32384,1.0551224,1.5106401,-4.5291457,-1.3080419
1.036,1.0795557,-6.9328537,2.088207,1.3386445,-4.699456,-1.296028
1.038,1.3466281,-6.5277767,3.1683173,1.1539117,-4.861071,-1.2784756
1.04,1.6264439,-6.106716,4.2902927,0.9573519,-5.0100055,-1.2555006
1.042,1.9164177,-5.667833,5.447706,0.75008357,-5.1421328,-1.2274957
1.044,2.214331,-5.2093124,6.6332335,0.53341997,-5.253321,-1.1950649
1.046,2.517428,-4.7290344,7.837426,0.30880708,-5.339644,-1.158926
1.048,2.821915,-4.2249036,9.050959,0.07778597,-5.397509,-1.1198784
1.05,3.1246681,-3.694962,10.265166,-0.15807465,-5.4238105,-1.0787241
1.052,3.4221845,-3.1375127,11.469755,-0.3972506,-5.4160566,-1.0362282
1.054,3.7107806,-2.5513668,12.654609,-0.63828856,-5.372341,-0.99307966
1.056,3.9872043,-1.9354875,13.8101635,-0.87994874,-5.291597,-0.9498825
1.058,4.2487826,-1.289175,14.925795,-1.1211501,-5.1734204,-0.90710205
1.06,4.4928365,-0.61224186,15.991202,-1.3609986,-5.0179844,-0.8650622
1.062,4.7173333,0.0953304,16.99672,-1.5988708,-4.8261437,-0.8239882
1.064,4.920552,0.83318835,17.933172,-1.8342862,-4.599324,-0.78403515
1.066,5.101704,1.6006477,18.791931,-2.0669115,-4.339479,-0.745279
1.068,5.2604513,2.3965082,19.565676,-2.2966344,-4.049278,-0.70773995
1.07,5.3976035,3.2187376,20.24853,-2.5233421,-3.7317762,-0.67139876
1.072,5.51408,4.0652475,20.83686,-2.7470264,-3.3903418,-0.63623655
1.074,5.6116366,4.9332,21.328299,-2.9677467,-3.028631,-0.60225934
1.076,5.692205,5.8197865,21.720825,-3.1855836,-2.6504886,-0.56951463
1.078,5.758106,6.7217484,22.014555,-3.4006202,-2.2599785,-0.53810024
1.08,5.8123417,7.6357894,22.210083,-3.6129456,-1.8612183,-0.5081642
1.082,5.857718,8.558345,22.308914,-3.8227088,-1.4583457,-0.47990012
1.084,5.8982615,9.4853115,22.316675,-4.030087,-1.0554857,-0.45357606
1.086,5.9368267,10.412898,22.238802,-4.2353396,-0.65676093,-0.4295159
1.088,5.9765596,11.336888,22.081532,-4.438826,-0.2662145,-0.40809542
1.09,6.0221195,12.253218,21.8525,-4.6409855,0.11225486,-0.3897019
1.092,6.073656,13.159433,21.557386,-4.842282,0.47502586,-0.37479374
1.094,6.1340623,14.051169,21.202923,-5.043172,0.81885326,-0.3638832
1.096,6.2070847,14.924467,20.799294,-5.244051,1.1409585,-0.3574822
1.098,6.293085,15.775902,20.355076,-5.4452186,1.4391689,-0.3560944
1.1,6.394094,16.60258,19.878315,-5.6468453,1.7119713,-0.3602098
1.102,6.511225,17.401722,19.376112,-5.8489738,1.9585578,-0.37025982
1.104,6.6454153,18.171131,18.85577,-6.051451,2.1788611,-0.38661885
1.106,6.7967715,18.90895,18.324945,-6.2539454,2.373454,-0.40957648
1.108,6.9643807,19.614141,17.790918,-6.456009,2.543433,-0.43931907
1.11,7.146511,20.285877,17.259705,-6.6570606,2.69032,-0.4759544
1.112,7.3409433,20.923454,16.736414,-6.856444,2.815962,-0.51952285
1.114,7.544879,21.526312,16.225243,-7.053485,2.9223528,-0.5699798
1.116,7.754996,22.09446,15.729052,-7.2474895,3.0114663,-0.6272186
1.118,7.9672766,22.628233,15.249521,-7.4377785,3.085212,-0.6910608
1.12,8.177745,23.12827,14.788204,-7.6236835,3.145398,-0.7613032
1.122,8.38213,23.595028,14.346649,-7.804521,3.1937044,-0.8377193
1.124,8.575812,24.029072,13.925754,-7.9796453,3.2316835,-0.9200747
1.126,8.754091,24.431355,13.525054,-8.1484165,3.2607596,-1.0080988
1.128,8.911875,24.803127,13.142996,-8.310272,3.2822518,-1.1014681
1.13,9.044182,25.145876,12.777548,-8.464726,3.2973394,-1.1998084
1.132,9.14632,25.461182,12.426475,-8.611424,3.3070493,-1.3027028
1.134,9.214182,25.75044,12.0871105,-8.750112,3.3123155,-1.4096626
1.136,9.244418,26.014856,11.75643,-8.8806305,3.314041,-1.5201511
1.138,9.2342205,26.255648,11.431408,-9.002934,3.3131003,-1.6335582
1.14,9.181331,26.474056,11.109573,-9.117036,3.3104205,-1.7492443
1.142,9.084324,26.670895,10.788152,-9.222948,3.3070164,-1.8665642
1.144,8.942371,26.846909,10.46491,-9.320721,3.3040085,-1.9848588
1.146,8.755226,27.002773,10.137702,-9.410426,3.302536,-2.1034608
1.148,8.523591,27.139164,9.8043375,-9.492155,3.3037324,-2.2217379
1.15,8.248888,27.25655,9.463898,-9.566058,3.3086643,-2.3390634
1.152,7.932942,27.355558,9.116268,-9.632316,3.3182282,-2.4548388
1.154,7.578566,27.436497,8.761553,-9.691135,3.3331003,-2.5684803
1.156,7.1889877,27.499723,8.400107,-9.7428055,3.3536448,-2.6794188
1.158,6.768073,27.545725,8.032239,-9.78768,3.3798954,-2.7871196
1.16,6.3205013,27.574764,7.6587067,-9.8261385,3.4116724,-2.891068
1.162,5.8513865,27.587008,7.2811136,-9.858539,3.448621,-2.990798
1.164,5.3665295,27.582563,6.901176,-9.885194,3.4902039,-3.0859098
1.166,4.8719854,27.561562,6.521169,-9.906357,3.5357232,-3.1760883
1.168,4.37326,27.524107,6.1435328,-9.922167,3.5844383,-3.2611084
1.17,3.8764272,27.470398,5.770756,-9.932703,3.6356256,-3.3408625
1.172,3.38697,27.40097,5.4053993,-9.937949,3.6885471,-3.4154253
1.174,2.910026,27.31677,5.049905,-9.937855,3.7424355,-3.485033
1.176,2.4505696,27.218733,4.7060785,-9.932355,3.7964768,-3.5500615
1.178,2.0131974,27.107704,4.3756046,-9.921429,3.849824,-3.6109922
1.18,1.6016574,26.984848,4.0599804,-9.9051075,3.9016588,-3.6683607
1.182,1.2194762,26.851318,3.7598925,-9.88347,3.9512465,-3.7227383
1.184,0.86975336,26.708588,3.4760551,-9.856672,3.9978957,-3.7746751
1.186,0.5548744,26.558151,3.2093363,-9.824933,4.040986,-3.8246522
1.188,0.276227,26.401678,2.9600239,-9.788531,4.08,-3.8730805
1.19,0.03464079,26.240826,2.7272692,-9.747728,4.114572,-3.920336
1.192,-0.17053843,26.077461,2.5097466,-9.702758,4.1445627,-3.9667556
1.194,-0.34024525,25.91359,2.3058405,-9.6537895,4.1700516,-4.0126896
1.196,-0.47606945,25.751104,2.114006,-9.600887,4.1913757,-4.058547
1.198,-0.5801735,25.591896,1.9317617,-9.543998,4.20914,-4.1048145
1.2,-0.65543413,25.437677,1.7565022,-9.483002,4.224226,-4.152047
1.202,-0.7050786,25.2902,1.5850477,-9.417709,4.2376595,-4.2008514
1.204,-0.73266363,25.15101,1.4140086,-9.347936,4.2506037,-4.2518673
1.206,-0.7419486,25.021254,1.2398224,-9.273589,4.264277,-4.3057113
1.208,-0.73702717,24.901905,1.0592608,-9.194657,4.279839,-4.3629446
1.21,-0.72174406,24.793585,0.8697977,-9.111251,4.2983985,-4.423998
1.212,-0.7000823,24.697157,0.6688175,-9.023581,4.3209314,-4.489127
1.214,-0.6756573,24.612812,0.45420694,-8.931992,4.3482614,-4.558432
1.216,-0.6516576,24.540482,0.223485,-8.836891,4.381029,-4.6318536
1.218,-0.63081884,24.479977,-0.025614262,-8.738789,4.419757,-4.70917
1.22,-0.61534834,24.430859,-0.29480553,-8.638203,4.4648547,-4.790041
1.222,-0.60688233,24.39225,-0.5853996,-8.535681,4.5166264,-4.8740563
1.224,-0.6068232,24.363012,-0.8979826,-8.43179,4.575271,-4.9607525
1.226,-0.6158962,24.3419,-1.2321646,-8.327072,4.6409793,-5.0496273
1.228,-0.6341262,24.327406,-1.5869484,-8.222037,4.7139544,-5.14016
1.23,-0.66135025,24.317818,-1.9612486,-8.117076,4.7944484,-5.2318954
1.232,-0.6969645,24.311573,-2.3536289,-8.012464,4.882728,-5.32437
1.234,-0.74001956,24.307272,-2.761988,-7.90837,4.9790783,-5.4171515
1.236,-0.78927773,24.303406,-3.1835384,-7.8048086,5.0837684,-5.509765
1.238,-0.8428328,24.29857,-3.6153638,-7.7016563,5.1970396,-5.6017027
1.24,-0.89867735,24.291397,-4.054461,-7.5986614,5.319065,-5.692425
1.242,-0.9544746,24.280638,-4.497692,-7.4954796,5.4498024,-5.7813597
1.244,-1.0082641,24.265377,-4.941757,-7.391693,5.588907,-5.867918
1.246,-1.057968,24.245007,-5.3834,-7.2869005,5.7356987,-5.9515038
1.248,-1.1015406,24.218967,-5.8198233,-7.1806984,5.889095,-6.0315475
1.25,-1.1368501,24.186687,-6.2488165,-7.0727267,6.0476384,-6.1075983
1.252,-1.1619618,24.147978,-6.668262,-6.96265,6.2094975,-6.179365
1.254,-1.1749291,24.102621,-7.076696,-6.850146,6.3725505,-6.2467175
1.256,-1.1713009,24.050074,-7.4731064,-6.734928,6.5344954,-6.309711
1.258,-1.1538162,23.991312,-7.856937,-6.616714,6.6929297,-6.3685637
1.26,-1.1190763,23.92551,-8.228718,-6.495243,6.845443,-6.423655
1.262,-1.0659199,23.852247,-8.589289,-6.3702393,6.989753,-6.475477
1.264,-0.9935374,23.771412,-8.939735,-6.241455,7.1237774,-6.5246234
1.266,-0.90139294,23.682722,-9.281311,-6.1086555,7.2457056,-6.5716844
1.268,-0.7891307,23.585615,-9.615404,-5.9716134,7.354058,-6.6171474
1.27,-0.6571202,23.479769,-9.944029,-5.8301353,7.4477563,-6.6614094
1.272,-0.5062208,23.364946,-10.269277,-5.684039,7.5260897,-6.7046986
1.274,-0.33745575,23.241234,-10.594047,-5.5332017,7.588714,-6.7470884
1.276,-0.15254498,23.108799,-10.920705,-5.377519,7.635626,-6.788461
1.278,0.04701042,22.967037,-11.251059,-5.216939,7.667082,-6.828531
1.28,0.25935268,22.81604,-11.587287,-5.051464,7.683518,-6.86692
1.282,0.48281097,22.655573,-11.930987,-4.8811865,7.6854935,-6.9032106
1.284,0.7153959,22.485374,-12.2833605,-4.7063074,7.673618,-6.936989
1.286,0.95488644,22.305468,-12.645303,-4.5270886,7.648567,-6.967929
1.288,1.1991472,22.116209,-13.017551,-4.3438606,7.6109533,-6.995782
1.29,1.4461079,21.918165,-13.400892,-4.1570215,7.5613613,-7.020384
1.292,1.6939068,21.711739,-13.795826,-3.966987,7.500372,-7.0416527
1.294,1.9409504,21.497505,-14.202722,-3.7742035,7.428531,-7.0595217
1.296,2.185563,21.27606,-14.621588,-3.5791135,7.3463516,-7.0739374
1.298,2.4265194,21.047865,-15.051743,-3.3821692,7.254316,-7.084804
1.3,2.6628923,20.813639,-15.492148,-3.1838017,7.1529036,-7.0920296
1.302,2.8940334,20.574032,-15.9420185,-2.9844353,7.042556,-7.0954165
1.304,3.1194134,20.329819,-16.40057,-2.7844586,6.9236584,-7.094671
1.306,3.3388882,20.081594,-16.866684,-2.5843284,6.796413,-7.08952
1.308,3.5525064,19.830217,-17.33897,-2.3845093,6.6608987,-7.0796604
1.31,3.760456,19.576366,-17.816196,-2.1854537,6.5170193,-7.064678
1.312,3.963335,19.320663,-18.296888,-1.9876022,6.364532,-7.0442204
1.314,4.1618767,19.063671,-18.77972,-1.7914014,6.2029986,-7.017951
1.316,4.357382,18.80558,-19.26349,-1.5972955,6.0318294,-6.9855638
1.318,4.551009,18.546875,-19.747044,-1.4056923,5.8503265,-6.9468145
1.32,4.743888,18.288074,-20.229584,-1.2169526,5.657694,-6.9015713
1.322,4.937192,18.029558,-20.709806,-1.0314152,5.453126,-6.8498116
1.324,5.132001,17.771778,-21.186623,-0.84938407,5.2358265,-6.7916255
1.326,5.329686,17.51517,-21.658623,-0.6711416,5.0050735,-6.727238
1.328,5.5313826,17.260128,-22.124498,-0.49694872,4.7602625,-6.656933
1.33,5.73814,17.007046,-22.5834,-0.32708907,4.500932,-6.5810485
1.332,5.9508524,16.756336,-23.034246,-0.16186452,4.226776,-6.4999723
1.334,6.170003,16.508982,-23.476128,-0.0016095638,3.9376564,-6.414091
1.336,6.395854,16.265715,-23.90791,0.15334797,3.6336493,-6.323806
1.338,6.6280985,16.027473,-24.328487,0.30270433,3.3150158,-6.229535
1.34,6.866661,15.795246,-24.73651,0.44617438,2.9821944,-6.131715
1.342,7.110817,15.569908,-25.130798,0.58353806,2.6358352,-6.0308027
1.344,7.3600273,15.352438,-25.510231,0.714651,2.276789,-5.9273043
1.346,7.613428,15.143909,-25.873875,0.8394474,1.9060736,-5.821739
1.348,7.8696322,14.945478,-26.22044,0.95796084,1.5249007,-5.7146378
1.35,8.127285,14.758356,-26.548834,1.0702807,1.1346697,-5.60652
1.352,8.384427,14.583878,-26.85857,1.176572,0.73689985,-5.4979043
1.354,8.639187,14.423138,-27.148716,1.277012,0.33319128,-5.389279
1.356,8.889591,14.277464,-27.418736,1.3717785,-0.074824095,-5.2811356
1.358,9.133556,14.147961,-27.668049,1.4610221,-0.48548138,-5.174004
1.36,9.369011,14.035813,-27.895905,1.5449485,-0.89710784,-5.068309
1.362,9.593912,13.941788,-28.101856,1.6237597,-1.3081186,-4.9645557
1.364,9.806337,13.866297,-28.285225,1.6976411,-1.7170205,-4.8632636
1.366,10.002438,13.8100815,-28.445187,1.7668076,-2.1223993,-4.764844
1.368,10.184931,13.772133,-28.581371,1.831498,-2.5229151,-4.669668
1.37,10.34979,13.753297,-28.693296,1.8919643,-2.9173584,-4.578109
1.372,10.495859,13.75364,-28.780815,1.9484788,-3.304637,-4.4904776
1.374,10.622324,13.772514,-28.8437,2.0013444,-3.6837664,-4.4069934
1.376,10.729027,13.809147,-28.88171,2.0508811,-4.053882,-4.327851
1.378,10.816153,13.862531,-28.894665,2.0974329,-4.414229,-4.253176
1.38,10.884357,13.93135,-28.882637,2.1413326,-4.7642117,-4.183076
1.382,10.9344845,14.0142,-28.845806,2.1828995,-5.1033616,-4.11767
1.384,10.967539,14.109387,-28.784245,2.2224236,-5.431332,-4.05708
1.386,10.985142,14.215324,-28.69846,2.2601523,-5.747809,-4.0014057
1.388,10.9888115,14.3310175,-28.589207,2.296239,-6.052576,-3.9507253
1.39,10.98043,14.454636,-28.456684,2.3307252,-6.3454933,-3.9051104
1.392,10.961937,14.584238,-28.301659,2.3635528,-6.626463,-3.8646
1.394,10.935233,14.717918,-28.124836,2.394548,-6.8954296,-3.8292122
1.396,10.90243,14.853887,-27.9271,2.42343,-7.1523724,-3.798913
1.398,10.865146,14.990332,-27.709385,2.449883,-7.3972983,-3.7736478
1.4,10.825055,15.12549,-27.472595,2.4735117,-7.6302557,-3.7533832
1.402,10.78335,15.257797,-27.21771,2.4939246,-7.851307,-3.738112
1.404,10.740881,15.385595,-26.945492,2.5107698,-8.060466,-3.7279043
1.406,10.69852,15.50753,-26.656637,2.5237453,-8.257719,-3.7228923
1.408,10.656759,15.622217,-26.352348,2.5326772,-8.442963,-3.7232995
1.41,10.615406,15.728361,-26.03376,2.537496,-8.615955,-3.7294195
1.412,10.57429,15.824701,-25.701498,2.538261,-8.776318,-3.7415948
1.414,10.532399,15.91011,-25.355778,2.5351336,-8.923539,-3.7601812
1.416,10.488197,15.983675,-24.996914,2.5283213,-9.057034,-3.785547
1.418,10.439605,16.044453,-24.625168,2.5180955,-9.176168,-3.8180454
1.42,10.384325,16.091776,-24.240795,2.504765,-9.2803,-3.8579662
1.422,10.31988,16.125023,-23.843853,2.4886599,-9.368834,-3.9055383
1.424,10.243942,16.143665,-23.434086,2.470089,-9.441212,-3.9608757
1.426,10.154046,16.147385,-23.011078,2.4493499,-9.49698,-4.023983
1.428,10.048014,16.13588,-22.574516,2.4266846,-9.535782,-4.0947666
1.43,9.923641,16.10914,-22.12469,2.4023135,-9.557349,-4.173064
1.432,9.779152,16.06742,-21.661945,2.3764024,-9.56145,-4.258656
1.434,9.613069,16.011585,-21.186956,2.3490734,-9.547864,-4.3512573
1.436,9.42453,15.942459,-20.700401,2.3203924,-9.516356,-4.4505367
1.438,9.213477,15.861111,-20.203266,2.290393,-9.466662,-4.5561323
1.44,8.980858,15.768684,-19.696695,2.2590249,-9.398472,-4.667735
1.442,8.728152,15.666237,-19.1823,2.2262113,-9.31136,-4.785054
1.444,8.45774,15.55459,-18.661976,2.1918392,-9.204794,-4.907879
1.446,8.172611,15.434948,-18.138212,2.1557267,-9.078157,-5.036067
1.448,7.876562,15.308517,-17.613613,2.1177063,-8.93073,-5.169563
1.45,7.573563,15.176786,-17.091026,2.077605,-8.761762,-5.308403
1.452,7.2682295,15.041434,-16.573425,2.0352798,-8.570463,-5.452694
1.454,6.9654126,14.90429,-16.063875,1.9906659,-8.356033,-5.6025558
1.456,6.670545,14.767182,-15.564907,1.9437559,-8.117754,-5.7581415
1.458,6.3893795,14.631957,-15.079359,1.8946038,-7.855028,-5.9195805
1.46,6.1277485,14.500531,-14.609745,1.8433709,-7.5673747,-6.086978
1.462,5.8918557,14.375051,-14.158338,1.7902917,-7.2545037,-6.2604012
1.464,5.68769,14.258122,-13.727448,1.7356917,-6.916304,-6.439831
1.466,5.522278,14.151922,-13.319843,1.6799192,-6.552873,-6.6251683
1.468,5.401946,14.059277,-12.938277,1.6233631,-6.1645145,-6.8162026
1.47,5.3328514,13.983171,-12.583885,1.5664188,-5.75174,-7.012584
1.472,5.3207436,13.926693,-12.25791,1.5094062,-5.3152976,-7.213796
1.474,5.3718143,13.893366,-11.962233,1.4525845,-4.8561597,-7.419137
1.476,5.491807,13.886541,-11.697632,1.3961096,-4.375563,-7.6277466
1.478,5.686118,13.910084,-11.465141,1.3400284,-3.8749804,-7.838689
1.48,5.9598646,13.967583,-11.26615,1.2843038,-3.356092,-8.051024
1.482,6.3174934,14.06275,-11.101103,1.228861,-2.8207157,-8.263827
1.484,6.762985,14.200045,-10.970105,1.1736193,-2.270741,-8.47627
1.486,7.300132,14.383394,-10.873331,1.1185548,-1.7080114,-8.687675
1.488,7.932066,14.616592,-10.810992,1.0637654,-1.134237,-8.897579
1.49,8.661235,14.903662,-10.783326,1.009485,-0.55091476,-9.105704
1.492,9.489262,15.248601,-10.790884,0.9561211,0.040738583,-9.311939
1.494,10.417547,15.655139,-10.8336735,0.904248,0.63979626,-9.516275
1.496,11.446451,16.126114,-10.911815,0.8545761,1.2456939,-9.7188015
1.498,12.574561,16.664295,-11.024981,0.80788827,1.8581173,-9.919603
1.5,13.799084,17.272125,-11.172585,0.7650695,2.4770372,-10.118739
1.502,15.115934,17.95187,-11.353954,0.72704196,3.102593,-10.3161125
1.504,16.520283,18.70502,-11.568092,0.6947501,3.7349544,-10.511498
1.506,18.0058,19.532242,-11.813818,0.6690519,4.3743086,-10.704504
1.508,19.566015,20.432869,-12.089516,0.65077806,5.0209455,-10.894534
1.51,21.192453,21.405962,-12.392904,0.6407368,5.675119,-11.080802
1.512,22.875992,22.44978,-12.722006,0.6397114,6.3370237,-11.262342
1.514,24.607016,23.561718,-13.0746765,0.64844656,7.0068684,-11.4379425
1.516,26.375027,24.738365,-13.448097,0.6676893,7.68487,-11.606174
1.518,28.169807,25.974773,-13.838684,0.69822884,8.371223,-11.765342
1.52,29.981083,27.264723,-14.242093,0.7408967,9.066119,-11.913564
1.522,31.798416,28.60117,-14.653786,0.7965994,9.769683,-12.048857
1.524,33.612858,29.97588,-15.07056,0.86624956,10.481946,-12.169168
1.526,35.415504,31.379908,-15.487475,0.9507346,11.202816,-12.272421
1.528,37.198006,32.803402,-15.899176,1.0508718,11.932043,-12.356545
1.53,38.954327,34.235207,-16.300734,1.1673632,12.669262,-12.419553
1.532,40.678696,35.663696,-16.686016,1.3007503,13.413956,-12.459562
1.534,42.365593,37.077236,-17.049889,1.4512787,14.165358,-12.474832
1.536,44.012135,38.463577,-17.388275,1.6188302,14.922373,-12.463833
1.538,45.616707,39.81006,-17.696276,1.8028994,15.683482,-12.425176
1.54,47.178814,41.104614,-17.968874,2.0025382,16.44681,-12.357761
1.542,48.699715,42.335484,-18.202093,2.21637,17.210178,-12.260841
1.544,50.181957,43.49115,-18.392395,2.4425945,17.97102,-12.13396
1.546,51.628593,44.56121,-18.536621,2.6790404,18.726469,-11.977009
1.548,53.04398,45.536358,-18.632442,2.923229,19.473488,-11.790234
1.55,54.433502,46.408703,-18.678335,3.1723843,20.208858,-11.574158
1.552,55.803303,47.172115,-18.67386,3.4235322,20.929302,-11.329599
1.554,57.160156,47.821445,-18.619404,3.6734502,21.631405,-11.057623
1.556,58.511127,48.352985,-18.516438,3.918673,22.31167,-10.759535
1.558,59.86346,48.764427,-18.367393,4.1556544,22.966637,-10.436805
1.56,61.22496,49.05512,-18.17545,4.3808722,23.592815,-10.091127
1.562,62.60313,49.22634,-17.94448,4.5906997,24.186512,-9.724363
1.564,64.00576,49.28009,-17.679138,4.781713,24.744202,-9.338486
1.566,65.43993,49.219994,-17.385115,4.95068,25.26248,-8.935673
1.568,66.91342,49.04973,-17.067774,5.094632,25.73796,-8.518145
1.57,68.43287,48.77468,-16.732098,5.210918,26.167576,-8.08807
1.572,70.00452,48.40051,-16.383596,5.297309,26.548698,-7.6475883
1.574,71.63471,47.933064,-16.028233,5.351894,26.879131,-7.19873
1.576,73.329254,47.379375,-15.671753,5.373152,27.157227,-6.7432265
1.578,75.09472,46.74679,-15.319954,5.3599205,27.381891,-6.2824764
1.58,76.936806,46.04325,-14.979145,5.311284,27.552563,-5.8175926
1.582,78.861046,45.277992,-14.655136,5.2265024,27.669212,-5.3494506
1.584,80.872314,44.46,-14.3516655,5.104912,27.732437,-4.8787103
1.586,82.9764,43.59824,-14.072304,4.9458666,27.743376,-4.405798
1.588,85.177315,42.70409,-13.819363,4.7486515,27.703857,-3.9309874
1.59,87.479034,41.79014,-13.593086,4.512415,27.616442,-3.4544964
1.592,89.88626,40.870693,-13.397251,4.236182,27.484503,-2.9766335
1.594,92.39957,39.962486,-13.23592,3.9188507,27.312046,-2.497716
1.596,95.02127,39.08159,-13.108208,3.559258,27.103737,-2.0180745
1.598,97.75716,38.241135,-13.010544,3.156125,26.864737,-1.5380263
1.6,100.60463,37.463753,-12.940636,2.7081861,26.600586,-1.0577049
1.602,103.56209,36.77855,-12.89241,2.2143092,26.317043,-0.576962
1.604,106.629585,36.215073,-12.850441,1.6736183,26.020042,-0.09517002
1.606,109.80875,35.802906,-12.815773,1.08565,25.715677,0.3885715
1.608,113.10483,35.57414,-12.79277,0.45040655,25.409836,0.87547517
1.61,116.51848,35.56749,-12.784908,-0.23163128,25.108187,1.3673275
1.612,120.045044,35.833775,-12.79705,-0.9594312,24.816185,1.8664341
1.614,123.6704,36.42714,-12.840309,-1.731282,24.538849,2.3755476
1.616,127.41081,37.372635,-12.917528,-2.5447998,24.280594,2.8976834
1.618,131.24654,38.71374,-13.0398445,-3.3970804,24.044918,3.4360318
1.62,135.18088,40.479855,-13.190725,-4.284561,23.83434,3.993851
1.622,139.19263,42.700775,-13.341991,-5.2032866,23.64995,4.5740643
1.624,143.35785,45.40997,-13.52067,-6.1492524,23.490229,5.1787653
1.626,147.62587,48.620148,-13.789915,-7.1190176,23.350384,5.809633
1.628,151.96303,52.38002,-14.16841,-8.1102085,23.222729,6.468279
1.63,156.36179,56.69633,-14.659283,-9.121151,23.095833,7.155311
1.632,160.83928,61.640007,-15.249214,-10.150678,22.95466,7.870213
1.634,165.39963,67.21951,-15.863104,-11.199427,22.780794,8.612105
1.636,170.04774,73.41835,-16.462624,-12.269463,22.55292,9.381076
1.638,174.78676,80.18692,-17.056793,-13.3637905,22.247433,10.179386
1.64,179.6203,87.45459,-17.590488,-14.487515,21.8382,11.011114
1.642,184.56097,95.151184,-18.012638,-15.647417,21.29778,11.880566
1.644,189.64206,103.2478,-18.367252,-16.851109,20.59768,12.792989
1.646,194.88864,111.672195,-18.641136,-18.106468,19.709534,13.759217
1.648,200.32187,120.32095,-18.7868,-19.41979,18.607794,14.793628
1.65,205.96394,129.08246,-18.758797,-20.797073,17.26564,15.910339
1.652,211.80717,137.83969,-18.500984,-22.242222,15.657771,17.125862
1.654,217.79135,146.4627,-17.91851,-23.75539,13.759478,18.462498
1.656,223.84323,154.81723,-16.928482,-25.334812,11.557943,19.917019
1.658,229.91316,162.68764,-15.453684,-26.98035,9.041744,21.494478
1.66,235.974,169.79703,-13.463915,-28.697432,6.2116966,23.19498
1.662,242.09505,176.04375,-10.86411,-30.508997,3.057582,24.995558
1.664,248.13237,181.41487,-7.5697985,-32.43177,-0.44267082,26.851263
1.666,254.03964,185.788,-3.4904733,-34.448193,-4.2775917,28.72421
1.668,259.71283,189.03117,1.4411327,-36.5299,-8.407831,30.573082
1.67,265.05713,191.0512,7.265217,-38.662827,-12.780238,32.30508
1.672,269.9684,191.784,14.004741,-40.84824,-17.342865,33.844868
1.674,274.30667,191.2089,21.654003,-43.067207,-22.031319,35.095165
1.676,277.91312,189.35864,30.166153,-45.27111,-26.773,35.94052
1.678,280.65286,186.30168,39.458298,-47.397038,-31.490068,36.263832
1.68,282.41064,182.11096,49.437325,-49.364628,-36.10578,35.960373
1.682,283.10675,176.86041,59.97576,-51.066143,-40.542736,34.93606
1.684,282.65616,170.65262,70.93027,-52.371525,-44.7176,33.11275
1.686,280.97684,163.62598,82.148636,-53.135273,-48.52746,30.437572
1.688,278.0227,155.94476,93.41667,-53.2129,-51.861923,26.894356
1.69,273.78555,147.77916,104.483154,-52.47028,-54.614048,22.555376
1.692,268.28516,139.29204,115.11114,-50.80708,-56.682526,17.534
1.694,261.56964,130.65457,125.07159,-48.180065,-57.978516,11.948917
1.696,253.72691,122.04145,134.13687,-44.60386,-58.42674,5.9726944
1.698,244.88078,113.62515,142.0907,-40.155415,-57.973114,-0.16605377
1.7,235.18207,105.57323,148.74112,-34.9706,-56.59511,-6.203329
1.702,224.79799,98.04564,153.93057,-29.231695,-54.306908,-11.85194
1.704,213.91144,91.17802,157.53165,-23.150314,-51.154522,-16.824024
1.706,202.71175,85.08043,159.45523,-16.950354,-47.217796,-20.863575
1.708,191.38474,79.840096,159.6633,-10.850294,-42.609093,-23.773884
1.71,180.11693,75.51337,158.17099,-5.049015,-37.480865,-25.420681
1.712,169.0807,72.12962,155.04028,0.28720284,-32.004257,-25.784283
1.714,158.42923,69.695404,150.3727,5.036007,-26.368467,-24.943813
1.716,148.29445,68.19526,144.32645,9.126962,-20.750706,-23.063646
1.718,138.78311,67.58856,137.09085,12.518511,-15.318871,-20.38764
1.72,129.98042,67.80994,128.87643,15.186962,-10.261456,-17.232084
1.722,121.94705,68.76891,119.90982,17.157774,-5.7484574,-13.926897
1.724,114.72098,70.36303,110.4277,18.511845,-1.9026456,-10.749599
1.726,108.2849,72.50333,100.655655,19.360123,1.209712,-7.967558
1.728,102.63289,75.0679,90.81557,19.801918,3.5594134,-5.7667966
1.73,97.71367,77.939476,81.08666,19.927265,5.160177,-4.2548723
1.732,93.4817,80.99377,71.62402,19.832695,6.069151,-3.4747214
1.734,89.797195,84.10308,62.60786,19.608475,6.3844867,-3.4105718
1.736,86.64462,87.16008,54.200382,19.324818,6.232397,-3.9844
1.738,83.96489,90.03085,46.473576,19.034964,5.754714,-5.0693803
1.74,81.66601,92.63463,39.456566,18.776558,5.0922613,-6.510607
1.742,79.6416,94.84682,33.143753,18.577576,4.388736,-8.145467
1.744,77.81132,96.62639,27.469349,18.451815,3.7809868,-9.843048
1.746,76.10534,97.95797,22.406614,18.408567,3.3797321,-11.456776
1.748,74.465576,98.851295,17.957977,18.45821,3.260252,-12.830879
1.75,72.84159,99.32325,14.052164,18.60041,3.4527283,-13.872497
1.752,71.186516,99.37943,10.628311,18.828266,3.9475899,-14.548168
1.754,69.44996,98.99124,7.7047176,19.130043,4.7047434,-14.865161
1.756,67.60418,98.18377,5.2231503,19.488014,5.660061,-14.862569
1.758,65.63554,97.00689,3.099249,19.879917,6.732707,-14.598599
1.76,63.535324,95.50896,1.2685776,20.27958,7.835472,-14.139051
1.762,61.321964,93.736664,-0.32671738,20.658192,8.886238,-13.549803
1.764,59.04492,91.743744,-1.7581215,20.988903,9.817373,-12.888785
1.766,56.735092,89.58165,-3.0597076,21.247314,10.576118,-12.202208
1.768,54.37963,87.36076,-4.2458916,21.410295,11.125572,-11.521533
1.77,51.94059,85.203285,-5.2882843,21.459171,11.445975,-10.860772
1.772,49.31431,83.048615,-6.2244644,21.382853,11.536295,-10.219994
1.774,46.60782,80.80733,-7.071808,21.180676,11.416793,-9.590645
1.776,43.80435,78.53887,-7.8497696,20.861662,11.121726,-8.961781
1.778,40.937668,76.3129,-8.557903,20.440544,10.692472,-8.323898
1.78,38.020767,74.16386,-9.185232,19.93568,10.174524,-7.669238
1.782,35.071365,72.11351,-9.726845,19.368084,9.615123,-6.992056
1.784,32.133007,70.16495,-10.17679,18.759766,9.058397,-6.2882895
1.786,29.251995,68.304214,-10.522989,18.131617,8.541536,-5.5552235
1.788,26.443068,66.52327,-10.75824,17.502415,8.093296,-4.7930846
1.79,23.710312,64.84154,-10.901449,16.888073,7.7335434,-4.0061064
1.792,21.042946,63.295067,-10.966118,16.300344,7.473224,-3.2014012
1.794,18.458958,61.902306,-10.976147,15.746307,7.3148103,-2.3873081
1.796,15.989161,60.65982,-10.962921,15.2287445,7.2538004,-1.5724063
1.798,13.6477165,59.55607,-10.9155655,14.746845,7.2803354,-0.7653723
1.8,11.438531,58.586815,-10.815229,14.297087,7.380791,0.025419235
1.802,9.3678465,57.75765,-10.674009,13.874211,7.53951,0.7924042
1.804,7.442006,57.06357,-10.512142,13.472174,7.740283,1.5290375
1.806,5.657052,56.4916,-10.340558,13.084848,7.9674315,2.2299
1.808,4.004737,56.024662,-10.165056,12.706701,8.206682,2.8905725
1.81,2.4769115,55.643066,-9.991439,12.333351,8.445764,3.5072331
1.812,1.0709,55.326115,-9.824211,11.961922,8.674874,4.0763097
1.814,-0.21523476,55.06396,-9.661159,11.591063,8.886902,4.5945153
1.816,-1.3850822,54.854332,-9.501907,11.220877,9.077375,5.059047
1.818,-2.441496,54.695072,-9.351635,10.852568,9.244263,5.4678597
1.82,-3.387909,54.57973,-9.21642,10.488125,9.3875675,5.8198805
1.822,-4.2303686,54.5002,-9.101943,10.129932,9.508883,6.1150894
1.824,-4.9772663,54.44866,-9.012539,9.780486,9.610821,6.354578
1.826,-5.6393566,54.41687,-8.950338,9.442077,9.696465,6.54056
1.828,-6.2288,54.39606,-8.915364,9.116623,9.768948,6.6763606
1.83,-6.7576466,54.376854,-8.907816,8.805523,9.831037,6.766366
1.832,-7.238373,54.349728,-8.927839,8.509571,9.884939,6.815859
1.834,-7.682888,54.306465,-8.974741,8.2289715,9.932009,6.830718
1.836,-8.102034,54.24125,-9.0469475,7.963377,9.972635,6.817148
1.838,-8.505766,54.150787,-9.141415,7.712022,10.006193,6.7813387
1.84,-8.903584,54.03277,-9.252781,7.4737206,10.031031,6.7292123
1.842,-9.304588,53.88563,-9.373632,7.2470036,10.044597,6.6662893
1.844,-9.71597,53.70816,-9.495945,7.030137,10.043579,6.597505
1.846,-10.1444,53.49985,-9.613026,6.821231,10.024084,6.527187
1.848,-10.595393,53.2614,-9.7196865,6.6183352,9.981892,6.4589686
1.85,-11.072967,52.993492,-9.811392,6.419493,9.912715,6.395762
1.852,-11.579722,52.697342,-9.883583,6.2228475,9.81249,6.3397593
1.854,-12.116781,52.375107,-9.931632,6.026729,9.677698,6.29252
1.856,-12.683837,52.029495,-9.950702,5.829691,9.505499,6.2550235
1.858,-13.279163,51.66405,-9.93663,5.6305485,9.293953,6.22786
1.86,-13.899697,51.28266,-9.886034,5.4284234,9.042146,6.2112956
1.862,-14.541705,50.88945,-9.795995,5.22277,8.750226,6.2054186
1.864,-15.200588,50.48804,-9.664104,5.0133657,8.419361,6.2102084
1.866,-15.871091,50.08172,-9.488844,4.8003473,8.051703,6.2255926
1.868,-16.547646,49.673264,-9.269766,4.5841293,7.650076,6.251463
1.87,-17.223412,49.2642,-9.007184,4.365365,7.217858,6.2876635
1.872,-17.892153,48.855053,-8.701699,4.144847,6.758733,6.3339376
1.874,-18.54696,48.445595,-8.354424,3.9234076,6.276412,6.3898616
1.876,-19.181187,48.034927,-7.966588,3.7018905,5.7744813,6.45474
1.878,-19.788177,47.621346,-7.5392103,3.481009,5.256206,6.5274944
1.88,-20.361174,47.20234,-7.07349,3.2613013,4.724479,6.606624
1.882,-20.894564,46.774742,-6.570629,3.0430613,4.181794,6.690139
1.884,-21.383286,46.334908,-6.031454,2.8263392,3.6302385,6.7754817
1.886,-21.823063,45.878777,-5.456855,2.6109397,3.071569,6.859548
1.888,-22.21076,45.402214,-4.847638,2.3964424,2.507402,6.9388285
1.89,-22.54406,44.90125,-4.204381,2.1823037,1.939333,7.009413
1.892,-22.821478,44.37212,-3.527462,1.9678625,1.3690782,7.0672283
1.894,-23.042244,43.811417,-2.817172,1.7524683,0.79856724,7.1083055
1.896,-23.20662,43.216343,-2.0735826,1.5355067,0.23002815,7.1289263
1.898,-23.315775,42.584988,-1.2964935,1.316472,-0.3339777,7.1259227
1.9,-23.371475,41.9162,-0.4859352,1.0950279,-0.8905493,7.096825
1.902,-23.375668,41.2098,0.3578081,0.87101233,-1.4363971,7.039952
1.904,-23.331165,40.466537,1.2344818,0.64446217,-1.9679229,6.954456
1.906,-23.241035,39.688217,2.1434383,0.41566682,-2.4813435,6.840404
1.908,-23.108465,38.877483,3.0835276,0.18515098,-2.9727101,6.698686
1.91,-22.936897,38.03777,4.052401,-0.046346545,-3.4380138,6.5309
1.912,-22.729952,37.17312,5.0469494,-0.27787432,-3.8733392,6.3392196
1.914,-22.491398,36.28811,6.063354,-0.5083074,-4.2748976,6.1262465
1.916,-22.225117,35.387947,7.097065,-0.736367,-4.639098,5.894862
1.918,-21.934397,34.477386,8.142594,-0.96072775,-4.9626217,5.6481037
1.92,-21.622208,33.561573,9.193209,-1.1800658,-5.242537,5.389078
1.922,-21.291779,32.64536,10.241558,-1.39307,-5.476303,5.1208367
1.924,-20.945732,31.73278,11.279963,-1.5985107,-5.6618085,4.8463073
1.926,-20.586445,30.827595,12.300447,-1.7952573,-5.7975273,4.568158
1.928,-20.215706,29.933279,13.294677,-1.9823716,-5.8825793,4.28875
1.93,-19.83463,29.05228,14.254397,-2.1590931,-5.9167523,4.010075
1.932,-19.444117,28.186747,15.171196,-2.3248522,-5.900474,3.7337356
1.934,-19.044893,27.338072,16.037117,-2.4792829,-5.8348036,3.4609141
1.936,-18.637417,26.507187,16.84475,-2.622208,-5.7214284,3.1924448
1.938,-18.221874,25.694849,17.587511,-2.753646,-5.5625896,2.928892
1.94,-17.798534,24.90158,18.259823,-2.8737702,-5.3609915,2.6706297
1.942,-17.366838,24.128002,18.857327,-2.9828987,-5.1197476,2.4178786
1.944,-16.9264,23.374525,19.376469,-3.0815005,-4.8423185,2.1708457
1.946,-16.476486,22.641567,19.814873,-3.1701593,-4.532407,1.9297702
1.948,-16.015953,21.929455,20.171173,-3.2495341,-4.19388,1.6949282
1.95,-15.543402,21.238697,20.444973,-3.320353,-3.8307142,1.4666324
1.952,-15.057501,20.56989,20.636684,-3.383395,-3.4469264,1.2452486
1.954,-14.557385,19.923885,20.74762,-3.439485,-3.0465143,1.031213
1.956,-14.041788,19.30183,20.78001,-3.4894595,-2.6334496,0.8249513
1.958,-13.510006,18.70504,20.737095,-3.5341449,-2.2115734,0.626824
1.96,-12.961322,18.134624,20.622782,-3.5744143,-1.7845173,0.43698412
1.962,-12.39531,17.591558,20.441328,-3.6111026,-1.3557452,0.2554145
1.964,-11.811941,17.076788,20.197334,-3.6449735,-0.92843926,0.08188641
1.966,-11.2118635,16.591145,19.895369,-3.6767106,-0.5054802,-0.08405101
1.968,-10.595884,16.135197,19.54059,-3.706905,-0.08953047,-0.24304509
1.97,-9.965458,15.709417,19.138279,-3.735996,0.3170026,-0.39592063
1.972,-9.322617,15.31424,18.693851,-3.7642527,0.71198505,-0.543677
1.974,-8.669428,14.949803,18.212471,-3.7917724,1.0935769,-0.6874311
1.976,-8.008273,14.615928,17.699112,-3.8185277,1.4602275,-0.8283863
1.978,-7.34148,14.311883,17.158466,-3.8443727,1.8106456,-0.9677838
1.98,-6.671925,14.036909,16.594696,-3.8691015,2.1438282,-1.1068072
1.982,-6.0023413,13.789931,16.011467,-3.892502,2.4590468,-1.2465577
1.984,-5.3360043,13.569904,15.412615,-3.91443,2.7557397,-1.387985
1.986,-4.675917,13.375339,14.801509,-3.9348378,3.0334506,-1.5319122
1.988,-4.0251436,13.204809,14.18095,-3.9538283,3.2918048,-1.679002
1.99,-3.3871722,13.056851,13.553852,-3.9716768,3.5304585,-1.8297501
1.992,-2.7647624,12.929979,12.922873,-3.9888496,3.7490163,-1.9844477
1.994,-2.1605754,12.822584,12.290366,-4.006002,3.9469795,-2.143218
1.996,-1.5772886,12.733318,11.658707,-4.023948,4.1237874,-2.306016
1.998,-1.0170302,12.660685,11.030081,-4.0436406,4.27881,-2.4726624
2,-0.48194456,12.603449,10.407021,-4.0661116,4.4113684,-2.642861
2.002,0.025900364,12.560454,9.79199,-4.0924315,4.520782,-2.8162522
2.004,0.5047326,12.530817,9.187796,-4.123657,4.6064267,-2.992367
2.006,0.95333767,12.5137415,8.597123,-4.1607785,4.6678004,-3.170649
2.008,1.3710685,12.508497,8.022556,-4.2046585,4.704653,-3.350473
2.01,1.7575374,12.51461,7.4669266,-4.25597,4.717063,-3.5311341
2.012,2.1127858,12.531523,6.9330106,-4.3151665,4.705521,-3.7118735
2.014,2.4378142,12.558927,6.423614,-4.3824306,4.67097,-3.8918123
2.016,2.7335522,12.5966,5.9415855,-4.4576893,4.614869,-4.0699716
2.018,3.0013847,12.644316,5.489403,-4.5405874,4.539165,-4.245254
2.02,3.2435184,12.701949,5.0696936,-4.630515,4.446324,-4.416474
2.022,3.4623232,12.76943,4.6847935,-4.726638,4.33927,-4.5823584
2.024,3.6606565,12.846666,4.33662,-4.8279386,4.2213144,-4.741582
2.026,3.8417468,12.93359,4.026738,-4.9332657,4.096004,-4.8927894
2.028,4.009052,13.030073,3.7561774,-5.0414057,3.967008,-5.034663
2.03,4.1660643,13.13616,3.5256653,-5.151109,3.8380141,-5.165945
2.032,4.3167715,13.2517605,3.3354144,-5.2611604,3.7126222,-5.2855577
2.034,4.4650536,13.377166,3.1851583,-5.370371,3.5942404,-5.3926477
2.036,4.614879,13.51249,3.0741954,-5.4776363,3.4859643,-5.4865932
2.038,4.770362,13.657689,3.0012403,-5.5819607,3.3905334,-5.567031
2.04,4.9352283,13.813051,2.9644191,-5.682471,3.3102798,-5.63379
2.042,5.113419,13.97869,2.9614754,-5.7784014,3.2471561,-5.686922
2.044,5.308772,14.156284,2.9897268,-5.869116,3.2027054,-5.7266474
2.046,5.5275955,14.344511,3.045711,-5.9540873,3.1781144,-5.7533493
2.048,5.7744555,14.541181,3.1298609,-6.032896,3.1742508,-5.767519
2.05,6.05075,14.747505,3.2390141,-6.105193,3.1916876,-5.769741
2.052,6.35567,14.966241,3.364758,-6.170726,3.2307673,-5.7607
2.054,6.6954837,15.1978245,3.5027697,-6.229312,3.2916322,-5.7411804
2.056,7.0630345,15.444538,3.6511714,-6.28079,3.3742158,-5.712026
2.058,7.4677873,15.698709,3.8203623,-6.3250303,3.4782703,-5.6741824
2.06,7.9149947,15.958652,4.0100503,-6.3619194,3.6033072,-5.6286755
2.062,8.400479,16.229988,4.2024612,-6.391309,3.7486281,-5.5765862
2.064,8.933192,16.508371,4.3883014,-6.413047,3.9133162,-5.5190554
2.066,9.514244,16.79346,4.566592,-6.4269204,4.0962524,-5.457283
2.068,10.140648,17.087988,4.7352743,-6.432687,4.296169,-5.3925347
2.07,10.813281,17.39261,4.8889194,-6.430044,4.5116863,-5.326148
2.072,11.532948,17.706951,5.022626,-6.418665,4.7413464,-5.2594633
2.074,12.2977085,18.03088,5.13303,-6.3981767,4.9836345,-5.1940517
2.076,13.105735,18.362982,5.216696,-6.368143,5.2370424,-5.1316757
2.078,13.955744,18.700857,5.270935,-6.3276625,5.5012255,-5.0735955
2.08,14.847341,19.04162,5.2915673,-6.275021,5.776862,-5.0208564
2.082,15.778978,19.38321,5.2736173,-6.208267,6.0638494,-4.97474
2.084,16.748451,19.723616,5.212579,-6.1235623,6.3640304,-4.936689
2.086,17.753296,20.060558,5.104092,-6.015382,6.680237,-4.908484
2.088,18.790298,20.392214,4.9431696,-5.8779936,7.014346,-4.8913007
2.09,19.855404,20.717104,4.7242794,-5.70424,7.3706584,-4.885121
2.092,20.94356,21.034283,4.4424524,-5.4846506,7.756013,-4.8896713
2.094,22.049578,21.342365,4.0929537,-5.2099524,8.175446,-4.904558
2.096,23.167065,21.640064,3.6712976,-4.8712225,8.633034,-4.9283743
2.098,24.289116,21.925749,3.1739113,-4.4595575,9.133146,-4.958805
2.1,25.4075,22.197945,2.5988882,-3.9680047,9.67845,-4.9928412
2.102,26.512909,22.455254,1.9461482,-3.3937495,10.268106,-5.02694
2.104,27.595272,22.696568,1.2182972,-2.739253,10.897622,-5.0572596
2.106,28.643883,22.920822,0.42019105,-2.013173,11.558551,-5.0798693
2.108,29.647825,23.126923,-0.440773,-1.2309461,12.238654,-5.0909805
2.11,30.59577,23.313694,-1.3549227,-0.4145615,12.922316,-5.087622
2.112,31.47644,23.479881,-2.3099506,0.4086485,13.590719,-5.0684524
2.114,32.278538,23.624153,-3.291564,1.2082143,14.222835,-5.0342765
2.116,32.991528,23.745182,-4.2832427,1.9534593,14.796812,-4.988424
2.118,33.605843,23.841198,-5.266948,2.6164947,15.291115,-4.9367642
2.12,34.113297,23.91043,-6.2238092,3.1748543,15.685535,-4.887414
2.122,34.507015,23.951607,-7.1345205,3.6134028,15.962284,-4.850091
2.124,34.782215,23.963133,-7.980288,3.9253263,16.107153,-4.8350124
2.126,34.936176,23.943928,-8.743292,4.112075,16.110462,-4.8515015
2.128,34.968166,23.893244,-9.407438,4.182358,15.967677,-4.9064803
2.13,34.878845,23.810984,-9.958696,4.150379,15.679878,-5.003484
2.132,34.671913,23.697378,-10.385507,4.033614,15.253305,-5.1424956
2.134,34.35281,23.553238,-10.679371,3.8508916,14.699925,-5.319295
2.136,33.92895,23.37977,-10.835302,3.621334,14.038235,-5.525735
2.138,33.409927,23.178583,-10.851937,3.3619554,13.289476,-5.7510314
2.14,32.807182,22.951393,-10.731878,3.0878863,12.477874,-5.983078
2.142,32.133133,22.700256,-10.481167,2.8131773,11.630094,-6.21049
2.144,31.401,22.427326,-10.109006,2.5491335,10.770278,-6.4236298
2.146,30.624441,22.134901,-9.627077,2.3040376,9.919825,-6.614271
2.148,29.817207,21.82546,-9.049259,2.0852616,9.099338,-6.776279
2.15,28.9931,21.501028,-8.39069,1.8981436,8.324996,-6.906523
2.152,28.164968,21.163837,-7.667281,1.7450953,7.6068125,-7.004252
2.154,27.344767,20.81468,-6.895033,1.626779,6.9504433,-7.070494
2.156,26.541742,20.456787,-6.0891695,1.5427072,6.3581033,-7.1075473
2.158,25.765749,20.09274,-5.2675314,1.4907823,5.828236,-7.1185875
2.16,25.028038,19.72116,-4.4422817,1.4674203,5.3561625,-7.107329
2.162,24.33833,19.339914,-3.6205254,1.4679894,4.9348555,-7.0777555
2.164,23.69765,18.949425,-2.8130922,1.487323,4.555926,-7.0335197
2.166,23.117226,18.548515,-2.0307121,1.5201267,4.210853,-6.977608
2.168,22.58952,18.144192,-1.290226,1.5612631,3.8913703,-6.9122415
2.17,22.113043,17.735209,-0.5928736,1.606021,3.5897367,-6.8389134
2.172,21.693262,17.314657,0.07523537,1.650483,3.299352,-6.7584205
2.174,21.321472,16.886389,0.71486664,1.6918435,3.015186,-6.6709085
2.176,20.997105,16.449524,1.3201237,1.728551,2.7339134,-6.576045
2.178,20.721361,16.00146,1.888505,1.7601752,2.4538271,-6.473266
2.18,20.489332,15.543254,2.4217863,1.787242,2.17482,-6.362109
2.182,20.295668,15.077213,2.921112,1.8109392,1.898262,-6.2423906
2.184,20.13702,14.605505,3.3864522,1.8328707,1.6267054,-6.11439
2.186,20.008516,14.131806,3.8185635,1.8547206,1.3635147,-5.978823
2.188,19.904121,13.660125,4.2176857,1.8779826,1.1124537,-5.836791
2.19,19.817047,13.194149,4.585715,1.9037759,0.87726134,-5.6896286
2.192,19.741983,12.736418,4.9245906,1.9327743,0.6614031,-5.538854
2.194,19.67423,12.288998,5.235389,1.9651675,0.46785796,-5.3860416
2.196,19.609169,11.854168,5.5187664,2.0007095,0.29886204,-5.2327514
2.198,19.54268,11.433668,5.7758665,2.038836,0.15578145,-5.0804744
2.2,19.47147,11.028638,6.0081587,2.078809,0.03914553,-4.930565
2.202,19.392822,10.640034,6.216483,2.1198912,-0.051229298,-4.7842927
2.204,19.303951,10.269196,6.4014654,2.161448,-0.116231084,-4.642822
2.206,19.20301,9.917305,6.563923,2.20297,-0.15729749,-4.5071406
2.208,19.088507,9.585315,6.7047143,2.244168,-0.17615736,-4.3780646
2.21,18.959713,9.274046,6.824131,2.2849307,-0.17474324,-4.256223
2.212,18.816452,8.98362,6.9222565,2.3253016,-0.15511858,-4.1419916
2.214,18.658978,8.713871,6.9989324,2.365437,-0.119382024,-4.0355005
2.216,18.487827,8.464191,7.0541677,2.405531,-0.06963509,-3.9365857
2.218,18.303284,8.234077,7.0886865,2.44574,-0.0080292225,-3.8448884
2.22,18.106367,8.022834,7.1031227,2.4861174,0.06318557,-3.7598372
2.222,17.898138,7.829852,7.09861,2.5265505,0.14171025,-3.6807172
2.224,17.679876,7.654406,7.0766096,2.566723,0.2251819,-3.6067307
2.226,17.452908,7.4958296,7.038695,2.6061447,0.3112312,-3.537036
2.228,17.218708,7.3536882,6.9864726,2.6441774,0.39752728,-3.470839
2.23,16.978687,7.2274714,6.921858,2.6800766,0.48182192,-3.4074135
2.232,16.734379,7.11648,6.8468137,2.7130666,0.56200475,-3.3461485
2.234,16.487024,7.020223,6.763381,2.7423885,0.6361986,-3.2865887
2.236,16.238323,6.938074,6.673427,2.767359,0.7028259,-3.2284126
2.238,15.990002,6.86926,6.5788074,2.787388,0.7605941,-3.1713505
2.24,15.744076,6.813001,6.4810286,2.8020222,0.80857444,-3.1152217
2.242,15.502068,6.768708,6.3813934,2.810976,0.84618074,-3.0599139
2.244,15.26552,6.7357044,6.281139,2.8141313,0.87317264,-3.0053725
2.246,15.035855,6.7132874,6.1815295,2.8114889,0.88959825,-2.9515574
2.248,14.814013,6.7009773,6.0839267,2.8031719,0.8957572,-2.8984241
2.25,14.600875,6.698042,5.9898095,2.789411,0.8921748,-2.8459508
2.252,14.397322,6.7037306,5.900466,2.7705226,0.8795027,-2.7941396
2.254,14.2043495,6.7170496,5.816982,2.7468946,0.8585006,-2.743077
2.256,14.022749,6.7368994,5.740228,2.7189636,0.8299471,-2.6929157
2.258,13.853139,6.7619915,5.6708984,2.687175,0.79462814,-2.6439047
2.26,13.696005,6.790969,5.6092687,2.6520078,0.7532792,-2.596414
2.262,13.551648,6.822272,5.5556364,2.6139328,0.70657647,-2.5508864
2.264,13.420343,6.8542233,5.5099106,2.5734134,0.65512973,-2.507837
2.266,13.302123,6.8854322,5.4719453,2.5308588,0.5994704,-2.4677973
2.268,13.196949,6.914291,5.4416647,2.4866424,0.54007405,-2.4312398
2.27,13.104776,6.9394073,5.418829,2.441097,0.4773684,-2.3985548
2.272,13.025223,6.9593945,5.4032087,2.3944592,0.4117396,-2.369984
2.274,12.957924,6.9728985,5.394699,2.3469148,0.34357122,-2.3456028
2.276,12.902483,6.9787855,5.3930645,2.2986147,0.27323622,-2.3252947
2.278,12.858281,6.9760504,5.3980484,2.2496595,0.20111313,-2.3087575
2.28,12.824559,6.9637403,5.409565,2.200132,0.12760703,-2.295546
2.282,12.8004875,6.9412537,5.4272947,2.1501155,0.053146392,-2.2850945
2.284,12.785351,6.9078817,5.451126,2.099725,-0.021831185,-2.2767925
2.286,12.778208,6.8633194,5.4806395,2.0490828,-0.096867114,-2.2700384
2.288,12.778055,6.807357,5.5156193,1.9983519,-0.1715233,-2.2642672
2.29,12.783789,6.740077,5.5557885,1.947704,-0.24536362,-2.2590017
2.292,12.794529,6.661607,5.6007338,1.897322,-0.3179623,-2.2538698
2.294,12.809072,6.5723915,5.6501904,1.8474109,-0.38894573,-2.2485957
2.296,12.826387,6.472984,5.703679,1.7981801,-0.45794404,-2.24297
2.298,12.845411,6.3640814,5.760867,1.7498401,-0.5246195,-2.236866
2.3,12.865161,6.246566,5.821289,1.7026134,-0.58866006,-2.2301817
2.302,12.884557,6.1213374,5.8844733,1.6567208,-0.6497872,-2.2228732
2.304,12.902506,5.9894247,5.9498835,1.6123528,-0.70776093,-2.2149107
2.306,12.918322,5.851847,6.0170784,1.5696888,-0.7623487,-2.2062573
2.308,12.931203,5.7094502,6.085556,1.5288887,-0.81337357,-2.1968582
2.31,12.940328,5.563442,6.154827,1.4900553,-0.8606849,-2.1866693
2.312,12.94501,5.4147873,6.224305,1.4532505,-0.9041743,-2.1756215
2.314,12.944701,5.264435,6.29351,1.4184984,-0.9437914,-2.1636713
2.316,12.938922,5.1133347,6.361987,1.3857673,-0.97955114,-2.1507816
2.318,12.927058,4.9622803,6.4290876,1.3549869,-1.0115386,-2.136923
2.32,12.908969,4.811977,6.494331,1.3260553,-1.0398974,-2.122105
2.322,12.884338,4.6631413,6.557365,1.298824,-1.0648605,-2.1063714
2.324,12.852885,4.5163827,6.617708,1.2731303,-1.0867174,-2.0897758
2.326,12.814487,4.3723187,6.6750712,1.2488182,-1.1057968,-2.0724087
2.328,12.769172,4.231452,6.7289886,1.2257065,-1.1224723,-2.05438
2.33,12.716774,4.094121,6.7792454,1.2036077,-1.1371444,-2.035825
2.332,12.657323,3.9606032,6.8256235,1.1823368,-1.1502082,-2.0168662
2.334,12.591154,3.831021,6.8678665,1.1617248,-1.1620669,-1.997629
2.336,12.518372,3.7056317,6.9058595,1.1415837,-1.1730967,-1.9782145
2.338,12.438958,3.584507,6.9395933,1.12174,-1.1836416,-1.9586766
2.34,12.353387,3.4676251,6.9690323,1.1020459,-1.1939927,-1.9390068
2.342,12.261957,3.3550274,6.9942408,1.0823523,-1.2043765,-1.9191514
2.344,12.165123,3.2465758,7.015339,1.0625284,-1.2149638,-1.8990189
2.346,12.063174,3.1422703,7.0324183,1.0424632,-1.2258533,-1.8784722
2.348,11.956731,3.0420141,7.045677,1.0220735,-1.237071,-1.8573394
2.35,11.846276,2.945637,7.055349,1.0012807,-1.2485855,-1.8354409
2.352,11.732369,2.8530378,7.061572,0.9800383,-1.2603108,-1.8126072
2.354,11.615772,2.7640684,7.0646696,0.95830655,-1.2721126,-1.7886838
2.356,11.497003,2.6787496,7.065002,0.93607473,-1.283802,-1.763536
2.358,11.376973,2.5968945,7.06281,0.9133481,-1.2951795,-1.7370722
2.36,11.256348,2.5185306,7.0583115,0.89012796,-1.3060225,-1.7092603
2.362,11.135879,2.4435055,7.051894,0.86643755,-1.3161025,-1.6801088
2.364,11.0163355,2.3717413,7.0439196,0.84232825,-1.3252019,-1.6496588
2.366,10.898449,2.3031864,7.0345297,0.8178442,-1.333123,-1.6179979
2.368,10.782813,2.2377994,7.0240755,0.79302967,-1.3396825,-1.5852137
2.37,10.670197,2.1755795,7.0129113,0.7679496,-1.3447195,-1.5514208
2.372,10.561256,2.116339,7.0012093,0.74264014,-1.3481159,-1.5167278
2.374,10.456472,2.0602143,6.9893613,0.7171496,-1.3497703,-1.4812338
2.376,10.356309,2.0070596,6.97765,0.6915293,-1.3495953,-1.44503
2.378,10.261352,1.956894,6.966293,0.66581285,-1.3475437,-1.4082103
2.38,10.171638,1.9095768,6.9554596,0.64002246,-1.343577,-1.370834
2.382,10.087628,1.8650546,6.945379,0.6141995,-1.337666,-1.3329626
2.384,10.00946,1.8233732,6.9361815,0.5883792,-1.3297682,-1.2946718
2.386,9.93706,1.7844353,6.9280996,0.5626198,-1.3198547,-1.2560707
2.388,9.870632,1.7481828,6.9212456,0.53697497,-1.3078889,-1.217272
2.39,9.809991,1.714556,6.915671,0.51152503,-1.2938428,-1.1784184
2.392,9.755006,1.6835247,6.9114256,0.48635066,-1.2776767,-1.1396888
2.394,9.705341,1.6550014,6.908559,0.46154234,-1.259401,-1.1012862
2.396,9.660749,1.6288357,6.9070992,0.43719542,-1.239032,-1.0634056
2.398,9.620999,1.605046,6.9068704,0.4134143,-1.216613,-1.0262434
2.4,9.585676,1.5834515,6.9078436,0.39028147,-1.1922259,-0.9899835
2.402,9.554432,1.563999,6.909978,0.36786467,-1.1659824,-0.95478815
2.404,9.526799,1.5464386,6.913025,0.34622014,-1.1380161,-0.9207779
2.406,9.502439,1.5307697,6.9168983,0.32538942,-1.1084919,-0.888027
2.408,9.480795,1.5169184,6.921543,0.30538267,-1.0775942,-0.8565803
2.41,9.461503,1.5047812,6.92682,0.2861886,-1.0455221,-0.8264291
2.412,9.444143,1.4943974,6.9326763,0.26777327,-1.0124714,-0.79753876
2.414,9.428345,1.4855621,6.938884,0.2501075,-0.9786215,-0.7698504
2.416,9.413715,1.4781834,6.945221,0.23313455,-0.9441573,-0.74328893
2.418,9.399908,1.472199,6.951463,0.21679786,-0.9092443,-0.71777874
2.42,9.38659,1.4674529,6.957557,0.20105249,-0.87403023,-0.6932505
2.422,9.373396,1.4638386,6.963346,0.18585435,-0.83863974,-0.66963214
2.424,9.360039,1.4612604,6.968749,0.17115891,-0.80318385,-0.64686626
2.426,9.346063,1.4596426,6.973725,0.15695348,-0.7677496,-0.62491006
2.428,9.331355,1.4589243,6.978241,0.1432221,-0.732419,-0.60374033
2.43,9.315514,1.4590582,6.982144,0.1299477,-0.69726914,-0.5833513
2.432,9.298456,1.4599166,6.985391,0.11714151,-0.6623692,-0.56374526
2.434,9.280043,1.4613563,6.988033,0.10482871,-0.627801,-0.5449351
2.436,9.260118,1.4634095,6.9899697,0.093033195,-0.5936533,-0.5269442
2.438,9.238416,1.4659177,6.99127,0.08179422,-0.5600326,-0.5097873
2.44,9.215092,1.4687814,6.9919662,0.07116076,-0.52703893,-0.49347174
2.442,9.190083,1.4718881,6.991947,0.06116994,-0.4947753,-0.47801304
2.444,9.163263,1.4752195,6.9912724,0.05185885,-0.4633517,-0.46340773
2.446,9.13468,1.4784756,6.989937,0.043246146,-0.43287668,-0.44960833
2.448,9.104617,1.4816673,6.9879737,0.035349455,-0.40344337,-0.4365456
2.45,9.073005,1.4847146,6.9854827,0.028159425,-0.37513527,-0.42413744
2.452,9.040107,1.4874824,6.982433,0.021640144,-0.34800953,-0.4122822
2.454,9.006146,1.4900241,6.9789486,0.015737357,-0.32208005,-0.40090507
2.456,8.9713335,1.4922085,6.9751534,0.010362623,-0.29732928,-0.38994107
2.458,8.93593,1.4941547,6.9712563,0.005412074,-0.27371937,-0.37937418
2.46,8.900239,1.4958056,6.967297,0.0007610952,-0.25115046,-0.3692199
2.462,8.864587,1.4972287,6.963522,-0.003716206,-0.22950296,-0.35954058
2.464,8.829195,1.4984729,6.9599733,-0.008157492,-0.20864962,-0.35043308
2.466,8.794413,1.4995463,6.9569297,-0.012677412,-0.18843979,-0.34197372
2.468,8.760462,1.5005909,6.9545913,-0.017380226,-0.16873631,-0.33423042
2.47,8.727656,1.5016619,6.953208,-0.022323124,-0.1493779,-0.32722315
2.472,8.696336,1.5027156,6.9530163,-0.027532797,-0.1302033,-0.32092196
2.474,8.666572,1.5037966,6.9541097,-0.03300331,-0.11107188,-0.31522232
2.476,8.638645,1.5049975,6.956804,-0.038682535,-0.091826506,-0.30998477
2.478,8.612806,1.5061781,6.96113,-0.044490714,-0.07230067,-0.30502218
2.48,8.588847,1.5073966,6.967209,-0.050338846,-0.05231087,-0.30013376
2.482,8.56694,1.5086889,6.9750867,-0.05612643,-0.03165888,-0.29512873
2.484,8.547012,1.5099044,6.9847364,-0.06176322,-0.010121372,-0.28984734
2.486,8.528782,1.5111169,6.9960504,-0.06719149,0.012521405,-0.28419095
2.488,8.511997,1.5122297,7.0089273,-0.072368234,0.03648408,-0.27810878
2.49,8.496574,1.5133268,7.023206,-0.07727576,0.061951436,-0.2715866
2.492,8.482137,1.5141771,7.038616,-0.081930615,0.089071736,-0.26464963
2.494,8.468216,1.514724,7.0547857,-0.08638714,0.117944345,-0.25733516
2.496,8.454603,1.5147913,7.0712805,-0.0907054,0.1486021,-0.24967872
2.498,8.440724,1.5144646,7.087714,-0.0949762,0.18102108,-0.24172029
2.5,8.426121,1.5136826,7.1036477,-0.09930202,0.21511434,-0.23349465
2.502,8.410284,1.5122796,7.1185327,-0.10380665,0.2507558,-0.22500771
2.504,8.392728,1.5104499,7.131927,-0.108616404,0.28776237,-0.21623608
2.506,8.372801,1.5082264,7.1433215,-0.113854915,0.32591066,-0.20714183
2.508,8.350045,1.50554,7.152219,-0.11964269,0.3649525,-0.19765443
2.51,8.324164,1.5026009,7.158181,-0.12609111,0.40462068,-0.18771914
2.512,8.294581,1.4995626,7.1608167,-0.13331573,0.44466084,-0.17726116
2.514,8.26094,1.496717,7.1597238,-0.1414175,0.48478958,-0.16620949
2.516,8.222901,1.4940761,7.1545444,-0.15048784,0.52474004,-0.1544851
2.518,8.180345,1.491872,7.144894,-0.16060163,0.5642691,-0.14200217
2.52,8.1328945,1.4904084,7.1306176,-0.17183836,0.6031239,-0.12869433
2.522,8.080662,1.4898188,7.1115527,-0.18426302,0.64107263,-0.11446169
2.524,8.023441,1.4905577,7.087712,-0.1979522,0.67787147,-0.09921032
2.526,7.961252,1.4929543,7.059119,-0.21296771,0.71328914,-0.08282216
2.528,7.8941946,1.4973807,7.0258894,-0.22937486,0.7470924,-0.06520037
2.53,7.822525,1.5041866,6.98809,-0.24724442,0.7790512,-0.04623866
2.532,7.7464814,1.5137502,6.9459343,-0.26665398,0.80895317,-0.025870591
2.534,7.666443,1.5262423,6.899592,-0.28767267,0.83658797,-0.0040656477
2.536,7.583001,1.5418786,6.849329,-0.31037477,0.86176103,0.01917182
2.538,7.496454,1.5608402,6.7955246,-0.33482173,0.88431406,0.043774582
2.54,7.4073777,1.5831981,6.7384987,-0.3610798,0.90412813,0.06963335
2.542,7.3162117,1.6092019,6.6787467,-0.3892016,0.92111605,0.09658845
2.544,7.2235913,1.6389042,6.6166844,-0.41923004,0.935239,0.124461696
2.546,7.1299477,1.6722289,6.5528197,-0.45118058,0.9464885,0.15306668
2.548,7.0361257,1.7091646,6.4876504,-0.485055,0.9548824,0.18221037
2.55,6.942534,1.7496519,6.421715,-0.5208375,0.9604654,0.21172328
2.552,6.8497906,1.7935153,6.3555512,-0.5585187,0.9633041,0.24145505
2.554,6.758385,1.8404331,6.289614,-0.5980688,0.96346325,0.27127853
2.556,6.6688275,1.8903456,6.224399,-0.6394514,0.96101505,0.30106604
2.558,6.581721,1.9429737,6.1604037,-0.6826251,0.95605767,0.33069706
2.56,6.497338,1.9980288,6.097966,-0.72754985,0.9486803,0.36005807
2.562,6.4159436,2.0552127,6.037598,-0.7741729,0.9389949,0.38902467
2.564,6.337787,2.1141586,5.9795914,-0.8224395,0.92712504,0.41749263
2.566,6.263073,2.1745667,5.924278,-0.87226987,0.9131711,0.44536558
2.568,6.191929,2.2360134,5.8718576,-0.9235816,0.89726144,0.4725864
2.57,6.124303,2.2983546,5.82263,-0.97627586,0.8794975,0.49913734
2.572,6.060277,2.3611865,5.7766447,-1.0302477,0.8599673,0.52502596
2.574,5.9997306,2.4242346,5.734131,-1.0853763,0.83877885,0.55029505
2.576,5.942591,2.4873085,5.6949925,-1.1415335,0.81602997,0.5749929
2.578,5.8885527,2.5500917,5.6593094,-1.1985519,0.79182917,0.5991922
2.58,5.8374386,2.6124368,5.6270223,-1.256277,0.76628345,0.6229513
2.582,5.788953,2.6742697,5.5979624,-1.3145381,0.73951876,0.6463572
2.584,5.7428565,2.7354412,5.572078,-1.3731539,0.7116306,0.66947913
2.586,5.6988926,2.795802,5.5491967,-1.431957,0.6827238,0.6924048
2.588,5.6566687,2.8553772,5.5292215,-1.4907852,0.6529057,0.71522033
2.59,5.6162195,2.914043,5.5118694,-1.5494992,0.6222478,0.7379915
2.592,5.5769987,2.9718618,5.497053,-1.6079916,0.59080684,0.7608006
2.594,5.5389624,3.0287442,5.4845133,-1.6661676,0.5586184,0.7836979
2.596,5.5020022,3.0845637,5.474181,-1.723986,0.5257222,0.8067235
2.598,5.465905,3.1393495,5.4658227,-1.7814201,0.49215478,0.82987165
2.6,5.430664,3.1929996,5.459402,-1.8384726,0.45795554,0.8530995
2.602,5.3960824,3.245563,5.4547153,-1.8951455,0.42319667,0.8763326
2.604,5.362368,3.2969692,5.451823,-1.951441,0.3879754,0.89945155
2.606,5.3293195,3.3470547,5.450678,-2.0073204,0.3524062,0.922313
2.608,5.2970815,3.3957043,5.451036,-2.0627465,0.3166427,0.9447707
2.61,5.26572,3.4428189,5.4530067,-2.1176429,0.28086653,0.96670055
2.612,5.2355027,3.4882343,5.456599,-2.171904,0.24528047,0.987993
2.614,5.2064714,3.531781,5.461628,-2.2253811,0.21013182,1.0085794
2.616,5.1788745,3.573337,5.4680986,-2.2779188,0.17567499,1.0284234
2.618,5.1527715,3.6127675,5.475916,-2.32932,0.14220214,1.047514
2.62,5.128229,3.6499424,5.4850864,-2.3794026,0.110063046,1.0658786
2.622,5.105447,3.6847734,5.495393,-2.427956,0.07959959,1.0835648
2.624,5.084524,3.717211,5.5067406,-2.4747818,0.05117303,1.1006514
2.626,5.0655355,3.747277,5.5189915,-2.5196857,0.025139093,1.1172632
2.628,5.048458,3.7750695,5.5319586,-2.5625129,0.0018271953,1.1335467
2.63,5.0335045,3.8006325,5.545457,-2.603127,-0.01846157,1.1496617
2.632,5.0204334,3.8242307,5.5592504,-2.6414611,-0.03548281,1.1657794
2.634,5.0094686,3.8459647,5.5730925,-2.6774697,-0.04904279,1.1820889
2.636,5.000359,3.8660836,5.58681,-2.71116,-0.059033573,1.1987467
2.638,4.9932714,3.8848443,5.6002064,-2.742581,-0.06541447,1.2159063
2.64,4.988007,3.9025748,5.6129913,-2.7717936,-0.068221286,1.2337035
2.642,4.9845405,3.9195764,5.6249943,-2.7989109,-0.06756158,1.2522322
2.644,4.982793,3.936333,5.636175,-2.82405,-0.063586235,1.2715654
2.646,4.9825726,3.953163,5.646394,-2.847315,-0.056493968,1.2917206
2.648,4.983815,3.9705973,5.6554604,-2.868813,-0.046510607,1.3126894
2.65,4.986434,3.9889712,5.6635036,-2.888645,-0.033880293,1.3344216
2.652,4.99037,4.0086966,5.6704845,-2.9068964,-0.018845469,1.3568534
2.654,4.9954314,4.030192,5.6763735,-2.9236388,-0.001637429,1.379904
2.656,5.0016074,4.053857,5.6812134,-2.9389434,0.017525822,1.4035003
2.658,5.008768,4.0799923,5.685135,-2.9528759,0.038448453,1.4275796
2.66,5.0167446,4.1090536,5.68823,-2.965499,0.060966343,1.4520842
2.662,5.025503,4.1412764,5.690613,-2.9768713,0.08493224,1.4769597
2.664,5.034987,4.177043,5.6923623,-2.9870431,0.110227644,1.5021646
2.666,5.0451446,4.2165384,5.6935844,-2.9960668,0.13674527,1.5276898
2.668,5.055634,4.2600055,5.694318,-3.0040214,0.16439044,1.5535072
2.67,5.066639,4.307612,5.6947317,-3.0109522,0.19306782,1.579608
2.672,5.0780344,4.3595753,5.6947107,-3.016929,0.22268322,1.6059906
2.674,5.089831,4.416042,5.6943913,-3.0219958,0.25312942,1.6326222
2.676,5.1019874,4.4771166,5.6937785,-3.0262198,0.28429586,1.659471
2.678,5.114363,4.5428724,5.6927886,-3.029663,0.3160691,1.6864775
2.68,5.127134,4.613102,5.6914654,-3.032383,0.34831786,1.7135781
2.682,5.1400986,4.68787,5.689827,-3.034422,0.38090217,1.7406828
2.684,5.153487,4.767096,5.687829,-3.0358317,0.4136871,1.7676836
2.686,5.1672945,4.8505206,5.6854725,-3.0366368,0.4465387,1.7944627
2.688,5.1814837,4.9380016,5.682743,-3.0368779,0.4793086,1.820893
2.69,5.1961284,5.0292406,5.679597,-3.0365715,0.51187146,1.846854
2.692,5.211357,5.1239324,5.6760535,-3.03575,0.5441171,1.8722345
2.694,5.227288,5.2216945,5.6721478,-3.0344284,0.57595646,1.8969074
2.696,5.2438893,5.322066,5.667854,-3.0326025,0.6073198,1.9207597
2.698,5.2614255,5.424487,5.6632476,-3.0302858,0.63818765,1.9436975
2.7,5.2797275,5.5284915,5.6583796,-3.0274823,0.6685573,1.9656258
2.702,5.2992063,5.6334677,5.653186,-3.0242012,0.6984662,1.9864566
2.704,5.319751,5.7388344,5.6478186,-3.020418,0.72799045,2.006107
2.706,5.3414907,5.8439217,5.6422067,-3.016111,0.7572191,2.0245144
2.708,5.364361,5.9480643,5.6364374,-3.0112596,0.7862631,2.0416164
2.71,5.3883467,6.0505295,5.630549,-3.0058286,0.8152422,2.0573509
2.712,5.413456,6.1508207,5.62457,-2.9997911,0.8442744,2.0716891
2.714,5.439596,6.24825,5.618546,-2.9931128,0.87345695,2.0846329
2.716,5.466828,6.342345,5.612544,-2.9857605,0.9028665,2.0962033
2.718,5.4948845,6.432415,5.6064844,-2.9777133,0.9325503,2.106431
2.72,5.5236435,6.51796,5.6003695,-2.9689403,0.9625455,2.1153603
2.722,5.552818,6.5986004,5.5941143,-2.9594162,0.9928638,2.1230836
2.724,5.582297,6.673859,5.5876837,-2.94913,1.0235,2.1296866
2.726,5.611799,6.7433133,5.5809956,-2.938073,1.0544239,2.1352875
2.728,5.640973,6.8067684,5.573968,-2.9262564,1.0855876,2.1400309
2.73,5.669471,6.8638926,5.5663176,-2.9136891,1.1169612,2.1440594
2.732,5.6969376,6.9145436,5.557943,-2.9003851,1.1485169,2.147532
2.734,5.722912,6.95871,5.548745,-2.886371,1.1802204,2.1505933
2.736,5.7469306,6.996457,5.538403,-2.8716838,1.2120496,2.1533816
2.738,5.7685328,7.027775,5.5266953,-2.8563557,1.2440135,2.1560047
2.74,5.787231,7.0528474,5.5133324,-2.8404179,1.276124,2.15854
2.742,5.8025866,7.0718074,5.4979944,-2.8238819,1.3084075,2.1610062
2.744,5.813979,7.0849156,5.480454,-2.8067799,1.3408952,2.1634076
2.746,5.821063,7.0925207,5.4603457,-2.7891164,1.3736068,2.165698
2.748,5.823136,7.0948944,5.437252,-2.7709136,1.4065342,2.1678536
2.75,5.819807,7.0923767,5.411073,-2.7521946,1.4396352,2.1698494
2.752,5.8105373,7.085429,5.3815975,-2.7329826,1.4728177,2.171692
2.754,5.794856,7.07452,5.348466,-2.7133355,1.50593,2.1734405
2.756,5.7722178,7.0601907,5.311489,-2.6933184,1.5387714,2.1751907
2.758,5.7424307,7.0427594,5.270564,-2.6730359,1.5710868,2.1770709
2.76,5.7050705,7.0226207,5.225529,-2.6526108,1.6025901,2.1792364
2.762,5.659885,7.000188,5.176179,-2.6321802,1.6329802,2.1818602
2.764,5.6067047,6.9758434,5.122693,-2.6118898,1.6619246,2.1851006
2.766,5.5454626,6.9499216,5.065067,-2.5918996,1.689135,2.1890907
2.768,5.4759274,6.922786,5.003403,-2.572352,1.7143519,2.1939101
2.77,5.398224,6.894771,4.9379654,-2.553384,1.7373527,2.1996
2.772,5.3124843,6.8661337,4.8689384,-2.5351102,1.7579614,2.2061784
2.774,5.218977,6.8371673,4.7966623,-2.517629,1.776049,2.213625
2.776,5.1179895,6.8078904,4.7213755,-2.5010102,1.7915474,2.2218835
2.778,5.0100126,6.778408,4.643495,-2.4852977,1.804414,2.230898
2.78,4.8954487,6.748883,4.5633173,-2.4705362,1.814656,2.2405906
2.782,4.774957,6.7191973,4.4813166,-2.456745,1.8223121,2.250885
2.784,4.6491485,6.6892667,4.3978705,-2.443933,1.8274498,2.2617023
2.786,4.518648,6.65916,4.313352,-2.4321148,1.8301607,2.2729406
2.788,4.384247,6.628623,4.228262,-2.421288,1.8305669,2.2844896
2.79,4.2466583,6.597707,4.1427674,-2.4114153,1.8288058,2.2962403
2.792,4.106693,6.566161,4.0573506,-2.4024706,1.8250237,2.3080986
2.794,3.9649248,6.53387,3.9722557,-2.3944056,1.8193957,2.3199558
2.796,3.822235,6.500724,3.887772,-2.3871539,1.8120948,2.331746
2.798,3.679329,6.466617,3.8041391,-2.3806448,1.8033161,2.3434033
2.8,3.5369368,6.43147,3.7216008,-2.3748002,1.7932311,2.3548977
2.802,3.3955526,6.395222,3.6402078,-2.3695219,1.7820297,2.3662167
2.804,3.255734,6.3577557,3.5600758,-2.3647354,1.7698787,2.3773584
2.806,3.118042,6.3192234,3.4813008,-2.3603683,1.7569356,2.3883271
2.808,2.982832,6.2797565,3.4038208,-2.356353,1.7433511,2.3991518
2.81,2.850485,6.239399,3.3276992,-2.3526325,1.7292247,2.409877
2.812,2.7209249,6.198324,3.2528567,-2.3491719,1.7146273,2.420571
2.814,2.594369,6.156927,3.1791084,-2.34594,1.6996104,2.4313087
2.816,2.4708693,6.1155043,3.1064491,-2.3429391,1.6841805,2.442181
2.818,2.3503566,6.0744114,3.034741,-2.340186,1.6683297,2.4532936
2.82,2.2326107,6.034032,2.9637432,-2.3377132,1.6520089,2.4647381
2.822,2.117575,5.9946136,2.8934658,-2.335575,1.6351436,2.4766316
2.824,2.0048175,5.956641,2.82359,-2.333849,1.6176496,2.48907
2.826,1.8939962,5.9205008,2.7541203,-2.3326097,1.5993974,2.5021052
2.828,1.7849027,5.886512,2.6850898,-2.331934,1.580253,2.51578
2.83,1.6771971,5.8551455,2.6162357,-2.33191,1.560049,2.5300934
2.832,1.5705235,5.8265934,2.5476732,-2.3326182,1.5386208,2.545011
2.834,1.4644752,5.801078,2.4794915,-2.334106,1.5157719,2.5604491
2.836,1.3589319,5.7788105,2.4116971,-2.336391,1.4912882,2.5762892
2.838,1.2536118,5.7597756,2.3444784,-2.339484,1.4649608,2.5923824
2.84,1.1483905,5.7439218,2.2780514,-2.343337,1.4366138,2.6085324
2.842,1.0431616,5.7310667,2.212665,-2.3478703,1.4061005,2.6244926
2.844,0.93788856,5.7208242,2.1485949,-2.352962,1.3733035,2.6399722
2.846,0.8324952,5.7129774,2.0862818,-2.3584323,1.3381637,2.6546433
2.848,0.7271085,5.7071924,2.0261931,-2.3640366,1.3006997,2.668165
2.85,0.62162215,5.703082,1.9686257,-2.369503,1.2609991,2.6802068
2.852,0.51623046,5.700327,1.91407,-2.3745055,1.2192227,2.690464
2.854,0.41114938,5.698724,1.8628821,-2.378707,1.1756332,2.6986997
2.856,0.30634254,5.6978636,1.8155063,-2.381761,1.1305298,2.7047539
2.858,0.20211619,5.697585,1.7723075,-2.3833249,1.0842751,2.7085645
2.86,0.09872514,5.697619,1.7336301,-2.3830962,1.0372623,2.710176
2.862,-0.0035040379,5.697822,1.6996683,-2.3808393,0.9898987,2.7097206
2.864,-0.10439074,5.6980944,1.6708026,-2.3763695,0.9426147,2.7074142
2.866,-0.20363957,5.698324,1.6471024,-2.3695705,0.8958143,2.7035131
2.868,-0.3011405,5.6986656,1.6287243,-2.360405,0.8498543,2.6983285
2.87,-0.39670438,5.69931,1.6156676,-2.3488808,0.80506647,2.6921573
2.872,-0.4903276,5.7004385,1.6078717,-2.3350582,0.7617297,2.685285
2.874,-0.58174247,5.702361,1.6051687,-2.3190398,0.720073,2.6779463
2.876,-0.6710786,5.705327,1.6073431,-2.300935,0.68026567,2.6702886
2.878,-0.75823593,5.709792,1.6139549,-2.2808475,0.64244473,2.6623917
2.88,-0.84321123,5.715973,1.624705,-2.2588787,0.6067223,2.6542702
2.882,-0.92632467,5.724374,1.6391536,-2.2351036,0.57315683,2.6458523
2.884,-1.0077813,5.7353,1.6567587,-2.209562,0.541794,2.6370351
2.886,-1.0877188,5.749257,1.6770756,-2.1822658,0.5126589,2.6276884
2.888,-1.1665096,5.7664876,1.6993818,-2.1532183,0.48576283,2.617684
2.89,-1.2445023,5.787198,1.723208,-2.1224203,0.46109027,2.6069205
2.892,-1.3219488,5.811593,1.7478535,-2.08986,0.43860123,2.5953465
2.894,-1.3995144,5.8398724,1.7726485,-2.0555606,0.41822436,2.582965
2.896,-1.4774468,5.871964,1.7970142,-2.0195875,0.39985538,2.569846
2.898,-1.5562027,5.907793,1.8202343,-1.9820337,0.38335478,2.556096
2.9,-1.6363368,5.947248,1.8419396,-1.9430459,0.36853728,2.5418272
2.902,-1.7182522,5.9899397,1.8614113,-1.9028239,0.35518128,2.5271559
2.904,-1.8023894,6.0354114,1.8781875,-1.861558,0.34303477,2.5121467
2.906,-1.8892304,6.0832443,1.891828,-1.8194548,0.33182183,2.49682
2.908,-1.9790089,6.132774,1.9020982,-1.7767205,0.32126054,2.4811125
2.91,-2.0721107,6.1832533,1.9085016,-1.7335231,0.3110854,2.4648921
2.912,-2.16885,6.2340584,1.9109759,-1.689976,0.30107012,2.447982
2.914,-2.269406,6.284415,1.9094119,-1.6461759,0.29099277,2.4301453
2.916,-2.3737628,6.333318,1.9037682,-1.602161,0.28068522,2.4111614
2.918,-2.481953,6.3799143,1.8941109,-1.5579386,0.27002317,2.3908076
2.92,-2.593905,6.423339,1.8805764,-1.5134969,0.25893733,2.368915
2.922,-2.7092574,6.462712,1.8633771,-1.4688176,0.24742243,2.3453734
2.924,-2.8277729,6.4971886,1.842906,-1.4238653,0.23551893,2.3201299
2.926,-2.9491923,6.525968,1.8194479,-1.3786116,0.2233195,2.2931876
2.928,-3.072823,6.5483637,1.7935245,-1.333034,0.2109788,2.2646089
2.93,-3.1981843,6.5637856,1.7655591,-1.2871214,0.1987128,2.234496
2.932,-3.324793,6.571773,1.736093,-1.2408681,0.1867705,2.2029643
2.934,-3.4518692,6.5719185,1.7056503,-1.1942737,0.17543039,2.1701555
2.936,-3.57873,6.5640306,1.6747864,-1.1473546,0.16499555,2.136217
2.938,-3.7047248,6.5480366,1.6440437,-1.1001222,0.15577707,2.101298
2.94,-3.8292007,6.5239596,1.6140294,-1.0526087,0.14805916,2.0655532
2.942,-3.951539,6.4921784,1.5851463,-1.0048602,0.1420897,2.0291615
2.944,-4.0709248,6.4530067,1.5578122,-0.9569191,0.13808587,1.9922953
2.946,-4.1869507,6.40712,1.5325471,-0.90886754,0.1361931,1.9551362
2.948,-4.298855,6.3551364,1.5096036,-0.860787,0.13649884,1.9178734
2.95,-4.406252,6.297912,1.489355,-0.8127744,0.13903001,1.880708
2.952,-4.5085564,6.236206,1.4720517,-0.7649445,0.14375901,1.8438225
2.954,-4.605455,6.170904,1.4579289,-0.717432,0.1505925,1.8073997
2.956,-4.6963396,6.102775,1.4471446,-0.67035544,0.15939334,1.7715714
2.958,-4.7811556,6.0325837,1.4397953,-0.62386394,0.16999671,1.7364452
2.96,-4.859414,5.961031,1.4360384,-0.57806075,0.1822238,1.7020662
2.962,-4.9310193,5.888669,1.43587,-0.53302085,0.19588651,1.6684312
2.964,-4.99588,5.815954,1.4391901,-0.48880512,0.21080615,1.6354741
2.966,-5.0537753,5.743286,1.446015,-0.44542176,0.22679137,1.6030608
2.968,-5.1048346,5.670991,1.4562434,-0.4028078,0.24370807,1.571018
2.97,-5.149193,5.5993533,1.4695926,-0.3608682,0.2614532,1.5390881
2.972,-5.1870613,5.5284233,1.4858931,-0.3194647,0.27993727,1.5069888
2.974,-5.218658,5.4581413,1.5048356,-0.2784103,0.2991329,1.4744153
2.976,-5.243984,5.388539,1.5262707,-0.23747534,0.31904373,1.4410433
2.978,-5.263473,5.3192687,1.5497658,-0.19641826,0.33970857,1.4065759
2.98,-5.2774105,5.2501416,1.5749166,-0.15499714,0.36119494,1.370772
2.982,-5.2860985,5.1808386,1.6013553,-0.1129891,0.3835876,1.3334441
2.984,-5.290045,5.1109996,1.6286231,-0.07019228,0.4069566,1.2944859
2.986,-5.2896295,5.0403605,1.6562735,-0.026463151,0.431373,1.253878
2.988,-5.2852864,4.968547,1.683876,0.018271685,0.4568867,1.2116846
2.99,-5.27764,4.895386,1.7109032,0.06403187,0.48350477,1.1680607
2.992,-5.266895,4.8206234,1.7369367,0.11073859,0.5111955,1.1232287
2.994,-5.253777,4.7441244,1.761518,0.15826577,0.53988355,1.0774677
2.996,-5.238777,4.6659164,1.7842082,0.2064237,0.56945807,1.0310768
2.998,-5.22237,4.5861406,1.8046279,0.25497237,0.5997545,0.9843656
3,-5.2050567,4.505015,1.8224607,0.30365705,0.6305892,0.93763614
3.002,-5.187309,4.4228024,1.8374932,0.3522068,0.66174,0.8911755
3.004,-5.1693683,4.3397756,1.8494108,0.40035665,0.69297814,0.8452175
3.006,-5.1516924,4.2562904,1.8580732,0.44786388,0.72407424,0.799973
3.008,-5.1347,4.1728873,1.8634452,0.4945256,0.75479805,0.75561434
3.01,-5.118471,4.0899186,1.8653809,0.5401561,0.7849267,0.7122967
3.012,-5.1031857,4.0079465,1.8639905,0.5846187,0.81426054,0.67012227
3.014,-5.089048,3.9274638,1.8593886,0.6277832,0.84260625,0.62917715
3.016,-5.076073,3.8487418,1.8517742,0.6695824,0.8698109,0.5895089
3.018,-5.065073,3.7736259,1.8414791,0.7099697,0.89574736,0.5511267
3.02,-5.0555477,3.7013042,1.8287076,0.74892473,0.9203239,0.51401776
3.022,-5.04737,3.6319833,1.813682,0.786456,0.9434612,0.47811615
3.024,-5.0404763,3.5659266,1.7967014,0.82259774,0.9650973,0.443337
3.026,-5.034893,3.5033355,1.7781211,0.8574169,0.9852107,0.409571
3.028,-5.030408,3.4442186,1.7583373,0.89098644,1.0037737,0.37668514
3.03,-5.026775,3.388597,1.7376864,0.92339206,1.0207816,0.3445362
3.032,-5.023931,3.3364248,1.7165451,0.95472836,1.0362504,0.3129867
3.034,-5.0216393,3.2875793,1.6951694,0.9851022,1.0502037,0.281893
3.036,-5.019687,3.2419744,1.6739063,1.0146147,1.0626874,0.25114083
3.038,-5.0180306,3.1994338,1.6529658,1.0433583,1.0737653,0.22064453
3.04,-5.016438,3.1598175,1.632673,1.0714095,1.0834949,0.19035676
3.042,-5.014758,3.1229014,1.613147,1.0988339,1.0919467,0.16024482
3.044,-5.012874,3.0885327,1.5946217,1.1256785,1.0992182,0.13031274
3.046,-5.010665,3.0565255,1.5771477,1.151165,1.1053408,0.10154027
3.048,-5.008076,3.026742,1.5608404,1.1757145,1.1104602,0.07349652
3.05,-5.004981,2.9989626,1.5457132,1.199202,1.1146702,0.046397507
3.052,-5.0013084,2.972973,1.531922,1.2214825,1.118062,0.020480216
3.054,-4.997173,2.9487138,1.5194428,1.2424153,1.1207331,-0.004030645
3.056,-4.992454,2.9258852,1.5081856,1.261876,1.1227877,-0.026946783
3.058,-4.9872537,2.904427,1.4982238,1.279779,1.1243184,-0.048117936
3.06,-4.981468,2.8841572,1.4894469,1.2960781,1.1254101,-0.067457855
3.062,-4.9752803,2.8650427,1.4817994,1.3107815,1.1261516,-0.08494514
3.064,-4.968553,2.8470163,1.4751711,1.3239399,1.1266173,-0.10063255
3.066,-4.961532,2.8298836,1.4695075,1.3356364,1.126869,-0.11460331
3.068,-4.9540505,2.8136516,1.4647088,1.3460021,1.1269685,-0.12698945
