Time_s_,Acc_x_m_s_2_,Acc_y_m_s_2_,Acc_z_m_s_2_,Gyro_x_1_s_,Gyro_y_1_s_,Gyro_z_1_s_
0,-0.15524544,0.60625196,-0.86507756,-0.03004989,-0.49409017,-0.015107159
0.002,-0.31452006,0.6907885,-0.8458034,-0.020964175,-0.5104654,-0.0059228204
0.004,-0.48626783,0.7795181,-0.82367206,-0.010838047,-0.52916676,0.004103057
0.006,-0.67099524,0.8729113,-0.79790115,0.00043095648,-0.5503366,0.015090708
0.008,-0.86901605,0.9715581,-0.76872027,0.012888387,-0.5740377,0.027151484
0.01,-1.080787,1.0759295,-0.7389284,0.026530698,-0.6002184,0.04040193
0.012,-1.3071157,1.1856087,-0.70758504,0.04127717,-0.6286554,0.054963488
0.014,-1.5484157,1.3005087,-0.67269784,0.056971103,-0.658953,0.07096851
0.016,-1.8064919,1.4221399,-0.6325299,0.073369294,-0.69055384,0.08857882
0.018,-2.0802722,1.5498389,-0.5868198,0.090143755,-0.72282434,0.10796898
0.02,-2.3699007,1.682858,-0.53641236,0.10691503,-0.7550718,0.12930825
0.022,-2.6752276,1.8202105,-0.4844311,0.123266,-0.7866385,0.15276839
0.024,-2.9943066,1.9606041,-0.432071,0.13878931,-0.8169488,0.17847359
0.026,-3.326497,2.1039696,-0.37881094,0.15311648,-0.84556496,0.20646039
0.028,-3.6702814,2.2505422,-0.32346398,0.16637407,-0.87299395,0.23721343
0.03,-4.0247755,2.4008121,-0.26626468,0.1776614,-0.8981307,0.26977223
0.032,-4.387929,2.5541658,-0.20832139,0.18687123,-0.92118585,0.30394533
0.034,-4.7577353,2.7097085,-0.15011016,0.1939109,-0.9424835,0.33945382
0.036,-5.1316066,2.8665771,-0.09101209,0.19870093,-0.96243775,0.3759056
0.038,-5.508031,3.0254996,-0.032583058,0.20128372,-0.9812888,0.41286442
0.04,-5.8830795,3.1841052,0.02243933,0.20182478,-0.9991044,0.4498629
0.042,-6.2532253,3.3414688,0.07331893,0.2006017,-1.0159891,0.48649168
0.044,-6.616324,3.4979548,0.11927155,0.19799313,-1.031903,0.52260184
0.046,-6.9692535,3.6530902,0.15945917,0.19449037,-1.0464796,0.55820584
0.048,-7.3085318,3.8065422,0.19303364,0.19075,-1.0590591,0.593494
0.05,-7.630967,3.957786,0.21878493,0.18762714,-1.068558,0.628883
0.052,-7.9333754,4.10624,0.23544449,0.18611073,-1.0736877,0.66491485
0.054,-8.21277,4.2513022,0.24161321,0.18721285,-1.0731251,0.702298
0.056,-8.473981,4.3962727,0.23636687,0.19198763,-1.0654408,0.7419196
0.058,-8.705083,4.535842,0.21805665,0.20143044,-1.0492045,0.78469574
0.06,-8.904217,4.6699266,0.18642911,0.21639329,-1.0230976,0.83138424
0.062,-9.0700445,4.7984624,0.1410332,0.23743108,-0.9862437,0.882609
0.064,-9.201195,4.921899,0.08132917,0.26468,-0.9384066,0.9388842
0.066,-9.297217,5.040394,0.0072135925,0.29782808,-0.88015795,1.0005292
0.068,-9.357771,5.154191,-0.08049765,0.33605355,-0.8128917,1.0674012
0.07,-9.382837,5.2635574,-0.18050453,0.37793714,-0.73917884,1.1389873
0.072,-9.37358,5.3690014,-0.29173872,0.42148146,-0.66274923,1.2145841
0.074,-9.331224,5.4710526,-0.41262048,0.46436125,-0.5881767,1.2930477
0.076,-9.257675,5.570236,-0.54103756,0.50409734,-0.5207493,1.3727123
0.078,-9.15534,5.667254,-0.6742084,0.5382661,-0.46609792,1.4515058
0.08,-9.026913,5.762669,-0.80920357,0.56476927,-0.42973137,1.5270104
0.082,-8.875557,5.8566284,-0.9429956,0.5820208,-0.41657805,1.5965505
0.084,-8.70433,5.949276,-1.072471,0.58910066,-0.43055052,1.6573541
0.086,-8.516886,6.040427,-1.1945627,0.5858227,-0.47422057,1.7067895
0.088,-8.316926,6.12971,-1.306522,0.5727058,-0.5486734,1.7426077
0.09,-8.108049,6.216671,-1.4054681,0.55091995,-0.65339315,1.7631346
0.092,-7.893939,6.3007026,-1.4887749,0.5221297,-0.7864402,1.767371
0.094,-7.678264,6.381137,-1.5538586,0.4883961,-0.9445171,1.7551239
0.096,-7.4640994,6.4570265,-1.5987258,0.45205876,-1.1231053,1.7269418
0.098,-7.254298,6.527234,-1.6217806,0.4155402,-1.3170397,1.6840328
0.1,-7.0513716,6.590522,-1.6218495,0.38118154,-1.520878,1.6282645
0.102,-6.8574,6.645584,-1.5982498,0.35105786,-1.7291578,1.5619444
0.104,-6.6738358,6.6906624,-1.550569,0.3268235,-1.9367776,1.4875585
0.106,-6.5015693,6.7240953,-1.4785942,0.30966932,-2.1391187,1.4076395
0.108,-6.340982,6.744425,-1.382607,0.30031127,-2.332175,1.3244687
0.11,-6.192031,6.7504373,-1.2632041,0.29887474,-2.5129435,1.2399157
0.112,-6.055001,6.74095,-1.1212364,0.3049742,-2.679401,1.1555222
0.114,-5.9311666,6.7147245,-0.95700127,0.31780052,-2.8304615,1.0725145
0.116,-5.816196,6.6701164,-0.77175766,0.33629936,-2.9656885,0.9916914
0.118,-5.709039,6.607829,-0.5673182,0.35927695,-3.0852134,0.91342455
0.12,-5.6090064,6.525407,-0.3426155,0.38547212,-3.189611,0.83779955
0.122,-5.513007,6.42041,-0.09838845,0.413692,-3.2797852,0.7648241
0.124,-5.4182353,6.292798,0.16238825,0.44297308,-3.3565168,0.6943288
0.126,-5.3219533,6.1431756,0.43638447,0.47264302,-3.420445,0.62594485
0.128,-5.2236547,5.9733105,0.721517,0.50217664,-3.4721813,0.559457
0.13,-5.122114,5.784685,1.0162748,0.5312752,-3.5120385,0.4947903
0.132,-5.0169463,5.578943,1.3195794,0.5598701,-3.5400708,0.43189973
0.134,-4.9050713,5.3555703,1.6283226,0.58808744,-3.5560532,0.37083405
0.136,-4.7847295,5.11358,1.9378476,0.61624813,-3.5594277,0.31174532
0.138,-4.6549973,4.8516603,2.245205,0.6448442,-3.5493805,0.254841
0.14,-4.514095,4.569316,2.5493243,0.6744925,-3.524881,0.20031226
0.142,-4.361424,4.2677817,2.8480155,0.70584226,-3.484857,0.1483104
0.144,-4.1960616,3.9480433,3.1382964,0.7392591,-3.428585,0.09913371
0.146,-4.0175896,3.610584,3.416084,0.7748354,-3.3550935,0.053379424
0.148,-3.8249216,3.2551727,3.6788661,0.8127479,-3.263292,0.011125423
0.15,-3.6194544,2.8847537,3.9241905,0.853162,-3.1526196,-0.02800655
0.152,-3.4018874,2.5008,4.14755,0.8959249,-3.0228925,-0.06395049
0.154,-3.1721125,2.1041791,4.345246,0.9403384,-2.8744245,-0.096193284
0.156,-2.9315252,1.6970966,4.514169,0.9852793,-2.7081375,-0.124289155
0.158,-2.6814141,1.2811697,4.6521583,1.0295247,-2.525437,-0.148034
0.16,-2.4232779,0.85824275,4.7585487,1.0718346,-2.328297,-0.16736446
0.162,-2.1581533,0.42983973,4.8333282,1.110915,-2.119307,-0.18229812
0.164,-1.8870485,-0.0022963285,4.8774624,1.1457604,-1.9010372,-0.19297132
0.166,-1.6108873,-0.43643594,4.8926787,1.1755147,-1.6765838,-0.19981427
0.168,-1.3311384,-0.87062824,4.8791795,1.1993034,-1.4497701,-0.20345485
0.17,-1.0576267,-1.3008099,4.839956,1.2162905,-1.2245538,-0.20461357
0.172,-0.77574754,-1.7335541,4.7863426,1.2255617,-1.0052756,-0.20436372
0.174,-0.48725426,-2.1680303,4.7135787,1.2260196,-0.7968919,-0.2041452
0.176,-0.19815361,-2.5981526,4.625658,1.2163975,-0.6047703,-0.20555653
0.178,0.09943235,-3.0218356,4.5388646,1.195261,-0.43450952,-0.21027835
0.18,0.41362083,-3.437282,4.4645567,1.1610893,-0.29160288,-0.21995929
0.182,0.7306192,-3.8339489,4.4072137,1.1124707,-0.18101302,-0.23605093
0.184,1.0433267,-4.204584,4.3644595,1.0483447,-0.106585026,-0.25956225
0.186,1.3619976,-4.548273,4.3317547,0.9682135,-0.07049784,-0.2909631
0.188,1.6880405,-4.863739,4.3161173,0.87226474,-0.07293162,-0.33011615
0.19,2.0182512,-5.152799,4.3322554,0.7614439,-0.11185613,-0.37613657
0.192,2.3529172,-5.4210024,4.386878,0.63736945,-0.18307959,-0.42737648
0.194,2.6919072,-5.667536,4.471992,0.50224715,-0.28048182,-0.48152196
0.196,3.032144,-5.883417,4.5725083,0.3587725,-0.39639488,-0.535834
0.198,3.374035,-6.0587826,4.67075,0.21026328,-0.52185136,-0.5875486
0.2,3.7223754,-6.1881485,4.767851,0.060253605,-0.6477047,-0.63454163
0.202,4.059438,-6.256188,4.868804,-0.08749215,-0.7644242,-0.67430997
0.204,4.385128,-6.2609453,4.9739914,-0.22876334,-0.86263734,-0.7037995
0.206,4.7050395,-6.209057,5.0788207,-0.3590888,-0.93423927,-0.7206822
0.208,5.0236473,-6.104438,5.177415,-0.47325048,-0.9709097,-0.7231721
0.21,5.3362904,-5.942078,5.2576528,-0.56518686,-0.9640454,-0.7096611
0.212,5.634077,-5.713198,5.3041453,-0.6281483,-0.9056454,-0.67921525
0.214,5.9101605,-5.411199,5.300044,-0.654876,-0.7871327,-0.63092333
0.216,6.160632,-5.034012,5.226536,-0.638108,-0.60015315,-0.56350946
0.218,6.383157,-4.5852766,5.064331,-0.5717222,-0.33880407,-0.47657004
0.22,6.574133,-4.0729923,4.797958,-0.45079288,0.0015771091,-0.37112874
0.222,6.730117,-3.5068917,4.418149,-0.2713269,0.4245711,-0.24937174
0.224,6.848007,-2.8957324,3.9210372,-0.0316962,0.9297668,-0.114842534
0.226,6.919468,-2.248555,3.308439,0.26651943,1.5123881,0.027299419
0.228,6.9418845,-1.578408,2.5863228,0.61818516,2.1634989,0.17010783
0.23,6.9150867,-0.8968308,1.7623037,1.0135044,2.8682187,0.3035793
0.232,6.8389874,-0.21614456,0.8476378,1.4374255,3.605396,0.41483492
0.234,6.7155805,0.44937634,-0.14055401,1.8707601,4.349702,0.4915646
0.236,6.549417,1.0854573,-1.1811016,2.2913437,5.0718946,0.52446175
0.238,6.3466835,1.6795635,-2.2505333,2.6750965,5.7380314,0.507969
0.24,6.115399,2.2202215,-3.3231525,2.9980478,6.3116016,0.4409858
0.242,5.865161,2.6968477,-4.3712177,3.2385669,6.756521,0.32659572
0.244,5.602944,3.1028032,-5.367302,3.3796072,7.040259,0.17097425
0.246,5.339844,3.432446,-6.284989,3.4107242,7.137428,-0.017438173
0.248,5.0871134,3.6824443,-7.101681,3.3295121,7.0330415,-0.22877079
0.25,4.8554463,3.8511646,-7.797569,3.141931,6.725184,-0.4521823
0.252,4.6544447,3.9391112,-8.354806,2.8613126,6.2263937,-0.676246
0.254,4.492091,3.9498267,-8.760475,2.5068147,5.563593,-0.88967156
0.256,4.3750505,3.88918,-9.006092,2.1011624,4.776083,-1.0827992
0.258,4.307598,3.7643592,-9.088379,1.6686636,3.9124126,-1.2482202
0.26,4.2920136,3.5839832,-9.009218,1.2332537,3.0250914,-1.3800554
0.262,4.3278303,3.3576207,-8.775652,0.8158528,2.1635492,-1.47404
0.264,4.4125576,3.0956063,-8.399657,0.43282938,1.3698195,-1.5280758
0.266,4.541417,2.8087332,-7.897128,0.095466614,0.6754877,-1.5426694
0.268,4.706958,2.5081637,-7.2870116,-0.18979996,0.09865015,-1.5218842
0.27,4.9001026,2.2046745,-6.589929,-0.42075717,-0.3553741,-1.4727124
0.272,5.1101885,1.9083476,-5.8271255,-0.5985875,-0.6916057,-1.4028795
0.274,5.3255405,1.6281124,-5.0195174,-0.72759414,-0.92403066,-1.3198973
0.276,5.5340624,1.3716533,-4.186668,-0.8147594,-1.0723243,-1.2308649
0.278,5.724924,1.1446964,-3.344916,-0.86798435,-1.1566854,-1.1414456
0.28,5.894116,0.95009613,-2.5108438,-0.8952353,-1.1954967,-1.0549899
0.282,6.0163264,0.7984743,-1.7036071,-0.90412897,-1.204165,-0.9725282
0.284,6.0878577,0.6898453,-0.92398286,-0.90096605,-1.1933353,-0.8924433
0.286,6.10894,0.61957955,-0.1812458,-0.89045143,-1.1694262,-0.8118059
0.288,6.067868,0.5877254,0.5086113,-0.8764794,-1.1367824,-0.72938657
0.29,5.9584227,0.59395134,1.1408951,-0.8620529,-1.0974135,-0.64593756
0.292,5.795831,0.6304015,1.7201595,-0.8489165,-1.0505319,-0.56296915
0.294,5.5844507,0.6953294,2.2555623,-0.8378183,-0.9945629,-0.48229653
0.296,5.315388,0.792433,2.7522216,-0.82873476,-0.9283258,-0.40552166
0.298,4.992506,0.9219663,3.2045133,-0.821206,-0.8513441,-0.33368665
0.3,4.625115,1.085319,3.6037862,-0.8146309,-0.7639158,-0.26755223
0.302,4.217853,1.2848706,3.949924,-0.8085066,-0.6669842,-0.20785011
0.304,3.7769256,1.5140866,4.2551365,-0.80240643,-0.5620447,-0.15553717
0.306,3.3107994,1.7603633,4.530345,-0.79573214,-0.4510412,-0.11170907
0.308,2.8237982,2.0144405,4.780996,-0.7877336,-0.33618322,-0.07696389
0.31,2.3171315,2.273459,4.99257,-0.77773654,-0.2197955,-0.05116435
0.312,1.8109492,2.5277784,5.1512656,-0.7653504,-0.10411024,-0.033815958
0.314,1.304032,2.7819111,5.2520947,-0.75040257,0.009104401,-0.024425145
0.316,0.79200643,3.0443687,5.296651,-0.73285997,0.11865002,-0.022566192
0.318,0.27468657,3.315667,5.2874756,-0.71278536,0.22377972,-0.027823294
0.32,-0.23867893,3.5863204,5.2320185,-0.6903469,0.32414734,-0.03967352
0.322,-0.7376426,3.8454967,5.1380486,-0.6658304,0.41973498,-0.05751358
0.324,-1.2167263,4.0872827,5.011666,-0.6395302,0.5109564,-0.08073637
0.326,-1.67414,4.3102994,4.8587136,-0.6116433,0.59873015,-0.10882518
0.328,-2.1088808,4.516517,4.684281,-0.58238995,0.68397343,-0.14125684
0.33,-2.5183527,4.7086043,4.489346,-0.5519359,0.76785445,-0.17725421
0.332,-2.8991578,4.887254,4.2709937,-0.52038866,0.85170794,-0.21592537
0.334,-3.247151,5.0494514,4.025187,-0.487849,0.9367447,-0.25635305
0.336,-3.5584388,5.1915817,3.749267,-0.4543813,1.0241213,-0.29751167
0.338,-3.8303497,5.311167,3.4430737,-0.42005605,1.1146713,-0.33835867
0.34,-4.0616007,5.406374,3.1086116,-0.38498867,1.208725,-0.3778929
0.342,-4.251366,5.475043,2.7486916,-0.3493703,1.3060738,-0.4152221
0.344,-4.3991747,5.514169,2.3668697,-0.31355894,1.4057468,-0.44964626
0.346,-4.50456,5.521089,1.9670928,-0.27809808,1.5059928,-0.48068726
0.348,-4.5675755,5.494481,1.5539654,-0.24381262,1.6042045,-0.5081268
0.35,-4.5892477,5.4340134,1.1322732,-0.2118715,1.6968651,-0.53196144
0.352,-4.571172,5.3403234,0.70672286,-0.18375301,1.779768,-0.5523853
0.354,-4.5157256,5.213975,0.28276092,-0.16118562,1.8482181,-0.5698812
0.356,-4.426873,5.0565248,-0.13539648,-0.1459915,1.8972404,-0.58517295
0.358,-4.30854,4.8682775,-0.5384494,-0.13990009,1.9219671,-0.5991297
0.36,-4.165243,4.650221,-0.91904664,-0.14446211,1.9180465,-0.612635
0.362,-4.0010805,4.403332,-1.2729722,-0.16087306,1.8820449,-0.6265446
0.364,-3.8206973,4.1294017,-1.5920312,-0.18986523,1.8117539,-0.6416192
0.366,-3.6297746,3.8317933,-1.8710765,-0.231623,1.7064389,-0.6583797
0.368,-3.4340887,3.5149488,-2.1063643,-0.28574887,1.5669544,-0.6770798
0.37,-3.2405715,3.1832776,-2.2963238,-0.35124397,1.3957046,-0.6977042
0.372,-3.056181,2.8407836,-2.4384892,-0.42662275,1.1965114,-0.71995354
0.374,-2.8863122,2.490925,-2.5309787,-0.51001096,0.97436327,-0.74329835
0.376,-2.7336812,2.1369543,-2.5769079,-0.5992352,0.7351276,-0.767092
0.378,-2.6047668,1.7836009,-2.5752902,-0.6919778,0.4851651,-0.79064924
0.38,-2.5031247,1.4341869,-2.5267375,-0.7858863,0.23102891,-0.8133428
0.382,-2.4310584,1.0918553,-2.4360785,-0.8785714,-0.020529151,-0.8347217
0.384,-2.3914213,0.75960773,-2.3049316,-0.96784407,-0.26325023,-0.85470134
0.386,-2.3834805,0.4394809,-2.1369348,-1.0517994,-0.49154612,-0.87349725
0.388,-2.4075632,0.13405502,-1.938508,-1.1290106,-0.7008642,-0.8916992
0.39,-2.4617856,-0.1556539,-1.7136964,-1.1983911,-0.8874436,-0.9102742
0.392,-2.5421343,-0.42915744,-1.4689738,-1.2593555,-1.0490189,-0.93056464
0.394,-2.6453788,-0.68510264,-1.2091539,-1.3118892,-1.1849823,-0.954192
0.396,-2.7652364,-0.9238155,-0.9384277,-1.3562769,-1.2959361,-0.982913
0.398,-2.8947926,-1.1461387,-0.6627888,-1.3930546,-1.3836706,-1.0187459
0.4,-3.0264494,-1.3536222,-0.38619062,-1.4228934,-1.4509047,-1.0638381
0.402,-3.1509,-1.5484838,-0.11332415,-1.446553,-1.5010557,-1.1201462
0.404,-3.2586598,-1.7332833,0.15271752,-1.4646941,-1.5374619,-1.189099
0.406,-3.3413906,-1.9103854,0.41101295,-1.4777935,-1.563143,-1.2713108
0.408,-3.3899899,-2.081845,0.6597315,-1.4863396,-1.581225,-1.3667574
0.41,-3.3967936,-2.2501724,0.89771956,-1.4907825,-1.594105,-1.4745101
0.412,-3.3537104,-2.4183898,1.1265543,-1.4916651,-1.6035329,-1.5926944
0.414,-3.2553117,-2.5886862,1.3466849,-1.4898078,-1.6113346,-1.7189387
0.416,-3.0970435,-2.7631884,1.5590228,-1.4860884,-1.618988,-1.8503612
0.418,-2.8758068,-2.9438987,1.7643938,-1.4813707,-1.6278979,-1.9840404
0.42,-2.5903878,-3.132321,1.9628602,-1.4765368,-1.639703,-2.1173248
0.422,-2.24158,-3.3300133,2.1543794,-1.4722128,-1.6557026,-2.2476206
0.424,-1.8323677,-3.5378551,2.3383155,-1.468732,-1.6770484,-2.3728056
0.426,-1.3671526,-3.7564583,2.5135515,-1.4658237,-1.7039845,-2.4912126
0.428,-0.85243726,-3.985805,2.6790378,-1.4625254,-1.7355524,-2.6015713
0.43,-0.2962792,-4.2254453,2.8333886,-1.457264,-1.7694778,-2.702939
0.432,0.2913301,-4.474048,2.9747326,-1.447916,-1.8018302,-2.7944927
0.434,0.8986044,-4.729724,3.0998044,-1.4319708,-1.8273342,-2.8755782
0.436,1.5136018,-4.9904156,3.2059624,-1.4067183,-1.8396075,-2.9457614
0.438,2.126276,-5.2541895,3.2906713,-1.3695986,-1.8318081,-3.0048099
0.44,2.7297418,-5.520644,3.3540046,-1.3185226,-1.7973709,-3.0526557
0.442,3.305789,-5.7841663,3.3965788,-1.2519836,-1.730618,-3.089442
0.444,3.8515239,-6.0437174,3.4052317,-1.1694586,-1.6280277,-3.1156197
0.446,4.361297,-6.297482,3.3727195,-1.0712612,-1.4880176,-3.1317677
0.448,4.8245387,-6.541866,3.3058417,-0.9585356,-1.3114243,-3.1385598
0.45,5.2323947,-6.7714295,3.2025115,-0.833357,-1.1018815,-3.136685
0.452,5.5818486,-6.982177,3.0598805,-0.69844854,-0.86514646,-3.1265774
0.454,5.8689847,-7.1685543,2.885444,-0.5570201,-0.6086535,-3.108454
0.456,6.089341,-7.3241143,2.684859,-0.41247833,-0.3407273,-3.0824533
0.458,6.2426887,-7.444831,2.4556432,-0.26826888,-0.070083395,-3.0487466
0.46,6.331279,-7.529233,2.1976838,-0.12764296,0.19507334,-3.00755
0.462,6.357173,-7.5750513,1.9120624,0.006711632,0.44817847,-2.95896
0.464,6.322091,-7.578279,1.5972164,0.13269022,0.6839193,-2.9034786
0.466,6.230065,-7.5375013,1.2558744,0.24891609,0.8986088,-2.8421206
0.468,6.0856814,-7.4519877,0.88887674,0.3548301,1.0907125,-2.776066
0.47,5.8935847,-7.3220797,0.4992067,0.45062518,1.2602043,-2.707033
0.472,5.658278,-7.148408,0.09237949,0.53686666,1.4080184,-2.6373987
0.474,5.3856506,-6.9342403,-0.32893828,0.61467123,1.5365887,-2.5694737
0.476,5.082373,-6.6850085,-0.7597597,0.6854299,1.6480513,-2.5060313
0.478,4.755919,-6.4071174,-1.194889,0.75055563,1.7441666,-2.4499257
0.48,4.4147086,-6.1066732,-1.6288205,0.8113495,1.8269567,-2.4034853
0.482,4.0671816,-5.7896166,-2.058884,0.8686286,1.8977895,-2.368556
0.484,3.719683,-5.4622974,-2.4830496,0.92258906,1.9569318,-2.3463347
0.486,3.3765402,-5.1309986,-2.8960447,0.97304994,2.0044153,-2.337318
0.488,3.0464983,-4.8035865,-3.2981966,1.019595,2.0401351,-2.3412914
0.49,2.7349348,-4.485831,-3.6882405,1.0614341,2.0631666,-2.3572865
0.492,2.4457483,-4.182907,-4.0606093,1.0974934,2.0724292,-2.3834298
0.494,2.1837122,-3.8996336,-4.412735,1.1266012,2.06707,-2.4173546
0.496,1.9501157,-3.6393669,-4.739366,1.1476175,2.0464332,-2.4565887
0.498,1.7477318,-3.4057248,-5.0331373,1.1596665,2.0104275,-2.4985995
0.5,1.5777745,-3.2006423,-5.2896395,1.1623342,1.959656,-2.5410025
0.502,1.4399238,-3.0256848,-5.5021424,1.1557,1.895269,-2.5819201
0.504,1.3354281,-2.882872,-5.6659203,1.1402639,1.8187361,-2.620108
0.506,1.2627388,-2.7722907,-5.7765546,1.1168566,1.731611,-2.6549528
0.508,1.2204722,-2.6937454,-5.8281918,1.086396,1.6350695,-2.6865244
0.51,1.206976,-2.6463096,-5.8169427,1.0496794,1.5295621,-2.715587
0.512,1.2191707,-2.6285224,-5.738176,1.0072151,1.414628,-2.7434676
0.514,1.253901,-2.6386583,-5.5889673,0.9590854,1.2889657,-2.7718582
0.516,1.3086755,-2.6751726,-5.36755,0.9049795,1.1507285,-2.8025076
0.518,1.38072,-2.7363768,-5.073334,0.8442915,0.99811953,-2.8369071
0.52,1.4677233,-2.8205273,-4.7071495,0.77641183,0.8300757,-2.8760831
0.522,1.5667582,-2.9260728,-4.271125,0.70095336,0.6467445,-2.920464
0.524,1.6754999,-3.0513134,-3.7687726,0.6178385,0.44987863,-2.969599
0.526,1.7915529,-3.1943946,-3.2048979,0.52785695,0.24343243,-3.0219784
0.528,1.9121134,-3.3537588,-2.585127,0.4324506,0.032626957,-3.075769
0.53,2.0342028,-3.5275154,-1.9159795,0.33364302,-0.17563431,-3.1284103
0.532,2.155315,-3.7129858,-1.2047904,0.23399204,-0.37374467,-3.1768713
0.534,2.2728295,-3.9073071,-0.45972446,0.13608533,-0.5552868,-3.2184205
0.536,2.384153,-4.1076174,0.31031135,0.042498946,-0.7144108,-3.250606
0.538,2.4871798,-4.311249,1.0954095,-0.04454872,-0.84622383,-3.271526
0.54,2.5799441,-4.515641,1.8850983,-0.1237483,-0.9480821,-3.2800772
0.542,2.6612816,-4.718919,2.6690576,-0.19471759,-1.019012,-3.2759473
0.544,2.7306445,-4.9198036,3.4379604,-0.25768,-1.0589933,-3.2597885
0.546,2.7864852,-5.116315,4.1814566,-0.31334305,-1.0693178,-3.2333395
0.548,2.826295,-5.3061304,4.889027,-0.36285663,-1.0522965,-3.198894
0.55,2.8468893,-5.486173,5.5494385,-0.40768033,-1.0107391,-3.158995
0.552,2.8562148,-5.6588154,6.1534047,-0.44949305,-0.9479071,-3.1164234
0.554,2.8482594,-5.8220053,6.7049623,-0.48999476,-0.8672878,-3.0739148
0.556,2.823472,-5.9758368,7.2002425,-0.5307074,-0.7723327,-3.0338464
0.558,2.7879148,-6.122556,7.62486,-0.5728208,-0.66634446,-2.9981148
0.56,2.7458916,-6.26546,7.977077,-0.6171279,-0.55238014,-2.9681013
0.562,2.6972146,-6.4061136,8.25668,-0.6639664,-0.43306893,-2.9445932
0.564,2.6449542,-6.5474644,8.455834,-0.71327174,-0.31055307,-2.9277444
0.566,2.5933788,-6.6927023,8.572878,-0.76465786,-0.18651986,-2.917197
0.568,2.5432413,-6.8421354,8.6146145,-0.81746984,-0.06224203,-2.912239
0.57,2.4950511,-6.9944067,8.584493,-0.87088144,0.06134525,-2.911938
0.572,2.4506958,-7.1500793,8.485445,-0.9239366,0.18353501,-2.9153357
0.574,2.413178,-7.311689,8.3226595,-0.9756881,0.3037214,-2.9215431
0.576,2.383469,-7.479691,8.098481,-1.0252012,0.42134154,-2.9297547
0.578,2.361249,-7.653007,7.8143973,-1.0716454,0.53578186,-2.9393172
0.58,2.346179,-7.8309546,7.473728,-1.1143521,0.64635974,-2.9497776
0.582,2.3377154,-8.012715,7.0804863,-1.1528368,0.7523456,-2.9608817
0.584,2.3345344,-8.196393,6.637745,-1.1868161,0.8529638,-2.9725454
0.586,2.3349853,-8.379617,6.1498666,-1.216208,0.94742584,-2.9846988
0.588,2.337394,-8.560282,5.6223135,-1.2411234,1.034989,-2.9972851
0.59,2.3397827,-8.736561,5.0613103,-1.2618637,1.1149608,-3.0102456
0.592,2.3405042,-8.906856,4.4740067,-1.278882,1.186684,-3.0235538
0.594,2.338797,-9.069622,3.8681474,-1.2927204,1.2495663,-3.0371745
0.596,2.3346355,-9.22386,3.2513146,-1.3040187,1.3031061,-3.051059
0.598,2.3281434,-9.368913,2.6307633,-1.3134842,1.3469502,-3.065164
0.6,2.3203006,-9.505072,2.0130985,-1.3218217,1.3809161,-3.0794897
0.602,2.3128753,-9.633201,1.4036361,-1.3296435,1.4050397,-3.094124
0.604,2.307686,-9.754438,0.80704546,-1.3374537,1.4196756,-3.1092165
0.606,2.3067563,-9.870197,0.22799361,-1.345592,1.4254644,-3.124967
0.608,2.3121994,-9.981924,-0.32853457,-1.3542434,1.4232987,-3.1415281
0.61,2.3264344,-10.091003,-0.85731244,-1.3634323,1.4142663,-3.1590018
0.612,2.3515978,-10.198868,-1.3541863,-1.3730451,1.3995917,-3.1774993
0.614,2.3890145,-10.307077,-1.8154548,-1.3828661,1.3805107,-3.1971684
0.616,2.4400861,-10.417203,-2.2379563,-1.3925992,1.3582065,-3.2181432
0.618,2.506568,-10.530605,-2.6192214,-1.4018917,1.3337965,-3.2405498
0.62,2.5894246,-10.648389,-2.9578,-1.4103547,1.3083054,-3.2644975
0.622,2.6897821,-10.771713,-3.2530668,-1.4175961,1.2826842,-3.2900734
0.624,2.8082416,-10.901741,-3.5051243,-1.4232489,1.2578574,-3.3173199
0.626,2.9446585,-11.038986,-3.7142017,-1.4269587,1.2347566,-3.346188
0.628,3.0983863,-11.183426,-3.8808892,-1.42838,1.2143563,-3.3765163
0.63,3.2684705,-11.335159,-4.0059943,-1.4272151,1.1976609,-3.4080842
0.632,3.4533684,-11.493843,-4.0909214,-1.423178,1.1856589,-3.4405417
0.634,3.650475,-11.658813,-4.1371017,-1.4159982,1.1793048,-3.4734533
0.636,3.8563201,-11.828923,-4.1465855,-1.4054259,1.1794007,-3.5063577
0.638,4.0668764,-12.002495,-4.1227074,-1.3912369,1.1865699,-3.5388258
0.64,4.2774115,-12.177357,-4.0695,-1.3732313,1.2012168,-3.570545
0.642,4.4822245,-12.350852,-3.9913406,-1.3512639,1.2234273,-3.6012998
0.644,4.6757307,-12.519771,-3.8922305,-1.3252552,1.2529091,-3.630874
0.646,4.851656,-12.680224,-3.776337,-1.2951831,1.2890184,-3.6589806
0.648,5.004114,-12.828334,-3.6474805,-1.2611082,1.3308506,-3.685274
0.65,5.127349,-12.960088,-3.509339,-1.2231636,1.3772426,-3.7093303
0.652,5.2159157,-13.071994,-3.3654883,-1.1816481,1.4267037,-3.7305694
0.654,5.2652225,-13.160883,-3.2196229,-1.1370517,1.4774694,-3.748206
0.656,5.2715244,-13.224314,-3.075242,-1.0900898,1.5274945,-3.7612376
0.658,5.2311664,-13.260199,-2.9351048,-1.041693,1.5744927,-3.7685633
0.66,5.1410775,-13.266842,-2.8020332,-0.9930341,1.6160779,-3.769029
0.662,4.999275,-13.243036,-2.6781347,-0.94552445,1.6498146,-3.7615318
0.664,4.8052807,-13.188167,-2.5653732,-0.90079075,1.6733227,-3.7451284
0.666,4.5606337,-13.102585,-2.465466,-0.8605744,1.6844277,-3.719135
0.668,4.2680793,-12.987744,-2.3795023,-0.82664925,1.6812621,-3.6832323
0.67,3.931698,-12.84627,-2.307702,-0.8007234,1.6624405,-3.6376219
0.672,3.556182,-12.681361,-2.2500026,-0.78431535,1.6271001,-3.5830662
0.674,3.1475487,-12.496754,-2.2061567,-0.7786038,1.5750172,-3.5208864
0.676,2.7124078,-12.296866,-2.1760201,-0.78429174,1.5066701,-3.452927
0.678,2.2586794,-12.0868635,-2.159329,-0.8015176,1.4232626,-3.3814783
0.68,1.7945518,-11.872037,-2.1554737,-0.8297828,1.3267455,-3.3090754
0.682,1.3286035,-11.657684,-2.1641521,-0.867954,1.2197775,-3.2383127
0.684,0.8693192,-11.448997,-2.185,-0.91432935,1.1056476,-3.1716056
0.686,0.42511725,-11.25082,-2.2175412,-0.9667123,0.98816335,-3.110997
0.688,0.0040818453,-11.067829,-2.2615936,-1.0225598,0.87142247,-3.0580664
0.69,-0.3858577,-10.904462,-2.316566,-1.0791205,0.7596331,-3.013886
0.692,-0.7378927,-10.764449,-2.381998,-1.1336218,0.65684664,-2.9790666
0.694,-1.0460582,-10.650707,-2.4570901,-1.1834401,0.5667034,-2.9537659
0.696,-1.3051932,-10.5653305,-2.5411646,-1.2262181,0.49226362,-2.9377656
0.698,-1.511065,-10.50983,-2.6334558,-1.2600222,0.43583047,-2.9306417
0.7,-1.660421,-10.485026,-2.7332275,-1.2834104,0.39882,-2.9318075
0.702,-1.7512552,-10.490683,-2.8398075,-1.2954735,0.38165474,-2.9405808
0.704,-1.7822046,-10.526443,-2.952829,-1.2958118,0.38386166,-2.9562128
0.706,-1.7532288,-10.591265,-3.071119,-1.2845047,0.40420455,-2.9779022
0.708,-1.6655817,-10.683181,-3.1934147,-1.2620806,0.44076794,-3.0048199
0.71,-1.520833,-10.8003845,-3.3179445,-1.2294745,0.49104422,-3.0360763
0.712,-1.3216485,-10.9405,-3.4422503,-1.1879896,0.55204666,-3.070656
0.714,-1.0714399,-11.100926,-3.564033,-1.139225,0.62045074,-3.107476
0.716,-0.77441597,-11.278798,-3.6811285,-1.0850016,0.6927043,-3.14542
0.718,-0.43550634,-11.471267,-3.7913752,-1.0272847,0.76516354,-3.1833503
0.72,-0.060844064,-11.675423,-3.8924243,-0.96816707,0.8341443,-3.2201579
0.722,0.34329793,-11.888206,-3.9813554,-0.9097221,0.89612544,-3.254829
0.724,0.7708665,-12.106502,-4.0553246,-0.85391986,0.94780505,-3.286413
0.726,1.2149857,-12.326978,-4.112261,-0.8025167,0.98632425,-3.3140433
0.728,1.6683042,-12.547004,-4.150456,-0.7569988,1.0094101,-3.336938
0.73,2.1240466,-12.764192,-4.1684017,-0.7184811,1.0154955,-3.3543725
0.732,2.5747283,-12.975843,-4.1651287,-0.6877613,1.0038226,-3.365647
0.734,3.0125372,-13.178763,-4.139692,-0.66522354,0.97459155,-3.3701034
0.736,3.4294026,-13.370029,-4.0917635,-0.6508714,0.9289119,-3.3670747
0.738,3.8178132,-13.546913,-4.0217414,-0.6443806,0.86867714,-3.3559968
0.74,4.170643,-13.706444,-3.9307942,-0.6451706,0.7964804,-3.3364336
0.742,4.4818125,-13.8461275,-3.8205628,-0.652471,0.71540135,-3.30806
0.744,4.7461634,-13.963957,-3.6934123,-0.6654123,0.6287954,-3.2707338
0.746,4.959321,-14.0580015,-3.5519853,-0.68305266,0.5400245,-3.2245197
0.748,5.117985,-14.126566,-3.398519,-0.70443565,0.45227414,-3.1697512
0.75,5.2196183,-14.168621,-3.2354813,-0.7286544,0.36837816,-3.107015
0.752,5.2626433,-14.183733,-3.066027,-0.7548465,0.29069915,-3.0371156
0.754,5.2461243,-14.171852,-2.894025,-0.78223586,0.2210486,-2.9610908
0.756,5.17072,-14.133386,-2.7235363,-0.81011474,0.16065845,-2.8801754
0.758,5.0376816,-14.069037,-2.5582037,-0.83786434,0.11018944,-2.7957513
0.76,4.84945,-13.980085,-2.4014344,-0.86494064,0.06981206,-2.7092648
0.762,4.6094894,-13.867711,-2.2561836,-0.8908873,0.039215297,-2.62216
0.764,4.3223314,-13.733642,-2.124937,-0.91530526,0.01779303,-2.53588
0.766,3.993318,-13.580016,-2.0100288,-0.93783385,0.0047116578,-2.4518316
0.768,3.6283755,-13.409578,-1.9139411,-0.95813894,-0.000992626,-2.3712962
0.77,3.2341416,-13.225237,-1.8380435,-0.97594637,-0.00033786893,-2.295444
0.772,2.8175173,-13.030105,-1.783517,-0.9910058,0.005670488,-2.2253253
0.774,2.3855472,-12.827417,-1.7508116,-1.0030594,0.016162127,-2.161857
0.776,1.9451761,-12.62055,-1.7397685,-1.0118899,0.030397415,-2.1057858
0.778,1.5037613,-12.412962,-1.749901,-1.0173253,0.04780397,-2.0576677
0.78,1.0683584,-12.207969,-1.7802291,-1.0192649,0.06798458,-2.0178053
0.782,0.6458616,-12.0088,-1.8294139,-1.0176812,0.09069255,-1.9862126
0.784,0.24253726,-11.818356,-1.8956707,-1.0126537,0.115796715,-1.962567
0.786,-0.13560867,-11.639224,-1.9765952,-1.0042908,0.14324318,-1.9462607
0.788,-0.48333657,-11.47363,-2.0693479,-0.9928481,0.17286061,-1.9364148
0.79,-0.79575026,-11.3238325,-2.1715646,-0.9786804,0.20441397,-1.9319589
0.792,-1.0687065,-11.191809,-2.2808805,-0.9622041,0.23758194,-1.9316182
0.794,-1.2989247,-11.079254,-2.3950877,-0.9439184,0.271805,-1.9340847
0.796,-1.4834144,-10.987436,-2.5120702,-0.9243661,0.3063385,-1.9381177
0.798,-1.6199785,-10.917292,-2.6294887,-0.9041075,0.34021595,-1.9426168
0.8,-1.7076119,-10.869359,-2.745327,-0.8836947,0.37231514,-1.9467024
0.802,-1.7460337,-10.844071,-2.8578591,-0.8636233,0.40141606,-1.949745
0.804,-1.7358414,-10.841304,-2.96567,-0.844295,0.42629313,-1.9513865
0.806,-1.6780974,-10.860924,-3.0674005,-0.8260258,0.44582456,-1.9515053
0.808,-1.5749223,-10.902205,-3.1616573,-0.80900973,0.4590678,-1.9501524
0.81,-1.4288113,-10.96425,-3.2473674,-0.7933329,0.46531957,-1.9474424
0.812,-1.2427227,-11.046088,-3.3238316,-0.7789852,0.46420613,-1.943552
0.814,-1.0205855,-11.1460495,-3.390366,-0.7658687,0.45569086,-1.9386803
0.816,-0.7664099,-11.262804,-3.4469762,-0.7538023,0.44010478,-1.932992
0.818,-0.48409963,-11.39496,-3.4935222,-0.7425652,0.4180855,-1.9265513
0.82,-0.17850947,-11.540405,-3.530446,-0.73189837,0.3905568,-1.9192882
0.822,0.14541745,-11.697187,-3.5587468,-0.7215313,0.35868284,-1.9109842
0.824,0.48244834,-11.863366,-3.5787826,-0.7111664,0.32381126,-1.9012827
0.826,0.8281498,-12.036929,-3.590822,-0.7005254,0.2874145,-1.8896983
0.828,1.1774015,-12.215803,-3.5962126,-0.68930924,0.25100133,-1.8756833
0.83,1.5250432,-12.397497,-3.5963306,-0.677216,0.21607892,-1.8586727
0.832,1.8665439,-12.579876,-3.5922992,-0.66393477,0.18407345,-1.8381408
0.834,2.197308,-12.761022,-3.5857687,-0.6491451,0.1562865,-1.8136774
0.836,2.5130439,-12.9389925,-3.5785291,-0.6325331,0.13383605,-1.7850382
0.838,2.8096044,-13.1113825,-3.5721529,-0.613823,0.1175939,-1.7521422
0.84,3.0830283,-13.275959,-3.5682228,-0.5928146,0.1081312,-1.7150365
0.842,3.3300295,-13.430635,-3.5683272,-0.5693796,0.1056903,-1.6739254
0.844,3.5481894,-13.573971,-3.57471,-0.54347855,0.110110134,-1.6291442
0.846,3.7356296,-13.704549,-3.5895953,-0.5151596,0.12079246,-1.5811061
0.848,3.8903947,-13.821181,-3.6139207,-0.48456174,0.13678275,-1.5302558
0.85,4.01111,-13.922913,-3.6480536,-0.45188832,0.15679926,-1.4770367
0.852,4.0966163,-14.008833,-3.6928895,-0.41741914,0.1792977,-1.4218855
0.854,4.146844,-14.078357,-3.7493515,-0.38150796,0.20252615,-1.3651644
0.856,4.162103,-14.131164,-3.8177912,-0.34451944,0.22472933,-1.3071742
0.858,4.1431975,-14.167198,-3.8983383,-0.30681726,0.24420846,-1.2481321
0.86,4.0912304,-14.186935,-3.990934,-0.2687468,0.25940013,-1.1882097
0.862,4.007931,-14.191277,-4.0946555,-0.2305935,0.26903388,-1.1275843
0.864,3.8951988,-14.181048,-4.20881,-0.19258052,0.27216214,-1.0664439
0.866,3.754953,-14.157358,-4.3327303,-0.15486543,0.26818344,-1.004975
0.868,3.5901017,-14.121384,-4.46579,-0.11753513,0.25686395,-0.94343036
0.87,3.4032283,-14.074293,-4.6072474,-0.08062086,0.23830459,-0.88212204
0.872,3.1974256,-14.017671,-4.756148,-0.04410168,0.21285793,-0.82140285
0.874,2.9756088,-13.9529915,-4.91107,-0.007924768,0.18108079,-0.7616914
0.876,2.741074,-13.881914,-5.0705023,0.027984638,0.1436362,-0.7034673
0.878,2.4972239,-13.805991,-5.2328396,0.0637019,0.101244494,-0.6472066
0.88,2.2474053,-13.726876,-5.396532,0.09932627,0.054665953,-0.5933535
0.882,1.9950309,-13.646104,-5.560096,0.13495803,0.004641235,-0.54226947
0.884,1.7433114,-13.565323,-5.7225814,0.1707039,-0.048198387,-0.4942557
0.886,1.4954526,-13.4856205,-5.8830147,0.20662305,-0.103322506,-0.4495663
0.888,1.2545357,-13.408128,-6.0404534,0.24276671,-0.16029418,-0.40838638
0.89,1.02315,-13.3340025,-6.1941633,0.27915528,-0.21876507,-0.37083027
0.892,0.8038597,-13.264285,-6.3432965,0.31578833,-0.27848354,-0.3369747
0.894,0.598999,-13.2000675,-6.487136,0.3526107,-0.33925605,-0.306855
0.896,0.41060162,-13.142022,-6.625347,0.38953108,-0.40093625,-0.28046328
0.898,0.24027824,-13.090666,-6.7576365,0.42640778,-0.46341228,-0.25779167
0.9,0.0894289,-13.046137,-6.883488,0.4630627,-0.52660626,-0.23879242
0.902,-0.040863037,-13.008694,-7.002267,0.49930656,-0.59050053,-0.2233889
0.904,-0.14959526,-12.978264,-7.1128654,0.53496224,-0.65510947,-0.21148126
0.906,-0.23637009,-12.955133,-7.214245,0.5698787,-0.720458,-0.20294255
0.908,-0.301013,-12.939168,-7.305331,0.60391504,-0.78661656,-0.19766054
0.91,-0.34383965,-12.930214,-7.3850603,0.6369144,-0.85378504,-0.19551626
0.912,-0.36497116,-12.928077,-7.4523163,0.6687248,-0.92222023,-0.19642344
0.914,-0.36497593,-12.932415,-7.505581,0.6992154,-0.99225307,-0.2002509
0.916,-0.3450551,-12.942544,-7.5435743,0.72819555,-1.0643181,-0.20681226
0.918,-0.30638885,-12.957844,-7.565443,0.7554423,-1.1388731,-0.21593739
0.92,-0.25042534,-12.977499,-7.570019,0.78072083,-1.2164067,-0.22745197
0.922,-0.17879057,-13.000658,-7.5562296,0.803768,-1.2973659,-0.24108921
0.924,-0.09300423,-13.02622,-7.522897,0.82430613,-1.3821172,-0.2564945
0.926,0.0054302216,-13.053101,-7.4694185,0.8420549,-1.470922,-0.27324772
0.928,0.11463308,-13.079954,-7.3952093,0.85675734,-1.5639346,-0.2908669
0.93,0.23208427,-13.105304,-7.2978315,0.86818683,-1.6611475,-0.30884635
0.932,0.35551906,-13.127757,-7.175562,0.8761407,-1.7624629,-0.32668608
0.934,0.48304415,-13.146071,-7.027796,0.8803983,-1.8677825,-0.3439433
0.936,0.6122465,-13.158416,-6.8545294,0.8807186,-1.976973,-0.36022764
0.938,0.7412877,-13.163439,-6.655018,0.87686723,-2.089833,-0.37520847
0.94,0.8690343,-13.1600685,-6.4284935,0.8686135,-2.2061303,-0.38860577
0.942,0.99412346,-13.146985,-6.174615,0.8557056,-2.3256052,-0.400226
0.944,1.1153712,-13.123097,-5.892989,0.83793855,-2.4478831,-0.40993878
0.946,1.2316878,-13.087183,-5.5832,0.8151814,-2.5723932,-0.4176795
0.948,1.3419073,-13.03816,-5.2454376,0.78741986,-2.6983674,-0.42348757
0.95,1.445179,-12.974717,-4.8800893,0.7547301,-2.8247998,-0.42744613
0.952,1.5411944,-12.896053,-4.4873304,0.7172816,-2.9504166,-0.42966104
0.954,1.629889,-12.801148,-4.0672274,0.6753024,-3.073675,-0.43030593
0.956,1.7114363,-12.68923,-3.6198463,0.6290883,-3.1928596,-0.42957008
0.958,1.7860677,-12.559494,-3.1462188,0.5789386,-3.3062644,-0.42768532
0.96,1.8539718,-12.411269,-2.6472344,0.52512276,-3.41218,-0.42489797
0.962,1.91525,-12.244028,-2.1231878,0.46784508,-3.5089133,-0.42139888
0.964,1.9699564,-12.057121,-1.5744343,0.4071715,-3.5950274,-0.41733295
0.966,2.0184035,-11.850159,-1.0014601,0.34301364,-3.6694198,-0.4127707
0.968,2.0609748,-11.6227255,-0.4054289,0.27513534,-3.7313054,-0.40779757
0.97,2.098275,-11.373904,0.21253014,0.20318174,-3.7802472,-0.40252942
0.972,2.1307213,-11.102885,0.850873,0.12669325,-3.8161457,-0.39708388
0.974,2.1588101,-10.809328,1.5080035,0.04511237,-3.8391445,-0.3916235
0.976,2.183115,-10.492834,2.1822493,-0.042128682,-3.8495655,-0.38638842
0.978,2.2038069,-10.153145,2.871401,-0.13554502,-3.8477974,-0.38169658
0.98,2.2213597,-9.789858,3.5729182,-0.23554516,-3.8342118,-0.37794876
0.982,2.2363734,-9.402805,4.283528,-0.34240365,-3.8091133,-0.3755821
0.984,2.2494524,-8.99176,4.9994545,-0.45623642,-3.772711,-0.37506872
0.986,2.2609782,-8.556437,5.7168365,-0.57699096,-3.725085,-0.37693357
0.988,2.2716956,-8.097015,6.4314694,-0.7044255,-3.666163,-0.38169825
0.99,2.2822156,-7.613673,7.1389246,-0.8381639,-3.5957646,-0.38991344
0.992,2.2931075,-7.106555,7.835113,-0.97770494,-3.5136385,-0.40210682
0.994,2.3048263,-6.57553,8.516061,-1.1224675,-3.4194996,-0.41876692
0.996,2.317798,-6.020937,9.177698,-1.2718706,-3.313072,-0.4402653
0.998,2.3324354,-5.4432106,9.815852,-1.4253798,-3.1941454,-0.46683156
1,2.3492417,-4.8426642,10.426217,-1.5825348,-3.0626135,-0.49853295
1.002,2.3686922,-4.2198706,11.004698,-1.742923,-2.9184754,-0.53526205
1.004,2.3910856,-3.5753207,11.547861,-1.9061768,-2.7618675,-0.57678807
1.006,2.4166622,-2.909769,12.052905,-2.0719936,-2.5931208,-0.62276006
1.008,2.4458861,-2.2239645,12.517698,-2.240116,-2.4127536,-0.6727062
1.01,2.4790223,-1.5187335,12.940579,-2.4103696,-2.2214184,-0.726105
1.012,2.5163014,-0.79500103,13.320293,-2.5825953,-2.0198596,-0.7824
1.014,2.5578177,-0.053674936,13.656164,-2.7566662,-1.8090312,-0.8410765
1.016,2.6035047,0.7045641,13.948062,-2.9324448,-1.59001,-0.90171874
1.018,2.653155,1.4787261,14.196337,-3.109762,-1.363827,-0.96397674
1.02,2.7070885,2.2677639,14.401928,-3.2884312,-1.1315721,-1.0275611
1.022,2.7651298,3.070548,14.566462,-3.4682612,-0.8943988,-1.0921565
1.024,2.8273678,3.8860369,14.691966,-3.649007,-0.6534579,-1.1574566
1.026,2.8940105,4.7129216,14.780791,-3.8303475,-0.40987617,-1.2231889
1.028,2.9654088,5.549779,14.835793,-4.011921,-0.16479158,-1.2890911
1.03,3.0419033,6.3952265,14.859737,-4.1933346,0.08062464,-1.3549303
1.032,3.124048,7.247575,14.855502,-4.3741846,0.32521862,-1.420428
1.034,3.2117145,8.105254,14.825462,-4.5540333,0.56784207,-1.4852717
1.036,3.3050761,8.9668255,14.771879,-4.7324347,0.807372,-1.5491638
1.038,3.4043555,9.830425,14.696355,-4.908941,1.0426986,-1.6118541
1.04,3.510137,10.694269,14.598977,-5.083113,1.2727205,-1.6731604
1.042,3.6223783,11.556662,14.481159,-5.254586,1.4962678,-1.7330228
1.044,3.740282,12.416006,14.34466,-5.4230356,1.7120972,-1.7914989
1.046,3.8628964,13.2700615,14.191494,-5.5882125,1.9189245,-1.848773
1.048,3.989283,14.116866,14.023169,-5.749933,2.115407,-1.9051448
1.05,4.1176305,14.95432,13.840252,-5.908024,2.3001742,-1.9610527
1.052,4.24598,15.780384,13.642916,-6.062373,2.4718506,-2.016994
1.054,4.3721776,16.592838,13.431004,-6.212905,2.62915,-2.073441
1.056,4.49383,17.389488,13.2042265,-6.359578,2.7709146,-2.1308
1.058,4.608379,18.168139,12.96236,-6.50236,2.896203,-2.1893787
1.06,4.712657,18.92665,12.705109,-6.641162,3.0043378,-2.2493534
1.062,4.8032928,19.66313,12.431992,-6.775912,3.0949378,-2.3107595
1.064,4.877173,20.375553,12.14264,-6.906511,3.1679235,-2.3734617
1.066,4.9315658,21.062117,11.836941,-7.0328784,3.2235727,-2.437179
1.068,4.964164,21.720848,11.514756,-7.1549034,3.262501,-2.5015032
1.07,4.9725084,22.35012,11.176033,-7.272511,3.2856402,-2.565964
1.072,4.9548893,22.948605,10.820375,-7.385623,3.2942083,-2.6300554
1.074,4.909545,23.515339,10.447304,-7.4941783,3.2897375,-2.6932738
1.076,4.835226,24.04926,10.055967,-7.5981426,3.2739625,-2.7551365
1.078,4.731394,24.54954,9.646589,-7.6975584,3.2486567,-2.8151753
1.08,4.5982876,25.01533,9.219954,-7.7925606,3.2156067,-2.8729837
1.082,4.4365654,25.445972,8.777372,-7.8833385,3.176509,-2.9282627
1.084,4.2478056,25.840858,8.320622,-7.9701924,3.1328878,-2.9807932
1.086,4.0339794,26.199635,7.8514533,-8.053501,3.085984,-3.030464
1.088,3.7975702,26.522284,7.3715897,-8.133736,3.0368042,-3.0772297
1.09,3.5415564,26.80885,6.882802,-8.211418,2.986114,-3.1211095
1.092,3.269146,27.059875,6.387237,-8.287072,2.9344897,-3.1621413
1.094,2.983904,27.275875,5.88707,-8.361179,2.8824055,-3.2004151
1.096,2.6896744,27.457466,5.3846226,-8.434103,2.83034,-3.2360518
1.098,2.3901548,27.605927,4.8829203,-8.506084,2.7787585,-3.2692246
1.1,2.0889244,27.722633,4.384382,-8.577277,2.7280922,-3.3001308
1.102,1.7894793,27.80901,3.891344,-8.6476965,2.678743,-3.3289855
1.104,1.4952569,27.86661,3.406291,-8.717321,2.631029,-3.3560445
1.106,1.2093425,27.897182,2.9314308,-8.786019,2.5851588,-3.3815985
1.108,0.9342537,27.903301,2.468523,-8.853635,2.5411649,-3.4059598
1.11,0.672143,27.887535,2.0188942,-8.920012,2.4989066,-3.4294512
1.112,0.4245801,27.8528,1.5834379,-8.984989,2.458072,-3.452433
1.114,0.19270325,27.801825,1.1624403,-9.04842,2.4182029,-3.4752975
1.116,-0.022922993,27.737507,0.75579166,-9.110143,2.3786876,-3.4984393
1.118,-0.22210836,27.662754,0.36305904,-9.170038,2.3388095,-3.5222468
1.12,-0.405056,27.580538,-0.016577244,-9.228036,2.2977571,-3.5470996
1.122,-0.57197714,27.493734,-0.38441515,-9.2841,2.2547045,-3.5733407
1.124,-0.723938,27.405012,-0.74235153,-9.338208,2.2088518,-3.6012993
1.126,-0.8618498,27.31677,-1.0923324,-9.390383,2.1595118,-3.6312535
1.128,-0.9869752,27.231464,-1.4366131,-9.440626,2.1062236,-3.66345
1.13,-1.101069,27.151304,-1.7777462,-9.488884,2.0489135,-3.698093
1.132,-1.2062438,27.078266,-2.1184096,-9.534934,1.987947,-3.735355
1.134,-1.3048942,27.013664,-2.4614525,-9.57843,1.9241893,-3.7753682
1.136,-1.3992743,26.958735,-2.80934,-9.618877,1.8590465,-3.8182368
1.138,-1.4920676,26.914536,-3.1641912,-9.65565,1.7943485,-3.8640447
1.14,-1.5855942,26.88147,-3.5278285,-9.6880665,1.7322776,-3.9128551
1.142,-1.6823049,26.859768,-3.9018838,-9.715378,1.6752291,-3.964705
1.144,-1.7840394,26.849047,-4.287559,-9.736838,1.6256952,-4.0195317
1.146,-1.8928074,26.848284,-4.685226,-9.751763,1.5861126,-4.0771704
1.148,-2.0101774,26.85644,-5.094471,-9.759553,1.5587412,-4.1372924
1.15,-2.137467,26.872204,-5.51478,-9.759714,1.5456318,-4.199461
1.152,-2.275179,26.894016,-5.9455295,-9.751788,1.5486035,-4.2631454
1.154,-2.4233081,26.919924,-6.386074,-9.735349,1.5691798,-4.327732
1.156,-2.5815532,26.94812,-6.835663,-9.709955,1.6085938,-4.3925815
1.158,-2.7489576,26.97651,-7.2930846,-9.675172,1.6677256,-4.4570217
1.16,-2.9237645,27.002228,-7.7559514,-9.630533,1.7470737,-4.5204763
1.162,-3.1037989,27.022371,-8.221515,-9.575563,1.8467734,-4.582457
1.164,-3.2859833,27.034765,-8.686752,-9.50977,1.9665309,-4.6426306
1.166,-3.4663868,27.036573,-9.14837,-9.432728,2.105614,-4.700796
1.168,-3.6407337,27.025112,-9.603494,-9.344088,2.2628558,-4.7569427
1.17,-3.80409,26.997755,-10.04993,-9.243608,2.4366689,-4.8111787
1.172,-3.9516182,26.952438,-10.486193,-9.131227,2.6250646,-4.8637533
1.174,-4.078448,26.887327,-10.911301,-9.007059,2.825657,-4.914991
1.176,-4.1799936,26.801174,-11.324766,-8.871453,3.0357664,-4.9652586
1.178,-4.251717,26.692848,-11.725988,-8.724938,3.2525392,-5.014902
1.18,-4.289121,26.561302,-12.114567,-8.568197,3.4730678,-5.064248
1.182,-4.288451,26.405691,-12.489902,-8.402044,3.6944232,-5.1135206
1.184,-4.246484,26.225426,-12.85198,-8.227418,3.9137273,-5.162833
1.186,-4.161002,26.020603,-13.201693,-8.045315,4.12826,-5.2121944
1.188,-4.031145,25.79171,-13.540791,-7.856739,4.3354945,-5.261546
1.19,-3.8570538,25.539602,-13.871553,-7.662685,4.5331755,-5.3107567
1.192,-3.6397657,25.26562,-14.196417,-7.46405,4.7192793,-5.359554
1.194,-3.3816853,24.971537,-14.518095,-7.26166,4.8920264,-5.407638
1.196,-3.085927,24.658985,-14.839023,-7.0562916,5.0498347,-5.454747
1.198,-2.7563066,24.329563,-15.161458,-6.848604,5.191292,-5.5005574
1.2,-2.3973446,23.985008,-15.4872265,-6.639173,5.315158,-5.5447717
1.202,-2.0139723,23.627144,-15.817808,-6.4285035,5.4202843,-5.5871124
1.204,-1.6116991,23.25763,-16.154463,-6.217046,5.505607,-5.6272926
1.206,-1.1963453,22.878508,-16.498114,-6.00521,5.5701766,-5.665046
1.208,-0.7737837,22.491346,-16.849106,-5.7933316,5.6131926,-5.700183
1.21,-0.34971237,22.097893,-17.207552,-5.5817385,5.6340322,-5.7325716
1.212,0.07071018,21.699686,-17.572655,-5.3706865,5.6322565,-5.762133
1.214,0.4828062,21.298073,-17.94343,-5.160427,5.6076126,-5.788835
1.216,0.8821459,20.894255,-18.318308,-4.951202,5.5599766,-5.812695
1.218,1.2651644,20.489231,-18.694948,-4.7432647,5.489376,-5.8337564
1.22,1.6291447,20.083923,-19.070461,-4.536888,5.3959746,-5.8520665
1.222,1.9718266,19.679058,-19.441998,-4.3323903,5.2800517,-5.8676496
1.224,2.2920341,19.275303,-19.806587,-4.1301427,5.1419754,-5.8804708
1.226,2.5892086,18.873203,-20.161297,-3.9305384,4.9822607,-5.8904266
1.228,2.8632946,18.47315,-20.503056,-3.7340212,4.801606,-5.8973002
1.23,3.1147728,18.075478,-20.828678,-3.5410547,4.600921,-5.9007616
1.232,3.3444157,17.68053,-21.134956,-3.352085,4.3813334,-5.9004345
1.234,3.5539522,17.288626,-21.418673,-3.1675353,4.144235,-5.895856
1.236,3.7449875,16.900208,-21.677357,-2.9877348,3.8913343,-5.886574
1.238,3.919219,16.51574,-21.9095,-2.8129148,3.624627,-5.8721275
1.24,4.078665,16.135567,-22.113739,-2.643186,3.346361,-5.8520813
1.242,4.22544,15.760223,-22.288029,-2.478539,3.0588994,-5.826023
1.244,4.3614035,15.39028,-22.430994,-2.3188252,2.7646708,-5.793656
1.246,4.48868,15.026529,-22.542217,-2.1637921,2.4661295,-5.7548246
1.248,4.608739,14.669753,-22.622238,-2.0130868,2.1656318,-5.7094193
1.25,4.7229958,14.320887,-22.672058,-1.8662435,1.8654178,-5.657388
1.252,4.8330517,13.980728,-22.69318,-1.7227509,1.5675627,-5.598863
1.254,4.9396305,13.650609,-22.686874,-1.5820143,1.2739391,-5.534079
1.256,5.0436106,13.331896,-22.65542,-1.4433998,0.98618495,-5.4633474
1.258,5.145624,13.025654,-22.601995,-1.3063142,0.7055826,-5.3871117
1.26,5.2464986,12.732749,-22.529907,-1.170229,0.43302476,-5.3058853
1.262,5.3467245,12.454114,-22.44268,-1.0347439,0.16895044,-5.220282
1.264,5.447242,12.190791,-22.343828,-0.89962757,-0.08670092,-5.1310267
1.266,5.548415,11.943394,-22.236671,-0.76486194,-0.33444238,-5.038901
1.268,5.6505823,11.712742,-22.124763,-0.63064075,-0.57524127,-4.944706
1.27,5.753864,11.499783,-22.012321,-0.49733877,-0.8104421,-4.849292
1.272,5.858404,11.305094,-21.90345,-0.36542735,-1.0415945,-4.7535152
1.274,5.964046,11.128817,-21.801746,-0.23546112,-1.2703332,-4.6581407
1.276,6.070225,10.971285,-21.71054,-0.10805772,-1.4983001,-4.5638347
1.278,6.176545,10.832725,-21.632584,0.016183488,-1.7269998,-4.4711914
1.28,6.282096,10.713062,-21.569715,0.13673063,-1.957762,-4.3806996
1.282,6.3862295,10.612097,-21.523224,0.2531249,-2.1916618,-4.292783
1.284,6.4880767,10.529575,-21.493828,0.36497957,-2.4295151,-4.2078047
1.286,6.587122,10.464962,-21.481709,0.47202736,-2.671823,-4.126045
1.288,6.682369,10.418096,-21.486805,0.5740906,-2.9188244,-4.047761
1.29,6.773072,10.388951,-21.508492,0.671082,-3.1705053,-3.973193
1.292,6.8585525,10.377541,-21.545837,0.762995,-3.426623,-3.902594
1.294,6.938382,10.383554,-21.59732,0.84986293,-3.6867785,-3.8362226
1.296,7.0122595,10.4067955,-21.660543,0.9317661,-3.9503837,-3.7743185
1.298,7.0802217,10.447041,-21.732975,1.0088211,-4.216733,-3.7171156
1.3,7.142372,10.504273,-21.811665,1.0811396,-4.4849825,-3.6648097
1.302,7.1988015,10.578497,-21.893618,1.1487865,-4.7542334,-3.6175132
1.304,7.2501674,10.669646,-21.975456,1.211803,-5.0235157,-3.575282
1.306,7.29705,10.777957,-22.054033,1.2701826,-5.291833,-3.538133
1.308,7.3400393,10.903433,-22.126165,1.3238364,-5.55818,-3.5060534
1.31,7.3798065,11.046226,-22.188679,1.3726475,-5.821579,-3.479022
1.312,7.416875,11.206259,-22.23878,1.416496,-6.081036,-3.4570227
1.314,7.452212,11.383578,-22.27364,1.4552621,-6.3355994,-3.4401155
1.316,7.486232,11.577911,-22.290806,1.4888833,-6.5843554,-3.4283895
1.318,7.5188866,11.789215,-22.288418,1.5173641,-6.826392,-3.4219518
1.32,7.550229,12.016897,-22.263927,1.5408041,-7.060792,-3.420937
1.322,7.579628,12.26046,-22.21555,1.5594044,-7.2866287,-3.425518
1.324,7.6059895,12.518976,-22.14144,1.5734556,-7.5029793,-3.4358344
1.326,7.6281357,12.791328,-22.040096,1.5833043,-7.7089353,-3.4519832
1.328,7.64453,13.076143,-21.910439,1.5894072,-7.903583,-3.4740427
1.33,7.6531267,13.371994,-21.752045,1.5923184,-8.085951,-3.5020368
1.332,7.6521034,13.677315,-21.564877,1.5926102,-8.255028,-3.5359013
1.334,7.6390815,13.990396,-21.349037,1.5908761,-8.409748,-3.575526
1.336,7.611702,14.309116,-21.105259,1.5877092,-8.549051,-3.6207383
1.338,7.567749,14.631356,-20.834572,1.5837008,-8.671872,-3.6713078
1.34,7.50504,14.955036,-20.53822,1.5793695,-8.777207,-3.7269776
1.342,7.4220796,15.277693,-20.218002,1.5751961,-8.864097,-3.7874677
1.344,7.3172803,15.596449,-19.876265,1.5715766,-8.931671,-3.8524337
1.346,7.189398,15.908728,-19.514906,1.5688386,-8.979197,-3.9215007
1.348,7.037787,16.21187,-19.13604,1.5672382,-9.006067,-3.9942667
1.35,6.862245,16.503826,-18.742907,1.5669467,-9.011841,-4.070346
1.352,6.6632266,16.782185,-18.339958,1.568038,-8.996205,-4.1493616
1.354,6.441868,17.04457,-17.931305,1.5705361,-8.959013,-4.2309637
1.356,6.1993113,17.288616,-17.520546,1.574436,-8.900206,-4.3148646
1.358,5.937631,17.51213,-17.111235,1.5796721,-8.819853,-4.400821
1.36,5.6589637,17.713276,-16.706654,1.5861385,-8.718134,-4.488662
1.362,5.365333,17.890652,-16.309437,1.5937213,-8.595316,-4.578305
1.364,5.0597067,18.042852,-15.922781,1.602278,-8.451735,-4.6697683
1.366,4.744919,18.168953,-15.549767,1.6116314,-8.287864,-4.7631187
1.368,4.424159,18.268206,-15.193184,1.621585,-8.104286,-4.858451
1.37,4.100585,18.33996,-14.855618,1.6319041,-7.9017076,-4.955944
1.372,3.7772603,18.38422,-14.539053,1.642318,-7.6809435,-5.0558558
1.374,3.4570746,18.401325,-14.2449875,1.6525074,-7.442967,-5.1584907
1.376,3.143527,18.391941,-13.975012,1.6621045,-7.1888266,-5.2641068
1.378,2.8397906,18.35687,-13.730412,1.6707181,-6.9196463,-5.372898
1.38,2.5488956,18.297188,-13.511491,1.6779497,-6.6366663,-5.4850736
1.382,2.2738936,18.214188,-13.317894,1.6834233,-6.341212,-5.6008396
1.384,2.0174553,18.109476,-13.148959,1.6867846,-6.034707,-5.720351
1.386,1.7819705,17.985043,-13.003647,1.687741,-5.7186384,-5.8437014
1.388,1.5697153,17.843128,-12.880531,1.6860497,-5.3945327,-5.9709435
1.39,1.3827329,17.68648,-12.777984,1.6815124,-5.0639634,-6.102101
1.392,1.2228007,17.517847,-12.694003,1.673985,-4.728504,-6.2371783
1.394,1.0915632,17.340439,-12.626329,1.6633663,-4.3896976,-6.376138
1.396,0.99039364,17.157793,-12.572421,1.6495914,-4.049023,-6.5189133
1.398,0.92097235,16.973412,-12.529325,1.632613,-3.7079046,-6.665435
1.4,0.8847194,16.790794,-12.493993,1.6124175,-3.3676405,-6.815615
1.402,0.88302994,16.613472,-12.463239,1.5890256,-3.0293765,-6.9693127
1.404,0.9171791,16.445227,-12.433949,1.5625074,-2.6940417,-7.1263666
1.406,0.98867035,16.289812,-12.403264,1.5330092,-2.362342,-7.2866397
1.408,1.0988684,16.151077,-12.368723,1.5007151,-2.034699,-7.450068
1.41,1.2496057,16.032444,-12.328149,1.4658325,-1.7112231,-7.616653
1.412,1.4427099,15.937267,-12.279435,1.4285843,-1.3916926,-7.786434
1.414,1.6798673,15.868659,-12.220876,1.389178,-1.0755093,-7.959487
1.416,1.9630041,15.829318,-12.151226,1.3478175,-0.7617798,-8.13594
1.418,2.29426,15.821887,-12.069558,1.3046384,-0.44936085,-8.315946
1.42,2.675489,15.848564,-11.976225,1.259733,-0.13687563,-8.499651
1.422,3.1080585,15.911245,-11.872105,1.2131859,0.17724037,-8.687175
1.424,3.5932593,16.011774,-11.7580805,1.1650724,0.49465156,-8.878529
1.426,4.13247,16.15149,-11.6354475,1.115571,0.8171046,-9.07361
1.428,4.72677,16.331205,-11.506546,1.0649607,1.146383,-9.272216
1.43,5.37623,16.551868,-11.374099,1.013629,1.4842582,-9.474109
1.432,6.0810556,16.813984,-11.240563,0.9621177,1.8324456,-9.679031
1.434,6.840546,17.11858,-11.108795,0.9110832,2.1925564,-9.886604
1.436,7.6537724,17.466038,-10.982116,0.8612671,2.5660582,-10.096387
1.438,8.5195675,17.85607,-10.864192,0.8134742,2.9542072,-10.307935
1.44,9.436504,18.288246,-10.759371,0.76851845,3.3579805,-10.520809
1.442,10.402264,18.762432,-10.671827,0.7271929,3.7780347,-10.734524
1.444,11.415014,19.278467,-10.606059,0.69024324,4.2147512,-10.948574
1.446,12.47245,19.83585,-10.565897,0.6583619,4.6682587,-11.162363
1.448,13.571482,20.433949,-10.555399,0.63213825,5.1384234,-11.375198
1.45,14.7093525,21.07188,-10.577991,0.6121006,5.6249495,-11.58621
1.452,15.88273,21.748724,-10.636475,0.59870195,6.1273665,-11.794413
1.454,17.088528,22.46357,-10.733445,0.5923071,6.645079,-11.998646
1.456,18.323418,23.214848,-10.871596,0.5932059,7.177519,-12.197628
1.458,19.58444,24.000647,-11.052208,0.6016364,7.7241344,-12.389973
1.46,20.868582,24.818699,-11.27556,0.6178241,8.284407,-12.574166
1.462,22.173088,25.666592,-11.541294,0.6419816,8.857775,-12.748563
1.464,23.495132,26.541578,-11.848241,0.67435265,9.44364,-12.911511
1.466,24.8321,27.440243,-12.194637,0.7151985,10.041334,-13.061433
1.468,26.181557,28.359055,-12.577782,0.7647891,10.650014,-13.19684
1.47,27.541122,29.293772,-12.99479,0.82338333,11.26862,-13.316321
1.472,28.908691,30.239752,-13.442399,0.8912411,11.895901,-13.418626
1.474,30.282177,31.191929,-13.916498,0.96858597,12.530345,-13.502655
1.476,31.659569,32.145035,-14.41197,1.055583,13.170244,-13.567484
1.478,33.038715,33.093914,-14.922968,1.1522875,13.813698,-13.612406
1.48,34.41773,34.033253,-15.443022,1.2585726,14.458642,-13.636912
1.482,35.794827,34.95762,-15.965958,1.374136,15.102823,-13.640633
1.484,37.168236,35.86153,-16.485306,1.4984908,15.743841,-13.623403
1.486,38.536648,36.739483,-16.994778,1.6309133,16.379093,-13.585183
1.488,39.898857,37.586502,-17.488073,1.770433,17.005838,-13.526165
1.49,41.254036,38.397896,-17.959759,1.9158216,17.6211,-13.44664
1.492,42.601746,39.16941,-18.404934,2.0655742,18.221779,-13.347059
1.494,43.94243,39.89739,-18.819016,2.2179165,18.80476,-13.227912
1.496,45.27675,40.578426,-19.198421,2.3708572,19.366943,-13.089722
1.498,46.605606,41.209713,-19.540108,2.5222547,19.905455,-12.933062
1.5,47.930813,41.788395,-19.841518,2.6698592,20.417768,-12.758412
1.502,49.25487,42.31245,-20.101124,2.8113894,20.901865,-12.566277
1.504,50.580025,42.780117,-20.318216,2.9445906,21.35636,-12.357153
1.506,51.909603,43.18997,-20.493177,3.067344,21.780607,-12.131466
1.508,53.247334,43.54119,-20.627022,3.177715,22.174606,-11.889678
1.51,54.59733,43.833233,-20.720692,3.2739542,22.538845,-11.632284
1.512,55.96458,44.06619,-20.776525,3.3544893,22.874279,-11.35984
1.514,57.35348,44.24023,-20.797775,3.417911,23.182259,-11.072983
1.516,58.769627,44.35547,-20.7877,3.462931,23.46427,-10.77239
1.518,60.21928,44.411076,-20.750025,3.4883232,23.721811,-10.458767
1.52,61.70692,44.407402,-20.688896,3.4928906,23.9563,-10.132757
1.522,63.237713,44.344746,-20.60857,3.4754453,24.168966,-9.794918
1.524,64.81751,44.223095,-20.512627,3.4347649,24.360832,-9.4457655
1.526,66.452286,44.042786,-20.404806,3.3696308,24.532745,-9.08572
1.528,68.14684,43.804676,-20.28841,3.278864,24.685343,-8.715084
1.53,69.90746,43.509453,-20.165747,3.161334,24.81919,-8.334046
1.532,71.73953,43.15847,-20.038906,3.0160306,24.934717,-7.9427795
1.534,73.64671,42.755123,-19.91074,2.8420892,25.032394,-7.5414853
1.536,75.63464,42.30214,-19.782047,2.638764,25.112844,-7.1303477
1.538,77.70943,41.80233,-19.653286,2.4053438,25.176815,-6.7094727
1.54,79.875534,41.262096,-19.523018,2.1411848,25.225319,-6.2789803
1.542,82.13847,40.68763,-19.38752,1.8457139,25.259624,-5.839006
1.544,84.50172,40.089836,-19.244286,1.5183749,25.281336,-5.3897
1.546,86.96786,39.48389,-19.093853,1.1584973,25.292322,-4.9311934
1.548,89.53931,38.889824,-18.943287,0.76533747,25.294636,-4.4634924
1.55,92.216225,38.330196,-18.79309,0.33810568,25.290434,-3.986416
1.552,94.99955,37.81811,-18.626614,-0.12402487,25.281855,-3.4996872
1.554,97.88533,37.373894,-18.432133,-0.6218715,25.271015,-3.0028052
1.556,100.86751,37.032867,-18.203064,-1.1560571,25.25996,-2.4950457
1.558,103.94299,36.82732,-17.941584,-1.7269802,25.250317,-1.9755204
1.56,107.11087,36.79192,-17.648872,-2.3348484,25.242975,-1.4432002
1.562,110.368515,36.96997,-17.332024,-2.9795327,25.238047,-0.8967395
1.564,113.71112,37.41287,-16.989864,-3.660487,25.234869,-0.33464408
1.566,117.120636,38.17757,-16.622768,-4.3768535,25.231573,0.24459524
1.568,120.61151,39.290314,-16.235025,-5.1275587,25.225029,0.84276056
1.57,124.15224,40.797394,-15.851831,-5.9111805,25.211302,1.4617617
1.572,127.73025,42.74194,-15.474987,-6.726269,25.185263,2.1037107
1.574,131.35172,45.11435,-15.031801,-7.5711126,25.140886,2.7708714
1.576,135.02904,47.969864,-14.605851,-8.443447,25.07203,3.4654145
1.578,138.77437,51.313766,-14.275692,-9.341032,24.971672,4.1893463
1.58,142.57217,55.176617,-14.0426235,-10.262939,24.830181,4.944446
1.582,146.38072,59.574966,-13.915659,-11.209562,24.63629,5.7330694
1.584,150.23003,64.615204,-13.864216,-12.180355,24.379442,6.5575104
1.586,154.12958,70.30916,-13.804476,-13.174464,24.048952,7.4192424
1.588,158.06242,76.55093,-13.749695,-14.192082,23.631664,8.320302
1.59,162.04742,83.32485,-13.713585,-15.233951,23.112946,9.264849
1.592,166.09189,90.543915,-13.604313,-16.301683,22.475788,10.2568035
1.594,170.2342,98.19587,-13.482346,-17.397882,21.700125,11.298643
1.596,174.51074,106.23454,-13.367527,-18.525412,20.763906,12.392126
1.598,178.94727,114.55136,-13.188236,-19.686932,19.645332,13.540474
1.6,183.5782,123.04869,-12.907806,-20.8825,18.324696,14.746286
1.602,188.43985,131.6228,-12.4925,-22.11315,16.776226,16.010021
1.604,193.56229,140.14566,-11.87598,-23.377861,14.976791,17.338768
1.606,198.90875,148.49902,-10.979698,-24.671272,12.90781,18.750805
1.608,204.4541,156.5524,-9.7147045,-25.987465,10.557068,20.24864
1.61,210.00252,164.15967,-8.017651,-27.31698,7.9283867,21.83403
1.612,215.64008,170.89772,-5.925617,-28.66307,5.040061,23.515837
1.614,221.47311,176.7655,-3.2313328,-30.05227,1.8993835,25.2826
1.616,227.3524,181.79836,0.08192444,-31.506584,-1.5004082,27.103617
1.618,233.21785,185.83867,4.151178,-33.02324,-5.1500587,28.948137
1.62,238.96611,188.75708,9.070718,-34.587753,-9.012362,30.789465
1.622,244.5221,190.45602,14.8694935,-36.207237,-13.027935,32.555984
1.624,249.78575,190.85825,21.55834,-37.90855,-17.151085,34.173916
1.626,254.61697,189.9341,29.139498,-39.699135,-21.341803,35.55755
1.628,258.85138,187.6925,37.590816,-41.56636,-25.5592,36.60045
1.63,262.32327,184.1836,46.849182,-43.48067,-29.761005,37.1834
1.632,264.88217,179.49037,56.816914,-45.382103,-33.906647,37.187252
1.634,266.40836,173.70897,67.368675,-47.172134,-37.952515,36.4984
1.636,266.80548,166.93927,78.35159,-48.716652,-41.847374,35.01481
1.638,265.99695,159.3067,89.58907,-49.857586,-45.53218,32.66035
1.64,263.90585,150.9647,100.90433,-50.42695,-48.916985,29.40541
1.642,260.48212,142.08563,112.08645,-50.253616,-51.89115,25.341736
1.644,255.71985,132.85004,122.89545,-49.197544,-54.354496,20.571217
1.646,249.65112,123.42709,133.08046,-47.17614,-56.201805,15.200617
1.648,242.33522,113.98398,142.41052,-44.16894,-57.332954,9.406445
1.65,233.8681,104.68936,150.67711,-40.225334,-57.66011,3.4175205
1.652,224.38019,95.71006,157.69038,-35.45998,-57.1218,-2.5010357
1.654,214.03525,87.20422,163.28897,-30.045135,-55.694946,-8.061211
1.656,203.01907,79.32646,167.3469,-24.19382,-53.390152,-12.976267
1.658,191.52797,72.21348,169.7805,-18.144112,-50.25923,-16.995499
1.66,179.76424,65.971504,170.53995,-12.13891,-46.390083,-19.92975
1.662,167.92896,60.687645,169.6076,-6.402836,-41.90103,-21.653002
1.664,156.21886,56.417206,167.02216,-1.1318207,-36.941216,-22.140345
1.666,144.81787,53.178337,162.87355,3.5266495,-31.67598,-21.475868
1.668,133.88733,50.96924,157.2975,7.4776373,-26.26049,-19.82235
1.67,123.563156,49.76336,150.45772,10.655699,-20.846457,-17.418488
1.672,113.95738,49.507576,142.54543,13.030543,-15.59718,-14.5698805
1.674,105.15676,50.124992,133.76027,14.630783,-10.672996,-11.603606
1.676,97.227615,51.52095,124.313,15.554808,-6.209974,-8.790652
1.678,90.177124,53.613224,114.41856,15.940943,-2.2889938,-6.3668933
1.68,84.029526,56.28157,104.30041,15.923888,1.0428934,-4.496885
1.682,78.75664,59.39914,94.14319,15.640282,3.7633967,-3.2605412
1.684,74.293884,62.871925,84.06118,15.226488,5.877716,-2.6669352
1.686,70.562515,66.53197,74.2975,14.799143,7.422842,-2.674222
1.688,67.4801,70.26284,65.02578,14.445417,8.462233,-3.2013016
1.69,64.98299,73.92323,56.307213,14.2223425,9.079458,-4.1392417
1.692,63.01644,77.39522,48.19468,14.158777,9.374032,-5.368167
1.694,61.454697,80.502426,40.69178,14.259069,9.441654,-6.7745085
1.696,60.207603,83.193,33.759697,14.500574,9.383151,-8.292215
1.698,59.214653,85.50993,27.451134,14.854062,9.30825,-9.792705
1.7,58.386715,87.3883,21.788475,15.290565,9.297077,-11.133668
1.702,57.659454,88.83232,16.689827,15.775192,9.399508,-12.236248
1.704,56.95399,89.77739,12.214544,16.274626,9.632828,-13.057035
1.706,56.21398,90.21348,8.345995,16.759651,9.989518,-13.578587
1.708,55.40803,90.190216,4.9810333,17.208847,10.444385,-13.806683
1.71,54.505165,89.7378,2.0701103,17.609247,10.956085,-13.764528
1.712,53.482597,88.89115,-0.42796135,17.953018,11.47229,-13.487926
1.714,52.329468,87.70568,-2.575718,18.233984,11.938078,-13.021202
1.716,51.089046,86.22493,-4.428667,18.44632,12.304624,-12.413814
1.718,49.769283,84.5048,-6.034588,18.585745,12.5367565,-11.715683
1.72,48.493996,82.61313,-7.406925,18.650803,12.614709,-10.970856
1.722,47.092304,80.82216,-8.484495,18.642138,12.532839,-10.21302
1.724,45.43947,78.96462,-9.438,18.561916,12.299377,-9.461269
1.726,43.661674,76.93559,-10.225906,18.412104,11.930782,-8.720011
1.728,41.756218,74.85878,-10.930023,18.198303,11.4517975,-7.986344
1.73,39.748993,72.81522,-11.574299,17.932407,10.895444,-7.2571797
1.732,37.62758,70.85421,-12.131855,17.627655,10.29683,-6.5300994
1.734,35.40378,69.013306,-12.589506,17.296131,9.689014,-5.8018847
1.736,33.1173,67.3012,-12.954681,16.948341,9.101101,-5.0693173
1.738,30.813068,65.716606,-13.236189,16.593126,8.555727,-4.3293734
1.74,28.523495,64.24982,-13.43321,16.23749,8.068106,-3.5780807
1.742,26.260757,62.894608,-13.545563,15.886858,7.6460037,-2.8118687
1.744,24.017511,61.661533,-13.579613,15.544806,7.2905674,-2.0309763
1.746,21.787169,60.574535,-13.544218,15.212742,6.997917,-1.2393703
1.748,19.57392,59.643257,-13.450336,14.890154,6.760557,-0.4427786
1.75,17.405888,58.862534,-13.323893,14.575241,6.568852,0.35221863
1.752,15.307526,58.222076,-13.166588,14.265684,6.412568,1.1379418
1.754,13.287382,57.71176,-12.9647255,13.959128,6.2819166,1.9058509
1.756,11.348481,57.336205,-12.707498,13.653368,6.1684523,2.6475105
1.758,9.499966,57.094337,-12.403112,13.346689,6.0658574,3.3552747
1.76,7.7476807,56.972286,-12.068123,13.036653,5.965271,4.0195246
1.762,6.090845,56.951378,-11.713709,12.725171,5.871809,4.639025
1.764,4.5260544,57.00888,-11.346359,12.412116,5.782754,5.207781
1.766,3.0504875,57.116463,-10.970062,12.099113,5.6998734,5.722952
1.768,1.6663876,57.253082,-10.588488,11.78838,5.6259217,6.183014
1.77,0.37747002,57.412556,-10.206177,11.482361,5.5641937,6.587823
1.772,-0.8135147,57.593594,-9.830046,11.183523,5.518196,6.938552
1.774,-1.9052238,57.79237,-9.468136,10.894058,5.4913187,7.237502
1.776,-2.898098,58.004135,-9.1303215,10.615692,5.4864435,7.487862
1.778,-3.794835,58.22464,-8.825757,10.349526,5.5056405,7.6934347
1.78,-4.5991955,58.447887,-8.561982,10.095928,5.5498986,7.8584747
1.782,-5.316863,58.6654,-8.344648,9.854491,5.6188912,7.9873915
1.784,-5.9550734,58.86892,-8.177605,9.624105,5.710832,8.0844555
1.786,-6.5208406,59.050636,-8.062465,9.4030905,5.82238,8.153497
1.788,-7.021345,59.20417,-7.9984856,9.189387,5.94865,8.197827
1.79,-7.463265,59.324512,-7.9826603,8.980709,6.0833073,8.220167
1.792,-7.851569,59.408566,-8.011337,8.77483,6.218809,8.22269
1.794,-8.191452,59.454884,-8.080004,8.569744,6.346907,8.2071085
1.796,-8.488708,59.462936,-8.181461,8.363825,6.4590964,8.174931
1.798,-8.749623,59.431763,-8.307263,8.155963,6.5471096,8.127654
1.8,-8.980293,59.361065,-8.448388,7.945592,6.6034636,8.067024
1.802,-9.186935,59.25043,-8.595908,7.7326612,6.6217923,7.995091
1.804,-9.37556,59.100338,-8.740544,7.5175505,6.5972,7.9142623
1.806,-9.551052,58.910717,-8.873137,7.300933,6.5263276,7.8272405
1.808,-9.717491,58.682255,-8.98487,7.083646,6.407462,7.7369084
1.81,-9.878648,58.416687,-9.06703,6.866592,6.240511,7.64619
1.812,-10.0371,58.11617,-9.112265,6.6506386,6.0268497,7.5578933
1.814,-10.195362,57.783722,-9.113835,6.4374347,5.772017,7.476322
1.816,-10.355028,57.422356,-9.066231,6.2256002,5.472748,7.39931
1.818,-10.517092,57.035133,-8.965315,6.0171895,5.1383686,7.3314323
1.82,-10.682162,56.625378,-8.807947,5.8127747,4.7739525,7.273758
1.822,-10.850722,56.196598,-8.592361,5.6129336,4.385056,7.2269053
1.824,-11.022148,55.751762,-8.318405,5.4182315,3.9773388,7.1909847
1.826,-11.195182,55.29368,-7.986749,5.229205,3.5564294,7.165712
1.828,-11.368088,54.824776,-7.598917,5.0463448,3.1276307,7.150464
1.83,-11.539015,54.347786,-7.157177,4.8700457,2.6958175,7.1443806
1.832,-11.705862,53.864906,-6.664215,4.700542,2.265327,7.1463466
1.834,-11.866114,53.37794,-6.1229277,4.537915,1.8398945,7.155004
1.836,-12.017231,52.887817,-5.5369625,4.382009,1.4225821,7.1688232
1.838,-12.156116,52.395187,-4.9102287,4.232473,1.015751,7.186223
1.84,-12.280537,51.899815,-4.246978,4.0887136,0.6210493,7.2056303
1.842,-12.388544,51.401394,-3.5514507,3.949865,0.23946194,7.225416
1.844,-12.478428,50.899,-2.8279514,3.8149195,-0.12869217,7.2439966
1.846,-12.548204,50.39044,-2.0803614,3.682793,-0.48358354,7.2598686
1.848,-12.596361,49.87374,-1.3127508,3.5523865,-0.82596725,7.27158
1.85,-12.621597,49.346127,-0.5286751,3.422699,-1.1570431,7.2777576
1.852,-12.622993,48.80429,0.2686386,3.2928905,-1.4782308,7.277056
1.854,-12.599993,48.24504,1.0761795,3.162427,-1.7909997,7.268195
1.856,-12.552025,47.664864,1.8914948,3.0310678,-2.0967686,7.249961
1.858,-12.479124,47.060726,2.7122335,2.8988862,-2.39676,7.2212234
1.86,-12.381181,46.429893,3.5362568,2.7662854,-2.6918323,7.180968
1.862,-12.258255,45.770004,4.360759,2.6339402,-2.9823904,7.128376
1.864,-12.11008,45.078655,5.183322,2.5027251,-3.2683587,7.0628357
1.866,-11.93708,44.35411,6.0016937,2.3736625,-3.549182,6.9840302
1.868,-11.739628,43.59533,6.813715,2.2477686,-3.8238697,6.8919787
1.87,-11.519038,42.801754,7.616969,2.125986,-4.0911355,6.787035
1.872,-11.276249,41.97351,8.409296,2.0091105,-4.349482,6.669832
1.874,-11.012655,41.11148,9.188263,1.8977154,-4.597293,6.541217
1.876,-10.729719,40.21698,9.951324,1.7920883,-4.8330135,6.4021626
1.878,-10.428836,39.291893,10.695943,1.692224,-5.05518,6.2537756
1.88,-10.111349,38.33856,11.419631,1.5978371,-5.262541,6.097157
1.882,-9.778688,37.359776,12.120062,1.508336,-5.45405,5.9333158
1.884,-9.432572,36.35862,12.7948065,1.422949,-5.6289077,5.7631865
1.886,-9.074678,35.338573,13.441926,1.3407804,-5.7864485,5.587587
1.888,-8.706402,34.303062,14.059738,1.2608567,-5.9261503,5.4072733
1.89,-8.329649,33.25585,14.646725,1.1822412,-6.0475216,5.2229075
1.892,-7.9458733,32.200363,15.201519,1.104089,-6.150034,5.0350513
1.894,-7.5565376,31.140158,15.723089,1.0257248,-6.2330875,4.8441777
1.896,-7.163397,30.078583,16.210403,0.946694,-6.295992,4.650818
1.898,-6.768244,29.01894,16.662825,0.8666824,-6.337965,4.4554625
1.9,-6.3731165,27.964348,17.079971,0.78554666,-6.358173,4.2585955
1.902,-5.980069,26.91763,17.46169,0.7033105,-6.3557,4.0606728
1.904,-5.5904875,25.881237,17.808517,0.62009573,-6.329673,3.8621159
1.906,-5.205785,24.85755,18.120802,0.536109,-6.279364,3.6633987
1.908,-4.827341,23.849094,18.398682,0.4515735,-6.204275,3.4649885
1.91,-4.4564695,22.857632,18.641918,0.36670744,-6.1041327,3.2673984
1.912,-4.094242,21.884865,18.850193,0.28172052,-5.9789553,3.0711865
1.914,-3.742052,20.932293,19.023525,0.19672441,-5.829141,2.8769875
1.916,-3.401101,20.00143,19.162203,0.111739874,-5.655468,2.6855547
1.918,-3.0725155,19.093988,19.266537,0.026724696,-5.459067,2.497738
1.92,-2.7572584,18.211355,19.336819,-0.05844772,-5.241432,2.314406
1.922,-2.4560785,17.354975,19.373817,-0.14391494,-5.004388,2.1363945
1.924,-2.1692562,16.5258,19.37746,-0.2298289,-4.750024,1.964463
1.926,-1.8975534,15.724947,19.348228,-0.3163451,-4.4807296,1.7992383
1.928,-1.641737,14.953317,19.28701,-0.4035713,-4.199127,1.6411581
1.93,-1.401907,14.211342,19.19428,-0.4915505,-3.90797,1.4903994
1.932,-1.1778898,13.4992695,19.070656,-0.5802623,-3.610133,1.346845
1.934,-0.96999454,12.817238,18.917244,-0.6696424,-3.308545,1.210146
1.936,-0.77832365,12.165135,18.735216,-0.75957954,-3.0061328,1.0797535
1.938,-0.6028013,11.542855,18.525848,-0.8499714,-2.7057853,0.9549511
1.94,-0.4430442,10.9496975,18.290747,-0.94069564,-2.410241,0.8349676
1.942,-0.29869843,10.385004,18.031406,-1.0316075,-2.1219912,0.7190219
1.944,-0.1692748,9.847956,17.749643,-1.1225599,-1.8432782,0.60635865
1.946,-0.054044247,9.337703,17.447422,-1.213407,-1.57604,0.49635738
1.948,0.047537804,8.853198,17.12677,-1.3040178,-1.3218404,0.38855729
1.95,0.13650036,8.393452,16.789993,-1.3942629,-1.0818667,0.2826385
1.952,0.21371889,7.957218,16.439426,-1.4840683,-0.85697144,0.17843655
1.954,0.28026342,7.54305,16.077677,-1.5734042,-0.64772034,0.075947985
1.956,0.33678675,7.150079,15.707191,-1.6622726,-0.45435864,-0.024663955
1.958,0.38435936,6.77704,15.33069,-1.7507149,-0.27685314,-0.123094976
1.96,0.42390585,6.422919,14.95084,-1.8388332,-0.11498633,-0.21895975
1.962,0.45667315,6.086767,14.5699625,-1.926756,0.031690836,-0.31180817
1.964,0.48392057,5.7675734,14.190657,-2.0146103,0.16381824,-0.40118378
1.966,0.5068979,5.4645977,13.815025,-2.1025407,0.28221488,-0.48666698
1.968,0.5269251,5.1770363,13.445028,-2.1906753,0.38783878,-0.56791186
1.97,0.5452533,4.9042554,13.082212,-2.27912,0.4817589,-0.6446588
1.972,0.56327486,4.645668,12.728251,-2.3679845,0.5650906,-0.7167542
1.974,0.58233833,4.4008117,12.384219,-2.4573822,0.6389692,-0.78415334
1.976,0.6038246,4.169488,12.051092,-2.547429,0.7045008,-0.8468816
1.978,0.6287198,3.9513001,11.729488,-2.6382678,0.76268893,-0.90505654
1.98,0.6586621,3.745821,11.419781,-2.7300584,0.8144358,-0.9588704
1.982,0.69479203,3.5526018,11.122384,-2.8229702,0.86051655,-1.0085245
1.984,0.7380388,3.3714108,10.83739,-2.9171686,0.90154505,-1.0542397
1.986,0.789273,3.2019038,10.564922,-3.0128129,0.93797195,-1.096242
1.988,0.8493407,3.0435817,10.304801,-3.1100156,0.9700885,-1.1347685
1.99,0.9186835,2.8962593,10.057112,-3.2088578,0.9980694,-1.1700587
1.992,0.9977324,2.7595866,9.821543,-3.3093474,1.0220158,-1.2023654
1.994,1.0868125,2.633359,9.597897,-3.4114509,1.0419694,-1.2319746
1.996,1.1859546,2.5173168,9.385794,-3.5151,1.0579298,-1.2592411
1.998,1.2949841,2.4111245,9.184818,-3.620172,1.0699363,-1.2845414
2,1.4138811,2.3144882,8.994568,-3.7265253,1.0780938,-1.3083125
2.002,1.5421715,2.2271843,8.814619,-3.833993,1.082588,-1.3309832
2.004,1.6793301,2.1491072,8.64451,-3.9424024,1.0837213,-1.3529389
2.006,1.8246617,2.0802774,8.483961,-4.0515604,1.0819199,-1.3745087
2.008,1.977437,2.0206065,8.332571,-4.1612873,1.0777442,-1.3959268
2.01,2.1370456,1.9702612,8.1898575,-4.2714224,1.0718579,-1.4173208
2.012,2.3025773,1.9293466,8.055464,-4.3818316,1.0649626,-1.438746
2.014,2.473018,1.8980312,7.9289875,-4.492389,1.0577831,-1.4601662
2.016,2.6476424,1.8765922,7.810255,-4.602992,1.0510097,-1.4814872
2.018,2.8256748,1.8652141,7.698962,-4.71356,1.0452414,-1.5025928
2.02,3.006249,1.8643012,7.5946045,-4.8240166,1.0409439,-1.5233768
2.022,3.1885235,1.8742635,7.4971294,-4.9342995,1.0384538,-1.5437737
2.024,3.3719199,1.8955078,7.4059973,-5.044362,1.0379417,-1.5638089
2.026,3.5556836,1.9286187,7.3208756,-5.154172,1.0394249,-1.583573
2.028,3.739249,1.9739556,7.241634,-5.263695,1.0428097,-1.6032326
2.03,3.922293,2.032066,7.1677732,-5.3728857,1.0479488,-1.6230227
2.032,4.104338,2.1033041,7.098992,-5.481703,1.0546243,-1.643206
2.034,4.2850256,2.1882553,7.035239,-5.590113,1.0625732,-1.6640412
2.036,4.4642005,2.2875195,6.976223,-5.698089,1.0715402,-1.6857713
2.038,4.6416326,2.4016309,6.921808,-5.805611,1.0813127,-1.7085819
2.04,4.817566,2.5311255,6.871973,-5.9126835,1.0917175,-1.7326059
2.042,4.991969,2.6764107,6.8266907,-6.0193357,1.1026578,-1.7578871
2.044,5.1651216,2.8378508,6.7859306,-6.125623,1.1140876,-1.7843893
2.046,5.337468,3.0159423,6.749836,-6.231628,1.1259997,-1.8120008
2.048,5.5093026,3.2107344,6.7185016,-6.337467,1.1384206,-1.8405493
2.05,5.681115,3.422644,6.692217,-6.443258,1.1514554,-1.8698047
2.052,5.8535004,3.6518612,6.6712055,-6.5491385,1.1652601,-1.8995262
2.054,6.0273933,3.898707,6.6556587,-6.655241,1.1800294,-1.9294764
2.056,6.2033644,4.163399,6.646103,-6.7616596,1.1960187,-1.9594475
2.058,6.382492,4.4460316,6.642772,-6.8684316,1.2136009,-1.9892799
2.06,6.5658426,4.7467446,6.6458464,-6.975549,1.2332239,-2.018848
2.062,6.7546325,5.0656104,6.6556563,-7.082942,1.2554104,-2.0481074
2.064,6.950218,5.402694,6.672431,-7.1904593,1.2807943,-2.0770469
2.066,7.1539664,5.7579737,6.696394,-7.2978706,1.3100934,-2.105682
2.068,7.3672314,6.131444,6.727645,-7.404927,1.3440905,-2.134056
2.07,7.59157,6.5229397,6.76629,-7.5113325,1.3836219,-2.1622229
2.072,7.828468,6.9322815,6.8124037,-7.6167655,1.42956,-2.1902282
2.074,8.07963,7.359345,6.865848,-7.7209005,1.4827975,-2.2181318
2.076,8.346591,7.804096,6.926641,-7.823415,1.5442015,-2.245992
2.078,8.630738,8.266392,6.9945626,-7.9239945,1.6146079,-2.273835
2.08,8.933736,8.745989,7.0693293,-8.022327,1.6948186,-2.301697
2.082,9.257135,9.24286,7.1506476,-8.11812,1.7855489,-2.3295918
2.084,9.602112,9.756995,7.2380013,-8.2110815,1.8874449,-2.357554
2.086,9.969956,10.288233,7.3307085,-8.3008995,2.001111,-2.3855991
2.088,10.361713,10.836576,7.428064,-8.38725,2.1270738,-2.413725
2.09,10.778007,11.402211,7.5291123,-8.469776,2.2657516,-2.4419205
2.092,11.219611,11.98528,7.6327715,-8.548102,2.4175107,-2.4701512
2.094,11.68769,12.585704,7.738262,-8.621802,2.5826366,-2.4983692
2.096,12.182782,13.203792,7.844222,-8.690405,2.7613654,-2.5265303
2.098,12.70509,13.839636,7.949213,-8.753392,2.953898,-2.554612
2.1,13.25492,14.493053,8.051615,-8.81021,3.1604288,-2.5826223
2.102,13.832365,15.16373,8.149817,-8.860247,3.3811328,-2.6106353
2.104,14.437037,15.851321,8.242136,-8.902861,3.6161919,-2.6387963
2.106,15.068565,16.555202,8.326893,-8.937373,3.8657627,-2.667326
2.108,15.726585,17.274593,8.402235,-8.963053,4.1300125,-2.696532
2.11,16.41047,18.008097,8.46631,-8.979197,4.409093,-2.7267826
2.112,17.118847,18.754295,8.517288,-8.985075,4.703105,-2.758482
2.114,17.85049,19.511568,8.553026,-8.979969,5.012112,-2.7920926
2.116,18.604122,20.27814,8.571671,-8.963164,5.336096,-2.8280852
2.118,19.37887,21.051401,8.57127,-8.934001,5.674921,-2.8669279
2.12,20.17422,21.827745,8.5500765,-8.891835,6.02833,-2.9090748
2.122,20.9896,22.602873,8.506442,-8.836094,6.395856,-2.9549563
2.124,21.82412,23.37173,8.438524,-8.766269,6.7768826,-3.0049596
2.126,22.675709,24.128923,8.344726,-8.681921,7.1707263,-3.0595164
2.128,23.543259,24.868536,8.223583,-8.582699,7.576488,-3.1190176
2.13,24.424408,25.584023,8.074123,-8.468369,7.9930906,-3.1838238
2.132,25.3166,26.26865,7.8953724,-8.338827,8.419304,-3.2541938
2.134,26.218016,26.915224,7.6870127,-8.194125,8.853757,-3.3302615
2.136,27.125986,27.515799,7.4488287,-8.034442,9.294989,-3.4120011
2.138,28.038,28.062256,7.1806116,-7.86005,9.741571,-3.4992523
2.14,28.95081,28.546764,6.8828335,-7.6712985,10.1921,-3.5917
2.142,29.861488,28.961573,6.556199,-7.4685884,10.645253,-3.688829
2.144,30.766838,29.299042,6.201498,-7.2524023,11.09983,-3.7899444
2.146,31.66315,29.551872,5.8196354,-7.023185,11.554752,-3.894256
2.148,32.546062,29.71334,5.411768,-6.7813115,12.0091305,-4.0008793
2.15,33.41054,29.777344,4.97939,-6.5270185,12.462209,-4.108855
2.152,34.25101,29.738873,4.524145,-6.260318,12.91335,-4.21714
2.154,35.06155,29.593966,4.0482273,-5.981034,13.361955,-4.3247147
2.156,35.83531,29.339933,3.553957,-5.688897,13.807224,-4.430468
2.158,36.565475,28.975613,3.0441952,-5.3835783,14.248104,-4.533222
2.16,37.244427,28.501171,2.52172,-5.064743,14.683216,-4.6317058
2.162,37.863903,27.918385,1.98981,-4.7321033,15.110697,-4.7245502
2.164,38.41554,27.230621,1.4515438,-4.385462,15.528041,-4.810373
2.166,38.891327,26.442734,0.91008854,-4.024761,15.9321,-4.8876715
2.168,39.28275,25.561512,0.36888885,-3.6502147,16.318893,-4.95466
2.17,39.581963,24.594982,-0.16856956,-3.2623835,16.683676,-5.009345
2.172,39.781696,23.552692,-0.69883776,-2.8622794,17.02095,-5.049528
2.174,39.87553,22.445482,-1.2183111,-2.4515023,17.324682,-5.0727987
2.176,39.858273,21.285112,-1.7234812,-2.0322757,17.588446,-5.076577
2.178,39.725933,20.084286,-2.2108788,-1.6076193,17.805708,-5.058239
2.18,39.476044,18.856403,-2.6767745,-1.1813345,17.970093,-5.015173
2.182,39.107628,17.61513,-3.1178043,-0.75791883,18.075949,-4.9450536
2.184,38.62241,16.373661,-3.5302238,-0.3424263,18.11862,-4.8460474
2.186,38.0232,15.145437,-3.9105713,0.059746742,18.094719,-4.7170095
2.188,37.316456,13.942732,-4.254958,0.44317245,18.002304,-4.5576096
2.19,36.507637,12.777754,-4.560917,0.80268335,17.840916,-4.3684263
2.192,35.60427,11.6618595,-4.826224,1.1336493,17.611572,-4.150955
2.194,34.617344,10.604486,-5.0483627,1.4323053,17.316614,-3.9076667
2.196,33.55909,9.613243,-5.224663,1.6959496,16.959576,-3.6418667
2.198,32.442688,8.694482,-5.353113,1.9230571,16.544928,-3.3575401
2.2,31.281565,7.852951,-5.432143,2.1133032,16.077946,-3.0591648
2.202,30.08935,7.0921936,-5.4609394,2.2674818,15.5644455,-2.751525
2.204,28.879862,6.41364,-5.439564,2.387383,15.010767,-2.4395323
2.206,27.666946,5.817008,-5.368302,2.4756556,14.423574,-2.1280382
2.208,26.464092,5.3008633,-5.2479906,2.5356402,13.809828,-1.8215961
2.21,25.28403,4.862443,-5.0802903,2.5712304,13.17672,-1.524396
2.212,24.13816,4.4979916,-4.8676333,2.5866241,12.531414,-1.2401519
2.214,23.037321,4.2025094,-4.613221,2.5860224,11.880808,-0.97186613
2.216,21.990433,3.970292,-4.3209314,2.5735106,11.231401,-0.7218168
2.218,21.004642,3.7950225,-3.9952374,2.5528514,10.589266,-0.49153566
2.22,20.085627,3.6700878,-3.640945,2.5273438,9.959778,-0.28182316
2.222,19.23804,3.588787,-3.2634807,2.4998188,9.347544,-0.09300256
2.224,18.464561,3.543973,-2.8684287,2.472577,8.756246,0.07505655
2.226,17.766079,3.5288868,-2.4617243,2.4473975,8.18872,0.22289228
2.228,17.141592,3.5374527,-2.0493422,2.4255333,7.6470866,0.35137224
2.23,16.588655,3.564302,-1.6373053,2.4078052,7.132813,0.46148944
2.232,16.104279,3.6046953,-1.231535,2.3946958,6.6468062,0.5542133
2.234,15.684665,3.6542244,-0.8373375,2.3864033,6.1894207,0.630378
2.236,15.326042,3.7087836,-0.45981264,2.3829288,5.760529,0.69070244
2.238,15.023127,3.764835,-0.1035614,2.3841436,5.3595634,0.7358079
2.24,14.771125,3.8191986,0.22724152,2.3898118,4.985572,0.7662364
2.242,14.564585,3.8691373,0.52914953,2.399611,4.6372848,0.78246605
2.244,14.396763,3.912531,0.7991576,2.413113,4.3131046,0.78500104
2.246,14.261843,3.9481282,1.0350232,2.429753,4.011196,0.77444565
2.248,14.153618,3.9748569,1.2355676,2.4487956,3.7295156,0.7515253
2.25,14.066521,3.991756,1.4001188,2.46931,3.4659204,0.7170569
2.252,13.994727,3.9983432,1.5286117,2.4901907,3.2182004,0.6719382
2.254,13.933027,3.994552,1.6220474,2.510162,2.9841266,0.6171061
2.256,13.876921,3.9803631,1.6820736,2.5278432,2.7615268,0.553452
2.258,13.8229065,3.9561052,1.7108827,2.5418243,2.5482745,0.48175848
2.26,13.76799,3.9222178,1.7111757,2.5507617,2.342295,0.40270734
2.262,13.709923,3.8791618,1.6859751,2.5534387,2.1416008,0.3168366
2.264,13.646748,3.8274837,1.6385775,2.548854,1.9442679,0.22459924
2.266,13.577548,3.7677035,1.5726748,2.5362513,1.7484775,0.1263963
2.268,13.501458,3.7004476,1.4920323,2.5151925,1.5525606,0.022526503
2.27,13.418463,3.6262631,1.4007683,2.4854875,1.3550212,-0.086655855
2.272,13.329253,3.5457554,1.3030021,2.4471784,1.1545361,-0.20067638
2.274,13.234415,3.4595687,1.2031817,2.4006011,0.95014346,-0.31903547
2.276,13.135046,3.3684595,1.1055217,2.3462708,0.7413436,-0.44111443
2.278,13.032307,3.2728643,1.0138929,2.2848892,0.52812046,-0.56621546
2.28,12.927469,3.1734598,0.9319725,2.2172987,0.31086457,-0.693702
2.282,12.821835,3.070708,0.86309767,2.1444855,0.09034997,-0.8230263
2.284,12.716673,2.9652605,0.8100071,2.0675223,-0.13228616,-0.9536536
2.286,12.6130705,2.8577352,0.77512026,1.9874905,-0.35560676,-1.0850393
2.288,12.512198,2.7486832,0.7603116,1.9054716,-0.5779864,-1.2166096
2.29,12.414796,2.638708,0.7666733,1.8224411,-0.7977437,-1.3478253
2.292,12.321592,2.5284157,0.79508376,1.7392292,-1.0132818,-1.4781449
2.294,12.232378,2.4189324,0.84557533,1.6564995,-1.2232468,-1.6069685
2.296,12.147549,2.3108072,0.9178102,1.5746882,-1.426557,-1.7336458
2.298,12.066088,2.2052236,1.01071,1.494061,-1.6224278,-1.8575128
2.3,11.989143,2.102826,1.1239386,1.4146698,-1.8104146,-1.977917
2.302,11.916947,2.0038776,1.2565484,1.3364275,-1.990361,-2.0942206
2.304,11.847979,1.9096417,1.4067283,1.2591224,-2.1623998,-2.2058625
2.306,11.78104,1.8214326,1.572129,1.1824561,-2.3268592,-2.3123477
2.308,11.715163,1.7399201,1.7505734,1.1061039,-2.484239,-2.4133072
2.31,11.650088,1.6656523,1.9403486,1.0297612,-2.635113,-2.5084991
2.312,11.58548,1.5988374,2.139682,0.95315814,-2.780056,-2.5978014
2.314,11.520582,1.5401587,2.346951,0.87611306,-2.919588,-2.6812603
2.316,11.454849,1.4901438,2.5605152,0.798537,-3.0541515,-2.7590213
2.318,11.38799,1.4490571,2.778767,0.7204467,-3.1840742,-2.8313484
2.32,11.319483,1.416861,3.0002408,0.6419785,-3.309545,-2.898561
2.322,11.249336,1.3934546,3.223736,0.56338656,-3.4305909,-2.961022
2.324,11.177394,1.3785806,3.4482334,0.48501801,-3.547093,-3.0191598
2.326,11.1037445,1.3720903,3.6726906,0.40730703,-3.6588032,-3.0734022
2.328,11.028767,1.3735652,3.89638,0.33074105,-3.7653387,-3.1241808
2.33,10.952919,1.382575,4.118574,0.25584483,-3.8662333,-3.1718493
2.332,10.876661,1.3984017,4.338789,0.18312812,-3.9609613,-3.216699
2.334,10.800495,1.4203873,4.5565376,0.11308694,-4.048975,-3.2589269
2.336,10.725165,1.4477563,4.771508,0.046165705,-4.129714,-3.298637
2.338,10.651302,1.4799547,4.9834285,-0.017252445,-4.2026353,-3.335832
2.34,10.579641,1.5161653,5.1922116,-0.07686353,-4.2672644,-3.370419
2.342,10.510548,1.5557542,5.3978233,-0.13245177,-4.323175,-3.402235
2.344,10.4449005,1.5981002,5.6002626,-0.1838324,-4.3700056,-3.4310465
2.346,10.383279,1.6425414,5.7996006,-0.23088622,-4.407459,-3.456595
2.348,10.326116,1.6885476,5.995907,-0.2735405,-4.4353027,-3.478611
2.35,10.273776,1.7356224,6.18929,-0.31175733,-4.453381,-3.4968042
2.352,10.226502,1.783103,6.379763,-0.34554982,-4.4615602,-3.51086
2.354,10.18449,1.8304205,6.567601,-0.37495303,-4.4597635,-3.5204473
2.356,10.1479645,1.8769655,6.7529035,-0.40004206,-4.4479575,-3.5252545
2.358,10.11689,1.9221592,6.9356923,-0.4209497,-4.426143,-3.524977
2.36,10.091098,1.9655566,7.1161566,-0.43783247,-4.394362,-3.5193598
2.362,10.070564,2.0065613,7.2943454,-0.45089602,-4.3526735,-3.508212
2.364,10.054964,2.0445647,7.470277,-0.4603722,-4.3011746,-3.4914596
2.366,10.044113,2.0788703,7.6439466,-0.4664924,-4.239992,-3.4691873
2.368,10.037525,2.1089158,7.8151903,-0.4695065,-4.169305,-3.4416149
2.37,10.03474,2.1339889,7.9838343,-0.46964598,-4.089296,-3.4091187
2.372,10.03526,2.1533957,8.14968,-0.46711624,-4.000151,-3.3722043
2.374,10.038536,2.1664605,8.312443,-0.46207058,-3.9020584,-3.3314562
2.376,10.043896,2.1725588,8.471718,-0.4546286,-3.7951856,-3.2875347
2.378,10.05088,2.170991,8.627178,-0.44482255,-3.6796217,-3.2410793
2.38,10.058844,2.1611257,8.778289,-0.4326383,-3.5553932,-3.192697
2.382,10.067162,2.1425767,8.924425,-0.4180087,-3.4224808,-3.1428947
2.384,10.07538,2.1149015,9.064976,-0.4008193,-3.2807646,-3.0920591
2.386,10.082818,2.0779328,9.199326,-0.3809098,-3.1300848,-3.0404196
2.388,10.089327,2.0316472,9.326905,-0.3581246,-2.9702244,-2.98806
2.39,10.094425,1.976078,9.446914,-0.33229256,-2.8009405,-2.934937
2.392,10.097798,1.9116268,9.558754,-0.30325556,-2.6220164,-2.8808944
2.394,10.099181,1.8386941,9.661734,-0.27087194,-2.4333131,-2.8256779
2.396,10.098406,1.757957,9.755198,-0.23507148,-2.2348237,-2.768928
2.398,10.095382,1.6701798,9.83856,-0.19585371,-2.0267231,-2.7102263
2.4,10.090305,1.5762305,9.911402,-0.15330571,-1.8093779,-2.6490803
2.402,10.083302,1.477097,9.973208,-0.1075964,-1.5833567,-2.5850234
2.404,10.074546,1.3738456,10.023546,-0.058978975,-1.3494012,-2.5176365
2.406,10.064319,1.2676353,10.062309,-0.007785976,-1.1083863,-2.4466074
2.408,10.053021,1.1597166,10.089447,0.04560268,-0.8612639,-2.371808
2.41,10.040993,1.0512662,10.10504,0.10073307,-0.6090168,-2.2933018
2.412,10.028726,0.9434905,10.109252,0.15715787,-0.35261965,-2.2113786
2.414,10.01647,0.83749866,10.102593,0.21441706,-0.09300548,-2.1265378
2.416,10.00475,0.7343569,10.085534,0.27206492,0.16893937,-2.0394914
2.418,9.99387,0.6350589,10.058881,0.32969907,0.4323763,-1.9510897
2.42,9.98425,0.54039574,10.023298,0.38694572,0.696493,-1.8622591
2.422,9.975988,0.45119143,9.979624,0.44347906,0.9604749,-1.7739471
2.424,9.969499,0.3678236,9.928969,0.4990228,1.2234988,-1.6870352
2.426,9.964945,0.29074907,9.872439,0.5533395,1.4847308,-1.6023107
2.428,9.962264,0.22021675,9.81112,0.60623425,1.743357,-1.5204272
2.43,9.961516,0.15668392,9.746209,0.65754443,1.9985815,-1.4418662
2.432,9.962568,0.10011196,9.678803,0.7071298,2.2496505,-1.3669783
2.434,9.965088,0.050683975,9.609917,0.7548767,2.495918,-1.2959816
2.436,9.968931,0.008274078,9.540606,0.8007101,2.7368534,-1.2290099
2.438,9.973751,-0.027106762,9.471644,0.84456533,2.972025,-1.1661407
2.44,9.979072,-0.055705547,9.403777,0.88638765,3.201115,-1.1073916
2.442,9.984506,-0.07762766,9.337575,0.9261465,3.4238791,-1.052735
2.444,9.989609,-0.093019485,9.273678,0.9638119,3.640125,-1.0020931
2.446,9.993876,-0.10209465,9.212331,0.9993407,3.849708,-0.95538706
2.448,9.996941,-0.10514164,9.153783,1.0327142,4.0525165,-0.91250205
2.45,9.998222,-0.10219908,9.098169,1.0639106,4.24843,-0.8733473
2.452,9.997499,-0.09355831,9.045606,1.0928895,4.437334,-0.8377727
2.454,9.994153,-0.079340935,8.995873,1.1196257,4.61908,-0.8056624
2.456,9.988026,-0.059758663,8.948967,1.1440842,4.7935233,-0.7768556
2.458,9.978737,-0.03488922,8.904759,1.1662276,4.9604807,-0.75120366
2.46,9.966105,-0.004725933,8.863089,1.1860206,5.1197786,-0.7285768
2.462,9.950172,0.030656815,8.823891,1.2034168,5.2712393,-0.7088294
2.464,9.93088,0.07129431,8.786858,1.2183819,5.4147043,-0.6918442
2.466,9.908099,0.11699629,8.751825,1.2308611,5.550033,-0.67752516
2.468,9.881804,0.16764975,8.718619,1.2408128,5.677127,-0.66580606
2.47,9.852087,0.22302866,8.686815,1.2482057,5.7959137,-0.6566173
2.472,9.818902,0.28297615,8.656257,1.2530103,5.906374,-0.6499145
2.474,9.782342,0.3472743,8.626797,1.2552247,6.008524,-0.6456624
2.476,9.742548,0.41590357,8.598197,1.2548532,6.1024466,-0.6438297
2.478,9.699696,0.4885702,8.57048,1.2519143,6.188256,-0.6444011
2.48,9.653913,0.56520176,8.543562,1.2464495,6.2661037,-0.64734375
2.482,9.605575,0.64561605,8.517385,1.2385089,6.3361707,-0.6526232
2.484,9.554935,0.7294917,8.491948,1.2281699,6.398693,-0.6602082
2.486,9.502272,0.8165462,8.467172,1.2155128,6.453926,-0.6700492
2.488,9.44795,0.90652394,8.443003,1.2006116,6.5021687,-0.6820736
2.49,9.39235,0.99914885,8.419467,1.1835527,6.543715,-0.696198
2.492,9.335739,1.0938759,8.3966675,1.1644218,6.5788918,-0.71229863
2.494,9.278468,1.1904092,8.374571,1.1432865,6.608013,-0.7302426
2.496,9.220987,1.2882257,8.353092,1.1202099,6.631394,-0.749874
2.498,9.163538,1.3868835,8.332294,1.0952506,6.6493397,-0.7710079
2.5,9.106723,1.485843,8.312199,1.068461,6.6621327,-0.79344773
2.502,9.050958,1.5845602,8.292803,1.0398757,6.670009,-0.81700194
2.504,8.996671,1.6824572,8.274141,1.0095235,6.673161,-0.84146595
2.506,8.944474,1.7791243,8.256285,0.97744167,6.6717377,-0.8666631
2.508,8.894632,1.8741121,8.239348,0.9436359,6.6658406,-0.8924184
2.51,8.847587,1.9668505,8.223248,0.9080952,6.655505,-0.9185773
2.512,8.804049,2.0568516,8.208044,0.8707914,6.640715,-0.94499993
2.514,8.764368,2.1435146,8.193804,0.8316717,6.6213856,-0.9715481
2.516,8.729089,2.2263126,8.180378,0.7906779,6.5974,-0.9980844
2.518,8.698586,2.304573,8.167775,0.7477402,6.568585,-1.024466
2.52,8.6734085,2.3777792,8.155931,0.7027767,6.5347404,-1.0505282
2.522,8.653982,2.4455347,8.144971,0.6556921,6.495635,-1.0761144
2.524,8.640646,2.5072963,8.134719,0.60640544,6.451046,-1.1010942
2.526,8.633619,2.5627213,8.125255,0.5548249,6.400758,-1.1253662
2.528,8.633362,2.6113954,8.116364,0.50086445,6.3445835,-1.1489007
2.53,8.639764,2.6528246,8.108034,0.44444776,6.282364,-1.1717366
2.532,8.653186,2.686529,8.100172,0.38550797,6.2139816,-1.1940122
2.534,8.67346,2.7122998,8.092623,0.32400075,6.1393723,-1.2159152
2.536,8.700477,2.7299824,8.0853815,0.2598917,6.058528,-1.2377157
2.538,8.7339735,2.7393498,8.078206,0.19318688,5.971532,-1.2597233
2.54,8.7736635,2.7401447,8.070731,0.12392381,5.878573,-1.2822384
2.542,8.81896,2.7325368,8.062764,0.052191883,5.779915,-1.3055226
2.544,8.86934,2.7167804,8.05394,-0.021895021,5.675956,-1.3297483
2.546,8.92422,2.6931214,8.04383,-0.098175675,5.5671864,-1.3549644
2.548,8.983061,2.6618624,8.031965,-0.1764417,5.454232,-1.3810823
2.55,9.045128,2.6236055,8.017751,-0.25644943,5.337852,-1.407876
2.552,9.109565,2.579036,8.000718,-0.337919,5.218961,-1.4350024
2.554,9.175427,2.529005,7.980021,-0.4205692,5.0986247,-1.4620258
2.556,9.242125,2.474434,7.955167,-0.5040972,4.978055,-1.488446
2.558,9.30859,2.4165,7.9254084,-0.5881982,4.858563,-1.5137057
2.56,9.373971,2.356304,7.890075,-0.67258435,4.741524,-1.5372055
2.562,9.4374695,2.29512,7.848435,-0.75697494,4.6283145,-1.5582849
2.564,9.498506,2.234137,7.799839,-0.8410938,4.5202785,-1.5762625
2.566,9.556042,2.174648,7.743675,-0.92471623,4.4186587,-1.590454
2.568,9.609582,2.1179426,7.6793303,-1.0076705,4.3245335,-1.600228
2.57,9.6584015,2.0652304,7.6063566,-1.0898287,4.238757,-1.6049657
2.572,9.701932,2.0177877,7.524378,-1.1710957,4.161986,-1.6041173
2.574,9.739795,1.9766285,7.4331045,-1.2514122,4.094652,-1.5972769
2.576,9.771413,1.9428914,7.3325453,-1.330802,4.036962,-1.5842112
2.578,9.7965765,1.9175301,7.222557,-1.4093506,3.9888668,-1.5648415
2.58,9.814904,1.9013338,7.1034102,-1.487188,3.9501472,-1.5392531
2.582,9.826149,1.8949437,6.9751945,-1.5645064,3.9204502,-1.5076809
2.584,9.83016,1.8990239,6.8382664,-1.6415411,3.8993046,-1.4705029
2.586,9.826739,1.9139441,6.6930203,-1.7185795,3.8861895,-1.4281701
2.588,9.815619,1.9399854,6.539999,-1.795911,3.8805299,-1.3811766
2.59,9.79692,1.977394,6.3798113,-1.8738232,3.881711,-1.3299984
2.592,9.770371,2.0262156,6.2131214,-1.9525957,3.889078,-1.2750599
2.594,9.7359085,2.0865586,6.040636,-2.0324728,3.90196,-1.2167239
2.596,9.693515,2.1583862,5.8631124,-2.1136782,3.9196842,-1.1552827
2.598,9.643147,2.241621,5.6812983,-2.1963794,3.9415324,-1.0909351
2.6,9.58465,2.3362136,5.495755,-2.280704,3.966742,-1.0238305
2.602,9.518093,2.442029,5.3069744,-2.3667467,3.9944916,-0.95405793
2.604,9.443269,2.5590348,5.115508,-2.4545827,4.0239034,-0.8816953
2.606,9.360123,2.6870499,4.921703,-2.5442681,4.0540557,-0.8068063
2.608,9.268697,2.8258848,4.725882,-2.6358228,4.083958,-0.7294686
2.61,9.169013,2.9754717,4.5282626,-2.7292879,4.1126432,-0.6497872
2.612,9.061086,3.1355069,4.32892,-2.8246908,4.139142,-0.5679356
2.614,8.945112,3.3057237,4.127841,-2.9220643,4.162509,-0.48414707
2.616,8.821088,3.4856348,3.9248762,-3.02144,4.1818476,-0.3986956
2.618,8.68939,3.674885,3.719716,-3.122857,4.1963077,-0.3119098
2.62,8.549948,3.8731313,3.5120788,-3.2263246,4.205088,-0.22411323
2.622,8.402859,4.079961,3.3015895,-3.3318446,4.2074895,-0.13566041
2.624,8.248365,4.2949414,3.0878346,-3.4394112,4.202893,-0.046961308
2.626,8.086744,4.517477,2.8704357,-3.5490155,4.1907344,0.041564107
2.628,7.9182043,4.746995,2.6488807,-3.6606266,4.170532,0.12950397
2.63,7.743332,4.9826765,2.4228244,-3.774151,4.141892,0.21644843
2.632,7.562516,5.223632,2.1917863,-3.8895044,4.104518,0.30195975
2.634,7.3765116,5.468925,1.9556059,-4.0066023,4.0581455,0.38557565
2.636,7.1860085,5.7173605,1.7140332,-4.1253586,4.002551,0.46684122
2.638,6.991715,5.9678926,1.4672468,-4.245704,3.93755,0.5453538
2.64,6.794757,6.219431,1.2153907,-4.3675814,3.8629622,0.62071395
2.642,6.5958586,6.4705877,0.9588033,-4.4909596,3.778625,0.6925492
2.644,6.3961797,6.7200336,0.6980829,-4.6158113,3.684369,0.7605709
2.646,6.1968594,6.9662,0.43390918,-4.7421193,3.5800242,0.8245394
2.648,5.9989963,7.207782,0.16739655,-4.869872,3.4654472,0.8842577
2.65,5.803607,7.4433355,-0.100314856,-4.999039,3.3405435,0.9396069
2.652,5.6119194,7.6713853,-0.3678875,-5.1295557,3.2052808,0.99049497
2.654,5.4250207,7.8903975,-0.63378596,-5.2613177,3.0597582,1.0368812
2.656,5.2438836,8.099167,-0.8963561,-5.394159,2.9041991,1.0787923
2.658,5.069291,8.296571,-1.153825,-5.5278263,2.738954,1.1163049
2.66,4.9022174,8.48145,-1.4044299,-5.662019,2.5644948,1.1495649
2.662,4.7433906,8.652784,-1.646502,-5.7963653,2.3814564,1.1787863
2.664,4.5936613,8.809687,-1.8781774,-5.9304466,2.1905458,1.2042484
2.666,4.453374,8.951477,-2.0978324,-6.063834,1.992568,1.2263247
2.668,4.323243,9.077532,-2.3037827,-6.1961026,1.7883786,1.2454529
2.67,4.2036376,9.187548,-2.4944768,-6.3268414,1.5788914,1.2621082
2.672,4.0946107,9.281342,-2.6685889,-6.4556723,1.3650197,1.2768066
2.674,3.9963326,9.358834,-2.8248122,-6.582247,1.1477088,1.2900527
2.676,3.9089756,9.41989,-2.9622252,-6.7062497,0.9279375,1.302319
2.678,3.832484,9.464506,-3.0795643,-6.827388,0.70669806,1.313984
2.68,3.7667272,9.493863,-3.1764855,-6.94535,0.48502743,1.325335
2.682,3.711268,9.508448,-3.2526305,-7.0597954,0.26403034,1.3365531
2.684,3.665803,9.50862,-3.3076599,-7.170358,0.04484892,1.3477056
2.686,3.6301022,9.494978,-3.341714,-7.2766027,-0.17132354,1.3587663
2.688,3.603443,9.468235,-3.354832,-7.3780484,-0.38324654,1.3696668
2.69,3.5853333,9.429424,-3.3476467,-7.4741426,-0.5896473,1.3802857
2.692,3.5749986,9.379611,-3.3206944,-7.564312,-0.7892412,1.3905356
2.694,3.5715406,9.319822,-3.274923,-7.647964,-0.98072946,1.4003679
2.696,3.5740168,9.251313,-3.2115057,-7.7245083,-1.162844,1.4098104
2.698,3.5814483,9.175393,-3.1318421,-7.793358,-1.3343418,1.4189674
2.7,3.5925982,9.093316,-3.0375066,-7.853972,-1.4940573,1.4280293
2.702,3.6062863,9.006595,-2.930171,-7.9058285,-1.6409304,1.437265
2.704,3.621244,8.916703,-2.8118272,-7.9484916,-1.7740281,1.4469504
2.706,3.6360033,8.825018,-2.6844811,-7.9815474,-1.8925889,1.4574044
2.708,3.649063,8.73309,-2.5503106,-8.004796,-1.9960539,1.4691539
2.71,3.659042,8.642288,-2.4115815,-8.018095,-2.0839763,1.4825914
2.712,3.6643834,8.554052,-2.270545,-8.021371,-2.1561725,1.4979702
2.714,3.6636798,8.46964,-2.12941,-8.014625,-2.2126465,1.5155292
2.716,3.6554487,8.390316,-1.9903963,-7.9979606,-2.25362,1.5354888
2.718,3.6382248,8.317308,-1.8558114,-7.971565,-2.2794864,1.5579889
2.72,3.610728,8.251601,-1.7276812,-7.9357185,-2.2908187,1.5830939
2.722,3.5717287,8.19397,-1.6080678,-7.890801,-2.2882924,1.6107883
2.724,3.5203068,8.14501,-1.4987168,-7.8372707,-2.2727122,1.6409693
2.726,3.455694,8.105153,-1.4012852,-7.77566,-2.244957,1.6734629
2.728,3.377129,8.074475,-1.31692,-7.7065234,-2.2059627,1.7079923
2.73,3.2844813,8.052974,-1.2468243,-7.630444,-2.156742,1.7442079
2.732,3.17744,8.040281,-1.1916654,-7.5479817,-2.098351,1.781709
2.734,3.0562353,8.035768,-1.1519299,-7.459688,-2.0319042,1.8200388
2.736,2.9209936,8.038763,-1.1278543,-7.3660665,-1.9585905,1.8587456
2.738,2.7722495,8.048353,-1.1191611,-7.2675605,-1.8796722,1.8973984
2.74,2.6105433,8.0634775,-1.1254504,-7.164578,-1.7964454,1.9356107
2.742,2.4366612,8.0831,-1.1460283,-7.0575004,-1.7102394,1.9730517
2.744,2.2517104,8.105967,-1.1798867,-6.9466643,-1.6223668,2.0094385
2.746,2.0567331,8.130873,-1.2258193,-6.8323956,-1.5340993,2.044518
2.748,1.853191,8.156392,-1.2825725,-6.7149725,-1.4466068,2.0780563
2.75,1.6425295,8.181094,-1.3486632,-6.594676,-1.3609297,2.109827
2.752,1.4262445,8.203732,-1.4224441,-6.471731,-1.2779667,2.1395602
2.754,1.2060364,8.222904,-1.5024877,-6.346299,-1.1984441,2.167008
2.756,0.9836086,8.237323,-1.587074,-6.2185173,-1.1228867,2.1919053
2.758,0.76047575,8.24587,-1.6745988,-6.0884533,-1.0516391,2.214017
2.76,0.5384372,8.247413,-1.7634281,-5.95612,-0.98483837,2.2330582
2.762,0.31883144,8.240961,-1.852255,-5.8213983,-0.92245924,2.2486572
2.764,0.10303155,8.225962,-1.9397821,-5.6842356,-0.8643347,2.2606695
2.766,-0.10782353,8.201816,-2.0248785,-5.544594,-0.81009555,2.2690394
2.768,-0.31258562,8.16813,-2.1066859,-5.4024367,-0.7592759,2.2736878
2.77,-0.5104502,8.124872,-2.1845005,-5.257757,-0.71131766,2.274582
2.772,-0.7006343,8.072041,-2.2577682,-5.110566,-0.6656308,2.271792
2.774,-0.88281715,8.009957,-2.326305,-4.960919,-0.62160563,2.2655072
2.776,-1.0567414,7.9391384,-2.3901286,-4.8089294,-0.5786866,2.2560153
2.778,-1.2223108,7.860221,-2.4494922,-4.654756,-0.53636265,2.2437112
2.78,-1.3797387,7.7740765,-2.504936,-4.498639,-0.4942015,2.2290938
2.782,-1.5294199,7.6817093,-2.5569522,-4.3408623,-0.4518656,2.2127218
2.784,-1.6720519,7.5844555,-2.6062746,-4.1817536,-0.40912256,2.1951907
2.786,-1.8083621,7.483883,-2.6538134,-4.0216856,-0.3658047,2.1770914
2.788,-1.9393115,7.381394,-2.7007675,-3.8610528,-0.32183108,2.1589637
2.79,-2.0658975,7.2777867,-2.747701,-3.7002573,-0.27717555,2.1412482
2.792,-2.18898,7.174727,-2.7955317,-3.5397081,-0.23187226,2.1242926
2.794,-2.3096695,7.074028,-2.8453298,-3.3798096,-0.18603393,2.108325
2.796,-2.4292507,6.9771566,-2.8978333,-3.2209415,-0.13983923,2.0934658
2.798,-2.5485668,6.8854055,-2.953784,-3.063458,-0.09353042,2.079737
2.8,-2.6686444,6.7997584,-3.013563,-2.9076695,-0.047421396,2.0670862
2.802,-2.7904766,6.721252,-3.0775692,-2.7538788,-0.0018998832,2.0554433
2.804,-2.9147196,6.650592,-3.1459813,-2.602345,0.0425867,2.0446918
2.806,-3.0420856,6.588389,-3.2185698,-2.4533155,0.08555345,2.0347366
2.808,-3.1729467,6.5348873,-3.2951193,-2.3070028,0.12650326,2.0254679
2.81,-3.3078601,6.4902706,-3.3752077,-2.163597,0.16492814,2.0167797
2.812,-3.446964,6.454382,-3.4582164,-2.0232716,0.20038183,2.008555
2.814,-3.590317,6.4268813,-3.5432546,-1.8861904,0.2324886,2.0006492
2.816,-3.7376623,6.40734,-3.6294384,-1.7524582,0.26098585,1.992858
2.818,-3.8888376,6.3950973,-3.7157469,-1.622141,0.28572407,1.9849174
2.82,-4.043293,6.389226,-3.801041,-1.4952753,0.3066945,1.976523
2.822,-4.200458,6.388788,-3.8842347,-1.3718544,0.32401276,1.9673309
2.824,-4.359654,6.3926945,-3.964361,-1.2518352,0.3379035,1.956991
2.826,-4.5202055,6.399918,-4.040236,-1.1351576,0.3486756,1.945195
2.828,-4.6812606,6.409301,-4.110827,-1.0217375,0.356713,1.9316719
2.83,-4.8420544,6.4196825,-4.1751914,-0.91148645,0.36243266,1.9162413
2.832,-5.00142,6.4301443,-4.2325273,-0.80432475,0.366287,1.8987917
2.834,-5.1586328,6.4396987,-4.2821975,-0.7001691,0.36871737,1.8792738
2.836,-5.3126454,6.4473624,-4.323588,-0.5989703,0.3701881,1.8577309
2.838,-5.4625554,6.452454,-4.356396,-0.5006704,0.37116227,1.8342575
2.84,-5.607655,6.454273,-4.3803287,-0.40521982,0.37206894,1.8089762
2.842,-5.7470274,6.4523354,-4.395526,-0.3125634,0.37334016,1.7820562
2.844,-5.8800993,6.44631,-4.4021497,-0.22265954,0.37538362,1.7536792
2.846,-6.0061655,6.4359164,-4.40046,-0.13545087,0.37857723,1.7240413
2.848,-6.12473,6.4210577,-4.391016,-0.05087358,0.3832519,1.6933516
2.85,-6.2353897,6.401705,-4.374485,0.031136613,0.3896884,1.6618091
2.852,-6.3377366,6.377946,-4.351559,0.11062457,0.39810494,1.6296213
2.854,-6.431706,6.350038,-4.3230104,0.18763252,0.4086376,1.5969791
2.856,-6.517184,6.3183002,-4.289671,0.262203,0.42136383,1.5640453
2.858,-6.5942607,6.2833023,-4.2524805,0.33435398,0.43626755,1.5309801
2.86,-6.6630583,6.2454233,-4.212219,0.40408662,0.45325363,1.4978942
2.862,-6.723673,6.2053313,-4.1698537,0.47140265,0.47216213,1.464867
2.864,-6.7764916,6.163507,-4.1260653,0.5362931,0.49276814,1.4319568
2.866,-6.8219857,6.120572,-4.0817738,0.5987398,0.5147802,1.3991847
2.868,-6.8602753,6.0770245,-4.0377283,0.65872335,0.53786427,1.3665528
2.87,-6.891908,6.0333905,-3.9945931,0.7162218,0.561652,1.3340421
2.872,-6.9172273,5.9902253,-3.9528563,0.7712123,0.58575773,1.30161
2.874,-6.936698,5.9478703,-3.9130476,0.8236858,0.6097984,1.2691913
2.876,-6.9508243,5.9066367,-3.8754735,0.8736352,0.63340163,1.236707
2.878,-6.9604673,5.867233,-3.840949,0.9210795,0.6562145,1.2040873
2.88,-6.9658966,5.829626,-3.8092265,0.9660407,0.6779181,1.1712658
2.882,-6.9676375,5.794136,-3.7804565,1.008553,0.69822055,1.1381843
2.884,-6.9661794,5.7609444,-3.754576,1.0486737,0.7168953,1.1048055
2.886,-6.962019,5.730243,-3.7315593,1.0864719,0.7337586,1.071098
2.888,-6.9557056,5.7021346,-3.711276,1.122025,0.74868864,1.0370551
2.89,-6.947588,5.6766863,-3.6935284,1.1554303,0.7615897,1.0026766
2.892,-6.9379616,5.6538653,-3.6781602,1.1867774,0.7724279,0.96798325
2.894,-6.927134,5.6335573,-3.664958,1.2161695,0.7812164,0.93299633
2.896,-6.915419,5.6156626,-3.6536245,1.243709,0.78799564,0.8977341
2.898,-6.9031057,5.6001225,-3.6439414,1.2695142,0.79283386,0.8622275
2.9,-6.890407,5.5867233,-3.635723,1.2937107,0.7958116,0.82651585
2.902,-6.877628,5.575346,-3.6287131,1.316408,0.7970205,0.7906387
2.904,-6.8649573,5.5658917,-3.6226816,1.337733,0.7965476,0.75464827
2.906,-6.8524456,5.558144,-3.6174672,1.3572747,0.7948289,0.71986234
2.908,-6.840274,5.5519433,-3.6129084,1.3754454,0.7918439,0.68573934
2.91,-6.8285494,5.5471582,-3.608879,1.3922848,0.7877671,0.65256757
2.912,-6.8172197,5.543565,-3.605257,1.4078189,0.7828052,0.62064654
2.914,-6.8064857,5.5410852,-3.6019423,1.4220687,0.77717125,0.59026384
2.916,-6.796294,5.5394797,-3.598879,1.4350466,0.77107775,0.5616784
2.918,-6.786816,5.538703,-3.5959804,1.4467881,0.76473486,0.53508544
2.92,-6.777858,5.538579,-3.5931494,1.4573402,0.75833696,0.5106115
2.922,-6.769504,5.5390162,-3.5903718,1.4667633,0.7520457,0.4882989
2.924,-6.7617073,5.539964,-3.5876608,1.4751277,0.7459814,0.46811956
2.926,-6.754583,5.5413356,-3.584969,1.4825236,0.740234,0.44998518
2.928,-6.7478523,5.5429335,-3.5823221,1.4890469,0.7348556,0.4337774
