Time_s_,Acc_x_m_s_2_,Acc_y_m_s_2_,Acc_z_m_s_2_,Gyro_x_1_s_,Gyro_y_1_s_,Gyro_z_1_s_
0,0.6036832,-0.17147636,0.6011325,-0.10641763,0.050082337,0.24644461
0.002,0.6047065,-0.17053254,0.6017124,-0.106163695,0.049833033,0.24496676
0.004,0.60645473,-0.1697471,0.602667,-0.105850816,0.049218982,0.24381323
0.006,0.60882604,-0.16910715,0.6045964,-0.105458304,0.04816243,0.24309665
0.008,0.611759,-0.16865033,0.6073188,-0.104958005,0.04657024,0.24293907
0.01,0.615542,-0.16833942,0.6105933,-0.10432167,0.04438,0.24345936
0.012,0.6200397,-0.16812956,0.6138762,-0.103520624,0.041564625,0.244741
0.014,0.6254238,-0.16812731,0.6168711,-0.102523685,0.038150642,0.24681255
0.016,0.6316239,-0.16832447,0.6192235,-0.10130467,0.03420876,0.24963698
0.018,0.638836,-0.16855955,0.6208035,-0.09984775,0.02987881,0.25308782
0.02,0.6470603,-0.16893174,0.6215677,-0.098157905,0.025360063,0.25697303
0.022,0.6563742,-0.1697347,0.6216894,-0.09624973,0.020923316,0.26105583
0.024,0.6668053,-0.17115152,0.62104785,-0.09416874,0.016877837,0.26510417
0.026,0.6780794,-0.17318255,0.6196785,-0.09198797,0.013547599,0.26891306
0.028,0.6903252,-0.1759034,0.6173906,-0.08980582,0.011203729,0.27235183
0.03,0.7031617,-0.17925134,0.61388946,-0.08778838,0.010147609,0.27542126
0.032,0.7163384,-0.18316141,0.60883933,-0.086093634,0.010577649,0.2782203
0.034,0.7297143,-0.18759099,0.6018143,-0.084872186,0.012562066,0.2809505
0.036,0.74288684,-0.19237995,0.5924953,-0.08426114,0.016067281,0.28387493
0.038,0.75568473,-0.19748245,0.58068866,-0.0843736,0.020974219,0.28726006
0.04,0.7676953,-0.20271716,0.56629765,-0.085316494,0.027056612,0.29135492
0.042,0.7783964,-0.2078091,0.54963714,-0.0871551,0.033993267,0.29636016
0.044,0.7873869,-0.21258058,0.53125465,-0.08992001,0.041386504,0.3024056
0.046,0.79434526,-0.21681029,0.51146,-0.093564466,0.04881346,0.30951646
0.048,0.7989654,-0.220532,0.49040216,-0.09798132,0.055907905,0.31763405
0.05,0.80080307,-0.22363213,0.46814844,-0.10297371,0.062348448,0.32661253
0.052,0.79976887,-0.22603136,0.44521123,-0.10830105,0.0678879,0.33623612
0.054,0.79568535,-0.2275873,0.42205018,-0.113687836,0.072352424,0.34625226
0.056,0.78859156,-0.22820407,0.39885306,-0.11884765,0.07567603,0.35645217
0.058,0.7784384,-0.2278262,0.3762556,-0.12353149,0.07784944,0.36664605
0.06,0.7653264,-0.22645868,0.3546739,-0.1275266,0.07892464,0.37666428
0.062,0.7491922,-0.2240105,0.3345427,-0.13066371,0.079014525,0.38638303
0.064,0.7303269,-0.22030804,0.31648633,-0.13282926,0.07826034,0.39570525
0.066,0.70934266,-0.21546878,0.301094,-0.13395706,0.076857075,0.40462396
0.068,0.68649447,-0.20965403,0.28868616,-0.13400479,0.07508697,0.41323683
0.07,0.66232574,-0.2030188,0.2794158,-0.1329608,0.07332687,0.4216982
0.072,0.6373231,-0.19574027,0.2736142,-0.13082287,0.07201853,0.43022785
0.074,0.61208355,-0.18821128,0.27128828,-0.12760058,0.07167957,0.43904728
0.076,0.5872024,-0.18080457,0.27233705,-0.123362735,0.072825685,0.44839886
0.078,0.56321305,-0.17351899,0.27647048,-0.11820738,0.07591249,0.45848268
0.08,0.5408928,-0.16665114,0.28358504,-0.112229906,0.081289805,0.46940744
0.082,0.5212436,-0.16079387,0.29358923,-0.105519146,0.08915003,0.48114198
0.084,0.50528497,-0.15614568,0.30612904,-0.09817947,0.09950387,0.49347565
0.086,0.49452555,-0.15337013,0.3206539,-0.090350494,0.11215367,0.50603914
0.088,0.4885567,-0.15229943,0.3370602,-0.0821622,0.12672816,0.5183256
0.09,0.48694795,-0.1522977,0.35596207,-0.07374467,0.1427185,0.52973735
0.092,0.4908895,-0.15350814,0.37630963,-0.06524286,0.15951894,0.53969437
0.094,0.5010079,-0.15639982,0.39739698,-0.056803953,0.17649287,0.54767424
0.096,0.5172979,-0.16112913,0.4185746,-0.04862095,0.19304971,0.55326563
0.098,0.5400046,-0.16784261,0.43988734,-0.040927142,0.20864505,0.55626553
0.1,0.56912154,-0.17645827,0.4623301,-0.033985876,0.22278617,0.5566843
0.102,0.6043872,-0.18705377,0.48644266,-0.028053898,0.23501787,0.5547608
0.104,0.6450885,-0.19922397,0.51207614,-0.02338427,0.244942,0.55088735
0.106,0.6909142,-0.2129871,0.53917384,-0.020156931,0.25220197,0.545599
0.108,0.7413006,-0.22822377,0.5675446,-0.018490579,0.25650102,0.5395019
0.11,0.79519963,-0.24421626,0.59731126,-0.018410724,0.25761774,0.53316855
0.112,0.851879,-0.2604381,0.6283666,-0.019835867,0.25544447,0.5271035
0.114,0.91051483,-0.27636024,0.66061294,-0.022587597,0.2500547,0.5217396
0.116,0.9703299,-0.29157662,0.6937957,-0.026408706,0.2417225,0.51743746
0.118,1.0305018,-0.30577067,0.72833884,-0.031074755,0.23079994,0.5144876
0.12,1.0900505,-0.31865677,0.76444405,-0.03632704,0.21787553,0.5130685
0.122,1.1482716,-0.33003718,0.8020883,-0.041925427,0.20374954,0.5132673
0.124,1.2043172,-0.33954138,0.84073645,-0.047620747,0.18924496,0.51511115
0.126,1.2576119,-0.34706992,0.87964153,-0.053060014,0.17527053,0.5186138
0.128,1.3076962,-0.3526939,0.9175492,-0.057796538,0.16279025,0.523766
0.13,1.3543762,-0.35600668,0.95298815,-0.061377835,0.15275434,0.530483
0.132,1.3974144,-0.3567507,0.9843441,-0.06342318,0.14605395,0.5385792
0.134,1.4368036,-0.35471377,1.0102,-0.06363049,0.1434702,0.5477502
0.136,1.472831,-0.34979028,1.0289797,-0.061739124,0.1456311,0.5575828
0.138,1.5055127,-0.34194875,1.0392417,-0.057488635,0.15303676,0.5676575
0.14,1.5355304,-0.33115095,1.039598,-0.05066269,0.16603059,0.57758075
0.142,1.5634754,-0.3174141,1.0287966,-0.041093558,0.18484047,0.58704627
0.144,1.5897075,-0.30059496,1.0056775,-0.028680058,0.20954692,0.5958792
0.146,1.6147628,-0.28064737,0.9692012,-0.013385307,0.24011633,0.60407585
0.148,1.6391125,-0.25743634,0.9185548,0.004751552,0.27635956,0.61186093
0.15,1.6633681,-0.23089314,0.8530049,0.025601298,0.3178612,0.61964875
0.152,1.6878995,-0.200952,0.77208483,0.048910007,0.36394155,0.6279307
0.154,1.7129495,-0.16747665,0.67554176,0.07424907,0.41359296,0.63722026
0.156,1.7385547,-0.13032097,0.5640229,0.101043805,0.4654297,0.6479268
0.158,1.7648535,-0.08920568,0.438576,0.12862201,0.5177586,0.6603234
0.16,1.7917777,-0.04399687,0.30061993,0.1562476,0.5686175,0.6744214
0.162,1.8191695,0.0052652955,0.15128657,0.1831929,0.6158999,0.6900158
0.164,1.8468181,0.058463633,-0.0077997595,0.20878924,0.6575333,0.7067138
0.166,1.8745648,0.11547428,-0.17490056,0.23251924,0.69170254,0.72400355
0.168,1.9020152,0.17598784,-0.34807286,0.25404176,0.7170086,0.7412912
0.17,1.9290258,0.23982894,-0.5254502,0.27325767,0.7326342,0.75799495
0.172,1.9552984,0.3067152,-0.70531094,0.29037786,0.73851794,0.7736701
0.174,1.9806366,0.3761847,-0.8860899,0.30576342,0.73514694,0.7880322
0.176,2.0048804,0.44771004,-1.066375,0.31996316,0.7235699,0.8009994
0.178,2.0278606,0.5209896,-1.2444825,0.33359718,0.7054075,0.8126423
0.18,2.0493255,0.5955436,-1.4188462,0.34725142,0.6824986,0.82311326
0.182,2.0694442,0.67080474,-1.5883172,0.36148176,0.65670884,0.8326216
0.184,2.0879898,0.74640846,-1.7517297,0.37683058,0.62982196,0.84140915
0.186,2.105137,0.82194185,-1.9081415,0.39374438,0.6033742,0.8497275
0.188,2.1207805,0.8968961,-2.0568147,0.41247058,0.57855123,0.85780203
0.19,2.1348286,0.9709066,-2.197264,0.4330358,0.55612487,0.865787
0.192,2.1472569,1.0436616,-2.3291178,0.45522955,0.53641945,0.8737231
0.194,2.1578798,1.1148654,-2.4521463,0.47870007,0.5193643,0.88158995
0.196,2.1664004,1.1845295,-2.5659552,0.50296926,0.50453466,0.88936114
0.198,2.1739628,1.2521468,-2.6707342,0.5275204,0.49127612,0.89703214
0.2,2.1814256,1.3169887,-2.7671776,0.5518116,0.478768,0.90461266
0.202,2.1877015,1.379351,-2.854156,0.5753385,0.46615028,0.9121387
0.204,2.1925874,1.4398263,-2.9313176,0.5976591,0.4526446,0.9196644
0.206,2.1960921,1.4986475,-2.9985015,0.6184299,0.4376024,0.92730844
0.208,2.198196,1.5560875,-3.056194,0.6374184,0.42056084,0.9352048
0.21,2.1988955,1.6121877,-3.1053345,0.654487,0.4012593,0.9435203
0.212,2.198152,1.6671286,-3.1462755,0.66956556,0.37957838,0.9524028
0.214,2.1959684,1.7208886,-3.1787124,0.68264484,0.3555415,0.962
0.216,2.1919577,1.7737129,-3.2024689,0.693745,0.32925725,0.97242385
0.218,2.1859975,1.8259145,-3.2172372,0.70292836,0.30087447,0.9837771
0.22,2.1779914,1.8775957,-3.2229223,0.7102504,0.27052212,0.9961096
0.222,2.1678557,1.9288936,-3.2195404,0.715782,0.23830408,1.0094433
0.224,2.155657,1.9799492,-3.2074273,0.7195989,0.20431322,1.023743
0.226,2.1411738,2.0308902,-3.1870558,0.72177446,0.16863103,1.0389305
0.228,2.124196,2.0819173,-3.159126,0.72241277,0.13138959,1.0549372
0.23,2.104772,2.1330242,-3.1241307,0.7216165,0.09275623,1.0716746
0.232,2.0828075,2.1843722,-3.0824594,0.71952975,0.052962944,1.0890828
0.234,2.0582833,2.2360978,-3.0345695,0.71632165,0.012354001,1.1071447
0.236,2.031002,2.2884796,-2.9809935,0.71218884,-0.028626114,1.1258658
0.238,2.0009353,2.341731,-2.9223228,0.7073504,-0.06944526,1.145274
0.24,1.9677267,2.3958948,-2.8593516,0.7020183,-0.10951308,1.1654371
0.242,1.9312017,2.451281,-2.792791,0.6963931,-0.14823775,1.186461
0.244,1.8912884,2.5080512,-2.7231612,0.69064164,-0.18505947,1.208453
0.246,1.8482549,2.566484,-2.6516957,0.68491733,-0.21951275,1.2315042
0.248,1.8020722,2.6268773,-2.5794544,0.67933077,-0.2512763,1.2556837
0.25,1.7524099,2.6892817,-2.506478,0.67393875,-0.28018388,1.2810317
0.252,1.6992333,2.7539978,-2.4331346,0.6687592,-0.30625123,1.3075446
0.254,1.6428828,2.8212378,-2.3598146,0.6637922,-0.32967383,1.3351717
0.256,1.5837473,2.8912275,-2.2867243,0.6590185,-0.35081115,1.3638182
0.258,1.5219247,2.9642653,-2.2141204,0.6544096,-0.37016186,1.3933933
0.26,1.4577074,3.040562,-2.1419935,0.649966,-0.38827977,1.4238027
0.262,1.3915613,3.1204083,-2.070645,0.6456998,-0.40574118,1.4549792
0.264,1.3240025,3.2038617,-2.0002592,0.64164567,-0.42303753,1.4868884
0.266,1.255653,3.2910516,-1.9310153,0.6378876,-0.44051552,1.5195642
0.268,1.1870576,3.3821063,-1.8633821,0.63454175,-0.45831382,1.5530703
0.27,1.1190612,3.476987,-1.7979095,0.6317594,-0.47635162,1.5875177
0.272,1.0521967,3.5757456,-1.734935,0.6297108,-0.49434787,1.6230745
0.274,0.9873425,3.67831,-1.675134,0.6285869,-0.5117764,1.6599728
0.276,0.9249939,3.7844748,-1.6190903,0.62863064,-0.52792025,1.6984414
0.278,0.86587,3.8941045,-1.5675876,0.63009375,-0.54207516,1.7386581
0.28,0.8105459,4.006921,-1.5211258,0.6332087,-0.55357456,1.7807616
0.282,0.75948,4.1226416,-1.4805257,0.63815325,-0.561848,1.8248565
0.284,0.71302986,4.2408233,-1.4464288,0.6450068,-0.5665536,1.870983
0.286,0.6715679,4.361144,-1.4194987,0.65374196,-0.5676712,1.9190738
0.288,0.63553524,4.4829884,-1.400626,0.66421294,-0.5655067,1.9689589
0.29,0.6051836,4.6060276,-1.3904157,0.67614114,-0.5606406,2.0204074
0.292,0.5803361,4.729809,-1.3890221,0.68912905,-0.55391073,2.0731118
0.294,0.5606303,4.8540087,-1.3965214,0.70271003,-0.5463132,2.1267219
0.296,0.54580355,4.978128,-1.4127324,0.71636593,-0.5388947,2.1808748
0.298,0.53545,5.1018915,-1.4373854,0.72956973,-0.5326272,2.2352355
0.3,0.52900267,5.224874,-1.4700543,0.74179006,-0.52836764,2.289517
0.302,0.5256269,5.3469977,-1.5105597,0.75256616,-0.5267975,2.3434649
0.304,0.5245385,5.467826,-1.5582819,0.76150846,-0.5283792,2.396881
0.306,0.5247958,5.58724,-1.6121356,0.7682978,-0.5333922,2.4496393
0.308,0.52505326,5.7050524,-1.6710181,0.7726946,-0.5419761,2.5016568
0.31,0.52416897,5.8210917,-1.7340851,0.77452946,-0.55416554,2.5528605
0.312,0.52105856,5.93532,-1.8005507,0.7737275,-0.5699692,2.6031404
0.314,0.51453424,6.047804,-1.8696381,0.7702638,-0.5894686,2.652306
0.316,0.5035193,6.158675,-1.9402086,0.7641703,-0.6128442,2.7001023
0.318,0.48630476,6.2682686,-2.0107317,0.75549763,-0.640414,2.7461805
0.32,0.46141958,6.37718,-2.0797968,0.7443048,-0.6726459,2.7901058
0.322,0.42726278,6.4859924,-2.1456413,0.73063445,-0.71015364,2.8313692
0.324,0.38227105,6.5952272,-2.2062776,0.7144968,-0.7536236,2.8694022
0.326,0.3250153,6.7053394,-2.260436,0.695816,-0.8037545,2.9036105
0.328,0.25401592,6.816883,-2.307102,0.6744428,-0.86124146,2.9334354
0.33,0.16810656,6.930237,-2.345499,0.6501443,-0.9267364,2.9583974
0.332,0.06620169,7.04613,-2.374425,0.6226693,-1.000681,2.978131
0.334,-0.05257392,7.1651735,-2.3924794,0.5917682,-1.0833938,2.9923656
0.336,-0.18903351,7.2879534,-2.3982778,0.5572059,-1.175102,3.0008917
0.338,-0.3439777,7.4151835,-2.3904552,0.51877844,-1.2758069,3.0035782
0.34,-0.5175841,7.547226,-2.3675506,0.47630286,-1.3852997,3.000354
0.342,-0.70972824,7.684003,-2.3277957,0.42963147,-1.5032314,2.991134
0.344,-0.9199903,7.8250046,-2.2693796,0.37874317,-1.6291568,2.9757907
0.346,-1.1474113,7.9697857,-2.1903563,0.32372975,-1.762545,2.9541295
0.348,-1.3909261,8.11741,-2.0894794,0.26477826,-1.9027545,2.9258554
0.35,-1.6486361,8.266421,-1.965444,0.20219123,-2.0490441,2.8905382
0.352,-1.9182055,8.415035,-1.8167069,0.13636577,-2.200597,2.847651
0.354,-2.1969733,8.561258,-1.6426083,0.06777239,-2.3564277,2.7966125
0.356,-2.4821465,8.702967,-1.4423903,-0.0030573606,-2.51541,2.7368593
0.358,-2.7701747,8.8375,-1.2158482,-0.075475335,-2.6762915,2.6678488
0.36,-3.0567572,8.961648,-0.96467435,-0.14873123,-2.8375847,2.589111
0.362,-3.3379893,9.071717,-0.69079685,-0.22197199,-2.9975314,2.5002887
0.364,-3.6093788,9.163674,-0.39612603,-0.29425418,-3.1541128,2.4012008
0.366,-3.8706276,9.235103,-0.08334607,-0.36453593,-3.3050094,2.2918768
0.368,-4.1148806,9.281248,0.24537629,-0.43167615,-3.4475584,2.1725564
0.37,-4.3344493,9.296184,0.58380145,-0.4944222,-3.5787883,2.0436478
0.372,-4.5233746,9.272994,0.92831945,-0.551383,-3.6954718,1.9057641
0.374,-4.678828,9.207073,1.2791538,-0.6011087,-3.7942076,1.7597625
0.376,-4.797069,9.095579,1.633888,-0.64213634,-3.8715034,1.6067269
0.378,-4.8731794,8.93633,1.9846509,-0.67309225,-3.9239776,1.4478871
0.38,-4.9069085,8.726984,2.3211298,-0.6928146,-3.948676,1.2845727
0.382,-4.8943896,8.462439,2.6410353,-0.7004852,-3.9431958,1.1182594
0.384,-4.8269114,8.136865,2.9381177,-0.6956967,-3.9057891,0.9504746
0.386,-4.70514,7.751327,3.199627,-0.67849076,-3.835517,0.78264457
0.388,-4.528098,7.3086452,3.4216743,-0.649276,-3.7323267,0.6160348
0.39,-4.291943,6.8086467,3.6008856,-0.60880244,-3.5970223,0.45181006
0.392,-3.9962554,6.2508492,3.7329469,-0.55804384,-3.431201,0.2909925
0.394,-3.6400645,5.6348376,3.8148456,-0.4981327,-3.237219,0.13444096
0.396,-3.2117143,4.9569597,3.8536043,-0.4304353,-3.0182872,-0.017222643
0.398,-2.7181265,4.2292933,3.851361,-0.356418,-2.7777302,-0.16338408
0.4,-2.1722393,3.4702115,3.7918289,-0.27734554,-2.5189593,-0.3033499
0.402,-1.5747764,2.6878357,3.6683066,-0.1944794,-2.2463555,-0.4363171
0.404,-0.92530876,1.8881004,3.4908211,-0.10922021,-1.9648261,-0.5611091
0.406,-0.23681766,1.0814632,3.2676642,-0.0230937,-1.6791769,-0.6762182
0.408,0.47951144,0.27395374,2.9943194,0.06221339,-1.3943446,-0.78001404
0.41,1.2214658,-0.5320302,2.6633587,0.14491475,-1.1154716,-0.87098265
0.412,1.9857403,-1.3283858,2.2734435,0.22314177,-0.84773785,-0.9475395
0.414,2.7627344,-2.098457,1.8312378,0.29528344,-0.595679,-1.0073518
0.416,3.539081,-2.822161,1.3452474,0.35989952,-0.36359262,-1.0477657
0.418,4.3069544,-3.4864063,0.8236898,0.4160064,-0.15472555,-1.0664985
0.42,5.0579653,-4.0785427,0.27696773,0.4630928,0.029109776,-1.0617025
0.422,5.7809153,-4.582426,-0.2812813,0.50106835,0.18723845,-1.0318265
0.424,6.4653153,-4.9819517,-0.8424277,0.53045523,0.3201744,-0.9756094
0.426,7.1042576,-5.2662,-1.4063386,0.55275106,0.4294296,-0.8918892
0.428,7.69083,-5.4300694,-1.9739285,0.57111055,0.5180594,-0.7800746
0.43,8.217475,-5.4709406,-2.5436847,0.5898413,0.5906991,-0.6410525
0.432,8.6755,-5.3877254,-3.1133523,0.6135406,0.65240717,-0.47708794
0.434,9.056286,-5.1818104,-3.6824927,0.6470443,0.70779645,-0.2914284
0.436,9.3512,-4.858044,-4.251271,0.695278,0.76205397,-0.08886927
0.438,9.5529585,-4.425183,-4.8191066,0.7632023,0.82163566,0.12381083
0.44,9.656366,-3.8948126,-5.3837237,0.8554925,0.8932124,0.33878675
0.442,9.658779,-3.2806125,-5.9424534,0.97565424,0.98257214,0.54793596
0.444,9.56072,-2.5979328,-6.493243,1.1254213,1.0947007,0.74170685
0.446,9.365544,-1.8637924,-7.0343766,1.3045897,1.2342812,0.9083985
0.448,9.079477,-1.0965271,-7.563448,1.5101435,1.404325,1.0359972
0.45,8.710633,-0.3152399,-8.07614,1.7357788,1.6041558,1.1139424
0.452,8.269499,0.4603839,-8.56607,1.9722815,1.8283505,1.1339803
0.454,7.7679396,1.2118611,-9.025299,2.207944,2.0669053,1.091054
0.456,7.2196984,1.9228997,-9.445131,2.4296,2.30556,0.9842162
0.458,6.640007,2.5808244,-9.816248,2.6239183,2.5258503,0.81717575
0.46,6.0452175,3.1754985,-10.1301365,2.7785428,2.706726,0.59862006
0.462,5.4518785,3.699138,-10.3796425,2.883246,2.8277419,0.34170198
0.464,4.8764715,4.1463757,-10.557362,2.9309113,2.8721383,0.06247568
0.466,4.334754,4.514843,-10.655912,2.918374,2.829165,-0.22228253
0.468,3.840872,4.8055296,-10.669135,2.8467383,2.6954727,-0.49725974
0.47,3.4066873,5.022314,-10.592204,2.721503,2.4765396,-0.74940026
0.472,3.0419192,5.1711426,-10.422754,2.5518048,2.1856518,-0.96875435
0.474,2.7533712,5.2594786,-10.161311,2.349535,1.8422545,-1.1495621
0.476,2.5485642,5.294762,-9.81123,2.1281462,1.4697341,-1.2904952
0.478,2.425119,5.287551,-9.378984,1.9011354,1.0922523,-1.3940187
0.48,2.3787231,5.2492304,-8.870143,1.6806915,0.73191357,-1.4655145
0.482,2.404821,5.1907535,-8.295518,1.4765176,0.4060614,-1.5115604
0.484,2.4988842,5.120028,-7.6697116,1.2958875,0.12619859,-1.538308
0.486,2.6527925,5.0428104,-7.0044928,1.1436028,-0.10145289,-1.5512323
0.488,2.8553278,4.964281,-6.306926,1.0213969,-0.27550197,-1.5551336
0.49,3.0983927,4.88974,-5.5841904,0.92804617,-0.39970386,-1.5535033
0.492,3.3686576,4.8259535,-4.851597,0.8597961,-0.48159498,-1.5483655
0.494,3.6492834,4.7784114,-4.118632,0.8112623,-0.52962893,-1.5412191
0.496,3.9338846,4.7453423,-3.3887067,0.77662444,-0.5515518,-1.5332288
0.498,4.2133317,4.7249703,-2.6731825,0.7502667,-0.5544241,-1.5240512
0.5,4.4772525,4.7188516,-1.9810555,0.7270369,-0.5447583,-1.5118607
0.502,4.720104,4.7281322,-1.3175764,0.7030554,-0.52723205,-1.4953115
0.504,4.936509,4.753147,-0.68690443,0.67588615,-0.50408125,-1.4739548
0.506,5.11438,4.7961903,-0.0982244,0.643922,-0.47627887,-1.4477557
0.508,5.2619267,4.8456335,0.44905758,0.60634065,-0.44424713,-1.4167595
0.51,5.388756,4.89025,0.97175074,0.5630896,-0.40778667,-1.3812051
0.512,5.490863,4.9330854,1.4731169,0.5146194,-0.36649966,-1.3417507
0.514,5.565629,4.97873,1.9427087,0.46184722,-0.32033277,-1.2995385
0.516,5.6222315,5.027393,2.3772624,0.406038,-0.2697956,-1.2559828
0.518,5.664838,5.0831795,2.786554,0.3486205,-0.21593022,-1.2123553
0.52,5.688544,5.1512294,3.1792924,0.29093757,-0.15996927,-1.1696596
0.522,5.6917443,5.2295094,3.555627,0.23407476,-0.10305697,-1.128661
0.524,5.6786566,5.3096266,3.90823,0.1788163,-0.04617837,-1.0898726
0.526,5.6551504,5.383184,4.230832,0.12565035,0.009839296,-1.053418
0.528,5.620411,5.451064,4.5199366,0.07480618,0.06450628,-1.0189714
0.53,5.5739036,5.513834,4.7721834,0.026290596,0.117704496,-0.9859492
0.532,5.5174484,5.5686197,4.983656,-0.020077616,0.16953963,-0.95366246
0.534,5.4514136,5.613269,5.156373,-0.064671546,0.22016266,-0.9213762
0.536,5.3722515,5.651105,5.2975826,-0.1079475,0.26966122,-0.88848364
0.538,5.279859,5.686831,5.412624,-0.1503652,0.3180071,-0.85462236
0.54,5.1734314,5.7238417,5.503909,-0.19230106,0.36511582,-0.8196606
0.542,5.0548716,5.76287,5.5712533,-0.23405096,0.41097802,-0.78358877
0.544,4.927087,5.8036594,5.615032,-0.2759106,0.4556624,-0.7464614
0.546,4.7921157,5.8464937,5.6360865,-0.3181428,0.49937105,-0.70843923
0.548,4.6518598,5.892044,5.632777,-0.36094564,0.5424002,-0.6698544
0.55,4.5069656,5.940528,5.6010523,-0.40446764,0.58509064,-0.63110185
0.552,4.3583536,5.9901333,5.540017,-0.44879016,0.6277655,-0.5925522
0.554,4.205279,6.040104,5.4489107,-0.493976,0.67068976,-0.5544745
0.556,4.048167,6.0897074,5.328026,-0.54003567,0.71401894,-0.5170321
0.558,3.8877368,6.1380057,5.1781993,-0.58695686,0.7577881,-0.48029342
0.56,3.724659,6.1852217,4.998459,-0.6346814,0.8018906,-0.44422185
0.562,3.5610113,6.2317667,4.788226,-0.68311423,0.84605026,-0.4086892
0.564,3.3998957,6.277293,4.54782,-0.7321508,0.8898024,-0.3735015
0.566,3.2439075,6.3203073,4.2784038,-0.7816938,0.9325521,-0.33845013
0.568,3.095678,6.3583903,3.9826112,-0.83169436,0.9735183,-0.30337203
0.57,2.9579268,6.3895125,3.6637995,-0.8820278,1.0118972,-0.26816812
0.572,2.833109,6.412654,3.324894,-0.9325593,1.0469894,-0.23286662
0.574,2.7237198,6.4272614,2.9678783,-0.98320925,1.0781705,-0.19749914
0.576,2.6321855,6.4324436,2.5937157,-1.0339704,1.1047759,-0.16210999
0.578,2.5609443,6.426751,2.2035306,-1.0846928,1.1265665,-0.12676445
0.58,2.5121071,6.4083395,1.7992886,-1.1352187,1.1434504,-0.09170397
0.582,2.4876108,6.3752584,1.3840998,-1.1853594,1.1554472,-0.0571043
0.584,2.4885912,6.325776,0.96118665,-1.2347614,1.1629564,-0.023006342
0.586,2.5154548,6.2583427,0.53337955,-1.2829268,1.1666392,0.010522947
0.588,2.568875,6.17169,0.10288334,-1.3291651,1.1674168,0.04345034
0.59,2.6487157,6.0648437,-0.32824028,-1.3726411,1.166366,0.075834155
0.592,2.7541428,5.9374824,-0.7583424,-1.4124384,1.1646314,0.10783123
0.594,2.8837256,5.789649,-1.1861644,-1.4476695,1.163265,0.13973488
0.596,3.0351872,5.6218605,-1.6097785,-1.4776138,1.1629603,0.17194153
0.598,3.205468,5.4352674,-2.027601,-1.5018837,1.1638212,0.20490766
0.6,3.391625,5.230945,-2.4374485,-1.5205581,1.1652118,0.23908696
0.602,3.5896912,5.0108066,-2.836879,-1.5342497,1.1656563,0.27488154
0.604,3.7952495,4.777156,-3.2230618,-1.544087,1.1628467,0.31250387
0.606,4.002646,4.5328765,-3.5934367,-1.551631,1.1537908,0.35199794
0.608,4.207373,4.280637,-3.945166,-1.5586779,1.1351582,0.3932332
0.61,4.4044766,4.023868,-4.2762647,-1.567028,1.1037046,0.4359321
0.612,4.5886073,3.7660382,-4.583625,-1.5782543,1.0567284,0.47968394
0.614,4.754254,3.51048,-4.8638277,-1.5934839,0.99245065,0.5240047
0.616,4.8963118,3.2596848,-5.113055,-1.6133101,0.91031814,0.5683291
0.618,5.012167,3.015718,-5.33016,-1.6376791,0.8110965,0.6120171
0.62,5.0994315,2.780073,-5.513483,-1.6659558,0.6967769,0.65437496
0.622,5.1562443,2.553835,-5.6623697,-1.6969924,0.57046646,0.6946182
0.624,5.181347,2.3378384,-5.776859,-1.7293674,0.43598676,0.73188114
0.626,5.1731806,2.132677,-5.8571196,-1.7614548,0.29751658,0.7652481
0.628,5.1321435,1.9378211,-5.9016967,-1.791558,0.15942246,0.7937052
0.63,5.0609336,1.7525725,-5.9116364,-1.8180714,0.02599448,0.8162354
0.632,4.961501,1.5765274,-5.889529,-1.8397242,-0.09922892,0.8318694
0.634,4.8360987,1.4083254,-5.836725,-1.8555398,-0.21331882,0.83984625
0.636,4.688694,1.2457726,-5.7551627,-1.8649138,-0.31425518,0.8393637
0.638,4.5237284,1.0865774,-5.6482906,-1.8677136,-0.40115923,0.82967985
0.64,4.3450184,0.9287646,-5.5186725,-1.8641485,-0.47419727,0.8102274
0.642,4.1562653,0.77045035,-5.367434,-1.8547509,-0.5346106,0.7804267
0.644,3.9621356,0.61027646,-5.1954403,-1.8402514,-0.584503,0.73970824
0.646,3.7657888,0.44785953,-5.004374,-1.8215587,-0.62649286,0.6876222
0.648,3.5673835,0.28499842,-4.795805,-1.7995971,-0.6634432,0.623865
0.65,3.3708026,0.122577906,-4.5724893,-1.7751465,-0.69821715,0.5483436
0.652,3.1780891,-0.036964893,-4.3364735,-1.748658,-0.7331493,0.46122333
0.654,2.9903889,-0.19094777,-4.0892477,-1.7202858,-0.7698752,0.3628853
0.656,2.811461,-0.33847845,-3.8330162,-1.6900159,-0.8092824,0.25390115
0.658,2.6447706,-0.47889864,-3.5698452,-1.6577506,-0.85146904,0.13521409
0.66,2.4937878,-0.6109133,-3.3008244,-1.6232703,-0.89566433,0.008144975
0.662,2.360868,-0.7320914,-3.0283632,-1.5865009,-0.940944,-0.12586132
0.664,2.2489505,-0.84025633,-2.7521198,-1.5477575,-0.9866468,-0.26527083
0.666,2.158461,-0.93147576,-2.4712586,-1.5077033,-1.032439,-0.40832862
0.668,2.0889165,-1.0005108,-2.1851523,-1.4673378,-1.0785615,-0.5530306
0.67,2.0399895,-1.0431693,-1.8919905,-1.4279485,-1.1261874,-0.69719136
0.672,2.0104654,-1.0552759,-1.5910969,-1.3910928,-1.1773496,-0.83846354
0.674,1.9987319,-1.0337809,-1.2827475,-1.3583404,-1.2344645,-0.9742519
0.676,2.004378,-0.9778124,-0.96680534,-1.3311368,-1.3000567,-1.1019522
0.678,2.0249786,-0.8878834,-0.64295447,-1.3107274,-1.3764786,-1.2192149
0.68,2.0570564,-0.765287,-0.31527707,-1.2978696,-1.4651091,-1.3238511
0.682,2.0993567,-0.6135601,0.00880897,-1.2926122,-1.5659087,-1.4139956
0.684,2.1492043,-0.43758488,0.32523358,-1.2942607,-1.6770732,-1.4883931
0.686,2.203362,-0.24365216,0.63148034,-1.301313,-1.7945806,-1.5464648
0.688,2.257588,-0.03790027,0.9232936,-1.3113872,-1.9121628,-1.5883005
0.69,2.3093598,0.17325383,1.1947393,-1.3214405,-2.0215468,-1.6147869
0.692,2.3573058,0.38369238,1.4401586,-1.3280609,-2.1130166,-1.6276171
0.694,2.3998632,0.5876712,1.654935,-1.3278033,-2.1760814,-1.6291164
0.696,2.435839,0.7789012,1.8345146,-1.3175232,-2.2004836,-1.6221424
0.698,2.464756,0.95074666,1.9740304,-1.2947583,-2.177427,-1.6100057
0.7,2.486365,1.0968893,2.0694263,-1.257993,-2.1008391,-1.5961632
0.702,2.500699,1.2123821,2.1181989,-1.2069367,-1.9682772,-1.5837431
0.704,2.5082502,1.2937417,2.1185389,-1.142646,-1.7815269,-1.5751033
0.706,2.5103753,1.3390038,2.069416,-1.0674584,-1.5469286,-1.5714918
0.708,2.509059,1.3473384,1.9716309,-0.9846663,-1.2748661,-1.5728562
0.71,2.5046535,1.3198712,1.826791,-0.8981817,-0.9787638,-1.5777858
0.712,2.4981327,1.258851,1.6381607,-0.81221735,-0.6738665,-1.5838746
0.714,2.4904575,1.1679122,1.409914,-0.73085296,-0.3757582,-1.5882332
0.716,2.4831538,1.051137,1.1478274,-0.65737003,-0.098143734,-1.5877827
0.718,2.4773064,0.9126314,0.859216,-0.59383726,0.14841264,-1.5798646
0.72,2.4695263,0.7573637,0.5566894,-0.5411035,0.3570381,-1.5628093
0.722,2.4635243,0.58902025,0.25090462,-0.49882042,0.5249877,-1.5362531
0.724,2.4651492,0.4116944,-0.064348966,-0.4655387,0.6534636,-1.5012711
0.726,2.4722939,0.22959197,-0.3818981,-0.43902424,0.74662364,-1.4603007
0.728,2.4800024,0.046358347,-0.6845163,-0.41678247,0.8101568,-1.4168383
0.73,2.4876027,-0.13427508,-0.9685941,-0.39646193,0.8501959,-1.3747001
0.732,2.4941733,-0.30873334,-1.2263949,-0.37615305,0.87242115,-1.337431
0.734,2.4997296,-0.47379076,-1.4484878,-0.35474363,0.88115436,-1.308093
0.736,2.5048037,-0.6276008,-1.6345578,-0.33200583,0.87918615,-1.2888123
0.738,2.5097227,-0.77046597,-1.7844946,-0.3084501,0.8679967,-1.2805218
0.74,2.5144548,-0.90457416,-1.8986555,-0.28514862,0.84799707,-1.2830416
0.742,2.5192323,-1.0320975,-1.9795094,-0.26351136,0.81909966,-1.2953436
0.744,2.5251908,-1.1543802,-2.0279965,-0.24490303,0.7812783,-1.3157564
0.746,2.5325017,-1.2722707,-2.046754,-0.23036325,0.73494697,-1.342336
0.748,2.5415316,-1.3872418,-2.0371685,-0.22036964,0.681262,-1.3731492
0.75,2.5540247,-1.5004565,-1.9991034,-0.21480072,0.62200665,-1.406461
0.752,2.5724888,-1.6127266,-1.9362295,-0.21311712,0.5596263,-1.4406242
0.754,2.5992887,-1.7257233,-1.8547196,-0.21403307,0.49760523,-1.4741565
0.756,2.6376173,-1.8420706,-1.7605026,-0.21592915,0.4386584,-1.506488
0.758,2.6900058,-1.9626664,-1.6603221,-0.21703622,0.38578838,-1.5370959
0.76,2.7555847,-2.0855372,-1.5602201,-0.21526527,0.34264055,-1.5651181
0.762,2.832952,-2.2079935,-1.46404,-0.2085689,0.3120031,-1.5898184
0.764,2.9197433,-2.3263109,-1.375026,-0.19474933,0.29656696,-1.6104867
0.766,3.0117059,-2.4348357,-1.2959486,-0.17148271,0.29893535,-1.6264743
0.768,3.1043139,-2.5283017,-1.228733,-0.13682711,0.32079333,-1.6372085
0.77,3.1932483,-2.602576,-1.1748068,-0.08932558,0.363202,-1.6420356
0.772,3.274968,-2.6543033,-1.1362615,-0.028278202,0.42621136,-1.6404543
0.774,3.3465772,-2.6814976,-1.1149141,0.04608327,0.5087295,-1.6323307
0.776,3.406798,-2.683721,-1.11134,0.13272282,0.6088897,-1.6178
0.778,3.4545412,-2.6614645,-1.1252142,0.22972581,0.72376657,-1.5973945
0.78,3.4886312,-2.6148982,-1.1546267,0.33428505,0.849373,-1.5721632
0.782,3.5077345,-2.544623,-1.1954378,0.44286487,0.9809919,-1.5437639
0.784,3.5109105,-2.4511824,-1.2414894,0.55133444,1.1130674,-1.5145955
0.786,3.4971423,-2.3349876,-1.2859768,0.6551768,1.23925,-1.4876984
0.788,3.468097,-2.197333,-1.3220158,0.7497308,1.3527263,-1.466409
0.79,3.42653,-2.041267,-1.3390555,0.83040774,1.4466838,-1.4540547
0.792,3.3741045,-1.8702228,-1.3258876,0.8930331,1.5149355,-1.4536097
0.794,3.3147006,-1.6885283,-1.2770938,0.9341979,1.5526485,-1.4673356
0.796,3.253412,-1.5009506,-1.1904938,0.9515753,1.5569146,-1.4964485
0.798,3.1960492,-1.3133165,-1.0631822,0.94413614,1.5271368,-1.5408707
0.8,3.1469493,-1.1317012,-0.8926214,0.91220754,1.4652836,-1.5991669
0.802,3.1095262,-0.9623838,-0.6783602,0.85739267,1.3756781,-1.6686685
0.804,3.0878494,-0.8114351,-0.42174727,0.7824803,1.2646841,-1.7457078
0.806,3.0852761,-0.6833682,-0.124403,0.6912903,1.1398604,-1.826232
0.808,3.1037772,-0.5811858,0.21175769,0.58794856,1.0088351,-1.9061654
0.81,3.144978,-0.506764,0.5830404,0.4768266,0.87975484,-1.981313
0.812,3.2100058,-0.46169108,0.98400104,0.36211824,0.75906694,-2.0485637
0.814,3.2984643,-0.44665056,1.4082837,0.24731159,0.65116143,-2.105992
0.816,3.4087014,-0.4617654,1.8486731,0.13527608,0.5595753,-2.1522784
0.818,3.538217,-0.50596124,2.2975793,0.027969956,0.48601976,-2.1868918
0.82,3.6845047,-0.5780463,2.7476559,-0.07348311,0.43084258,-2.2099698
0.822,3.8439746,-0.6761787,3.1913927,-0.1684016,0.3938795,-2.2221313
0.824,4.012309,-0.79797244,3.621666,-0.2565157,0.37411344,-2.2245622
0.826,4.184496,-0.9403721,4.032194,-0.33774373,0.37034288,-2.2186146
0.828,4.354974,-1.0997348,4.4169526,-0.41208068,0.3812811,-2.205588
0.83,4.52258,-1.2734709,4.768154,-0.47971886,0.40527672,-2.1867912
0.832,4.679437,-1.457708,5.0809126,-0.5409212,0.4407481,-2.1634097
0.834,4.817932,-1.6496221,5.363828,-0.59586877,0.4861366,-2.1365871
0.836,4.9377303,-1.847081,5.608372,-0.6447329,0.53973705,-2.1074934
0.838,5.0378904,-2.0480616,5.8022294,-0.68759954,0.59997773,-2.0772338
0.84,5.11436,-2.2509873,5.947347,-0.7245388,0.6654507,-2.0468342
0.842,5.164683,-2.4543006,6.040823,-0.7556323,0.73480177,-2.017351
0.844,5.1870117,-2.6570377,6.0794473,-0.7809392,0.806749,-1.9897921
0.846,5.1811028,-2.8583822,6.0683885,-0.8005494,0.88005465,-1.965046
0.848,5.146151,-3.0559845,6.009294,-0.81466234,0.95345974,-1.9439169
0.85,5.0821524,-3.2471871,5.905322,-0.8235575,1.0257604,-1.9270668
0.852,4.990828,-3.43113,5.7602835,-0.82760304,1.0958879,-1.9150118
0.854,4.872488,-3.6070044,5.572906,-0.8271712,1.1629039,-1.9081764
0.856,4.7267227,-3.7738357,5.343116,-0.82258356,1.2260859,-1.9069245
0.858,4.553623,-3.9303665,5.0699854,-0.8140394,1.2850485,-1.9115438
0.86,4.3529367,-4.075971,4.7504754,-0.80162716,1.3397465,-1.9222181
0.862,4.1241174,-4.2097654,4.3858657,-0.7853308,1.3903977,-1.9390737
0.864,3.8663034,-4.330287,3.9813614,-0.76504767,1.4374002,-1.9622104
0.866,3.5799482,-4.4359713,3.542867,-0.7406297,1.4811537,-1.9916639
0.868,3.2660928,-4.5264316,3.0753944,-0.7119592,1.5219424,-2.0272937
0.87,2.925875,-4.601445,2.583717,-0.6789745,1.5599483,-2.0687487
0.872,2.5608578,-4.660839,2.0715046,-0.64176553,1.5951644,-2.1154575
0.874,2.172685,-4.7039866,1.542696,-0.60071373,1.6273153,-2.1665876
0.876,1.763096,-4.7304506,1.0019569,-0.5565173,1.6559083,-2.220999
0.878,1.3341892,-4.7394114,0.45445418,-0.5102321,1.6802061,-2.2771075
0.88,0.8887446,-4.730139,-0.09505695,-0.46330422,1.699289,-2.3329268
0.882,0.42968214,-4.7022123,-0.6414993,-0.41758513,1.7121212,-2.3862274
0.884,-0.039209604,-4.655843,-1.1787238,-0.3752873,1.7175545,-2.4347448
0.886,-0.51396704,-4.5918465,-1.7002187,-0.33882958,1.7143934,-2.4764638
0.888,-0.9899057,-4.5113797,-2.199031,-0.3106755,1.7014847,-2.5099158
0.89,-1.4618273,-4.415736,-2.6686316,-0.29303074,1.6778402,-2.5344548
0.892,-1.9236916,-4.306511,-3.1036134,-0.28761673,1.6427944,-2.5504289
0.894,-2.3700533,-4.1859436,-3.4981575,-0.29534584,1.5962386,-2.559248
0.896,-2.7943716,-4.0561423,-3.8481376,-0.31613946,1.5387864,-2.5632033
0.898,-3.1915884,-3.9194186,-4.1500206,-0.34884226,1.4718697,-2.5652032
0.9,-3.5556803,-3.7778184,-4.400938,-0.39127576,1.3977172,-2.5684547
0.902,-3.8813744,-3.6338515,-4.600438,-0.44039732,1.3192364,-2.5760946
0.904,-4.1637373,-3.4909942,-4.746051,-0.49260938,1.2397474,-2.590904
0.906,-4.399158,-3.35247,-4.834802,-0.5440992,1.1626282,-2.6150045
0.908,-4.5840745,-3.2205606,-4.867535,-0.59123206,1.0909843,-2.649629
0.91,-4.7157393,-3.0975611,-4.847271,-0.6309271,1.0273373,-2.6950989
0.912,-4.792228,-2.985744,-4.778247,-0.66093504,0.97343564,-2.7509196
0.914,-4.81269,-2.886856,-4.665121,-0.6798956,0.93021417,-2.815972
0.916,-4.77671,-2.803,-4.512016,-0.68733734,0.8979142,-2.8886645
0.918,-4.685383,-2.735598,-4.3240438,-0.6835459,0.8761981,-2.967097
0.92,-4.54068,-2.6858099,-4.1073422,-0.6694436,0.86434096,-3.0492597
0.922,-4.3455825,-2.6542132,-3.8679583,-0.6464106,0.8612947,-3.1332295
0.924,-4.103651,-2.6410503,-3.611742,-0.616091,0.8658242,-3.21719
0.926,-3.819594,-2.6460168,-3.3442333,-0.58017874,0.87663645,-3.299464
0.928,-3.4987457,-2.6687374,-3.0707765,-0.5403462,0.8922533,-3.3785844
0.93,-3.1469617,-2.7078373,-2.796431,-0.4981893,0.9111589,-3.453287
0.932,-2.7698827,-2.7620401,-2.525963,-0.45517296,0.9317858,-3.522688
0.934,-2.373557,-2.8299422,-2.2635045,-0.41265565,0.95228046,-3.5861812
0.936,-1.9638953,-2.910094,-2.0132952,-0.37183943,0.9708512,-3.643184
0.938,-1.5476015,-3.0002801,-1.7788996,-0.33374384,0.98598206,-3.6931424
0.94,-1.1315507,-3.0982335,-1.5629256,-0.2992083,0.99635494,-3.7356455
0.942,-0.7219269,-3.2016087,-1.3668655,-0.26889503,1.0010061,-3.7703772
0.944,-0.32479835,-3.3078957,-1.1912495,-0.24331239,0.9993858,-3.7971334
0.946,0.055015385,-3.4145546,-1.0357873,-0.22284216,0.99140394,-3.8158836
0.948,0.41284943,-3.5189824,-0.9008992,-0.2077538,0.9773985,-3.826753
0.95,0.7435851,-3.6191258,-0.787311,-0.19819233,0.95800436,-3.830038
0.952,1.0419745,-3.712772,-0.6955222,-0.1942001,0.9340583,-3.8261898
0.954,1.3031292,-3.797184,-0.62646914,-0.19574356,0.9064848,-3.815746
0.956,1.5227191,-3.868908,-0.5816672,-0.20273983,0.8762009,-3.7992606
0.958,1.6977606,-3.925118,-0.5620444,-0.21508315,0.8440113,-3.777256
0.96,1.8261746,-3.9643772,-0.5681596,-0.23265132,0.81053406,-3.750216
0.962,1.9070432,-3.9858406,-0.59979135,-0.2553417,0.7761228,-3.7185824
0.964,1.9410565,-3.9894547,-0.65564907,-0.28309575,0.7408607,-3.6827607
0.966,1.9298749,-3.975627,-0.73407626,-0.31588137,0.70459336,-3.6430788
0.968,1.8754579,-3.945012,-0.83332366,-0.35371175,0.6670312,-3.5998268
0.97,1.7805418,-3.8985314,-0.9518023,-0.3966174,0.6278391,-3.5532854
0.972,1.6479983,-3.8378596,-1.0882705,-0.44463718,0.5867785,-3.5037987
0.974,1.4816663,-3.7646267,-1.2428982,-0.49776077,0.54381245,-3.4517643
0.976,1.2854935,-3.6806939,-1.4164624,-0.5558681,0.4991919,-3.3976505
0.978,1.0644977,-3.5889995,-1.6068697,-0.61869735,0.45343465,-3.3420238
0.98,0.8249976,-3.4937646,-1.8104796,-0.68581825,0.40733078,-3.2855248
0.982,0.5719828,-3.398031,-2.025377,-0.75651056,0.36202335,-3.2288716
0.984,0.31051034,-3.3037488,-2.2508953,-0.82983077,0.3187187,-3.1728632
0.986,0.047575474,-3.2135034,-2.4813342,-0.9046159,0.27865344,-3.1182935
0.988,-0.2107147,-3.1304736,-2.7132936,-0.97945106,0.24316812,-3.0659924
0.99,-0.4580431,-3.0571585,-2.9440577,-1.0527883,0.2133386,-3.016868
0.992,-0.68828017,-2.995715,-3.168561,-1.1230183,0.19000095,-2.9717371
0.994,-0.8963308,-2.9478953,-3.3829865,-1.1885926,0.17388952,-2.9311953
0.996,-1.0767169,-2.9153328,-3.5840693,-1.2481322,0.16548187,-2.8956938
0.998,-1.224252,-2.8995204,-3.7682948,-1.3005173,0.1649549,-2.8655233
1,-1.3344785,-2.9020433,-3.9323795,-1.344958,0.17209226,-2.8408349
1.002,-1.4036622,-2.9242215,-4.0726547,-1.3810658,0.18624508,-2.8216853
1.004,-1.4276776,-2.966941,-4.1866474,-1.4088506,0.20652731,-2.80797
1.006,-1.4043276,-3.0312076,-4.2716503,-1.428678,0.23176414,-2.7994986
1.008,-1.3313147,-3.1176045,-4.3259087,-1.4412336,0.2604885,-2.7959888
1.01,-1.2084031,-3.2264624,-4.3483105,-1.4474156,0.29116267,-2.7969673
1.012,-1.0359658,-3.3572633,-4.3370895,-1.4482352,0.32230768,-2.8018022
1.014,-0.81523025,-3.5084915,-4.294132,-1.4448524,0.35236537,-2.8097832
1.016,-0.54801625,-3.6787372,-4.222383,-1.4384065,0.37986404,-2.8201876
1.018,-0.23804516,-3.8673224,-4.122413,-1.4298809,0.40368655,-2.8321939
1.02,0.11000028,-4.07279,-3.9938316,-1.4202439,0.42283943,-2.8449497
1.022,0.49068362,-4.2926817,-3.8377995,-1.4103935,0.43654704,-2.85758
1.024,0.8978349,-4.523967,-3.6570697,-1.4010751,0.4444332,-2.8692021
1.026,1.3246789,-4.763185,-3.4554768,-1.3929442,0.44640288,-2.8789563
1.028,1.7641611,-5.007054,-3.2368069,-1.386556,0.44268274,-2.8859916
1.03,2.208166,-5.252497,-3.004652,-1.3823688,0.43384856,-2.8894732
1.032,2.6482792,-5.4962573,-2.7623737,-1.3807101,0.4207773,-2.8886495
1.034,3.0757236,-5.734472,-2.513843,-1.3817589,0.40464377,-2.8828757
1.036,3.4822667,-5.9631405,-2.2630076,-1.3855796,0.38682008,-2.8716211
1.038,3.859843,-6.1781206,-2.0137272,-1.3920847,0.36874878,-2.8545141
1.04,4.2009945,-6.375909,-1.7699187,-1.4010376,0.35185856,-2.8313909
1.042,4.4987364,-6.553096,-1.5350815,-1.4120789,0.3374616,-2.8022957
1.044,4.746878,-6.706685,-1.3126935,-1.4247284,0.32668567,-2.7675393
1.046,4.940162,-6.8338995,-1.1058481,-1.4384397,0.32037568,-2.7276816
1.048,5.075095,-6.9327526,-0.9174764,-1.4526615,0.31903964,-2.683488
1.05,5.149245,-7.0020413,-0.7506146,-1.4668721,0.322913,-2.6358209
1.052,5.161677,-7.0415845,-0.60820425,-1.4806179,0.3319806,-2.5856001
1.054,5.1124773,-7.0519004,-0.49269736,-1.4936033,0.34591454,-2.5338027
1.056,5.0030155,-7.0342374,-0.40600526,-1.5056981,0.36416835,-2.4814115
1.058,4.835876,-6.9907513,-0.34967747,-1.5168887,0.3859535,-2.429384
1.06,4.614781,-6.92396,-0.3248191,-1.5272793,0.4103497,-2.378525
1.062,4.344544,-6.8371763,-0.33201185,-1.5370351,0.43639046,-2.329466
1.064,4.0305724,-6.7338266,-0.3712376,-1.5463767,0.46298668,-2.2827308
1.066,3.6789863,-6.6178355,-0.44166443,-1.5555302,0.4890154,-2.2387335
1.068,3.2963915,-6.492985,-0.54260176,-1.5646093,0.5135463,-2.197759
1.07,2.889961,-6.3633776,-0.6730315,-1.5736959,0.53574497,-2.1599903
1.072,2.4669275,-6.233148,-0.8313411,-1.5828515,0.55475795,-2.125637
1.074,2.034657,-6.1063666,-1.0155662,-1.5919349,0.57001406,-2.0949504
1.076,1.6002858,-5.9870048,-1.2227763,-1.6007037,0.58112335,-2.0682082
1.078,1.1709678,-5.879196,-1.4495405,-1.6088744,0.58779484,-2.0457144
1.08,0.7533751,-5.786405,-1.6922717,-1.6160624,0.58998466,-2.0277598
1.082,0.35387498,-5.7115335,-1.9475415,-1.6218508,0.5878749,-2.0146184
1.084,-0.022053897,-5.6570253,-2.210646,-1.6258192,0.5818306,-2.0064662
1.086,-0.3688559,-5.625488,-2.4763916,-1.6275893,0.57240236,-2.0033495
1.088,-0.68255323,-5.6180625,-2.7428024,-1.6268066,0.5602839,-2.0051744
1.09,-0.96039027,-5.6350923,-3.0089219,-1.6231546,0.5462841,-2.011697
1.092,-1.198589,-5.677605,-3.2689548,-1.616384,0.5312835,-2.0225136
1.094,-1.3949931,-5.746578,-3.5182917,-1.6063367,0.51615214,-2.0370772
1.096,-1.5494025,-5.841298,-3.75696,-1.5929575,0.5016833,-2.054744
1.098,-1.6617116,-5.960217,-3.9816394,-1.5762827,0.48852074,-2.0748177
1.1,-1.732898,-6.101924,-4.1890526,-1.5564256,0.47717583,-2.096567
1.102,-1.7644796,-6.265068,-4.3786764,-1.5335238,0.4680067,-2.1192257
1.104,-1.7579324,-6.448361,-4.549386,-1.5077716,0.4612043,-2.142059
1.106,-1.7158533,-6.6498127,-4.700209,-1.4794322,0.45678222,-2.1643453
1.108,-1.6414326,-6.8673506,-4.8312893,-1.4487517,0.4546671,-2.185292
1.11,-1.5381709,-7.098669,-4.943133,-1.4159844,0.45466757,-2.2040935
1.112,-1.4102966,-7.3413796,-5.03646,-1.3814023,0.4564755,-2.220032
1.114,-1.2624208,-7.5928345,-5.112336,-1.3452588,0.45972985,-2.2325237
1.116,-1.0991249,-7.850115,-5.172337,-1.3077592,0.46400973,-2.241157
1.118,-0.92437935,-8.110753,-5.2180815,-1.2690657,0.4688897,-2.2456625
1.12,-0.7425386,-8.372344,-5.252028,-1.2293559,0.47390923,-2.2459009
1.122,-0.5577408,-8.632738,-5.276797,-1.1887548,0.47861254,-2.2418952
1.124,-0.3740492,-8.889721,-5.2951355,-1.1473203,0.48269385,-2.2338243
1.126,-0.19528472,-9.141264,-5.3100185,-1.1050973,0.4858554,-2.2220538
1.128,-0.02488935,-9.385357,-5.324583,-1.0621332,0.4878295,-2.207028
1.13,0.13398194,-9.620188,-5.3423634,-1.0184374,0.48838288,-2.1892269
1.132,0.27824736,-9.844335,-5.366241,-0.97396064,0.4873103,-2.1691763
1.134,0.40548086,-10.056751,-5.3985286,-0.9286144,0.48438168,-2.1473718
1.136,0.51317656,-10.25595,-5.442069,-0.88228333,0.4793032,-2.1242597
1.138,0.59944344,-10.440503,-5.499363,-0.83487946,0.47169843,-2.1002326
1.14,0.6631892,-10.609654,-5.5727744,-0.7863367,0.4610583,-2.075656
1.142,0.704103,-10.7619915,-5.663784,-0.7366184,0.44678164,-2.0508423
1.144,0.72073174,-10.896943,-5.77409,-0.6857269,0.42826086,-2.026049
1.146,0.7131176,-11.014247,-5.9042835,-0.63369143,0.40489408,-2.0015016
1.148,0.6804962,-11.113803,-6.0544825,-0.58060277,0.37611008,-1.9774045
1.15,0.6227083,-11.194895,-6.2245297,-0.52656525,0.3414111,-1.9539076
1.152,0.5398116,-11.257158,-6.4139924,-0.47173762,0.30043292,-1.9310895
1.154,0.43228483,-11.300053,-6.6219273,-0.41631022,0.25300094,-1.9089676
1.156,0.30044103,-11.323263,-6.846942,-0.36052492,0.19913557,-1.8875237
1.158,0.14490533,-11.326728,-7.0872064,-0.3046467,0.13900459,-1.8667066
1.16,-0.033312082,-11.310254,-7.340064,-0.248942,0.072921745,-1.8464507
1.162,-0.23324442,-11.2738085,-7.602112,-0.19369005,0.0013293326,-1.826736
1.164,-0.45336962,-11.217596,-7.8699503,-0.13916047,-0.07531351,-1.8076063
1.166,-0.69215155,-11.142232,-8.139786,-0.08559968,-0.15652955,-1.7892046
1.168,-0.947592,-11.048386,-8.407651,-0.03321331,-0.24192299,-1.7717791
1.17,-1.2175162,-10.937077,-8.669161,0.017838508,-0.33122122,-1.7557076
1.172,-1.4992797,-10.809709,-8.919474,0.06760751,-0.4239397,-1.7413678
1.174,-1.7898686,-10.668169,-9.153758,0.11612351,-0.5198918,-1.7292128
1.176,-2.0860403,-10.514649,-9.367575,0.16346337,-0.61893666,-1.719732
1.178,-2.3845248,-10.351781,-9.556408,0.20974192,-0.72112083,-1.7133459
1.18,-2.6818726,-10.18197,-9.715832,0.2551136,-0.8264074,-1.7103491
1.182,-2.9742603,-10.008135,-9.841658,0.29974055,-0.93476474,-1.7109793
1.184,-3.2577221,-9.833229,-9.929675,0.34372696,-1.0461787,-1.7154244
1.186,-3.5279946,-9.660092,-9.975962,0.3871007,-1.1606431,-1.7237451
1.188,-3.7808907,-9.491643,-9.976824,0.42982653,-1.2781061,-1.7359257
1.19,-4.012552,-9.330805,-9.929337,0.47182953,-1.3984725,-1.7518952
1.192,-4.2189274,-9.180389,-9.830791,0.5129855,-1.5215912,-1.7715176
1.194,-4.396475,-9.043208,-9.679407,0.5531049,-1.6472434,-1.7945691
1.196,-4.541895,-8.921255,-9.474529,0.59191746,-1.7751592,-1.8208168
1.198,-4.6522303,-8.816392,-9.214953,0.62910867,-1.9050546,-1.8500148
1.2,-4.7246876,-8.730333,-8.9000025,0.66433394,-2.036599,-1.8819017
1.202,-4.7574077,-8.66443,-8.531972,0.69726247,-2.1693816,-1.9161962
1.204,-4.748549,-8.619497,-8.112139,0.72755903,-2.3029134,-1.9526027
1.206,-4.697659,-8.595761,-7.642661,0.7549367,-2.4366474,-1.9908698
1.208,-4.6046715,-8.592709,-7.1269064,0.7791745,-2.5699735,-2.0307336
1.21,-4.4706254,-8.60939,-6.5684285,0.8001468,-2.7021701,-2.071899
1.212,-4.297081,-8.644474,-5.9713445,0.8178085,-2.8324223,-2.114014
1.214,-4.086753,-8.695969,-5.3402567,0.8321913,-2.959833,-2.1566625
1.216,-3.8426392,-8.761862,-4.680335,0.8433678,-3.0834632,-2.199396
1.218,-3.5684,-8.839892,-3.9965897,0.85144883,-3.2023757,-2.2417443
1.22,-3.2682505,-8.92777,-3.2944443,0.85656804,-3.3157074,-2.2832148
1.222,-2.9468286,-9.022823,-2.579415,0.8588455,-3.4227045,-2.3233109
1.224,-2.609475,-9.122327,-1.8567972,0.85832876,-3.5227704,-2.361506
1.226,-2.2619238,-9.22333,-1.1310456,0.8549242,-3.615741,-2.3973467
1.228,-1.9104342,-9.322598,-0.40678126,0.8486455,-3.7013032,-2.4303432
1.23,-1.5609555,-9.416932,0.31166124,0.8394063,-3.7793546,-2.4600112
1.232,-1.2191436,-9.503295,1.0199773,0.8270996,-3.8498282,-2.4859757
1.234,-0.8908155,-9.578897,1.7141526,0.8116496,-3.9127064,-2.5079465
1.236,-0.5811424,-9.641077,2.3914185,0.7929822,-3.9678688,-2.5257235
1.238,-0.29504156,-9.687138,3.0491357,0.77105886,-4.0150046,-2.5391579
1.24,-0.03690958,-9.714715,3.68521,0.74589264,-4.053626,-2.5482244
1.242,0.18943143,-9.721802,4.298019,0.7175236,-4.0830965,-2.5529912
1.244,0.38102102,-9.706453,4.886473,0.686007,-4.102657,-2.553625
1.246,0.5352409,-9.667159,5.4502354,0.6513989,-4.1114993,-2.5503929
1.248,0.6505251,-9.602945,5.9885197,0.613732,-4.1088314,-2.5436258
1.25,0.72655535,-9.512617,6.5017447,0.572994,-4.0939827,-2.5336668
1.252,0.76307297,-9.396115,6.9891458,0.5291091,-4.0664196,-2.5208337
1.254,0.76229644,-9.252829,7.452987,0.48191845,-4.025796,-2.5053778
1.256,0.7242949,-9.081792,7.8947783,0.43120694,-3.971983,-2.4874902
1.258,0.6518383,-8.882686,8.315729,0.37672174,-3.9051,-2.4673166
1.26,0.54770565,-8.655854,8.717059,0.3181765,-3.8254533,-2.444942
1.262,0.41547728,-8.401562,9.099579,0.25528502,-3.733559,-2.4204202
1.264,0.25934362,-8.120355,9.464531,0.18775523,-3.6301193,-2.3937988
1.266,0.084077835,-7.812703,9.813525,0.11534548,-3.5159407,-2.36511
1.268,-0.10548782,-7.4791346,10.1481495,0.037852764,-3.3918958,-2.3344123
1.27,-0.30408025,-7.1203113,10.469755,-0.044867992,-3.258864,-2.3018305
1.272,-0.5064118,-6.7367363,10.779138,-0.13294113,-3.1176772,-2.267542
1.274,-0.70685863,-6.32918,11.077222,-0.22645211,-2.9690526,-2.231783
1.276,-0.8998406,-5.898405,11.364782,-0.32542753,-2.8135035,-2.1948626
1.278,-1.0798665,-5.445016,11.642782,-0.42985308,-2.6514323,-2.1571577
1.28,-1.2417941,-4.969451,11.911965,-0.53969836,-2.4830613,-2.1189952
1.282,-1.3807595,-4.4719963,12.173015,-0.654975,-2.3085105,-2.080605
1.284,-1.492414,-3.952813,12.426878,-0.77571046,-2.1278102,-2.042158
1.286,-1.5732665,-3.4119506,12.6746645,-0.9019726,-1.9408971,-2.003696
1.288,-1.6199175,-2.8494687,12.917671,-1.0338802,-1.7477257,-1.965119
1.29,-1.6298352,-2.2653565,13.156102,-1.1715671,-1.5483162,-1.9261951
1.292,-1.601418,-1.6594447,13.390232,-1.315175,-1.3428125,-1.8866669
1.294,-1.5338091,-1.0314587,13.619998,-1.4649127,-1.1314598,-1.8462579
1.296,-1.4268382,-0.38140416,13.845468,-1.6210309,-0.91459274,-1.8047066
1.298,-1.2814289,0.291111,14.066852,-1.7837586,-0.6926652,-1.7618229
1.3,-1.0991282,0.9863863,14.2843895,-1.9533021,-0.46629933,-1.7175392
1.302,-0.8823602,1.704881,14.497351,-2.1298165,-0.23627532,-1.6719599
1.304,-0.63390326,2.4471333,14.704876,-2.313381,-0.0035725236,-1.6253974
1.306,-0.35735393,3.2134705,14.906227,-2.5039613,0.23062229,-1.5783336
1.308,-0.056412697,4.0039854,15.099981,-2.7013848,0.4649133,-1.5313572
1.31,0.2647071,4.8183928,15.2849865,-2.9053073,0.6976911,-1.4851208
1.312,0.60169554,5.6563597,15.459552,-3.1152177,0.92718935,-1.44029
1.314,0.9499121,6.517309,15.62222,-3.3303897,1.1515522,-1.3975523
1.316,1.3046203,7.400592,15.771614,-3.5499759,1.3689034,-1.3575933
1.318,1.6612692,8.305157,15.905427,-3.7730057,1.5774423,-1.321038
1.32,2.0155272,9.229696,16.020645,-3.9984326,1.7755318,-1.288429
1.322,2.3630247,10.17289,16.114742,-4.2251916,1.9617447,-1.2602313
1.324,2.6998706,11.13311,16.185406,-4.4521933,2.1349547,-1.2367654
1.326,3.023027,12.108173,16.230915,-4.6783524,2.2944188,-1.2182449
1.328,3.329937,13.095725,16.249626,-4.902635,2.4397721,-1.2047435
1.33,3.618619,14.092981,16.240309,-5.1240945,2.5710173,-1.1961877
1.332,3.8874197,15.09667,16.202085,-5.341857,2.68854,-1.1923803
1.334,4.1352997,16.10358,16.134459,-5.5551558,2.7930193,-1.1930876
1.336,4.3614616,17.110058,16.037123,-5.7633233,2.8853657,-1.1980431
1.338,4.565733,18.112478,15.910093,-5.9658346,2.9666107,-1.206969
1.34,4.7481728,19.10723,15.754075,-6.16232,3.037797,-1.2196149
1.342,4.9087963,20.090576,15.570204,-6.352585,3.1000316,-1.23574
1.344,5.0480995,21.058796,15.35988,-6.536628,3.154366,-1.2551551
1.346,5.166813,22.008154,15.124952,-6.7146277,3.2017436,-1.2776663
1.348,5.2658663,22.934925,14.8676815,-6.8868613,3.2429671,-1.3030834
1.35,5.345916,23.835697,14.589958,-7.0536995,3.2786045,-1.3312638
1.352,5.4079523,24.706993,14.293909,-7.215626,3.309054,-1.362052
1.354,5.4522743,25.545696,13.981682,-7.3731594,3.334625,-1.3952682
1.356,5.479801,26.348976,13.655294,-7.526787,3.3555217,-1.4307168
1.358,5.491271,27.11441,13.317478,-7.6769686,3.371859,-1.4682412
1.36,5.4867554,27.83972,12.970434,-7.8240924,3.3836756,-1.507745
1.362,5.4665604,28.522652,12.617146,-7.968441,3.390963,-1.5491667
1.364,5.4305487,29.161072,12.258932,-8.110231,3.3936727,-1.5924697
1.366,5.379732,29.75309,11.897446,-8.249609,3.3916535,-1.6376574
1.368,5.3137827,30.298002,11.534584,-8.386696,3.3846056,-1.6847181
1.37,5.2325068,30.795467,11.172303,-8.521546,3.372171,-1.7336557
1.372,5.135256,31.245441,10.812713,-8.654149,3.3539379,-1.7844949
1.374,5.0212736,31.648235,10.45739,-8.784435,3.3295274,-1.8372278
1.376,4.890006,32.004333,10.107323,-8.912255,3.2987056,-1.8917425
1.378,4.741165,32.314754,9.763485,-9.03739,3.2614446,-1.9478402
1.38,4.574277,32.580765,9.426684,-9.159537,3.217939,-2.0052378
1.382,4.3889904,32.803955,9.097758,-9.2782955,3.1686587,-2.0635731
1.384,4.184826,32.98645,8.777347,-9.393191,3.1143136,-2.122417
1.386,3.961362,33.130882,8.465536,-9.50374,3.0558286,-2.181309
1.388,3.7187176,33.239586,8.16235,-9.609476,2.9941921,-2.2397587
1.39,3.4573421,33.31503,7.867616,-9.7100115,2.9303386,-2.2973437
1.392,3.1775236,33.359962,7.5809746,-9.80512,2.8650794,-2.3537061
1.394,2.8797436,33.377224,7.301792,-9.894718,2.7989974,-2.4086196
1.396,2.5649424,33.36968,7.0291643,-9.978896,2.7323937,-2.462028
1.398,2.234311,33.340385,6.7616806,-10.057882,2.665319,-2.513975
1.4,1.8889608,33.29201,6.4988146,-10.131968,2.597649,-2.5646539
1.402,1.5304871,33.227455,6.2399874,-10.201492,2.5291977,-2.6143408
1.404,1.1607828,33.148956,5.984417,-10.266719,2.4599237,-2.6633136
1.406,0.7811537,33.059883,5.7310414,-10.327792,2.389958,-2.711892
1.408,0.3934965,32.962013,5.4784694,-10.384715,2.319665,-2.7603629
1.41,-0.000102996826,32.85766,5.225311,-10.4373665,2.2497315,-2.8089836
1.412,-0.39779568,32.74892,4.970712,-10.485468,2.1811156,-2.857945
1.414,-0.7975359,32.637688,4.7140274,-10.528687,2.1150613,-2.9074314
1.416,-1.1973009,32.5253,4.454525,-10.566608,2.0529742,-2.9576068
1.418,-1.5951385,32.413017,4.191763,-10.598819,1.9963913,-3.0086124
1.42,-1.989048,32.302254,3.924807,-10.624907,1.9468758,-3.0605521
1.422,-2.3770695,32.19405,3.6529064,-10.644554,1.905957,-3.1135101
1.424,-2.7570753,32.089214,3.3752036,-10.657558,1.8750105,-3.1675427
1.426,-3.1269407,31.988451,3.0905476,-10.663845,1.8551953,-3.2227104
1.428,-3.4846482,31.892456,2.7988453,-10.6634865,1.8474486,-3.2791095
1.43,-3.82831,31.801971,2.5005407,-10.656639,1.8524565,-3.3368561
1.432,-4.155693,31.717476,2.1956844,-10.643522,1.8707256,-3.396099
1.434,-4.464628,31.639553,1.8840442,-10.624384,1.9026475,-3.4569623
1.436,-4.753748,31.568817,1.5646152,-10.59947,1.9484838,-3.5196524
1.438,-5.021439,31.5056,1.2369533,-10.56899,2.0084753,-3.5843856
1.44,-5.2659264,31.450066,0.90050745,-10.533082,2.0828524,-3.6512651
1.442,-5.4855766,31.402605,0.5542426,-10.491827,2.1718798,-3.7203858
1.444,-5.6790404,31.363054,0.19751358,-10.445179,2.2758713,-3.7918165
1.446,-5.8452125,31.33168,-0.1694808,-10.393023,2.3951774,-3.8656037
1.448,-5.983366,31.30826,-0.5464606,-10.335142,2.5301476,-3.9417644
1.45,-6.0928693,31.292614,-0.9332509,-10.271217,2.681155,-4.0202713
1.452,-6.17342,31.284746,-1.3301973,-10.200841,2.8484714,-4.10112
1.454,-6.225113,31.284405,-1.7378688,-10.123541,3.032164,-4.184346
1.456,-6.2486753,31.291521,-2.1571093,-10.038813,3.2320173,-4.270058
1.458,-6.2448344,31.305964,-2.5884826,-9.946152,3.447438,-4.3584375
1.46,-6.2149973,31.327219,-3.0325892,-9.845065,3.6774538,-4.44968
1.462,-6.160732,31.354742,-3.4901533,-9.7351,3.9207008,-4.5440054
1.464,-6.0839844,31.387857,-3.9616985,-9.615847,4.175396,-4.641577
1.466,-5.9867334,31.42558,-4.448011,-9.487036,4.4393864,-4.742482
1.468,-5.8712997,31.466621,-4.949929,-9.348502,4.7101207,-4.846689
1.47,-5.740059,31.509483,-5.4683146,-9.200263,4.9847736,-4.9539886
1.472,-5.5952654,31.552183,-6.0041604,-9.042497,5.2603045,-5.0639725
1.474,-5.438754,31.592487,-6.5581284,-8.875522,5.533558,-5.1760817
1.476,-5.2724066,31.627764,-7.1304836,-8.699762,5.801435,-5.2896247
1.478,-5.097595,31.65491,-7.721012,-8.515711,6.0609636,-5.403817
1.48,-4.9156847,31.670696,-8.329323,-8.323885,6.3094277,-5.5178094
1.482,-4.727372,31.671455,-8.954592,-8.124786,6.544401,-5.6307335
1.484,-4.533239,31.653305,-9.595869,-7.9188786,6.7638264,-5.741776
1.486,-4.333517,31.612244,-10.251639,-7.7065654,6.9659824,-5.850219
1.488,-4.1283145,31.54397,-10.919989,-7.4881744,7.149542,-5.9554777
1.49,-3.9175444,31.44437,-11.598362,-7.2639546,7.3135824,-6.057053
1.492,-3.7006454,31.309404,-12.283839,-7.034108,7.457436,-6.1545935
1.494,-3.477333,31.135643,-12.973027,-6.798791,7.5807595,-6.24789
1.496,-3.2471523,30.91959,-13.661777,-6.5581884,7.6834564,-6.336728
1.498,-3.0102062,30.65829,-14.346275,-6.3125377,7.765525,-6.420931
1.5,-2.766078,30.349422,-15.022889,-6.0621343,7.8270507,-6.500349
1.502,-2.5149899,29.9913,-15.687964,-5.8074007,7.8680997,-6.574846
1.504,-2.2566166,29.58304,-16.338015,-5.548919,7.8886385,-6.6442933
1.506,-1.991332,29.124416,-16.969366,-5.287462,7.8885546,-6.7085333
1.508,-1.7199707,28.616043,-17.578274,-5.023904,7.867629,-6.7673855
1.51,-1.4433136,28.059343,-18.161839,-4.759258,7.825525,-6.8206525
1.512,-1.162447,27.4565,-18.718006,-4.4946322,7.761873,-6.8681474
1.514,-0.8789711,26.81067,-19.244898,-4.2311687,7.676307,-6.909665
1.516,-0.5941019,26.1247,-19.741158,-3.970039,7.568577,-6.944998
1.518,-0.30960083,25.403465,-20.205727,-3.7123756,7.4385905,-6.9739246
1.52,-0.02728653,24.651556,-20.637825,-3.4592083,7.2865243,-6.9962454
1.522,0.25122833,23.873829,-21.037512,-3.2114234,7.1128416,-7.0117903
1.524,0.5240202,23.075613,-21.405472,-2.9697814,6.9182186,-7.0205364
1.526,0.7890701,22.262466,-21.742788,-2.7348733,6.7036057,-7.0226154
1.528,1.04459,21.440166,-22.050785,-2.5071392,6.470216,-7.0181665
1.53,1.2888031,20.61451,-22.330772,-2.2868817,6.2193885,-7.007396
1.532,1.5203943,19.791124,-22.583746,-2.0742478,5.952601,-6.9905887
1.534,1.7383327,18.975485,-22.81099,-1.8692471,5.671502,-6.9680705
1.536,1.9418736,18.172304,-23.013636,-1.671771,5.3778267,-6.9401875
1.538,2.1304302,17.386047,-23.193127,-1.4816238,5.073427,-6.9072995
1.54,2.3036098,16.620682,-23.350859,-1.2985251,4.7602324,-6.8697386
1.542,2.4610739,15.880066,-23.48832,-1.1221546,4.440196,-6.827795
1.544,2.6026788,15.167509,-23.606747,-0.95217466,4.115233,-6.78174
1.546,2.7290177,14.485992,-23.706503,-0.78824365,3.787192,-6.7318344
1.548,2.840992,13.837818,-23.788034,-0.6300595,3.4577522,-6.6783104
1.55,2.939587,13.225027,-23.851807,-0.47735083,3.128426,-6.6213636
1.552,3.0262532,12.648778,-23.89802,-0.32991385,2.8005385,-6.561126
1.554,3.1024604,12.109776,-23.927324,-0.18756825,2.4751847,-6.497695
1.556,3.170219,11.607896,-23.94091,-0.0501647,2.153243,-6.4311323
1.558,3.2314286,11.142969,-23.939901,0.08243972,1.8353655,-6.361441
1.56,3.2882524,10.71414,-23.925196,0.21038598,1.5220089,-6.28859
1.562,3.3429804,10.32028,-23.897064,0.3337835,1.2135069,-6.2125506
1.564,3.397893,9.959983,-23.855982,0.4527456,0.9100312,-6.1332874
1.566,3.4553099,9.631144,-23.80275,0.56737393,0.61159724,-6.050783
1.568,3.5172114,9.331795,-23.73842,0.67772734,0.31810695,-5.9650297
1.57,3.5857868,9.0600815,-23.664227,0.78383315,0.02934751,-5.876034
1.572,3.6628199,8.814255,-23.581497,0.885674,-0.2549656,-5.783803
1.574,3.7500134,8.592121,-23.491997,0.98317015,-0.5351798,-5.6883926
1.576,3.8486004,8.391901,-23.396835,1.0761893,-0.8116479,-5.589934
1.578,3.959354,8.212076,-23.297358,1.1646048,-1.0846303,-5.4885936
1.58,4.0828795,8.051124,-23.194883,1.2482934,-1.3543693,-5.3846207
1.582,4.2192755,7.907798,-23.09036,1.327126,-1.6210946,-5.278453
1.584,4.368095,7.7810597,-22.984694,1.4010316,-1.8849089,-5.1706495
1.586,4.528356,7.6701937,-22.878464,1.4700158,-2.1458454,-5.06186
1.588,4.6988387,7.574781,-22.772203,1.5341628,-2.4038956,-4.9528384
1.59,4.8781824,7.4946036,-22.666412,1.5936444,-2.659021,-4.8444185
1.592,5.064583,7.429751,-22.561657,1.6486914,-2.9111762,-4.737474
1.594,5.25642,7.3805017,-22.458336,1.6995548,-3.1603556,-4.6329
1.596,5.451676,7.347273,-22.356453,1.7464931,-3.4066286,-4.5315766
1.598,5.6485457,7.330633,-22.255562,1.7897199,-3.6500924,-4.434288
1.6,5.8451524,7.3312283,-22.155119,1.8294203,-3.890924,-4.3417478
1.602,6.0396466,7.349642,-22.054276,1.8657104,-4.1293983,-4.2545714
1.604,6.2305064,7.3860536,-21.95233,1.8986325,-4.36586,-4.1732597
1.606,6.415998,7.4410515,-21.848593,1.928148,-4.6006765,-4.098184
1.608,6.5948176,7.515249,-21.741934,1.9541487,-4.8341994,-4.029611
1.61,6.765276,7.608693,-21.630888,1.9764963,-5.0667353,-3.9677258
1.612,6.9265785,7.721519,-21.514147,1.9950384,-5.2984724,-3.9126413
1.614,7.0774646,7.8533936,-21.389915,2.0096421,-5.529457,-3.8643754
1.616,7.2173824,8.003873,-21.256514,2.02023,-5.759571,-3.8228812
1.618,7.34596,8.172285,-21.11285,2.0267715,-5.9884615,-3.7880309
1.62,7.4628105,8.357619,-20.957634,2.0293064,-6.215538,-3.759669
1.622,7.5677857,8.558628,-20.789246,2.027952,-6.43999,-3.7376413
1.624,7.6609674,8.773832,-20.606316,2.0228941,-6.660759,-3.7217686
1.626,7.7426424,9.001643,-20.407553,2.0143945,-6.876584,-3.7118483
1.628,7.813152,9.24033,-20.191784,2.0027633,-7.086033,-3.7076132
1.63,7.8729925,9.487785,-19.958248,1.9883394,-7.2875404,-3.7088022
1.632,7.9222636,9.741972,-19.706331,1.9714687,-7.479472,-3.7151628
1.634,7.960942,10.000603,-19.435163,1.9525127,-7.6601315,-3.726464
1.636,7.9891243,10.261548,-19.144136,1.9318011,-7.8278017,-3.7425182
1.638,8.006485,10.522468,-18.833214,1.9096515,-7.9808464,-3.763149
1.64,8.01313,10.780918,-18.502611,1.886333,-8.117741,-3.788247
1.642,8.008728,11.0344715,-18.15308,1.8621035,-8.237078,-3.8177495
1.644,7.993252,11.280676,-17.785427,1.837183,-8.337617,-3.8516207
1.646,7.9667253,11.517576,-17.401087,1.8117809,-8.418266,-3.889843
1.648,7.928999,11.743069,-17.001743,1.7861071,-8.4781,-3.932415
1.65,7.879903,11.955324,-16.58907,1.7603481,-8.516324,-3.9793634
1.652,7.818903,12.152592,-16.165064,1.7346876,-8.532338,-4.0307174
1.654,7.745747,12.333565,-15.73199,1.7092835,-8.525661,-4.0864906
1.656,7.6601534,12.497158,-15.292262,1.6842589,-8.49596,-4.146706
1.658,7.561969,12.64256,-14.848635,1.6597228,-8.443035,-4.2113824
1.66,7.4511595,12.768918,-14.4032345,1.6357478,-8.366842,-4.2805624
1.662,7.328018,12.875526,-13.958543,1.6123843,-8.267482,-4.354304
1.664,7.192998,12.962283,-13.516776,1.5896624,-8.145178,-4.432642
1.666,7.0467243,13.029422,-13.080154,1.5675721,-8.000257,-4.515609
1.668,6.8899984,13.077805,-12.651116,1.5460714,-7.83317,-4.6032143
1.67,6.723965,13.108456,-12.231993,1.5251046,-7.6444855,-4.6954365
1.672,6.550267,13.122721,-11.825233,1.5046166,-7.4348717,-4.792208
1.674,6.370499,13.122241,-11.432512,1.4845569,-7.2051153,-4.8933945
1.676,6.1867857,13.109098,-11.055187,1.4648821,-6.9561234,-4.9988155
1.678,6.0016108,13.085479,-10.694088,1.4455552,-6.6889267,-5.1082773
1.68,5.81747,13.053907,-10.34951,1.4265332,-6.4046516,-5.2215567
1.682,5.637184,13.017098,-10.021784,1.4077358,-6.104514,-5.3384304
1.684,5.463703,12.97814,-9.711294,1.3890744,-5.7897644,-5.4586544
1.686,5.300307,12.940166,-9.418309,1.3704308,-5.4616404,-5.5820074
1.688,5.1509438,12.906384,-9.142703,1.3516238,-5.121393,-5.708333
1.69,5.019829,12.880127,-8.884313,1.3324499,-4.770215,-5.8375106
1.692,4.9110365,12.864761,-8.642357,1.3126814,-4.4092364,-5.9694605
1.694,4.8289523,12.863407,-8.415776,1.292105,-4.039523,-6.104137
1.696,4.7784643,12.879008,-8.203602,1.2705363,-3.6620383,-6.2415533
1.698,4.763979,12.914309,-8.004684,1.2478218,-3.2776291,-6.3817973
1.7,4.7894335,12.972073,-7.8176985,1.2238919,-2.886974,-6.5250635
1.702,4.859207,13.054782,-7.6421,1.1987526,-2.4905558,-6.671621
1.704,4.976987,13.164906,-7.4767065,1.1725299,-2.0885916,-6.8217993
1.706,5.1464777,13.304578,-7.320737,1.1454412,-1.6810143,-6.975959
1.708,5.3710637,13.475701,-7.173688,1.1178201,-1.2674664,-7.134464
1.71,5.6536326,13.679711,-7.034975,1.0901023,-0.84731555,-7.297655
1.712,5.996608,13.917878,-6.9038043,1.0628272,-0.41977906,-7.4657955
1.714,6.401707,14.191391,-6.780122,1.0366142,0.01603365,-7.6390495
1.716,6.870168,14.501231,-6.6639757,1.0121229,0.46098828,-7.8174515
1.718,7.4025855,14.847829,-6.5556374,0.9900923,0.9158361,-8.0009165
1.72,7.999305,15.231575,-6.4557285,0.97132075,1.3810701,-8.189266
1.722,8.659693,15.652304,-6.36479,0.95662934,1.856925,-8.382235
1.724,9.382771,16.110031,-6.283736,0.9468651,2.3432999,-8.579449
1.726,10.166986,16.604542,-6.2134113,0.94281745,2.8397682,-8.780507
1.728,11.010039,17.135311,-6.154457,0.94519866,3.3455982,-8.984945
1.73,11.909606,17.701666,-6.1078424,0.9545951,3.8597732,-9.192238
1.732,12.862671,18.30269,-6.07476,0.9714575,4.381095,-9.401801
1.734,13.865687,18.937374,-6.0563493,0.9960749,4.90819,-9.612978
1.736,14.915253,19.604538,-6.0541267,1.0285702,5.439734,-9.824974
1.738,16.00756,20.302496,-6.069118,1.0689218,5.974442,-10.036831
1.74,17.138577,21.029715,-6.102361,1.1169848,6.511177,-10.247404
1.742,18.304585,21.783909,-6.1539674,1.1725564,7.0490546,-10.455353
1.744,19.50131,22.562805,-6.2247906,1.2353826,7.5874686,-10.659186
1.746,20.724382,23.363573,-6.315694,1.3052154,8.126065,-10.857308
1.748,21.969255,24.183022,-6.426799,1.3818331,8.664759,-11.048016
1.75,23.230995,25.017757,-6.557661,1.4651234,9.20373,-11.229557
1.752,24.504953,25.864159,-6.7070627,1.5550988,9.74334,-11.400133
1.754,25.786352,26.71813,-6.8735733,1.6518183,10.283995,-11.5580015
1.756,27.070839,27.574966,-7.055049,1.7554164,10.826051,-11.701462
1.758,28.35472,28.429947,-7.248845,1.8660583,11.369686,-11.82896
1.76,29.634762,29.27795,-7.4523535,1.9839292,11.914792,-11.939079
1.762,30.908092,30.113735,-7.6628103,2.109178,12.460915,-12.030598
1.764,32.17232,30.93179,-7.8768816,2.241858,13.007261,-12.102433
1.766,33.425457,31.726856,-8.091222,2.381886,13.552684,-12.153701
1.768,34.66615,32.49382,-8.301991,2.5289917,14.095708,-12.183656
1.77,35.89377,33.228157,-8.505641,2.6826673,14.634616,-12.19176
1.772,37.10843,33.925377,-8.698244,2.8421621,15.167554,-12.177582
1.774,38.311554,34.581005,-8.876296,3.0065155,15.692728,-12.140833
1.776,39.505074,35.19104,-9.036663,3.1746001,16.208403,-12.0814
1.778,40.691586,35.751675,-9.176026,3.3451023,16.712975,-11.999293
1.78,41.874123,36.25943,-9.291663,3.5166388,17.205029,-11.894751
1.782,43.056374,36.71172,-9.381375,3.6877723,17.68337,-11.768206
1.784,44.242928,37.10653,-9.444144,3.85706,18.14701,-11.620413
1.786,45.437912,37.4428,-9.479529,4.023087,18.595045,-11.452335
1.788,46.64575,37.719643,-9.487952,4.1845055,19.026642,-11.265214
1.79,47.871395,37.93654,-9.470511,4.340051,19.440918,-11.060511
1.792,49.119694,38.09323,-9.428663,4.4885063,19.836964,-10.839876
1.794,50.395668,38.18982,-9.364259,4.628713,20.213814,-10.605049
1.796,51.703674,38.226368,-9.27922,4.759571,20.57042,-10.357827
1.798,53.04737,38.20299,-9.175417,4.88,20.905714,-10.099935
1.8,54.430405,38.120075,-9.055575,4.9889283,21.218636,-9.832964
1.802,55.856647,37.977455,-8.924093,5.0852776,21.508099,-9.558313
1.804,57.32798,37.775417,-8.784784,5.167943,21.773052,-9.277206
1.806,58.846783,37.513412,-8.640453,5.2358017,22.012512,-8.990611
1.808,60.415092,37.191124,-8.494624,5.287781,22.225689,-8.699282
1.81,62.0351,36.808006,-8.350847,5.3227825,22.411964,-8.40376
1.812,63.70894,36.362312,-8.211498,5.3397536,22.570965,-8.1043625
1.814,65.437874,35.85215,-8.079353,5.3376274,22.70264,-7.801152
1.816,67.22368,35.275867,-7.957407,5.3153996,22.80734,-7.4941096
1.818,69.0679,34.632114,-7.8478165,5.2720804,22.885761,-7.183111
1.82,70.971466,33.920353,-7.753046,5.2067127,22.93911,-6.867977
1.822,72.934265,33.140465,-7.675411,5.1183805,22.969074,-6.548506
1.824,74.957985,32.29283,-7.6159515,5.006151,22.97781,-6.2245255
1.826,77.04525,31.377922,-7.5751476,4.8690104,22.967844,-5.895856
1.828,79.19736,30.398848,-7.5539207,4.705858,22.942059,-5.5623274
1.83,81.41445,29.360434,-7.553442,4.515472,22.90352,-5.2237825
1.832,83.69909,28.268177,-7.5725193,4.2964673,22.855253,-4.880088
1.834,86.05177,27.132238,-7.609852,4.047243,22.800007,-4.531037
1.836,88.47251,25.966362,-7.6635437,3.7659607,22.740244,-4.1761866
1.838,90.957184,24.792015,-7.7306175,3.4506402,22.678192,-3.8148193
1.84,93.5059,23.634119,-7.8085213,3.0991745,22.615597,-3.4461346
1.842,96.11923,22.511415,-7.890972,2.709423,22.553778,-3.0691314
1.844,98.79894,21.440619,-7.974167,2.2794156,22.493946,-2.6824517
1.846,101.545715,20.444077,-8.056522,1.8074169,22.437454,-2.2845192
1.848,104.35962,19.554771,-8.1364975,1.2921453,22.385847,-1.8736277
1.85,107.2341,18.816128,-8.211235,0.7328944,22.340918,-1.4479475
1.852,110.16495,18.275547,-8.272701,0.12951946,22.304806,-1.0056329
1.854,113.14587,17.976757,-8.313591,-0.5174775,22.280096,-0.54477215
1.856,116.18171,17.948738,-8.328148,-1.2070231,22.269518,-0.06317949
1.858,119.256836,18.257502,-8.324867,-1.9375539,22.275661,0.4416883
1.86,122.37422,18.970919,-8.297848,-2.7070384,22.300653,0.97247744
1.862,125.51996,20.134216,-8.250778,-3.513214,22.345541,1.5318928
1.864,128.7124,21.741852,-8.143665,-4.3537207,22.410084,2.122661
1.866,132.03009,23.74817,-7.994858,-5.2263355,22.49246,2.7475085
1.868,135.40462,26.220057,-7.8292656,-6.128929,22.58864,3.4087634
1.87,138.82253,29.2385,-7.6437073,-7.058974,22.693417,4.108181
1.872,142.30293,32.875473,-7.4561176,-8.014912,22.798601,4.8464956
1.874,145.86543,37.185932,-7.2466984,-8.995475,22.893948,5.6241636
1.876,149.51196,42.14165,-7.066221,-9.998678,22.9683,6.442213
1.878,153.25854,47.737053,-6.907114,-11.022312,23.008947,7.300976
1.88,157.11243,53.909756,-6.6806135,-12.06428,23.0024,8.199022
1.882,161.05421,60.482178,-6.470096,-13.12307,22.93475,9.133865
1.884,165.1158,67.42395,-6.2071033,-14.197538,22.791794,10.102988
1.886,169.34167,74.723305,-5.8147974,-15.286583,22.560219,11.106082
1.888,173.77461,82.34296,-5.2200546,-16.389122,22.22944,12.144506
1.89,178.46071,90.241486,-4.405504,-17.507524,21.787682,13.219989
1.892,183.42204,98.290016,-3.4091682,-18.647778,21.221237,14.338036
1.894,188.68094,106.35936,-2.2241783,-19.818626,20.520245,15.514499
1.896,194.28008,114.395164,-0.93162155,-21.034103,19.676548,16.78175
1.898,200.21095,122.218506,0.60827637,-22.30612,18.685474,18.185022
1.9,206.36786,129.76224,2.3977547,-23.64205,17.562307,19.742517
1.902,212.7522,136.88326,4.4864693,-25.062056,16.311878,21.48296
1.904,219.31476,143.42136,6.88797,-26.603828,14.935623,23.429958
1.906,226.01767,149.24129,9.655891,-28.289934,13.430094,25.599184
1.908,232.82355,154.229,12.8366585,-30.13624,11.798248,27.982058
1.91,239.65955,158.31134,16.470583,-32.140312,10.068804,30.518984
1.912,246.41748,161.45659,20.594547,-34.322296,8.238161,33.173775
1.914,252.9942,163.6279,25.230614,-36.699036,6.2831497,35.875168
1.916,259.27463,164.79797,30.395096,-39.27063,4.175824,38.513405
1.918,265.13446,164.96068,36.09084,-42.01039,1.8782597,40.94623
1.92,270.44122,164.13927,42.3039,-44.866398,-0.6741333,42.99867
1.922,275.0649,162.38396,48.999153,-47.76368,-3.5349808,44.502464
1.924,278.87585,159.77171,56.12204,-50.615738,-6.76449,45.28224
1.926,281.75296,156.40472,63.59439,-53.291603,-10.404921,45.19248
1.928,283.59592,152.39159,71.32477,-55.64216,-14.471845,44.171947
1.93,284.31805,147.85121,79.216064,-57.51766,-18.94281,42.233036
1.932,283.84467,142.916,87.168686,-58.767063,-23.73818,39.4555
1.934,282.12753,137.72278,95.05881,-59.24978,-28.71621,35.974323
1.936,279.15134,132.41197,102.746895,-58.849865,-33.68126,31.962431
1.938,274.93094,127.121666,110.090866,-57.490208,-38.40413,27.609468
1.94,269.5151,121.985,116.94316,-55.140648,-42.64514,23.091179
1.942,262.98123,117.1241,123.15663,-51.824863,-46.177315,18.547321
1.944,255.4317,112.64388,128.5934,-47.61812,-48.808907,14.086311
1.946,246.98792,108.634445,133.12769,-42.644928,-50.40689,9.798248
1.948,237.79385,105.16267,136.65254,-37.07253,-50.91334,5.766451
1.95,228.00558,102.27388,139.092,-31.096745,-50.345284,2.078411
1.952,217.78622,100.001434,140.40068,-24.932365,-48.7894,-1.162178
1.954,207.30154,98.362274,140.56427,-18.795118,-46.396996,-3.8181515
1.956,196.7174,97.34883,139.60349,-12.8733,-43.3379,-5.7831287
1.958,186.19218,96.92891,137.57121,-7.3216314,-39.800293,-6.981819
1.96,175.87842,97.049995,134.5491,-2.2782974,-35.97637,-7.389597
1.962,165.90965,97.64904,130.63968,2.1617813,-32.0568,-7.0386696
1.964,156.40097,98.65994,125.96926,5.942088,-28.226385,-6.0186157
1.966,147.43526,100.021225,120.6822,9.071661,-24.611755,-4.533598
1.968,139.09026,101.63156,114.94309,11.581247,-21.313356,-2.8085406
1.97,131.39996,103.39492,108.90556,13.511648,-18.417505,-1.0735102
1.972,124.390945,105.238754,102.73222,14.909325,-15.985235,0.454283
1.974,118.038956,107.12596,96.543625,15.830648,-14.038751,1.5979358
1.976,112.26434,109.028404,90.509415,16.341408,-12.589397,2.2174644
1.978,107.115875,110.800735,84.77573,16.517298,-11.608085,2.2508001
1.98,102.54929,112.31539,79.43625,16.412823,-11.042145,1.6906228
1.982,98.48213,113.481,74.580315,16.089613,-10.814234,0.55844855
1.984,94.834885,114.24234,70.23707,15.617822,-10.828716,-1.0704045
1.986,91.54686,114.62055,66.47598,15.061033,-10.986769,-3.0776243
1.988,88.54529,114.6001,63.276505,14.477384,-11.191672,-5.3223114
1.99,85.77051,114.20705,60.542587,13.920834,-11.350895,-7.6614904
1.992,83.18758,113.53563,58.330063,13.4407425,-11.378651,-9.9637
1.994,80.71625,112.5094,56.52028,13.077694,-11.204513,-12.110775
1.996,78.285416,111.062485,55.00737,12.862714,-10.780708,-14.001545
1.998,75.84599,109.17938,53.705887,12.814737,-10.08173,-15.566978
2,73.36342,106.86555,52.58583,12.94029,-9.102627,-16.774988
2.002,70.83475,104.2086,51.6464,13.235259,-7.8571343,-17.621407
2.004,68.25722,101.2761,50.821354,13.686296,-6.3730254,-18.119732
2.006,65.61326,98.06575,50.110973,14.272862,-4.687676,-18.293562
2.008,62.932526,94.695435,49.31286,14.970293,-2.844163,-18.17104
2.01,60.303905,91.16753,48.39962,15.751804,-0.88769054,-17.78169
2.012,57.683075,87.56726,47.306023,16.589413,1.1361275,-17.156822
2.014,55.072254,83.98088,46.01641,17.453995,3.1815314,-16.331167
2.016,52.452065,80.45958,44.48843,18.31595,5.2021675,-15.342276
2.018,49.801025,77.035736,42.707024,19.147366,7.1518273,-14.227826
2.02,47.125774,73.71642,40.677216,19.922367,8.987195,-13.024205
2.022,44.449974,70.496704,38.4164,20.615976,10.66631,-11.767074
2.024,41.776653,67.40288,35.958557,21.204254,12.149056,-10.490917
2.026,39.10909,64.46938,33.34039,21.66588,13.400576,-9.22787
2.028,36.452736,61.72301,30.607378,21.983116,14.393001,-8.006519
2.03,33.81549,59.177647,27.8111,22.14222,15.106585,-6.8509955
2.032,31.201511,56.840042,25.006918,22.135,15.531792,-5.7808633
2.034,28.618963,54.708794,22.249025,21.959753,15.670168,-4.811411
2.036,26.073753,52.776585,19.591335,21.62069,15.533719,-3.9533072
2.038,23.565887,51.04384,17.076057,21.127716,15.144404,-3.2119017
2.04,21.101082,49.50804,14.731054,20.49624,14.53347,-2.5876732
2.042,18.693481,48.15752,12.572191,19.746296,13.739227,-2.077341
2.044,16.350735,46.978325,10.625455,18.90099,12.804251,-1.6744289
2.046,14.073328,45.951363,8.915633,17.985216,11.772938,-1.3697853
2.048,11.863295,45.05384,7.4573174,17.024595,10.689392,-1.1520486
2.05,9.720129,44.261463,6.261055,16.044273,9.595508,-1.0083332
2.052,7.642891,43.552948,5.329405,15.067727,8.529306,-0.92508507
2.054,5.6356874,42.908287,4.6564813,14.115786,7.5236187,-0.8889222
2.056,3.7063675,42.30865,4.2301435,13.205978,6.605054,-0.8873377
2.058,1.8599234,41.739548,4.0306864,12.352217,5.793502,-0.90895987
2.06,0.09789467,41.192608,4.0272956,11.564667,5.102306,-0.94359493
2.062,-1.5763192,40.660473,4.1823425,10.849787,4.538672,-0.9823909
2.064,-3.1607308,40.135956,4.4611244,10.210516,4.1042433,-1.0179529
2.066,-4.655036,39.613396,4.827976,9.646651,3.7958984,-1.0444355
2.068,-6.058791,39.088753,5.2469845,9.1552925,3.6065922,-1.0575347
2.07,-7.3738694,38.559887,5.68515,8.731468,3.526058,-1.0544412
2.072,-8.604209,38.026764,6.1146216,8.368678,3.5416942,-1.033539
2.074,-9.7535095,37.489742,6.5126934,8.059309,3.6392365,-0.99414873
2.076,-10.825902,36.95005,6.8611298,7.795082,3.8033824,-0.93621874
2.078,-11.824761,36.408783,7.1457825,7.5675015,4.018329,-0.8601074
2.08,-12.7539215,35.867813,7.3551,7.368149,4.268318,-0.7664802
2.082,-13.617067,35.329617,7.480352,7.1889443,4.538204,-0.6562464
2.084,-14.41777,34.796944,7.5160766,7.0222898,4.8137465,-0.53049517
2.086,-15.159296,34.272575,7.4601946,6.861188,5.0819287,-0.39027882
2.088,-15.844671,33.759735,7.313541,6.699381,5.331368,-0.23650599
2.09,-16.476974,33.261456,7.079824,6.531393,5.5523863,-0.06992197
2.092,-17.059683,32.781097,6.7658086,6.352567,5.7369595,0.10896182
2.094,-17.59605,32.32199,6.381091,6.1591372,5.87873,0.29989457
2.096,-18.089066,31.887072,5.9365783,5.9482474,5.973003,0.5028198
2.098,-18.541315,31.477644,5.4449186,5.717949,6.016546,0.71772933
2.1,-18.95452,31.093845,4.9194603,5.4671555,6.0074205,0.94447803
2.102,-19.330647,30.735031,4.373841,5.195557,5.9447703,1.1826216
2.104,-19.671127,30.399998,3.8216643,4.903519,5.828653,1.4313316
2.106,-19.976048,30.086555,3.2762976,4.5920124,5.659903,1.6892611
2.108,-20.245247,29.792133,2.7502832,4.2625523,5.440036,1.9543751
2.11,-20.47847,29.513773,2.2555737,3.9170685,5.171147,2.2239823
2.112,-20.675219,29.247711,1.8034892,3.5577698,4.855847,2.4948134
2.114,-20.834425,28.989391,1.4045362,3.1870623,4.497275,2.7630556
2.116,-20.955002,28.734455,1.0672226,2.8074496,4.099067,3.0244496
2.118,-21.035736,28.478409,0.79888964,2.4214716,3.665381,3.2744148
2.12,-21.075804,28.216747,0.6058984,2.0316024,3.2008717,3.5082288
2.122,-21.07418,27.94525,0.49303532,1.640158,2.7106755,3.7212636
2.124,-21.030302,27.659906,0.4633627,1.2492535,2.2003033,3.9092243
2.126,-20.943758,27.357307,0.51826,0.86070585,1.6755204,4.0683193
2.128,-20.814552,27.034664,0.65766287,0.47605294,1.1422284,4.1954684
2.13,-20.643358,26.689909,0.88069344,0.09656012,0.60635775,4.288408
2.132,-20.430788,26.321749,1.1855454,-0.2767688,0.07376897,4.3457603
2.134,-20.178223,25.929884,1.5692959,-0.6431011,-0.44989875,4.367079
2.136,-19.887505,25.514439,2.027986,-1.0016919,-0.9592932,4.35282
2.138,-19.560522,25.075815,2.5567627,-1.3517911,-1.4494063,4.3042355
2.14,-19.199572,24.61501,3.1496167,-1.6925728,-1.9156215,4.2232814
2.142,-18.807774,24.133919,3.7994494,-2.0230942,-2.353738,4.112517
2.144,-18.38825,23.6351,4.4989524,-2.3422236,-2.759953,3.9749575
2.146,-17.944342,23.121458,5.239952,-2.6486826,-3.130864,3.8138819
2.148,-17.479322,22.59654,6.0134583,-2.9411244,-3.4634962,3.63271
2.15,-16.996433,22.063702,6.8102365,-3.2182155,-3.7553759,3.4349208
2.152,-16.499247,21.526657,7.6208425,-3.478716,-4.004475,3.2239375
2.154,-15.99135,20.989399,8.436364,-3.7215943,-4.209231,3.0030599
2.156,-15.476065,20.455862,9.247804,-3.9460902,-4.368572,2.7753997
2.158,-14.956393,19.929926,10.046453,-4.1517344,-4.4818683,2.5438337
2.16,-14.434799,19.41503,10.823737,-4.338421,-4.5489173,2.3109899
2.162,-13.913427,18.914354,11.571892,-4.5063677,-4.569964,2.079319
2.164,-13.394069,18.431086,12.283432,-4.656048,-4.5456505,1.8510327
2.166,-12.878261,17.967926,12.95204,-4.7881937,-4.477048,1.628037
2.168,-12.366983,17.52744,13.572333,-4.9037414,-4.365637,1.4121132
2.17,-11.861016,17.112219,14.139931,-5.0037894,-4.213328,1.2049145
2.172,-11.360672,16.724659,14.651016,-5.08957,-4.022459,1.0079498
2.174,-10.865177,16.366499,15.102816,-5.1623616,-3.7957373,0.82247376
2.176,-10.373964,16.039488,15.493076,-5.22347,-3.5361304,0.64941394
2.178,-9.886362,15.744837,15.820199,-5.274225,-3.2468653,0.4893329
2.18,-9.40145,15.483421,16.083508,-5.315937,-2.931375,0.3424605
2.182,-8.918219,15.255552,16.28318,-5.3498807,-2.5931575,0.20868611
2.184,-8.435642,15.061555,16.419989,-5.3772964,-2.2357101,0.08756268
2.186,-7.9524574,14.900802,16.495628,-5.399372,-1.8624893,-0.021659255
2.188,-7.46706,14.772524,16.511932,-5.417277,-1.4768649,-0.11999071
2.19,-6.9781694,14.675358,16.471004,-5.4321637,-1.0821167,-0.20858598
2.192,-6.4843473,14.607638,16.375118,-5.4451733,-0.6813682,-0.2886778
2.194,-5.9845133,14.567173,16.226969,-5.457404,-0.27761462,-0.36152613
2.196,-5.477875,14.551547,16.029472,-5.4699125,0.12629858,-0.42838347
2.198,-4.9640694,14.558374,15.785582,-5.4837117,0.5276812,-0.4904673
2.2,-4.442551,14.585099,15.498437,-5.4997163,0.9240002,-0.54893506
2.202,-3.9134173,14.629386,15.171211,-5.5187306,1.3129064,-0.6048893
2.204,-3.376799,14.688434,14.807226,-5.541443,1.6922387,-0.6593751
2.206,-2.8332558,14.759471,14.409939,-5.568424,2.0600314,-0.7133812
2.208,-2.283535,14.839838,13.982933,-5.6001673,2.4144528,-0.7678534
2.21,-1.7280996,14.926943,13.529654,-5.6370897,2.7538269,-0.8236481
2.212,-1.1683962,15.018358,13.0532255,-5.67955,3.076585,-0.8814322
2.214,-0.6055944,15.111832,12.557359,-5.727845,3.3812695,-0.94170904
2.216,-0.04125762,15.205332,12.045785,-5.782216,3.6664906,-1.0048606
2.218,0.52318144,15.296931,11.52223,-5.8428483,3.9309287,-1.0711528
2.22,1.0857762,15.385062,10.990006,-5.909852,4.173337,-1.1407484
2.222,1.6448087,15.468107,10.452816,-5.9832497,4.3924913,-1.2138218
2.224,2.198488,15.544816,9.914244,-6.0629616,4.587267,-1.2906296
2.226,2.7451563,15.613943,9.377934,-6.1488056,4.7567105,-1.3714799
2.228,3.2833576,15.674509,8.84763,-6.2404785,4.9000993,-1.4567406
2.23,3.8113308,15.725731,8.326921,-6.3375263,5.016954,-1.5468106
2.232,4.3277516,15.7670145,7.819568,-6.4393716,5.1071434,-1.6421187
2.234,4.8313484,15.79791,7.3292985,-6.5453005,5.1709375,-1.7430375
2.236,5.3210263,15.818284,6.8594246,-6.654503,5.2090454,-1.8498333
2.238,5.795625,15.828192,6.413351,-6.766038,5.222611,-1.9625483
2.24,6.254408,15.82768,5.9939823,-6.8788395,5.213338,-2.080937
2.242,6.696512,15.817236,5.603937,-6.991782,5.18341,-2.2044296
2.244,7.121789,15.797234,5.2454677,-7.1037006,5.135349,-2.332131
2.246,7.5303154,15.768787,4.920436,-7.2134156,5.0720515,-2.4628346
2.248,7.9220934,15.733301,4.630126,-7.319767,4.9967995,-2.5950634
2.25,8.297511,15.692142,4.37535,-7.4216356,4.913023,-2.7271614
2.252,8.657238,15.646719,4.1567345,-7.518033,4.8242064,-2.8573694
2.254,9.002087,15.598616,3.9739487,-7.608073,4.7338934,-2.9839034
2.256,9.332981,15.549606,3.8264098,-7.690975,4.6455255,-3.1050797
2.258,9.650744,15.501605,3.7130008,-7.766103,4.5623903,-3.2193737
2.26,9.95657,15.456472,3.6321306,-7.8329577,4.487527,-3.3254755
2.262,10.251818,15.416374,3.5817032,-7.8911443,4.423714,-3.4223707
2.264,10.537949,15.382969,3.5591187,-7.940325,4.373389,-3.5094097
2.266,10.816626,15.357976,3.5614972,-7.9802637,4.3385973,-3.5862968
2.268,11.08967,15.34288,3.5857835,-8.010783,4.3209567,-3.6530359
2.27,11.358601,15.33886,3.6287637,-8.0317335,4.32165,-3.7098823
2.272,11.625412,15.346939,3.686836,-8.04296,4.3414145,-3.7572813
2.274,11.891749,15.367577,3.7565825,-8.044285,4.3805933,-3.7958682
2.276,12.159481,15.401098,3.8345172,-8.035519,4.4391828,-3.8264341
2.278,12.43042,15.447475,3.917069,-8.016486,4.516809,-3.849792
2.28,12.706269,15.506523,4.000637,-7.9870105,4.6128063,-3.866799
2.282,12.988544,15.577676,4.082155,-7.946948,4.7262793,-3.8782656
2.284,13.278414,15.660395,4.158538,-7.8961835,4.856168,-3.8849275
2.286,13.57778,15.753395,4.2270675,-7.8346577,5.0013366,-3.8874648
2.288,13.887966,15.855753,4.285196,-7.762352,5.1605477,-3.8864758
2.29,14.210073,15.96628,4.330499,-7.6793184,5.332547,-3.8825152
2.292,14.544928,16.083872,4.3608193,-7.585662,5.516062,-3.87608
2.294,14.893303,16.207047,4.3744526,-7.4816065,5.7097645,-3.8676574
2.296,15.255737,16.334393,4.3698444,-7.3673706,5.9123898,-3.8576934
2.298,15.632333,16.464527,4.3458204,-7.243226,6.122747,-3.8466272
2.3,16.022942,16.596336,4.3014197,-7.109508,6.339574,-3.8348942
2.302,16.42712,16.728733,4.2357893,-6.9665995,6.561589,-3.8228903
2.304,16.84428,16.860474,4.148246,-6.8149133,6.787571,-3.8109868
2.306,17.273476,16.99054,4.038452,-6.6548643,7.0163727,-3.7995372
2.308,17.71371,17.11767,3.9063697,-6.4868784,7.246843,-3.7888236
2.31,18.163248,17.240839,3.7519512,-6.3113956,7.4778614,-3.7790785
2.312,18.62041,17.358799,3.575395,-6.1288223,7.708339,-3.7704651
2.314,19.083227,17.4707,3.3769093,-5.939546,7.9372134,-3.763059
2.316,19.549564,17.575356,3.1570215,-5.743918,8.163471,-3.7568526
2.318,20.017183,17.671358,2.9162683,-5.5422564,8.38613,-3.7517538
2.32,20.48306,17.757357,2.6555605,-5.334846,8.604174,-3.7476208
2.322,20.944946,17.831684,2.3762155,-5.1219244,8.816519,-3.744249
2.324,21.400139,17.892796,2.0791683,-4.9036684,9.022086,-3.7414174
2.326,21.845865,17.938896,1.7655935,-4.680229,9.219728,-3.7388718
2.328,22.279247,17.968197,1.4371548,-4.451657,9.408201,-3.7363465
2.33,22.697567,17.978737,1.0960455,-4.21793,9.586204,-3.73359
2.332,23.097805,17.968607,0.7445345,-3.978961,9.7523575,-3.7303796
2.334,23.477242,17.93587,0.3851509,-3.734601,9.905229,-3.7264957
2.336,23.833145,17.878723,0.020947456,-3.4846468,10.043332,-3.7217429
2.338,24.162832,17.795567,-0.34495258,-3.2288842,10.16518,-3.715952
2.34,24.464146,17.685,-0.7090111,-2.9671507,10.269319,-3.7089286
2.342,24.734997,17.545965,-1.0676441,-2.6994295,10.354307,-3.7004442
2.344,24.97372,17.378082,-1.4169226,-2.4259028,10.418757,-3.690215
2.346,25.178947,17.18121,-1.7527161,-2.1469717,10.461391,-3.6778915
2.348,25.349792,16.955914,-2.0708485,-1.8633046,10.481032,-3.663025
2.35,25.485718,16.70332,-2.3673248,-1.5758791,10.476575,-3.6450481
2.352,25.586597,16.425264,-2.638133,-1.2859488,10.447046,-3.6232424
2.354,25.652676,16.124273,-2.8795204,-0.99499846,10.391655,-3.5967546
2.356,25.6848,15.803059,-3.0878086,-0.70471287,10.309842,-3.5646276
2.358,25.684103,15.465174,-3.2597952,-0.41688466,10.201307,-3.5258412
2.36,25.652142,15.114391,-3.3926315,-0.13333893,10.066087,-3.4794285
2.362,25.59085,14.754946,-3.484068,0.1441518,9.904634,-3.4245474
2.364,25.502441,14.391065,-3.5322094,0.41394567,9.717834,-3.3605056
2.366,25.389656,14.02722,-3.5359573,0.6746353,9.507088,-3.2868824
2.368,25.25525,13.667843,-3.4947567,0.92513144,9.274255,-3.2035728
2.37,25.101955,13.317228,-3.4087086,1.164654,9.021596,-3.1108282
2.372,24.93272,12.979238,-3.2785711,1.3928179,8.751759,-3.0092995
2.374,24.750443,12.65764,-3.1056585,1.6096488,8.467766,-2.9000058
2.376,24.557938,12.355482,-2.8919039,1.8155496,8.172853,-2.7842965
2.378,24.35782,12.075373,-2.6398468,2.0112233,7.87033,-2.6637971
2.38,24.15277,11.8192425,-2.352498,2.197648,7.56353,-2.5403557
2.382,23.944923,11.588375,-2.0332842,2.3759332,7.255755,-2.4159074
2.384,23.73632,11.383311,-1.6859303,2.5472841,6.9501524,-2.2924368
2.386,23.528265,11.203872,-1.3145599,2.7129245,6.649674,-2.1719134
2.388,23.3221,11.049335,-0.92336273,2.8739748,6.3570366,-2.0562072
2.39,23.118914,10.918037,-0.5165777,3.031404,6.0746746,-1.9470239
2.392,22.919247,10.807951,-0.098711014,3.185951,5.804681,-1.845828
2.394,22.723305,10.716596,0.32575893,3.33816,5.5488343,-1.7538507
2.396,22.530552,10.641352,0.75251675,3.4883533,5.308591,-1.67203
2.398,22.340672,10.578745,1.1775627,3.636619,5.085019,-1.601026
2.4,22.152824,10.525531,1.5968266,3.782824,4.8788457,-1.5412478
2.402,21.966232,10.4779005,2.006464,3.92667,4.6904893,-1.4928877
2.404,21.779606,10.4322405,2.402895,4.0677357,4.5200887,-1.4559629
2.406,21.591734,10.385032,2.7828665,4.205517,4.3675175,-1.4303403
2.408,21.401321,10.332684,3.1435838,4.339444,4.2323833,-1.4157543
2.41,21.207249,10.271827,3.4825006,4.4689355,4.1141124,-1.4118159
2.412,21.007858,10.19932,3.797513,4.5934186,4.0119424,-1.417994
2.414,20.80194,10.112425,4.086907,4.7123537,3.9249797,-1.4336382
2.416,20.588104,10.008791,4.3492317,4.825236,3.852173,-1.4580011
2.418,20.36492,9.886524,4.5834384,4.9316416,3.7923732,-1.4902421
2.42,20.131624,9.744172,4.788935,5.031186,3.7443027,-1.5294421
2.422,19.88717,9.580843,4.965495,5.1235466,3.7066045,-1.5746068
2.424,19.631031,9.395865,5.1132035,5.2084737,3.6778183,-1.6246859
2.426,19.362436,9.189351,5.232447,5.285762,3.6564126,-1.6785632
2.428,19.081093,8.9618435,5.3240542,5.3552446,3.6408038,-1.7351081
2.43,18.786993,8.714413,5.389134,5.4167957,3.6294084,-1.793182
2.432,18.48026,8.448439,5.429034,5.4703283,3.6206415,-1.8516841
2.434,18.160942,8.165737,5.4452643,5.5157766,3.6130004,-1.9095421
2.436,17.829485,7.8686123,5.439655,5.5531054,3.6050382,-1.9657682
2.438,17.486599,7.559507,5.414053,5.5822544,3.5954037,-2.019392
2.44,17.133003,7.2410736,5.3705463,5.6031723,3.582911,-2.0695305
2.442,16.769964,6.9161787,5.311149,5.615813,3.5664732,-2.1154099
2.444,16.398552,6.5876994,5.2382193,5.620156,3.5451732,-2.156376
2.446,16.02008,6.2585764,5.15381,5.616232,3.5182285,-2.191893
2.448,15.635851,5.9317455,5.0601344,5.6041217,3.4850152,-2.2215927
2.45,15.247246,5.609935,4.95944,5.583946,3.4450402,-2.2452564
2.452,14.856184,5.2956104,4.8538256,5.5559034,3.3979683,-2.2628407
2.454,14.464048,4.9910636,4.74543,5.5202494,3.3436093,-2.274442
2.456,14.072455,4.6985474,4.6363535,5.477296,3.2818952,-2.2803168
2.458,13.68317,4.419922,4.528491,5.4273987,3.212915,-2.2808218
2.46,13.297874,4.1569343,4.42377,5.370972,3.1368551,-2.2763681
2.462,12.918217,3.9109306,4.323907,5.308444,3.054007,-2.2673917
2.464,12.545952,3.6827407,4.2305117,5.2402716,2.9647455,-2.2543104
2.466,12.182699,3.473202,4.1449227,5.1669383,2.8695455,-2.2375166
2.468,11.830159,3.2826695,4.068325,5.0889463,2.7689228,-2.217327
2.47,11.489713,3.1114736,4.001791,5.0068045,2.6634562,-2.1939723
2.472,11.16278,2.9594834,3.9462566,4.9210124,2.5537403,-2.167602
2.474,10.850647,2.826311,3.9023583,4.8320613,2.440406,-2.1383057
2.476,10.55422,2.7112503,3.8706715,4.7403893,2.3240843,-2.1061478
2.478,10.274457,2.6135144,3.8515334,4.646395,2.205417,-2.0712144
2.48,10.01216,2.5320146,3.845052,4.5504413,2.0849967,-2.0336587
2.482,9.767838,2.4656553,3.851256,4.4528384,1.9633569,-1.9937153
2.484,9.541782,2.4131734,3.8698983,4.353897,1.8409758,-1.9517182
2.486,9.33428,2.3731406,3.900825,4.2539077,1.7182574,-1.908124
2.488,9.14522,2.3442457,3.9434857,4.153178,1.5955293,-1.8634992
2.49,8.974218,2.325011,3.9974759,4.05203,1.4730468,-1.8184993
2.492,8.821119,2.3138874,4.062077,3.9508092,1.3510071,-1.7738588
2.494,8.685154,2.3097365,4.1364155,3.8498878,1.2295554,-1.7302915
2.496,8.565715,2.311158,4.2197304,3.7496545,1.1088133,-1.6884661
2.498,8.46187,2.316823,4.3111935,3.6504607,0.98887974,-1.6489632
2.5,8.37254,2.3258374,4.409786,3.5526178,0.8698698,-1.6122282
2.502,8.296625,2.3372111,4.5146885,3.4563913,0.7519178,-1.5785241
2.504,8.233102,2.350015,4.624936,3.3619945,0.6351722,-1.547946
2.506,8.180744,2.363628,4.7396355,3.2695758,0.51980865,-1.5204018
2.508,8.138186,2.3775759,4.857812,3.1792252,0.40601268,-1.4956787
2.51,8.1043,2.391366,4.978618,3.0910175,0.29399422,-1.4734657
2.512,8.077718,2.4047365,5.1012015,3.0049965,0.1839529,-1.4534122
2.514,8.057368,2.4174628,5.2247567,2.9211855,0.07609308,-1.435165
2.516,8.041943,2.4293666,5.348573,2.8396184,-0.029396772,-1.4183881
2.518,8.030315,2.4404874,5.4718323,2.7603278,-0.1323775,-1.4027789
2.52,8.0212755,2.450785,5.5939646,2.683312,-0.23275256,-1.3880911
2.522,8.013979,2.4602857,5.7144275,2.6085653,-0.33044457,-1.3741523
2.524,8.007516,2.4690657,5.8328524,2.536077,-0.42542416,-1.3608637
2.526,8.000867,2.4770765,5.948723,2.4658134,-0.517674,-1.3481941
2.528,7.993347,2.4844677,6.061701,2.3977258,-0.60719746,-1.3361659
2.53,7.984269,2.491116,6.1714935,2.331764,-0.69400173,-1.3248166
2.532,7.973099,2.4969978,6.2779074,2.2678618,-0.77808475,-1.3142033
2.534,7.9592366,2.5020452,6.380725,2.2059312,-0.85943776,-1.3043934
2.536,7.9425273,2.5062003,6.479802,2.1458893,-0.9380175,-1.2954509
2.538,7.922425,2.5095444,6.575063,2.0876374,-1.0137831,-1.2874379
2.54,7.8988056,2.5118625,6.66654,2.0310798,-1.0866914,-1.2803942
2.542,7.871599,2.513075,6.754161,1.976116,-1.1567072,-1.2743182
2.544,7.840995,2.5128546,6.8380957,1.9226354,-1.2237941,-1.2691727
2.546,7.807029,2.511081,6.918529,1.8705486,-1.2879206,-1.2648892
2.548,7.7698846,2.5076199,6.995679,1.819736,-1.349067,-1.2613862
2.55,7.729721,2.5024672,7.069826,1.7700814,-1.4072175,-1.2585453
2.552,7.6868052,2.4956021,7.1412334,1.7214844,-1.462369,-1.2562371
2.554,7.6415524,2.4870257,7.210121,1.6738514,-1.5145208,-1.2543156
2.556,7.5943365,2.4766004,7.276854,1.6271033,-1.5636977,-1.2526321
2.558,7.5455956,2.4644341,7.3418207,1.5811757,-1.6099167,-1.2510371
2.56,7.495779,2.4504652,7.405226,1.5360401,-1.6532016,-1.2493933
2.562,7.444992,2.434951,7.467504,1.4916887,-1.6935803,-1.2475629
2.564,7.3938994,2.4178996,7.5288897,1.4481214,-1.7310685,-1.2454276
2.566,7.342956,2.3993325,7.5896816,1.4053676,-1.7656772,-1.2428958
2.568,7.2925096,2.3792644,7.650001,1.3634706,-1.7973987,-1.239882
2.57,7.2427974,2.3577397,7.710119,1.3224871,-1.8261967,-1.2363448
2.572,7.194259,2.334743,7.7702856,1.2824565,-1.8520352,-1.2322619
2.574,7.147185,2.310461,7.830696,1.2434413,-1.8748467,-1.227623
2.576,7.101669,2.284958,7.891585,1.2054838,-1.8945601,-1.2224426
2.578,7.0578947,2.2583444,7.953073,1.1686069,-1.91109,-1.216754
2.58,7.016123,2.2305923,8.015244,1.1328498,-1.9243579,-1.2105954
2.582,6.976426,2.2018661,8.078112,1.0982362,-1.9343067,-1.2040209
2.584,6.938828,2.1722383,8.141757,1.0647881,-1.9408753,-1.197103
2.586,6.9034114,2.14173,8.206276,1.0325236,-1.9440337,-1.1899152
2.588,6.8701296,2.1104362,8.271738,1.0014677,-1.9437605,-1.1825385
2.59,6.8389564,2.0783575,8.338071,0.97162384,-1.9400643,-1.1750814
2.592,6.8097954,2.0454404,8.405272,0.94299555,-1.9329617,-1.167632
2.594,6.7826786,2.0117345,8.473308,0.91557485,-1.9224911,-1.1602942
2.596,6.7573137,1.9773173,8.5420475,0.8893586,-1.9086926,-1.1531675
2.598,6.7336187,1.9421895,8.611504,0.8643073,-1.8916179,-1.1463218
2.6,6.7114334,1.9064659,8.681513,0.8403676,-1.8713093,-1.1398225
2.602,6.690479,1.8701919,8.752065,0.8174887,-1.8478053,-1.1337038
2.604,6.6707096,1.8333738,8.823016,0.7956117,-1.8211144,-1.127986
2.606,6.651843,1.7961597,8.894137,0.7746719,-1.7912459,-1.1226388
2.608,6.6337976,1.758578,8.965248,0.75461215,-1.7581902,-1.1176412
2.61,6.6162553,1.7207144,9.036239,0.7353777,-1.7219255,-1.112943
2.612,6.599119,1.6826432,9.106818,0.71695364,-1.6824131,-1.1084752
2.614,6.582124,1.6444609,9.176824,0.6993127,-1.6396189,-1.1041703
2.616,6.5651684,1.6062326,9.246045,0.6824355,-1.5935009,-1.0999668
2.618,6.548146,1.568192,9.314276,0.66632617,-1.5440333,-1.0957944
2.62,6.530859,1.5304239,9.38127,0.6509709,-1.4912095,-1.091591
2.622,6.513325,1.4930804,9.446823,0.6363655,-1.4350437,-1.0873077
2.624,6.495335,1.4562551,9.510741,0.622483,-1.3755856,-1.0828928
2.626,6.476928,1.4201959,9.572763,0.6093037,-1.3128885,-1.0783076
2.628,6.457962,1.3850205,9.632672,0.596787,-1.2470347,-1.0735332
2.63,6.438437,1.3508883,9.69025,0.58489215,-1.178134,-1.0685645
2.632,6.4183445,1.3179471,9.745313,0.57357335,-1.1063204,-1.0634065
2.634,6.397523,1.2862365,9.797638,0.56276125,-1.0317382,-1.0580738
2.636,6.3763394,1.2560186,9.847309,0.5523943,-0.95455134,-1.0525905
2.638,6.354583,1.2273877,9.894098,0.5424023,-0.87494683,-1.0469749
2.64,6.332381,1.2004035,9.938068,0.532719,-0.7931035,-1.0412503
2.642,6.309735,1.1750517,9.979093,0.52326894,-0.70923626,-1.0354315
2.644,6.286686,1.1514462,10.017223,0.51398784,-0.6235448,-1.0295275
2.646,6.2633305,1.1295171,10.052458,0.50479895,-0.5362401,-1.023544
2.648,6.2397733,1.1093248,10.084791,0.49562708,-0.44751626,-1.0174826
2.65,6.216099,1.0908458,10.114308,0.48639584,-0.35758004,-1.0113349
2.652,6.192457,1.074036,10.141125,0.4770311,-0.26661468,-1.0051146
2.654,6.1688676,1.0589085,10.165194,0.46746853,-0.1748052,-0.9988134
2.656,6.1454287,1.0453795,10.186697,0.4576451,-0.08231899,-0.99243844
2.658,6.122185,1.0333972,10.20562,0.44748867,0.010680944,-0.9859892
2.66,6.09935,1.0229294,10.221975,0.43693858,0.104052395,-0.9794885
2.662,6.0769386,1.0138236,10.235882,0.4259449,0.19767442,-0.97293526
2.664,6.0551744,1.0060451,10.247409,0.41443872,0.29142702,-0.96634763
2.666,6.034076,0.999455,10.256573,0.4023511,0.38519242,-0.9597504
2.668,6.0136786,0.9939487,10.263295,0.38962737,0.47885615,-0.95315677
2.67,5.9942126,0.98946416,10.267589,0.3761919,0.5722978,-0.94656825
2.672,5.97571,0.98580086,10.269528,0.36196798,0.66539687,-0.94001555
2.674,5.958103,0.98301566,10.269171,0.34689283,0.75804186,-0.93353146
2.676,5.9414744,0.9809278,10.266431,0.3309031,0.8501103,-0.92714167
2.678,5.925816,0.9794717,10.2614155,0.31395584,0.9414767,-0.9208882
2.68,5.911173,0.9785322,10.254192,0.2960037,1.0320053,-0.9148161
2.682,5.8975616,0.9780197,10.244776,0.2770232,1.1215746,-0.90896
2.684,5.884966,0.977859,10.233204,0.25701717,1.2100837,-0.90335506
2.686,5.873426,0.9781041,10.219452,0.23599042,1.2974367,-0.8980264
2.688,5.8629766,0.9785695,10.203676,0.21397167,1.3835635,-0.89300627
2.69,5.853415,0.97928727,10.185938,0.19099766,1.4684031,-0.8882929
2.692,5.844863,0.98013353,10.166247,0.16709812,1.5519154,-0.88387513
2.694,5.83732,0.9811909,10.144791,0.14230089,1.6340656,-0.8797129
2.696,5.8307114,0.9824872,10.12154,0.11662549,1.7148322,-0.875753
2.698,5.825073,0.98392224,10.096637,0.09007549,1.7941835,-0.8719172
2.7,5.820337,0.98566437,10.07015,0.062634885,1.8720777,-0.868121
2.702,5.816547,0.98767865,10.042244,0.034281135,1.9484836,-0.86426187
2.704,5.813654,0.98998594,10.013059,0.004965842,2.0233588,-0.86024964
2.706,5.811659,0.992702,9.982622,-0.025366157,2.0966446,-0.85598356
2.708,5.8106866,0.9958389,9.951048,-0.05676973,2.1682835,-0.8513897
2.71,5.8106565,0.9994755,9.918396,-0.08930853,2.238206,-0.8464089
2.712,5.811454,1.0037085,9.88482,-0.123031855,2.3063276,-0.8410188
2.714,5.81308,1.0085745,9.8505,-0.15798706,2.3725936,-0.8352116
2.716,5.815614,1.0141513,9.815528,-0.19421622,2.4369168,-0.82903796
2.718,5.818797,1.0205915,9.780001,-0.23174378,2.4992266,-0.8225511
2.72,5.8227615,1.0278492,9.743975,-0.27059832,2.5594578,-0.8158345
2.722,5.82737,1.0361366,9.707555,-0.3107905,2.6175523,-0.8089768
2.724,5.8324747,1.0455403,9.670858,-0.35232392,2.6734574,-0.8020853
2.726,5.8379927,1.0560846,9.633906,-0.39520434,2.7271488,-0.7952385
2.728,5.843759,1.0677967,9.596769,-0.43944025,2.7785878,-0.7885076
2.73,5.8496904,1.0808628,9.55961,-0.48503423,2.8277543,-0.78194284
2.732,5.8556194,1.0954261,9.522408,-0.53199536,2.8746524,-0.77556455
2.734,5.8615026,1.1115745,9.485182,-0.58031684,2.9192886,-0.76938725
2.736,5.8671193,1.129317,9.447954,-0.6299987,2.961657,-0.7633918
2.738,5.872354,1.1487463,9.410839,-0.6810583,3.0017655,-0.75753736
2.74,5.87712,1.1700203,9.373893,-0.7335026,3.0396125,-0.75178087
2.742,5.8811936,1.1932372,9.337163,-0.7873454,3.0751963,-0.7460511
2.744,5.8845468,1.2185613,9.300606,-0.8426013,3.1085262,-0.740287
2.746,5.8868847,1.2460203,9.264237,-0.8992903,3.1395926,-0.7344278
2.748,5.8883424,1.2757663,9.228179,-0.9574397,3.1683965,-0.7284158
2.75,5.8886914,1.3080307,9.19235,-1.0170685,3.1949227,-0.7221868
2.752,5.8879414,1.3429346,9.156936,-1.0782025,3.2191615,-0.7156905
2.754,5.8860908,1.3805212,9.121872,-1.1408572,3.2411163,-0.70888805
2.756,5.883137,1.4209914,9.087281,-1.2050583,3.2607608,-0.70173794
2.758,5.8791475,1.4643564,9.0532465,-1.2708149,3.2780929,-0.6942057
2.76,5.874178,1.5107895,9.01972,-1.3381219,3.2931092,-0.6862615
2.762,5.868204,1.5603813,8.986768,-1.4069891,3.3058228,-0.6778583
2.764,5.861545,1.6131568,8.954568,-1.4774036,3.3162704,-0.66894007
2.766,5.854254,1.6691624,8.922978,-1.549351,3.3245108,-0.65944827
2.768,5.8465505,1.7284529,8.8922,-1.6228255,3.3306065,-0.64930755
2.77,5.838636,1.791086,8.86227,-1.6978137,3.334661,-0.63841885
2.772,5.830643,1.8570422,8.833193,-1.774307,3.3368118,-0.6267017
2.774,5.8227825,1.9262985,8.804944,-1.8522964,3.337196,-0.6140778
2.776,5.8152843,1.9989977,8.777706,-1.9317724,3.335986,-0.6004667
2.778,5.808442,2.0749912,8.751417,-2.0127153,3.333361,-0.5857965
2.78,5.8023443,2.1543994,8.726133,-2.0950923,3.3295045,-0.57002324
2.782,5.7971706,2.237275,8.701573,-2.1788673,3.324621,-0.5531167
2.784,5.7931914,2.323523,8.677668,-2.2639964,3.3188968,-0.53506064
2.786,5.7904067,2.413157,8.654404,-2.3504314,3.312507,-0.51583916
2.788,5.7890162,2.5062292,8.631573,-2.438105,3.305616,-0.49544054
2.79,5.788982,2.602806,8.608985,-2.52696,3.2983954,-0.47385854
2.792,5.7902546,2.7029235,8.586515,-2.6169245,3.2909763,-0.45108587
2.794,5.7926903,2.8067245,8.563901,-2.7079403,3.2834954,-0.42710268
2.796,5.796343,2.914099,8.540851,-2.79994,3.2760618,-0.40188456
2.798,5.800935,3.025375,8.517098,-2.8928764,3.2687616,-0.37540567
2.8,5.80649,3.140576,8.492261,-2.9866767,3.2616816,-0.34764016
2.802,5.81269,3.2597275,8.466015,-3.0812721,3.2548976,-0.31856906
2.804,5.819246,3.3829226,8.437884,-3.1765966,3.2484832,-0.28817523
2.806,5.8258524,3.5103323,8.407558,-3.2725694,3.242476,-0.25644684
2.808,5.8323236,3.6419303,8.374616,-3.3691206,3.2369096,-0.22338593
2.81,5.8379793,3.7778645,8.338672,-3.4661717,3.231802,-0.18901908
2.812,5.8424683,3.9182615,8.299163,-3.5636396,3.2271502,-0.15336227
2.814,5.845446,4.0631933,8.255738,-3.66145,3.222933,-0.116452456
2.816,5.846381,4.2127843,8.207893,-3.7595294,3.2190757,-0.078332424
2.818,5.844591,4.367215,8.155016,-3.8577971,3.215479,-0.039051533
2.82,5.8399887,4.5266204,8.096779,-3.9561834,3.21201,0.0013376474
2.822,5.8321033,4.6909175,8.032644,-4.054614,3.20851,0.042757988
2.824,5.8202887,4.8602095,7.9621987,-4.1530232,3.2047882,0.085137606
2.826,5.80422,5.034576,7.8851204,-4.25135,3.2006102,0.12840354
2.828,5.7834544,5.213889,7.8011622,-4.34954,3.195715,0.17247415
2.83,5.75762,5.3981447,7.7100153,-4.447549,3.1898081,0.21725214
2.832,5.726425,5.587206,7.6115065,-4.545342,3.1825724,0.26265454
2.834,5.689439,5.781053,7.505471,-4.642907,3.1736712,0.30861068
2.836,5.646634,5.9793973,7.391913,-4.740221,3.1627688,0.35504138
2.838,5.597775,6.182125,7.2707157,-4.8372746,3.149538,0.40186286
2.84,5.542632,6.388982,7.141858,-4.9340534,3.1336286,0.44900334
2.842,5.4812818,6.599638,7.005397,-5.0305886,3.1147094,0.4964019
2.844,5.4136114,6.813852,6.861616,-5.1269035,3.0924654,0.54400027
2.846,5.339864,7.0312877,6.7107034,-5.2230067,3.0666342,0.59173405
2.848,5.2601624,7.2516665,6.5527487,-5.3189063,3.036962,0.63954234
2.85,5.1748,7.4744487,6.388141,-5.4146247,3.0032413,0.6873772
2.852,5.0841827,7.6990843,6.2171993,-5.5101566,2.965294,0.7352084
2.854,4.988796,7.924996,6.0404043,-5.6055155,2.922958,0.783021
2.856,4.889085,8.151525,5.8581038,-5.7007093,2.8760738,0.83083725
2.858,4.785533,8.37788,5.670884,-5.7957363,2.82453,0.8786833
2.86,4.678863,8.603322,5.4793415,-5.890606,2.7682266,0.9265965
2.862,4.5696626,8.8270645,5.284009,-5.9852986,2.707071,0.97461116
2.864,4.458619,9.048246,5.0856333,-6.0797777,2.6410227,1.0227047
2.866,4.346365,9.265992,4.8848777,-6.1739645,2.5700793,1.0708094
2.868,4.2335434,9.47937,4.682466,-6.2677083,2.4942966,1.1187851
2.87,4.121126,9.687414,4.479115,-6.3607864,2.413816,1.1664269
2.872,4.0097275,9.88918,4.275585,-6.4529123,2.3288286,1.213512
2.874,3.9000509,10.083736,4.0726576,-6.543732,2.239595,1.259776
2.876,3.7928898,10.270168,3.871113,-6.632842,2.1464365,1.3049768
2.878,3.6888924,10.447525,3.671673,-6.719816,2.0497258,1.3488922
2.88,3.5887122,10.614812,3.4751422,-6.804238,1.9498991,1.3913616
2.882,3.4931479,10.771362,3.282211,-6.885694,1.847406,1.4323117
2.884,3.402591,10.916326,3.0935166,-6.9638414,1.7427014,1.4717329
2.886,3.3177779,11.048945,2.909692,-7.0383596,1.6362555,1.5096941
2.888,3.2391672,11.168629,2.7314484,-7.1089935,1.528499,1.5463169
2.89,3.1670778,11.274685,2.5592935,-7.1755705,1.4198339,1.5817646
2.892,3.1020396,11.366518,2.3939083,-7.2379265,1.310654,1.6161901
2.894,3.0443435,11.4438305,2.2356317,-7.295927,1.2013252,1.6497192
2.896,2.9941602,11.506369,2.0849032,-7.3494353,1.0921886,1.6824418
2.898,2.9517121,11.553862,1.9421434,-7.3983426,0.98354626,1.7143897
2.9,2.91708,11.586046,1.8074727,-7.4425006,0.8756964,1.7455622
2.902,2.8901448,11.603092,1.6811907,-7.4817524,0.76893044,1.7758899
2.904,2.8709583,11.604981,1.5634356,-7.5158987,0.663553,1.80527
2.906,2.859258,11.592077,1.4543715,-7.5447373,0.55984783,1.8335655
2.908,2.854769,11.5645485,1.3539317,-7.5680356,0.45811176,1.8606362
2.91,2.8570297,11.522936,1.262094,-7.5855703,0.3586526,1.8863467
2.912,2.8656423,11.4679,1.1787622,-7.5971293,0.26177526,1.9105831
2.914,2.8800044,11.400152,1.1037831,-7.6024957,0.16779375,1.9332668
2.916,2.8995435,11.320438,1.0369174,-7.6015186,0.077031374,1.954352
2.918,2.9235342,11.229891,0.9778104,-7.594075,-0.0102036,1.9738307
2.92,2.951444,11.129486,0.9261899,-7.5800953,-0.09359622,1.9917074
2.922,2.9823728,11.020435,0.8817873,-7.559553,-0.17283702,2.0080209
2.924,3.015409,10.903963,0.8441067,-7.532457,-0.2476418,2.0228195
2.926,3.0497293,10.781415,0.8127675,-7.4988346,-0.31772447,2.0361443
2.928,3.0845385,10.654096,0.7874062,-7.458736,-0.38282537,2.0480638
2.93,3.1185036,10.5234375,0.76738596,-7.4122257,-0.44272995,2.0586553
2.932,3.1509285,10.391195,0.7522917,-7.3594017,-0.49726605,2.068006
2.934,3.180964,10.2588005,0.7414012,-7.3003635,-0.54629636,2.0762239
2.936,3.2075534,10.127746,0.734174,-7.23524,-0.58975077,2.083426
2.938,3.2299318,9.999613,0.72994685,-7.1641836,-0.62762177,2.0897682
2.94,3.2471843,9.875866,0.7283454,-7.0874,-0.65997124,2.0954223
2.942,3.2586288,9.757718,0.7287185,-7.0051093,-0.68691325,2.1005917
2.944,3.263566,9.646282,0.73058176,-6.9175634,-0.70866215,2.1054935
2.946,3.261212,9.54275,0.7334194,-6.8250766,-0.72550523,2.1103597
2.948,3.2510262,9.447986,0.73697376,-6.7280035,-0.73780453,2.1153922
2.95,3.2326202,9.362626,0.74085927,-6.626707,-0.7459763,2.120776
2.952,3.2053723,9.2872925,0.74477077,-6.521557,-0.7504742,2.1266515
2.954,3.169105,9.222215,0.7483249,-6.412932,-0.75179696,2.1330822
2.956,3.1234386,9.167487,0.7514081,-6.3011823,-0.75042903,2.1400776
2.958,3.0681655,9.122831,0.75396514,-6.186617,-0.7468438,2.1475775
2.96,3.003008,9.088001,0.755816,-6.0694914,-0.74145114,2.1554627
2.962,2.9281478,9.062418,0.7568824,-5.949995,-0.7346083,2.1635492
2.964,2.843298,9.045414,0.75710464,-5.8282413,-0.7265667,2.171594
2.966,2.748635,9.035994,0.7564328,-5.7042885,-0.717518,2.179325
2.968,2.6443586,9.033143,0.7547846,-5.5781183,-0.70752907,2.1864617
2.97,2.530661,9.035527,0.75211334,-5.449659,-0.69657576,2.192708
2.972,2.4077652,9.041853,0.7483418,-5.3187995,-0.6845443,2.1978061
2.974,2.2758954,9.050738,0.74345946,-5.1854353,-0.67126095,2.20155
2.976,2.1354265,9.060753,0.7373302,-5.049472,-0.6564852,2.2038038
2.978,1.9868543,9.07041,0.72985697,-4.9108424,-0.6399449,2.204508
2.98,1.8303173,9.07834,0.72094893,-4.7695346,-0.6213491,2.2036815
2.982,1.6663649,9.08316,0.7103834,-4.625588,-0.6004212,2.201433
2.984,1.4954258,9.083513,0.6980846,-4.4790974,-0.57689327,2.1979282
2.986,1.317994,9.078218,0.68387413,-4.330223,-0.5505451,2.193408
2.988,1.1346023,9.066165,0.6674068,-4.179179,-0.5212146,2.1881511
2.99,0.9457884,9.046447,0.6485188,-4.0262103,-0.48877263,2.182455
2.992,0.7520634,9.018128,0.6270144,-3.8716037,-0.45315623,2.1765828
2.994,0.5541582,8.980533,0.6026933,-3.715636,-0.41435337,2.1707845
2.996,0.35259056,8.933103,0.5752754,-3.55861,-0.37238288,2.1652572
2.998,0.1481201,8.87545,0.5445397,-3.400817,-0.32728815,2.1601496
3,-0.058778524,8.807301,0.5103979,-3.2425184,-0.27912068,2.1555393
3.002,-0.26735854,8.728627,0.47254205,-3.0839639,-0.22795522,2.151467
3.004,-0.47705156,8.639294,0.4309888,-2.9254007,-0.17386991,2.1479006
3.006,-0.68727285,8.539469,0.38559318,-2.767059,-0.11694378,2.1447809
3.008,-0.89741296,8.429441,0.33613467,-2.6091597,-0.057257473,2.1420202
3.01,-1.1067804,8.30969,0.28279495,-2.45191,0.005097568,2.1395264
3.012,-1.3148756,8.180656,0.2253902,-2.295529,0.07000244,2.1371987
3.014,-1.5212916,8.043074,0.16403341,-2.140242,0.13730866,2.134973
3.016,-1.725517,7.897626,0.09883928,-1.986295,0.2068105,2.1328182
3.018,-1.9270874,7.7451854,0.02990222,-1.8339617,0.27821732,2.1307695
3.02,-2.125568,7.5867805,-0.04259658,-1.6835283,0.35119066,2.1288936
3.022,-2.3207912,7.4234204,-0.11847067,-1.5353229,0.42529532,2.1273022
3.024,-2.5121875,7.256026,-0.19741058,-1.3896849,0.5000191,2.1261318
3.026,-2.699609,7.085863,-0.2791828,-1.2469788,0.57478803,2.1255047
3.028,-2.88279,6.91388,-0.36340547,-1.1075416,0.64900076,2.1255274
3.03,-3.0613968,6.741248,-0.44979203,-0.9717063,0.7219995,2.1262665
3.032,-3.235205,6.569106,-0.53788114,-0.83977854,0.7931477,2.1277506
3.034,-3.4041424,6.3985605,-0.6273042,-0.7120143,0.86182666,2.1299486
3.036,-3.5678794,6.2306814,-0.7174897,-0.58863074,0.92747116,2.1327598
3.038,-3.726272,6.066521,-0.80800176,-0.46977305,0.9895806,2.1360176
3.04,-3.8789945,5.907,-0.8982835,-0.35553378,1.0477338,2.139495
3.042,-4.026019,5.752936,-0.98779106,-0.2459555,1.1016012,2.1429338
3.044,-4.1669545,5.6051555,-1.0759716,-0.14103651,1.1509379,2.1460588
3.046,-4.301742,5.464421,-1.1623261,-0.04073763,1.1955738,2.1486108
3.048,-4.430199,5.331346,-1.2462221,0.05498123,1.2354269,2.15034
3.05,-4.5521145,5.2064385,-1.3273456,0.14618868,1.2704697,2.15104
3.052,-4.667529,5.0903916,-1.4051824,0.23294294,1.3007454,2.1505609
3.054,-4.7760015,4.9835377,-1.4793131,0.31528807,1.326339,2.1488008
3.056,-4.8775735,4.886352,-1.5493327,0.39326054,1.3473911,2.1457002
3.058,-4.9719815,4.7991014,-1.6149838,0.46688753,1.3640757,2.1412578
3.06,-5.059424,4.722056,-1.6759732,0.5361735,1.3765947,2.1355207
3.062,-5.1395845,4.6554427,-1.7320666,0.6011246,1.3851761,2.1285672
3.064,-5.2124662,4.5994635,-1.783104,0.6617441,1.3900551,2.1204917
3.066,-5.2781267,4.55417,-1.8290846,0.71804833,1.3914965,2.1113892
3.068,-5.3363433,4.5196266,-1.8699543,0.77007455,1.3897653,2.1013346
3.07,-5.387153,4.495872,-1.9057438,0.8178769,1.3851409,2.090384
3.072,-5.43089,4.482793,-1.936405,0.8615287,1.3779017,2.0785434
3.074,-5.4673758,4.480214,-1.9620827,0.90113515,1.3683251,2.065789
3.076,-5.4966326,4.4879704,-1.9828815,0.9368487,1.3566922,2.052029
3.078,-5.5189753,4.505735,-1.9989992,0.9688384,1.3432746,2.0371556
3.08,-5.534581,4.5331345,-2.0105724,0.99731225,1.3283548,2.021025
3.082,-5.543457,4.5696507,-2.0178764,1.0224907,1.3122027,2.0034535
3.084,-5.5459547,4.614712,-2.0212383,1.0446209,1.2951049,1.9842582
3.086,-5.5423117,4.6675673,-2.020813,1.0639486,1.2773385,1.9632614
3.088,-5.5326905,4.7275195,-2.0169857,1.080732,1.2591879,1.9403043
3.09,-5.517526,4.793707,-2.0100985,1.0952271,1.240919,1.9152572
3.092,-5.497156,4.865285,-2.000482,1.1076813,1.2228099,1.8880341
3.094,-5.472072,4.9414477,-1.9885923,1.1183187,1.2051265,1.858585
3.096,-5.442893,5.0211945,-1.9747655,1.1273546,1.1881053,1.8269078
3.098,-5.409946,5.1035647,-1.9593178,1.134973,1.1719501,1.7930442
3.1,-5.373806,5.1876116,-1.9427431,1.141323,1.1568322,1.7570813
3.102,-5.335113,5.272343,-1.9254289,1.1465411,1.1428912,1.7191406
3.104,-5.294499,5.3568997,-1.9076272,1.1507208,1.130215,1.6793634
3.106,-5.252507,5.440283,-1.889781,1.1539441,1.1188583,1.6378881
3.108,-5.2099805,5.521619,-1.8721913,1.1562791,1.1088407,1.5948681
3.11,-5.1672363,5.6000934,-1.8552456,1.1577766,1.1001507,1.550458
3.112,-5.1251297,5.6748037,-1.8391364,1.1584781,1.0927355,1.5047882
3.114,-5.084259,5.745152,-1.8242483,1.1584328,1.0865235,1.4579675
3.116,-5.045164,5.810295,-1.8107463,1.1576922,1.0814373,1.4100993
3.118,-5.008482,5.8695006,-1.7987028,1.1563096,1.0773776,1.3612629
3.12,-4.9747434,5.9222054,-1.7884618,1.1543462,1.0742277,1.311553
3.122,-4.944458,5.967854,-1.7800069,1.1518704,1.0718654,1.2610472
3.124,-4.918022,6.00589,-1.7733808,1.1489525,1.0701604,1.2098045
3.126,-4.895876,6.03592,-1.7686993,1.1456723,1.068991,1.1579016
3.128,-4.8783727,6.057645,-1.7658627,1.1421142,1.0682112,1.1054195
3.13,-4.8657436,6.0707283,-1.7649335,1.1383427,1.0676895,1.0524757
3.132,-4.858147,6.0750055,-1.7657716,1.1344411,1.0672951,0.99919796
3.134,-4.855877,6.0704308,-1.7684408,1.1304772,1.0668823,0.945757
3.136,-4.858841,6.0568314,-1.7727282,1.1265068,1.0663106,0.8923582
3.138,-4.867255,6.034473,-1.7785476,1.1225755,1.0654345,0.8392228
3.14,-4.8810415,6.003352,-1.7857984,1.118722,1.0641023,0.7866163
3.142,-4.9000893,5.9637027,-1.7943596,1.1149607,1.0621841,0.73480403
3.144,-4.924259,5.9158835,-1.8041369,1.1113002,1.0595591,0.68404984
3.146,-4.9533,5.860156,-1.8149323,1.1077431,1.0561032,0.63460207
3.148,-4.9870806,5.7970576,-1.8266755,1.1042913,1.0517138,0.5866722
3.15,-5.025247,5.727125,-1.83928,1.1009271,1.0463203,0.54042727
3.152,-5.0675316,5.6508307,-1.8526188,1.0976621,1.0398611,0.4959684
3.154,-5.113612,5.5688753,-1.8664703,1.0945241,1.0322852,0.4533444
3.156,-5.1630583,5.481782,-1.8807793,1.0915425,1.0235466,0.41256702
3.158,-5.2155366,5.390388,-1.8953699,1.0887643,1.0136249,0.37359822
3.16,-5.2706704,5.2953467,-1.9101418,1.086227,1.0024949,0.33639514
3.162,-5.3279347,5.1973257,-1.9248518,1.0839914,0.99011844,0.30089414
3.164,-5.387186,5.0971336,-1.9394118,1.0821223,0.9764795,0.26703632
3.166,-5.4478827,4.9953847,-1.9537072,1.0806766,0.96155953,0.23477443
3.168,-5.509672,4.8928666,-1.9675958,1.0797049,0.9453287,0.20408452
3.17,-5.571931,4.7902575,-1.9809088,1.0792567,0.92776763,0.17495905
3.172,-5.6345167,4.688213,-1.9934871,1.0793672,0.9088625,0.14741816
3.174,-5.696993,4.58737,-2.0052054,1.0800887,0.88860923,0.12148228
3.176,-5.758977,4.4884243,-2.0157895,1.0814447,0.8669994,0.09718787
3.178,-5.820249,4.3919344,-2.025227,1.0834525,0.8440326,0.074561186
3.18,-5.880343,4.2984385,-2.0332663,1.08611,0.81970555,0.053618014
3.182,-5.938897,4.208315,-2.0398536,1.089394,0.7940156,0.03433907
3.184,-5.9956346,4.122111,-2.044794,1.0932714,0.76693696,0.016690113
3.186,-6.0503864,4.0400724,-2.0478413,1.097676,0.7384426,0.00062120333
3.188,-6.1027803,3.9626498,-2.0489054,1.1025364,0.7084936,-0.013942994
3.19,-6.152511,3.890006,-2.047862,1.1077636,0.67703265,-0.027099296
3.192,-6.199454,3.8223705,-2.0444136,1.1132584,0.644003,-0.03894756
3.194,-6.2432594,3.7599077,-2.038472,1.1189176,0.6093495,-0.04959984
3.196,-6.28372,3.7027414,-2.0298858,1.1246552,0.57299554,-0.0591653
3.198,-6.320784,3.650912,-2.018451,1.1303921,0.53490204,-0.06776579
3.2,-6.35407,3.6044087,-2.0039625,1.1360633,0.49503607,-0.07552816
3.202,-6.3834534,3.5630946,-1.9862919,1.1416242,0.45340842,-0.08257915
3.204,-6.4088435,3.5268927,-1.9653164,1.1470692,0.41005078,-0.08905257
3.206,-6.42997,3.4957044,-1.940862,1.1523917,0.36505103,-0.0950762
3.208,-6.4468083,3.4692242,-1.9127929,1.1576002,0.31853372,-0.10078426
3.21,-6.459346,3.4473467,-1.8810056,1.1627307,0.27065372,-0.10631019
3.212,-6.467416,3.4298244,-1.8454792,1.1678305,0.2216132,-0.11177555
3.214,-6.470989,3.4163537,-1.80617,1.1729666,0.1716512,-0.11729278
3.216,-6.470086,3.4067297,-1.7630038,1.1781895,0.121034235,-0.12296465
3.218,-6.4647617,3.400732,-1.7159681,1.1835525,0.07003443,-0.1288844
3.22,-6.4549575,3.3980231,-1.6649841,1.1891353,0.018949434,-0.13512328
3.222,-6.440773,3.3984087,-1.6101159,1.1950012,-0.031925246,-0.14174175
3.224,-6.422275,3.4014978,-1.5514367,1.2012107,-0.08230986,-0.148799
3.226,-6.399626,3.4072263,-1.4890461,1.2078326,-0.13191262,-0.15633991
3.228,-6.3728967,3.4152849,-1.423043,1.2149101,-0.18047199,-0.16440964
3.23,-6.342389,3.4254274,-1.3534691,1.2224993,-0.22774574,-0.17303696
3.232,-6.308126,3.4373984,-1.280541,1.2306545,-0.27352303,-0.18225649
3.234,-6.2705426,3.4511514,-1.2044101,1.2394022,-0.31761336,-0.19209474
3.236,-6.22976,3.4664042,-1.1252372,1.2487578,-0.35985827,-0.20257336
3.238,-6.1859365,3.4829526,-1.0431478,1.2587265,-0.4001411,-0.21371868
3.24,-6.139511,3.5006697,-0.95822906,1.2692971,-0.43837157,-0.2255441
3.242,-6.090622,3.5194044,-0.8707309,1.280433,-0.47448948,-0.23805827
3.244,-6.0396504,3.5391154,-0.7806823,1.2920916,-0.5084591,-0.25125957
3.246,-5.986842,3.559681,-0.6882715,1.3042299,-0.5402857,-0.26514474
3.248,-5.932379,3.580817,-0.5936501,1.3167888,-0.5699761,-0.2797259
3.25,-5.876515,3.6025476,-0.49688578,1.3297074,-0.5975444,-0.29498953
3.252,-5.819602,3.6247313,-0.39814186,1.3429385,-0.62302196,-0.3109126
3.254,-5.7618136,3.6473541,-0.29747176,1.3564522,-0.64643264,-0.32748544
3.256,-5.7034106,3.6702423,-0.19506907,1.3702159,-0.66779387,-0.34469146
3.258,-5.644518,3.693345,-0.09100127,1.3842231,-0.68711716,-0.3625139
3.26,-5.585431,3.716611,0.014636278,1.3984826,-0.70440197,-0.38093406
3.262,-5.5262194,3.7400792,0.1217072,1.4130182,-0.7196381,-0.3999291
3.264,-5.466974,3.763547,0.2301104,1.4278567,-0.7327991,-0.41948426
3.266,-5.4078455,3.7870932,0.33981347,1.4430333,-0.74385774,-0.43957132
3.268,-5.3488445,3.810511,0.4504876,1.4585824,-0.75277305,-0.4601587
3.27,-5.290125,3.8338418,0.5622084,1.474561,-0.7594942,-0.4812109
3.272,-5.2317085,3.856866,0.67464113,1.4910079,-0.7639591,-0.5026871
3.274,-5.1734867,3.8795784,0.7876446,1.5079622,-0.76612175,-0.5245351
3.276,-5.115577,3.9019513,0.9010682,1.5254608,-0.76590824,-0.54670155
3.278,-5.0580063,3.9238122,1.0146208,1.5435333,-0.76328135,-0.5691328
3.28,-5.000787,3.945211,1.1280844,1.5621989,-0.7582122,-0.5917746
3.282,-4.9438305,3.965899,1.2412083,1.5814704,-0.7506795,-0.61457014
3.284,-4.887094,3.9858088,1.353734,1.60137,-0.7406559,-0.6374745
3.286,-4.830456,4.0049086,1.4653721,1.6219032,-0.7281496,-0.6604355
3.288,-4.773945,4.0232153,1.575845,1.6430804,-0.7131796,-0.6834182
3.29,-4.7176175,4.0405693,1.6848423,1.664904,-0.695783,-0.7063839
3.292,-4.6613436,4.0570536,1.7920349,1.6873647,-0.67601335,-0.7292902
3.294,-4.605085,4.072448,1.8971841,1.7104489,-0.65394163,-0.7521063
3.296,-4.5486608,4.086867,1.9998751,1.7341341,-0.62965775,-0.77477807
3.298,-4.4921775,4.1000857,2.0999467,1.758386,-0.6032811,-0.79724765
3.3,-4.4356604,4.1122046,2.1971433,1.7831376,-0.5749351,-0.81945026
3.302,-4.378921,4.123096,2.2911217,1.8083355,-0.5447719,-0.84132403
3.304,-4.3219814,4.132733,2.3817205,1.8339002,-0.51295817,-0.86282176
3.306,-4.2649217,4.141061,2.4686155,1.8597428,-0.4796527,-0.8839098
3.308,-4.207696,4.148015,2.5517316,1.8857682,-0.44503608,-0.90456605
3.31,-4.150321,4.153573,2.6308427,1.9119,-0.40928933,-0.924803
3.312,-4.0927677,4.1577015,2.705855,1.938049,-0.3725738,-0.94464874
3.314,-4.035021,4.1602116,2.7767081,1.9641411,-0.33504853,-0.9641485
3.316,-3.9772036,4.160983,2.8433008,1.9901206,-0.296883,-0.98337114
3.318,-3.9194608,4.1601486,2.9056075,2.0159373,-0.25822955,-1.0023868
3.32,-3.8617606,4.1574874,2.963664,2.041541,-0.21923548,-1.0212696
3.322,-3.8042402,4.1530066,3.0174928,2.0668879,-0.18005902,-1.0400842
3.324,-3.7469468,4.1466966,3.0671694,2.0919218,-0.14085203,-1.0588639
3.326,-3.6899915,4.138472,3.1128774,2.1165972,-0.10177761,-1.077606
3.328,-3.633321,4.128295,3.1546228,2.1408606,-0.06297058,-1.0962968
3.33,-3.5773153,4.1162405,3.192563,2.164647,-0.024585903,-1.1148807
3.332,-3.5219183,4.1022468,3.2268548,2.187898,0.013259172,-1.1332878
3.334,-3.4672422,4.086461,3.257731,2.2105572,0.050447106,-1.1514387
3.336,-3.4132729,4.0688167,3.2853668,2.2325618,0.086885214,-1.1692393
3.338,-3.3603022,4.049492,3.3099961,2.2538624,0.12247646,-1.1866096
3.34,-3.3082874,4.028582,3.3317814,2.2744353,0.15715843,-1.2034738
3.342,-3.2573314,4.0060916,3.3509955,2.2942667,0.19087672,-1.2197778
3.344,-3.207387,3.9821548,3.3678384,2.3133466,0.22359014,-1.2354679
3.346,-3.1586046,3.956903,3.382618,2.3316736,0.2552644,-1.2505095
3.348,-3.1109977,3.9305048,3.3954012,2.349261,0.28586864,-1.2648735
3.35,-3.0646358,3.9030318,3.4065304,2.366117,0.3153926,-1.2785504
3.352,-3.0193467,3.8746676,3.4162216,2.382256,0.3438185,-1.2915356
3.354,-2.9751925,3.8454669,3.4245663,2.397687,0.37113583,-1.3038377
3.356,-2.932193,3.8155606,3.4318192,2.4124064,0.39732593,-1.3154579
3.358,-2.8902974,3.7850266,3.4381707,2.4264321,0.42239165,-1.3264165
3.36,-2.8494434,3.7538948,3.4437263,2.439766,0.44630963,-1.3367488
3.362,-2.8095756,3.7221944,3.4486346,2.4524105,0.46907634,-1.3464891
3.364,-2.7706108,3.6900282,3.4530573,2.4643738,0.4906867,-1.3556771
3.366,-2.7325509,3.6574144,3.4571323,2.475655,0.51111937,-1.3643596
3.368,-2.6953995,3.6242063,3.4609766,2.4862552,0.5303639,-1.3725799
3.37,-2.658988,3.5904703,3.4646323,2.496171,0.54842085,-1.3803687
3.372,-2.6233015,3.5561602,3.4682653,2.5053964,0.5652881,-1.387748
3.374,-2.5883572,3.521219,3.4718726,2.5139203,0.58097637,-1.394729
3.376,-2.554062,3.485689,3.4755654,2.5217373,0.59549737,-1.4013238
3.378,-2.520487,3.4495645,3.4793718,2.528827,0.6088711,-1.4075425
3.38,-2.4875188,3.4128387,3.4833658,2.5351672,0.6211181,-1.4133699
3.382,-2.455198,3.3755252,3.4876816,2.540753,0.6322587,-1.418787
3.384,-2.4234595,3.3375924,3.4923377,2.545563,0.64231896,-1.4237721
3.386,-2.392457,3.2990353,3.4972749,2.549583,0.65132105,-1.4282832
3.388,-2.3620503,3.2599216,3.5027063,2.5528,0.65929127,-1.4322793
3.39,-2.3322518,3.2201855,3.508514,2.5552113,0.6662472,-1.4357133
3.392,-2.303212,3.1800618,3.5147827,2.5568001,0.6722316,-1.4385381
3.394,-2.2749386,3.1396463,3.5214393,2.5575547,0.677278,-1.4407016
3.396,-2.2474754,3.0988836,3.5284657,2.557478,0.68142056,-1.4421544
3.398,-2.2208812,3.0578542,3.535955,2.5565639,0.6847054,-1.4428647
3.4,-2.1951008,3.016697,3.543763,2.554796,0.6871718,-1.4428108
3.402,-2.170337,2.9755087,3.5519469,2.5521674,0.688859,-1.4419731
3.404,-2.1465783,2.934429,3.5603335,2.548684,0.6897984,-1.4403466
3.406,-2.1240008,2.893585,3.5690475,2.544342,0.6900338,-1.4379196
3.408,-2.1023552,2.8530014,3.5779147,2.5391414,0.6895861,-1.4346986
3.41,-2.0817552,2.812712,3.5868683,2.533085,0.6884639,-1.4306852
3.412,-2.062423,2.7728481,3.5959315,2.5261707,0.6866633,-1.425895
3.414,-2.044349,2.7334077,3.6050572,2.5184093,0.68419194,-1.4203453
3.416,-2.027346,2.694488,3.6141796,2.5098016,0.6810286,-1.4140723
3.418,-2.0115354,2.6560397,3.6232288,2.5003443,0.6771584,-1.4071146
3.42,-1.996897,2.6180892,3.632224,2.4900408,0.6725889,-1.3995254
3.422,-1.9834943,2.580584,3.6410463,2.4788918,0.66729623,-1.3913543
3.424,-1.9712465,2.5435715,3.6496105,2.4668946,0.66128033,-1.3826649
3.426,-1.9600594,2.5070276,3.6580021,2.4540577,0.6545429,-1.373512
3.428,-1.9499555,2.4708147,3.666221,2.440386,0.6470895,-1.3639438
3.43,-1.9408791,2.4348836,3.6741545,2.4258842,0.6389498,-1.3539891
3.432,-1.9327285,2.399191,3.6819363,2.4105601,0.6301261,-1.343678
3.434,-1.9254613,2.363575,3.6894546,2.3944316,0.6206478,-1.3330281
3.436,-1.91904,2.328041,3.6967022,2.3775082,0.61051506,-1.3220457
3.438,-1.9133718,2.2924924,3.7038083,2.359812,0.59975255,-1.3107097
3.44,-1.9083374,2.2569077,3.710743,2.3413548,0.58836895,-1.2990179
3.442,-1.9039862,2.221264,3.717605,2.3221445,0.57636946,-1.2869457
3.444,-1.9002049,2.185431,3.7243655,2.3021767,0.56375325,-1.2744801
3.446,-1.8970776,2.149514,3.7311633,2.281458,0.55052537,-1.2616131
3.448,-1.8943923,2.1134531,3.737916,2.2599912,0.5366969,-1.2483394
3.45,-1.8920476,2.0772505,3.744841,2.2377791,0.5222762,-1.2346662
3.452,-1.8901305,2.0409539,3.7518144,2.2148218,0.5072789,-1.2205851
3.454,-1.888555,2.0045514,3.7589445,2.191138,0.49171907,-1.2061032
3.456,-1.8872588,1.9680831,3.7662375,2.1667275,0.4756102,-1.191232
3.458,-1.8862605,1.9315897,3.7738435,2.1415937,0.4589725,-1.1759801
3.46,-1.8854132,1.8950644,3.7816448,2.1157565,0.4418174,-1.160368
3.462,-1.8848712,1.858623,3.7897596,2.0892363,0.42416155,-1.1443919
3.464,-1.8844457,1.8222948,3.7982113,2.062048,0.40601712,-1.1280673
3.466,-1.8841243,1.7861761,3.8069937,2.0342157,0.38740045,-1.1114037
3.468,-1.8838902,1.7503211,3.8161924,2.0057487,0.36832273,-1.0944052
3.47,-1.8837931,1.7147877,3.8257718,1.9766691,0.34879822,-1.0770825
3.472,-1.8836994,1.6794814,3.8357882,1.9469976,0.32884222,-1.059438
3.474,-1.8836327,1.6444347,3.8462045,1.9167483,0.3084728,-1.0414815
3.476,-1.8835357,1.6097497,3.8570075,1.8859342,0.28772825,-1.0232279
3.478,-1.8832843,1.5754403,3.8683052,1.8545861,0.26662725,-1.0046949
3.48,-1.8830265,1.5413812,3.8799934,1.82272,0.24519068,-0.98590547
3.482,-1.8826964,1.5076586,3.8920925,1.790354,0.2234515,-0.9668953
3.484,-1.8822746,1.4742548,3.9046106,1.7575239,0.20144606,-0.947706
3.486,-1.881676,1.4410768,3.9175713,1.7242609,0.17920971,-0.9283694
3.488,-1.8808603,1.4081639,3.931038,1.6905925,0.15677267,-0.90892696
3.49,-1.8799161,1.3754325,3.9448452,1.6565433,0.13417524,-0.8894175
