Time_s_,Acc_x_m_s_2_,Acc_y_m_s_2_,Acc_z_m_s_2_,Gyro_x_1_s_,Gyro_y_1_s_,Gyro_z_1_s_
0,0.07382034,-0.09175478,0.08273079,0.34059662,-0.54490006,1.3184712
0.002,0.03391441,-0.05171322,0.09703839,0.34539914,-0.548952,1.3339915
0.004,-0.009165319,-0.009340921,0.11162753,0.3508019,-0.55357563,1.3511258
0.006,-0.055850253,0.035699755,0.12708728,0.3568271,-0.5588039,1.3699911
0.008,-0.10587705,0.08346236,0.14360408,0.3634634,-0.5646452,1.3906767
0.01,-0.15980686,0.13478059,0.16038996,0.37069038,-0.5710285,1.4132404
0.012,-0.218335,0.1901779,0.17701636,0.37845546,-0.5778238,1.4376937
0.014,-0.28083616,0.24877644,0.19373746,0.3866765,-0.5848295,1.4640114
0.016,-0.34617165,0.31013894,0.2097437,0.39525244,-0.59178555,1.4921286
0.018,-0.41435534,0.3747798,0.22362408,0.4040482,-0.5984222,1.5219399
0.02,-0.4851696,0.44269812,0.23486638,0.4129135,-0.6044675,1.5533224
0.022,-0.5586066,0.51387566,0.24388689,0.42170304,-0.60967046,1.5861399
0.024,-0.63447213,0.58871394,0.25081584,0.43028617,-0.6138341,1.620236
0.026,-0.7123457,0.66734093,0.2554779,0.43854985,-0.61684906,1.6554575
0.028,-0.79153657,0.74947524,0.2576196,0.44662166,-0.61885476,1.6924525
0.03,-0.8714029,0.83450395,0.2568244,0.45409673,-0.6196949,1.7298561
0.032,-0.95126355,0.9219085,0.25270712,0.4609434,-0.61949277,1.7676432
0.034,-1.0304486,1.0114889,0.24505198,0.4671018,-0.6184603,1.8057498
0.036,-1.1081082,1.1028498,0.2338006,0.4724578,-0.61691403,1.8440875
0.038,-1.183263,1.1959401,0.21867654,0.47686374,-0.61517537,1.882626
0.04,-1.2543889,1.2902048,0.19901264,0.48012573,-0.61360407,1.9213295
0.042,-1.3206074,1.3853725,0.17437236,0.48198786,-0.6126946,1.9601455
0.044,-1.3811888,1.4812653,0.14460383,0.48215276,-0.61298954,1.9991264
0.046,-1.4350178,1.5772724,0.109473504,0.4803562,-0.6149901,2.0384724
0.048,-1.4814045,1.6729175,0.06908963,0.47634128,-0.619359,2.0783257
0.05,-1.5198061,1.7676889,0.023754695,0.4698624,-0.6269974,2.1187074
0.052,-1.5499325,1.8610929,-0.025961818,0.46066022,-0.6389841,2.159623
0.054,-1.5718242,1.9528606,-0.0792237,0.44849426,-0.65649176,2.2010465
0.056,-1.587286,2.0448875,-0.13519412,0.43319792,-0.6807127,2.242825
0.058,-1.5950114,2.1344674,-0.19256215,0.4147775,-0.71282375,2.284657
0.06,-1.5960451,2.221668,-0.25004387,0.39350536,-0.7537909,2.3261664
0.062,-1.5911561,2.3066087,-0.3061687,0.36996964,-0.804235,2.3669603
0.064,-1.5819247,2.3894596,-0.35969123,0.34507975,-0.86427885,2.4066944
0.066,-1.5694399,2.4706032,-0.40931296,0.32003075,-0.93341255,2.4451287
0.068,-1.555373,2.5503252,-0.45377904,0.29626727,-1.0103433,2.4821224
0.07,-1.5414469,2.6291966,-0.49183682,0.27533507,-1.0930583,2.5176787
0.072,-1.5287583,2.7076068,-0.52304345,0.2587595,-1.1788924,2.551945
0.074,-1.5188086,2.785896,-0.5470685,0.24789476,-1.264641,2.585163
0.076,-1.513138,2.8646712,-0.5633834,0.24375582,-1.3467731,2.6176808
0.078,-1.5129361,2.9442396,-0.5717825,0.2469008,-1.4217393,2.649949
0.08,-1.519093,3.0249825,-0.5720876,0.25740552,-1.4862003,2.6824458
0.082,-1.5324404,3.107184,-0.56503963,0.2748769,-1.5372822,2.7156694
0.084,-1.5530775,3.1909788,-0.551572,0.29852444,-1.5728494,2.7500803
0.086,-1.5809042,3.2761831,-0.5329219,0.32727927,-1.5916806,2.7860076
0.088,-1.6154912,3.3626354,-0.51045716,0.35990977,-1.5935391,2.8236208
0.09,-1.6560022,3.4498386,-0.48571247,0.39513618,-1.5791916,2.8629081
0.092,-1.7013704,3.5372462,-0.46011925,0.43164122,-1.5504813,2.9035652
0.094,-1.7502396,3.6243064,-0.43537197,0.46817154,-1.5101128,2.945061
0.096,-1.8009858,3.7102861,-0.4129925,0.50355977,-1.4613855,2.9866314
0.098,-1.8522127,3.7944472,-0.39450657,0.53669316,-1.4080803,3.0272455
0.1,-1.9019754,3.875784,-0.38103038,0.56647676,-1.3541596,3.0656679
0.102,-1.9486295,3.953366,-0.3734855,0.5918981,-1.3032656,3.1007671
0.104,-1.9905972,4.0262384,-0.3725963,0.61199015,-1.2586596,3.1315913
0.106,-2.0268211,4.0937896,-0.37861103,0.6259346,-1.223141,3.1572738
0.108,-2.055866,4.155102,-0.3913154,0.6330704,-1.198988,3.1771388
0.11,-2.076839,4.2096257,-0.4097122,0.6329057,-1.1878985,3.1907952
0.112,-2.0895908,4.256941,-0.4320267,0.6250606,-1.1910247,3.1980255
0.114,-2.0939927,4.296908,-0.45636582,0.6093249,-1.2091681,3.1987386
0.116,-2.0900204,4.3292484,-0.48100978,0.585688,-1.2428153,3.19293
0.118,-2.0787292,4.35411,-0.5036055,0.5543514,-1.2922466,3.1806269
0.12,-2.060703,4.371233,-0.5208262,0.5157512,-1.3575714,3.161899
0.122,-2.0368829,4.380896,-0.5297702,0.47051096,-1.4387999,3.1368616
0.124,-2.009404,4.3844676,-0.5278411,0.41945088,-1.5356712,3.1056724
0.126,-1.9810102,4.3830194,-0.51184744,0.36356044,-1.6476233,3.0685267
0.128,-1.9530944,4.3770537,-0.47853306,0.30393767,-1.7738018,3.0257223
0.13,-1.9283618,4.3673387,-0.424846,0.24180579,-1.9129251,2.9776642
0.132,-1.9079432,4.354918,-0.3495071,0.17851007,-2.0631282,2.9248853
0.134,-1.8936778,4.3407273,-0.2510984,0.11542678,-2.2220035,2.868084
0.136,-1.8874725,4.325495,-0.12831849,0.05392492,-2.386637,2.8081124
0.138,-1.8911564,4.310568,0.019372895,-0.0046294928,-2.553638,2.7459426
0.14,-1.9056013,4.2969484,0.19193782,-0.058956265,-2.7192998,2.6826482
0.142,-1.9318236,4.2855167,0.38869947,-0.10785103,-2.8797288,2.6193643
0.144,-1.9700499,4.2764587,0.6081213,-0.1502397,-3.031021,2.5571694
0.146,-2.0203197,4.26996,0.8477724,-0.1852125,-3.169433,2.4970155
0.148,-2.0820413,4.2655325,1.1050416,-0.21207106,-3.2915637,2.4396589
0.15,-2.154862,4.2630053,1.3771029,-0.23031938,-3.3945396,2.3855715
0.152,-2.2372487,4.261719,1.6604555,-0.23970151,-3.4760883,2.3348837
0.154,-2.3272133,4.260784,1.9509822,-0.24022305,-3.5346756,2.287414
0.156,-2.4230447,4.2594414,2.2445154,-0.23216128,-3.569559,2.2426343
0.158,-2.5222619,4.2565937,2.5365295,-0.21603465,-3.580727,2.199689
0.16,-2.62218,4.2508955,2.8224273,-0.19270134,-3.5688114,2.1574764
0.162,-2.7198472,4.2406855,3.0977905,-0.1631577,-3.5351036,2.1148992
0.164,-2.8122566,4.224377,3.3582056,-0.12860763,-3.4815855,2.0707645
0.166,-2.8969626,4.200426,3.5999806,-0.09034562,-3.410708,2.0240583
0.168,-2.9712887,4.1672397,3.819858,-0.049675822,-3.3251953,1.9739804
0.17,-3.0325878,4.1232705,4.015189,-0.007876039,-3.2279897,1.9199688
0.172,-3.0790215,4.067075,4.183563,0.03390777,-3.1220803,1.8617883
0.174,-3.1084447,3.997244,4.3235216,0.07465994,-3.0103557,1.7994814
0.176,-3.1197906,3.9132247,4.43464,0.11353862,-2.895453,1.7333865
0.178,-3.1122448,3.814919,4.5162325,0.14991641,-2.7796893,1.6640893
0.18,-3.0848064,3.7016091,4.5683284,0.18334603,-2.6649404,1.5923796
0.182,-3.0412984,3.5758672,4.592036,0.2135433,-2.5526562,1.5191667
0.184,-2.9785836,3.4371505,4.5865316,0.24036705,-2.443922,1.4453837
0.186,-2.8949695,3.281961,4.5511456,0.26376832,-2.3395422,1.3719202
0.188,-2.79633,3.1129017,4.489323,0.28378934,-2.2400715,1.2995839
0.19,-2.6851006,2.93291,4.4078226,0.30051476,-2.1458712,1.2290449
0.192,-2.5617433,2.7448466,4.306158,0.31402695,-2.057204,1.160792
0.194,-2.4279633,2.5485744,4.183426,0.3244351,-1.9742819,1.0951302
0.196,-2.2855742,2.3433614,4.043242,0.33185256,-1.8972857,1.0321639
0.198,-2.136478,2.130803,3.890246,0.33640516,-1.8264251,0.9718226
0.2,-1.9833891,1.9133929,3.7274365,0.33827263,-1.7618339,0.91383576
0.202,-1.8285393,1.6930476,3.5559933,0.3377028,-1.7035172,0.8577795
0.204,-1.6741121,1.4710325,3.3765924,0.3349427,-1.6514553,0.8031781
0.206,-1.521626,1.248524,3.1900873,0.3302542,-1.6055379,0.7496344
0.208,-1.3721122,1.0265583,2.998743,0.32391614,-1.5654752,0.69680214
0.21,-1.2269452,0.80620337,2.8047366,0.31621462,-1.5309029,0.6444035
0.212,-1.0865954,0.5883357,2.6102695,0.30734634,-1.5014402,0.5921813
0.214,-0.9499933,0.3731835,2.418513,0.29786396,-1.4759858,0.5399195
0.216,-0.8171623,0.16222388,2.2333627,0.28840718,-1.4534477,0.48768446
0.218,-0.6897857,-0.04134524,2.0556996,0.27929622,-1.4333448,0.43584627
0.22,-0.5681662,-0.23400685,1.8833394,0.2707605,-1.414537,0.38495636
0.222,-0.4522789,-0.41287422,1.7134904,0.26326793,-1.3949544,0.33554292
0.224,-0.3421468,-0.5775138,1.547524,0.25757864,-1.3726876,0.28795946
0.226,-0.23833853,-0.72886837,1.3886434,0.25458348,-1.3460656,0.24298607
0.228,-0.1402595,-0.8677025,1.2371274,0.25530985,-1.3130709,0.20191513
0.23,-0.04659623,-0.9928391,1.0897485,0.26085165,-1.2713368,0.16609317
0.232,0.045085132,-1.101762,0.9426862,0.2723421,-1.2183383,0.13686016
0.234,0.13656193,-1.1907237,0.79180455,0.29105425,-1.1515164,0.11562998
0.236,0.2291151,-1.2556651,0.6342156,0.31833124,-1.0684704,0.10386115
0.238,0.32288507,-1.2927892,0.46851826,0.355436,-0.9671107,0.10300749
0.24,0.4184493,-1.2986273,0.2930491,0.40343073,-0.8458496,0.11435562
0.242,0.51462924,-1.2700588,0.107310444,0.46308255,-0.70384616,0.13887058
0.244,0.6104798,-1.2047861,-0.08864642,0.53474057,-0.541409,0.1770241
0.246,0.7048441,-1.1006318,-0.29443026,0.61823964,-0.36010498,0.22867654
0.248,0.79558915,-0.9577092,-0.50926477,0.7128036,-0.16283317,0.2928897
0.25,0.8808191,-0.7763661,-0.73335713,0.8169891,0.04616815,0.3678273
0.252,0.95832056,-0.5585013,-0.9674027,0.9288295,0.26137275,0.45053434
0.254,1.025355,-0.3069749,-1.2123142,1.0460687,0.47630495,0.5369317
0.256,1.0794154,-0.025568485,-1.468583,1.1665107,0.68449515,0.62225807
0.258,1.118312,0.28110746,-1.7360358,1.2881258,0.88022804,0.7015288
0.26,1.1401505,0.6076346,-2.013431,1.4090234,1.0588459,0.7697807
0.262,1.1435385,0.94813263,-2.2987237,1.5274621,1.2171224,0.8224211
0.264,1.1274388,1.2960148,-2.5886517,1.6419203,1.3537099,0.85557514
0.266,1.0918428,1.6445253,-2.879552,1.7509975,1.468986,0.8663484
0.268,1.0373996,1.9863551,-3.1671412,1.852889,1.5641901,0.853065
0.27,0.9656117,2.3147745,-3.4468307,1.9455874,1.6418486,0.8152847
0.272,0.87861717,2.623471,-3.7139437,2.0272553,1.7051389,0.7542285
0.274,0.77950597,2.9065475,-3.963962,2.095782,1.7556853,0.67260754
0.276,0.6722679,3.1597311,-4.192848,2.1486592,1.7933996,0.57451624
0.278,0.5605967,3.3802118,-4.396287,2.183473,1.8173876,0.46516716
0.28,0.44828343,3.566484,-4.5704064,2.1983035,1.8253511,0.34976637
0.282,0.3401451,3.7171793,-4.7120047,2.191863,1.8133384,0.23332798
0.284,0.2410152,3.8311975,-4.8176785,2.1637094,1.7767428,0.12068915
0.286,0.1554172,3.908866,-4.88408,2.114307,1.7114148,0.015987635
0.288,0.08657837,3.952822,-4.90783,2.0450022,1.6146374,-0.07776052
0.29,0.036441326,3.9679737,-4.8873243,1.9580786,1.4860364,-0.15874684
0.292,0.009312391,3.957199,-4.8222723,1.8567274,1.328059,-0.22628993
0.294,0.0018572807,3.9271727,-4.7120266,1.7448741,1.1460136,-0.28058296
0.296,0.012586832,3.886383,-4.5577416,1.6269288,0.94774884,-0.32237977
0.298,0.04502058,3.8376422,-4.364603,1.507475,0.74294573,-0.35268617
0.3,0.097011805,3.7845855,-4.139545,1.3909428,0.5419013,-0.3725652
0.302,0.16375685,3.7315955,-3.8820286,1.2812893,0.35433573,-0.38292316
0.304,0.241287,3.6853626,-3.5930014,1.1816692,0.18829268,-0.3844905
0.306,0.32571197,3.6513004,-3.2785773,1.0940466,0.049351215,-0.37776488
0.308,0.41343093,3.6310291,-2.9450881,1.0190412,-0.059902906,-0.36323816
0.31,0.50145507,3.6251998,-2.5965378,0.9560015,-0.14008,-0.34187388
0.312,0.58660233,3.6345985,-2.2353988,0.90345895,-0.1943717,-0.3151471
0.314,0.66589856,3.660041,-1.8638116,0.8594253,-0.22763564,-0.2846623
0.316,0.7363403,3.7016869,-1.4850485,0.82157147,-0.2455574,-0.25184095
0.318,0.7957804,3.7588887,-1.1033382,0.7873582,-0.25392443,-0.21798569
0.32,0.8430213,3.830402,-0.72232157,0.7544029,-0.2578764,-0.1843371
0.322,0.8768978,3.9148104,-0.3448348,0.7207445,-0.26152486,-0.15208972
0.324,0.896198,4.010847,0.02596581,0.68496525,-0.26778275,-0.12234564
0.326,0.9019115,4.1160574,0.38634557,0.6462173,-0.27826577,-0.09597027
0.328,0.896847,4.226642,0.7365387,0.6041883,-0.2933758,-0.073454544
0.33,0.88256073,4.3390226,1.0797524,0.5591143,-0.31243366,-0.054860502
0.332,0.86021984,4.4515605,1.4167877,0.5116644,-0.33397824,-0.039922044
0.334,0.831076,4.5648513,1.743223,0.4629085,-0.3558675,-0.027956352
0.336,0.7970283,4.680082,2.0543644,0.4142308,-0.37556964,-0.017939076
0.338,0.7588384,4.7972765,2.34933,0.3670928,-0.3905037,-0.008644529
0.34,0.7161466,4.91444,2.6297956,0.32291198,-0.39823583,0.0012280494
0.342,0.66808116,5.0287023,2.896557,0.28289658,-0.39671755,0.012889538
0.344,0.6148779,5.1370363,3.14952,0.24795917,-0.38453078,0.027312458
0.346,0.5574301,5.237471,3.386682,0.21864599,-0.3610182,0.045106016
0.348,0.49701726,5.328991,3.6047814,0.19512077,-0.32632652,0.06644818
0.35,0.43480468,5.41155,3.8007374,0.17716973,-0.28135654,0.09107988
0.352,0.37185067,5.4850335,3.971951,0.16428012,-0.2275609,0.11836536
0.354,0.30893543,5.549726,4.11604,0.15575074,-0.1667035,0.14745066
0.356,0.24670564,5.605889,4.2312837,0.15082835,-0.10049124,0.17740941
0.358,0.18650113,5.654717,4.3168488,0.1487482,-0.030542914,0.20732056
0.36,0.12865996,5.696484,4.373482,0.1488455,0.041908853,0.23650676
0.362,0.07423771,5.7316236,4.4023924,0.15060991,0.11618646,0.2646672
0.364,0.024427623,5.760077,4.404744,0.15368852,0.19205493,0.2918291
0.366,-0.019273818,5.7812767,4.381435,0.15784127,0.26969987,0.3182292
0.368,-0.055582404,5.794419,4.3323255,0.16303107,0.34968996,0.34414524
0.37,-0.08316845,5.798758,4.2571425,0.16946928,0.43284577,0.36978152
0.372,-0.100914225,5.7932615,4.155201,0.17753841,0.52005607,0.3953541
0.374,-0.10727248,5.777214,4.0251293,0.18763444,0.6121133,0.42114615
0.376,-0.10166262,5.750199,3.8661668,0.2000754,0.7095795,0.44736603
0.378,-0.08347677,5.7123766,3.6779654,0.21497132,0.81258756,0.47401604
0.38,-0.052278213,5.6638565,3.460516,0.23213823,0.920604,0.50089276
0.382,-0.007973999,5.6050606,3.2143612,0.25109652,1.0323044,0.52769995
0.384,0.049039364,5.53639,2.9411008,0.27102563,1.1454506,0.5541343
0.386,0.11813727,5.457553,2.6432776,0.2908004,1.2569655,0.5798978
0.388,0.19882086,5.368423,2.3235466,0.30906883,1.3630596,0.604728
0.39,0.2894935,5.269695,1.9853693,0.3242928,1.4593793,0.62836146
0.392,0.38756633,5.163937,1.6324824,0.33484617,1.5413394,0.6505201
0.394,0.49054295,5.0542245,1.2680185,0.3390973,1.6044034,0.67090523
0.396,0.5965066,4.9420266,0.8949863,0.3355456,1.644404,0.6892046
0.398,0.7039113,4.8271313,0.5161376,0.32288122,1.6577592,0.70504415
0.4,0.810723,4.709116,0.13630861,0.30003044,1.6416098,0.71802837
0.402,0.9151762,4.588305,-0.23821235,0.26623136,1.5940967,0.7277318
0.404,1.0156984,4.46567,-0.6014835,0.22107409,1.5143718,0.73371446
0.406,1.1100757,4.34244,-0.947662,0.16447487,1.4025574,0.7355512
0.408,1.1966221,4.2191296,-1.2710067,0.09670959,1.2597936,0.7329113
0.41,1.2742721,4.095905,-1.5672206,0.018456953,1.0881803,0.72562915
0.412,1.3416512,3.973373,-1.8329203,-0.06914346,0.89094543,0.7137583
0.414,1.397485,3.852365,-2.0643055,-0.16452558,0.672254,0.6974976
0.416,1.4411534,3.7333505,-2.2582307,-0.26579857,0.43706107,0.6772109
0.418,1.4726838,3.6165364,-2.4127316,-0.37077036,0.19111574,0.653532
0.42,1.4918485,3.5019977,-2.5266857,-0.47701108,-0.059263602,0.62733126
0.422,1.4991019,3.3895755,-2.5998864,-0.5820116,-0.3074296,0.59960294
0.424,1.4954289,3.2785325,-2.633441,-0.6833222,-0.5467193,0.57130444
0.426,1.482202,3.168478,-2.6292176,-0.77860016,-0.77072453,0.5432237
0.428,1.4604714,3.0591197,-2.5900524,-0.86565834,-0.9735981,0.5159124
0.43,1.4315382,2.9501297,-2.519464,-0.9425952,-1.1504099,0.48970932
0.432,1.3972738,2.84076,-2.421424,-1.0078862,-1.2973006,0.46481383
0.434,1.3594434,2.7305412,-2.2999966,-1.0604382,-1.4115971,0.441265
0.436,1.31967,2.6195824,-2.1586769,-1.0997174,-1.4920528,0.4187869
0.438,1.2793881,2.5082855,-2.0019596,-1.1257756,-1.5388627,0.39684448
0.44,1.2406912,2.397047,-1.8349676,-1.1392229,-1.5535879,0.37480688
0.442,1.2055053,2.2858906,-1.6606925,-1.141303,-1.5392352,0.35190234
0.444,1.1754143,2.1748505,-1.4806912,-1.1338319,-1.5001299,0.32728836
0.446,1.1520042,2.0638413,-1.2970228,-1.1190196,-1.441555,0.3001966
0.448,1.1368055,1.9530445,-1.1118608,-1.0993683,-1.3695278,0.26995885
0.45,1.1308639,1.8429434,-0.92636985,-1.0775465,-1.2904724,0.23602834
0.452,1.1335663,1.7347455,-0.7414863,-1.0561508,-1.2106938,0.19805521
0.454,1.1452744,1.6295841,-0.5597099,-1.0374849,-1.1359295,0.1558953
0.456,1.1677281,1.5272962,-0.3807792,-1.0234035,-1.0710137,0.10964388
0.458,1.2004515,1.4287428,-0.20331669,-1.015165,-1.0194875,0.059551954
0.46,1.2440804,1.3340638,-0.026117623,-1.0133109,-0.9833478,0.0059996843
0.462,1.2989261,1.2436831,0.15193874,-1.017706,-0.96309686,-0.050573885
0.464,1.3654631,1.1578674,0.3313129,-1.0276399,-0.9578818,-0.1096876
0.466,1.4435577,1.0769184,0.5120317,-1.0419357,-0.9656632,-0.17091635
0.468,1.5328076,1.0008192,0.69358075,-1.0591072,-0.9836241,-0.23402512
0.47,1.6327287,0.92936397,0.87519324,-1.0775627,-1.0086179,-0.29894823
0.472,1.7426516,0.8620273,1.055774,-1.0958095,-1.0376389,-0.365761
0.474,1.8616374,0.7982793,1.234014,-1.1126117,-1.0681742,-0.4346774
0.476,1.988244,0.73779154,1.4084693,-1.1270868,-1.0984515,-0.50591254
0.478,2.1211736,0.6800828,1.5779237,-1.138765,-1.1276231,-0.57960355
0.48,2.2588227,0.6242193,1.7408023,-1.1472073,-1.1545174,-0.6550728
0.482,2.3995535,0.5695312,1.8963597,-1.15316,-1.1816705,-0.7334523
0.484,2.540844,0.51554286,2.044542,-1.1569065,-1.2097118,-0.81415915
0.486,2.6807094,0.46192595,2.1853976,-1.1588845,-1.2401286,-0.8967751
0.488,2.8165467,0.40854523,2.3185935,-1.1592426,-1.2742133,-0.9806466
0.49,2.945765,0.35534772,2.4442368,-1.1577523,-1.3126279,-1.0646508
0.492,3.0658917,0.30259332,2.5620084,-1.1538949,-1.3551584,-1.1472653
0.494,3.1760354,0.24989131,2.671864,-1.1470183,-1.400631,-1.2267292
0.496,3.2715464,0.19913888,2.7742922,-1.1364026,-1.446757,-1.3010309
0.498,3.3485537,0.15238076,2.865594,-1.1214207,-1.4902157,-1.3679886
0.5,3.4092617,0.109297216,2.9391065,-1.1017655,-1.5269667,-1.4254185
0.502,3.454485,0.07002425,2.9936202,-1.0774282,-1.5523771,-1.471225
0.504,3.4807878,0.035850286,3.0325346,-1.0486668,-1.5615548,-1.5034848
0.506,3.4852247,0.007982433,3.0564258,-1.0159154,-1.549768,-1.5206407
0.508,3.4705482,-0.013511002,3.061091,-0.97960305,-1.5127721,-1.5217218
0.51,3.4382923,-0.027377754,3.0430298,-0.9400289,-1.4472214,-1.5064831
0.512,3.3888278,-0.032013834,3.0018847,-0.89727736,-1.3510239,-1.4754599
0.514,3.3236911,-0.026765943,2.936293,-0.8512485,-1.2236264,-1.4300437
0.516,3.2452426,-0.011681557,2.84242,-0.8017431,-1.0662303,-1.3724688
0.518,3.1557949,0.012266666,2.7171195,-0.74862146,-0.8818985,-1.3057226
0.52,3.0573444,0.043764085,2.5603545,-0.6919973,-0.6755251,-1.2332476
0.522,2.9527638,0.08210251,2.3730264,-0.63235337,-0.45356184,-1.1586778
0.524,2.8456035,0.1265699,2.155128,-0.5704969,-0.22349112,-1.0855978
0.526,2.7383246,0.17667758,1.9073277,-0.50754696,0.0067399098,-1.0174632
0.528,2.632215,0.23172313,1.6308302,-0.44495916,0.22924735,-0.9572593
0.53,2.5282526,0.29058164,1.3278844,-0.38438326,0.43675327,-0.90701485
0.532,2.4276311,0.35179478,1.0024282,-0.32730493,0.62310326,-0.8679278
0.534,2.3314455,0.41405863,0.6584684,-0.27495223,0.78297275,-0.84115267
0.536,2.241955,0.47530067,0.3003512,-0.22739455,0.91565907,-0.8255319
0.538,2.1569571,0.53431326,-0.06501615,-0.185105,1.0195067,-0.8208573
0.54,2.082558,0.5868528,-0.43288165,-0.14790207,1.095325,-0.8256483
0.542,2.0208,0.63098735,-0.80297714,-0.11543149,1.1450725,-0.83797765
0.544,1.9698923,0.6654431,-1.1676406,-0.087261915,1.1717247,-0.85564005
0.546,1.9272964,0.6903359,-1.519421,-0.062934816,1.1786693,-0.8764392
0.548,1.8902459,0.7073026,-1.8555076,-0.042034686,1.1692592,-0.8982246
0.55,1.8566357,0.71799314,-2.1728456,-0.02424711,1.1466528,-0.91879773
0.552,1.8261397,0.7244207,-2.4658432,-0.009370744,1.1137841,-0.9360727
0.554,1.7977293,0.7289052,-2.7315059,0.0028268695,1.0733542,-0.94829094
0.556,1.7681259,0.7337744,-2.97048,0.012675941,1.0278256,-0.9541833
0.558,1.7359059,0.7391403,-3.1824465,0.020593286,0.9795055,-0.95295125
0.56,1.7008319,0.74441296,-3.3676639,0.02703911,0.93055844,-0.9442314
0.562,1.6637537,0.74987125,-3.5271196,0.03252256,0.8830192,-0.9280534
0.564,1.6240386,0.7563895,-3.659906,0.037581682,0.8388097,-0.9048778
0.566,1.5798032,0.7655589,-3.7667375,0.042873383,0.7996943,-0.87569
0.568,1.5321721,0.77740484,-3.8480177,0.04890591,0.7667291,-0.84208107
0.57,1.4812953,0.7927013,-3.9032052,0.056042016,0.7406527,-0.8059374
0.572,1.4281194,0.81152797,-3.9317608,0.06461528,0.7216641,-0.76940995
0.574,1.3740375,0.8333199,-3.9333375,0.07461482,0.708686,-0.73502463
0.576,1.3206588,0.8574419,-3.9080882,0.08570629,0.7003519,-0.7051493
0.578,1.2693119,0.88369226,-3.8567052,0.097346455,0.6951082,-0.6818596
0.58,1.2209511,0.91205275,-3.7803788,0.10886499,0.6907621,-0.6666541
0.582,1.1762638,0.9424448,-3.680095,0.1196678,0.6849456,-0.6603699
0.584,1.1351634,0.9751608,-3.5569406,0.12941673,0.67577446,-0.6634151
0.586,1.0971946,1.0101163,-3.4124284,0.13796505,0.66189754,-0.6755686
0.588,1.0613037,1.0474794,-3.2480116,0.14526191,0.6424519,-0.69574386
0.59,1.0267215,1.0874331,-3.065361,0.15158597,0.6172278,-0.72235596
0.592,0.99247897,1.1300935,-2.8661785,0.15751302,0.58702767,-0.7537278
0.594,0.957475,1.1754968,-2.6520896,0.16374722,0.5538367,-0.78805625
0.596,0.9203901,1.2236853,-2.424615,0.17098,0.5203391,-0.823582
0.598,0.8802025,1.2745987,-2.1847441,0.17979264,0.4894426,-0.85888314
0.6,0.8358172,1.3280948,-1.9336219,0.19047043,0.46411657,-0.89293456
0.602,0.7863661,1.3837667,-1.671792,0.20284414,0.44694602,-0.9253833
0.604,0.73028904,1.4416959,-1.4001658,0.21621665,0.4394346,-0.95669556
0.606,0.6700807,1.4998435,-1.1202712,0.22939637,0.44157925,-0.9879042
0.608,0.60678446,1.5562949,-0.82943475,0.24073058,0.45183152,-1.020371
0.61,0.537746,1.6107521,-0.5239869,0.24830592,0.46727931,-1.0555792
0.612,0.4630928,1.6618919,-0.20660526,0.25023368,0.48401296,-1.0950087
0.614,0.38768247,1.7074656,0.117076784,0.24490228,0.49772322,-1.1398712
0.616,0.31496853,1.7460202,0.44501624,0.23115009,0.5043243,-1.1908888
0.618,0.24458882,1.7769985,0.7806491,0.20842856,0.5005982,-1.2480645
0.62,0.17869288,1.7986044,1.1233308,0.17686409,0.4846829,-1.3105658
0.622,0.12012835,1.8086739,1.4685943,0.13746881,0.45663995,-1.3767583
0.624,0.07085492,1.8056942,1.8151032,0.09191835,0.4179659,-1.4446143
0.626,0.032186225,1.7891142,2.1634488,0.04229027,0.37157637,-1.5117792
0.628,0.005368158,1.7599776,2.5130134,-0.00889951,0.32176766,-1.5757136
0.63,-0.009119213,1.7196087,2.861373,-0.05913812,0.27264145,-1.6343225
0.632,-0.011137396,1.6683568,3.2062097,-0.10624325,0.22787824,-1.6860042
0.634,-0.0016357899,1.6072793,3.54521,-0.14846843,0.19093442,-1.7297015
0.636,0.018943548,1.5377076,3.8766875,-0.18467271,0.16433454,-1.7649641
0.638,0.05041617,1.4614714,4.1994843,-0.2144421,0.14923775,-1.7918234
0.64,0.09269422,1.3804916,4.511676,-0.23793712,0.14593601,-1.8105954
0.642,0.14361036,1.2972724,4.809879,-0.25563857,0.15411916,-1.8219529
0.644,0.19989145,1.2149916,5.0909247,-0.2681999,0.17304817,-1.826875
0.646,0.25819516,1.1368029,5.3528757,-0.2763738,0.20188999,-1.826284
0.648,0.31974173,1.0639887,5.593432,-0.28088522,0.23993608,-1.8208679
0.65,0.37817943,0.9982497,5.813347,-0.28222138,0.28690618,-1.8111074
0.652,0.43288708,0.9379704,6.01649,-0.28056794,0.34296963,-1.7974013
0.654,0.48651683,0.8824033,6.197749,-0.27574134,0.40881953,-1.7800155
0.656,0.5417613,0.8304914,6.3526278,-0.2671833,0.48567224,-1.7590265
0.658,0.59996927,0.7801234,6.480807,-0.25400227,0.5752037,-1.7344295
0.66,0.6609851,0.7293377,6.581601,-0.2351386,0.67937624,-1.7062262
0.662,0.72376204,0.67629445,6.6521554,-0.2094816,0.80018413,-1.6743982
0.664,0.7885678,0.6196549,6.692067,-0.17601055,0.9394531,-1.6389561
0.666,0.8569679,0.55882233,6.703337,-0.13393676,1.098582,-1.5999963
0.668,0.92870426,0.49494576,6.6852384,-0.08283037,1.278305,-1.5576936
0.67,1.002784,0.42915547,6.6357446,-0.022701144,1.4784484,-1.5122745
0.672,1.0786986,0.36097962,6.552437,0.04589832,1.6978102,-1.4640586
0.674,1.156544,0.28904355,6.432494,0.12176287,1.9339886,-1.4133971
0.676,1.2363605,0.21188676,6.274096,0.203076,2.1833482,-1.3606708
0.678,1.3162256,0.12895513,6.075862,0.28758705,2.4410968,-1.306355
0.68,1.3952646,0.039411664,5.8370767,0.3727349,2.701398,-1.2510188
0.682,1.4739436,-0.05840087,5.5596967,0.45564055,2.9575033,-1.1951175
0.684,1.5491674,-0.1639173,5.2470264,0.5331292,3.2020307,-1.1390941
0.686,1.6173606,-0.27647328,4.9030023,0.6018474,3.4271307,-1.0836806
0.688,1.677653,-0.39665908,4.533872,0.65840197,3.6246948,-1.0299562
0.69,1.7299918,-0.52473044,4.146765,0.6995075,3.7867126,-0.9791468
0.692,1.7721047,-0.6597501,3.7468073,0.72215366,3.9057612,-0.93241304
0.694,1.8021423,-0.8015435,3.3400984,0.72377837,3.9755135,-0.890781
0.696,1.8188351,-0.9502945,2.9353063,0.70246124,3.9912257,-0.8550804
0.698,1.820662,-1.1050307,2.5411952,0.6570115,3.9501092,-0.8257764
0.7,1.8057749,-1.2640475,2.1660402,0.5871545,3.8516784,-0.8029118
0.702,1.7727329,-1.4261761,1.8178908,0.49360442,3.6979947,-0.78606576
0.704,1.7204853,-1.5898769,1.5039977,0.37801683,3.4934719,-0.7744164
0.706,1.6489437,-1.7539588,1.2308576,0.24301124,3.2447224,-0.76679605
0.708,1.5584762,-1.9168552,1.0036948,0.09203422,2.960306,-0.7618965
0.71,1.4498917,-2.0767918,0.82634985,-0.07089162,2.6501715,-0.7584938
0.712,1.3245945,-2.2326026,0.7016822,-0.24146485,2.3248315,-0.7555175
0.714,1.1839751,-2.3834088,0.6304512,-0.4151976,1.9949586,-0.7521435
0.716,1.0312171,-2.5292926,0.6122762,-0.58764845,1.6709142,-0.7480392
0.718,0.86805564,-2.6702263,0.64512527,-0.7547587,1.3620179,-0.7433471
0.72,0.69875157,-2.8073015,0.7267323,-0.9129878,1.0761653,-0.7385474
0.722,0.5272671,-2.941253,0.85253334,-1.0593841,0.819653,-0.7346222
0.724,0.3569771,-3.0726337,1.0172836,-1.191647,0.5968964,-0.7329426
0.726,0.19081342,-3.2021866,1.215375,-1.3081764,0.41028437,-0.73489666
0.728,0.031500936,-3.3306065,1.439224,-1.4080422,0.2604554,-0.7417734
0.73,-0.11833882,-3.4588232,1.681353,-1.4910032,0.14645004,-0.7548089
0.732,-0.25584626,-3.587895,1.9344113,-1.5575765,0.06591165,-0.77503586
0.734,-0.37812185,-3.7194204,2.1905768,-1.6089151,0.015432537,-0.80324805
0.736,-0.48367858,-3.8550944,2.4429045,-1.6465387,-0.009063363,-0.84009445
0.738,-0.5718255,-3.9968362,2.6847773,-1.6721773,-0.011977017,-0.8858874
0.74,-0.6416452,-4.1465864,2.9098022,-1.6877247,0.0023667216,-0.94049007
0.742,-0.69609547,-4.304358,3.1117742,-1.6951166,0.030037045,-1.0034732
0.744,-0.73349667,-4.4717636,3.2849488,-1.6961497,0.06783962,-1.0742899
0.746,-0.7484629,-4.6533093,3.4229643,-1.6923578,0.11332679,-1.1522328
0.748,-0.7440162,-4.850417,3.51608,-1.6849883,0.16475695,-1.2363713
0.75,-0.7233403,-5.060726,3.5536199,-1.6748714,0.22120148,-1.3253567
0.752,-0.6894691,-5.2760515,3.5328577,-1.6623747,0.28243446,-1.4175828
0.754,-0.65174985,-5.48518,3.4597023,-1.6475897,0.34861475,-1.5113878
0.756,-0.6198511,-5.682395,3.3403516,-1.6304696,0.42000607,-1.6051259
0.758,-0.5922046,-5.868186,3.180044,-1.6109655,0.49664655,-1.6972727
0.76,-0.5635743,-6.04055,2.978067,-1.5892409,0.5779657,-1.7865547
0.762,-0.5307722,-6.195408,2.7275681,-1.5658045,0.66244435,-1.8719866
0.764,-0.49393177,-6.330739,2.4250133,-1.5414667,0.7475998,-1.9528682
0.766,-0.45865607,-6.4443398,2.0724034,-1.5173304,0.83022594,-2.028816
0.768,-0.43112946,-6.531375,1.6745641,-1.494916,0.90637887,-2.0996518
0.77,-0.4140997,-6.5867367,1.2364094,-1.4760464,0.9716543,-2.165271
0.772,-0.4066782,-6.6085725,0.7605403,-1.4627088,1.0216465,-2.225772
0.774,-0.40796185,-6.597044,0.248815,-1.456739,1.0526878,-2.2813907
0.776,-0.41830635,-6.5520477,-0.29471958,-1.4592459,1.062297,-2.3321922
0.778,-0.4391265,-6.4716244,-0.8620117,-1.4705558,1.0486237,-2.3782268
0.78,-0.4721949,-6.3521166,-1.4430752,-1.4906082,1.0102139,-2.4190342
0.782,-0.519583,-6.189651,-2.0280485,-1.5189389,0.9464951,-2.453382
0.784,-0.5834453,-5.9809628,-2.6087456,-1.5537326,0.8585919,-2.4801714
0.786,-0.665517,-5.724222,-3.178842,-1.5916429,0.7495532,-2.4985316
0.788,-0.76669717,-5.4197607,-3.731912,-1.6286743,0.6235981,-2.5067217
0.79,-0.88874984,-5.0690746,-4.260256,-1.6605576,0.48597297,-2.501615
0.792,-1.0347624,-4.673918,-4.7572784,-1.6829073,0.34224728,-2.4796333
0.794,-1.2036867,-4.2395754,-5.2160983,-1.691534,0.19752967,-2.4377253
0.796,-1.3938257,-3.7733922,-5.629604,-1.6830952,0.056533933,-2.3737714
0.798,-1.6051798,-3.283487,-5.992519,-1.6560552,-0.07617515,-2.287283
0.8,-1.8356817,-2.7808084,-6.299322,-1.6112791,-0.19600576,-2.1803212
0.802,-2.0825562,-2.2769842,-6.5411296,-1.5518198,-0.29845223,-2.0577512
0.804,-2.341285,-1.7833349,-6.713193,-1.4823034,-0.37935787,-1.9269565
0.806,-2.604766,-1.3124347,-6.816906,-1.4080906,-0.43511283,-1.7971635
0.808,-2.862939,-0.8792318,-6.8523026,-1.3345132,-0.46280652,-1.6785485
0.81,-3.108058,-0.49693227,-6.818009,-1.2664268,-0.46079528,-1.5813121
0.812,-3.3345804,-0.17630887,-6.7138,-1.2077824,-0.4292268,-1.5145547
0.814,-3.5365899,0.072781265,-6.5401716,-1.1612552,-0.37053192,-1.4851574
0.816,-3.7065172,0.24194026,-6.301591,-1.1281543,-0.2896638,-1.4969184
0.818,-3.8376732,0.32455707,-6.001108,-1.1086458,-0.19389752,-1.5499685
0.82,-3.9225256,0.31747878,-5.638661,-1.1021261,-0.092103034,-1.6406838
0.822,-3.9565766,0.2223686,-5.2221055,-1.1075896,0.0063412488,-1.7621895
0.824,-3.936965,0.041312218,-4.758706,-1.1239057,0.09287751,-1.905193
0.826,-3.8616192,-0.22320604,-4.2546177,-1.149863,0.1610724,-2.0589821
0.828,-3.728415,-0.5656129,-3.7200375,-1.1843193,0.20713402,-2.212657
0.83,-3.5413961,-0.975008,-3.165803,-1.2261555,0.23042457,-2.356183
0.832,-3.3041549,-1.4399647,-2.600838,-1.2736409,0.2342281,-2.4812863
0.834,-3.0210018,-1.9485726,-2.0364897,-1.3239073,0.2251097,-2.582576
0.836,-2.6986022,-2.4878013,-1.4842682,-1.3733056,0.21102354,-2.6574345
0.838,-2.346308,-3.0440412,-0.9539697,-1.4184892,0.19947651,-2.7049828
0.84,-1.9730599,-3.6040826,-0.45529157,-1.4563434,0.19700295,-2.7263517
0.842,-1.5887616,-4.154548,0.0017787218,-1.4836352,0.2091878,-2.7254434
0.844,-1.2099632,-4.6807046,0.41192287,-1.4975759,0.24006942,-2.707968
0.846,-0.8404131,-5.1742964,0.771438,-1.4963301,0.29225382,-2.6793919
0.848,-0.47931504,-5.631803,1.0675904,-1.4792715,0.36651212,-2.644109
0.85,-0.13721728,-6.049157,1.2946769,-1.4468722,0.4617173,-2.6054409
0.852,0.17305827,-6.4200096,1.4553456,-1.4002665,0.57503617,-2.5656722
0.854,0.44016385,-6.736981,1.5465481,-1.3413366,0.70193064,-2.5261273
0.856,0.65700746,-6.9942093,1.5624822,-1.2728796,0.8372128,-2.4870596
0.858,0.82588863,-7.190492,1.5062203,-1.1986011,0.975487,-2.44817
0.86,0.94510984,-7.326068,1.3846558,-1.122855,1.1110682,-2.4092615
0.862,1.0148785,-7.4082584,1.2036345,-1.049995,1.2383969,-2.3704143
0.864,1.0417223,-7.4494085,0.9658903,-0.98379755,1.3523386,-2.3320227
0.866,1.0322123,-7.4586287,0.6750272,-0.92724055,1.4483666,-2.2949886
0.868,0.9858868,-7.44172,0.33658308,-0.88241744,1.5230008,-2.2607791
0.87,0.9041641,-7.4055834,-0.03590256,-0.8504926,1.5741363,-2.2312503
0.872,0.7928741,-7.3561006,-0.42372704,-0.83161074,1.6011691,-2.2084875
0.874,0.662009,-7.2969217,-0.8130889,-0.8252038,1.6044364,-2.194715
0.876,0.52397823,-7.23238,-1.1958396,-0.82984906,1.5858142,-2.1917274
0.878,0.3882358,-7.1672053,-1.5665189,-0.8431974,1.5483725,-2.2004986
0.88,0.25854158,-7.1040645,-1.9204831,-0.8625174,1.4950886,-2.2211297
0.882,0.13565087,-7.0424595,-2.2515454,-0.88494164,1.429748,-2.2527568
0.884,0.021131039,-6.9818335,-2.554579,-0.90758824,1.3573217,-2.2935143
0.886,-0.08184409,-6.923073,-2.8279843,-0.92769855,1.2827003,-2.3406107
0.888,-0.17029,-6.869121,-3.0734901,-0.9424747,1.2103739,-2.3904388
0.89,-0.24291515,-6.8232336,-3.2919812,-0.9491263,1.1448499,-2.439119
0.892,-0.30073333,-6.7865167,-3.4814975,-0.9452178,1.0904922,-2.4831173
0.894,-0.34582114,-6.7576456,-3.6375966,-0.929185,1.0510645,-2.51927
0.896,-0.38091588,-6.7340517,-3.7555068,-0.9004159,1.0294342,-2.5447083
0.898,-0.4087944,-6.7124796,-3.8312726,-0.8593035,1.0268995,-2.557314
0.9,-0.43206382,-6.6901116,-3.8632877,-0.80763555,1.0425078,-2.5562532
0.902,-0.45232034,-6.665475,-3.8507986,-0.74868727,1.073338,-2.5421708
0.904,-0.47150826,-6.6376047,-3.7934403,-0.6869614,1.1142316,-2.5176456
0.906,-0.49153948,-6.6061587,-3.690598,-0.6277865,1.1581812,-2.4870875
0.908,-0.5137329,-6.572059,-3.5410147,-0.576672,1.1975412,-2.456118
0.91,-0.53940105,-6.536818,-3.3440897,-0.53881323,1.224518,-2.4312942
0.912,-0.5664649,-6.5040083,-3.1013567,-0.51847637,1.2324296,-2.4190054
0.914,-0.59403396,-6.477762,-2.8128626,-0.5183264,1.2170118,-2.4241254
0.916,-0.6222198,-6.4607377,-2.4775825,-0.53913015,1.1768501,-2.449251
0.918,-0.6508453,-6.4554615,-2.0986288,-0.57970434,1.1137407,-2.4943044
0.92,-0.675622,-6.4659123,-1.6822855,-0.6370845,1.0326599,-2.556375
0.922,-0.69069004,-6.4963713,-1.2357563,-0.7070133,0.9409535,-2.6301687
0.924,-0.6913371,-6.5497594,-0.7670511,-0.78449035,0.8472229,-2.7090194
0.926,-0.67601943,-6.6275725,-0.2825532,-0.8643396,0.7601956,-2.7858965
0.928,-0.64305544,-6.7304583,0.20806949,-0.9415435,0.68784744,-2.854398
0.93,-0.5928564,-6.8584375,0.6919941,-1.011949,0.63574195,-2.9099321
0.932,-0.5246632,-7.0113344,1.1627231,-1.0726669,0.6068871,-2.9502487
0.934,-0.438133,-7.1854744,1.6127722,-1.1217918,0.6023349,-2.9753516
0.936,-0.33574605,-7.374716,2.032844,-1.1583999,0.62029827,-2.9871867
0.938,-0.22009611,-7.574706,2.4169989,-1.182522,0.65686667,-2.9889605
0.94,-0.09270668,-7.782773,2.7584474,-1.1948591,0.70797783,-2.9842143
0.942,0.0431273,-7.995252,3.050132,-1.1967057,0.76976466,-2.9761806
0.944,0.18301535,-8.207609,3.2875984,-1.1896135,0.83866155,-2.9671786
0.946,0.32376623,-8.4156475,3.467649,-1.174964,0.91185385,-2.9583817
0.948,0.46226263,-8.615402,3.5877132,-1.153835,0.9871706,-2.950303
0.95,0.5939815,-8.803075,3.6470876,-1.1272471,1.0629476,-2.943194
0.952,0.7146814,-8.975688,3.6472168,-1.0962366,1.1380438,-2.937221
0.954,0.8250289,-9.132393,3.588045,-1.06161,1.2117636,-2.932542
0.956,0.9152577,-9.268351,3.471877,-1.0238996,1.2833905,-2.9293075
0.958,0.9759393,-9.37836,3.3118057,-0.98355246,1.3519523,-2.9274685
0.96,1.010957,-9.461727,3.1140993,-0.94107926,1.4163439,-2.9268289
0.962,1.0273585,-9.523163,2.880007,-0.89705634,1.4754548,-2.9272807
0.964,1.0249257,-9.566805,2.6192448,-0.8520839,1.5282474,-2.9287932
0.966,0.9994168,-9.593585,2.3437698,-0.806746,1.5737934,-2.9313133
0.968,0.9497752,-9.605354,2.0585022,-0.7616874,1.6113088,-2.934715
0.97,0.87872696,-9.605555,1.7650316,-0.71758413,1.6401256,-2.9389207
0.972,0.7876656,-9.593961,1.461502,-0.67509973,1.6596401,-2.944
0.974,0.6771629,-9.566706,1.1481713,-0.6348324,1.6692593,-2.950207
0.976,0.54584646,-9.518497,0.8298633,-0.5972656,1.6683742,-2.957915
0.978,0.3917172,-9.446018,0.5130904,-0.5628234,1.6564367,-2.967506
0.98,0.21449184,-9.351627,0.20278856,-0.5318943,1.6331408,-2.979337
0.982,0.017368078,-9.242798,-0.09809014,-0.5048103,1.5985855,-2.993616
0.984,-0.1950841,-9.127546,-0.38801378,-0.4818479,1.5533941,-3.0102868
0.986,-0.4169078,-9.011696,-0.66667426,-0.46319056,1.4987694,-3.0289862
0.988,-0.641469,-8.899574,-0.93331933,-0.44893235,1.4364128,-3.0490727
0.99,-0.86254203,-8.795694,-1.1856986,-0.4391227,1.3683105,-3.069692
0.992,-1.077076,-8.704245,-1.424843,-0.43374994,1.2965494,-3.089892
0.994,-1.2817512,-8.624764,-1.6582404,-0.4327696,1.2231272,-3.108779
0.996,-1.4770198,-8.554232,-1.8808146,-0.4360626,1.1498477,-3.1256018
0.998,-1.6635458,-8.491674,-2.090696,-0.4433654,1.078247,-3.1398096
1,-1.8342171,-8.442054,-2.2909892,-0.45422858,1.0096563,-3.1510658
1.002,-1.984102,-8.407772,-2.482618,-0.46797413,0.94521177,-3.1592317
1.004,-2.1131196,-8.387949,-2.6700926,-0.48367387,0.88585657,-3.1643286
1.006,-2.219751,-8.381447,-2.8587847,-0.50020784,0.8323822,-3.1664956
1.008,-2.3021827,-8.387655,-3.0505095,-0.51629484,0.78543496,-3.1659365
1.01,-2.3604426,-8.406765,-3.2435606,-0.5305674,0.7455039,-3.162875
1.012,-2.395894,-8.437668,-3.4361057,-0.5416837,0.7128405,-3.1575334
1.014,-2.4091768,-8.478611,-3.6271873,-0.54846716,0.6873492,-3.150036
1.016,-2.401657,-8.527062,-3.8167596,-0.5500362,0.66854954,-3.1403837
1.018,-2.3750196,-8.580294,-4.005109,-0.5458641,0.655529,-3.1285405
1.02,-2.3314705,-8.635544,-4.1920314,-0.535733,0.6470932,-3.1145594
1.022,-2.2736993,-8.690666,-4.3769183,-0.5196873,0.64206266,-3.0982916
1.024,-2.2043662,-8.7439,-4.55826,-0.4983486,0.63890916,-3.0792499
1.026,-2.1264966,-8.794008,-4.7344675,-0.47282368,0.63554215,-3.0574794
1.028,-2.0434337,-8.839284,-4.903364,-0.44403476,0.6304811,-3.033419
1.03,-1.9585371,-8.878053,-5.062647,-0.4127887,0.6227671,-3.0074632
1.032,-1.8750206,-8.908811,-5.209984,-0.3799408,0.6114335,-2.9799197
1.034,-1.7959145,-8.930666,-5.34264,-0.34611154,0.59591097,-2.9511418
1.036,-1.7236736,-8.942924,-5.45829,-0.31177124,0.57599306,-2.9216354
1.038,-1.6605864,-8.945297,-5.5557103,-0.27730104,0.5516449,-2.8920825
1.04,-1.608007,-8.938476,-5.6342173,-0.2430132,0.522958,-2.863283
1.042,-1.5670294,-8.923601,-5.693075,-0.20921741,0.49015445,-2.8359385
1.044,-1.5387743,-8.902106,-5.7323713,-0.17625856,0.45359233,-2.8107085
1.046,-1.524396,-8.875647,-5.751993,-0.14447156,0.4136678,-2.788258
1.048,-1.5242183,-8.846228,-5.751498,-0.11415024,0.3707948,-2.7691526
1.05,-1.5383625,-8.816266,-5.7301946,-0.08552591,0.32540292,-2.7538407
1.052,-1.5667342,-8.787915,-5.6878443,-0.058720082,0.27797872,-2.7426057
1.054,-1.609198,-8.763082,-5.624603,-0.033725016,0.22901128,-2.7355485
1.056,-1.6654601,-8.743901,-5.5416927,-0.010398443,0.17902157,-2.7325575
1.058,-1.7351137,-8.732251,-5.4409003,0.011501319,0.12854652,-2.7332935
1.06,-1.8173511,-8.729934,-5.32413,0.03227985,0.07815011,-2.7372174
1.062,-1.9118022,-8.738309,-5.193419,0.052247114,0.028349608,-2.7436035
1.064,-2.0178237,-8.757892,-5.051423,0.07167334,-0.020410135,-2.751569
1.066,-2.1350236,-8.789011,-4.901094,0.09082615,-0.06771089,-2.7601135
1.068,-2.2630491,-8.831636,-4.7455263,0.109949924,-0.11318755,-2.768207
1.07,-2.4012032,-8.885282,-4.5872483,0.1292671,-0.15662003,-2.7748387
1.072,-2.5485847,-8.949226,-4.4285593,0.14895718,-0.19796252,-2.7790582
1.074,-2.7042377,-9.022273,-4.271678,0.16912556,-0.23739818,-2.780018
1.076,-2.867262,-9.102653,-4.119027,0.1898997,-0.27537128,-2.7773151
1.078,-3.036699,-9.188399,-3.9729593,0.2116369,-0.31213525,-2.7709284
1.08,-3.211245,-9.277043,-3.8360178,0.2346861,-0.34772786,-2.7605362
1.082,-3.3897803,-9.366024,-3.7097225,0.25889838,-0.38290954,-2.7460773
1.084,-3.5706992,-9.453192,-3.5960357,0.2840761,-0.41847676,-2.7281551
1.086,-3.7523208,-9.536303,-3.496982,0.31015578,-0.45474413,-2.7077556
1.088,-3.932855,-9.613373,-3.414167,0.33692652,-0.49208117,-2.6858976
1.09,-4.110385,-9.682571,-3.3486402,0.36416444,-0.53078055,-2.6634994
1.092,-4.283241,-9.742105,-3.3009086,0.39163473,-0.5709946,-2.6413915
1.094,-4.449474,-9.790573,-3.270492,0.41908646,-0.6127579,-2.6203668
1.096,-4.6076646,-9.826844,-3.2558782,0.44625476,-0.65616316,-2.6012735
1.098,-4.756112,-9.850407,-3.2559867,0.47285846,-0.7013618,-2.5848217
1.1,-4.8933735,-9.860406,-3.2710114,0.49851143,-0.74845886,-2.5715144
1.102,-5.016205,-9.8565035,-3.2975178,0.52277595,-0.79756856,-2.5617428
1.104,-5.122092,-9.841936,-3.327491,0.54520166,-0.848831,-2.5557146
1.106,-5.206403,-9.820537,-3.3654974,0.5653189,-0.90239644,-2.5535047
1.108,-5.2656403,-9.793441,-3.4103951,0.5826416,-0.9584106,-2.5550673
1.11,-5.302794,-9.757889,-3.4566784,0.59672284,-1.017027,-2.5601797
1.112,-5.317005,-9.716075,-3.5014663,0.6071397,-1.0783408,-2.5685234
1.114,-5.3042316,-9.672831,-3.5385087,0.6135164,-1.1423625,-2.5796554
1.116,-5.2631273,-9.631411,-3.561101,0.6155717,-1.2090005,-2.5930493
1.118,-5.1934624,-9.593582,-3.5660279,0.6131424,-1.2780247,-2.608133
1.12,-5.094829,-9.559589,-3.552308,0.60620105,-1.3491111,-2.6243591
1.122,-4.9666862,-9.530269,-3.5182636,0.59488964,-1.4218025,-2.6411893
1.124,-4.809848,-9.506751,-3.4611993,0.579501,-1.4955014,-2.6581075
1.126,-4.625043,-9.490799,-3.3784232,0.56045246,-1.5695162,-2.6746597
1.128,-4.413662,-9.483582,-3.2676136,0.5382441,-1.6431693,-2.6904523
1.13,-4.1772056,-9.4858465,-3.1267605,0.5134203,-1.7158302,-2.7051635
1.132,-3.9173512,-9.497759,-2.953853,0.48656797,-1.7870052,-2.7185934
1.134,-3.6359708,-9.5194025,-2.7472508,0.45824894,-1.8563058,-2.73065
1.136,-3.335678,-9.550844,-2.5072525,0.42898,-1.9234653,-2.7413194
1.138,-3.0171819,-9.592291,-2.2317617,0.3991695,-1.9883153,-2.750661
1.14,-2.6847615,-9.642141,-1.9234842,0.36913028,-2.0507348,-2.7587667
1.142,-2.3406463,-9.699337,-1.5835085,0.3390609,-2.110604,-2.7657347
1.144,-1.9879553,-9.7629,-1.2139876,0.30908617,-2.167735,-2.7716455
1.146,-1.6308981,-9.830901,-0.8178037,0.2792849,-2.2218337,-2.7765317
1.148,-1.2730619,-9.901372,-0.39771622,0.24968311,-2.272546,-2.7803767
1.15,-0.91830766,-9.972253,0.043285474,0.22026992,-2.3194456,-2.7830656
1.152,-0.5706165,-10.040884,0.5016924,0.1910207,-2.3619962,-2.7843864
1.154,-0.23313689,-10.104687,0.9735191,0.16193688,-2.3995347,-2.7840486
1.156,0.08971405,-10.160403,1.4536734,0.13306051,-2.4312088,-2.7816405
1.158,0.39408946,-10.205775,1.9375001,0.10446793,-2.4559417,-2.7766142
1.16,0.6772566,-10.238765,2.4207845,0.07625124,-2.4725165,-2.7682855
1.162,0.9360244,-10.2576475,2.8991175,0.048541546,-2.4796448,-2.7559528
1.164,1.1677325,-10.260139,3.3678668,0.021398962,-2.476123,-2.7390559
1.166,1.3698996,-10.2435255,3.822686,-0.0052286386,-2.461268,-2.717215
1.168,1.541023,-10.205656,4.259741,-0.03137076,-2.4345193,-2.6901948
1.17,1.6797925,-10.144752,4.6748605,-0.05730641,-2.3961399,-2.6580794
1.172,1.7854856,-10.059146,5.0643525,-0.08354962,-2.3473158,-2.6213856
1.174,1.8581283,-9.947666,5.4255266,-0.11081338,-2.289843,-2.580801
1.176,1.8985752,-9.809651,5.7564874,-0.13996732,-2.2260408,-2.5371401
1.178,1.907971,-9.644659,6.05602,-0.17193112,-2.1584878,-2.4912903
1.18,1.8880255,-9.452673,6.3233004,-0.20764583,-2.0897858,-2.4440577
1.182,1.8410577,-9.233639,6.557886,-0.2479625,-2.0222554,-2.3960998
1.184,1.7699499,-8.988004,6.759696,-0.29356214,-1.9576861,-2.347943
1.186,1.6780958,-8.716784,6.9296427,-0.3448648,-1.8971779,-2.2999926
1.188,1.5691617,-8.420723,7.0693793,-0.40203083,-1.8413403,-2.2525313
1.19,1.4468559,-8.10102,7.1811733,-0.46489012,-1.7902496,-2.205781
1.192,1.3151977,-7.7592516,7.266666,-0.53301847,-1.7436025,-2.1599636
1.194,1.1780677,-7.3967557,7.3292093,-0.6058675,-1.7009016,-2.1153324
1.196,1.0389382,-7.0152497,7.3707695,-0.6827824,-1.6615516,-2.0722785
1.198,0.901096,-6.616111,7.395296,-0.7631539,-1.6250308,-2.0312784
1.2,0.7678412,-6.201053,7.4060555,-0.8464545,-1.5908732,-1.9928133
1.202,0.64282167,-5.7721577,7.4059877,-0.9322666,-1.5585886,-1.9573002
1.204,0.52849066,-5.331808,7.3990917,-1.0202756,-1.5275944,-1.9251001
1.206,0.4260764,-4.8823853,7.3872113,-1.1102796,-1.4972804,-1.8964734
1.208,0.3377061,-4.4247103,7.3740497,-1.2021943,-1.4670283,-1.8715246
1.21,0.26447284,-3.9599795,7.3637524,-1.2960577,-1.4362023,-1.8501908
1.212,0.20641273,-3.4894586,7.359685,-1.3919723,-1.4042022,-1.8323156
1.214,0.1634509,-3.0146284,7.3654695,-1.4900877,-1.3705044,-1.8176205
1.216,0.13519281,-2.537433,7.3833094,-1.5905757,-1.3346722,-1.8056711
1.218,0.12086487,-2.0589447,7.41419,-1.6935788,-1.296366,-1.7959263
1.22,0.119369626,-1.5799463,7.4583287,-1.7991709,-1.2552581,-1.7877879
1.222,0.12933725,-1.1009561,7.5160956,-1.9075127,-1.2114754,-1.7807913
1.224,0.14889929,-0.62254953,7.588206,-2.018579,-1.1649423,-1.7744766
1.226,0.17601214,-0.14535642,7.6756268,-2.1321833,-1.1154974,-1.7683437
1.228,0.20857167,0.33009672,7.779315,-2.2480738,-1.0632272,-1.7621666
1.23,0.24508786,0.8032416,7.8997297,-2.3659208,-1.0081806,-1.7558736
1.232,0.28375846,1.2739493,8.036534,-2.4853952,-0.9504444,-1.7494515
1.234,0.32285947,1.7423545,8.188402,-2.6060498,-0.89009106,-1.7430457
1.236,0.3605001,2.209199,8.353396,-2.7274284,-0.82714283,-1.7368189
1.238,0.39490616,2.6754332,8.529039,-2.849151,-0.7617101,-1.7308458
1.24,0.42480004,3.1418366,8.71236,-2.9709847,-0.6940054,-1.7252941
1.242,0.44894874,3.6086729,8.900577,-3.0927968,-0.62428343,-1.7204344
1.244,0.46645534,4.076565,9.090945,-3.2145915,-0.55283624,-1.7165875
1.246,0.4774034,4.5460835,9.282287,-3.336457,-0.4799968,-1.7140232
1.248,0.4804492,5.017901,9.470319,-3.4585543,-0.40607092,-1.7128983
1.25,0.47809744,5.4912357,9.655221,-3.581118,-0.33127958,-1.7131786
1.252,0.4706838,5.9666033,9.834398,-3.7044206,-0.2556674,-1.7146941
1.254,0.4599433,6.444608,10.005918,-3.828769,-0.17911267,-1.7171705
1.256,0.44860196,6.9250455,10.1686325,-3.9545155,-0.10131389,-1.7202344
1.258,0.43873715,7.4078526,10.32143,-4.082019,-0.021786928,-1.7234408
1.26,0.43271112,7.893123,10.463187,-4.2116604,0.060085654,-1.7263758
1.262,0.4332025,8.380609,10.593004,-4.343809,0.14501905,-1.7286822
1.264,0.4421885,8.870291,10.710316,-4.478792,0.23374748,-1.7301202
1.266,0.4632671,9.361698,10.81538,-4.6168857,0.32698166,-1.7305274
1.268,0.49879265,9.855365,10.907861,-4.758284,0.42539752,-1.729859
1.27,0.550375,10.351808,10.987326,-4.9031105,0.5295869,-1.7281877
1.272,0.6203952,10.851379,11.054245,-5.051385,0.64000225,-1.7256783
1.274,0.7107477,11.353763,11.109094,-5.202991,0.7569996,-1.7225704
1.276,0.82284164,11.858642,11.152237,-5.3576636,0.88085175,-1.7191145
1.278,0.9571581,12.366064,11.183458,-5.5150185,1.0117347,-1.7156346
1.28,1.1138811,12.876219,11.202448,-5.6746225,1.1496278,-1.7125752
1.282,1.2928176,13.388912,11.208694,-5.835975,1.2943622,-1.7104008
1.284,1.4927492,13.904156,11.201273,-5.998548,1.4454741,-1.7096567
1.286,1.7118168,14.422104,11.179651,-6.161801,1.6022934,-1.7109711
1.288,1.947722,14.9426155,11.142662,-6.3252797,1.763829,-1.7149698
1.29,2.1976676,15.465753,11.088848,-6.488584,1.9287379,-1.7223613
1.292,2.457788,15.99133,11.016942,-6.651326,2.0954149,-1.7338868
1.294,2.723989,16.518938,10.925236,-6.813161,2.2620077,-1.7501065
1.296,2.9913778,17.048513,10.812093,-6.973793,2.4264965,-1.7714692
1.298,3.2550902,17.578785,10.675587,-7.132987,2.5866704,-1.7983001
1.3,3.510044,18.108934,10.51408,-7.2905383,2.740281,-1.8308413
1.302,3.7508745,18.638172,10.326589,-7.446225,2.8852196,-1.8692077
1.304,3.9726157,19.165474,10.111812,-7.599845,3.0195441,-1.9133375
1.306,4.1704965,19.689627,9.870567,-7.751188,3.1415586,-1.9630005
1.308,4.340026,20.20876,9.601994,-7.9000683,3.2499263,-2.0177789
1.31,4.4770308,20.721481,9.306342,-8.046286,3.3436942,-2.0770912
1.312,4.577174,21.226345,8.984682,-8.189636,3.4223423,-2.1402311
1.314,4.637924,21.721916,8.637106,-8.329899,3.4858322,-2.206402
1.316,4.658367,22.206596,8.266159,-8.466823,3.534565,-2.274755
1.318,4.6366205,22.677505,7.8737497,-8.60013,3.5693576,-2.344419
1.32,4.5722637,23.132383,7.4624567,-8.7295475,3.5912776,-2.4145644
1.322,4.4667044,23.569263,7.0352926,-8.854831,3.6015778,-2.484413
1.324,4.320923,23.986578,6.594878,-8.975755,3.6015177,-2.5533054
1.326,4.136751,24.383486,6.145093,-9.092127,3.5922577,-2.6207564
1.328,3.9173393,24.758305,5.6900053,-9.2038555,3.5747638,-2.6863842
1.33,3.6659536,25.109291,5.233771,-9.31093,3.5496655,-2.7499025
1.332,3.3862906,25.43507,4.7808914,-9.413458,3.5172868,-2.8111193
1.334,3.0831404,25.734447,4.3351245,-9.5116005,3.4776459,-2.8699057
1.336,2.7610817,26.00643,3.8999429,-9.605604,3.4304795,-2.926186
1.338,2.4247484,26.250504,3.4783702,-9.695768,3.3753095,-2.9799204
1.34,2.0786037,26.466545,3.0736418,-9.782463,3.3115094,-3.0310829
1.342,1.7270737,26.654943,2.6887922,-9.866127,3.23843,-3.0796597
1.344,1.3741722,26.816345,2.3265715,-9.9472065,3.1554978,-3.1256106
1.346,1.0236444,26.951824,1.989295,-10.026175,3.0623434,-3.1688857
1.348,0.6788187,27.06275,1.6787596,-10.103438,2.958933,-3.2094479
1.35,0.34225655,27.150928,1.3964882,-10.179283,2.8456733,-3.2473025
1.352,0.016366959,27.218685,1.1425905,-10.253843,2.723453,-3.282429
1.354,-0.29733372,27.268316,0.9161253,-10.327082,2.5936685,-3.3148427
1.356,-0.59804106,27.30258,0.71539974,-10.398716,2.4581952,-3.3446786
1.358,-0.8853321,27.324448,0.53840065,-10.468225,2.3193939,-3.3721921
1.36,-1.1594372,27.336918,0.3829069,-10.5348835,2.1799192,-3.3977704
1.362,-1.4211993,27.343182,0.24589205,-10.597826,2.0425665,-3.4219353
1.364,-1.6717348,27.34665,0.12346506,-10.656122,1.9101439,-3.4453647
1.366,-1.9121203,27.350433,0.010981083,-10.708894,1.7852495,-3.4688213
1.368,-2.143579,27.35749,-0.09647083,-10.755391,1.670147,-3.493135
1.37,-2.3673892,27.370262,-0.20391607,-10.795008,1.5666548,-3.5191758
1.372,-2.5847292,27.39118,-0.31665564,-10.827379,1.4761484,-3.547779
1.374,-2.7965822,27.422108,-0.43986416,-10.852285,1.3996618,-3.5796528
1.376,-3.0041409,27.464828,-0.5785456,-10.869671,1.3379793,-3.6153023
1.378,-3.2084317,27.520535,-0.73749256,-10.8796215,1.2917439,-3.6550176
1.38,-3.4096937,27.589674,-0.921155,-10.88233,1.261552,-3.6988418
1.382,-3.609447,27.672596,-1.1334758,-10.877998,1.2480766,-3.746653
1.384,-3.8080282,27.768753,-1.3780088,-10.866779,1.252133,-3.7981625
1.386,-4.005601,27.87764,-1.6573772,-10.848749,1.2747219,-3.852908
1.388,-4.201658,27.997992,-1.9731698,-10.823915,1.3170038,-3.9103107
1.39,-4.395604,28.12836,-2.3253183,-10.792182,1.380296,-3.9697285
1.392,-4.586609,28.267033,-2.7128792,-10.753412,1.46591,-4.0304527
1.394,-4.773452,28.412117,-3.1341724,-10.70739,1.5750802,-4.091752
1.396,-4.9538856,28.561317,-3.5866153,-10.653864,1.7087891,-4.152952
1.398,-5.129119,28.714052,-4.0680604,-10.592581,1.8676423,-4.2134624
1.4,-5.295855,28.866774,-4.5800676,-10.523293,2.0517383,-4.272812
1.402,-5.450571,29.016977,-5.119527,-10.445799,2.2605734,-4.3306837
1.404,-5.5932684,29.163769,-5.677049,-10.359942,2.4929843,-4.3869305
1.406,-5.7227836,29.303465,-6.2442217,-10.265566,2.7472224,-4.4416246
1.408,-5.8374767,29.433558,-6.81822,-10.162491,3.0209637,-4.495021
1.41,-5.935349,29.5534,-7.39755,-10.050566,3.31136,-4.5474854
1.412,-6.013569,29.660986,-7.9810624,-9.929634,3.6151063,-4.5994844
1.414,-6.070062,29.753794,-8.565016,-9.799506,3.9286652,-4.6515875
1.416,-6.1037035,29.82965,-9.144751,-9.659991,4.2483068,-4.7044573
1.418,-6.1140623,29.88645,-9.71624,-9.510903,4.570217,-4.7587576
1.42,-6.0998626,29.922096,-10.277056,-9.352041,4.8906674,-4.8151536
1.422,-6.060175,29.93488,-10.826029,-9.18321,5.2060857,-4.874238
1.424,-5.9944324,29.922869,-11.362718,-9.004265,5.5131245,-4.936494
1.426,-5.9025264,29.883936,-11.887343,-8.8150835,5.808615,-5.002285
1.428,-5.784856,29.816414,-12.400384,-8.615565,6.0897217,-5.0717545
1.43,-5.6422234,29.718649,-12.902097,-8.405821,6.353731,-5.1446934
1.432,-5.4759245,29.588913,-13.392612,-8.186147,6.5980873,-5.22096
1.434,-5.287219,29.42561,-13.872555,-7.9569016,6.820597,-5.300343
1.436,-5.0777063,29.227127,-14.343443,-7.7185807,7.019691,-5.382148
1.438,-4.850028,28.992586,-14.806982,-7.4718513,7.194118,-5.465257
1.44,-4.6066656,28.721582,-15.264599,-7.2174044,7.3426585,-5.548583
1.442,-4.3503466,28.413658,-15.71803,-6.9560475,7.464268,-5.6311884
1.444,-4.0844574,28.068928,-16.168142,-6.688775,7.5582,-5.7122245
1.446,-3.8123627,27.687878,-16.615274,-6.4166303,7.6241264,-5.7909694
1.448,-3.537117,27.271046,-17.05911,-6.1406937,7.6620507,-5.866634
1.45,-3.2620506,26.819561,-17.49979,-5.8620424,7.672312,-5.9383144
1.452,-2.9899015,26.33479,-17.937191,-5.5817747,7.655451,-6.0051537
1.454,-2.723362,25.818724,-18.370993,-5.3009696,7.612109,-6.06633
1.456,-2.4646673,25.273548,-18.800241,-5.0206876,7.542985,-6.1210823
1.458,-2.2156897,24.701742,-19.223656,-4.741931,7.448757,-6.1688027
1.46,-1.9780235,24.106133,-19.640038,-4.46565,7.330074,-6.2090583
1.462,-1.7527533,23.489845,-20.04759,-4.1926827,7.1875973,-6.2415605
1.464,-1.5405912,22.856308,-20.443995,-3.9237711,7.022036,-6.2662725
1.466,-1.3414097,22.208752,-20.827118,-3.6595201,6.8342295,-6.2833443
1.468,-1.1548214,21.55069,-21.195211,-3.4004426,6.6251497,-6.2930613
1.47,-0.9799423,20.885881,-21.546967,-3.1469753,6.3960104,-6.295786
1.472,-0.8154669,20.217875,-21.88076,-2.8994892,6.1482677,-6.291853
1.474,-0.6599932,19.550007,-22.194857,-2.658298,5.88361,-6.2815385
1.476,-0.5118561,18.885624,-22.487873,-2.4236631,5.603917,-6.265023
1.478,-0.36907578,18.228218,-22.758469,-2.195788,5.3112073,-6.24236
1.48,-0.23009205,17.58107,-23.005238,-1.9748001,5.007598,-6.213485
1.482,-0.09330082,16.946962,-23.227304,-1.7607932,4.6950617,-6.178343
1.484,0.042808533,16.328865,-23.424551,-1.5536728,4.375576,-6.1369247
1.486,0.1800518,15.72928,-23.597515,-1.3532555,4.0509915,-6.088945
1.488,0.3199625,15.150808,-23.746948,-1.1593809,3.722814,-6.0342197
1.49,0.46365356,14.596101,-23.873636,-0.9718323,3.392098,-5.972971
1.492,0.6133175,14.06698,-23.978148,-0.7903367,3.05986,-5.9055657
1.494,0.76976013,13.565639,-24.061419,-0.6146705,2.727189,-5.832153
1.496,0.9338417,13.093377,-24.125114,-0.44453394,2.394915,-5.752765
1.498,1.1056881,12.651522,-24.171453,-0.27959454,2.0634747,-5.6675897
1.5,1.2853117,12.241041,-24.20308,-0.119621515,1.7329882,-5.5769343
1.502,1.4728479,11.862675,-24.223017,0.03547609,1.4033278,-5.481361
1.504,1.6679726,11.517004,-24.233932,0.18570101,1.0741527,-5.3815227
1.506,1.8694658,11.2049265,-24.23894,0.33097994,0.74508226,-5.2780333
1.508,2.0794244,10.925421,-24.239233,0.4711951,0.415632,-5.171534
1.51,2.294725,10.679845,-24.232908,0.60621274,0.08526397,-5.06269
1.512,2.5132456,10.468254,-24.223396,0.7358715,-0.2465226,-4.9521594
1.514,2.735702,10.2892275,-24.217924,0.8600166,-0.58025074,-4.8406286
1.516,2.961401,10.143584,-24.220598,0.9785164,-0.9163772,-4.728858
1.518,3.1882157,10.031202,-24.22921,1.0913086,-1.2552346,-4.6176167
1.52,3.4141598,9.949324,-24.241634,1.1984018,-1.5969838,-4.5077147
1.522,3.6364818,9.896965,-24.256813,1.2998934,-1.9415733,-4.399953
1.524,3.8530655,9.873949,-24.276672,1.3959771,-2.2887716,-4.2950873
1.526,4.0631905,9.879543,-24.303356,1.4868776,-2.6382177,-4.193876
1.528,4.2660575,9.912651,-24.337326,1.572865,-2.9894423,-4.097009
1.53,4.459801,9.971928,-24.376833,1.6541985,-3.341876,-4.005107
1.532,4.6430707,10.055492,-24.419292,1.7311233,-3.6948905,-3.9186993
1.534,4.814499,10.161819,-24.462254,1.8038018,-4.047818,-3.8382134
1.536,4.9731054,10.289562,-24.503452,1.8723354,-4.3998923,-3.7639675
1.538,5.118312,10.436852,-24.540987,1.9367774,-4.7502756,-3.6962001
1.54,5.250626,10.602127,-24.572987,1.9971296,-5.098068,-3.6351008
1.542,5.370044,10.784021,-24.597418,2.0533857,-5.4422565,-3.5808034
1.544,5.476774,10.981029,-24.61154,2.1055465,-5.7816687,-3.533423
1.546,5.571386,11.191486,-24.612484,2.1536198,-6.114996,-3.4930627
1.548,5.65442,11.41361,-24.597216,2.1976318,-6.4408283,-3.4598079
1.55,5.726442,11.64562,-24.562813,2.2376354,-6.7576466,-3.4337568
1.552,5.788022,11.8857565,-24.50669,2.2737005,-7.06387,-3.4149618
1.554,5.8398685,12.132151,-24.426395,2.3059115,-7.357917,-3.4034274
1.556,5.882299,12.382961,-24.319927,2.3343403,-7.6382055,-3.3991075
1.558,5.915613,12.636542,-24.185776,2.3590384,-7.90327,-3.4019566
1.56,5.940048,12.891045,-24.022442,2.3800373,-8.151831,-3.411868
1.562,5.9553227,13.144566,-23.828714,2.3973498,-8.382749,-3.4286547
1.564,5.9615593,13.394995,-23.603638,2.4109306,-8.595094,-3.4520879
1.566,5.958457,13.640476,-23.347034,2.420744,-8.788157,-3.4819283
1.568,5.945407,13.878859,-23.05906,2.4267724,-8.961367,-3.517892
1.57,5.9216537,14.108171,-22.740002,2.429022,-9.114281,-3.559666
1.572,5.88636,14.326653,-22.390575,2.4275138,-9.246609,-3.6069295
1.574,5.838622,14.53245,-22.012304,2.4222815,-9.358137,-3.659368
1.576,5.7774134,14.72379,-21.606977,2.4134035,-9.44874,-3.7167237
1.578,5.70163,14.898778,-21.176582,2.4009733,-9.518312,-3.7788181
1.58,5.610507,15.055598,-20.723373,2.3850918,-9.56674,-3.845491
1.582,5.503537,15.19285,-20.250149,2.3658648,-9.593899,-3.9166229
1.584,5.3802376,15.30956,-19.760014,2.3434048,-9.599697,-3.9921174
1.586,5.240204,15.404722,-19.255894,2.3177972,-9.584038,-4.071885
1.588,5.083377,15.477226,-18.741272,2.2891266,-9.546842,-4.1558046
1.59,4.9103336,15.526377,-18.219875,2.2574475,-9.488117,-4.2437134
1.592,4.7215414,15.551886,-17.694923,2.2227683,-9.407978,-4.335403
1.594,4.5179434,15.5539465,-17.16951,2.1850462,-9.306616,-4.430636
1.596,4.300557,15.532747,-16.646246,2.144189,-9.184324,-4.5291653
1.598,4.070891,15.488582,-16.12767,2.1001012,-9.041483,-4.6307764
1.6,3.830549,15.422271,-15.6165905,2.0526662,-8.878587,-4.735305
1.602,3.5814447,15.335085,-15.1161785,2.0017614,-8.696182,-4.8426876
1.604,3.325887,15.228491,-14.6287775,1.947284,-8.494898,-4.9529877
1.606,3.0665593,15.104405,-14.155958,1.8891401,-8.275387,-5.0664196
1.608,2.80634,14.965191,-13.699326,1.8272767,-8.038311,-5.1833086
1.61,2.5487096,14.813169,-13.260444,1.7616918,-7.784321,-5.304034
1.612,2.2970498,14.651249,-12.840542,1.6924245,-7.5140038,-5.429004
1.614,2.0556102,14.481912,-12.440412,1.6195645,-7.227854,-5.558647
1.616,1.8285096,14.308034,-12.060899,1.543267,-6.9262743,-5.6933875
1.618,1.6201749,14.13303,-11.702845,1.4637444,-6.609541,-5.8336315
1.62,1.4352518,13.960588,-11.366733,1.3812411,-6.2778044,-5.979712
1.622,1.2783356,13.794389,-11.05294,1.2960063,-5.9311376,-6.1319056
1.624,1.1542747,13.638383,-10.761573,1.2082983,-5.569539,-6.2904468
1.626,1.0675669,13.496588,-10.492492,1.1183885,-5.192981,-6.4555697
1.628,1.0232754,13.3728285,-10.245671,1.026547,-4.801476,-6.627513
1.63,1.0258497,13.27133,-10.020997,0.9330188,-4.39506,-6.8064914
1.632,1.0798484,13.196361,-9.818378,0.8380853,-3.9738443,-6.9926972
1.634,1.189179,13.151867,-9.637812,0.74204904,-3.5380082,-7.186333
1.636,1.3573505,13.141933,-9.479211,0.64526826,-3.0877814,-7.3875203
1.638,1.5875528,13.170643,-9.342798,0.54813266,-2.623413,-7.5963154
1.64,1.8823774,13.242019,-9.229498,0.4511143,-2.145188,-7.8126307
1.642,2.2441149,13.359966,-9.139769,0.35475153,-1.653398,-8.036306
1.644,2.6742635,13.527801,-9.074404,0.25961196,-1.1483431,-8.267025
1.646,3.1731224,13.7494755,-9.033747,0.16631484,-0.6303079,-8.504324
1.648,3.7411985,14.028311,-9.018123,0.07550168,-0.09965801,-8.747621
1.65,4.378005,14.367046,-9.028537,-0.012187004,0.44310045,-8.996213
1.652,5.0828333,14.767884,-9.065466,-0.0961082,0.9973707,-9.249339
1.654,5.854725,15.232721,-9.129638,-0.17564344,1.5624299,-9.506193
1.656,6.691907,15.763366,-9.221758,-0.25016165,2.1373851,-9.765949
1.658,7.5928855,16.361322,-9.342739,-0.31903744,2.721257,-10.027741
1.66,8.555782,17.027214,-9.493505,-0.38162637,3.312983,-10.290697
1.662,9.578891,17.76101,-9.674791,-0.43728542,3.9114559,-10.553955
1.664,10.659937,18.562378,-9.887456,-0.4853468,4.5156007,-10.816647
1.666,11.79694,19.430532,-10.132201,-0.5251398,5.1244707,-11.077883
1.668,12.986948,20.36398,-10.4092655,-0.55600953,5.737334,-11.336722
1.67,14.226976,21.36044,-10.717973,-0.5773387,6.35366,-11.592106
1.672,15.514021,22.416672,-11.057569,-0.58854985,6.9731956,-11.842822
1.674,16.844248,23.529228,-11.427113,-0.5890956,7.5959373,-12.08754
1.676,18.213776,24.693638,-11.824874,-0.57846594,8.222054,-12.324804
1.678,19.618397,25.905342,-12.248831,-0.5561948,8.85196,-12.553058
1.68,21.053955,27.158554,-12.696133,-0.5218644,9.486229,-12.770665
1.682,22.515636,28.44682,-13.163561,-0.4750471,10.125436,-12.9759
1.684,23.998632,29.7635,-13.647148,-0.41535425,10.77004,-13.166984
1.686,25.498106,31.10117,-14.142002,-0.34244728,11.420306,-13.342152
1.688,27.00843,32.45215,-14.643302,-0.25602198,12.076161,-13.499649
1.69,28.524645,33.807854,-15.146694,-0.15585136,12.737179,-13.637821
1.692,30.041769,35.15938,-15.647316,-0.041832924,13.402445,-13.755117
1.694,31.55482,36.497868,-16.139746,0.086016655,14.070612,-13.85013
1.696,33.059303,37.814587,-16.61884,0.22746515,14.739913,-13.921517
1.698,34.551655,39.10103,-17.079712,0.38209915,15.408289,-13.968208
1.7,36.02841,40.348724,-17.517593,0.54929066,16.073431,-13.989325
1.702,37.487316,41.54925,-17.927849,0.72815084,16.73297,-13.984143
1.704,38.92659,42.694626,-18.306545,0.91758394,17.38453,-13.952115
1.706,40.344982,43.77775,-18.650238,1.1162786,18.025723,-13.892824
1.708,41.742035,44.792416,-18.956017,1.3227124,18.65427,-13.806054
1.71,43.118168,45.733,-19.221645,1.5351787,19.267906,-13.691754
1.712,44.47503,46.59458,-19.44542,1.7518148,19.864445,-13.550073
1.714,45.814713,47.373287,-19.626898,1.9706306,20.441797,-13.381397
1.716,47.13981,48.066273,-19.766834,2.189486,20.99786,-13.186375
1.718,48.453194,48.672012,-19.866611,2.4061668,21.530571,-12.965975
1.72,49.757896,49.189766,-19.928862,2.6184113,22.037909,-12.721491
1.722,51.059586,49.617813,-19.953426,2.823913,22.517982,-12.454586
1.724,52.361576,49.957733,-19.943058,3.0203123,22.969059,-12.167158
1.726,53.666447,50.21203,-19.903133,3.2052927,23.389715,-11.86134
1.728,54.978134,50.38241,-19.838058,3.3765411,23.77886,-11.539398
1.73,56.301025,50.47078,-19.751457,3.531826,24.135729,-11.203594
1.732,57.638535,50.480362,-19.64756,3.66901,24.459785,-10.856052
1.734,58.993816,50.414314,-19.531403,3.7860727,24.75077,-10.498677
1.736,60.370075,50.275677,-19.408377,3.8810775,25.008581,-10.133077
1.738,61.770245,50.067703,-19.283222,3.9522607,25.2332,-9.760566
1.74,63.19707,49.793373,-19.159853,3.9979675,25.424616,-9.382074
1.742,64.65265,49.455822,-19.042423,4.0166826,25.582806,-8.99819
1.744,66.14008,49.057648,-18.93395,4.006983,25.707687,-8.609213
1.746,67.66235,48.6016,-18.837471,3.967563,25.799297,-8.215169
1.748,69.22197,48.091305,-18.755075,3.8972387,25.857782,-7.8159184
1.75,70.82254,47.530724,-18.687956,3.7949054,25.883535,-7.4112062
1.752,72.468346,46.92366,-18.637024,3.6594002,25.877342,-7.0005684
1.754,74.16468,46.2753,-18.6031,3.4898002,25.840775,-6.58349
1.756,75.91705,45.59121,-18.586445,3.2853212,25.776123,-6.1596794
1.758,77.73213,44.87707,-18.585506,3.0451403,25.686264,-5.7289553
1.76,79.61636,44.14073,-18.598877,2.7683206,25.574783,-5.291007
1.762,81.574554,43.394535,-18.626377,2.4539933,25.446167,-4.8455677
1.764,83.613754,42.650597,-18.667164,2.101306,25.305567,-4.3924565
1.766,85.74319,41.91906,-18.715775,1.7094345,25.158573,-3.9316049
1.768,87.97094,41.212585,-18.7611,1.2776203,25.010979,-3.4629831
1.77,90.30066,40.550816,-18.79734,0.80523634,24.868746,-2.986495
1.772,92.7369,39.959965,-18.825901,0.29187584,24.737867,-2.5020425
1.774,95.28867,39.467037,-18.842606,-0.26260853,24.623981,-2.009481
1.776,97.96126,39.094433,-18.842371,-0.85811806,24.532026,-1.5085783
1.778,100.76143,38.865273,-18.820475,-1.494174,24.465977,-0.99905586
1.78,103.69304,38.819168,-18.772604,-2.1698833,24.428658,-0.48063302
1.782,106.755714,39.000797,-18.695484,-2.8840446,24.421686,0.04725361
1.784,109.95002,39.46332,-18.583414,-3.6350574,24.445272,0.5853764
1.786,113.272804,40.25174,-18.434013,-4.4210186,24.498003,1.1346333
1.788,116.72532,41.37283,-18.259674,-5.239849,24.576794,1.6961396
1.79,120.29639,42.87508,-18.072372,-6.0892467,24.677153,2.271309
1.792,123.977196,44.783413,-17.847775,-6.9666853,24.792927,2.861336
1.794,127.767235,47.112755,-17.552513,-7.8697877,24.915966,3.4674795
1.796,131.77565,49.863945,-17.274246,-8.796876,25.0365,4.091382
1.798,135.93018,53.116028,-17.09256,-9.747254,25.142456,4.735091
1.8,140.19075,56.86661,-16.964268,-10.720231,25.220322,5.4003334
1.802,144.57317,61.196373,-16.85868,-11.715012,25.255444,6.0885086
1.804,149.0877,66.15159,-16.774597,-12.732238,25.230492,6.80083
1.806,153.72037,71.679855,-16.691233,-13.774506,25.12529,7.538772
1.808,158.4617,77.72529,-16.548805,-14.845263,24.91828,8.305603
1.81,163.32057,84.26858,-16.343224,-15.948546,24.58603,9.1061535
1.812,168.29962,91.24749,-16.111027,-17.088854,24.103117,9.945609
1.814,173.42807,98.66506,-15.758705,-18.270596,23.442635,10.829508
1.816,178.71317,106.42794,-15.283531,-19.497822,22.578272,11.764046
1.818,184.17542,114.46797,-14.671616,-20.772398,21.486649,12.758272
1.82,189.838,122.70999,-13.913223,-22.09328,20.146166,13.823532
1.822,195.72299,131.0681,-12.994194,-23.458958,18.534435,14.97388
1.824,201.7789,139.44804,-11.862144,-24.863165,16.635746,16.233692
1.826,207.96631,147.7279,-10.434174,-26.295654,14.447252,17.628323
1.828,214.25894,155.79109,-8.649044,-27.740389,11.982788,19.167633
1.83,220.56494,163.47775,-6.453518,-29.187634,9.270083,20.87386
1.832,226.89484,170.54558,-3.7811356,-30.654976,6.3517275,22.761696
1.834,233.2608,176.82463,-0.5515213,-32.16811,3.2441626,24.815937
1.836,239.58388,182.27798,3.2897549,-33.71893,-0.03250599,27.013336
1.838,245.78519,186.84218,7.7852535,-35.291454,-3.418168,29.338024
1.84,251.7645,190.42072,12.986643,-36.886265,-6.8344545,31.731386
1.842,257.4219,192.92398,18.932522,-38.529037,-10.238493,34.1238
1.844,262.65643,194.28282,25.642653,-40.251534,-13.603982,36.423985
1.846,267.33444,194.4714,33.103104,-42.066406,-16.911886,38.514343
1.848,271.30762,193.5068,41.260246,-43.961353,-20.161211,40.255863
1.85,274.44794,191.4324,50.021008,-45.898594,-23.360996,41.4971
1.852,276.6463,188.30771,59.28183,-47.809753,-26.541126,42.089535
1.854,277.80377,184.2133,68.95101,-49.59095,-29.74041,41.904026
1.856,277.82047,179.2384,78.9226,-51.102253,-32.97847,40.844025
1.858,276.62866,173.47147,89.05931,-52.176853,-36.239086,38.85559
1.86,274.18497,167.0459,99.170815,-52.642773,-39.463387,35.929504
1.862,270.47467,160.1195,109.04412,-52.342175,-42.55381,32.127495
1.864,265.51428,152.84552,118.46873,-51.143055,-45.37371,27.586395
1.866,259.34787,145.38376,127.234726,-48.96924,-47.761078,22.467394
1.868,252.05826,137.89369,135.13696,-45.815403,-49.553898,16.951736
1.87,243.76389,130.52759,141.9831,-41.743713,-50.60604,11.253647
1.872,234.61572,123.425316,147.60905,-36.879475,-50.805355,5.609743
1.874,224.78143,116.72207,151.88248,-31.399319,-50.08926,0.26724815
1.876,214.43857,110.5459,154.6993,-25.510384,-48.449047,-4.531576
1.878,203.7757,105.00074,155.98985,-19.43391,-45.9351,-8.571146
1.88,192.98778,100.15677,155.73688,-13.386136,-42.65428,-11.670815
1.882,182.26111,96.05614,153.97466,-7.5672293,-38.76348,-13.699215
1.884,171.76567,92.72225,150.77374,-2.1410542,-34.44994,-14.617434
1.886,161.65874,90.164764,146.24445,2.7806015,-29.909203,-14.46171
1.888,152.075,88.37143,140.53293,7.1101255,-25.307981,-13.336088
1.89,143.12747,87.295425,133.81294,10.763182,-20.824022,-11.435185
1.892,134.90424,86.873,126.280106,13.702172,-16.655027,-9.032154
1.894,127.46203,87.02219,118.140976,15.9452095,-12.968028,-6.4054976
1.896,120.83043,87.65976,109.61052,17.55077,-9.85707,-3.8475108
1.898,115.006424,88.72074,100.91115,18.588951,-7.381539,-1.6182997
1.9,109.97162,90.085365,92.24621,19.1279,-5.5711718,0.082508445
1.902,105.67966,91.65383,83.768394,19.244072,-4.4101458,1.1280911
1.904,102.0586,93.32752,75.610245,19.028671,-3.842567,1.4680395
1.906,98.942566,95.014404,67.97969,18.581661,-3.762329,1.1217659
1.908,96.344154,96.55772,61.00681,18.002468,-4.031978,0.16864109
1.91,94.20608,97.897095,54.669518,17.383425,-4.506713,-1.2643538
1.912,92.412735,98.9059,48.955276,16.807577,-5.041864,-3.018392
1.914,90.867905,99.52227,43.864845,16.348316,-5.5000515,-4.9189634
1.916,89.505394,99.77965,39.360626,16.061962,-5.7595053,-6.8111067
1.918,88.257675,99.692924,35.36525,15.980129,-5.7297616,-8.563892
1.92,87.05097,99.236534,31.85057,16.122118,-5.3564363,-10.045007
1.922,85.83086,98.42851,28.802534,16.49216,-4.619834,-11.154949
1.924,84.53395,97.23155,26.081207,17.07272,-3.5402918,-11.853315
1.926,83.134285,95.70931,23.651989,17.829205,-2.1710386,-12.147455
1.928,81.602615,93.88974,21.464928,18.715607,-0.5861025,-12.078118
1.93,79.91883,91.80797,19.476318,19.677896,1.1266937,-11.70673
1.932,78.07233,89.508575,17.642021,20.658504,2.8747063,-11.104045
1.934,76.11517,87.041245,15.895699,21.602573,4.5720615,-10.341208
1.936,74.063515,84.47467,14.171146,22.463318,6.1491237,-9.481963
1.938,71.90914,81.86162,12.450085,23.201735,7.551499,-8.580122
1.94,69.68842,79.283714,10.7355385,23.784866,8.734202,-7.6795197
1.942,67.32949,76.864914,9.024712,24.190367,9.666729,-6.812151
1.944,64.78479,74.62308,7.316658,24.406443,10.339525,-5.996181
1.946,62.097397,72.46973,5.6409683,24.430878,10.761047,-5.236314
1.948,59.287468,70.390495,4.028366,24.27116,10.95082,-4.5312138
1.95,56.38125,68.42211,2.4903717,23.942186,10.934833,-3.878148
1.952,53.39243,66.59941,1.0431328,23.463524,10.744234,-3.2737665
1.954,50.32995,64.94472,-0.29380798,22.85778,10.413734,-2.7149134
1.956,47.226635,63.454124,-1.4921341,22.149582,9.979046,-2.1988583
1.958,44.11696,62.10975,-2.5192757,21.363937,9.474358,-1.7223711
1.96,41.012245,60.89884,-3.3460522,20.524902,8.930401,-1.2807722
1.962,37.91494,59.819965,-3.9724483,19.65479,8.373547,-0.86863995
1.964,34.83358,58.87368,-4.434517,18.773294,7.825623,-0.48123074
1.966,31.793236,58.066666,-4.76528,17.896765,7.3039,-0.11507225
1.968,28.805696,57.413086,-4.9787846,17.0378,6.8210864,0.2320528
1.97,25.88372,56.88951,-5.0574245,16.205402,6.385829,0.5614567
1.972,23.037777,56.46595,-4.98773,15.405452,6.0031734,0.8737521
1.974,20.277927,56.12672,-4.7759094,14.641237,5.6751337,1.1689758
1.976,17.615753,55.854332,-4.434655,13.913867,5.4013047,1.4467621
1.978,15.05301,55.633686,-3.9781637,13.222749,5.1795187,1.7065539
1.98,12.587371,55.451687,-3.4203234,12.566045,5.0063057,1.9476256
1.982,10.214593,55.29756,-2.7821074,11.941072,4.8773565,2.1690774
1.984,7.9348307,55.157043,-2.0855646,11.344673,4.7879205,2.3699117
1.986,5.752866,55.014854,-1.3479476,10.773502,4.7330194,2.5493436
1.988,3.6712198,54.8643,-0.5835204,10.224245,4.707707,2.7069416
1.99,1.6915598,54.708103,0.19151068,9.693795,4.707264,2.8428786
1.992,-0.18425679,54.550575,0.961025,9.179319,4.727229,2.957905
1.994,-1.9554025,54.39305,1.710545,8.678326,4.763446,3.053257
1.996,-3.6230457,54.233913,2.4273922,8.188702,4.812088,3.130548
1.998,-5.1899576,54.070747,3.1015434,7.708766,4.8695607,3.1916168
2,-6.6618257,53.90244,3.7254658,7.2372837,4.9325023,3.238531
2.002,-8.045059,53.728413,4.2938476,6.773513,4.9978724,3.2734885
2.004,-9.346735,53.549038,4.802743,6.317251,5.0630336,3.29865
2.006,-10.574653,53.366596,5.2483406,5.8687263,5.125579,3.3161798
2.008,-11.736328,53.183895,5.6278024,5.4285345,5.183424,3.3283238
2.01,-12.838878,53.004353,5.939617,4.9975266,5.234924,3.3374379
2.012,-13.889641,52.831146,6.1835613,4.576643,5.2786965,3.3459668
2.014,-14.895872,52.6665,6.3610697,4.166748,5.313469,3.356469
2.016,-15.863655,52.51136,6.4750013,3.7684758,5.3379693,3.3716254
2.018,-16.799423,52.367,6.529415,3.3821392,5.3507156,3.3941722
2.02,-17.708954,52.233692,6.528404,3.0076284,5.349783,3.4267793
2.022,-18.596704,52.110252,6.4766655,2.6443143,5.3326087,3.4719677
2.024,-19.466143,51.994053,6.379819,2.291007,5.295768,3.53201
2.026,-20.31937,51.88092,6.244424,1.9459503,5.234931,3.6087625
2.028,-21.156776,51.765373,6.0779047,1.6068996,5.144946,3.7035449
2.03,-21.977604,51.64122,5.8885765,1.2712357,5.019988,3.816992
2.032,-22.779026,51.501373,5.6859417,0.93607104,4.8538322,3.9489584
2.034,-23.557354,51.338394,5.48018,0.5984261,4.6401653,4.098426
2.036,-24.307339,51.144516,5.2824354,0.25543165,4.372942,4.2634015
2.038,-25.022442,50.91241,5.104162,-0.095538616,4.046841,4.4410057
2.04,-25.69531,50.634552,4.9572926,-0.45667338,3.6576242,4.627533
2.042,-26.318378,50.304153,4.854454,-0.8294225,3.202619,4.8183203
2.044,-26.88352,49.914856,4.8084946,-1.2144144,2.680891,5.007757
2.046,-27.382935,49.461365,4.8318005,-1.6113689,2.093483,5.1895795
2.048,-27.809427,48.939583,4.935755,-2.0190027,1.4436456,5.357004
2.05,-28.156467,48.34667,5.130253,-2.4350634,0.7370034,5.5027704
2.052,-28.41858,47.681458,5.423292,-2.8564713,-0.018607736,5.619562
2.054,-28.591934,46.94328,5.821454,-3.2794566,-0.81324697,5.700431
2.056,-28.672777,46.13594,6.329153,-3.699769,-1.6350014,5.739275
2.058,-28.661724,45.263226,6.9478283,-4.1129456,-2.470265,5.731369
2.06,-28.556429,44.329796,7.676255,-4.514492,-3.3039603,5.6736937
2.062,-28.359442,43.342968,8.510401,-4.9001446,-4.1200137,5.565231
2.064,-28.073925,42.311516,9.443977,-5.2660475,-4.9018445,5.4071627
2.066,-27.703732,41.244923,10.467816,-5.6088605,-5.6328106,5.202865
2.068,-27.253521,40.15297,11.56975,-5.9258037,-6.2966785,4.957664
2.07,-26.729523,39.046234,12.735348,-6.214667,-6.878172,4.678382
2.072,-26.139126,37.935577,13.948183,-6.47371,-7.3633823,4.3728642
2.074,-25.489454,36.83172,15.190298,-6.701598,-7.7401958,4.049424
2.076,-24.787807,35.745422,16.442123,-6.8973484,-7.998676,3.7163272
2.078,-24.040379,34.686382,17.683525,-7.0603156,-8.1314125,3.381354
2.08,-23.253813,33.663708,18.893784,-7.190165,-8.133792,3.0514624
2.082,-22.433027,32.68514,20.052332,-7.286885,-8.00409,2.732592
2.084,-21.58301,31.757309,21.139864,-7.350687,-7.7432456,2.4295762
2.086,-20.707886,30.885822,22.138325,-7.38239,-7.355735,2.145714
2.088,-19.81145,30.075108,23.030642,-7.3832355,-6.8484573,1.8828182
2.09,-18.896667,29.328682,23.802132,-7.354789,-6.230584,1.6415248
2.092,-17.966091,28.64882,24.440895,-7.299139,-5.5137296,1.4211813
2.094,-17.02143,28.037277,24.937273,-7.218779,-4.711318,1.2198867
2.096,-16.064152,27.494736,25.284706,-7.1166544,-3.8382204,1.0348558
2.098,-15.095211,27.020882,25.479404,-6.996045,-2.910205,0.862658
2.1,-14.11562,26.614666,25.520908,-6.860465,-1.9434538,0.6993594
2.102,-13.126791,26.274153,25.41136,-6.713617,-0.95414186,0.5409224
2.104,-12.129768,25.996773,25.155674,-6.5592804,0.0420565,0.38363957
2.106,-11.125801,25.778801,24.761559,-6.4011703,1.0305328,0.22417784
2.108,-10.116463,25.616207,24.238724,-6.242842,1.9981112,0.05978155
2.11,-9.102975,25.504269,23.59887,-6.0876026,2.933299,-0.111570835
2.112,-8.086774,25.438065,22.855083,-5.938356,3.826569,-0.29114175
2.114,-7.069069,25.412542,22.021227,-5.7975273,4.6705184,-0.47945023
2.116,-6.05077,25.421871,21.112043,-5.666989,5.4598656,-0.6763785
2.118,-5.0330944,25.460997,20.142536,-5.548032,6.191386,-0.881263
2.12,-4.0171328,25.524357,19.127588,-5.4413524,6.8637486,-1.0930204
2.122,-3.0036592,25.60671,18.081871,-5.3470907,7.477257,-1.3102903
2.124,-1.9935274,25.703257,17.019457,-5.264935,8.033542,-1.5315008
2.126,-0.98821545,25.809917,15.953228,-5.1941576,8.535301,-1.7549882
2.128,0.011732101,25.922056,14.894761,-5.1336946,8.986018,-1.9790657
2.13,1.0052867,26.035748,13.855192,-5.0822096,9.389668,-2.2021205
2.132,1.9914541,26.14769,12.844376,-5.0381784,9.750458,-2.4226563
2.134,2.9696653,26.254822,11.870231,-4.9999847,10.0725975,-2.6393003
2.136,3.939283,26.354618,10.939449,-4.966015,10.360152,-2.8508363
2.138,4.8995256,26.445044,10.057395,-4.9347434,10.616819,-3.0562663
2.14,5.850612,26.524035,9.227926,-4.904463,10.84651,-3.254568
2.142,6.7918468,26.590134,8.453359,-4.8736467,11.05229,-3.4449246
2.144,7.7225785,26.64223,7.735117,-4.8410177,11.236724,-3.6268764
2.146,8.642027,26.679153,7.0737805,-4.8052664,11.402332,-3.8000822
2.148,9.549287,26.699694,6.4687004,-4.765229,11.551227,-3.9643068
2.15,10.443304,26.702852,5.918254,-4.719838,11.685217,-4.119447
2.152,11.323065,26.687544,5.4201365,-4.6681085,11.805836,-4.2656217
2.154,12.187299,26.653048,4.971909,-4.6091733,11.914398,-4.403133
2.156,13.034657,26.598515,4.5707264,-4.542229,12.01206,-4.5324826
2.158,13.864127,26.522776,4.2132316,-4.46656,12.099809,-4.6543007
2.16,14.673981,26.425102,3.8958414,-4.3815613,12.178475,-4.769376
2.162,15.462572,26.304688,3.6149073,-4.2867317,12.248759,-4.878539
2.164,16.228703,26.161583,3.3663092,-4.181649,12.311262,-4.9826827
2.166,16.969465,25.99338,3.1463993,-4.066008,12.366434,-5.0826654
2.168,17.685356,25.799803,2.9515698,-3.9396195,12.414586,-5.1793084
2.17,18.371984,25.581257,2.7783942,-3.8024597,12.455897,-5.27318
2.172,19.028755,25.336819,2.6232216,-3.6545882,12.4904785,-5.3646708
2.174,19.654364,25.06522,2.482267,-3.49623,12.518301,-5.454026
2.176,20.247414,24.765932,2.3520925,-3.3277905,12.539153,-5.5412745
2.178,20.806108,24.43851,2.2298586,-3.1498113,12.552799,-5.6262407
2.18,21.32897,24.082531,2.1128843,-2.9629529,12.559005,-5.7086067
2.182,21.81476,23.697924,1.9987161,-2.7679956,12.557526,-5.787987
2.184,22.261993,23.284725,1.8852239,-2.5657647,12.54818,-5.8639884
2.186,22.669518,22.843271,1.7705095,-2.357108,12.530923,-5.936251
2.188,23.036592,22.373384,1.6531596,-2.142828,12.505873,-6.0044985
2.19,23.362083,21.875511,1.531652,-1.9236488,12.473229,-6.0684867
2.192,23.644993,21.350878,1.4047983,-1.7002685,12.433322,-6.128027
2.194,23.885075,20.800718,1.2718654,-1.4732769,12.386588,-6.1829185
2.196,24.081854,20.226582,1.1319494,-1.2431803,12.333562,-6.232912
2.198,24.235247,19.630177,0.98472595,-1.010394,12.274819,-6.277625
2.2,24.345322,19.013464,0.8296914,-0.7752899,12.210879,-6.316489
2.202,24.412525,18.378845,0.6666441,-0.538206,12.142155,-6.3486624
2.204,24.437271,17.728817,0.4954214,-0.29949987,12.068909,-6.373055
2.206,24.420298,17.06595,0.31606674,-0.059562564,11.991161,-6.388321
2.208,24.362534,16.393251,0.12912846,0.18112445,11.908669,-6.392974
2.21,24.265106,15.713676,-0.06496334,0.4219947,11.820862,-6.3855305
2.212,24.129665,15.030315,-0.26515293,0.6623359,11.726838,-6.3646526
2.214,23.957994,14.346212,-0.4704523,0.9013349,11.625402,-6.329302
2.216,23.75181,13.664797,-0.67965126,1.138037,11.515118,-6.278934
2.218,23.51279,12.989374,-0.89118767,1.371375,11.394268,-6.2135096
2.22,23.243225,12.3233595,-1.1034546,1.6001443,11.261017,-6.1334405
2.222,22.94571,11.670111,-1.3147726,1.823054,11.1134615,-6.0396113
2.224,22.622494,11.032996,-1.5232697,2.0387793,10.949754,-5.9333997
2.226,22.276215,10.415255,-1.7266188,2.2459743,10.768137,-5.8164034
2.228,21.909657,9.819984,-1.9226084,2.4433615,10.567181,-5.690284
2.23,21.525417,9.250163,-2.10884,2.6298084,10.345762,-5.556656
2.232,21.126547,8.708457,-2.283043,2.8043008,10.103059,-5.4170346
2.234,20.715847,8.197615,-2.4430208,2.9659739,9.838589,-5.2726727
2.236,20.296299,7.719876,-2.5864906,3.1141946,9.5523405,-5.1246157
2.238,19.870888,7.277442,-2.7114372,3.2485514,9.24476,-4.97369
2.24,19.442722,6.8722377,-2.8160496,3.3688273,8.916683,-4.8206215
2.242,19.014688,6.505612,-2.8988695,3.4750388,8.569362,-4.666079
2.244,18.589224,6.179112,-2.9584918,3.567379,8.204475,-4.5108223
2.246,18.16926,5.8934374,-2.9938598,3.6462436,7.824052,-4.3556986
2.248,17.757526,5.6492105,-3.0043168,3.7121747,7.4304185,-4.2016582
2.25,17.355654,5.4471655,-2.9894571,3.7658272,7.026103,-4.0497494
2.252,16.966322,5.287307,-2.9492455,3.807973,6.6138186,-3.901081
2.254,16.591991,5.169223,-2.8842392,3.83943,6.1962786,-3.756802
2.256,16.234402,5.0924892,-2.7952776,3.8610735,5.7761064,-3.6180143
2.258,15.895327,5.0564346,-2.6834192,3.873806,5.355813,-3.4857001
2.26,15.576382,5.0598917,-2.549788,3.8785186,4.937697,-3.3607092
2.262,15.279076,5.1014767,-2.395842,3.8760893,4.523814,-3.243734
2.264,15.004276,5.179619,-2.2233644,3.8673515,4.115919,-3.1352773
2.266,14.752821,5.2925467,-2.034071,3.8531005,3.7154822,-3.035695
2.268,14.524911,5.4385667,-1.8294797,3.8340936,3.3236918,-2.9451861
2.27,14.320905,5.6153975,-1.611063,3.811028,2.9414787,-2.863842
2.272,14.140755,5.8206334,-1.3804107,3.7845285,2.5695589,-2.7917223
2.274,13.984087,6.0515976,-1.138947,3.755195,2.208449,-2.7288976
2.276,13.850613,6.30566,-0.8880229,3.7235801,1.8585083,-2.6753762
2.278,13.739563,6.580145,-0.6288414,3.690154,1.5199345,-2.6311073
2.28,13.65011,6.8722343,-0.3625784,3.6553104,1.1927879,-2.5960069
2.282,13.581345,7.179351,-0.09010887,3.6193724,0.8770376,-2.5699973
2.284,13.5323715,7.498825,0.18763447,3.5825808,0.57261395,-2.553002
2.286,13.501953,7.827926,0.47015905,3.5451126,0.27942535,-2.5449
2.288,13.489216,8.164122,0.75681734,3.5070806,-0.002654165,-2.5455372
2.29,13.492777,8.504805,1.047029,3.4685102,-0.2737169,-2.554671
2.292,13.511404,8.847452,1.340395,3.4294066,-0.533818,-2.5720203
2.294,13.543959,9.189378,1.6364889,3.3897462,-0.78300405,-2.5972342
2.296,13.589191,9.527929,1.9350328,3.349477,-1.0212924,-2.6299443
2.298,13.645553,9.861418,2.2353258,3.3085823,-1.2486542,-2.6697257
2.3,13.712306,10.187416,2.5372968,3.267047,-1.465018,-2.7161121
2.302,13.788378,10.503509,2.8404708,3.2248776,-1.6702672,-2.768632
2.304,13.872555,10.807664,3.1442356,3.182073,-1.8642786,-2.826807
2.306,13.9637165,11.098042,3.4481373,3.1386762,-2.0469408,-2.890121
2.308,14.060909,11.373234,3.7514129,3.0947945,-2.2180808,-2.9580278
2.31,14.163191,11.631903,4.05342,3.050539,-2.3775198,-3.0299757
2.312,14.269583,11.872885,4.3532977,3.0060554,-2.5251322,-3.1053886
2.314,14.379047,12.095348,4.6503506,2.9614954,-2.660818,-3.1836557
2.316,14.491,12.298742,4.9436593,2.9170184,-2.784493,-3.2641315
2.318,14.60466,12.4824,5.2323394,2.872779,-2.8961124,-3.3461354
2.32,14.719307,12.64603,5.5155625,2.8289146,-2.9956822,-3.4289627
2.322,14.834137,12.78959,5.7923183,2.7855208,-3.08324,-3.5119085
2.324,14.948547,12.9129095,6.0618124,2.7426574,-3.158877,-3.594216
2.326,15.061895,13.015885,6.323289,2.7003632,-3.2227163,-3.6751494
2.328,15.173694,13.098629,6.576119,2.658639,-3.2749424,-3.75397
2.33,15.2831955,13.161375,6.8198514,2.6174648,-3.3158302,-3.8299885
2.332,15.38965,13.204239,7.054155,2.5767953,-3.3457167,-3.9026
2.334,15.4928,13.227387,7.278886,2.5365825,-3.3650012,-3.9713154
2.336,15.592194,13.231071,7.493613,2.4968097,-3.374149,-4.035798
2.338,15.687289,13.215363,7.6983414,2.4575016,-3.3736863,-4.095894
2.34,15.777779,13.180515,7.8931313,2.418743,-3.3641634,-4.151646
2.342,15.863249,13.126537,8.07824,2.3806891,-3.3460908,-4.20325
2.344,15.943254,13.053627,8.253991,2.3435678,-3.3199506,-4.2510157
2.346,16.017523,12.961874,8.420575,2.30766,-3.2861292,-4.2952766
2.348,16.085583,12.851322,8.578549,2.2733076,-3.2448592,-4.336349
2.35,16.147118,12.7221,8.728271,2.2409034,-3.196223,-4.374403
2.352,16.201748,12.574505,8.870346,2.2108603,-3.1401794,-4.4094696
2.354,16.249111,12.408743,9.005142,2.183618,-3.076571,-4.4413958
2.356,16.288822,12.225258,9.133102,2.1596012,-3.0051658,-4.469809
2.358,16.32052,12.024631,9.2547,2.139241,-2.9256752,-4.494212
2.36,16.34393,11.807674,9.370298,2.1229115,-2.837799,-4.513997
2.362,16.35857,11.575232,9.480082,2.110951,-2.741295,-4.5285225
2.364,16.364088,11.328355,9.584246,2.1036553,-2.6360037,-4.537175
2.366,16.360397,11.068317,9.68273,2.1012926,-2.5218897,-4.539445
2.368,16.347054,10.796324,9.775431,2.1040757,-2.3990521,-4.5349636
2.37,16.323637,10.51399,9.862181,2.112153,-2.2677417,-4.523518
2.372,16.289759,10.222925,9.942892,2.1255922,-2.1283364,-4.505055
2.374,16.245327,9.924816,10.017332,2.1443636,-1.9813461,-4.479619
2.376,16.190145,9.621486,10.084971,2.1683586,-1.8273954,-4.4473763
2.378,16.124184,9.314673,10.145233,2.1973777,-1.6672126,-4.4085894
2.38,16.047318,9.006176,10.197691,2.231141,-1.5015959,-4.3635902
2.382,15.959515,8.697725,10.241896,2.269297,-1.3314018,-4.3127756
2.384,15.860926,8.391151,10.277382,2.3114445,-1.1575003,-4.256594
2.386,15.75146,8.088125,10.303755,2.357166,-0.98080134,-4.1955285
2.388,15.63139,7.790055,10.320753,2.4060078,-0.8022288,-4.1301
2.39,15.500933,7.4983897,10.328068,2.457506,-0.6227045,-4.0608306
2.392,15.360422,7.214352,10.325372,2.5111969,-0.4431405,-3.9882493
2.394,15.210093,6.93911,10.31259,2.5666432,-0.26442868,-3.9128754
2.396,15.050497,6.673611,10.289682,2.6234152,-0.08743727,-3.8352044
2.398,14.882238,6.418706,10.256719,2.681111,0.08699033,-3.7556825
2.4,14.705901,6.1753206,10.214079,2.7393308,0.25807738,-3.674679
2.402,14.522252,5.943954,10.162075,2.797716,0.42510772,-3.5925152
2.404,14.331979,5.7252493,10.10104,2.855885,0.58741534,-3.50944
2.406,14.135945,5.519682,10.031414,2.913491,0.7444416,-3.4256508
2.408,13.934928,5.3276997,9.953966,2.9702084,0.89572567,-3.3413033
2.41,13.7298765,5.1496024,9.86912,3.025732,1.0409123,-3.256552
2.412,13.521688,4.985544,9.777633,3.0797813,1.179757,-3.1715226
2.414,13.311146,4.835472,9.680157,3.1321054,1.3121022,-3.0863466
2.416,13.099266,4.699415,9.577416,3.1824949,1.4378921,-3.0011566
2.418,12.88673,4.576968,9.470189,3.2307706,1.5571322,-2.9160948
2.42,12.6743355,4.468068,9.359232,3.2767875,1.6698937,-2.8313172
2.422,12.462965,4.3722568,9.245247,3.320453,1.7762828,-2.7469852
2.424,12.253306,4.2891264,9.1290045,3.3616838,1.8764113,-2.6632533
2.426,12.0459,4.218131,9.011144,3.4004428,1.9703808,-2.5802748
2.428,11.841322,4.1588354,8.892244,3.436693,2.058263,-2.4981968
2.43,11.640313,4.110718,8.772959,3.4704158,2.1401014,-2.4171598
2.432,11.4434595,4.073319,8.653862,3.501597,2.2159047,-2.337297
2.434,11.251205,4.0460443,8.535379,3.5301979,2.2856185,-2.2587113
2.436,11.063971,4.028323,8.417823,3.556182,2.349164,-2.1815093
2.438,10.881944,4.0192223,8.301467,3.5794847,2.4064083,-2.1057765
2.44,10.705336,4.0181108,8.186741,3.600033,2.4572282,-2.0315766
2.442,10.534488,4.024581,8.074118,3.6177394,2.5014858,-1.9589579
2.444,10.369427,4.0382166,7.9639807,3.6325243,2.5390525,-1.8879561
2.446,10.210202,4.058499,7.8567758,3.6442823,2.5698013,-1.8185859
2.448,10.057129,4.084932,7.752635,3.652907,2.5936306,-1.7508451
2.45,9.910125,4.1168547,7.651746,3.6582947,2.6104743,-1.6847407
2.452,9.769138,4.1539836,7.554241,3.6603622,2.620294,-1.620296
2.454,9.63427,4.195592,7.4603806,3.6590576,2.6230822,-1.5575652
2.456,9.505367,4.24131,7.3704443,3.6543527,2.618886,-1.4965923
2.458,9.382325,4.29064,7.2846565,3.646269,2.607812,-1.4374906
2.46,9.265134,4.343047,7.2033076,3.6348846,2.5900164,-1.3804073
2.462,9.153685,4.397985,7.1264563,3.6203191,2.5656993,-1.3255284
2.464,9.04786,4.454934,7.0544767,3.602767,2.5351207,-1.2730875
2.466,8.947527,4.513296,6.9874887,3.5824752,2.498551,-1.2233795
2.468,8.852511,4.572652,6.9256887,3.559707,2.4562714,-1.1766665
2.47,8.76266,4.6324997,6.8692074,3.5347466,2.4085958,-1.1331637
2.472,8.677984,4.692312,6.8183985,3.5078676,2.3558567,-1.093035
2.474,8.598258,4.7519145,6.773369,3.4793305,2.2983568,-1.0564084
2.476,8.523414,4.810917,6.7345033,3.4493842,2.236398,-1.0233424
2.478,8.453315,4.8690934,6.701915,3.418268,2.1702604,-0.9938326
2.48,8.387811,4.9262342,6.675728,3.3861883,2.1001928,-0.9678089
2.482,8.326822,4.982218,6.6561246,3.3533418,2.0264215,-0.9451145
2.484,8.270231,5.0368557,6.643317,3.3198686,1.9491695,-0.92552274
2.486,8.21803,5.0900903,6.637557,3.2858696,1.8686559,-0.90875274
2.488,8.169745,5.142007,6.6389227,3.251386,1.7851303,-0.8945262
2.49,8.125444,5.192601,6.64744,3.2163973,1.698872,-0.8825385
2.492,8.08497,5.2419395,6.6634374,3.1808233,1.6101923,-0.872536
2.494,8.048062,5.2900333,6.6868362,3.1445417,1.5194,-0.864322
2.496,8.0147505,5.3368125,6.7175407,3.1074195,1.4268378,-0.8577493
2.498,7.984819,5.3825283,6.755576,3.069342,1.332835,-0.8527725
2.5,7.957978,5.4271383,6.800904,3.030272,1.2377472,-0.8494216
2.502,7.934021,5.4705915,6.853587,2.9902477,1.14192,-0.84781295
2.504,7.9127736,5.512827,6.9134593,2.9494066,1.0456831,-0.84812313
2.506,7.893904,5.5538626,6.980301,2.9079452,0.9493716,-0.8505219
2.508,7.8770285,5.5935097,7.0539045,2.8661487,0.8533329,-0.85516465
2.51,7.8620152,5.631613,7.1338215,2.8243046,0.7579539,-0.86216295
2.512,7.848539,5.667904,7.219811,2.7827158,0.6636144,-0.8715428
2.514,7.8363385,5.7022667,7.3115125,2.7416255,0.5707341,-0.8832546
2.516,7.8251743,5.734419,7.408393,2.7012434,0.4797883,-0.89717245
2.518,7.814746,5.7640157,7.5099897,2.6616905,0.39126378,-0.9130926
2.52,7.8048244,5.790865,7.6158905,2.6230257,0.3056649,-0.93078226
2.522,7.7951007,5.8147264,7.725632,2.5852623,0.22349551,-0.9500373
2.524,7.7853928,5.8354473,7.838624,2.5483837,0.14519843,-0.97066355
2.526,7.775392,5.852872,7.9543552,2.5123382,0.07118881,-0.9924713
2.528,7.765052,5.866927,8.07219,2.4770505,0.0018151086,-1.0152498
2.53,7.7542205,5.8774233,8.191627,2.4424481,-0.06264802,-1.0388116
2.532,7.7427,5.884343,8.312123,2.4084399,-0.121999934,-1.0629741
2.534,7.7304373,5.8877788,8.4329605,2.374932,-0.17607056,-1.0875344
2.536,7.7173376,5.8876457,8.553721,2.3418257,-0.22475064,-1.1122874
2.538,7.7033567,5.8840895,8.673926,2.3090634,-0.26797915,-1.1369929
2.54,7.688303,5.877146,8.793067,2.2765996,-0.30572248,-1.1613845
2.542,7.6721387,5.866851,8.910562,2.2444193,-0.33796954,-1.1851702
2.544,7.654979,5.853513,9.02617,2.2125282,-0.36472875,-1.2080778
2.546,7.6367846,5.8373423,9.13949,2.1809535,-0.38598794,-1.2298534
2.548,7.6176934,5.818695,9.250106,2.1497111,-0.40174815,-1.2502954
2.55,7.597857,5.797612,9.357552,2.1188068,-0.41201016,-1.2692814
2.552,7.577146,5.7742357,9.461365,2.088224,-0.41678035,-1.2867464
2.554,7.5556016,5.748577,9.561094,2.0579042,-0.4160927,-1.3026896
2.556,7.533328,5.720836,9.656438,2.0277605,-0.4099994,-1.3171569
2.558,7.510244,5.6912203,9.747275,1.9976938,-0.39858577,-1.3302239
2.56,7.486562,5.65991,9.83343,1.9675813,-0.3819552,-1.3419785
2.562,7.4622817,5.627172,9.914716,1.937269,-0.3602728,-1.3525105
2.564,7.4375854,5.5932684,9.991033,1.906621,-0.33375362,-1.3618804
2.566,7.4125757,5.5583053,10.0621605,1.8754855,-0.30262196,-1.3701074
2.568,7.3874516,5.522512,10.127909,1.8437377,-0.26715633,-1.3771746
2.57,7.3622704,5.4859896,10.188312,1.8112404,-0.22767216,-1.3830339
2.572,7.336996,5.4489336,10.243317,1.7778866,-0.18449478,-1.3876245
2.574,7.3119364,5.4114923,10.292972,1.7435664,-0.13796526,-1.3908703
2.576,7.287253,5.373802,10.337397,1.7081782,-0.08841834,-1.392698
2.578,7.2629123,5.335873,10.376678,1.6716183,-0.03617681,-1.3930573
2.58,7.23912,5.2977023,10.411017,1.6338166,0.018487126,-1.3919066
2.582,7.215977,5.2593517,10.440487,1.5947145,0.07533729,-1.3892387
2.584,7.1935067,5.220765,10.465398,1.5542624,0.134173,-1.3850509
2.586,7.17174,5.181982,10.485817,1.5124578,0.19485064,-1.3793752
2.588,7.15081,5.1430063,10.502111,1.4693228,0.2572364,-1.3722641
2.59,7.1308026,5.1038704,10.5146265,1.4249034,0.3212374,-1.3637896
2.592,7.1116943,5.0644712,10.523452,1.3792394,0.38678297,-1.3540446
2.594,7.093486,5.024973,10.5287285,1.33238,0.4538179,-1.3431268
2.596,7.076208,4.985281,10.530731,1.284365,0.52228314,-1.331143
2.598,7.0599813,4.9454346,10.529671,1.2352186,0.59212846,-1.3181876
2.6,7.044686,4.905567,10.525699,1.1849451,0.6632573,-1.3043475
2.602,7.0302644,4.865731,10.518893,1.1335385,0.7355587,-1.289697
2.604,7.016658,4.8261104,10.5094595,1.0809566,0.8088778,-1.2742721
2.606,7.0037146,4.7867937,10.497587,1.0271319,0.88303536,-1.2580866
2.608,6.991391,4.7478924,10.483241,0.97199214,0.95778996,-1.2411321
2.61,6.979562,4.7097025,10.466484,0.9154263,1.0328833,-1.2233719
2.612,6.9680195,4.6723776,10.447284,0.8573247,1.1080234,-1.2047617
2.614,6.956633,4.636265,10.425733,0.79757476,1.1828816,-1.1852667
2.616,6.94526,4.601501,10.401846,0.73606443,1.257124,-1.1648499
2.618,6.933643,4.5684447,10.375857,0.6727021,1.3304071,-1.143487
2.62,6.92163,4.5373673,10.347825,0.60740423,1.4024001,-1.1211877
2.622,6.9090114,4.508581,10.317879,0.5401062,1.4727726,-1.0980006
2.624,6.8954873,4.4823837,10.286009,0.47077942,1.5412276,-1.0739937
2.626,6.8809004,4.4591384,10.25238,0.39940286,1.6075,-1.0492518
2.628,6.86485,4.439073,10.217064,0.3259999,1.671389,-1.0238864
2.63,6.847311,4.422462,10.180149,0.25061074,1.7327281,-0.9980219
2.632,6.828081,4.409627,10.141665,0.17330533,1.7914058,-0.9717691
2.634,6.806883,4.400745,10.101843,0.09414813,1.8473399,-0.94523084
2.636,6.783613,4.395986,10.060698,0.013222992,1.9005108,-0.9184767
2.638,6.758026,4.3955903,10.018474,-0.06938359,1.9509375,-0.8915533
2.64,6.729865,4.3996925,9.975078,-0.15360567,1.9986286,-0.86446244
2.642,6.699076,4.408432,9.930691,-0.23937663,2.0436058,-0.837166
2.644,6.6654544,4.4218745,9.8854685,-0.32665303,2.085886,-0.8095914
2.646,6.6288238,4.440253,9.839341,-0.41539866,2.1254652,-0.7816594
2.648,6.589056,4.4634514,9.792449,-0.5055917,2.1623142,-0.75325817
2.65,6.5460777,4.4916115,9.744856,-0.59722847,2.1963696,-0.7242861
2.652,6.4998384,4.524768,9.696791,-0.69031584,2.2275503,-0.69463974
2.654,6.449972,4.562872,9.648202,-0.7848512,2.2557573,-0.6642467
2.656,6.396652,4.605941,9.599342,-0.88085294,2.2808883,-0.63306075
2.658,6.3397746,4.653981,9.550181,-0.9783198,2.302826,-0.6010575
2.66,6.2792077,4.70687,9.5008955,-1.0772628,2.3214607,-0.568238
2.662,6.214836,4.7644753,9.451569,-1.177678,2.3367386,-0.5346366
2.664,6.146815,4.826714,9.402345,-1.279546,2.3486009,-0.5002854
2.666,6.074875,4.8935337,9.353378,-1.3828518,2.3570478,-0.46522868
2.668,5.9989853,4.9648056,9.304639,-1.4875629,2.3621273,-0.42949542
2.67,5.919283,5.0403852,9.256298,-1.5936227,2.3639197,-0.39311618
2.672,5.8356237,5.119953,9.208385,-1.7009724,2.3625562,-0.35609034
2.674,5.748025,5.2034373,9.160955,-1.8095143,2.358201,-0.3183968
2.676,5.6564245,5.290639,9.114237,-1.9191549,2.3510566,-0.27997437
2.678,5.5608096,5.3815,9.068415,-2.029789,2.34134,-0.24076289
2.68,5.4611497,5.4758353,9.023361,-2.1413078,2.32931,-0.20068964
2.682,5.357592,5.5735903,8.979225,-2.2535894,2.3152063,-0.15967011
2.684,5.2499914,5.6745253,8.9359255,-2.3665144,2.2992926,-0.11763686
2.686,5.138649,5.7786417,8.893414,-2.4799712,2.281823,-0.07453942
2.688,5.0238667,5.885812,8.851672,-2.5938568,2.263041,-0.030357003
2.69,4.9057617,5.995949,8.81051,-2.7080889,2.2431736,0.014904916
2.692,4.784432,6.1089816,8.769746,-2.8225994,2.2224102,0.061202407
2.694,4.6603503,6.2247553,8.729105,-2.937354,2.2009258,0.10845387
2.696,4.5339546,6.343096,8.688529,-3.0523362,2.1788597,0.15653998
2.698,4.4055333,6.463875,8.647844,-3.1675637,2.1562734,0.20532483
2.7,4.2756133,6.5869894,8.6067505,-3.2830849,2.1331718,0.25465816
2.702,4.144721,6.712412,8.565243,-3.3989582,2.1094823,0.3043633
2.704,4.0135427,6.839938,8.523295,-3.5152748,2.0850635,0.35428402
2.706,3.8825629,6.9695396,8.480668,-3.6321273,2.0596766,0.4042589
2.708,3.752591,7.1010294,8.437468,-3.7496202,2.0330229,0.4541629
2.71,3.6243536,7.2342563,8.393728,-3.8678238,2.0047407,0.50391304
2.712,3.4985583,7.369211,8.349535,-3.9868138,1.9744325,0.55347013
2.714,3.3762407,7.505631,8.305208,-4.106626,1.9416692,0.6028811
2.716,3.2581997,7.643491,8.260899,-4.2272625,1.9060214,0.65225255
2.718,3.1453788,7.782543,8.21705,-4.348682,1.8671477,0.701746
2.72,3.0387886,7.9227204,8.174033,-4.4708085,1.8247724,0.7515542
2.722,2.9393778,8.063869,8.132375,-4.5935454,1.7787406,0.80187166
2.724,2.8480935,8.205763,8.092609,-4.716793,1.7290187,0.8528558
2.726,2.7657406,8.348395,8.055306,-4.8404512,1.6757123,0.9046
2.728,2.6931992,8.491628,8.021009,-4.9644337,1.6190773,0.95711786
2.73,2.6313267,8.635459,7.990438,-5.0886455,1.5595053,1.0103136
2.732,2.5807617,8.779951,7.9640517,-5.2130113,1.497491,1.0639988
2.734,2.5423193,8.924843,7.9424796,-5.3374405,1.4336104,1.1178945
2.736,2.5165277,9.070182,7.926205,-5.4618206,1.3685186,1.1716676
2.738,2.5039124,9.216012,7.9155173,-5.5860143,1.3028677,1.2249829
2.74,2.504542,9.362377,7.9108152,-5.7098475,1.2373117,1.277545
2.742,2.5187507,9.5092535,7.9121957,-5.833082,1.1724883,1.3291199
2.744,2.5467696,9.65684,7.9199543,-5.9554567,1.1089833,1.3795606
2.746,2.5883746,9.805205,7.934074,-6.0766597,1.0473244,1.4288322
2.748,2.6433475,9.954666,7.9542055,-6.196392,0.9879889,1.4769831
2.75,2.7114139,10.105368,7.9802656,-6.314345,0.931385,1.5241561
2.752,2.7919562,10.257705,8.011777,-6.4302464,0.87788755,1.5705316
2.754,2.8843896,10.411793,8.04822,-6.543874,0.82781523,1.6163106
2.756,2.9879131,10.567961,8.089025,-6.655057,0.7814429,1.6616998
2.758,3.1017542,10.726559,8.133377,-6.7636366,0.7390112,1.7068496
2.76,3.2249246,10.8877325,8.180449,-6.8695207,0.7007229,1.7518888
2.762,3.3563714,11.051678,8.229322,-6.9726424,0.6667448,1.7968725
2.764,3.4951372,11.218876,8.27907,-7.072943,0.63718575,1.8417957
2.766,3.6399174,11.389498,8.328648,-7.1703815,0.6121139,1.886605
2.768,3.7896547,11.563853,8.3772135,-7.264898,0.5915313,1.931205
2.77,3.9430695,11.742117,8.423665,-7.356483,0.5753658,1.975483
2.772,4.098981,11.924513,8.467182,-7.445127,0.5634558,2.0193262
2.774,4.2562175,12.111076,8.50668,-7.530849,0.5555772,2.0626354
2.776,4.413744,12.301899,8.541424,-7.61368,0.55144256,2.1053
2.778,4.5703945,12.497,8.570492,-7.693663,0.55074,2.1472423
2.78,4.724971,12.696351,8.593098,-7.7708807,0.5530958,2.188382
2.782,4.876698,12.899825,8.608517,-7.8454356,0.55810827,2.2286687
2.784,5.0243006,13.107167,8.615923,-7.9174476,0.5653584,2.2680964
2.786,5.1671205,13.318123,8.6146145,-7.9870377,0.57443184,2.3067017
2.788,5.3042183,13.532114,8.604048,-8.0543585,0.5849185,2.3445673
2.79,5.4348373,13.74883,8.583874,-8.119535,0.5964232,2.3818073
2.792,5.558202,13.967823,8.553718,-8.182671,0.6085704,2.4185357
2.794,5.6738524,14.188563,8.513351,-8.24383,0.6210029,2.4548306
2.796,5.7808914,14.410406,8.462678,-8.303062,0.63340014,2.4907663
2.798,5.878983,14.632669,8.401498,-8.360376,0.6454675,2.526334
2.8,5.967765,14.85465,8.329878,-8.415744,0.6569586,2.5615048
2.802,6.047004,15.075563,8.247974,-8.469085,0.66766,2.5962005
2.804,6.116502,15.294453,8.155981,-8.5203285,0.6773939,2.630311
2.806,6.17604,15.510392,8.054187,-8.569342,0.6860197,2.663748
2.808,6.225744,15.722426,7.94286,-8.616008,0.6934176,2.6964338
2.81,6.2656846,15.929285,7.82262,-8.660191,0.6994892,2.7282977
2.812,6.2961416,16.129818,7.6940117,-8.701763,0.7041404,2.7593393
2.814,6.3174753,16.322739,7.557607,-8.740621,0.7072606,2.7895503
2.816,6.330173,16.506739,7.4143467,-8.776629,0.70874417,2.818943
2.818,6.3348117,16.680477,7.264969,-8.809682,0.7084634,2.8475032
2.82,6.3318777,16.842443,7.1105533,-8.839664,0.7062558,2.8751743
2.822,6.322232,16.991215,6.9520216,-8.866451,0.7019563,2.9018354
2.824,6.3065524,17.125307,6.7904224,-8.889901,0.6954052,2.927318
2.826,6.2857113,17.243309,6.626931,-8.90984,0.68643737,2.9513946
2.828,6.260497,17.343796,6.4625874,-8.926068,0.6749134,2.9738011
2.83,6.2318683,17.425344,6.2984924,-8.938363,0.6607291,2.9943027
2.832,6.2006392,17.486744,6.135878,-8.946451,0.6438368,3.0126696
2.834,6.16781,17.526707,5.975577,-8.950018,0.624271,3.0286841
2.836,6.1343937,17.544094,5.8186145,-8.948721,0.6021326,3.0421572
2.838,6.1011467,17.538189,5.6658993,-8.942195,0.5776225,3.0529165
2.84,6.068799,17.508207,5.5180597,-8.93004,0.55104923,3.0608165
2.842,6.038103,17.453568,5.375841,-8.911847,0.52280784,3.065711
2.844,6.0095344,17.374275,5.2397304,-8.887185,0.49340963,3.0674698
2.846,5.9835777,17.27027,5.1101637,-8.855663,0.46348357,3.0659618
2.848,5.960765,17.141682,4.9873166,-8.816869,0.43375027,3.0610678
2.85,5.941324,16.988922,4.8711987,-8.770407,0.40502393,3.0527003
2.852,5.9252415,16.812923,4.761737,-8.71589,0.37818098,3.0407996
2.854,5.91234,16.614674,4.6584687,-8.652987,0.3541386,3.0253537
2.856,5.9024906,16.395374,4.5609555,-8.581395,0.33382738,3.0063896
2.858,5.8952804,16.156477,4.4686046,-8.500848,0.3181802,2.9840155
2.86,5.890229,15.8997135,4.380464,-8.411161,0.30805886,2.9584036
2.862,5.886779,15.626949,4.295518,-8.312242,0.30425042,2.9298089
2.864,5.8838797,15.340583,4.212858,-8.204099,0.30743003,2.8985744
2.866,5.880748,15.042741,4.1311193,-8.086851,0.3181092,2.8651075
2.868,5.876329,14.735746,4.0491104,-7.9607224,0.33663046,2.8299193
2.87,5.8696265,14.422126,3.9655724,-7.826074,0.36310863,2.7935596
2.872,5.8596687,14.104326,3.8793564,-7.6834316,0.39741856,2.756667
2.874,5.845366,13.78464,3.7891788,-7.5334926,0.43917418,2.7198944
2.876,5.8257313,13.465454,3.6940618,-7.377097,0.48773396,2.6839485
2.878,5.7997856,13.148981,3.5930977,-7.2152414,0.54218495,2.6495209
2.88,5.766682,12.837418,3.4855995,-7.049002,0.6013587,2.617262
2.882,5.725518,12.532715,3.371138,-6.8795505,0.6639021,2.587727
2.884,5.6756983,12.236645,3.249537,-6.708064,0.7283118,2.561335
2.886,5.616787,11.950613,3.120627,-6.535693,0.79301053,2.538341
2.888,5.548346,11.676061,2.9850745,-6.363476,0.8563976,2.5188043
2.89,5.4699764,11.414043,2.8432517,-6.1923203,0.9169447,2.5026157
2.892,5.3817215,11.165237,2.6961231,-6.0229406,0.97322714,2.4895437
2.894,5.2836895,10.93018,2.5447645,-5.855856,1.0240064,2.4791744
2.896,5.1759615,10.709228,2.3905005,-5.691355,1.0682752,2.4710073
2.898,5.0588994,10.502394,2.2348294,-5.529567,1.105279,2.4645367
2.9,4.9330034,10.309488,2.0792882,-5.3703866,1.1345463,2.459289
2.902,4.7988057,10.130062,1.9256229,-5.2135725,1.1558709,2.4548523
2.904,4.6567187,9.963583,1.7755318,-5.058799,1.1693294,2.450893
2.906,4.5076795,9.809469,1.6305184,-4.905626,1.1752379,2.4471698
2.908,4.35219,9.667053,1.4922273,-4.7536006,1.1741285,2.4435534
2.91,4.1910505,9.535476,1.3620577,-4.6022496,1.1667142,2.440024
2.912,4.0250597,9.414046,1.2411892,-4.451165,1.1538614,2.4366128
2.914,3.8547723,9.30198,1.1306696,-4.2999873,1.1365277,2.4334085
2.916,3.681043,9.198492,1.0310757,-4.1484284,1.1157141,2.4305618
2.918,3.5045693,9.102842,0.94304705,-3.996298,1.092453,2.428243
2.92,3.325892,9.014508,0.8667495,-3.8435054,1.0677614,2.42662
2.922,3.1456344,8.9328785,0.80204844,-3.690072,1.0425868,2.4258742
2.924,2.96429,8.857473,0.7487483,-3.536099,1.0178199,2.4261782
2.926,2.7824688,8.78788,0.7062197,-3.3817348,0.9942594,2.427695
2.928,2.6004205,8.723914,0.6737771,-3.2271907,0.97257924,2.4305754
2.93,2.4186442,8.665419,0.65044475,-3.0727296,0.9533453,2.434917
2.932,2.2373173,8.61218,0.63521814,-2.9186304,0.93700063,2.4407752
2.934,2.0566769,8.564275,0.62689924,-2.765213,0.92391616,2.4481828
2.936,1.8771157,8.521488,0.62414205,-2.6127803,0.9143455,2.4571257
2.938,1.6987257,8.483969,0.6256646,-2.4616342,0.90844846,2.4675503
2.94,1.5214692,8.45166,0.63019466,-2.312073,0.9063082,2.4793684
2.942,1.345544,8.424673,0.6363375,-2.1643918,0.90794945,2.4924896
2.944,1.1708683,8.402961,0.64308536,-2.0188494,0.91332674,2.5067601
2.946,0.9975097,8.386516,0.6492224,-1.8757215,0.9223388,2.5219817
2.948,0.8255838,8.374936,0.65365374,-1.735287,0.93481934,2.537999
2.95,0.65510774,8.368151,0.65549994,-1.5978042,0.95054805,2.5546005
2.952,0.4860433,8.365952,0.6538353,-1.4635359,0.96925205,2.571514
2.954,0.3186033,8.3679085,0.6479454,-1.3327861,0.99062055,2.5884554
2.956,0.15270412,8.373672,0.6371418,-1.2058581,1.0143263,2.60513
2.958,-0.011532456,8.382978,0.6209929,-1.0830189,1.0399956,2.6212542
2.96,-0.17394635,8.395286,0.5990939,-0.9645488,1.0672668,2.6365368
2.962,-0.33445716,8.409972,0.57113194,-0.8506928,1.0957776,2.6506991
2.964,-0.4927799,8.426405,0.5369003,-0.74166155,1.1251916,2.6634858
2.966,-0.6488355,8.444106,0.4963001,-0.6375944,1.1551931,2.674707
2.968,-0.80227757,8.4622345,0.44938302,-0.5385771,1.1855427,2.6842117
2.97,-0.9529693,8.480234,0.3962158,-0.44463462,1.216062,2.6919012
2.972,-1.1007994,8.497326,0.337054,-0.3557315,1.2466084,2.6977255
2.974,-1.2453,8.512731,0.27191472,-0.27176896,1.2771482,2.7017107
2.976,-1.3864057,8.525833,0.20127177,-0.19259083,1.3077098,2.703922
2.978,-1.5239197,8.536104,0.12535977,-0.11800784,1.3383714,2.7044728
2.98,-1.6578227,8.542747,0.044492006,-0.047821492,1.3692424,2.703505
2.982,-1.7879531,8.54522,-0.04094398,0.01818341,1.4004712,2.7011714
2.984,-1.9142694,8.542844,-0.13042915,0.08021672,1.4321839,2.6976113
2.986,-2.036826,8.53521,-0.22361386,0.13846558,1.4644954,2.6929312
2.988,-2.1556969,8.521789,-0.31994313,0.19311756,1.4974675,2.687197
2.99,-2.2708955,8.502125,-0.41896385,0.24433307,1.5311227,2.6804214
2.992,-2.3823721,8.475641,-0.52019817,0.29226544,1.5654359,2.6725698
2.994,-2.4904351,8.442138,-0.62302744,0.33705854,1.6003261,2.6635485
2.996,-2.5953026,8.401428,-0.7268355,0.37886113,1.6356764,2.6532197
2.998,-2.6970298,8.353017,-0.83121383,0.4178152,1.6713407,2.6414418
3,-2.7957525,8.296712,-0.9354658,0.45407784,1.7071725,2.628066
3.002,-2.8918462,8.232439,-1.0390719,0.48781377,1.7430075,2.6129656
3.004,-2.9854796,8.160094,-1.141432,0.51916873,1.778685,2.5960362
3.006,-3.0768259,8.079616,-1.2420334,0.5483182,1.8140655,2.577211
3.008,-3.1661503,7.9911466,-1.3403448,0.57542455,1.8490305,2.5564604
3.01,-3.2536895,7.8947287,-1.4358255,0.6006313,1.8834604,2.5337744
3.012,-3.3396015,7.79061,-1.5280209,0.6240603,1.9172807,2.5091941
3.014,-3.424064,7.6790314,-1.6165185,0.64582056,1.9504148,2.4828007
3.016,-3.5073307,7.5601206,-1.7007523,0.6660109,1.9828061,2.454713
3.018,-3.5894573,7.4343476,-1.780428,0.68471503,2.0144024,2.425055
3.02,-3.670577,7.30212,-1.855299,0.70202374,2.0451684,2.393969
3.022,-3.7510636,7.163994,-1.9250163,0.7180162,2.0750723,2.36162
3.024,-3.8309264,7.020663,-1.989495,0.7327742,2.1040819,2.3281686
3.026,-3.9103963,6.872881,-2.0485044,0.7463912,2.1321616,2.2937932
3.028,-3.9896061,6.721349,-2.102126,0.7589492,2.1592522,2.258663
3.03,-4.068561,6.5667944,-2.1503816,0.7705392,2.1852999,2.2229338
3.032,-4.1473947,6.410096,-2.193389,0.7812362,2.2102346,2.186766
3.034,-4.226276,6.252204,-2.2313042,0.791104,2.2339737,2.1503248
3.036,-4.3052053,6.0939555,-2.2643929,0.80018395,2.256394,2.1137652
3.038,-4.384142,5.936236,-2.292851,0.8085001,2.2773716,2.0772448
3.04,-4.463087,5.779879,-2.3169754,0.81606096,2.2967606,2.0409102
3.042,-4.541985,5.625785,-2.337011,0.8228561,2.314406,2.0048869
3.044,-4.620744,5.4747047,-2.353282,0.8288791,2.3301373,1.9692787
3.046,-4.699369,5.3275633,-2.3660574,0.8341237,2.3437898,1.9341512
3.048,-4.7776785,5.1850166,-2.3755784,0.83859,2.355203,1.8995641
3.05,-4.85538,5.0477977,-2.3820953,0.8422682,2.3642077,1.8655372
3.052,-4.9323626,4.9164667,-2.3859198,0.845184,2.3706686,1.832057
3.054,-5.0083027,4.791661,-2.3871827,0.847379,2.374483,1.7990865
3.056,-5.0830417,4.6738605,-2.386162,0.8489127,2.375586,1.7665449
3.058,-5.156251,4.5635543,-2.3829794,0.8498674,2.3739822,1.7343524
3.06,-5.2275887,4.4611235,-2.3778808,0.8503424,2.3697388,1.7024101
3.062,-5.2968426,4.3669534,-2.3709378,0.8504423,2.3629713,1.6706147
3.064,-5.363651,4.281334,-2.362317,0.85028964,2.3538647,1.6388775
3.066,-5.427568,4.2045007,-2.3521185,0.8499947,2.3426523,1.6071284
3.068,-5.4883585,4.1366224,-2.340506,0.8496551,2.3296185,1.575338
3.07,-5.545629,4.077899,-2.3276105,0.8493409,2.3150728,1.543495
3.072,-5.5991316,4.0284824,-2.3135855,0.8490848,2.299314,1.5116248
3.074,-5.648682,3.9885683,-2.298598,0.84887606,2.282644,1.4797826
3.076,-5.6939387,3.958153,-2.2829351,0.84869295,2.265344,1.4480395
3.078,-5.7347765,3.93753,-2.2667582,0.84847355,2.2476642,1.4164667
3.08,-5.7710366,3.9267015,-2.2503097,0.84813666,2.2298253,1.385121
3.082,-5.8024235,3.9257417,-2.2339268,0.8475924,2.2119923,1.3540546
3.084,-5.828954,3.9345875,-2.2178793,0.8467513,2.1943018,1.3233023
3.086,-5.850637,3.9533055,-2.2025838,0.8455293,2.1768413,1.2928858
3.088,-5.867556,3.9818244,-2.1882854,0.84386533,2.1596744,1.2627932
3.09,-5.8797336,4.0201435,-2.1752481,0.8417057,2.1428432,1.2330198
3.092,-5.887454,4.068119,-2.1640184,0.83899385,2.1263409,1.2035424
3.094,-5.8908005,4.1256323,-2.1549037,0.8356836,2.110158,1.1743382
3.096,-5.890096,4.1924343,-2.1482542,0.83174014,2.0942843,1.1453586
3.098,-5.8856997,4.268184,-2.1445494,0.8271257,2.0787096,1.1165546
3.1,-5.8779173,4.3525324,-2.1441379,0.82179344,2.0634193,1.0878838
3.102,-5.867213,4.445065,-2.147344,0.8157191,2.0484033,1.0592633
3.104,-5.854147,4.5452065,-2.1546254,0.8088795,2.0336692,1.0306308
3.106,-5.83911,4.6522737,-2.1662188,0.8012426,2.0192118,1.0019345
3.108,-5.822714,4.7657156,-2.1824687,0.79279065,2.0050192,0.9731276
3.11,-5.805546,4.884819,-2.2036703,0.7835145,1.9910811,0.9441831
3.112,-5.7880445,5.008649,-2.2299724,0.7734085,1.9773519,0.915061
3.114,-5.7707505,5.136357,-2.2615247,0.76247394,1.9637845,0.8857223
3.116,-5.75441,5.2669687,-2.298532,0.7507317,1.9503148,0.8561304
3.118,-5.7393413,5.3994923,-2.3410592,0.73820853,1.9368699,0.82625246
3.12,-5.726367,5.5329294,-2.3891265,0.7249587,1.9233614,0.7960331
3.122,-5.715777,5.666079,-2.442635,0.7110538,1.90969,0.76543725
3.124,-5.708114,5.7978787,-2.5015519,0.69660795,1.8957695,0.7344135
3.126,-5.7037983,5.9272857,-2.5658355,0.68176776,1.8815184,0.702921
3.128,-5.7033014,6.05306,-2.6350462,0.6667105,1.8668679,0.67092395
3.13,-5.706934,6.1741734,-2.7089744,0.6516343,1.8517619,0.6384027
3.132,-5.7148,6.289539,-2.7873363,0.63675785,1.8361567,0.60535824
3.134,-5.7272367,6.3980775,-2.8697457,0.6223069,1.8200262,0.571818
3.136,-5.744349,6.498786,-2.9557252,0.60851586,1.8033406,0.53783107
3.138,-5.766144,6.5907574,-3.0447311,0.59560454,1.7860719,0.5034659
3.14,-5.792714,6.6732755,-3.1362457,0.5837808,1.7681936,0.46880746
3.142,-5.8238854,6.7456083,-3.229604,0.57320994,1.7496659,0.43397334
3.144,-5.8595586,6.8072042,-3.3242736,0.5640286,1.7304442,0.39909184
3.146,-5.899561,6.857683,-3.419561,0.55634993,1.7104775,0.36432058
3.148,-5.943615,6.896666,-3.5149438,0.5502499,1.6896975,0.32983023
3.15,-5.9912314,6.923998,-3.6097193,0.54577273,1.6680233,0.29579628
3.152,-6.0422735,6.939695,-3.7033458,0.5429494,1.6453851,0.26241416
3.154,-6.0961504,6.943941,-3.7951612,0.54178816,1.6217248,0.22986513
3.156,-6.1525946,6.9370117,-3.8845701,0.54228234,1.5969851,0.19833562
3.158,-6.2110176,6.9193244,-3.9709933,0.54442376,1.5711119,0.16798323
3.16,-6.2711725,6.8915043,-4.0539093,0.5482014,1.5440755,0.1389471
3.162,-6.332512,6.854264,-4.1327868,0.55360276,1.5158616,0.11134502
3.164,-6.3945904,6.808427,-4.207193,0.56060916,1.4864683,0.08525509
3.166,-6.4570465,6.754939,-4.2766476,0.56921434,1.4558805,0.060734436
3.168,-6.5194626,6.6948557,-4.3407106,0.5794046,1.4240856,0.037810326
3.17,-6.5814967,6.629053,-4.399045,0.59115344,1.3910614,0.01647827
3.172,-6.6426415,6.5586557,-4.4512467,0.6044304,1.3567542,-0.003264308
3.174,-6.7025876,6.4846926,-4.4970603,0.6191917,1.3210748,-0.021443695
3.176,-6.7610493,6.408364,-4.5362387,0.6353801,1.2839053,-0.03810641
3.178,-6.8175797,6.3305244,-4.5684595,0.65291613,1.2450913,-0.053280875
3.18,-6.872096,6.252251,-4.59351,0.67170966,1.2044594,-0.0670196
3.182,-6.9240446,6.174451,-4.6112475,0.6916572,1.1618172,-0.07939089
3.184,-6.9731946,6.097871,-4.621373,0.71266866,1.116989,-0.09048176
3.186,-7.019219,6.0233817,-4.623706,0.73463947,1.0698159,-0.10039865
3.188,-7.0619154,5.951663,-4.618142,0.7574686,1.0201595,-0.10926461
3.19,-7.1010485,5.883313,-4.6045775,0.7810676,0.96794057,-0.11722502
3.192,-7.1363707,5.818726,-4.5829525,0.8053668,0.91310513,-0.12443457
3.194,-7.167514,5.758496,-4.5531993,0.8303138,0.85566497,-0.13104078
3.196,-7.1943526,5.7028623,-4.5151806,0.85587716,0.79565513,-0.13719837
3.198,-7.216541,5.6520243,-4.469016,0.88204443,0.73316884,-0.14304967
3.2,-7.233948,5.606149,-4.414688,0.90881217,0.6683357,-0.1487372
3.202,-7.24626,5.5652094,-4.352239,0.93620485,0.6013266,-0.1543956
3.204,-7.2533426,5.5291376,-4.281741,0.96425617,0.53235203,-0.16014457
3.206,-7.2549496,5.4978676,-4.203451,0.9930013,0.4616613,-0.16613442
3.208,-7.2509303,5.471179,-4.117551,1.0224993,0.3895319,-0.17250402
3.21,-7.241326,5.44894,-4.0242057,1.0528009,0.3162825,-0.17939647
3.212,-7.2260833,5.4308968,-3.9238782,1.083967,0.2422714,-0.18696812
3.214,-7.2051473,5.416688,-3.81672,1.116045,0.16786173,-0.19537896
3.216,-7.178504,5.4060116,-3.7032125,1.1490923,0.093441844,-0.20478323
3.218,-7.1461897,5.398542,-3.5837145,1.1831701,0.019416183,-0.21531078
3.22,-7.1082726,5.393955,-3.458723,1.218311,-0.05380836,-0.22709224
3.222,-7.064962,5.3920274,-3.3287911,1.254542,-0.12583247,-0.24022454
3.224,-7.0164747,5.3923826,-3.1943843,1.2918952,-0.19626902,-0.2547607
3.226,-6.962867,5.3947086,-3.0559673,1.3303698,-0.26474494,-0.27073568
3.228,-6.9046087,5.3988123,-2.9141438,1.3699512,-0.3308941,-0.28812316
3.23,-6.841615,5.404309,-2.769327,1.4106199,-0.39439887,-0.30688563
3.232,-6.774414,5.4110904,-2.622174,1.452331,-0.45495784,-0.32695997
3.234,-6.70326,5.4189744,-2.473073,1.4950345,-0.51231813,-0.3482665
3.236,-6.628429,5.4276605,-2.322442,1.5386612,-0.5662581,-0.37071556
3.238,-6.550164,5.4371142,-2.1708596,1.5831414,-0.6166079,-0.39422488
3.24,-6.4688454,5.4471188,-2.0186288,1.6284207,-0.663225,-0.4187339
3.242,-6.384801,5.457433,-1.8660827,1.6744252,-0.7060149,-0.444179
3.244,-6.2983203,5.468007,-1.7135934,1.7210907,-0.74492323,-0.47051466
3.246,-6.209889,5.4788003,-1.5614495,1.7683597,-0.7799276,-0.49770987
3.248,-6.1197786,5.4897847,-1.4098953,1.8161759,-0.8110486,-0.5257463
3.25,-6.028303,5.5007586,-1.259171,1.8644979,-0.838336,-0.5545854
3.252,-5.9358406,5.511737,-1.1095884,1.9132757,-0.86186314,-0.5841844
3.254,-5.842569,5.522603,-0.9610989,1.9624448,-0.8817284,-0.61448133
3.256,-5.7489085,5.5332365,-0.8138821,2.0119493,-0.8980501,-0.64539784
3.258,-5.655099,5.5436087,-0.66808414,2.0617244,-0.9109511,-0.67684484
3.26,-5.561474,5.5536747,-0.5237591,2.1117105,-0.9205701,-0.7087094
3.262,-5.468276,5.5632586,-0.3810103,2.1618326,-0.9270369,-0.7408994
3.264,-5.375826,5.572318,-0.23987389,2.2120152,-0.93046874,-0.773324
3.266,-5.28428,5.580755,-0.10041785,2.2621841,-0.9309834,-0.805891
3.268,-5.1938124,5.5884533,0.037252665,2.3122706,-0.92868936,-0.8385336
3.27,-5.104634,5.595425,0.17302442,2.3622003,-0.92369574,-0.87119275
3.272,-5.017036,5.6015253,0.30685282,2.411911,-0.916105,-0.90383536
3.274,-4.9310603,5.606633,0.4386027,2.461352,-0.90602875,-0.93642557
3.276,-4.8468924,5.6106353,0.5681691,2.510478,-0.89358985,-0.9689403
3.278,-4.764493,5.6134915,0.69544387,2.559249,-0.87892556,-1.0013616
3.28,-4.6840353,5.6151443,0.82032466,2.6076422,-0.86218894,-1.0336559
3.282,-4.6055937,5.6154985,0.9425943,2.6556213,-0.8435654,-1.0657895
3.284,-4.5292864,5.6146274,1.0621943,2.703144,-0.82323045,-1.0977167
3.286,-4.4550166,5.612347,1.1790161,2.7501702,-0.80139697,-1.1293736
3.288,-4.3829546,5.6087894,1.2928383,2.7966514,-0.77826035,-1.1607046
3.29,-4.312843,5.6038866,1.4036298,2.8425207,-0.7540299,-1.1916438
3.292,-4.2448583,5.597659,1.5112584,2.8877063,-0.7289047,-1.2221236
3.294,-4.179029,5.5902395,1.615576,2.9321244,-0.7030763,-1.2520758
3.296,-4.1152167,5.581551,1.7166123,2.9757178,-0.67671424,-1.2814521
3.298,-4.053378,5.571677,1.8142834,3.0184197,-0.64997977,-1.3102012
3.3,-3.9934459,5.560767,1.9085207,3.0601823,-0.6230021,-1.3382618
3.302,-3.935316,5.548895,1.9993477,3.1009667,-0.59589756,-1.3655795
3.304,-3.8790898,5.5360346,2.0867484,3.140753,-0.56875926,-1.392099
3.306,-3.8244534,5.522371,2.1707227,3.179533,-0.5416648,-1.4177499
3.308,-3.771476,5.507969,2.2512934,3.2173045,-0.5146757,-1.4424717
3.31,-3.720036,5.4929,2.3284314,3.2540615,-0.48782498,-1.4662058
3.312,-3.670116,5.477229,2.402265,3.2898123,-0.46114808,-1.4889045
3.314,-3.621523,5.4610925,2.4728112,3.3245602,-0.4346581,-1.5105461
3.316,-3.5743325,5.444415,2.5401583,3.3583078,-0.40835834,-1.5311267
3.318,-3.5283642,5.4273686,2.6044347,3.3910549,-0.38224936,-1.5506787
3.32,-3.4836774,5.4097805,2.6655493,3.4228067,-0.3563428,-1.5692463
3.322,-3.4400756,5.391758,2.7237132,3.4535742,-0.33063436,-1.5868866
3.324,-3.3975368,5.373296,2.778904,3.4833581,-0.30513245,-1.603649
3.326,-3.3560686,5.3543205,2.8312023,3.5121663,-0.2798673,-1.6195698
3.328,-3.3156319,5.3348894,2.880662,3.5399957,-0.25487077,-1.6346867
3.33,-3.276175,5.3148384,2.9274821,3.5668411,-0.23018885,-1.6489938
3.332,-3.2378385,5.294292,2.9717622,3.5926752,-0.2058903,-1.6624703
3.334,-3.200317,5.2731996,3.0134544,3.617454,-0.18205094,-1.675071
3.336,-3.163875,5.251506,3.0526881,3.641119,-0.15876389,-1.6867236
3.338,-3.1282916,5.229204,3.0897021,3.663598,-0.1361283,-1.6973579
3.34,-3.0944781,5.207536,3.123913,3.6847875,-0.114245415,-1.7069192
3.342,-3.0618217,5.1856403,3.1560116,3.7045805,-0.09323263,-1.7153409
3.344,-3.0302706,5.1635575,3.1860747,3.722874,-0.07319164,-1.7225873
3.346,-2.999926,5.1414633,3.2142324,3.7395554,-0.054219246,-1.7286308
3.348,-2.9708061,5.1192913,3.2405765,3.7545338,-0.036410093,-1.7334737
3.35,-2.942903,5.097148,3.2652268,3.7677283,-0.019845963,-1.7371396
3.352,-2.9162345,5.075139,3.2882462,3.7790759,-0.0045888424,-1.7396755
3.354,-2.890782,5.053341,3.309837,3.7885406,0.009305477,-1.7411433
3.356,-2.8665013,5.031724,3.3300126,3.796122,0.021800876,-1.7416297
3.358,-2.8435156,5.0103583,3.3489137,3.8018255,0.03287208,-1.7412214
3.36,-2.8217132,4.9893885,3.366653,3.805676,0.04250908,-1.7400178
3.362,-2.8011074,4.9687586,3.3833601,3.8077173,0.050716043,-1.7381047
3.364,-2.7816768,4.9485407,3.3989635,3.807994,0.05749929,-1.7355467
3.366,-2.7633421,4.928795,3.4136183,3.8065448,0.06289041,-1.7323945
3.368,-2.7460952,4.9095078,3.4274335,3.8038757,0.06704426,-1.7289455
3.37,-2.730005,4.8907413,3.4403987,3.7999036,0.07000649,-1.7251209
3.372,-2.7148123,4.872466,3.4526224,3.7948117,0.07188797,-1.7209865
3.374,-2.7005792,4.854631,3.4640892,3.7887988,0.07282388,-1.7166208
3.376,-2.6872306,4.83724,3.4748554,3.7820857,0.07294893,-1.7120992
3.378,-2.6747937,4.8203173,3.4849348,3.774898,0.07241154,-1.707509
3.38,-2.663145,4.8037367,3.494433,3.767456,0.07135892,-1.7029318
3.382,-2.6521745,4.787595,3.503351,3.7599561,0.06991911,-1.6984272
3.384,-2.6420999,4.771946,3.5117664,3.7525659,0.068211675,-1.6940738
3.386,-2.6325943,4.7567873,3.5197327,3.7454195,0.066346765,-1.6899201
3.388,-2.6238823,4.7420335,3.5271735,3.7386131,0.06439829,-1.6860002
3.39,-2.6157691,4.7278337,3.5342002,3.7322092,0.062438607,-1.6823492
