Time_s_,Acc_x_m_s_2_,Acc_y_m_s_2_,Acc_z_m_s_2_,Gyro_x_1_s_,Gyro_y_1_s_,Gyro_z_1_s_
0,0.14003131,-0.034438558,0.431866,0.19197905,0.77305996,0.5397109
0.002,0.15826409,-0.025866095,0.4091453,0.19513717,0.77870405,0.5432117
0.004,0.17727117,-0.01699574,0.38521197,0.19853684,0.78438634,0.5471118
0.006,0.19700976,-0.0077618817,0.35990885,0.20217353,0.78993547,0.55142856
0.008,0.21767555,0.0018139989,0.33316875,0.20601773,0.79511213,0.55616224
0.01,0.23917083,0.011823762,0.30485138,0.21001652,0.79960525,0.561285
0.012,0.2614503,0.022268977,0.27511248,0.21410036,0.8030273,0.5667478
0.014,0.28457838,0.033244707,0.24393095,0.21817514,0.8049449,0.5724682
0.016,0.30840063,0.044797696,0.21154155,0.22214648,0.8048873,0.5783303
0.018,0.33297494,0.056956492,0.17802437,0.22592911,0.8024018,0.58419526
0.02,0.35828072,0.06969999,0.14369136,0.22946212,0.79709566,0.5899108
0.022,0.38412905,0.08297306,0.10869849,0.23272085,0.7887044,0.5953412
0.024,0.41043538,0.09686514,0.07324235,0.23573926,0.77713776,0.6004014
0.026,0.43710262,0.11137545,0.037507415,0.23859838,0.7625005,0.6050593
0.028,0.46399128,0.12652323,0.0017182678,0.24153844,0.7451936,0.6095326
0.03,0.49080044,0.14234392,-0.033934645,0.2445252,0.7255464,0.6136855
0.032,0.51745385,0.15888014,-0.06927963,0.24772707,0.7042825,0.6177355
0.034,0.54373455,0.17620523,-0.10418495,0.25129175,0.6821965,0.6219206
0.036,0.56935775,0.19437428,-0.13853745,0.25533843,0.6600914,0.6264686
0.038,0.5942694,0.21333264,-0.17232531,0.2599315,0.638714,0.6315558
0.04,0.61816394,0.2331389,-0.20556259,0.26509702,0.61871535,0.63730204
0.042,0.64081734,0.25375992,-0.23826426,0.27083227,0.6005988,0.64376885
0.044,0.6618999,0.27525032,-0.2704448,0.277109,0.5847081,0.650954
0.046,0.6813317,0.29763448,-0.30228812,0.2838676,0.5712508,0.65883034
0.048,0.6989142,0.32096767,-0.3339125,0.29105073,0.5602734,0.66732645
0.05,0.7144772,0.3451687,-0.36564216,0.29859573,0.5517025,0.67636526
0.052,0.72780716,0.37021747,-0.39761525,0.30643675,0.54534566,0.685863
0.054,0.7389431,0.39601576,-0.4301534,0.31451038,0.5409192,0.6957457
0.056,0.74853384,0.42310995,-0.46436584,0.3227585,0.5380717,0.7059583
0.058,0.75568676,0.4506817,-0.4993031,0.33111322,0.53637624,0.71644485
0.06,0.7603713,0.47868228,-0.53507555,0.33951074,0.5353946,0.7271655
0.062,0.76276803,0.50696504,-0.571977,0.34789106,0.5346838,0.73807836
0.064,0.7630712,0.53563076,-0.6101469,0.35621032,0.5338119,0.7491283
0.066,0.7613096,0.5644665,-0.64973086,0.36442852,0.53239805,0.76027966
0.068,0.75755155,0.59333014,-0.6907653,0.37250817,0.5301137,0.77150995
0.07,0.7520528,0.6221728,-0.7332169,0.38041145,0.52671474,0.7828204
0.072,0.74509704,0.65080464,-0.77700734,0.38811743,0.5220183,0.7942482
0.074,0.7369983,0.6791505,-0.821875,0.395595,0.51591265,0.8058677
0.076,0.7277687,0.7070972,-0.867573,0.4028049,0.5083366,0.81776464
0.078,0.71771485,0.73447615,-0.91382277,0.4096967,0.4992714,0.83002335
0.08,0.7069353,0.76122725,-0.9602386,0.41622373,0.4887269,0.8427272
0.082,0.6955372,0.78720105,-1.0065527,0.42233512,0.47672448,0.8559246
0.084,0.6836868,0.8122251,-1.0525225,0.42798227,0.46328148,0.8696232
0.086,0.6712615,0.8363389,-1.0979884,0.4331275,0.44845945,0.8838069
0.088,0.65832376,0.85957074,-1.1426375,0.43773615,0.43234235,0.8984172
0.09,0.64473426,0.8821082,-1.186195,0.44178182,0.41503087,0.9133665
0.092,0.6303484,0.90407556,-1.2283636,0.44526488,0.3966641,0.92855245
0.094,0.6150241,0.9256061,-1.2688947,0.44817615,0.3774222,0.9438589
0.096,0.59880215,0.94655466,-1.3072169,0.45051366,0.35751396,0.9591637
0.098,0.58166,0.96687573,-1.3431509,0.45227873,0.3371772,0.9743776
0.1,0.56356376,0.98659575,-1.3763778,0.4534778,0.31666556,0.989427
0.102,0.54443806,1.0055407,-1.4067512,0.4541294,0.2962283,1.0042809
0.104,0.52410424,1.0240734,-1.434194,0.45424104,0.27610025,1.018925
0.106,0.502038,1.0422815,-1.4586456,0.45382553,0.25649768,1.0333769
0.108,0.47818887,1.0604616,-1.4801439,0.45287922,0.23757972,1.0476742
0.11,0.45233685,1.0788496,-1.4986906,0.45139325,0.21946098,1.0618597
0.112,0.42458773,1.0975341,-1.5143235,0.44935775,0.2022076,1.0759934
0.114,0.39462394,1.1166006,-1.5269829,0.44675303,0.18579784,1.0901192
0.116,0.362521,1.1360996,-1.5366484,0.443581,0.17015591,1.1042873
0.118,0.32814652,1.1563599,-1.5432382,0.43983364,0.15516663,1.1185393
0.12,0.29190016,1.1773572,-1.5467644,0.43552533,0.1406789,1.1328871
0.122,0.25404018,1.1991134,-1.5474914,0.43068677,0.12651516,1.1473175
0.124,0.21480012,1.2213969,-1.5453509,0.42536464,0.11249908,1.1617903
0.126,0.17431068,1.244216,-1.5405321,0.41960907,0.09848997,1.1762604
0.128,0.13272893,1.2675676,-1.5328605,0.41350862,0.08437356,1.1906803
0.13,0.0900597,1.2917037,-1.5225055,0.40715903,0.07006075,1.2050263
0.132,0.046556234,1.3167335,-1.5093806,0.4006555,0.0554742,1.2192292
0.134,0.0023892522,1.3427032,-1.4935949,0.39408225,0.04056737,1.2331995
0.136,-0.042189956,1.3696086,-1.4753104,0.3875144,0.025307946,1.2468054
0.138,-0.08682895,1.3974509,-1.4546059,0.38100308,0.009714246,1.2598933
0.14,-0.13109708,1.4262065,-1.4317493,0.3745901,-0.006178513,1.2722992
0.142,-0.17485571,1.455853,-1.406797,0.36831024,-0.022316888,1.2839167
0.144,-0.21788383,1.486468,-1.3799657,0.36220828,-0.038587525,1.2947226
0.146,-0.25969923,1.5181193,-1.3515028,0.3563239,-0.054845966,1.3047965
0.148,-0.3003456,1.5508399,-1.3218582,0.35069683,-0.070905365,1.3142972
0.15,-0.3395381,1.5844903,-1.2920048,0.34537107,-0.086516365,1.323441
0.152,-0.37661994,1.6190264,-1.2624023,0.340377,-0.10140999,1.3324636
0.154,-0.41107893,1.6545091,-1.2328479,0.33572093,-0.115343995,1.3415947
0.156,-0.44345242,1.6911924,-1.2033459,0.33136594,-0.1280868,1.3509792
0.158,-0.4736036,1.7289854,-1.1743047,0.32725206,-0.13944022,1.3606187
0.16,-0.5014252,1.7677248,-1.1456947,0.32328847,-0.14926618,1.3703566
0.162,-0.5268089,1.8072832,-1.1183373,0.31936672,-0.1574716,1.3798873
0.164,-0.5498665,1.8475758,-1.0927017,0.31538153,-0.16404404,1.3888197
0.166,-0.57050985,1.8885936,-1.0692894,0.3112271,-0.16905004,1.3967161
0.168,-0.58867383,1.9304174,-1.0481302,0.30681688,-0.172611,1.4032216
0.17,-0.6044829,1.9731869,-1.0290031,0.3020748,-0.17493607,1.4081243
0.172,-0.6182212,2.0169582,-1.0115147,0.29698676,-0.17626578,1.4114286
0.174,-0.63055575,2.0616024,-0.99517566,0.29157564,-0.176882,1.413334
0.176,-0.6423366,2.1072774,-0.9796976,0.28590435,-0.17707324,1.4142256
0.178,-0.65466434,2.1541636,-0.9652376,0.2800464,-0.1771234,1.4146324
0.18,-0.6679186,2.2019968,-0.9517541,0.27403146,-0.17737298,1.4151437
0.182,-0.682293,2.2508733,-0.939322,0.2678014,-0.17824382,1.4163821
0.184,-0.6986139,2.3011496,-0.9273182,0.26129666,-0.18011978,1.4188855
0.186,-0.7177977,2.3532457,-0.9145155,0.2544349,-0.18337294,1.4230747
0.188,-0.7407191,2.407405,-0.8995661,0.24708766,-0.18848577,1.4292352
0.19,-0.7683232,2.463654,-0.8810065,0.23907274,-0.19598627,1.4375409
0.192,-0.80135506,2.521867,-0.8578295,0.23017058,-0.20644511,1.4480871
0.194,-0.840284,2.581799,-0.8291749,0.22012258,-0.22047268,1.4608576
0.196,-0.88537556,2.6432552,-0.7944771,0.2086828,-0.23865372,1.4757639
0.198,-0.93680394,2.7060409,-0.75356066,0.19564438,-0.2614875,1.4926093
0.2,-0.9945762,2.7702546,-0.70623654,0.18091461,-0.2893176,1.5110255
0.202,-1.0584209,2.8356876,-0.6521177,0.16456136,-0.32228914,1.5305325
0.204,-1.1281781,2.9023674,-0.59105754,0.1467787,-0.36029673,1.5505195
0.206,-1.2035403,2.9702177,-0.5231086,0.12789005,-0.40293843,1.5702573
0.208,-1.2840176,3.0389535,-0.4483922,0.10830885,-0.44953567,1.5889313
0.21,-1.3689122,3.1079373,-0.36714953,0.08852744,-0.4990733,1.605809
0.212,-1.457444,3.1767063,-0.27965546,0.069069445,-0.550298,1.6202502
0.214,-1.5485804,3.244656,-0.18625575,0.050433636,-0.60183597,1.6317081
0.216,-1.6412979,3.3113961,-0.087470174,0.03301412,-0.65225786,1.6398425
0.218,-1.7344629,3.3762448,0.01609832,0.017039478,-0.70015013,1.6445937
0.22,-1.8272042,3.4387865,0.12359999,0.0025696158,-0.74420583,1.646189
0.222,-1.9184318,3.4984808,0.23407978,-0.010482371,-0.783356,1.6450497
0.224,-2.0070622,3.5548787,0.34664148,-0.022294283,-0.8168225,1.6417198
0.226,-2.092191,3.607719,0.46020943,-0.033074796,-0.8441682,1.6367809
0.228,-2.1727939,3.6565313,0.5734571,-0.04299462,-0.8652241,1.6307592
0.23,-2.2482145,3.701198,0.6851866,-0.05212587,-0.88002753,1.6240325
0.232,-2.31756,3.7416945,0.79419893,-0.060415626,-0.888746,1.6167924
0.234,-2.3799138,3.778083,0.89907116,-0.06768447,-0.8915136,1.6090834
0.236,-2.4344716,3.810319,0.9986065,-0.073667765,-0.8883434,1.6008568
0.238,-2.4808826,3.8386562,1.0915363,-0.0781188,-0.8792105,1.5921043
0.24,-2.5183413,3.8630676,1.1769347,-0.08081907,-0.8639787,1.5829487
0.242,-2.5466573,3.8839622,1.2536408,-0.08158207,-0.84236753,1.5736651
0.244,-2.565809,3.9017003,1.3204926,-0.080264926,-0.81412834,1.5646329
0.246,-2.5759718,3.917091,1.3766801,-0.076815546,-0.77914476,1.556286
0.248,-2.5772953,3.9309072,1.4213792,-0.07125962,-0.7375309,1.549067
0.25,-2.5702448,3.9438283,1.4540325,-0.06370211,-0.68974125,1.5433366
0.252,-2.5551848,3.9566567,1.4739772,-0.054335296,-0.63663656,1.5393265
0.254,-2.5327387,3.9700925,1.480565,-0.043444395,-0.5794413,1.5371295
0.256,-2.503747,3.984898,1.4734294,-0.031362116,-0.519661,1.5366285
0.258,-2.4690413,4.0020404,1.4526675,-0.018462956,-0.45898992,1.5375535
0.26,-2.4296756,4.02253,1.4187819,-0.005122781,-0.399157,1.5395628
0.262,-2.3870134,4.0471444,1.3720304,0.008278251,-0.34180766,1.5423378
0.264,-2.342244,4.0763655,1.312645,0.021340549,-0.28851047,1.5456148
0.266,-2.2957134,4.1104364,1.241641,0.033667684,-0.24061206,1.5493184
0.268,-2.2487445,4.149695,1.1605324,0.044910967,-0.19918077,1.5535796
0.27,-2.2026954,4.1945734,1.0707732,0.054802477,-0.16504383,1.5586154
0.272,-2.1585696,4.2453737,0.97431743,0.06318742,-0.13882867,1.5646511
0.274,-2.116952,4.301716,0.8725887,0.07000193,-0.120997846,1.5718743
0.276,-2.0793164,4.3635817,0.766794,0.0752691,-0.11180255,1.5804089
0.278,-2.0459054,4.430879,0.65760857,0.07905683,-0.11133371,1.5903261
0.28,-2.0168755,4.5029736,0.54556465,0.081469774,-0.11949074,1.6016183
0.282,-1.9920118,4.5793147,0.43167937,0.082654774,-0.1360136,1.6142571
0.284,-1.9711533,4.6595855,0.31720683,0.08278918,-0.16044915,1.6282053
0.286,-1.9538031,4.743235,0.20374686,0.08208245,-0.19217846,1.6434348
0.288,-1.9392627,4.829526,0.09303379,0.08076775,-0.2304259,1.659934
0.29,-1.92785,4.918112,-0.013623685,0.07910144,-0.274284,1.6777045
0.292,-1.9196546,5.008108,-0.11495462,0.07729602,-0.322762,1.6967454
0.294,-1.9141003,5.0987053,-0.21057773,0.07554948,-0.37482956,1.7170173
0.296,-1.9103367,5.189043,-0.30040318,0.07403296,-0.42948446,1.738415
0.298,-1.9077091,5.2787046,-0.38412887,0.07285553,-0.4858465,1.7608151
0.3,-1.9057657,5.3674064,-0.4613102,0.07208085,-0.5432157,1.7840376
0.302,-1.9041082,5.4550724,-0.53107536,0.07171726,-0.60104185,1.8077937
0.304,-1.9027786,5.5415754,-0.5924011,0.07175553,-0.65890396,1.8317564
0.306,-1.9016559,5.6266212,-0.6443207,0.072181165,-0.71650547,1.8555939
0.308,-1.9006854,5.70994,-0.6860746,0.07304287,-0.7735809,1.8788697
0.31,-1.8998992,5.7912154,-0.7173668,0.07444781,-0.8298233,1.9012249
0.312,-1.8992255,5.870191,-0.73849255,0.07661945,-0.8847499,1.9224236
0.314,-1.8985993,5.9465814,-0.7495617,0.07985532,-0.9376632,1.9423714
0.316,-1.8983074,6.020567,-0.75088733,0.08452046,-0.98757243,1.9611285
0.318,-1.8984356,6.092325,-0.743197,0.09099352,-1.033249,1.9789057
0.32,-1.8992567,6.1620045,-0.7275496,0.09961212,-1.0733523,1.9960182
0.322,-1.9010042,6.229812,-0.7053315,0.11063814,-1.1065556,2.0128381
0.324,-1.9037726,6.295575,-0.67864054,0.12419903,-1.131716,2.0297196
0.326,-1.9074453,6.359006,-0.6490593,0.14023662,-1.1480389,2.0469277
0.328,-1.912584,6.420466,-0.61814076,0.15853167,-1.1551607,2.0645945
0.33,-1.9192067,6.4799924,-0.5875601,0.17868638,-1.1532221,2.082676
0.332,-1.9274728,6.5376606,-0.5591335,0.20020372,-1.1428833,2.1009126
0.334,-1.9375702,6.5936537,-0.53485966,0.2224732,-1.125273,2.118921
0.336,-1.9494965,6.6477604,-0.5164489,0.24482894,-1.1018649,2.1361947
0.338,-1.9636207,6.6998773,-0.5051423,0.26658344,-1.0743642,2.1521826
0.34,-1.9802569,6.7499347,-0.5019327,0.2870571,-1.0445731,2.166325
0.342,-1.9997528,6.7981334,-0.50727326,0.30557334,-1.0143416,2.178115
0.344,-2.0220256,6.844271,-0.5215162,0.32144368,-0.98553455,2.1871438
0.346,-2.0472543,6.88893,-0.5451463,0.33402228,-0.95993936,2.193106
0.348,-2.075551,6.932208,-0.57805645,0.342668,-0.93926394,2.1957486
0.35,-2.1067932,6.9742002,-0.6195233,0.34676307,-0.92514217,2.1948373
0.352,-2.1410773,7.014968,-0.6682649,0.34572983,-0.9190921,2.1901472
0.354,-2.1782975,7.0547094,-0.72275484,0.33907753,-0.92245483,2.181458
0.356,-2.2182841,7.093163,-0.78134024,0.32638288,-0.936453,2.168619
0.358,-2.2609203,7.1303344,-0.8421287,0.307324,-0.9621556,2.15144
0.36,-2.3058746,7.166247,-0.9029009,0.2817678,-1.0002949,2.1297216
0.362,-2.3528023,7.20072,-0.9611071,0.24973136,-1.0512774,2.103386
0.364,-2.4008641,7.233603,-1.0140663,0.21141541,-1.1151597,2.0722966
0.366,-2.4495919,7.264668,-1.0593325,0.1671772,-1.1916795,2.0363297
0.368,-2.4979992,7.2933426,-1.094245,0.11754227,-1.2802312,1.9954245
0.37,-2.5448956,7.319105,-1.1162815,0.06320667,-1.3799753,1.9496012
0.372,-2.5894241,7.341564,-1.1232822,0.005006194,-1.4897859,1.8989551
0.374,-2.630334,7.360203,-1.113167,-0.056083202,-1.6082261,1.8436961
0.376,-2.666695,7.3745522,-1.0838139,-0.11905444,-1.7337418,1.7840669
0.378,-2.6971927,7.384081,-1.0332086,-0.18284476,-1.864728,1.7202959
0.38,-2.7204876,7.38797,-0.9597258,-0.2463597,-1.9994693,1.6526705
0.382,-2.735677,7.385089,-0.86194026,-0.3085649,-2.1362057,1.5815375
0.384,-2.7423344,7.375174,-0.7386004,-0.368474,-2.27315,1.5072742
0.386,-2.739121,7.35741,-0.58889633,-0.42519355,-2.4084454,1.4303126
0.388,-2.725909,7.3308444,-0.41232118,-0.47788715,-2.5401857,1.3511447
0.39,-2.7021875,7.2949824,-0.20915204,-0.5258063,-2.6663966,1.270302
0.392,-2.6677039,7.249047,0.01975137,-0.5682546,-2.784996,1.1883743
0.394,-2.6218555,7.1919227,0.27309528,-0.604581,-2.8937817,1.1059749
0.396,-2.5640514,7.122905,0.54901636,-0.634177,-2.99052,1.0236691
0.398,-2.4940894,7.041617,0.8452241,-0.65646183,-3.0729852,0.94200695
0.4,-2.41182,6.9478707,1.1590897,-0.6709356,-3.1390724,0.861545
0.402,-2.3174257,6.8416114,1.4873024,-0.6771735,-3.1869333,0.7827642
0.404,-2.2110202,6.722513,1.8266387,-0.6748594,-3.2150412,0.7060498
0.406,-2.0922515,6.5898867,2.173618,-0.66383773,-3.2222767,0.63168836
0.408,-1.9629906,6.444383,2.5244792,-0.6441617,-3.207982,0.55984586
0.41,-1.8254033,6.287065,2.873105,-0.61609256,-3.1719112,0.49056274
0.412,-1.6813028,6.1199336,3.2138655,-0.58016515,-3.1142755,0.4238438
0.414,-1.5288069,5.943189,3.5418603,-0.5372072,-3.035781,0.35963988
0.416,-1.3679593,5.7555566,3.851098,-0.4882692,-2.9375896,0.29782015
0.418,-1.19962,5.55554,4.137251,-0.43455362,-2.8211458,0.23823267
0.42,-1.0255585,5.344366,4.397754,-0.37733305,-2.6881075,0.18068928
0.422,-0.8438544,5.1232862,4.630134,-0.31793404,-2.540393,0.124997556
0.424,-0.6541318,4.8932424,4.8267894,-0.25771976,-2.380063,0.07102525
0.426,-0.45845234,4.6561103,4.978447,-0.19800925,-2.2093449,0.01873529
0.428,-0.2575372,4.4128947,5.081585,-0.14007843,-2.0306807,-0.031869173
0.43,-0.051058173,4.164172,5.1357484,-0.08503914,-1.846562,-0.080726564
0.432,0.1600759,3.910225,5.138982,-0.0338476,-1.65954,-0.12776637
0.434,0.37399256,3.6513705,5.089079,0.01274541,-1.4722067,-0.17299047
0.436,0.5900468,3.3875585,4.986147,0.05427122,-1.2870702,-0.21638364
0.438,0.8082804,3.1189818,4.832418,0.09049151,-1.1065849,-0.25801682
0.44,1.0278332,2.8465192,4.630403,0.121261954,-0.9330391,-0.29795858
0.442,1.2480695,2.5708091,4.3822737,0.1462562,-0.76856196,-0.33611917
0.444,1.4694304,2.2918098,4.0909357,0.16541454,-0.6144038,-0.37227723
0.446,1.6929268,2.0094519,3.761638,0.17890786,-0.47145823,-0.4061668
0.448,1.9252738,1.7219036,3.4050498,0.18683667,-0.34048223,-0.43709707
0.45,2.1703606,1.4317032,3.0297954,0.18906689,-0.22159488,-0.463906
0.452,2.4195974,1.1493074,2.6376367,0.18513344,-0.11462329,-0.48538256
0.454,2.6706295,0.87979364,2.230197,0.17449728,-0.019204423,-0.5002518
0.456,2.93771,0.62177825,1.8158574,0.1566641,0.064982384,-0.50734293
0.458,3.2194328,0.38229913,1.3993312,0.13114598,0.13804998,-0.5057604
0.46,3.51051,0.1647281,0.98690367,0.09751327,0.20003721,-0.49479297
0.462,3.811769,-0.03436625,0.5873078,0.055571005,0.25097895,-0.47394037
0.464,4.125082,-0.21666133,0.20659423,0.0055084527,0.29076234,-0.44300747
0.466,4.4519806,-0.3781271,-0.15203834,-0.0521646,0.31899485,-0.40192032
0.468,4.7925863,-0.513415,-0.48222256,-0.1166677,0.33497328,-0.35056674
0.47,5.14641,-0.6190139,-0.77536654,-0.18685406,0.3378399,-0.2890313
0.472,5.513159,-0.6915289,-1.024375,-0.26119,0.326652,-0.21773274
0.474,5.8915997,-0.72575784,-1.2231393,-0.33777484,0.30048898,-0.13732027
0.476,6.2796216,-0.71750057,-1.36596,-0.41443783,0.25862134,-0.04857707
0.478,6.6741905,-0.6636318,-1.4495304,-0.48861632,0.20106538,0.04781498
0.48,7.071695,-0.5625007,-1.4752941,-0.5566901,0.12963422,0.15126279
0.482,7.4680448,-0.4142294,-1.4488914,-0.61412317,0.04832898,0.26057634
0.484,7.857461,-0.22051549,-1.3792534,-0.65636176,-0.036157772,0.37454844
0.486,8.233561,0.015914917,-1.2782254,-0.67846555,-0.11489475,0.49281478
0.488,8.589222,0.29071522,-1.1591344,-0.6749187,-0.17672618,0.61490625
0.49,8.916778,0.5982865,-1.0362678,-0.6407466,-0.20890868,0.7388009
0.492,9.208213,0.93200743,-0.9240217,-0.57147366,-0.1976124,0.8618423
0.494,9.455262,1.2846463,-0.83626103,-0.4631384,-0.12908082,0.9813857
0.496,9.650439,1.6489501,-0.7854302,-0.31313968,0.008499175,1.0938449
0.498,9.787416,2.0179229,-0.78270483,-0.121412456,0.22271723,1.1938531
0.5,9.861017,2.3841906,-0.8366957,0.10929513,0.51643276,1.2746247
0.502,9.867962,2.7405562,-0.95295715,0.37346512,0.8866578,1.3286078
0.504,9.806256,3.0806055,-1.134351,0.66273594,1.3231351,1.3480316
0.506,9.675722,3.3985376,-1.3810604,0.96615016,1.8083676,1.3264804
0.508,9.478033,3.689404,-1.6900258,1.2705646,2.3184314,1.2601154
0.51,9.216744,3.9496937,-2.055468,1.5615151,2.8246622,1.14874
0.512,8.896746,4.177745,-2.4684594,1.8245273,3.295815,0.9963256
0.514,8.524108,4.373631,-2.9174128,2.0462556,3.7008138,0.8109118
0.516,8.10594,4.5391765,-3.3882585,2.215524,4.0120506,0.60405624
0.518,7.65211,4.676049,-3.8658044,2.3242733,4.208593,0.38959992
0.52,7.1728797,4.7867317,-4.3326626,2.3684058,4.2786617,0.18184662
0.522,6.677915,4.8741703,-4.7734184,2.348163,4.220891,-0.006205559
0.524,6.174423,4.943733,-5.1749196,2.2678437,4.044231,-0.16426492
0.526,5.6719966,5.00142,-5.524679,2.1352985,3.7668557,-0.28599155
0.528,5.180656,5.0521774,-5.813574,1.9611377,3.413954,-0.3696866
0.53,4.7105474,5.0973377,-6.035594,1.75774,3.0146525,-0.41818172
0.532,4.2673187,5.138278,-6.185957,1.5378882,2.5983868,-0.43806058
0.534,3.8585663,5.1757755,-6.2578897,1.3131244,2.1914904,-0.4381222
0.536,3.492569,5.208806,-6.2473173,1.0932336,1.8150407,-0.42748708
0.538,3.1744764,5.236804,-6.158315,0.88611495,1.4832337,-0.41509575
0.54,2.9069312,5.258829,-5.998228,0.6966647,1.2033994,-0.40911418
0.542,2.6924405,5.2732353,-5.7730703,0.5265497,0.9760545,-0.4151714
0.544,2.532672,5.2779574,-5.488612,0.3753606,0.7962584,-0.43559837
0.546,2.426477,5.270685,-5.1536493,0.2406471,0.65524775,-0.47100282
0.548,2.3717988,5.248562,-4.7777796,0.118591964,0.5425375,-0.5209851
0.55,2.3659892,5.2088966,-4.369252,0.0053619146,0.44821852,-0.58332825
0.552,2.4054537,5.1500015,-3.9347372,-0.10211322,0.36441112,-0.6539105
0.554,2.4853983,5.0712934,-3.4804468,-0.20578764,0.28576514,-0.7278761
0.556,2.5999944,4.973174,-3.013506,-0.30636668,0.20979519,-0.8005241
0.558,2.7392495,4.858168,-2.5434475,-0.40334448,0.13694806,-0.8672416
0.56,2.897388,4.725858,-2.073891,-0.49532294,0.0701602,-0.92413366
0.562,3.0785713,4.5722623,-1.6032944,-0.5803368,0.013808027,-0.96836877
0.564,3.277137,4.401946,-1.1303897,-0.6561668,-0.027165445,-0.99817306
0.566,3.4749944,4.2245064,-0.6587908,-0.7207383,-0.048002157,-1.0127835
0.568,3.6707845,4.0429025,-0.19208455,-0.772357,-0.04494761,-1.0124493
0.57,3.865512,3.8636565,0.26410532,-0.80996704,-0.015825525,-0.9982694
0.572,4.053435,3.697479,0.70294476,-0.8332265,0.03976165,-0.9719924
0.574,4.227429,3.551584,1.1198161,-0.8425779,0.1204099,-0.93582755
0.576,4.3817577,3.42667,1.5122411,-0.83920074,0.22314297,-0.8922725
0.578,4.5124083,3.3224175,1.8750201,-0.8248042,0.34382153,-0.84385556
0.58,4.6167355,3.2403665,2.2015586,-0.80144584,0.4774957,-0.7929802
0.582,4.69232,3.180869,2.4883842,-0.77137053,0.61898315,-0.7418097
0.584,4.738123,3.1411886,2.7336125,-0.7368335,0.7633915,-0.69216144
0.586,4.755379,3.118885,2.935429,-0.6999399,0.9064449,-0.64544547
0.588,4.745637,3.1128383,3.09302,-0.662504,1.0447108,-0.602657
0.59,4.7108335,3.122857,3.208074,-0.62586516,1.1759963,-0.5643214
0.592,4.6535797,3.1485238,3.2838054,-0.5907337,1.2997706,-0.53054947
0.594,4.5779924,3.188249,3.3239334,-0.55745935,1.4163773,-0.501204
0.596,4.488422,3.2393117,3.3319485,-0.5259128,1.5272882,-0.47570977
0.598,4.389586,3.299144,3.309867,-0.49538752,1.6350569,-0.45326975
0.6,4.286336,3.3649416,3.2584898,-0.46479544,1.7426122,-0.43306345
0.602,4.1833143,3.4336662,3.1769085,-0.4327878,1.8530989,-0.4140966
0.604,4.085043,3.5015938,3.0630236,-0.39783695,1.9697667,-0.3953909
0.606,3.9950466,3.5649073,2.9144835,-0.3584191,2.0956054,-0.37617102
0.608,3.9155967,3.6200724,2.7293913,-0.31326365,2.2330303,-0.3558283
0.61,3.8482997,3.6648679,2.506387,-0.2615742,2.3835864,-0.33394456
0.612,3.7941418,3.6974604,2.2446594,-0.20317143,2.547528,-0.31042528
0.614,3.7535098,3.7164547,1.9451125,-0.13868058,2.723469,-0.28547075
0.616,3.7258203,3.720573,1.6109904,-0.06970209,2.9080043,-0.2594871
0.618,3.7104046,3.7089434,1.2466724,0.0010977983,3.0955148,-0.23302871
0.62,3.7061553,3.6811273,0.85752594,0.070141554,3.2783017,-0.20695996
0.622,3.7115016,3.6371999,0.44927227,0.13323331,3.446886,-0.18244863
0.624,3.7244833,3.5776737,0.026709676,0.1859225,3.5906217,-0.16075075
0.626,3.7422326,3.5025706,-0.40205204,0.22386312,3.6985486,-0.14299989
0.628,3.7622762,3.4118097,-0.82794714,0.24324024,3.7604709,-0.13007873
0.63,3.7825468,3.3062663,-1.2430742,0.24109101,3.7679691,-0.12250519
0.632,3.800162,3.1873622,-1.6378789,0.21559727,3.715344,-0.12040067
0.634,3.8118467,3.0568147,-2.0027192,0.16622686,3.6002803,-0.12347853
0.636,3.8161907,2.915982,-2.329248,0.093826175,3.4241834,-0.1310448
0.638,3.8112679,2.7661977,-2.612062,0.0005108118,3.192156,-0.1421245
0.64,3.793531,2.6087763,-2.8469152,-0.11049026,2.9125977,-0.15563294
0.642,3.7621064,2.4437776,-3.028348,-0.23511314,2.5965476,-0.17053443
0.644,3.7163992,2.2714815,-3.1544266,-0.3688366,2.2566376,-0.18601033
0.646,3.6556993,2.0924077,-3.223911,-0.5070407,1.9059542,-0.20150761
0.648,3.5801659,1.9054703,-3.2352324,-0.645045,1.5577049,-0.2167265
0.65,3.4902573,1.7105423,-3.189869,-0.77860916,1.2237473,-0.23186146
0.652,3.3891215,1.506672,-3.089755,-0.90423703,0.9138671,-0.24739672
0.654,3.2794223,1.292477,-2.937434,-1.0192028,0.6356197,-0.2640674
0.656,3.163146,1.0675608,-2.7361798,-1.1217655,0.39368784,-0.28305325
0.658,3.0436325,0.83238643,-2.4919932,-1.2110536,0.19009581,-0.3055329
0.66,2.924396,0.58734065,-2.2127976,-1.2869227,0.02441889,-0.33255666
0.662,2.8091345,0.33139324,-1.90577,-1.3498126,-0.10595992,-0.3651227
0.664,2.7020316,0.063575864,-1.577703,-1.4005708,-0.20519808,-0.4040779
0.666,2.6073613,-0.2162841,-1.2373846,-1.4402778,-0.27830324,-0.44997767
0.668,2.527822,-0.5070232,-0.89289194,-1.4699881,-0.33051592,-0.50312614
0.67,2.4674902,-0.80808854,-0.5492548,-1.490666,-0.36700836,-0.56359076
0.672,2.427494,-1.1167105,-0.20906466,-1.5031282,-0.39233682,-0.63093424
0.674,2.405793,-1.4267333,0.12583959,-1.5079886,-0.4100582,-0.70403004
0.676,2.4020228,-1.7321761,0.45201293,-1.5059415,-0.42311832,-0.78141797
0.678,2.4180598,-2.0287824,0.7697855,-1.4977784,-0.43368202,-0.8615345
0.68,2.453848,-2.3118732,1.0788509,-1.4844298,-0.4433485,-0.9428011
0.682,2.510182,-2.5784125,1.3772827,-1.4670353,-0.45341346,-1.023761
0.684,2.587723,-2.8267555,1.662777,-1.4469883,-0.46533605,-1.103307
0.686,2.685852,-3.0543363,1.9318798,-1.4260089,-0.4810107,-1.1806201
0.688,2.8038902,-3.2586765,2.1833854,-1.4060123,-0.502527,-1.2551625
0.69,2.9395478,-3.4368174,2.4165697,-1.3889685,-0.53237355,-1.3269184
0.692,3.0887504,-3.5849698,2.6303716,-1.3767228,-0.57351124,-1.3962486
0.694,3.246565,-3.6988459,2.8247604,-1.370775,-0.62886083,-1.4634497
0.696,3.4068766,-3.7745523,3.0018706,-1.3719416,-0.700706,-1.5285078
0.698,3.5645714,-3.8105192,3.1656866,-1.3803942,-0.7907058,-1.5911686
0.7,3.7119274,-3.8055305,3.3203363,-1.395608,-0.8995021,-1.6507224
0.702,3.8441336,-3.759446,3.4660144,-1.4161972,-1.0261574,-1.7060624
0.704,3.9547877,-3.671447,3.6013668,-1.4401445,-1.1682081,-1.7560822
0.706,4.037857,-3.542515,3.726744,-1.4649866,-1.3215902,-1.7996492
0.708,4.0871367,-3.375455,3.8415453,-1.4877659,-1.4807289,-1.8356723
0.71,4.0973167,-3.1743402,3.9436011,-1.5051522,-1.6389158,-1.8633082
0.712,4.064622,-2.9438488,4.0312757,-1.5137998,-1.7888896,-1.8820186
0.714,3.9863594,-2.68888,4.102963,-1.5104558,-1.9227953,-1.8914223
0.716,3.8610165,-2.4149804,4.156374,-1.4923081,-2.0324242,-1.8914077
0.718,3.688636,-2.1283357,4.1887884,-1.4573867,-2.1097076,-1.8822621
0.72,3.4709117,-1.835945,4.1974435,-1.4047145,-2.1468887,-1.8646563
0.722,3.2109566,-1.5444986,4.180111,-1.3344126,-2.1370115,-1.8397474
0.724,2.913192,-1.2608026,4.13484,-1.2476655,-2.074422,-1.8092414
0.726,2.5832222,-0.99105346,4.060434,-1.1467042,-1.9557357,-1.7754855
0.728,2.2279384,-0.7408037,3.9563234,-1.0347304,-1.7805929,-1.741306
0.73,1.8548542,-0.5150485,3.8223073,-0.9155108,-1.551842,-1.7096052
0.732,1.4725038,-0.31849754,3.659668,-0.7932173,-1.2762499,-1.6831373
0.734,1.0892212,-0.15447809,3.4711561,-0.67212915,-0.96451795,-1.6643751
0.736,0.71341836,-0.024283722,3.2574542,-0.55630875,-0.63059074,-1.6552329
0.738,0.3542369,0.071155906,3.0205407,-0.4493092,-0.2902204,-1.6567329
0.74,0.016444385,0.13159767,2.76721,-0.3539716,0.040299088,-1.6690809
0.742,-0.2942267,0.15642446,2.5050242,-0.27229318,0.3455126,-1.6917278
0.744,-0.5678696,0.14537567,2.2321904,-0.20532799,0.6126662,-1.7233486
0.746,-0.7980995,0.09913266,1.9480847,-0.15307277,0.8329948,-1.7622566
0.748,-0.98131037,0.018182695,1.6611234,-0.114518106,1.002109,-1.8068911
0.75,-1.1162014,-0.09494895,1.3801291,-0.08788055,1.1199572,-1.8559031
0.752,-1.2048585,-0.23546723,1.1116041,-0.07063854,1.1907833,-1.9080744
0.754,-1.2493393,-0.39736193,0.8646682,-0.05985564,1.2218971,-1.9625819
0.756,-1.2506915,-0.5747274,0.6415163,-0.05266285,1.222183,-2.0189075
0.758,-1.2097127,-0.7631303,0.43941477,-0.046425283,1.2010884,-2.076538
0.76,-1.1268088,-0.962177,0.25733244,-0.039079666,1.1673381,-2.1351595
0.762,-1.0080258,-1.1698995,0.0912534,-0.02945447,1.1280811,-2.1946316
0.764,-0.8583343,-1.383861,-0.06201327,-0.017263055,1.0886493,-2.2547138
0.766,-0.6822951,-1.6021762,-0.20608512,-0.002976656,1.052345,-2.315132
0.768,-0.48526847,-1.8240063,-0.3427975,0.012464762,1.020774,-2.3754442
0.77,-0.2712165,-2.048384,-0.4710452,0.02813065,0.99433255,-2.434952
0.772,-0.044394016,-2.2725725,-0.5894706,0.043070078,0.9724381,-2.4926288
0.774,0.19192654,-2.4942663,-0.69876206,0.05683756,0.9549873,-2.5468569
0.776,0.43537587,-2.712845,-0.8017417,0.06962216,0.9419886,-2.596133
0.778,0.68415433,-2.9279847,-0.9035304,0.0822435,0.93392897,-2.639103
0.78,0.9341165,-3.1367745,-1.0107,0.09616125,0.93240297,-2.6743145
0.782,1.183186,-3.3355951,-1.1290077,0.11338019,0.939725,-2.700254
0.784,1.4295838,-3.520805,-1.2639661,0.13633996,0.95871824,-2.7155836
0.786,1.6675574,-3.6869175,-1.418178,0.16786098,0.99255526,-2.7194748
0.788,1.8894343,-3.8273897,-1.5925378,0.21078098,1.0439942,-2.7116652
0.79,2.0889387,-3.9353213,-1.7859561,0.2675395,1.1148984,-2.6921678
0.792,2.2595084,-4.0033607,-1.9945979,0.33977747,1.2059015,-2.6612315
0.794,2.396229,-4.0252786,-2.2129288,0.42800075,1.3161781,-2.6194422
0.796,2.496512,-3.997251,-2.4351497,0.5314628,1.4436177,-2.5677094
0.798,2.5582461,-3.9172127,-2.6581035,0.6481987,1.5848583,-2.5074427
0.8,2.5810163,-3.7858043,-2.8771894,0.7750634,1.735281,-2.4406233
0.802,2.5662308,-3.605642,-3.0864272,0.9077835,1.8891555,-2.3698099
0.804,2.5167184,-3.381093,-3.2789824,1.0411777,2.0399084,-2.298215
0.806,2.435601,-3.1178198,-3.4479873,1.1694384,2.1800406,-2.2297487
0.808,2.326404,-2.8227942,-3.5864496,1.2864591,2.3010907,-2.1689153
0.81,2.1956143,-2.505083,-3.6864157,1.3861377,2.3940184,-2.1204412
0.812,2.0474734,-2.1734436,-3.7376084,1.4627514,2.4498348,-2.088919
0.814,1.8881114,-1.8375742,-3.7311118,1.5113859,2.460366,-2.078375
0.816,1.7237709,-1.5063493,-3.66198,1.5283827,2.4192877,-2.0917284
0.818,1.5605199,-1.1879715,-3.5265238,1.5117898,2.3230767,-2.1302502
0.82,1.4042015,-0.89065,-3.321339,1.4615932,2.171813,-2.1931272
0.822,1.2593954,-0.6224319,-3.0453522,1.3797362,1.9694831,-2.2773721
0.824,1.1295192,-0.3904912,-2.700245,1.2699873,1.7240509,-2.3779373
0.826,1.0173509,-0.20029211,-2.2898355,1.1378622,1.4470189,-2.4883611
0.828,0.92476416,-0.05559367,-1.8197255,0.9897212,1.1514938,-2.601746
0.83,0.8520535,0.041809022,-1.2976111,0.8323864,0.8518594,-2.7108161
0.832,0.7980659,0.09128773,-0.7331423,0.67261827,0.56202704,-2.8090003
0.834,0.7607814,0.093857795,-0.13681555,0.5164838,0.2936424,-2.8913987
0.836,0.73748034,0.05229251,0.47983098,0.36880624,0.05567807,-2.9549704
0.838,0.7240784,-0.029443622,1.1052449,0.23288673,-0.1459086,-2.9984164
0.84,0.71632284,-0.1466102,1.7285901,0.110388786,-0.30825275,-3.0219283
0.842,0.7095868,-0.29374713,2.339222,0.001588285,-0.4308069,-3.0269501
0.844,0.69953907,-0.46526656,2.9275467,-0.09426087,-0.51495194,-3.0161195
0.846,0.6820991,-0.6555849,3.4853075,-0.1785843,-0.56348634,-2.9927964
0.848,0.6527885,-0.8585057,4.005336,-0.25314718,-0.57999104,-2.9604928
0.85,0.6108377,-1.0688288,4.4799376,-0.31995195,-0.5686606,-2.9226205
0.852,0.5547974,-1.2816589,4.902536,-0.3810238,-0.53385866,-2.8821533
0.854,0.4800042,-1.4926708,5.276576,-0.43816736,-0.47976065,-2.8415956
0.856,0.38546455,-1.6982007,5.6032124,-0.49278188,-0.41032368,-2.8030362
0.858,0.2740767,-1.8955363,5.8766108,-0.5458361,-0.32925886,-2.7681196
0.86,0.15158606,-2.0847065,6.0928864,-0.5979146,-0.23972464,-2.737965
0.862,0.02283144,-2.2672794,6.250715,-0.64928246,-0.14417802,-2.713216
0.864,-0.108620405,-2.4460897,6.350604,-0.6999157,-0.04461129,-2.6941764
0.866,-0.23993945,-2.6228933,6.398934,-0.74962926,0.05729054,-2.6807761
0.868,-0.36881065,-2.7970786,6.4029355,-0.7982037,0.16007176,-2.6726332
0.87,-0.4926312,-2.9667993,6.3679857,-0.84549826,0.26237136,-2.6692622
0.872,-0.60572743,-3.1323428,6.300029,-0.8914864,0.36279207,-2.670252
0.874,-0.70390177,-3.2946675,6.2018795,-0.9361954,0.45992804,-2.6752996
0.876,-0.7837682,-3.4552133,6.0758753,-0.9796665,0.55238503,-2.6841512
0.878,-0.8438475,-3.6146235,5.923177,-1.0218805,0.63884926,-2.6965973
0.88,-0.88452554,-3.772438,5.7427526,-1.0627509,0.71822244,-2.7124403
0.882,-0.9055145,-3.9281158,5.5331917,-1.1021234,0.7897693,-2.731435
0.884,-0.90712976,-4.0814767,5.296103,-1.1397663,0.8531978,-2.7533772
0.886,-0.889868,-4.232018,5.037097,-1.1753232,0.9086928,-2.7781346
0.888,-0.85343766,-4.3799844,4.761856,-1.2083293,0.9569113,-2.8056216
0.89,-0.7973654,-4.526718,4.4742765,-1.2381973,0.99888813,-2.8357973
0.892,-0.722316,-4.6742887,4.1778564,-1.2642791,1.0359429,-2.868666
0.894,-0.62908006,-4.8237867,3.8754709,-1.2859106,1.0696206,-2.9042816
0.896,-0.51922107,-4.9747705,3.56862,-1.3024564,1.1015675,-2.9426968
0.898,-0.39422894,-5.1260757,3.2582004,-1.3133371,1.1333938,-2.9839842
0.9,-0.2569132,-5.2762074,2.944284,-1.3180585,1.1665016,-3.0281584
0.902,-0.109788656,-5.423667,2.6264997,-1.316277,1.2020073,-3.0750637
0.904,0.04429698,-5.5673265,2.3048625,-1.3078284,1.2406805,-3.1243446
0.906,0.20182872,-5.705551,1.9798837,-1.2928324,1.2827809,-3.1754587
0.908,0.35924196,-5.83622,1.6525718,-1.2717097,1.3280663,-3.227613
0.91,0.5129988,-5.956694,1.3240707,-1.2451558,1.3757927,-3.2797868
0.912,0.6596117,-6.064742,0.9955046,-1.2141154,1.4247288,-3.3308563
0.914,0.79570174,-6.158591,0.6676907,-1.179801,1.4731872,-3.379581
0.916,0.918834,-6.2368784,0.34141403,-1.1436666,1.5191283,-3.4246714
0.918,1.0265982,-6.2982874,0.017538846,-1.107344,1.5603096,-3.464841
0.92,1.1172979,-6.3418164,-0.30257976,-1.0725535,1.5943534,-3.498875
0.922,1.1893363,-6.3671637,-0.6172038,-1.0410488,1.6188985,-3.5256565
0.924,1.2418766,-6.3745127,-0.9244072,-1.0145493,1.6317502,-3.5443141
0.926,1.274513,-6.364619,-1.2218473,-0.99462944,1.6309752,-3.5543435
0.928,1.2875214,-6.3389306,-1.5062114,-0.9825988,1.6150206,-3.5557294
0.93,1.2814808,-6.2989616,-1.7750037,-0.9793968,1.5828588,-3.5489542
0.932,1.2578096,-6.246681,-2.0264401,-0.9855225,1.5340848,-3.5349615
0.934,1.2184801,-6.1846895,-2.2586932,-1.0009644,1.4689925,-3.5150955
0.936,1.1657534,-6.1159763,-2.4703126,-1.0252144,1.3886325,-3.491032
0.938,1.1021574,-6.043955,-2.6601267,-1.0572667,1.2947403,-3.4646165
0.94,1.0307932,-5.9720287,-2.8271422,-1.095686,1.1896639,-3.4377172
0.942,0.9554713,-5.903619,-2.9710622,-1.1387048,1.0762482,-3.4120846
0.944,0.87996256,-5.8422894,-3.0918412,-1.1843832,0.9576925,-3.3892934
0.946,0.8074523,-5.7917156,-3.1896238,-1.230714,0.83734894,-3.37067
0.948,0.7413943,-5.7553244,-3.2645326,-1.2757202,0.7185658,-3.3572319
0.95,0.6846429,-5.7358484,-3.3174286,-1.3175346,0.6045765,-3.3497062
0.952,0.6396767,-5.734967,-3.3499932,-1.354478,0.49840257,-3.348508
0.954,0.60884154,-5.7540383,-3.3641984,-1.3850827,0.40281844,-3.353876
0.956,0.5943413,-5.7937145,-3.3621435,-1.4080799,0.32031864,-3.3659215
0.958,0.5974343,-5.853896,-3.346674,-1.4224219,0.2529868,-3.38461
0.96,0.6193266,-5.934187,-3.3195734,-1.4272257,0.20253325,-3.4097872
0.962,0.66048694,-6.0335546,-3.282814,-1.4218215,0.17023975,-3.4411643
0.964,0.7208718,-6.150669,-3.238677,-1.4057878,0.15686917,-3.4782882
0.966,0.7996702,-6.283723,-3.1890335,-1.3790091,0.16262233,-3.5205188
0.968,0.8953979,-6.4298244,-3.1358302,-1.3416386,0.18708625,-3.5671496
0.97,1.005914,-6.5858192,-3.0813282,-1.294108,0.22918402,-3.6174064
0.972,1.1284344,-6.7486105,-3.027719,-1.2371724,0.28717822,-3.6705272
0.974,1.2596698,-6.9146066,-2.9771094,-1.1718724,0.35878134,-3.72578
0.976,1.3960974,-7.080169,-2.9309955,-1.0995169,0.44118506,-3.7824104
0.978,1.5332623,-7.241432,-2.8902845,-1.0216423,0.5311753,-3.8395493
0.98,1.6664667,-7.393915,-2.8561194,-0.9400337,0.62527764,-3.8961692
0.982,1.7911239,-7.5336056,-2.8295627,-0.85669667,0.7198969,-3.9510581
0.984,1.9027703,-7.6569753,-2.8108294,-0.7737961,0.81139123,-4.002874
0.986,1.9970152,-7.760626,-2.7995634,-0.6935517,0.8962115,-4.0501256
0.988,2.0701206,-7.8419175,-2.7948272,-0.61819273,0.9710188,-4.0911813
0.99,2.1189926,-7.8993235,-2.7957132,-0.5499954,1.0326183,-4.124309
0.992,2.1403725,-7.932145,-2.8012707,-0.49116448,1.0781965,-4.147727
0.994,2.1311255,-7.939607,-2.8101761,-0.44374907,1.1054149,-4.1596494
0.996,2.0888877,-7.9214563,-2.8209612,-0.4095969,1.1124564,-4.1584473
0.998,2.0125666,-7.8782063,-2.8318238,-0.39025578,1.0981054,-4.142854
1,1.9022126,-7.811261,-2.840959,-0.38688925,1.0618615,-4.1121826
1.002,1.7596458,-7.723005,-2.8462577,-0.40021563,1.0039307,-4.0664525
1.004,1.5873431,-7.616452,-2.8459191,-0.43045586,0.9252418,-4.0064554
1.006,1.388759,-7.495137,-2.8376749,-0.47728467,0.8273914,-3.9338133
1.008,1.1673225,-7.3626833,-2.81988,-0.53983283,0.71261466,-3.8509016
1.01,0.92713165,-7.2227116,-2.791782,-0.61665815,0.5836747,-3.7607412
1.012,0.67227614,-7.0791187,-2.7531478,-0.7057501,0.44382814,-3.66675
1.014,0.4077859,-6.935658,-2.704216,-0.8046198,0.29669687,-3.5724597
1.016,0.13912666,-6.7962317,-2.6458178,-0.9103962,0.14618315,-3.4812446
1.018,-0.12784863,-6.664516,-2.5791492,-1.0199423,-0.0036208108,-3.3960645
1.02,-0.3873111,-6.544046,-2.5056758,-1.1299869,-0.14856991,-3.3192945
1.022,-0.6334561,-6.4378767,-2.4272895,-1.2372941,-0.2846259,-3.2526128
1.024,-0.86105514,-6.3483143,-2.3460746,-1.3388269,-0.4079884,-3.196981
1.026,-1.0652236,-6.2771444,-2.2643328,-1.4318571,-0.5152632,-3.1526723
1.028,-1.2415578,-6.225664,-2.1846092,-1.5141029,-0.6035742,-3.1194103
1.03,-1.386305,-6.194944,-2.1097803,-1.5837659,-0.6705997,-3.0965335
1.032,-1.4965243,-6.18514,-2.0425866,-1.6395946,-0.714666,-3.0831385
1.034,-1.5699191,-6.1962185,-1.9858186,-1.680819,-0.7347446,-3.0781965
1.036,-1.60481,-6.2279043,-1.9419335,-1.7071443,-0.7304714,-3.0806067
1.038,-1.6009552,-6.279429,-1.9131588,-1.718711,-0.70204943,-3.0892184
1.04,-1.5588807,-6.349204,-1.901076,-1.7160732,-0.6502495,-3.1028707
1.042,-1.479531,-6.4346256,-1.9062012,-1.700094,-0.5763428,-3.1204205
1.044,-1.3642375,-6.533134,-1.929782,-1.6718043,-0.4819385,-3.140763
1.046,-1.2140839,-6.6431017,-1.9720237,-1.6324766,-0.36913592,-3.1628408
1.048,-1.0313783,-6.763284,-2.0317605,-1.583599,-0.24054286,-3.1856914
1.05,-0.818807,-6.8924537,-2.107987,-1.5268219,-0.099230886,-3.2084107
1.052,-0.57996833,-7.0290036,-2.1985345,-1.4639436,0.051242918,-3.2301464
1.054,-0.31891936,-7.170865,-2.3010283,-1.39693,0.20687331,-3.2501411
1.056,-0.039821565,-7.316357,-2.413387,-1.3278338,0.3633366,-3.26783
1.058,0.2523973,-7.463552,-2.5339022,-1.258747,0.5161291,-3.2828119
1.06,0.5532118,-7.611455,-2.6602173,-1.1917076,0.6607727,-3.2948189
1.062,0.85748106,-7.759535,-2.789349,-1.1285937,0.79306567,-3.3036582
1.064,1.1595821,-7.9064565,-2.9190352,-1.0710485,0.909374,-3.309216
1.066,1.4537804,-8.051013,-3.0474021,-1.0203936,1.0067945,-3.3113933
1.068,1.7343789,-8.191831,-3.1720486,-0.9775166,1.0833665,-3.3099923
1.07,1.9954094,-8.32712,-3.292096,-0.94286907,1.1381671,-3.3046336
1.072,2.2316396,-8.45496,-3.4060824,-0.9165128,1.1713076,-3.2947679
1.074,2.4380882,-8.57366,-3.5122478,-0.89816386,1.183843,-3.2797182
1.076,2.610758,-8.682036,-3.609527,-0.8872594,1.1775467,-3.2588308
1.078,2.7461839,-8.779493,-3.6975026,-0.88300365,1.1547347,-3.2314053
1.08,2.8416507,-8.865522,-3.7762504,-0.88446796,1.1180916,-3.1967177
1.082,2.895571,-8.93931,-3.8463066,-0.89071035,1.0703657,-3.154111
1.084,2.9071062,-9.000756,-3.9084713,-0.9008417,1.0142038,-3.1031432
1.086,2.8766344,-9.050696,-3.9637115,-0.914081,0.952039,-3.0437138
1.088,2.8053732,-9.089944,-4.013579,-0.92981166,0.8859781,-2.9762304
1.09,2.6958776,-9.11986,-4.059836,-0.94753516,0.81771076,-2.901676
1.092,2.5512679,-9.141746,-4.104611,-0.9668814,0.74850637,-2.8215687
1.094,2.3752363,-9.157032,-4.1505876,-0.98756176,0.67928374,-2.7379112
1.096,2.1722498,-9.167289,-4.200618,-1.0093144,0.6106551,-2.6531281
1.098,1.9471579,-9.174171,-4.2572255,-1.0318427,0.54306805,-2.5698798
1.1,1.7047358,-9.179157,-4.3231587,-1.0547199,0.4769684,-2.4908152
1.102,1.4498925,-9.183588,-4.401146,-1.0773586,0.41292003,-2.4183104
1.104,1.1880794,-9.188887,-4.493687,-1.0989999,0.35169667,-2.3542564
1.106,0.9246821,-9.19687,-4.60297,-1.1187454,0.29431266,-2.2998588
1.108,0.6648567,-9.209299,-4.730407,-1.1355711,0.2419675,-2.2555907
1.11,0.41334808,-9.227777,-4.876748,-1.1484028,0.1959679,-2.221199
1.112,0.17420447,-9.253443,-5.042501,-1.1561841,0.15760374,-2.1958222
1.114,-0.048941553,-9.287188,-5.227415,-1.157976,0.12802607,-2.1781933
1.116,-0.25305563,-9.3296385,-5.431323,-1.1530232,0.108068824,-2.166819
1.118,-0.43540508,-9.381641,-5.653161,-1.1408193,0.09817477,-2.16014
1.12,-0.5940663,-9.444033,-5.891332,-1.1211256,0.0983609,-2.1567345
1.122,-0.7276205,-9.51717,-6.143739,-1.0940292,0.108189546,-2.1554601
1.124,-0.83564895,-9.601349,-6.407694,-1.0598695,0.126802,-2.1554873
1.126,-0.91820085,-9.69658,-6.680043,-1.0192106,0.15300375,-2.156206
1.128,-0.97603303,-9.802799,-6.957782,-0.97280055,0.18534598,-2.1571672
1.13,-1.0106119,-9.919763,-7.2380176,-0.9215466,0.22225858,-2.1580067
1.132,-1.0235655,-10.047143,-7.517399,-0.8665043,0.2619931,-2.1585498
1.134,-1.0171386,-10.18469,-7.792329,-0.80876774,0.30268794,-2.1587474
1.136,-0.99380195,-10.331778,-8.059373,-0.7493608,0.34253168,-2.1585495
1.138,-0.9559299,-10.48755,-8.314837,-0.68922794,0.37972263,-2.157864
1.14,-0.905866,-10.651533,-8.555228,-0.62915635,0.4125744,-2.1564877
1.142,-0.84616125,-10.82343,-8.777528,-0.5697476,0.43961537,-2.154098
1.144,-0.7797909,-11.002641,-8.97882,-0.5114304,0.45965025,-2.1503444
1.146,-0.71004415,-11.188308,-9.156259,-0.4544616,0.47176933,-2.1449127
1.148,-0.63976383,-11.379467,-9.308402,-0.3989151,0.4753679,-2.137529
1.15,-0.5718744,-11.5752945,-9.434934,-0.344682,0.47017407,-2.1278548
1.152,-0.5104679,-11.774044,-9.534028,-0.2915235,0.456183,-2.1155627
1.154,-0.45597553,-11.974927,-9.603212,-0.23913777,0.43364516,-2.100393
1.156,-0.41681612,-12.176763,-9.642406,-0.18717411,0.40304393,-2.082178
1.158,-0.39543772,-12.377566,-9.656096,-0.13527316,0.36505306,-2.0608385
1.16,-0.39193726,-12.572047,-9.64421,-0.08308394,0.32049957,-2.0364168
1.162,-0.4081998,-12.756371,-9.610242,-0.030284807,0.27036366,-2.0090103
1.164,-0.4473033,-12.929168,-9.557968,0.023382142,0.2157123,-1.9788147
1.166,-0.5105474,-13.0890255,-9.48913,0.07810338,0.15769498,-1.946104
1.168,-0.5975485,-13.234691,-9.407091,0.1339827,0.097465955,-1.9112246
1.17,-0.70894885,-13.363718,-9.315428,0.19106196,0.036141753,-1.8746336
1.172,-0.8446629,-13.473858,-9.21872,0.24933487,-0.025296785,-1.8368554
1.174,-1.0032799,-13.563799,-9.121477,0.30871502,-0.08604068,-1.7984796
1.176,-1.1828341,-13.632732,-9.027988,0.3690663,-0.14558053,-1.7601334
1.178,-1.3809819,-13.6804,-8.942148,0.43018103,-0.20368887,-1.7224373
1.18,-1.5945213,-13.706753,-8.867408,0.49178004,-0.26056755,-1.6860527
1.182,-1.8198509,-13.712407,-8.807557,0.5534588,-0.31693983,-1.6516796
1.184,-2.0529194,-13.698299,-8.765677,0.61475897,-0.3738637,-1.6199731
1.186,-2.2895339,-13.665711,-8.744067,0.6754529,-0.43267387,-1.5918051
1.188,-2.5250287,-13.616153,-8.743604,0.7352596,-0.4949661,-1.5676252
1.19,-2.7549179,-13.551244,-8.764135,0.7937974,-0.56248295,-1.5475789
1.192,-2.9746816,-13.473175,-8.804853,0.8507157,-0.6368598,-1.5318732
1.194,-3.1797147,-13.384436,-8.864428,0.9056396,-0.7198441,-1.5207825
1.196,-3.3660228,-13.287245,-8.94067,0.958289,-0.81278783,-1.5143425
1.198,-3.5292692,-13.184298,-9.030197,1.0084679,-0.9164181,-1.5121323
1.2,-3.6661725,-13.077983,-9.129256,1.0560464,-1.0310717,-1.5134739
1.202,-3.7734787,-12.970606,-9.23348,1.1009126,-1.156611,-1.5174956
1.204,-3.8488364,-12.864162,-9.337761,1.1429644,-1.292416,-1.5232589
1.206,-3.8904665,-12.760235,-9.43689,1.1821076,-1.4375387,-1.52986
1.208,-3.8975897,-12.660189,-9.525476,1.218281,-1.5907627,-1.5364482
1.21,-3.8697226,-12.564751,-9.597112,1.25142,-1.7506838,-1.5422906
1.212,-3.8073695,-12.474406,-9.646197,1.28147,-1.9157785,-1.5468724
1.214,-3.712064,-12.389376,-9.667577,1.3083895,-2.0844612,-1.5498967
1.216,-3.5853815,-12.309269,-9.655605,1.3321548,-2.2550855,-1.5511978
1.218,-3.42942,-12.233579,-9.60527,1.3527763,-2.4259958,-1.5507139
1.22,-3.2468798,-12.161445,-9.512049,1.3702853,-2.5955505,-1.5484422
1.222,-3.0410714,-12.091771,-9.371647,1.3847218,-2.7621403,-1.5443392
1.224,-2.815223,-12.023406,-9.18058,1.396105,-2.9242415,-1.5382633
1.226,-2.572849,-11.955011,-8.935948,1.404444,-3.0804398,-1.5300267
1.228,-2.3181932,-11.884649,-8.635755,1.4097743,-3.2294657,-1.5193775
1.23,-2.0547674,-11.810435,-8.278682,1.4121301,-3.3702126,-1.5060698
1.232,-1.7853274,-11.7306385,-7.865327,1.4115231,-3.5018451,-1.4899174
1.234,-1.5136151,-11.643013,-7.3975973,1.4079508,-3.623671,-1.4707576
1.236,-1.2443564,-11.544872,-6.874903,1.401439,-3.7352004,-1.448533
1.238,-0.9799571,-11.4347315,-6.2971373,1.3919477,-3.836317,-1.4233644
1.24,-0.72268677,-11.311581,-5.6664176,1.3792472,-3.9270945,-1.3953221
1.242,-0.47477603,-11.173699,-4.985568,1.3632286,-4.0077214,-1.3649337
1.244,-0.23777032,-11.0189705,-4.259121,1.3438145,-4.078513,-1.3327544
1.246,-0.012602806,-10.845746,-3.4921064,1.3208222,-4.1399207,-1.2990186
1.248,0.19959164,-10.652433,-2.6891923,1.2939904,-4.1922393,-1.2637899
1.25,0.39761877,-10.436934,-1.855088,1.2628813,-4.2360163,-1.2272354
1.252,0.5813842,-10.197389,-0.9948868,1.2269545,-4.27195,-1.189612
1.254,0.7510338,-9.93218,-0.114506856,1.185639,-4.30054,-1.1510342
1.256,0.90699744,-9.639584,0.7796973,1.1383275,-4.322248,-1.1114776
1.258,1.0498447,-9.31793,1.682451,1.0843974,-4.337535,-1.0708247
1.26,1.1795149,-8.965661,2.5891316,1.0232639,-4.3467,-1.0288546
1.262,1.2968303,-8.581992,3.4932816,0.9543474,-4.3499627,-0.98539734
1.264,1.3996277,-8.164251,4.389378,0.8771134,-4.347555,-0.9404143
1.266,1.4923052,-7.7098436,5.2737412,0.79109496,-4.339644,-0.8940521
1.268,1.5740812,-7.2173114,6.1454825,0.6959713,-4.326098,-0.84660304
1.27,1.642834,-6.688821,6.9996023,0.5914807,-4.306775,-0.7985158
1.272,1.6993027,-6.1243134,7.8344536,0.47741354,-4.2814264,-0.7503387
1.274,1.7454622,-5.5217056,8.648499,0.35361445,-4.24965,-0.70272654
1.276,1.7816985,-4.8793716,9.438559,0.21994174,-4.2109795,-0.6564896
1.278,1.807652,-4.1964693,10.203491,0.07621777,-4.1649256,-0.6125377
1.28,1.824723,-3.4735088,10.941803,-0.077751756,-4.1109138,-0.5717913
1.282,1.8345643,-2.7115154,11.652909,-0.24218452,-4.0482492,-0.5351398
1.284,1.838194,-1.911705,12.336767,-0.41728425,-3.9761248,-0.5033726
1.286,1.8368789,-1.0754874,12.993185,-0.60316825,-3.8936687,-0.47712147
1.288,1.8327132,-0.20461398,13.621654,-0.7998401,-3.799959,-0.45677704
1.29,1.8278697,0.6986917,14.221744,-1.0071664,-3.694027,-0.44239295
1.292,1.8242842,1.6321449,14.793374,-1.2248223,-3.5749578,-0.43369883
1.294,1.8244658,2.5928252,15.336373,-1.4522744,-3.442026,-0.43015006
1.296,1.8309209,3.5776036,15.851171,-1.6887803,-3.2947788,-0.43097803
1.298,1.8459166,4.583341,16.33752,-1.933405,-3.133058,-0.43523788
1.3,1.8721255,5.6067767,16.794825,-2.1850734,-2.9571235,-0.44186246
1.302,1.9118152,6.644555,17.222696,-2.4425802,-2.7676384,-0.4497688
1.304,1.9671516,7.6936083,17.621218,-2.7046616,-2.5656548,-0.45792434
1.306,2.0401616,8.750559,17.990047,-2.9700687,-2.35256,-0.4654364
1.308,2.1319664,9.812567,18.328426,-3.2376177,-2.1300104,-0.47161627
1.31,2.2437158,10.876516,18.635817,-3.5062447,-1.8998399,-0.4759971
1.312,2.3756404,11.939756,18.91142,-3.7750254,-1.6639926,-0.4783363
1.314,2.5280604,12.999487,19.154427,-4.043205,-1.4244769,-0.47860637
1.316,2.7007532,14.053181,19.364166,-4.3101497,-1.183255,-0.47694916
1.318,2.8930063,15.098579,19.540133,-4.5753827,-0.9421324,-0.47362578
1.32,3.1035051,16.133608,19.681341,-4.8385878,-0.702845,-0.4690253
1.322,3.3307004,17.15655,19.787556,-5.0995917,-0.4672022,-0.46376935
1.324,3.5726838,18.165829,19.858513,-5.3582435,-0.23678303,-0.45865703
1.326,3.8265643,19.160162,19.893185,-5.614405,-0.013020158,-0.45457646
1.328,4.0893035,20.138216,19.890266,-5.867931,0.20276725,-0.45244944
1.33,4.35815,21.098856,19.848707,-6.1186247,0.40948153,-0.4531878
1.332,4.6302347,22.040424,19.767675,-6.366205,0.60623527,-0.45770955
1.334,4.902302,22.961813,19.647247,-6.6102924,0.7923503,-0.4669022
1.336,5.1710825,23.861712,19.487598,-6.850398,0.967453,-0.4815505
1.338,5.4334946,24.738787,19.288094,-7.085962,1.1314783,-0.50229406
1.34,5.6858006,25.591877,19.048124,-7.3163924,1.28472,-0.5296105
1.342,5.923931,26.419676,18.76807,-7.541089,1.4277625,-0.56380296
1.344,6.1453714,27.2201,18.448769,-7.759473,1.5614219,-0.6050209
1.346,6.3484583,27.991009,18.089375,-7.971076,1.68665,-0.6532458
1.348,6.5295563,28.731358,17.690037,-8.1755705,1.8044252,-0.7083156
1.35,6.6857862,29.440365,17.252724,-8.372785,1.9157541,-0.7699574
1.352,6.8148737,30.11626,16.779224,-8.562665,2.0215366,-0.83785594
1.354,6.9144106,30.757196,16.27245,-8.7452965,2.122549,-0.91168714
1.356,6.9823256,31.361769,15.735559,-8.920904,2.2193534,-0.99109244
1.358,7.017454,31.928833,15.1711035,-9.089809,2.3123417,-1.0756737
1.36,7.0191965,32.45718,14.5818615,-9.252401,2.4017885,-1.1649622
1.362,6.987035,32.945984,13.970713,-9.409073,2.4878738,-1.2584188
1.364,6.9213457,33.39452,13.341719,-9.560199,2.570796,-1.3554604
1.366,6.822708,33.802742,12.698966,-9.706096,2.6508338,-1.455466
1.368,6.692315,34.169685,12.046255,-9.847015,2.7283068,-1.5577979
1.37,6.5321627,34.49543,11.387015,-9.983189,2.803513,-1.661792
1.372,6.3445625,34.78027,10.724586,-10.114766,2.8767607,-1.7668018
1.374,6.1320553,35.02453,10.062539,-10.2418375,2.9483292,-1.8722284
1.376,5.898016,35.229046,9.4044895,-10.364415,3.018375,-1.9775913
1.378,5.6457214,35.394753,8.753875,-10.482444,3.086874,-2.0825613
1.38,5.3783875,35.523098,8.113171,-10.59585,3.1535437,-2.1869645
1.382,5.100006,35.615677,7.484623,-10.7045555,3.217796,-2.2907546
1.384,4.814336,35.67418,6.8698554,-10.80849,3.2788076,-2.393979
1.386,4.5243435,35.70079,6.2705665,-10.907586,3.335605,-2.4966989
1.388,4.2336674,35.697598,5.6880703,-11.001814,3.387103,-2.598962
1.39,3.9463282,35.666855,5.1226063,-11.091171,3.4321916,-2.7007127
1.392,3.6644611,35.611744,4.5763645,-11.175651,3.4698977,-2.80176
1.394,3.3916893,35.53425,4.0500307,-11.255243,3.49947,-2.9017696
1.396,3.130929,35.43667,3.5426064,-11.329893,3.5204153,-3.0003746
1.398,2.884262,35.32167,3.053463,-11.3995,3.5325694,-3.097141
1.4,2.6532764,35.191963,2.5807905,-11.463865,3.5360894,-3.1916041
1.402,2.4392872,35.05004,2.1228237,-11.522682,3.5314388,-3.2833874
1.404,2.2426548,34.898685,1.6778755,-11.57556,3.5193038,-3.3722692
1.406,2.063242,34.74035,1.243576,-11.622002,3.5006487,-3.4582353
1.408,1.90065,34.57729,0.81792355,-11.66147,3.4766645,-3.5414658
1.41,1.7543144,34.411343,0.39906693,-11.693394,3.4487228,-3.6223044
1.412,1.6235743,34.244587,-0.015388489,-11.717249,3.418361,-3.701227
1.414,1.5067749,34.07914,-0.42803478,-11.732611,3.387216,-3.7787807
1.416,1.4019957,33.91676,-0.8416462,-11.739167,3.357021,-3.8555334
1.418,1.3069654,33.758667,-1.2589827,-11.736741,3.3295698,-3.931974
1.42,1.2191215,33.605812,-1.6826782,-11.725352,3.3067198,-4.008524
1.422,1.1360455,33.458473,-2.1150799,-11.705082,3.2904518,-4.085552
1.424,1.0546918,33.31713,-2.5585585,-11.676033,3.2829194,-4.1632624
1.426,0.97179985,33.18191,-3.0153475,-11.638357,3.2861834,-4.2417345
1.428,0.88457584,33.0524,-3.4879274,-11.592228,3.302241,-4.3209524
1.43,0.7898202,32.928215,-3.9784842,-11.537744,3.3330598,-4.4008217
1.432,0.6849394,32.808556,-4.4885254,-11.475,3.3804007,-4.481228
1.434,0.5676682,32.69212,-5.018674,-11.403967,3.445785,-4.5620923
1.436,0.4362445,32.57724,-5.568803,-11.324529,3.5304928,-4.6433635
1.438,0.2892592,32.46252,-6.1382174,-11.236438,3.6354342,-4.725091
1.44,0.12555575,32.34629,-6.7254915,-11.139349,3.7610884,-4.8073606
1.442,-0.054857634,32.227287,-7.329365,-11.032826,3.9074507,-4.890327
1.444,-0.2517197,32.10372,-7.9481263,-10.916412,4.073998,-4.9742093
1.446,-0.46379757,31.973906,-8.579612,-10.789644,4.2596927,-5.0592585
1.448,-0.6893947,31.835808,-9.220544,-10.652116,4.462931,-5.1457167
1.45,-0.92635894,31.687702,-9.867529,-10.503586,4.681622,-5.233739
1.452,-1.1719735,31.527924,-10.517588,-10.343972,4.9132557,-5.3234158
1.454,-1.4229083,31.355017,-11.168267,-10.173407,5.155044,-5.414717
1.456,-1.6755586,31.167244,-11.817595,-9.99222,5.403962,-5.5074797
1.458,-1.9251575,30.962704,-12.462521,-9.800951,5.656912,-5.6013365
1.46,-2.1669502,30.739481,-13.0991125,-9.600253,5.9108057,-5.695773
1.462,-2.3961616,30.495825,-13.723864,-9.3907795,6.1627007,-5.7902327
1.464,-2.6082902,30.229761,-14.333722,-9.173156,6.409832,-5.884159
1.466,-2.7990766,29.939459,-14.926081,-8.947924,6.6496925,-5.9769487
1.468,-2.9642143,29.622923,-15.499226,-8.715564,6.87995,-6.067968
1.47,-3.099884,29.278828,-16.052135,-8.476507,7.0984464,-6.156596
1.472,-3.2031126,28.90534,-16.582785,-8.231177,7.303139,-6.242223
1.474,-3.2716827,28.501036,-17.090132,-7.9799795,7.4920907,-6.324181
1.476,-3.3035803,28.064508,-17.573587,-7.7234235,7.6634803,-6.4017344
1.478,-3.2979603,27.595524,-18.032522,-7.4621253,7.8155317,-6.474148
1.48,-3.2545576,27.093317,-18.466124,-7.1968083,7.9466887,-6.5406504
1.482,-3.1741228,26.557642,-18.873734,-6.928307,8.055545,-6.60044
1.484,-3.0581846,25.988676,-19.255138,-6.6575274,8.14076,-6.6528096
1.486,-2.9090157,25.387392,-19.611032,-6.385321,8.201237,-6.69724
1.488,-2.7295141,24.755424,-19.942072,-6.112481,8.236044,-6.7334256
1.49,-2.5225563,24.094833,-20.248634,-5.839705,8.244475,-6.761291
1.492,-2.291812,23.40815,-20.530848,-5.567595,8.226023,-6.7810063
1.494,-2.0408478,22.69852,-20.789394,-5.2966824,8.180363,-6.793062
1.496,-1.7731133,21.969189,-21.024967,-5.027449,8.107339,-6.7981315
1.498,-1.4929667,21.224485,-21.238607,-4.7603703,8.0069895,-6.796985
1.5,-1.2051287,20.468914,-21.43074,-4.4959726,7.8794417,-6.7904224
1.502,-0.91240406,19.706976,-21.604525,-4.2349153,7.7250056,-6.7792854
1.504,-0.6193018,18.944244,-21.761646,-3.9779239,7.5442557,-6.764232
1.506,-0.3293171,18.18608,-21.90262,-3.725757,7.3380175,-6.7458043
1.508,-0.04534912,17.437273,-22.02864,-3.4791725,7.107473,-6.7244225
1.51,0.23025799,16.702541,-22.140371,-3.2388544,6.8542166,-6.7003407
1.512,0.49543,15.986498,-22.239147,-3.0053358,6.5802464,-6.673772
1.514,0.7487011,15.293215,-22.326853,-2.7790308,6.2879486,-6.6448307
1.516,0.98900414,14.626538,-22.405037,-2.560182,5.9799914,-6.6135483
1.518,1.215559,13.989489,-22.47496,-2.3488655,5.659267,-6.5799494
1.52,1.4275885,13.385065,-22.537895,-2.1450212,5.328744,-6.544114
1.522,1.6249418,12.815382,-22.595036,-1.9484785,4.99146,-6.506136
1.524,1.808197,12.281513,-22.64752,-1.7590134,4.650405,-6.466102
1.526,1.978159,11.784439,-22.696241,-1.5763562,4.308421,-6.4241195
1.528,2.1361637,11.324666,-22.741333,-1.4001992,3.9681685,-6.3802767
1.53,2.2836204,10.902224,-22.783157,-1.2302289,3.6320696,-6.334609
1.532,2.4220276,10.516451,-22.822062,-1.0661016,3.3023057,-6.287109
1.534,2.553279,10.165847,-22.85813,-0.9074284,2.98077,-6.237728
1.536,2.6794028,9.84849,-22.890991,-0.7538136,2.6690445,-6.1863303
1.538,2.8024492,9.562372,-22.920757,-0.6048826,2.3683372,-6.1327014
1.54,2.9241161,9.304806,-22.94681,-0.46031058,2.079455,-6.0765452
1.542,3.0461044,9.07311,-22.968658,-0.31983364,1.8027828,-6.0175595
1.544,3.1700158,8.864727,-22.9868,-0.1832689,1.5382334,-5.9554677
1.546,3.29737,8.6772175,-23.001204,-0.0504812,1.2853464,-5.890034
1.548,3.429645,8.507717,-23.011518,0.078611016,1.043336,-5.8210845
1.55,3.5678039,8.353438,-23.017561,0.20404625,0.8111515,-5.748525
1.552,3.7123566,8.211601,-23.018753,0.32580984,0.5875368,-5.672403
1.554,3.863823,8.080126,-23.014742,0.4438541,0.371154,-5.5929184
1.556,4.022202,7.957305,-23.005053,0.5581777,0.16060126,-5.5103846
1.558,4.1877975,7.842012,-22.989733,0.6687308,-0.045586884,-5.425299
1.56,4.360765,7.733144,-22.968956,0.7754349,-0.2488271,-5.338271
1.562,4.5405946,7.6298027,-22.942549,0.8782014,-0.4504941,-5.249952
1.564,4.726409,7.5316057,-22.910154,0.9769245,-0.65186006,-5.1610208
1.566,4.916852,7.4387355,-22.871649,1.0714817,-0.8540877,-5.072135
1.568,5.1102505,7.3516903,-22.827665,1.161767,-1.0581537,-4.9839525
1.57,5.3050327,7.271105,-22.779291,1.2476575,-1.2649038,-4.8970904
1.572,5.499502,7.1977468,-22.727247,1.3290882,-1.4749705,-4.8120723
1.574,5.692479,7.132934,-22.67223,1.4060369,-1.6887836,-4.729325
1.576,5.882642,7.0778856,-22.614885,1.4785129,-1.906606,-4.649213
1.578,6.068661,7.033951,-22.555094,1.5465646,-2.1285267,-4.5720353
1.58,6.2492394,7.0020075,-22.492672,1.6102699,-2.3544579,-4.49805
1.582,6.4236517,6.9834733,-22.42825,1.6697211,-2.5841818,-4.4275074
1.584,6.5907784,6.9795456,-22.361786,1.725038,-2.8173542,-4.3606443
1.586,6.7495,6.9911084,-22.292673,1.7763144,-3.053526,-4.297684
1.588,6.899214,7.019124,-22.220613,1.8236604,-3.2921672,-4.23882
1.59,7.0393004,7.064225,-22.145311,1.8671734,-3.5326958,-4.1842747
1.592,7.169602,7.1270275,-22.066294,1.906985,-3.774451,-4.1342793
1.594,7.2900457,7.207688,-21.983257,1.9432437,-4.0166717,-4.089044
1.596,7.400631,7.3060455,-21.89512,1.9761186,-4.2584753,-4.048719
1.598,7.501528,7.421857,-21.800842,2.0058322,-4.498815,-4.0133796
1.6,7.5928674,7.5546856,-21.69925,2.0326176,-4.736501,-3.9829965
1.602,7.67518,7.7038355,-21.589485,2.0567422,-4.970211,-3.9574335
1.604,7.7490573,7.868418,-21.470663,2.0784678,-5.198524,-3.9364681
1.606,7.8150535,8.047179,-21.341885,2.0980735,-5.419956,-3.9197743
1.608,7.873723,8.238977,-21.202265,2.1158023,-5.633047,-3.9069567
1.61,7.925728,8.442595,-21.051523,2.1318486,-5.8364077,-3.8975873
1.612,7.9714603,8.656586,-20.88915,2.146376,-6.0287523,-3.8912597
1.614,8.011379,8.879617,-20.715153,2.1595163,-6.2089634,-3.8875992
1.616,8.045819,9.109859,-20.529526,2.17136,-6.376102,-3.886302
1.618,8.075125,9.34574,-20.332584,2.1819613,-6.529445,-3.887144
1.62,8.099234,9.585608,-20.12499,2.1913378,-6.668476,-3.8899882
1.622,8.118071,9.827883,-19.907701,2.1994553,-6.792921,-3.8948002
1.624,8.131578,10.070862,-19.681797,2.2062836,-6.902674,-3.90164
1.626,8.139492,10.312691,-19.448559,2.2117658,-6.9978485,-3.9106634
1.628,8.141661,10.551733,-19.209736,2.2158408,-7.078703,-3.9220743
1.63,8.137619,10.786224,-18.966585,2.2184596,-7.145599,-3.9360695
1.632,8.126877,11.014679,-18.720388,2.2196069,-7.1989603,-3.952878
1.634,8.109146,11.235809,-18.472479,2.2193007,-7.239195,-3.9727015
1.636,8.083964,11.448208,-18.22424,2.2176054,-7.266695,-3.9957387
1.638,8.051133,11.650408,-17.977348,2.2146325,-7.281815,-4.0221562
1.64,8.010336,11.841049,-17.733047,2.2105002,-7.284868,-4.0520844
1.642,7.9614906,12.0190735,-17.492298,2.2052972,-7.276128,-4.085629
1.644,7.9046288,12.183664,-17.255932,2.1990914,-7.2558594,-4.122851
1.646,7.839757,12.333938,-17.0248,2.1918888,-7.224328,-4.163806
1.648,7.7668104,12.469204,-16.798943,2.1836493,-7.181842,-4.2085547
1.65,7.686088,12.588984,-16.578735,2.174294,-7.1286902,-4.257185
1.652,7.597598,12.693445,-16.364185,2.1637325,-7.065172,-4.3098083
1.654,7.5015707,12.782867,-16.154396,2.151894,-6.9915237,-4.3665824
1.656,7.3988037,12.857418,-15.948486,2.1387455,-6.907889,-4.427702
1.658,7.2899303,12.917448,-15.745647,2.1243157,-6.814307,-4.49338
1.66,7.175988,12.963602,-15.54493,2.1086602,-6.7107086,-4.563823
1.662,7.058091,12.996981,-15.345631,2.0918787,-6.5969334,-4.6392126
1.664,6.9374695,13.018949,-15.146955,2.0740855,-6.472724,-4.719731
1.666,6.815728,13.0309925,-14.948118,2.0553865,-6.3378096,-4.8055573
1.668,6.694234,13.034685,-14.747726,2.035874,-6.191851,-4.8968205
1.67,6.574466,13.031805,-14.5444565,2.0156386,-6.034503,-4.9936028
1.672,6.458086,13.024585,-14.33724,1.994748,-5.8653955,-5.095935
1.674,6.3468227,13.015339,-14.125294,1.9732774,-5.684102,-5.2037797
1.676,6.2427373,13.006461,-13.907997,1.9513297,-5.49014,-5.317042
1.678,6.1477046,13.000633,-13.68496,1.9289958,-5.2829795,-5.435555
1.68,6.0639277,13.000502,-13.455891,1.906387,-5.062098,-5.559115
1.682,5.993477,13.008845,-13.220569,1.8836337,-4.82698,-5.687498
1.684,5.938635,13.028199,-12.978711,1.8608705,-4.5771303,-5.8204846
1.686,5.901509,13.061437,-12.7303295,1.8382232,-4.3121233,-5.957869
1.688,5.884328,13.111288,-12.475458,1.8158033,-4.0316606,-6.0994334
1.69,5.889535,13.180789,-12.214296,1.7937044,-3.7355638,-6.2449856
1.692,5.9196343,13.272411,-11.947369,1.7720071,-3.4237647,-6.394336
1.694,5.9778676,13.388338,-11.6757965,1.7508216,-3.0962877,-6.5473356
1.696,6.066677,13.530634,-11.400974,1.730266,-2.7532413,-6.703845
1.698,6.1888766,13.701411,-11.123884,1.710463,-2.3948088,-6.8637657
1.7,6.347529,13.902353,-10.8461895,1.6915567,-2.0211768,-7.027034
1.702,6.545392,14.134892,-10.569298,1.6737334,-1.6325591,-7.193652
1.704,6.7854548,14.400469,-10.294251,1.6572013,-1.2291639,-7.3636456
1.706,7.070277,14.700073,-10.02298,1.6421921,-0.81118894,-7.5370665
1.708,7.402439,15.034271,-9.756843,1.6289408,-0.37884426,-7.71395
1.71,7.7843122,15.403042,-9.497752,1.6177073,0.067629814,-7.8943176
1.712,8.217712,15.806451,-9.247896,1.6087674,0.5279186,-8.078169
1.714,8.704084,16.244362,-9.00914,1.6023957,1.0016105,-8.265455
1.716,9.244623,16.716524,-8.783571,1.5988872,1.4882345,-8.456026
1.718,9.840144,17.222134,-8.573212,1.5985458,1.9872055,-8.649647
1.72,10.490948,17.760235,-8.379738,1.6017126,2.4978254,-8.845952
1.722,11.1968565,18.32938,-8.204929,1.6087068,3.01928,-9.0445
1.724,11.956821,18.928356,-8.05046,1.6198632,3.5506723,-9.244802
1.726,12.769392,19.556095,-7.918564,1.63553,4.0909534,-9.44626
1.728,13.632299,20.211454,-7.810995,1.6560483,4.639018,-9.64822
1.73,14.543024,20.892853,-7.729087,1.6817491,5.1937084,-9.849918
1.732,15.498355,21.59842,-7.67387,1.7129309,5.753763,-10.050561
1.734,16.494286,22.326527,-7.6462803,1.7498593,6.317916,-10.249218
1.736,17.526857,23.075285,-7.6469316,1.7927372,6.884821,-10.444857
1.738,18.59142,23.842663,-7.6763115,1.8417029,7.453118,-10.636294
1.74,19.683376,24.626404,-7.7348447,1.8968306,8.02151,-10.8222065
1.742,20.79784,25.423962,-7.822317,1.9581189,8.588743,-11.0011635
1.744,21.92948,26.232628,-7.937947,2.0254831,9.153601,-11.171613
1.746,23.07361,27.049599,-8.080582,2.0987864,9.714926,-11.331933
1.748,24.225187,27.87206,-8.248985,2.1778345,10.271633,-11.480426
1.75,25.379549,28.696991,-8.441299,2.2623549,10.822723,-11.615391
1.752,26.531946,29.521236,-8.65577,2.352026,11.367246,-11.735134
1.754,27.67841,30.341501,-8.890341,2.4464889,11.904327,-11.838009
1.756,28.81547,31.154308,-9.142046,2.5453362,12.433213,-11.92249
1.758,29.940153,31.956402,-9.408233,2.6481228,12.953254,-11.987244
1.76,31.050413,32.74445,-9.6852,2.7543836,13.463914,-12.031137
1.762,32.144432,33.515045,-9.969383,2.8636103,13.964775,-12.053227
1.764,33.221153,34.264877,-10.257091,2.975243,14.455561,-12.052792
1.766,34.279655,34.99103,-10.544404,3.0886683,14.936132,-12.02937
1.768,35.32013,35.69085,-10.827167,3.203201,15.406434,-11.982695
1.77,36.34356,36.361847,-11.101503,3.3180532,15.866472,-11.912776
1.772,37.35154,37.001858,-11.363341,3.4323518,16.316307,-11.819915
1.774,38.34664,37.608406,-11.608571,3.5451188,16.756004,-11.704647
1.776,39.331844,38.179596,-11.833524,3.655331,17.185617,-11.567748
1.778,40.31097,38.71393,-12.035412,3.761891,17.605175,-11.410245
1.78,41.28833,39.21031,-12.211441,3.8636575,18.01465,-11.233407
1.782,42.2691,39.667725,-12.359081,3.959498,18.413883,-11.038664
1.784,43.258877,40.08559,-12.47664,4.0483055,18.802605,-10.827604
1.786,44.26392,40.463043,-12.562563,4.129002,19.1805,-10.6019
1.788,45.290623,40.798855,-12.614841,4.200536,19.547106,-10.363218
1.79,46.345043,41.09247,-12.632963,4.261901,19.901917,-10.113203
1.792,47.433758,41.343243,-12.617557,4.3121424,20.24434,-9.853446
1.794,48.56399,41.550194,-12.569376,4.350344,20.573673,-9.585447
1.796,49.74337,41.71204,-12.489063,4.3755794,20.889143,-9.310528
1.798,50.978584,41.827797,-12.378265,4.38695,21.189966,-9.029846
1.8,52.276543,41.895763,-12.239405,4.3835297,21.475357,-8.744362
1.802,53.643898,41.913803,-12.074234,4.3643484,21.744446,-8.454792
1.804,55.086533,41.88013,-11.883751,4.3284526,21.996487,-8.1616745
1.806,56.611435,41.792225,-11.669785,4.2748957,22.23083,-7.865268
1.808,58.225353,41.647152,-11.435642,4.202328,22.445503,-7.563048
1.81,59.933617,41.442604,-11.183083,4.110504,22.642105,-7.2583237
1.812,61.74278,41.175846,-10.913799,3.998405,22.819586,-6.949037
1.814,63.658478,40.844036,-10.6306,3.8654003,22.978008,-6.6344748
1.816,65.68558,40.445602,-10.336191,3.7109742,23.117807,-6.31391
1.818,67.82879,39.97958,-10.033615,3.5346527,23.239761,-5.9866133
1.82,70.091576,39.447113,-9.725189,3.3360634,23.345055,-5.6519856
1.822,72.47776,38.850475,-9.4130745,3.114873,23.435312,-5.30968
1.824,74.990326,38.192924,-9.1002655,2.8706155,23.51249,-4.9594865
1.826,77.632904,37.479362,-8.789917,2.602644,23.578878,-4.601329
1.828,80.40857,36.71597,-8.484791,2.3101487,23.637115,-4.2353253
1.83,83.3206,35.91065,-8.1856,1.9921565,23.6899,-3.8617883
1.832,86.37176,35.074066,-7.8919525,1.6474113,23.739681,-3.4809356
1.834,89.56467,34.2204,-7.60553,1.2743855,23.788633,-3.0926738
1.836,92.895195,33.375687,-7.334057,0.8714485,23.83874,-2.6965525
1.838,96.35275,32.573,-7.074665,0.4368782,23.891638,-2.2918148
1.84,99.92931,31.834066,-6.8127975,-0.03108406,23.948265,-1.8774519
1.842,103.61933,31.183147,-6.542919,-0.53407526,24.009064,-1.4520867
1.844,107.41745,30.656881,-6.267643,-1.0733638,24.0743,-1.0139158
1.846,111.3103,30.310474,-5.9947586,-1.6499434,24.144054,-0.56087065
1.848,115.286896,30.200974,-5.7276306,-2.264329,24.2183,-0.09070635
1.85,119.31976,30.369617,-5.471409,-2.9163613,24.29695,0.39881766
1.852,123.394684,30.853409,-5.2469254,-3.6053314,24.379791,0.9097929
1.854,127.50919,31.703138,-5.0556145,-4.330022,24.466352,1.4442892
1.856,131.65009,32.991486,-4.912216,-5.088816,24.555723,2.0044441
1.858,135.80757,34.749367,-4.813162,-5.879896,24.646034,2.5923357
1.86,139.99458,37.00708,-4.742403,-6.701646,24.733973,3.210078
1.862,144.2835,39.75574,-4.7543106,-7.5528064,24.815245,3.858378
1.864,148.54585,43.056007,-4.9092503,-8.433515,24.880783,4.5430794
1.866,152.76456,46.921444,-5.2031126,-9.343448,24.922108,5.2630486
1.868,156.94325,51.409065,-5.6368885,-10.284541,24.924526,6.0181665
1.87,161.09044,56.565453,-6.214197,-11.260532,24.87082,6.8084707
1.872,165.1997,62.357346,-6.830452,-12.274832,24.743664,7.634961
1.874,169.27359,68.74893,-7.468609,-13.330445,24.523785,8.498287
1.876,173.32323,75.69641,-8.129276,-14.430787,24.188652,9.397871
1.878,177.36891,83.15093,-8.685219,-15.580421,23.71381,10.333149
1.88,181.4344,91.03941,-9.225628,-16.783499,23.076809,11.304161
1.882,185.55634,99.29676,-9.760441,-18.043392,22.256716,12.312632
1.884,189.77005,107.825066,-10.262054,-19.363174,21.233513,13.366053
1.886,194.11392,116.51309,-10.697639,-20.744858,19.989536,14.474274
1.888,198.62906,125.24199,-11.033936,-22.191994,18.506996,15.647871
1.89,203.26942,133.87103,-11.167889,-23.701931,16.777754,16.907127
1.892,208.04817,142.2379,-11.010719,-25.270702,14.797175,18.276049
1.894,212.94586,150.1869,-10.493736,-26.895775,12.569128,19.76754
1.896,217.92929,157.55702,-9.53717,-28.579384,10.107159,21.406256
1.898,223.02246,164.15295,-8.058186,-30.339891,7.4267616,23.20744
1.9,228.19948,169.81514,-5.9512424,-32.20042,4.5216713,25.160757
1.902,233.43243,174.46169,-3.1360607,-34.16588,1.3949833,27.247404
1.904,238.65172,178.0228,0.4557047,-36.226585,-1.9232264,29.44616
1.906,243.78082,180.42902,4.894022,-38.3679,-5.3944445,31.7011
1.908,248.72978,181.6283,10.233342,-40.5924,-8.995242,33.9346
1.91,253.40263,181.59416,16.503664,-42.91175,-12.711306,36.046967
1.912,257.67358,180.34113,23.699717,-45.302868,-16.515884,37.905968
1.914,261.4031,177.92215,31.780186,-47.706905,-20.384687,39.36416
1.916,264.4586,174.42102,40.66763,-50.053345,-24.295843,40.287914
1.918,266.71753,169.9417,50.252285,-52.25337,-28.242432,40.55361
1.92,268.06546,164.60605,60.40469,-54.185368,-32.20393,40.058037
1.922,268.40585,158.55292,70.99625,-55.70182,-36.135536,38.729004
1.924,267.65045,151.93211,81.87851,-56.643414,-39.96688,36.53071
1.926,265.74387,144.90573,92.85138,-56.859947,-43.601913,33.468266
1.928,262.6588,137.64192,103.68692,-56.22541,-46.92817,29.60476
1.93,258.39474,130.2939,114.14841,-54.650223,-49.81584,25.059984
1.932,252.9709,123.01376,124.00539,-52.101475,-52.13164,19.98321
1.934,246.44191,115.94853,133.0395,-48.61274,-53.758312,14.547821
1.936,238.89948,109.22719,141.04662,-44.28022,-54.602467,8.955706
1.938,230.46506,102.96345,147.84314,-39.253716,-54.603004,3.429081
1.94,221.28168,97.255905,153.2761,-33.722836,-53.739082,-1.7973442
1.942,211.50906,92.18591,157.22643,-27.895493,-52.02911,-6.4941006
1.944,201.31906,87.81142,159.6153,-21.984974,-49.53563,-10.463616
1.946,190.89513,84.158226,160.40942,-16.186275,-46.351562,-13.549065
1.948,180.41937,81.23182,159.60944,-10.663336,-42.59838,-15.642929
1.95,170.06068,79.034485,157.25438,-5.5437317,-38.42008,-16.72425
1.952,159.97098,77.54944,153.43878,-0.9112396,-33.969128,-16.839844
1.954,150.28453,76.73527,148.30238,3.1801186,-29.38359,-16.098238
1.956,141.12094,76.52731,142.01675,6.689644,-24.81762,-14.68301
1.958,132.5724,76.85792,134.76962,9.60228,-20.438787,-12.830798
1.96,124.71777,77.66865,126.764694,11.934628,-16.392467,-10.7785845
1.962,117.59361,78.894196,118.2234,13.739254,-12.782828,-8.759435
1.964,111.20343,80.44702,109.34468,15.07972,-9.685559,-6.977132
1.966,105.53996,82.22029,100.33313,15.99794,-7.159784,-5.580242
1.968,100.57259,84.146286,91.36239,16.535994,-5.2238135,-4.667754
1.97,96.23697,86.148026,82.58181,16.760443,-3.8557215,-4.296995
1.972,92.421684,88.17205,74.18001,16.744379,-2.9884863,-4.4659705
1.974,89.190796,90.09394,66.29946,16.551517,-2.5396953,-5.1235256
1.976,86.45746,91.845795,58.985344,16.242193,-2.4128642,-6.182919
1.978,84.118385,93.32583,52.27146,15.875248,-2.4993844,-7.53441
1.98,82.077866,94.462296,46.174057,15.508032,-2.685089,-9.057893
1.982,80.26434,95.26131,40.607956,15.190419,-2.8543596,-10.64218
1.984,78.604706,95.71462,35.582256,14.960628,-2.9099188,-12.185211
1.986,77.02971,95.811584,31.100327,14.850309,-2.7776499,-13.584404
1.988,75.47597,95.54128,27.045567,14.881331,-2.4078226,-14.75462
1.99,73.89258,94.911835,23.501839,15.061628,-1.7800035,-15.645261
1.992,72.233086,93.9208,20.429398,15.386918,-0.9014511,-16.2387
1.994,70.46682,92.59654,17.74834,15.842152,0.19754696,-16.543474
1.996,68.57222,90.97334,15.3842125,16.402714,1.4686718,-16.585983
1.998,66.53504,89.08728,13.2733345,17.037132,2.851901,-16.40319
2,64.41479,86.98963,11.30862,17.710037,4.282008,-16.038462
2.002,62.193993,84.742,9.43285,18.38502,5.694313,-15.535889
2.004,59.881958,82.39031,7.6280518,19.027607,7.030053,-14.933762
2.006,57.48585,79.98274,5.876255,19.604982,8.237867,-14.26323
2.008,54.957016,77.5917,4.1667976,20.086618,9.272011,-13.547018
2.01,52.30108,75.24667,2.481163,20.4487,10.098692,-12.798053
2.012,49.518475,72.92296,0.8338318,20.675858,10.700662,-12.022788
2.014,46.639236,70.620895,-0.7552643,20.761196,11.074549,-11.224569
2.016,43.68333,68.368324,-2.2766418,20.705278,11.228164,-10.406132
2.018,40.671852,66.19634,-3.715786,20.514065,11.178207,-9.570695
2.02,37.62265,64.13078,-5.051935,20.19817,10.949146,-8.722721
2.022,34.572273,62.180977,-6.2575283,19.77218,10.571625,-7.8677006
2.024,31.557373,60.347145,-7.304867,19.253426,10.079941,-7.011042
2.026,28.599396,58.62965,-8.170317,18.660604,9.509691,-6.1576166
2.028,25.711756,57.034744,-8.840332,18.012941,8.895664,-5.3120155
2.03,22.910288,55.56991,-9.320351,17.32945,8.27035,-4.479052
2.032,20.205538,54.240067,-9.6429,16.628162,7.66295,-3.6635742
2.034,17.618225,53.048096,-9.834757,15.925394,7.0985684,-2.8700361
2.036,15.157366,51.988594,-9.892284,15.235308,6.5978127,-2.1023412
2.038,12.830384,51.053177,-9.809512,14.569677,6.1764255,-1.3637252
2.04,10.646619,50.24281,-9.59214,13.937811,5.8450613,-0.6563883
2.042,8.620004,49.550026,-9.259935,13.346594,5.6094904,0.018643856
2.044,6.754408,48.962364,-8.839675,12.800626,5.470894,0.6613102
2.046,5.042454,48.473175,-8.357412,12.302303,5.4262133,1.2721744
2.048,3.4753513,48.074886,-7.8382835,11.85202,5.4686236,1.8519564
2.05,2.0452538,47.75828,-7.3081484,11.448245,5.5879984,2.4010673
2.052,0.74568844,47.51432,-6.789527,11.087879,5.7717547,2.9192781
2.054,-0.430295,47.33823,-6.300522,10.7666025,6.00574,3.4057622
2.056,-1.4909449,47.230743,-5.855668,10.47907,6.2750235,3.8593545
2.058,-2.4421606,47.19235,-5.468977,10.219236,6.564663,4.278661
2.06,-3.2905369,47.221905,-5.1526375,9.980622,6.8604517,4.6623607
2.062,-4.0428157,47.315426,-4.9161906,9.7567005,7.1496086,5.0094194
2.064,-4.706506,47.467175,-4.7656007,9.541254,7.421215,5.3193054
2.066,-5.28958,47.669292,-4.702621,9.328623,7.666262,5.592118
2.068,-5.8006463,47.91342,-4.72512,9.114025,7.8776836,5.828623
2.07,-6.2486067,48.190628,-4.827548,8.893795,8.050252,6.0301456
2.072,-6.641927,48.492035,-5.0014906,8.665491,8.18036,6.198612
2.074,-6.988809,48.80994,-5.2368565,8.427862,8.26577,6.336545
2.076,-7.2956276,49.13712,-5.5219827,8.180804,8.305358,6.446995
2.078,-7.5681367,49.466614,-5.844575,7.925149,8.298781,6.5333347
2.08,-7.811689,49.791306,-6.1916537,7.662442,8.246279,6.598961
2.082,-8.031482,50.104523,-6.5500016,7.394759,8.148599,6.6471367
2.084,-8.232773,50.399807,-6.9066057,7.124526,8.006969,6.6808314
2.086,-8.420125,50.67058,-7.249176,6.854285,7.8230343,6.7026443
2.088,-8.59765,50.910812,-7.5665655,6.586504,7.598845,6.7147303
2.09,-8.769154,51.114895,-7.8492613,6.323403,7.336785,6.718811
2.092,-8.938098,51.278763,-8.08941,6.0668106,7.039593,6.716252
2.094,-9.107235,51.39922,-8.280403,5.818035,6.7103276,6.7081537
2.096,-9.278641,51.474197,-8.416545,5.577873,6.3522296,6.6955013
2.098,-9.454111,51.502087,-8.4928055,5.3465533,5.9685736,6.679233
2.1,-9.635234,51.481636,-8.504887,5.123844,5.5625286,6.6602645
2.102,-9.82334,51.411945,-8.449772,4.9091825,5.137044,6.6395073
2.104,-10.018615,51.292374,-8.326647,4.7017913,4.6947875,6.6179533
2.106,-10.221263,51.122334,-8.13594,4.5008035,4.2381234,6.596681
2.108,-10.431218,50.90115,-7.8783307,4.3054323,3.7691112,6.5768585
2.11,-10.647531,50.6281,-7.5548925,4.1150417,3.2895768,6.559715
2.112,-10.8687315,50.302082,-7.1676044,3.9292078,2.8011897,6.546473
2.114,-11.093122,49.922157,-6.7189713,3.7477841,2.3055804,6.538197
2.116,-11.318499,49.48702,-6.211837,3.57081,1.8043787,6.535661
2.118,-11.54228,48.99514,-5.6494627,3.3984454,1.299267,6.5392256
2.12,-11.761335,48.44572,-5.0363913,3.2308931,0.7920854,6.548794
2.122,-11.972337,47.83758,-4.3771906,3.0683064,0.28469378,6.5637827
2.124,-12.171269,47.169594,-3.676815,2.9107084,-0.22101545,6.5830545
2.126,-12.354441,46.441643,-2.940154,2.7579253,-0.723198,6.604952
2.128,-12.518133,45.654343,-2.1721363,2.609563,-1.2200972,6.627413
2.13,-12.658889,44.8088,-1.3773403,2.4650202,-1.7100776,6.648058
2.132,-12.773409,43.90686,-0.5604582,2.323558,-2.1916091,6.664368
2.134,-12.858686,42.95105,0.27390862,2.1843235,-2.6632082,6.673905
2.136,-12.911491,41.94409,1.1215706,2.0464694,-3.1234105,6.6744356
2.138,-12.929518,40.889435,1.978692,1.9092017,-3.5706863,6.664055
2.14,-12.910584,39.791237,2.8410053,1.7718562,-4.0033603,6.641282
2.142,-12.85312,38.65458,3.7046785,1.6338863,-4.4196053,6.6051574
2.144,-12.756392,37.485043,4.5662766,1.4949231,-4.8173046,6.5553083
2.146,-12.620002,36.2888,5.422451,1.3547292,-5.1941266,6.4918814
2.148,-12.444433,35.07213,6.269542,1.2131923,-5.547598,6.4155254
2.15,-12.230471,33.84144,7.1040983,1.070275,-5.87509,6.3272347
2.152,-11.979308,32.603203,7.922833,0.9260378,-6.173978,6.2282047
2.154,-11.692874,31.363827,8.722593,0.78058815,-6.4417133,6.119814
2.156,-11.37359,30.129177,9.500639,0.63410866,-6.675882,6.0035043
2.158,-11.0246935,28.904964,10.2542715,0.48689693,-6.874281,5.8806567
2.16,-10.649157,27.696354,10.980831,0.3393845,-7.0350137,5.7525487
2.162,-10.2506695,26.508228,11.677831,0.19213718,-7.156487,5.620363
2.164,-9.833212,25.34493,12.342494,0.045916736,-7.2374334,5.485092
2.166,-9.400833,24.210308,12.972511,-0.09833014,-7.2769747,5.3475485
2.168,-8.957623,23.107475,13.56561,-0.23957306,-7.2746305,5.208419
2.17,-8.508011,22.039185,14.119443,-0.37674838,-7.230364,5.068329
2.172,-8.056232,21.00734,14.631819,-0.5088296,-7.1445684,4.9278364
2.174,-7.606597,20.013718,15.100679,-0.6349046,-7.018153,4.7874513
2.176,-7.1632886,19.059624,15.524372,-0.7542874,-6.852579,4.6476417
2.178,-6.7303467,18.14607,15.901666,-0.8665676,-6.649914,4.5089045
2.18,-6.311359,17.273724,16.231785,-0.97162807,-6.4128103,4.3716793
2.182,-5.9094696,16.443014,16.514334,-1.06962,-6.1444745,4.236301
2.184,-5.5272255,15.653923,16.749332,-1.1609619,-5.8486805,4.1029987
2.186,-5.1668787,14.906138,16.936884,-1.2462796,-5.5296474,3.971845
2.188,-4.8300476,14.199265,17.077574,-1.3263198,-5.192005,3.842738
2.19,-4.517543,13.532425,17.17215,-1.4019315,-4.8406363,3.7154248
2.192,-4.230436,12.904746,17.221802,-1.47398,-4.480551,3.5895693
2.194,-3.968925,12.315038,17.228111,-1.5433483,-4.116786,3.464817
2.196,-3.732638,11.761868,17.193151,-1.6108453,-3.7541842,3.3408186
2.198,-3.5211878,11.243749,17.119059,-1.677217,-3.3973083,3.2172828
2.2,-3.3337126,10.759234,17.00844,-1.7431374,-3.0502644,3.0940626
2.202,-3.1688652,10.306402,16.863909,-1.8091877,-2.7165813,2.9711487
2.204,-3.0249596,9.88338,16.68858,-1.8758776,-2.3991852,2.8487177
2.206,-2.9002023,9.48834,16.485449,-1.9436395,-2.1002305,2.7271128
2.208,-2.792717,9.119425,16.25771,-2.0128407,-1.8211529,2.6067102
2.21,-2.7003021,8.774723,16.008677,-2.0837889,-1.5626912,2.4879181
2.212,-2.6208901,8.452406,15.741596,-2.1567779,-1.3249247,2.3711572
2.214,-2.552116,8.150677,15.459677,-2.2320602,-1.1073622,2.256814
2.216,-2.491837,7.8677382,15.166102,-2.30988,-0.9090886,2.1451995
2.218,-2.4377053,7.6019735,14.863802,-2.390484,-0.72883487,2.0365877
2.22,-2.3878536,7.3518496,14.55541,-2.4741158,-0.56512654,1.9311748
2.222,-2.3403616,7.1162357,14.24348,-2.560997,-0.41638076,1.8291065
2.224,-2.2932594,6.8939366,13.930277,-2.6513116,-0.28100944,1.7304583
2.226,-2.2448392,6.6840506,13.617817,-2.745191,-0.15748084,1.6352545
2.228,-2.1934311,6.4859433,13.307917,-2.8427176,-0.044394374,1.5434741
2.23,-2.1377726,6.298253,13.0023575,-2.9439034,0.059501767,1.4550844
2.232,-2.0766144,6.1201634,12.702261,-3.048691,0.1552962,1.3700097
2.234,-2.0090876,5.951228,12.408614,-3.1569576,0.24390721,1.2881596
2.236,-1.9341133,5.790702,12.122374,-3.2685068,0.32610512,1.209398
2.238,-1.850868,5.637882,11.844146,-3.3830965,0.40256584,1.1335484
2.24,-1.7587633,5.4922047,11.574411,-3.500417,0.4738691,1.0604017
2.242,-1.6573553,5.353014,11.313416,-3.6201138,0.54055613,0.98970985
2.244,-1.5462615,5.219687,11.061432,-3.7417917,0.60317326,0.921208
2.246,-1.4255438,5.091786,10.818718,-3.8650165,0.662283,0.85461545
2.248,-1.2953777,4.968913,10.585322,-3.9893157,0.71849805,0.7896491
2.25,-1.1560881,4.850871,10.361347,-4.114214,0.7724396,0.7260195
2.252,-1.008085,4.7373705,10.146732,-4.239213,0.82475066,0.66347253
2.254,-0.851861,4.62826,9.94116,-4.3637877,0.8761194,0.60176516
2.256,-0.68815327,4.5234137,9.744313,-4.4873924,0.92725587,0.54067385
2.258,-0.5175979,4.422802,9.555795,-4.609461,0.9788842,0.48000038
2.26,-0.34100175,4.3262424,9.375078,-4.729419,1.0316699,0.4195739
2.262,-0.15929556,4.2338357,9.20146,-4.8466926,1.0862129,0.35928273
2.264,0.026628017,4.1456456,9.034335,-4.960725,1.1430296,0.299062
2.266,0.21591258,4.061703,8.872922,-5.0710073,1.2025115,0.23889363
2.268,0.40775895,3.9820652,8.716521,-5.1770706,1.2649055,0.17880464
2.27,0.60102534,3.90694,8.56445,-5.2785454,1.3303363,0.11883068
2.272,0.7947867,3.8364758,8.416069,-5.3751426,1.398787,0.058987617
2.274,0.9882939,3.770855,8.270779,-5.4666843,1.470135,-0.00072932243
2.276,1.1807516,3.7100801,8.127624,-5.553096,1.5441408,-0.060376644
2.278,1.3712256,3.6544733,7.986162,-5.634395,1.6204959,-0.12006211
2.28,1.5592861,3.6041212,7.845853,-5.710704,1.6988252,-0.1799407
2.282,1.7441456,3.5592537,7.70612,-5.7821875,1.7787255,-0.24017859
2.284,1.9253843,3.5199022,7.566687,-5.8490644,1.8597412,-0.3009603
2.286,2.1023657,3.4863153,7.4271145,-5.9115725,1.9413902,-0.36242342
2.288,2.2747364,3.4585338,7.2872663,-5.9699316,2.0231943,-0.42464542
2.29,2.44237,3.4366508,7.1469646,-6.0243735,2.104673,-0.48761916
2.292,2.6051152,3.4206734,7.0061274,-6.0750847,2.1853795,-0.5512593
2.294,2.7627614,3.4108248,6.8648186,-6.1222186,2.264927,-0.61541295
2.296,2.9154885,3.407057,6.723016,-6.165907,2.3430243,-0.6798732
2.298,3.063502,3.4093528,6.5808263,-6.206237,2.4194705,-0.744421
2.3,3.2069833,3.417702,6.4382787,-6.2432785,2.4941945,-0.8088422
2.302,3.3462472,3.4322505,6.2954617,-6.2770977,2.5672524,-0.872936
2.304,3.4815598,3.4530578,6.152609,-6.3077474,2.6388156,-0.9365363
2.306,3.6133723,3.4803264,6.009865,-6.3352904,2.709157,-0.9995394
2.308,3.7422137,3.5141387,5.8673873,-6.3598256,2.7785835,-1.0618522
2.31,3.8683286,3.5547135,5.7253065,-6.3814797,2.8474033,-1.1234083
2.312,3.992435,3.6021233,5.5839853,-6.400419,2.915914,-1.1841404
2.314,4.115156,3.656528,5.4435997,-6.416833,2.9843898,-1.2439713
2.316,4.2368965,3.7181025,5.304575,-6.430933,3.0530515,-1.3028421
2.318,4.3584514,3.7870626,5.167161,-6.4429693,3.1220706,-1.3606973
2.32,4.4804535,3.863728,5.03162,-6.4531846,3.1915495,-1.4174669
2.322,4.6035447,3.948325,4.898361,-6.461829,3.2615602,-1.4730854
2.324,4.72845,4.0411153,4.767735,-6.469128,3.332142,-1.5274718
2.326,4.856064,4.142463,4.640168,-6.475292,3.4033267,-1.5805752
2.328,4.9872313,4.2525806,4.5160594,-6.4805107,3.4751284,-1.6323409
2.33,5.1228647,4.371852,4.39589,-6.4849286,3.5476086,-1.6827254
2.332,5.2636676,4.500593,4.2799983,-6.4886656,3.6208537,-1.7317326
2.334,5.41066,4.6390395,4.1689057,-6.491804,3.6949837,-1.779386
2.336,5.56463,4.7875757,4.0630236,-6.494383,3.7701712,-1.8257427
2.338,5.7264752,4.946616,3.9629128,-6.496411,3.8466415,-1.8708856
2.34,5.897188,5.1166945,3.8690426,-6.49786,3.9246507,-1.9149185
2.342,6.0776014,5.298397,3.781785,-6.498683,4.004497,-1.9579749
2.344,6.2684956,5.4921927,3.7016835,-6.498796,4.0864797,-2.0001674
2.346,6.470901,5.698637,3.6290789,-6.498106,4.170909,-2.0416377
2.348,6.6857376,5.9183598,3.5643237,-6.496523,4.2580757,-2.08249
2.35,6.9137707,6.151891,3.5076175,-6.4939494,4.348232,-2.122841
2.352,7.155918,6.3998713,3.459157,-6.490299,4.441607,-2.1627831
2.354,7.412943,6.662988,3.419026,-6.48548,4.5384207,-2.202416
2.356,7.685729,6.9418716,3.3872318,-6.479411,4.638876,-2.241838
2.358,7.9750433,7.2371893,3.3637364,-6.4720125,4.74318,-2.2811496
2.36,8.281684,7.549683,3.348409,-6.46321,4.8515525,-2.3204777
2.362,8.606384,7.879848,3.3409505,-6.452919,4.964232,-2.3599646
2.364,8.949867,8.228221,3.341222,-6.441052,5.081515,-2.3997724
2.366,9.312969,8.595212,3.3490105,-6.4275,5.2037086,-2.440081
2.368,9.696446,8.98115,3.3638866,-6.412138,5.3311596,-2.481062
2.37,10.100917,9.38632,3.3852472,-6.3948555,5.4642467,-2.5228915
2.372,10.52673,9.810827,3.4126682,-6.375487,5.6033306,-2.565709
2.374,10.9741745,10.254695,3.4455266,-6.353868,5.748792,-2.6096263
2.376,11.443562,10.717781,3.4832,-6.329806,5.9009676,-2.6547122
2.378,11.934866,11.199883,3.5250564,-6.303075,6.0601625,-2.701013
2.38,12.44832,11.70034,3.5703516,-6.2734127,6.226648,-2.7485514
2.382,12.98398,12.218209,3.6181965,-6.2405124,6.4006476,-2.797333
2.384,13.541826,12.752522,3.6678252,-6.204048,6.5823545,-2.8473806
2.386,14.121907,13.301813,3.7185426,-6.163625,6.7719173,-2.8987303
2.388,14.724465,13.864086,3.7696,-6.118816,6.9694543,-2.9514515
2.39,15.349365,14.437126,3.8201857,-6.069157,7.1750793,-3.0056705
2.392,15.996108,15.018393,3.8694267,-6.014131,7.388877,-3.061557
2.394,16.664352,15.604901,3.9166288,-5.9531965,7.6109157,-3.1192794
2.396,17.353764,16.193401,3.9613056,-5.885795,7.8412333,-3.1790462
2.398,18.063904,16.780243,4.0026236,-5.811352,8.079868,-3.241097
2.4,18.794167,17.36162,4.0399256,-5.7292957,8.3267975,-3.3056278
2.402,19.543903,17.933464,4.0723944,-5.6390524,8.581989,-3.372833
2.404,20.312489,18.491207,4.0992317,-5.540084,8.84535,-3.442861
2.406,21.098635,19.030312,4.1198664,-5.431923,9.116703,-3.51582
2.408,21.900963,19.546055,4.1335726,-5.3141527,9.395815,-3.59174
2.41,22.717813,20.033577,4.140111,-5.1864147,9.682461,-3.6705813
2.412,23.547523,20.487732,4.138995,-5.0484114,9.976374,-3.7522078
2.414,24.388004,20.9035,4.129733,-4.8998957,10.27725,-3.836392
2.416,25.237066,21.275848,4.112132,-4.7406707,10.584762,-3.9228206
2.418,26.09239,21.59974,4.086112,-4.5705624,10.898565,-4.0110755
2.42,26.951572,21.870485,4.0514803,-4.3894057,11.218304,-4.1007004
2.422,27.81158,22.083445,4.0078344,-4.1970253,11.543548,-4.1911783
2.424,28.669321,22.234629,3.955142,-3.9932077,11.873863,-4.2819724
2.426,29.521448,22.320362,3.8933105,-3.7777271,12.208794,-4.3725233
2.428,30.364134,22.337385,3.8223362,-3.5502903,12.547861,-4.4622808
2.43,31.193312,22.283209,3.7422447,-3.3105252,12.890651,-4.5507226
2.432,32.004333,22.156155,3.653212,-3.0579727,13.236708,-4.637388
2.434,32.792244,21.955175,3.555481,-2.7920809,13.5855255,-4.7218246
2.436,33.55171,21.680328,3.4494934,-2.512272,13.936469,-4.803578
2.438,34.27707,21.332485,3.3358212,-2.2179632,14.288736,-4.8821273
2.44,34.96248,20.913374,3.2151258,-1.908699,14.641243,-4.9568644
2.442,35.60182,20.42584,3.0881376,-1.5841732,14.992575,-5.0270495
2.444,36.1886,19.873707,2.9554958,-1.2444,15.340911,-5.0917034
2.446,36.716564,19.261642,2.8180714,-0.88975954,15.683933,-5.1496277
2.448,37.178604,18.596275,2.676811,-0.5210748,16.018888,-5.199366
2.45,37.57015,17.88216,2.533091,-0.13963366,16.342638,-5.2391686
2.452,37.884857,17.12656,2.3875751,0.25277948,16.651691,-5.267035
2.454,38.11745,16.337187,2.2411475,0.6539335,16.942343,-5.2808523
2.456,38.263615,15.522177,2.0950043,1.0612144,17.210876,-5.2784123
2.458,38.320038,14.68954,1.950134,1.4717417,17.453773,-5.2575827
2.46,38.28437,13.847606,1.8075056,1.8824573,17.667929,-5.2164197
2.462,38.155014,13.004804,1.66823,2.2902203,17.850723,-5.153328
2.464,37.93201,12.169078,1.5334177,2.6919117,18.000177,-5.067129
2.466,37.61641,11.348223,1.4041028,3.0845265,18.115046,-4.957122
2.468,37.210533,10.549527,1.2812343,3.4652348,18.194874,-4.82313
2.47,36.718124,9.779448,1.1657033,3.8314629,18.239882,-4.665525
2.472,36.144054,9.044033,1.0584874,4.180851,18.250797,-4.485154
2.474,35.494186,8.348394,0.9603338,4.51133,18.22874,-4.2833443
2.476,34.775383,7.6968994,0.8718529,4.82109,18.175085,-4.061857
2.478,33.99514,7.0928764,0.7937832,5.1085978,18.091316,-3.8228922
2.48,33.162193,6.538494,0.72663593,5.3726997,17.978863,-3.5689511
2.482,32.2854,6.0354643,0.67078304,5.612488,17.839008,-3.3027072
2.484,31.373642,5.5845966,0.62654495,5.827285,17.672842,-3.0270224
2.486,30.436024,5.185503,0.5939641,6.01672,17.48135,-2.7449207
2.488,29.481438,4.837263,0.57302,6.1807356,17.26545,-2.4594517
2.49,28.518354,4.538172,0.5633836,6.319551,17.026024,-2.1736279
2.492,27.554636,4.286191,0.56464815,6.433689,16.76389,-1.8903451
2.494,26.597477,4.078577,0.57615566,6.523898,16.47987,-1.612227
2.496,25.653276,3.912424,0.59698725,6.5911293,16.174797,-1.3415565
2.498,24.727745,3.784442,0.6259651,6.6365066,15.849565,-1.0802493
2.5,23.825802,3.691124,0.66178846,6.66126,15.505169,-0.82976055
2.502,22.951904,3.6287813,0.7031498,6.666687,15.142651,-0.5911913
2.504,22.109491,3.5937033,0.74828386,6.654087,14.763134,-0.36525965
2.506,21.301157,3.5819583,0.79541206,6.6247673,14.367914,-0.15241146
2.508,20.52847,3.5898838,0.8427429,6.579976,13.958434,0.047062874
2.51,19.792324,3.613783,0.8884716,6.5208893,13.53623,0.23305845
2.512,19.09312,3.6502743,0.93080616,6.448619,13.102848,0.40550518
2.514,18.43087,3.6961808,0.96802235,6.364236,12.659916,0.5642462
2.516,17.805325,3.7487774,0.9984124,6.2687087,12.20907,0.70909595
2.518,17.215702,3.8054276,1.0204077,6.162911,11.751845,0.8398504
2.52,16.660988,3.8638635,1.0322027,6.0476317,11.289604,0.95628357
2.522,16.139717,3.9222937,1.0326879,5.9235764,10.823495,1.0582147
2.524,15.65042,3.9791198,1.020942,5.791385,10.354446,1.1455197
2.526,15.191494,4.0330095,0.99599314,5.651674,9.883196,1.2181687
2.528,14.760885,4.083276,0.9574704,5.5049915,9.410211,1.276252
2.53,14.356883,4.1290946,0.90545917,5.3518605,8.935777,1.3199768
2.532,13.977855,4.1700807,0.8405297,5.1927633,8.45992,1.3497424
2.534,13.622136,4.2057524,0.76341677,5.028054,7.982601,1.3659608
2.536,13.288556,4.2359204,0.67533016,4.858152,7.503642,1.3690665
2.538,12.975667,4.260443,0.5778272,4.683461,7.022826,1.3596275
2.54,12.682387,4.279212,0.47277594,4.5042973,6.5397897,1.3382807
2.542,12.408078,4.2920775,0.36228585,4.320919,6.0541053,1.3056778
2.544,12.151944,4.299079,0.24874496,4.133567,5.565341,1.2624148
2.546,11.913408,4.299997,0.13473892,3.9424868,5.0731373,1.2090874
2.548,11.692079,4.294692,0.023077726,3.747953,4.5771704,1.1461644
2.55,11.487577,4.283146,-0.08340812,3.5502956,4.0772386,1.0740423
2.552,11.2995825,4.26508,-0.18159223,3.349923,3.573294,0.9930605
2.554,11.12796,4.2403817,-0.26835585,3.1473489,3.0655026,0.90351903
2.556,10.9722395,4.2089233,-0.34081984,2.9431524,2.5542612,0.80573595
2.558,10.83287,4.169864,-0.39623594,2.7380214,2.0402544,0.70009613
2.56,10.708048,4.124943,-0.4322889,2.5327148,1.5244148,0.5870756
2.562,10.598263,4.0737085,-0.44629192,2.3280315,1.0079219,0.46734703
2.564,10.503077,4.0159736,-0.43628502,2.1247776,0.49221343,0.34167987
2.566,10.42173,3.9517672,-0.40096068,1.9236947,-0.021052003,0.21106428
2.568,10.353417,3.8815718,-0.3392594,1.7254261,-0.5301061,0.07671833
2.57,10.297375,3.8057513,-0.25056243,1.5305605,-1.0330758,-0.060060203
2.572,10.252761,3.7245224,-0.13481617,1.3395709,-1.5280296,-0.19795303
2.574,10.218666,3.6384497,0.0074498653,1.1527984,-2.013095,-0.33564037
2.576,10.194236,3.5479941,0.17551589,0.97049654,-2.4864779,-0.47188
2.578,10.178452,3.453816,0.3682686,0.7927705,-2.9465659,-0.6055365
2.58,10.170234,3.3565533,0.58414984,0.6196302,-3.3919883,-0.7356466
2.582,10.168568,3.2567985,0.8213496,0.45100522,-3.8216226,-0.8614271
2.584,10.172607,3.155168,1.07778,0.28675413,-4.2346516,-0.9823017
2.586,10.181373,3.052192,1.3513774,0.12668967,-4.630541,-1.0979048
2.588,10.19431,2.9483669,1.6396606,-0.029393911,-5.0090456,-1.2080483
2.59,10.210372,2.8443856,1.9404404,-0.18171954,-5.370155,-1.3126867
2.592,10.229131,2.7402997,2.2512608,-0.33049095,-5.7140603,-1.4118649
2.594,10.250265,2.6360831,2.5697935,-0.47584486,-6.0410266,-1.5056914
2.596,10.272923,2.5320969,2.893863,-0.61784947,-6.3513927,-1.5943056
2.598,10.296683,2.4284756,3.2215223,-0.75649714,-6.645522,-1.6777841
2.6,10.321323,2.325464,3.5511441,-0.8917109,-6.923757,-1.7561636
2.602,10.346364,2.2231848,3.881031,-1.0233289,-7.186313,-1.829372
2.604,10.37178,2.1216967,4.2096653,-1.1511195,-7.43332,-1.8972937
2.606,10.397456,2.0209723,4.5357037,-1.2748007,-7.664791,-1.9597611
2.608,10.423214,1.92113,4.8578587,-1.3940543,-7.8806624,-2.0165944
2.61,10.448691,1.8221252,5.1752434,-1.5085223,-8.080734,-2.067589
2.612,10.473984,1.7240095,5.4869156,-1.6178596,-8.264774,-2.1125937
2.614,10.4988165,1.6267996,5.792102,-1.721736,-8.432496,-2.151472
2.616,10.523052,1.5306621,6.0901556,-1.8198326,-8.583625,-2.1841977
2.618,10.546603,1.4357114,6.380582,-1.911876,-8.717896,-2.210805
2.62,10.569535,1.3420463,6.6629925,-1.9976082,-8.835086,-2.2314107
2.622,10.591576,1.2498283,6.936993,-2.0768228,-8.935045,-2.2462368
2.624,10.612494,1.1593146,7.2021127,-2.1493404,-9.017712,-2.255545
2.626,10.632242,1.0706425,7.45807,-2.2150092,-9.083152,-2.2596526
2.628,10.650647,0.98404264,7.7044334,-2.2737358,-9.131496,-2.2588658
2.63,10.667477,0.89969397,7.94116,-2.325443,-9.162983,-2.253513
2.632,10.682555,0.8177843,8.1678295,-2.3700736,-9.177926,-2.243938
2.634,10.695708,0.73858213,8.3843775,-2.407584,-9.176712,-2.2304332
2.636,10.706546,0.66239214,8.590604,-2.4379392,-9.159803,-2.213276
2.638,10.715227,0.5892768,8.78641,-2.461135,-9.127714,-2.1926498
2.64,10.7213745,0.51954365,8.971689,-2.4772072,-9.081011,-2.168666
2.642,10.724867,0.45336294,9.146334,-2.4862533,-9.020266,-2.141355
2.644,10.725487,0.39109087,9.310195,-2.4884477,-8.946087,-2.1106768
2.646,10.723158,0.33282232,9.463256,-2.484065,-8.859089,-2.0765598
2.648,10.717812,0.27877855,9.605558,-2.4734535,-8.75989,-2.0389323
2.65,10.709157,0.22914934,9.737096,-2.4570448,-8.64912,-1.9977357
2.652,10.697149,0.18401861,9.857959,-2.4353123,-8.527381,-1.9529868
2.654,10.681746,0.1433773,9.96816,-2.4087546,-8.395276,-1.9048163
2.656,10.662827,0.10728598,10.067717,-2.3778248,-8.253413,-1.8534765
2.658,10.640391,0.075665,10.156784,-2.3429196,-8.102381,-1.799332
2.66,10.614373,0.04839611,10.235554,-2.304363,-7.9427776,-1.7428491
2.662,10.584793,0.025307178,10.30414,-2.2624085,-7.7751756,-1.684527
2.664,10.551602,0.006190777,10.36279,-2.2172241,-7.6001434,-1.6249133
2.666,10.514949,-0.009466648,10.411697,-2.1689343,-7.4182014,-1.5645071
2.668,10.474819,-0.021918297,10.451202,-2.1176422,-7.2298384,-1.503755
2.67,10.431253,-0.031505108,10.4814005,-2.063448,-7.035478,-1.4429808
2.672,10.384341,-0.038753986,10.50271,-2.0064719,-6.835509,-1.3824258
2.674,10.334387,-0.043984413,10.5153675,-1.9468815,-6.630234,-1.3222089
2.676,10.2815275,-0.04769802,10.519772,-1.8848904,-6.4199114,-1.2623562
2.678,10.225925,-0.050293922,10.51622,-1.8207352,-6.2047143,-1.2028202
2.68,10.167902,-0.052153587,10.505028,-1.754683,-5.984752,-1.1435225
2.682,10.1078205,-0.053549767,10.486457,-1.6870024,-5.760122,-1.0843507
2.684,10.045818,-0.054773808,10.460967,-1.6179565,-5.5308895,-1.0251544
2.686,9.982203,-0.05599308,10.428759,-1.547802,-5.2971187,-0.9657768
2.688,9.917425,-0.057471275,10.390168,-1.4768052,-5.0588713,-0.90608215
2.69,9.851752,-0.05935192,10.345449,-1.405216,-4.8162136,-0.8459569
2.692,9.785563,-0.061704636,10.294851,-1.3332653,-4.5692534,-0.7853372
2.694,9.7192545,-0.06456852,10.238714,-1.2611582,-4.3181334,-0.72419244
2.696,9.65312,-0.06798935,10.177158,-1.1890882,-4.063041,-0.66250896
2.698,9.587381,-0.0718565,10.110544,-1.1172001,-3.8042145,-0.6003031
2.7,9.522347,-0.07613373,10.039062,-1.0456291,-3.541927,-0.5376006
2.702,9.458399,-0.08059025,9.963006,-0.9745131,-3.27649,-0.47444665
2.704,9.395777,-0.08498764,9.882475,-0.9039617,-3.0082328,-0.41088825
2.706,9.334866,-0.08920479,9.797686,-0.8340924,-2.7375295,-0.3469913
2.708,9.275741,-0.093152046,9.708711,-0.7650066,-2.4647627,-0.2828171
2.71,9.218451,-0.09666109,9.61566,-0.69684505,-2.1903448,-0.21844625
2.712,9.163212,-0.09969759,9.518878,-0.6297684,-1.9147065,-0.15397686
2.714,9.10993,-0.102054596,9.418457,-0.5639321,-1.6383045,-0.08954051
2.716,9.058577,-0.10358381,9.314694,-0.4995131,-1.36164,-0.025290817
2.718,9.009254,-0.104053974,9.207896,-0.43673116,-1.08528,0.03860724
2.72,8.962114,-0.10326052,9.098185,-0.3758037,-0.8098308,0.10195461
2.722,8.916898,-0.101020336,8.985782,-0.31695813,-0.53596026,0.16453291
2.724,8.873545,-0.09715271,8.870985,-0.2604298,-0.2643986,0.22609371
2.726,8.832078,-0.0915823,8.753968,-0.20647085,0.0040901327,0.2863727
2.728,8.792361,-0.08419323,8.635077,-0.15531763,0.26870537,0.34507212
2.73,8.7544155,-0.07485342,8.514526,-0.10719161,0.5286298,0.4018879
2.732,8.718109,-0.06349468,8.39273,-0.062311202,0.78305984,0.45650637
2.734,8.683305,-0.050084114,8.270092,-0.020862907,1.0312085,0.508597
2.736,8.649863,-0.034659863,8.146889,0.01699102,1.2723457,0.557854
2.738,8.617783,-0.01710844,8.023689,0.051102817,1.5057847,0.60400903
2.74,8.587094,0.0026364326,7.9008565,0.08137339,1.7309333,0.6468445
2.742,8.5577135,0.024601936,7.7790823,0.107735634,1.9472873,0.6861924
2.744,8.52956,0.048790455,7.658803,0.13014114,2.154425,0.7219586
2.746,8.50275,0.075212955,7.5405626,0.14858085,2.352031,0.754133
2.748,8.477154,0.10386515,7.424841,0.16305733,2.5399036,0.7827785
2.75,8.452901,0.13483715,7.312257,0.17362064,2.7179422,0.80801445
2.752,8.430033,0.16811562,7.203311,0.1803422,2.8861542,0.8300083
2.754,8.40867,0.2036252,7.0985174,0.18332654,3.0446286,0.84894544
2.756,8.388704,0.24146748,6.9982586,0.18273449,3.1935554,0.86501163
2.758,8.370323,0.2816596,6.9029193,0.1787206,3.3331757,0.87836957
2.76,8.353791,0.3241253,6.812951,0.17149222,3.4637914,0.88914466
2.762,8.339109,0.3689623,6.728616,0.16126144,3.5857675,0.8974298
2.764,8.326271,0.4161129,6.6501613,0.14827251,3.6994798,0.90326744
2.766,8.315698,0.46550846,6.577852,0.13276792,3.8053048,0.90666884
2.768,8.307331,0.51713467,6.5116787,0.11499071,3.9036417,0.90763384
2.77,8.30132,0.5708952,6.451873,0.09517455,3.994893,0.906128
2.772,8.297822,0.6267433,6.3983526,0.073539734,4.079443,0.9021493
2.774,8.296978,0.68462133,6.351121,0.050296664,4.1576695,0.8957059
2.776,8.298975,0.7445407,6.3101325,0.025630236,4.229941,0.8868191
2.778,8.303627,0.8063383,6.2752457,-0.00029182434,4.296608,0.8755523
2.78,8.311131,0.86997604,6.2463937,-0.027301073,4.3580093,0.86199135
2.782,8.321695,0.9354367,6.223304,-0.055250406,4.4144645,0.84624964
2.784,8.334929,1.0025015,6.2058415,-0.084007144,4.4662924,0.82842684
2.786,8.351113,1.0711241,6.1937466,-0.11344516,4.5137773,0.80864215
2.788,8.370022,1.1412063,6.186817,-0.14344299,4.557199,0.78701854
2.79,8.39154,1.2126212,6.184785,-0.17389023,4.5968294,0.76363635
2.792,8.415631,1.2851863,6.187272,-0.20468009,4.6329184,0.7385629
2.794,8.442309,1.3586226,6.1940136,-0.23573124,4.6656837,0.7118407
2.796,8.471304,1.4327917,6.2046814,-0.26696396,4.695339,0.68351036
2.798,8.502453,1.5074105,6.218976,-0.29830635,4.722081,0.6535946
2.8,8.53558,1.5823851,6.2366896,-0.32970393,4.7460947,0.62207294
2.802,8.570509,1.6573644,6.257454,-0.3611008,4.767539,0.58893937
2.804,8.606973,1.7321877,6.280859,-0.39247048,4.786574,0.55418384
2.806,8.644795,1.806561,6.3066893,-0.4237815,4.803362,0.5177946
2.808,8.683784,1.8802519,6.3345613,-0.45500612,4.8180504,0.47976446
2.81,8.7237425,1.9530106,6.364152,-0.4861195,4.8307786,0.44011164
2.812,8.764418,2.024448,6.3952103,-0.5170984,4.841714,0.39888382
2.814,8.805388,2.0944624,6.427429,-0.54793763,4.851006,0.3561499
2.816,8.846562,2.1628613,6.460498,-0.57862556,4.8588076,0.3119917
2.818,8.887793,2.229272,6.4940457,-0.60915256,4.865292,0.26655066
2.82,8.928671,2.2936835,6.5278087,-0.6395261,4.8706193,0.2199887
2.822,8.968994,2.3559265,6.561495,-0.66975594,4.874946,0.17250776
2.824,9.008473,2.415883,6.5949497,-0.69984484,4.878415,0.12433612
2.826,9.047029,2.4735923,6.6277943,-0.729797,4.881196,0.07569909
2.828,9.084183,2.528925,6.659831,-0.7596303,4.8834524,0.02683568
2.83,9.119813,2.5819235,6.690837,-0.78935015,4.885335,-0.022008896
2.832,9.153681,2.6325955,6.7204638,-0.8189528,4.8869925,-0.070611
2.834,9.185745,2.6809802,6.748494,-0.84843576,4.888584,-0.11875343
2.836,9.215461,2.7273135,6.7747006,-0.8777864,4.8902535,-0.16624212
2.838,9.242826,2.7715468,6.798822,-0.906981,4.892136,-0.21287799
2.84,9.267446,2.813844,6.8205986,-0.9359865,4.894369,-0.25849771
2.842,9.28932,2.8542986,6.839846,-0.9647784,4.897067,-0.30293524
2.844,9.308058,2.8931973,6.8564034,-0.9933259,4.9003353,-0.34603274
2.846,9.323609,2.9306724,6.8699627,-1.0215992,4.904282,-0.38764155
2.848,9.33573,2.966907,6.8804293,-1.0495822,4.908973,-0.42763972
2.85,9.344279,3.0020804,6.8875666,-1.0772756,4.914454,-0.46591806
2.852,9.349068,3.0364668,6.891116,-1.104698,4.920739,-0.50237596
2.854,9.349965,3.0703259,6.8910975,-1.1318996,4.9277964,-0.5368922
2.856,9.346696,3.103845,6.887432,-1.1589466,4.93556,-0.56937397
2.858,9.339307,3.1373706,6.8799467,-1.1859294,4.9439344,-0.59970903
2.86,9.327514,3.17112,6.868534,-1.2129667,4.9527745,-0.6278002
2.862,9.311362,3.2053301,6.853106,-1.2401912,4.9619365,-0.6535286
2.864,9.290723,3.240325,6.8337708,-1.2677481,4.9712725,-0.67678607
2.866,9.265479,3.2763472,6.8104315,-1.2957704,4.9806113,-0.6974801
2.868,9.235671,3.313568,6.7831397,-1.3243934,4.989797,-0.7155218
2.87,9.201181,3.3522222,6.751857,-1.3537323,4.9986877,-0.7308389
2.872,9.162026,3.3925366,6.7166758,-1.3839064,5.007162,-0.74340045
2.874,9.118257,3.4347305,6.6776385,-1.4149909,5.0151186,-0.75320256
2.876,9.069703,3.4789367,6.6348405,-1.4470712,5.0224657,-0.76028574
2.878,9.0166,3.5253825,6.588485,-1.4802246,5.0291176,-0.76469934
2.88,8.958885,3.574234,6.538441,-1.5145106,5.034983,-0.76649594
2.882,8.896626,3.6256607,6.484977,-1.5499928,5.0399685,-0.765743
2.884,8.829865,3.6797607,6.4281034,-1.5867256,5.043975,-0.7625079
2.886,8.75849,3.7366168,6.367955,-1.6247804,5.046912,-0.75684464
2.888,8.682792,3.7963514,6.30454,-1.6642394,5.0486655,-0.74877703
2.89,8.602779,3.859008,6.237978,-1.705184,5.0491304,-0.7383269
2.892,8.518343,3.9246798,6.168265,-1.7476957,5.048195,-0.72549665
2.894,8.429694,3.9934688,6.095385,-1.791862,5.045739,-0.7102848
2.896,8.336734,4.065427,6.0194964,-1.8377619,5.041655,-0.6926937
2.898,8.239742,4.140517,5.940536,-1.8854645,5.035812,-0.6727338
2.9,8.138727,4.2188025,5.8583503,-1.9350203,5.0280867,-0.6504252
2.902,8.033539,4.3003144,5.773082,-1.9864626,5.0183706,-0.62580323
2.904,7.924263,4.3850513,5.684451,-2.03982,5.006534,-0.5989213
2.906,7.8110275,4.472946,5.592411,-2.0951087,4.992461,-0.5698545
2.908,7.693878,4.563949,5.4967804,-2.152322,4.976048,-0.53868055
2.91,7.572814,4.658041,5.3974147,-2.211465,4.9571714,-0.5054922
2.912,7.448062,4.755092,5.2941494,-2.272521,4.9356995,-0.4703653
2.914,7.3196774,4.8549767,5.186863,-2.335467,4.911501,-0.43334866
2.916,7.1879587,4.9576426,5.075379,-2.4002938,4.88444,-0.3945086
2.918,7.052908,5.063008,4.9596353,-2.4669857,4.854356,-0.3538704
2.92,6.914871,5.170889,4.8394094,-2.5355287,4.8210907,-0.31145048
2.922,6.773971,5.281157,4.7145195,-2.605919,4.7844543,-0.2672572
2.924,6.6307445,5.3935075,4.584993,-2.6781597,4.7442408,-0.22128177
2.926,6.485429,5.507806,4.450644,-2.7522552,4.7002177,-0.17354512
2.928,6.3383656,5.623863,4.3114886,-2.828211,4.65216,-0.12406087
2.93,6.1900764,5.741284,4.1675196,-2.9060495,4.599812,-0.072870255
2.932,6.04102,5.859797,4.018741,-2.9857752,4.5428953,-0.020076275
2.934,5.891613,5.9791393,3.8651671,-3.067386,4.4811306,0.034204483
2.936,5.7422442,6.0988917,3.7070642,-3.150881,4.4142523,0.08983135
2.938,5.5936494,6.21863,3.544589,-3.2362354,4.342005,0.1466229
2.94,5.44617,6.337987,3.3780043,-3.3233826,4.26416,0.20435667
2.942,5.300554,6.4564743,3.2077224,-3.4122167,4.1805186,0.2627597
2.944,5.1570134,6.5736766,3.0340862,-3.5026305,4.0909195,0.32156277
2.946,5.0164104,6.688859,2.857655,-3.594465,3.9952562,0.38047206
2.948,4.878989,6.801763,2.6789277,-3.6875334,3.8934584,0.43920004
2.95,4.745286,6.911682,2.4986024,-3.7816303,3.7855153,0.4974835
2.952,4.615794,7.0179768,2.3171608,-3.8765059,3.6714692,0.55506384
2.954,4.490972,7.1200924,2.1353443,-3.9719157,3.551421,0.61172783
2.956,4.37117,7.217424,1.9539168,-4.067571,3.4255404,0.66729426
2.958,4.2567186,7.3094234,1.773529,-4.163163,3.2940717,0.72162306
2.96,4.148078,7.3955026,1.5949423,-4.2583675,3.1573012,0.77461815
2.962,4.045528,7.475074,1.4187772,-4.352851,3.0155926,0.8262056
2.964,3.949429,7.5475245,1.245645,-4.446265,2.8693655,0.87634134
2.966,3.8599877,7.612407,1.0763011,-4.538253,2.7190716,0.9250046
2.968,3.7773604,7.6692305,0.9113984,-4.628486,2.5651965,0.97218084
2.97,3.7018974,7.7175174,0.75145507,-4.71663,2.40823,1.0178905
2.972,3.6334789,7.7570267,0.59701705,-4.8023663,2.2486475,1.0621266
2.974,3.5723703,7.787303,0.4485035,-4.885415,2.0869114,1.1049039
2.976,3.5186753,7.808119,0.30635262,-4.9655046,1.9234655,1.1462226
2.978,3.472241,7.819168,0.1708982,-5.0423923,1.758712,1.1860713
2.98,3.4329531,7.8204136,0.042443037,-5.1158595,1.5930436,1.2244349
2.982,3.4007292,7.8116255,-0.07904506,-5.18571,1.4268222,1.2612709
2.984,3.3753018,7.7928715,-0.19325256,-5.251742,1.2604082,1.2965192
2.986,3.356345,7.76431,-0.30020285,-5.313772,1.0941923,1.3301114
2.988,3.3434997,7.726007,-0.39984155,-5.371618,0.92856467,1.3619401
2.99,3.3363824,7.6781893,-0.49218822,-5.4250975,0.76393217,1.3919084
2.992,3.3346145,7.62109,-0.5774441,-5.4740086,0.60073304,1.419927
2.994,3.3376415,7.5550046,-0.65564513,-5.5181637,0.43942142,1.4459343
2.996,3.3449385,7.48038,-0.7270572,-5.5573797,0.280469,1.4698955
2.998,3.3556702,7.397654,-0.79188824,-5.5914683,0.12437159,1.4917879
3,3.369062,7.307424,-0.8503854,-5.6202555,-0.02838248,1.5116333
3.002,3.3843646,7.210334,-0.9026592,-5.643603,-0.17730331,1.5295055
3.004,3.4008157,7.107105,-0.9491029,-5.66138,-0.32194656,1.5455084
3.006,3.4173694,6.9986305,-0.9900563,-5.673537,-0.46191078,1.559809
3.008,3.4329839,6.8857217,-1.025624,-5.680018,-0.59685653,1.572613
3.01,3.446986,6.769278,-1.0559406,-5.680859,-0.72651166,1.5841824
3.012,3.4586215,6.6501875,-1.0812944,-5.6761312,-0.850675,1.5948113
3.014,3.4668093,6.529479,-1.1016676,-5.665947,-0.9692292,1.6048169
3.016,3.470948,6.4080544,-1.1173227,-5.6504545,-1.082135,1.6145353
3.018,3.470354,6.286726,-1.1280848,-5.6297975,-1.1893938,1.6242752
3.02,3.4642475,6.1662297,-1.134056,-5.604163,-1.2910743,1.6343119
3.022,3.452099,6.0474896,-1.1350791,-5.5737233,-1.387281,1.644871
3.024,3.4335756,5.9310865,-1.1309881,-5.538635,-1.4781277,1.656114
3.026,3.4082642,5.817658,-1.1216705,-5.4990444,-1.5637184,1.6681323
3.028,3.3762002,5.707549,-1.1068732,-5.455046,-1.6441245,1.680931
3.03,3.3371086,5.601107,-1.0863047,-5.406715,-1.7193784,1.6944189
3.032,3.2911046,5.4986067,-1.059686,-5.354087,-1.7894304,1.7084022
3.034,3.2382996,5.4001307,-1.0267979,-5.297158,-1.8541865,1.7226015
3.036,3.178958,5.30557,-0.98732203,-5.2358704,-1.9134314,1.7366585
3.038,3.1133692,5.214893,-0.9410337,-5.1701217,-1.9668696,1.7501745
3.04,3.0419743,5.1277547,-0.8877835,-5.0997744,-2.0141442,1.7627115
3.042,2.9652216,5.0437713,-0.8275318,-5.0246716,-2.054862,1.7738569
3.044,2.8835862,4.96262,-0.7602307,-4.94464,-2.0886097,1.7832752
3.046,2.797564,4.883935,-0.68593186,-4.8595376,-2.1149528,1.7906871
3.048,2.7074854,4.8073773,-0.6049547,-4.7692604,-2.1335323,1.795942
3.05,2.6141496,4.732381,-0.51752603,-4.67376,-2.144032,1.7989936
3.052,2.5177295,4.6585183,-0.42418033,-4.5730653,-2.1462195,1.7999146
3.054,2.4189854,4.585328,-0.32547975,-4.467302,-2.1399343,1.79885
3.056,2.3180938,4.512695,-0.22219145,-4.356678,-2.1251242,1.7960067
3.058,2.2155888,4.440177,-0.115074754,-4.2415037,-2.1018026,1.7916198
3.06,2.1117985,4.3677216,-0.0051511526,-4.1221356,-2.0700724,1.7859471
3.062,2.006901,4.295231,0.10667205,-3.9989922,-2.03011,1.7792326
3.064,1.9012223,4.222608,0.21914947,-3.8725152,-1.9821565,1.7717037
3.066,1.7950209,4.1498876,0.3313167,-3.7431452,-1.9264976,1.7635527
3.068,1.688404,4.0772185,0.4419467,-3.6113524,-1.8634765,1.7549726
3.07,1.5813917,4.0048313,0.54984653,-3.4775932,-1.7934887,1.7461188
3.072,1.4741417,3.9329815,0.65392977,-3.342318,-1.7169945,1.7371513
3.074,1.3666673,3.8619435,0.75294906,-3.205944,-1.6344745,1.7282306
3.076,1.2591164,3.792066,0.8458592,-3.068869,-1.5464244,1.7194735
3.078,1.1515675,3.7237186,0.9315867,-2.9314654,-1.4533572,1.7109711
3.08,1.0439324,3.6572552,1.0091491,-2.7941053,-1.3558054,1.7027901
3.082,0.9364223,3.5928438,1.0778215,-2.6571248,-1.254301,1.6949606
3.084,0.8289573,3.5309284,1.136724,-2.520832,-1.1493998,1.6874933
3.086,0.7215686,3.4717252,1.1852075,-2.3855107,-1.0416237,1.6803819
3.088,0.6143857,3.4155326,1.2228363,-2.2514265,-0.93150014,1.673589
3.09,0.50748473,3.3624191,1.2491626,-2.1188385,-0.81957936,1.6670531
3.092,0.40080822,3.3126583,1.2642093,-1.9879919,-0.70642346,1.6606977
3.094,0.2944529,3.2662249,1.26775,-1.8591177,-0.59257716,1.654438
3.096,0.18847749,3.2231097,1.2598531,-1.732425,-0.47857612,1.6481519
3.098,0.082819,3.1833472,1.2407583,-1.6081055,-0.36496007,1.6417109
3.1,-0.022391364,3.1468265,1.2107768,-1.4863374,-0.25226325,1.6349936
3.102,-0.12718205,3.113526,1.1705283,-1.3672632,-0.14098144,1.6278592
3.104,-0.23142943,3.0832698,1.1204495,-1.2510167,-0.031596184,1.6201924
3.106,-0.33516026,3.0559072,1.0614086,-1.1377087,0.07542862,1.6118927
3.108,-0.43804705,3.0311837,0.99417627,-1.0274152,0.17967708,1.6028836
3.11,-0.53993887,3.0086603,0.9196449,-0.9201745,0.28079808,1.5930965
3.112,-0.6407454,2.9880137,0.83860505,-0.8160237,0.37849116,1.5825162
3.114,-0.7402239,2.9688647,0.7521351,-0.71496093,0.47252598,1.5711154
3.116,-0.8381559,2.9506485,0.66120267,-0.61695415,0.5627589,1.5589095
3.118,-0.93431777,2.9330664,0.5666211,-0.5219562,0.6491344,1.545921
3.12,-1.0284835,2.91563,0.4694252,-0.4299038,0.7316561,1.5321715
3.122,-1.1203985,2.8980825,0.37043923,-0.34069735,0.81044406,1.517654
3.124,-1.2099123,2.8799102,0.2705285,-0.25423306,0.88567054,1.5023564
3.126,-1.2967476,2.8607657,0.17049703,-0.17039636,0.95758724,1.4862365
3.128,-1.3806983,2.8403249,0.07076594,-0.08907314,1.0264752,1.4692236
3.13,-1.4613769,2.8184707,-0.027943403,-0.0101649985,1.092615,1.4512823
3.132,-1.5386664,2.7948532,-0.12528202,0.066432275,1.1563026,1.4323872
3.134,-1.6123387,2.769386,-0.22095571,0.1408052,1.2178113,1.4125503
3.136,-1.6821474,2.7419066,-0.3146976,0.2130183,1.2773868,1.3918084
3.138,-1.7480447,2.7124033,-0.40638673,0.28311345,1.3352501,1.3702432
3.14,-1.8097273,2.6809354,-0.49599648,0.35110238,1.3915331,1.3479674
3.142,-1.8671982,2.6475163,-0.5835762,0.4169755,1.4463514,1.3251289
3.144,-1.9203638,2.6123524,-0.6692917,0.4806968,1.4997658,1.3018904
3.146,-1.9692155,2.5756552,-0.7533097,0.54221755,1.5517794,1.2784096
3.148,-2.0137198,2.5376413,-0.83591,0.60148,1.6023402,1.254843
3.15,-2.053944,2.4986663,-0.91729033,0.6584019,1.6513577,1.2313173
3.152,-2.0899897,2.459183,-0.99763316,0.712895,1.6986785,1.2079417
3.154,-2.121847,2.4194968,-1.0773178,0.7648952,1.7441391,1.1847955
3.156,-2.149769,2.379917,-1.1566178,0.8143252,1.7875357,1.1619473
3.158,-2.1738393,2.3407867,-1.235737,0.86114275,1.8286567,1.1394099
3.16,-2.1943765,2.3025105,-1.3149331,0.9052994,1.8672789,1.1172037
3.162,-2.211503,2.2655766,-1.3942571,0.9467455,1.9031764,1.0953432
3.164,-2.2256627,2.2303262,-1.473924,0.9854549,1.9361427,1.0738192
3.166,-2.2370167,2.1969337,-1.5539854,1.0214239,1.965975,1.0526019
3.168,-2.2458007,2.165667,-1.6344903,1.0546397,1.9925036,1.0316645
3.17,-2.252373,2.136749,-1.7153168,1.0850992,2.0155673,1.010964
3.172,-2.257141,2.1103,-1.7964436,1.1128192,2.0350378,0.99045014
3.174,-2.2602284,2.086419,-1.8776538,1.1378386,2.050833,0.9700754
3.176,-2.2621748,2.0651884,-1.9589097,1.1602108,2.0628867,0.94977057
3.178,-2.263062,2.0465298,-2.0399454,1.1800022,2.0711808,0.9294766
3.18,-2.2633078,2.0304227,-2.1204624,1.1973122,2.0757177,0.9091133
3.182,-2.2631457,2.0166805,-2.200205,1.2122438,2.0765347,0.8886185
3.184,-2.2628627,2.005259,-2.2788205,1.2249281,2.0736907,0.86792994
3.186,-2.2627017,1.9958755,-2.3560045,1.2354982,2.067272,0.8469904
3.188,-2.2629137,1.9883394,-2.431424,1.2441028,2.0573797,0.82576287
3.19,-2.2635329,1.9822572,-2.5046997,1.2508899,2.0441134,0.80424476
3.192,-2.2648535,1.9775635,-2.5755112,1.2559963,2.0275772,0.78244543
3.194,-2.2670662,1.973949,-2.643434,1.2595625,2.0078933,0.7603916
3.196,-2.2701213,1.9710262,-2.7080402,1.261701,1.9851768,0.7381257
3.198,-2.2741387,1.96863,-2.7691267,1.2625191,1.9595363,0.7156871
3.2,-2.2790873,1.9663895,-2.826239,1.2621179,1.9310997,0.69310665
3.202,-2.2849216,1.9640828,-2.8791356,1.2605875,1.8999895,0.6704086
3.204,-2.2916758,1.961473,-2.927412,1.2580153,1.8663291,0.64762366
3.206,-2.2992697,1.9583833,-2.9708745,1.2544985,1.8302457,0.6247531
3.208,-2.3075836,1.9545587,-3.0092087,1.2501191,1.791858,0.6018079
3.21,-2.316681,1.9499205,-3.0421503,1.2449682,1.7512974,0.578791
3.212,-2.3263946,1.9443433,-3.069562,1.2391379,1.7086846,0.5557108
3.214,-2.3367157,1.9377077,-3.091185,1.2327287,1.6641538,0.53259027
3.216,-2.3472683,1.9299117,-3.106944,1.2258413,1.617832,0.5094682
3.218,-2.3581388,1.9208472,-3.116741,1.2185699,1.5698483,0.4864114
3.22,-2.3691761,1.9106164,-3.120539,1.2110014,1.520342,0.46348017
3.222,-2.3802645,1.8992223,-3.1182158,1.2032288,1.4694643,0.44076478
3.224,-2.391403,1.8866735,-3.1098595,1.1953448,1.4173839,0.4183579
3.226,-2.4023025,1.8730466,-3.0955248,1.187445,1.3642766,0.39634725
3.228,-2.4129264,1.8584114,-3.0752294,1.179621,1.3103478,0.37479606
3.23,-2.4233153,1.8428676,-3.0493035,1.1719759,1.2558277,0.35376725
3.232,-2.4334064,1.8264519,-3.0177755,1.1646261,1.2009671,0.33328542
3.234,-2.4429326,1.8093395,-2.9810214,1.157686,1.146047,0.313365
3.236,-2.452029,1.791576,-2.9392495,1.151298,1.0913548,0.29400852
3.238,-2.460622,1.7735,-2.892768,1.1455934,1.0371908,0.27520305
3.24,-2.4686122,1.7550164,-2.8419237,1.1407087,0.9838419,0.2569512
3.242,-2.4759958,1.7364211,-2.7870445,1.1367817,0.93158334,0.23926306
3.244,-2.4826863,1.717728,-2.728559,1.1339114,0.8806735,0.22215801
3.246,-2.4887977,1.6991708,-2.666931,1.132192,0.8313178,0.20567352
3.248,-2.4942193,1.6808978,-2.6024542,1.1316783,0.7836753,0.18986033
3.25,-2.4989903,1.6630683,-2.5355873,1.132419,0.73785657,0.17477046
3.252,-2.5029423,1.6457632,-2.4667408,1.1344109,0.69393086,0.160458
3.254,-2.506223,1.6290454,-2.3963253,1.1376384,0.65192145,0.14695601
3.256,-2.5088077,1.6130847,-2.3246884,1.1420673,0.6117943,0.1342866
3.258,-2.510596,1.5979942,-2.2522216,1.1476556,0.57348883,0.12242666
3.26,-2.5116713,1.5838981,-2.1792939,1.1543518,0.53693664,0.11137363
3.262,-2.512062,1.5709727,-2.1062007,1.1621187,0.5020294,0.10109035
3.264,-2.5117936,1.5592598,-2.0330915,1.1708995,0.4686644,0.09153301
3.266,-2.5107245,1.5488899,-1.9603225,1.1806549,0.43673012,0.08267721
3.268,-2.5089056,1.5400357,-1.8880544,1.1913435,0.4061204,0.07448806
3.27,-2.5064406,1.5328017,-1.8164746,1.2029233,0.37673965,0.066948414
3.272,-2.5032494,1.5272648,-1.7457857,1.2153509,0.34851363,0.060031325
3.274,-2.4992857,1.5235612,-1.6760507,1.2285883,0.32136723,0.0537299
3.276,-2.4945626,1.5217459,-1.6073501,1.2425787,0.29525238,0.048031513
3.278,-2.4891248,1.5219787,-1.5397719,1.2572533,0.27011928,0.04292944
3.28,-2.4829793,1.5242776,-1.4733441,1.2725499,0.2459298,0.03842237
3.282,-2.4759936,1.5287418,-1.4080843,1.2884103,0.22265184,0.03451161
3.284,-2.468304,1.5354553,-1.3440703,1.3047681,0.20024754,0.031174451
3.286,-2.459796,1.5445806,-1.2813202,1.3215667,0.17866656,0.028391253
3.288,-2.4505928,1.5560516,-1.2197809,1.3387469,0.15785679,0.026134737
3.29,-2.4405823,1.5699497,-1.1595045,1.3562632,0.13775946,0.024357282
3.292,-2.4298475,1.5863141,-1.1004417,1.3740721,0.118300706,0.023010612
3.294,-2.4183497,1.6050786,-1.0425804,1.3921398,0.09939771,0.022034816
3.296,-2.4061117,1.6263617,-0.9858714,1.410426,0.08096066,0.021378078
3.298,-2.3931177,1.6500483,-0.93015707,1.4288913,0.062876776,0.0209926
3.3,-2.3801215,1.6751115,-0.87694514,1.4475062,0.045045108,0.020833671
3.302,-2.3665462,1.7021931,-0.82505554,1.4662209,0.027352095,0.02087091
3.304,-2.3523648,1.7311562,-0.7744807,1.484975,0.009686731,0.021067977
3.306,-2.3377755,1.7619389,-0.72526056,1.5037187,-0.008052684,0.02141431
3.308,-2.3227644,1.7942711,-0.6772988,1.5223923,-0.025958296,0.021884859
3.31,-2.307406,1.8279934,-0.6306614,1.540947,-0.044105984,0.022425145
3.312,-2.2917328,1.8628049,-0.5853342,1.5593427,-0.06256272,0.022993326
3.314,-2.2757385,1.8984836,-0.54136956,1.5775586,-0.0813797,0.023509905
3.316,-2.2594976,1.9347641,-0.4986596,1.5955759,-0.10057891,0.023890331
3.318,-2.2431653,1.9714284,-0.45732054,1.6134117,-0.12017362,0.024050474
3.32,-2.2266378,2.008169,-0.41729116,1.6310748,-0.14017195,0.023896202
3.322,-2.2100706,2.044749,-0.37859768,1.648587,-0.16056328,0.023341835
3.324,-2.1934767,2.0810015,-0.3412611,1.6659721,-0.18132943,0.022312865
3.326,-2.177045,2.116699,-0.30525786,1.6832461,-0.2024552,0.020785883
3.328,-2.160753,2.1516962,-0.27058923,1.6998568,-0.22309923,0.018911779
3.33,-2.1446612,2.185814,-0.23724532,1.7160816,-0.24361366,0.016631514
3.332,-2.1287615,2.2188053,-0.20528054,1.7318163,-0.2638028,0.014009342
3.334,-2.1131203,2.2506654,-0.17461479,1.7469283,-0.28346372,0.011127397
3.336,-2.097925,2.281309,-0.14529926,1.7612791,-0.30239534,0.008073688
3.338,-2.083052,2.3106065,-0.11731756,1.7747523,-0.32040235,0.004943818
3.34,-2.068604,2.3385544,-0.09053588,1.7872477,-0.3373155,0.0018185377
3.342,-2.0545487,2.3651457,-0.06508416,1.7987087,-0.35302296,-0.0012366474
3.344,-2.0409617,2.3903534,-0.04085338,1.809104,-0.36745286,-0.0041626096
3.346,-2.0278172,2.4142992,-0.017796874,1.81845,-0.38059026,-0.0069237947
3.348,-2.0151463,2.4367886,0.004167497,1.8267888,-0.3924606,-0.00949344
3.35,-2.002969,2.4579906,0.024994493,1.834188,-0.4031317,-0.011870503
