Time_s_,Acc_x_m_s_2_,Acc_y_m_s_2_,Acc_z_m_s_2_,Gyro_x_1_s_,Gyro_y_1_s_,Gyro_z_1_s_
0,-3.4994602,0.14888597,2.2377143,0.726074,-1.6354045,2.7593093
0.002,-3.5527518,0.12821192,2.3611841,0.7425381,-1.6074235,2.7859356
0.004,-3.6087015,0.106056035,2.4916008,0.7606828,-1.5758574,2.8149376
0.006,-3.6697094,0.083559334,2.6262255,0.7805642,-1.5402149,2.8462884
0.008,-3.7344124,0.060393393,2.761028,0.8021657,-1.5000111,2.8798487
0.01,-3.799541,0.036348104,2.8939035,0.82538295,-1.4548206,2.9153297
0.012,-3.8635392,0.011441946,3.0243416,0.8499398,-1.4044051,2.9523387
0.014,-3.9266467,-0.013645709,3.152175,0.8754137,-1.3486686,2.9903803
0.016,-3.989021,-0.039005876,3.2776434,0.90129006,-1.2876143,3.028911
0.018,-4.0505,-0.064679086,3.4003012,0.9270159,-1.221392,3.0673983
0.02,-4.110876,-0.09023118,3.518097,0.9519628,-1.1504481,3.1052823
0.022,-4.169821,-0.11476517,3.6277337,0.9756723,-1.0750024,3.142209
0.024,-4.2237945,-0.1392374,3.7282064,0.99792296,-0.99519956,3.177923
0.026,-4.278331,-0.16008717,3.8152812,1.0185782,-0.9116528,3.2123103
0.028,-4.3284135,-0.17871082,3.8849645,1.038576,-0.8229549,3.246679
0.03,-4.3737044,-0.19454342,3.9290032,1.0571213,-0.73176557,3.279377
0.032,-4.4115705,-0.20927751,3.9471588,1.0745955,-0.63834965,3.310665
0.034,-4.4431725,-0.22302961,3.9367898,1.0914543,-0.54290724,3.340767
0.036,-4.467599,-0.23814625,3.8952036,1.1083314,-0.44532335,3.370144
0.038,-4.482834,-0.25663304,3.8200836,1.1260095,-0.34528923,3.3994505
0.04,-4.488325,-0.27948833,3.7107754,1.1452467,-0.24283397,3.4293113
0.042,-4.4833174,-0.30669564,3.56603,1.1668684,-0.13805282,3.46024
0.044,-4.466918,-0.33748156,3.3847408,1.1916258,-0.031206608,3.4924073
0.046,-4.4374695,-0.37061733,3.1665049,1.21996,0.07705939,3.5256
0.048,-4.393207,-0.40543145,2.9114206,1.2519419,0.1857574,3.5593407
0.05,-4.3321376,-0.44200933,2.6204104,1.287294,0.29362857,3.5929132
0.052,-4.2521567,-0.48134542,2.29433,1.3254876,0.3991537,3.62537
0.054,-4.1511645,-0.52512,1.9351355,1.3658333,0.50043476,3.6555548
0.056,-4.029519,-0.57550657,1.5478497,1.4077103,0.5956844,3.6822214
0.058,-3.8834715,-0.6337011,1.1350358,1.4506929,0.6836791,3.70413
0.06,-3.7121897,-0.7017931,0.7031728,1.4946576,0.76350904,3.7203546
0.062,-3.5146885,-0.7816248,0.25920403,1.5393727,0.8342761,3.7299156
0.064,-3.2901783,-0.87407553,-0.1900388,1.5848522,0.89600325,3.7319329
0.066,-3.0375805,-0.9791107,-0.638394,1.6311493,0.9493865,3.7259703
0.068,-2.7561278,-1.095669,-1.0802639,1.6777229,0.99480414,3.7119412
0.07,-2.4448528,-1.2218713,-1.5102048,1.7235909,1.0326447,3.6900997
0.072,-2.1030364,-1.355658,-1.9229863,1.7672701,1.0632133,3.661034
0.074,-1.73023,-1.4951283,-2.3138084,1.8067946,1.086517,3.625715
0.076,-1.3263484,-1.6383522,-2.6786687,1.8397347,1.1019595,3.5855422
0.078,-0.8915837,-1.7833087,-3.0141833,1.8635979,1.1088483,3.5425272
0.08,-0.42710137,-1.9280137,-3.3173804,1.8763819,1.1071128,3.4992595
0.082,0.06531763,-2.0702908,-3.5853224,1.8765494,1.0966084,3.4588919
0.084,0.5834465,-2.208605,-3.8158295,1.8633258,1.0775609,3.4252448
0.086,1.1227618,-2.3405828,-4.0080295,1.836539,1.0504342,3.4023242
0.088,1.6780664,-2.4648876,-4.160991,1.7962334,1.0155313,3.393509
0.09,2.242377,-2.5802002,-4.2755947,1.7423956,0.97266793,3.4007864
0.092,2.8073466,-2.6857803,-4.353652,1.6748823,0.9210833,3.4243107
0.094,3.3640287,-2.7818842,-4.396564,1.5934052,0.8594459,3.4619586
0.096,3.9024208,-2.8696513,-4.4056683,1.4974241,0.78519505,3.5088778
0.098,4.4115996,-2.9508896,-4.3810143,1.3862575,0.6946072,3.5575738
0.1,4.873367,-3.0246885,-4.3196993,1.25933,0.5832012,3.5983157
0.102,5.275103,-3.0940804,-4.2154174,1.1162093,0.44611168,3.6200473
0.104,5.611758,-3.1644351,-4.075017,0.956701,0.2788095,3.6119077
0.106,5.883354,-3.2405832,-3.904365,0.78097486,0.077913165,3.5649054
0.108,6.0848217,-3.3263123,-3.697727,0.5896974,-0.1579951,3.4733725
0.11,6.1935987,-3.4162817,-3.4582481,0.38399363,-0.4283694,3.3358133
0.112,6.2019396,-3.510106,-3.1943164,0.1654967,-0.73052394,3.1551726
0.114,6.115676,-3.612624,-2.911769,-0.06371097,-1.0592815,2.9383693
0.116,5.9407654,-3.725986,-2.6120622,-0.3010639,-1.407533,2.6956995
0.118,5.6759663,-3.8468773,-2.293262,-0.54403317,-1.7675419,2.439323
0.12,5.315576,-3.9699373,-1.9531193,-0.79001236,-2.1311483,2.1815746
0.122,4.8607345,-4.0911326,-1.5943843,-1.0360955,-2.4899442,1.9339015
0.124,4.3191004,-4.2066965,-1.2261709,-1.2795017,-2.8364062,1.7058457
0.126,3.700742,-4.3120074,-0.8594355,-1.5174598,-3.164018,1.5043693
0.128,3.0155554,-4.4022274,-0.5021521,-1.7471361,-3.4673638,1.3334379
0.13,2.2723725,-4.4718432,-0.16052482,-1.9657414,-3.7426136,1.1936407
0.132,1.4798113,-4.514965,0.15801913,-2.1700888,-3.9860244,1.0832632
0.134,0.6466572,-4.5258245,0.44206536,-2.355987,-4.192647,0.99977195
0.136,-0.20912671,-4.5045195,0.68150634,-2.5189657,-4.358087,0.93970156
0.138,-1.078969,-4.44781,0.8655459,-2.655237,-4.4794197,0.89827824
0.14,-1.9496995,-4.355467,0.98722553,-2.7614026,-4.5533333,0.86922455
0.142,-2.8102376,-4.226716,1.0334486,-2.8343103,-4.576959,0.8465204
0.144,-3.6464787,-4.063945,0.9958527,-2.8708656,-4.547691,0.8266753
0.146,-4.447315,-3.8694465,0.86821806,-2.868153,-4.4629793,0.808692
0.148,-5.203176,-3.6479583,0.6466514,-2.8243916,-4.321655,0.79263616
0.15,-5.9039497,-3.4060988,0.32889616,-2.739581,-4.124467,0.7792679
0.152,-6.5410843,-3.1517503,-0.08308387,-2.615429,-3.8735957,0.77076805
0.154,-7.1072392,-2.8932624,-0.5840273,-2.455439,-3.5733733,0.7705147
0.156,-7.5971794,-2.6389756,-1.1664987,-2.2650905,-3.2316272,0.7818347
0.158,-8.00667,-2.39576,-1.820297,-2.0517993,-2.860252,0.8070552
0.16,-8.333464,-2.168757,-2.5333128,-1.8246764,-2.4746478,0.84697
0.162,-8.576796,-1.961827,-3.290996,-1.5940487,-2.0926733,0.9005737
0.164,-8.737232,-1.7774422,-4.077948,-1.370649,-1.7332605,0.9652271
0.166,-8.816156,-1.6177692,-4.878277,-1.1646624,-1.4148614,1.0371307
0.168,-8.816051,-1.4842658,-5.6765656,-0.98480743,-1.1536486,1.1120174
0.17,-8.741183,-1.3774679,-6.4572573,-0.83751464,-0.9616889,1.1857674
0.172,-8.59728,-1.2973266,-7.205144,-0.72658217,-0.8459008,1.2548491
0.174,-8.391362,-1.2436831,-7.9055185,-0.65301156,-0.80745125,1.3166165
0.176,-8.131451,-1.2161517,-8.54435,-0.6152015,-0.84201705,1.3694637
0.178,-7.8256445,-1.2139497,-9.109118,-0.60948527,-0.94086385,1.4127736
0.18,-7.482366,-1.2358532,-9.589915,-0.63078135,-1.0923287,1.4467382
0.182,-7.1101365,-1.2796545,-9.979844,-0.67327595,-1.2832363,1.472111
0.184,-6.7177076,-1.342061,-10.274868,-0.7310772,-1.5002036,1.4899766
0.186,-6.3129396,-1.41973,-10.47296,-0.79907835,-1.73199,1.5009524
0.188,-5.9027576,-1.5096309,-10.5743885,-0.8734386,-1.9701757,1.5047743
0.19,-5.493163,-1.6095273,-10.581372,-0.9507025,-2.2070773,1.5014522
0.192,-5.089271,-1.7176819,-10.498068,-1.0274363,-2.4357088,1.4918734
0.194,-4.695627,-1.832437,-10.3302,-1.1011217,-2.6517565,1.477723
0.196,-4.314244,-1.9535425,-10.084231,-1.170338,-2.8520763,1.4599369
0.198,-3.9471116,-2.0799863,-9.7680025,-1.2346725,-3.0344648,1.4379345
0.2,-3.5966165,-2.2108243,-9.388558,-1.2942731,-3.1973782,1.4111685
0.202,-3.26408,-2.3448462,-8.954682,-1.3490382,-3.338807,1.3806207
0.204,-2.9495382,-2.4813318,-8.475344,-1.3986063,-3.4566278,1.3480752
0.206,-2.6530252,-2.619452,-7.9595757,-1.4428012,-3.5495045,1.3147917
0.208,-2.3746436,-2.7583387,-7.417368,-1.4816687,-3.616377,1.2816086
0.21,-2.1071959,-2.8955007,-6.859327,-1.5152236,-3.6558192,1.2496688
0.212,-1.8534338,-3.035822,-6.2997894,-1.543411,-3.6662955,1.2204261
0.214,-1.6207652,-3.1719475,-5.736835,-1.5660629,-3.6470537,1.1953859
0.216,-1.418108,-3.30094,-5.174256,-1.5829382,-3.5983796,1.1759872
0.218,-1.2444087,-3.4213984,-4.6260567,-1.5938134,-3.5214572,1.1634713
0.22,-1.0835322,-3.5387814,-4.096343,-1.5986032,-3.4182222,1.1587136
0.222,-0.9348018,-3.651524,-3.5862947,-1.5973663,-3.291317,1.1621146
0.224,-0.8076296,-3.7529802,-3.1012173,-1.5903637,-3.1441193,1.1736085
0.226,-0.7062347,-3.8404603,-2.6482143,-1.5780189,-2.9806752,1.1927452
0.228,-0.6268432,-3.914866,-2.2359467,-1.5609814,-2.8056612,1.2186868
0.23,-0.5620636,-3.9774604,-1.8726033,-1.5401094,-2.624178,1.2501833
0.232,-0.5099654,-4.0267844,-1.5605173,-1.5163538,-2.4412441,1.285696
0.234,-0.47191095,-4.0613656,-1.2963347,-1.4907049,-2.2615688,1.3235643
0.236,-0.44888425,-4.0800138,-1.0767767,-1.464184,-2.0894923,1.3620985
0.238,-0.44010067,-4.082108,-0.9016814,-1.4378005,-1.9287329,1.3997191
0.24,-0.4425881,-4.068327,-0.7711781,-1.4124757,-1.7821206,1.4350877
0.242,-0.45318937,-4.0401425,-0.683195,-1.3889337,-1.651544,1.4672002
0.244,-0.4710288,-3.9979749,-0.6340422,-1.3677127,-1.5379119,1.4954132
0.246,-0.49633408,-3.941122,-0.6194718,-1.349136,-1.4412471,1.5194707
0.248,-0.52896404,-3.8694735,-0.63579655,-1.3333092,-1.3607655,1.5394912
0.25,-0.5677707,-3.7838216,-0.6804485,-1.3200902,-1.2950265,1.5558772
0.252,-0.6115508,-3.6852894,-0.7508981,-1.3091648,-1.2421153,1.56919
0.254,-0.65912986,-3.575451,-0.84442073,-1.3000935,-1.1997557,1.5800979
0.256,-0.70981467,-3.4554238,-0.9580982,-1.2923422,-1.1654556,1.5892704
0.258,-0.76327395,-3.3261933,-1.0887947,-1.2853458,-1.1366599,1.5973756
0.26,-0.81932724,-3.189011,-1.2335544,-1.2785683,-1.1109363,1.6049924
0.262,-0.87776923,-3.0454226,-1.3896617,-1.2715007,-1.0860722,1.6125991
0.264,-0.93873215,-2.8966324,-1.5546892,-1.263733,-1.0602398,1.6205573
0.266,-1.0022036,-2.7437172,-1.7257323,-1.2549789,-1.032092,1.629103
0.268,-1.0690756,-2.5879214,-1.9002912,-1.2450383,-1.0006467,1.6383415
0.27,-1.1402869,-2.4302711,-2.0753143,-1.233833,-0.9654447,1.648233
0.272,-1.2170315,-2.271436,-2.2478786,-1.2214285,-0.92662966,1.6586103
0.274,-1.3006948,-2.112498,-2.414837,-1.2080674,-0.8849679,1.6691687
0.276,-1.392798,-1.954179,-2.57351,-1.1941848,-0.84179425,1.6794846
0.278,-1.4951341,-1.7970166,-2.7203033,-1.1803246,-0.7988983,1.6890593
0.28,-1.6094437,-1.6413319,-2.8513775,-1.1671723,-0.7583957,1.697342
0.282,-1.7376925,-1.4873629,-2.962985,-1.1554818,-0.7225021,1.7037847
0.284,-1.8807287,-1.3356626,-3.0516016,-1.1460264,-0.6933331,1.7078878
0.286,-2.0393054,-1.1869061,-3.1139917,-1.139577,-0.6729382,1.7091638
0.288,-2.2144754,-1.0418212,-3.1470358,-1.1368524,-0.6629927,1.7071912
0.29,-2.4071403,-0.90084267,-3.1476984,-1.1383723,-0.66450727,1.701726
0.292,-2.6174667,-0.76450104,-3.1133652,-1.1444643,-0.6779524,1.6926694
0.294,-2.8445492,-0.633744,-3.0421581,-1.155243,-0.703166,1.6800177
0.296,-3.0872889,-0.5093,-2.9336443,-1.170624,-0.7393086,1.6638834
0.298,-3.3442976,-0.3915668,-2.7883148,-1.1903281,-0.78499985,1.6444962
0.3,-3.6136017,-0.28076273,-2.6075885,-1.2139038,-0.83833194,1.6221677
0.302,-3.8929064,-0.17699707,-2.3933053,-1.24068,-0.8968996,1.5972478
0.304,-4.1793017,-0.080503464,-2.1478045,-1.269858,-0.95797,1.570101
0.306,-4.4697723,0.008664608,-1.8736138,-1.3005389,-1.0186467,1.541152
0.308,-4.760624,0.090345025,-1.5741886,-1.3317763,-1.0760064,1.5108073
0.31,-5.0470386,0.16427433,-1.2548578,-1.3625714,-1.127146,1.4794984
0.312,-5.324783,0.2307564,-0.9207874,-1.3919005,-1.1692736,1.4476632
0.314,-5.590107,0.2903601,-0.578122,-1.4187248,-1.1998842,1.4157667
0.316,-5.838363,0.34362757,-0.23356152,-1.4420826,-1.216996,1.3843133
0.318,-6.065159,0.3913505,0.10630864,-1.4611416,-1.2192559,1.353812
0.32,-6.26783,0.4310857,0.43338966,-1.4751875,-1.2060522,1.3247324
0.322,-6.441168,0.47096395,0.74641365,-1.4836837,-1.1774988,1.2974814
0.324,-6.584129,0.5080546,1.0375555,-1.4862523,-1.1344107,1.2723842
0.326,-6.6941743,0.5434413,1.3019397,-1.4827509,-1.0783002,1.2496066
0.328,-6.7690353,0.5779413,1.5353181,-1.4732445,-1.0112123,1.2291522
0.33,-6.807392,0.61245346,1.7342429,-1.4580059,-0.9356107,1.2108704
0.332,-6.80849,0.64793026,1.8963507,-1.4375342,-0.85419416,1.1945223
0.334,-6.7719274,0.68512046,2.020002,-1.4124873,-0.76974785,1.1798244
0.336,-6.6986017,0.7247366,2.1047137,-1.3836429,-0.6849562,1.1665285
0.338,-6.589439,0.76730514,2.1508994,-1.3518878,-0.6023463,1.1544219
0.34,-6.4460745,0.81315875,2.1599383,-1.3182034,-0.52422357,1.1433306
0.342,-6.2706113,0.862306,2.1340716,-1.2835913,-0.45268255,1.133104
0.344,-6.0660276,0.9150841,2.076311,-1.2490747,-0.38961375,1.1236167
0.346,-5.8358264,0.9716413,1.9898868,-1.2156328,-0.3366348,1.114737
0.348,-5.583223,1.0321194,1.8782331,-1.1841836,-0.29515454,1.1063061
0.35,-5.3117223,1.0965873,1.744924,-1.1555115,-0.26631775,1.0981078
0.352,-5.025218,1.1655006,1.5935264,-1.1302302,-0.2508904,1.08988
0.354,-4.7272625,1.2390324,1.42767,-1.1088111,-0.24926731,1.0813301
0.356,-4.421405,1.3172138,1.2514373,-1.0916165,-0.26148567,1.0721421
0.358,-4.11093,1.3999391,1.0689849,-1.0788546,-0.28714865,1.0620489
0.36,-3.7987154,1.4868195,0.8847709,-1.0705731,-0.3254093,1.0507767
0.362,-3.4902215,1.57904,0.70277333,-1.0666529,-0.37502983,1.038118
0.364,-3.189282,1.6772313,0.5265983,-1.0668768,-0.43455526,1.0238914
0.366,-2.8971872,1.7804286,0.358971,-1.0709217,-0.50241685,1.007993
0.368,-2.616067,1.8883862,0.20181516,-1.078354,-0.5769278,0.9903971
0.37,-2.3490376,2.0015075,0.05835305,-1.0886035,-0.65630674,0.9711365
0.372,-2.0996902,2.12021,-0.067041755,-1.1009605,-0.7386979,0.9503384
0.374,-1.8704926,2.244232,-0.17021482,-1.1146154,-0.8221441,0.92825407
0.376,-1.6634337,2.3734684,-0.24858975,-1.1286602,-0.90454495,0.9052494
0.378,-1.4797204,2.5079277,-0.30059755,-1.1421436,-0.98357993,0.88178647
0.38,-1.3198297,2.646911,-0.32535145,-1.1540576,-1.0566189,0.85840446
0.382,-1.1842985,2.7899175,-0.32174307,-1.1633793,-1.1206847,0.8357216
0.384,-1.0737644,2.93648,-0.2887416,-1.1691134,-1.1725563,0.81441766
0.386,-0.988908,3.085899,-0.22509727,-1.1703489,-1.2088934,0.79515535
0.388,-0.9298773,3.2373765,-0.1306186,-1.1662749,-1.2263258,0.7785511
0.39,-0.8964071,3.3900685,-0.0053284233,-1.1562172,-1.2217156,0.76515937
0.392,-0.88792104,3.5429776,0.15019712,-1.139614,-1.1922793,0.75540984
0.394,-0.9042789,3.6957264,0.33510455,-1.1159818,-1.1357114,0.74955356
0.396,-0.9450632,3.8477116,0.5479033,-1.0850915,-1.0506591,0.7477057
0.398,-1.0082558,3.9977279,0.78630143,-1.0470055,-0.937037,0.74974287
0.4,-1.0913817,4.1443553,1.0473863,-1.0020722,-0.79621065,0.7551938
0.402,-1.1923819,4.2866735,1.328903,-0.95095,-0.63100374,0.7633033
0.404,-1.3094294,4.4240108,1.6288178,-0.8945716,-0.44547552,0.77311474
0.406,-1.4403622,4.555519,1.9448407,-0.83411205,-0.24481277,0.78348297
0.408,-1.5825891,4.680224,2.2742128,-0.770955,-0.03513655,0.79309326
0.41,-1.7330568,4.797524,2.6135466,-0.70661473,0.17688522,0.8006141
0.412,-1.8886105,4.9067335,2.9591203,-0.64265126,0.3844689,0.80474263
0.414,-2.0458786,5.00765,3.307019,-0.5805619,0.58117735,0.80435187
0.416,-2.201528,5.1003757,3.6531482,-0.5217316,0.7613548,0.7985855
0.418,-2.3522854,5.1851974,3.9939435,-0.46733305,0.9204254,0.78698057
0.42,-2.4948335,5.262544,4.3262877,-0.41825974,1.0551006,0.7694755
0.422,-2.626033,5.3331614,4.647083,-0.37504327,1.1634641,0.74637043
0.424,-2.7431378,5.3980885,4.953252,-0.33785596,1.2448733,0.71822417
0.426,-2.8434987,5.4586806,5.241938,-0.30656698,1.2997448,0.6857487
0.428,-2.9246922,5.516317,5.5103064,-0.28075397,1.3294265,0.6497544
0.43,-2.9844394,5.572772,5.755614,-0.25974497,1.3359457,0.6110733
0.432,-3.0205042,5.6295276,5.9750037,-0.24267021,1.3217427,0.57043636
0.434,-3.0312514,5.6883307,6.166216,-0.22852005,1.2895796,0.5284616
0.436,-3.0157647,5.7508445,6.32725,-0.21621472,1.2423928,0.48563063
0.438,-2.973906,5.8187623,6.4567413,-0.20467658,1.1832469,0.44231188
0.44,-2.9059176,5.8935986,6.5536304,-0.1928814,1.1152112,0.39880577
0.442,-2.8125966,5.976544,6.6176724,-0.17992999,1.0412495,0.3553727
0.444,-2.695335,6.068647,6.6490545,-0.16505678,0.96421605,0.31226093
0.446,-2.5556037,6.1707306,6.64831,-0.14768098,0.886704,0.26974607
0.448,-2.3956516,6.283152,6.6164136,-0.12738402,0.8109993,0.22812127
0.45,-2.2180872,6.4061913,6.5549636,-0.103750885,0.7392885,0.18764892
0.452,-2.0257502,6.539365,6.466158,-0.07643883,0.673546,0.14860608
0.454,-1.8214831,6.6817765,6.352567,-0.045199893,0.61541545,0.11135951
0.456,-1.6082441,6.832236,6.217518,-0.009857677,0.56613874,0.07621448
0.458,-1.389463,6.9890857,6.0648055,0.029662997,0.5264362,0.04338213
0.46,-1.168731,7.15071,5.898656,0.073363945,0.4966988,0.013016304
0.462,-0.94906795,7.3149004,5.7234874,0.12118768,0.47704092,-0.014756788
0.464,-0.7340213,7.4796267,5.5437512,0.17296049,0.4672734,-0.039909504
0.466,-0.52672625,7.642774,5.3632593,0.22839816,0.46691695,-0.062488984
0.468,-0.32989633,7.802364,5.18545,0.28709155,0.47515774,-0.082654655
0.47,-0.14667463,7.9566507,5.013295,0.34850568,0.49086484,-0.10068247
0.472,0.022488356,8.10262,4.849425,0.41200173,0.51271826,-0.116930425
0.474,0.17533708,8.238883,4.6963267,0.47688016,0.5393454,-0.13179885
0.476,0.30820012,8.365265,4.556523,0.5423908,0.5694329,-0.14564389
0.478,0.41939378,8.480807,4.4322896,0.6078032,0.60180193,-0.15874207
0.48,0.5086124,8.584328,4.3240447,0.6724436,0.63548255,-0.17130962
0.482,0.5754843,8.675476,4.231122,0.73571265,0.66970724,-0.18354198
0.484,0.61904955,8.754469,4.1529717,0.7970959,0.7039382,-0.19558236
0.486,0.6379349,8.821987,4.089982,0.85617024,0.7378932,-0.20748736
0.488,0.63149047,8.878874,4.042677,0.9125965,0.7714019,-0.21926354
0.49,0.60005164,8.925762,4.010612,0.96614456,0.80438113,-0.23087884
0.492,0.5439837,8.963712,3.9923725,1.0167333,0.8368406,-0.24229833
0.494,0.4636631,8.994359,3.986086,1.0644062,0.86887705,-0.25344515
0.496,0.3600068,9.019127,3.989801,1.1093475,0.90066487,-0.2642218
0.498,0.23434949,9.039235,4.0019064,1.1518646,0.9324171,-0.2745074
0.5,0.08830595,9.055635,4.0207624,1.1923647,0.9643615,-0.28413814
0.502,-0.07629824,9.069456,4.0453897,1.2313077,0.9966465,-0.29295406
0.504,-0.25723863,9.081393,4.0746536,1.2691612,1.029302,-0.30080825
0.506,-0.451905,9.092383,4.107636,1.3064032,1.0622705,-0.3075587
0.508,-0.65803194,9.103455,4.143772,1.3434727,1.0953784,-0.313092
0.51,-0.8731339,9.115007,4.1827903,1.380719,1.1283224,-0.31730622
0.512,-1.0937762,9.126528,4.223923,1.4183713,1.1607063,-0.32013756
0.514,-1.3160198,9.137295,4.2665095,1.4565312,1.1920303,-0.3215633
0.516,-1.5361205,9.146502,4.3104477,1.4951712,1.221708,-0.3216165
0.518,-1.750705,9.1535,4.356199,1.5341718,1.2491083,-0.32039878
0.52,-1.9567195,9.157333,4.4044886,1.5733072,1.273543,-0.31810352
0.522,-2.151063,9.15698,4.4560237,1.6122581,1.2941893,-0.3149842
0.524,-2.3308012,9.151213,4.5113797,1.6506302,1.3101221,-0.31138834
0.526,-2.4933672,9.138818,4.5708284,1.6880268,1.3203775,-0.3077693
0.528,-2.6364415,9.118761,4.6344137,1.7240118,1.3239725,-0.30458656
0.53,-2.7583988,9.090242,4.701898,1.7581443,1.3199489,-0.30228573
0.532,-2.8575199,9.052531,4.7733603,1.7900391,1.3075545,-0.3012976
0.534,-2.932961,9.005169,4.8488364,1.8193716,1.2862769,-0.30199388
0.536,-2.9842908,8.947819,4.928191,1.8459132,1.2559006,-0.30469134
0.538,-3.011626,8.880491,5.0113688,1.869565,1.2165672,-0.30965537
0.54,-3.015683,8.803389,5.0981827,1.8903904,1.1688404,-0.31708115
0.542,-2.9978936,8.717285,5.188393,1.9086114,1.1136968,-0.32708773
0.544,-2.9595501,8.622829,5.281421,1.924593,1.052503,-0.3397051
0.546,-2.9022295,8.520811,5.3766,1.9388363,0.9869755,-0.3548897
0.548,-2.8275542,8.412198,5.4729276,1.9519677,0.9190762,-0.3725684
0.55,-2.7371883,8.297939,5.569539,1.9646868,0.8509451,-0.39263135
0.552,-2.633377,8.179353,5.6654816,1.9777149,0.7848178,-0.41493437
0.554,-2.5181367,8.057584,5.7599263,1.9917743,0.72290915,-0.43932062
0.556,-2.393832,7.9339314,5.8523803,2.007526,0.66735035,-0.46561274
0.558,-2.2626705,7.8097396,5.9421196,2.0255466,0.62009,-0.4936331
0.56,-2.1263967,7.6861277,6.02848,2.046297,0.5827683,-0.5231875
0.562,-1.98685,7.56428,6.1104703,2.0701046,0.5567347,-0.55404854
0.564,-1.8454608,7.4450316,6.1873937,2.097157,0.54297006,-0.58595705
0.566,-1.7036678,7.329173,6.2586513,2.1275294,0.54209,-0.6185815
0.568,-1.5627801,7.2173924,6.3237514,2.1611543,0.5543478,-0.6515318
0.57,-1.4236612,7.1099954,6.3821125,2.1978068,0.57959986,-0.6843647
0.572,-1.2872005,7.006975,6.4333,2.237142,0.6172598,-0.7166016
0.574,-1.1539551,6.908394,6.4768715,2.278696,0.66632044,-0.7477724
0.576,-1.024292,6.813963,6.5126615,2.321907,0.7254379,-0.77747226
0.578,-0.8990352,6.723193,6.540457,2.3661387,0.7929214,-0.8053727
0.58,-0.778203,6.635501,6.559868,2.4107094,0.86676615,-0.83124924
0.582,-0.66193485,6.550103,6.5706396,2.4549549,0.94483787,-0.85504043
0.584,-0.5502851,6.466054,6.572634,2.498294,1.0250041,-0.8767998
0.586,-0.44376707,6.3826895,6.5658493,2.540211,1.1052327,-0.89664596
0.588,-0.34267068,6.29921,6.550263,2.5803175,1.1837435,-0.9147408
0.59,-0.24733996,6.2147117,6.5258074,2.618338,1.2590315,-0.9312515
0.592,-0.15771341,6.12828,6.4925,2.6540906,1.3299117,-0.9463369
0.594,-0.074264765,6.0393667,6.4509053,2.6875024,1.3954508,-0.9601155
0.596,0.0031619072,5.9470463,6.4016423,2.718589,1.4549704,-0.9726948
0.598,0.07405615,5.8506675,6.3456807,2.7474182,1.5079733,-0.98420954
0.6,0.13748312,5.750217,6.284083,2.7741003,1.5540826,-0.99481124
0.602,0.19344234,5.645304,6.2180204,2.798773,1.5930164,-1.004697
0.604,0.2422955,5.535429,6.1485596,2.8215842,1.6245388,-1.0141351
0.606,0.2844429,5.4206557,6.0766287,2.842732,1.6485296,-1.0234948
0.608,0.32007217,5.301573,6.003358,2.8624492,1.6650329,-1.0331949
0.61,0.34953523,5.1786375,5.93023,2.8810415,1.6743085,-1.0436902
0.612,0.37371945,5.0520825,5.858721,2.898876,1.6768229,-1.0554533
0.614,0.39348292,4.9224253,5.7906113,2.916347,1.6732703,-1.0689359
0.616,0.40972185,4.7902513,5.727673,2.933892,1.6645491,-1.084523
0.618,0.42385864,4.6560807,5.671657,2.9519687,1.6517556,-1.1024936
0.62,0.43735647,4.5207453,5.624217,2.9709978,1.6360633,-1.1230112
0.622,0.45191026,4.3850393,5.586611,2.991326,1.6186562,-1.1461118
0.624,0.46913266,4.249604,5.559812,3.0132082,1.6006684,-1.1717252
0.626,0.49075198,4.11507,5.544612,3.0367348,1.5830674,-1.1996653
0.628,0.5188513,3.9817793,5.5414805,3.061848,1.5666087,-1.2296506
0.63,0.5554435,3.8500042,5.550813,3.0883374,1.5517776,-1.2613506
0.632,0.60213995,3.7199147,5.5725155,3.1158643,1.5387473,-1.2943985
0.634,0.6604638,3.5916743,5.6068163,3.1439564,1.527426,-1.3284113
0.636,0.73166156,3.4653218,5.653679,3.1720896,1.5174608,-1.3629718
0.638,0.8167081,3.3406262,5.7126384,3.199726,1.5083774,-1.397681
0.64,0.9162798,3.217484,5.78273,3.2264059,1.4996926,-1.4321394
0.642,1.030803,3.09547,5.862568,3.251761,1.4910395,-1.4659352
0.644,1.1606795,2.9741335,5.9503965,3.275562,1.4822714,-1.4986422
0.646,1.3059789,2.852941,6.044337,3.2977455,1.4735036,-1.5298012
0.648,1.4661374,2.7313886,6.142226,3.318383,1.4651476,-1.5589831
0.65,1.6401615,2.6089985,6.241934,3.3376563,1.4577973,-1.585777
0.652,1.8268641,2.485302,6.34142,3.355825,1.4521871,-1.6098392
0.654,2.0245607,2.360189,6.438561,3.3731966,1.4490702,-1.6309135
0.656,2.2311814,2.233658,6.531262,3.3900468,1.4490921,-1.6488664
0.658,2.444614,2.1055846,6.617244,3.4066463,1.4527137,-1.6637018
0.66,2.6624696,1.9761295,6.6940765,3.4231997,1.4601604,-1.6755307
0.662,2.882447,1.8454322,6.759365,3.4398594,1.4714277,-1.6845689
0.664,3.1018133,1.7139273,6.810706,3.4567175,1.4862795,-1.6910949
0.666,3.3182323,1.5819368,6.846033,3.4738235,1.5043427,-1.6954219
0.668,3.529207,1.4501302,6.863423,3.491208,1.5251167,-1.6978943
0.67,3.7323353,1.3191376,6.8612275,3.5088673,1.5479883,-1.698869
0.672,3.925577,1.1898298,6.8383636,3.526758,1.5722508,-1.6986923
0.674,4.1069717,1.0630039,6.79393,3.544827,1.5971391,-1.6977243
0.676,4.2746744,0.9395145,6.7273817,3.563007,1.6218112,-1.6963
0.678,4.427264,0.82018554,6.638517,3.5811794,1.6453474,-1.6947798
0.68,4.5634327,0.7058288,6.527445,3.5992184,1.6667627,-1.6935043
0.682,4.6823726,0.5974361,6.394402,3.6169705,1.6850362,-1.6928031
0.684,4.7840276,0.49546885,6.2401066,3.634282,1.6991591,-1.692957
0.686,4.868383,0.40029764,6.0656085,3.6509979,1.7082394,-1.6942179
0.688,4.936126,0.3122716,5.872276,3.6670027,1.7115529,-1.6967753
0.69,4.9879537,0.23136806,5.662155,3.6822224,1.7086025,-1.700738
0.692,5.0251956,0.15746522,5.437448,3.6966298,1.6991725,-1.7061185
0.694,5.0493484,0.09018946,5.200411,3.7102547,1.6833526,-1.7128458
0.696,5.062484,0.028821707,4.9535275,3.7232065,1.6615492,-1.7207648
0.698,5.06667,-0.027253628,4.699271,3.7356427,1.634472,-1.7296662
0.7,5.0637455,-0.07872224,4.440433,3.7477717,1.6030763,-1.7393029
0.702,5.055839,-0.12634492,4.1795883,3.7598326,1.568492,-1.749397
0.704,5.045139,-0.17106748,3.918962,3.7720778,1.5319422,-1.7596684
0.706,5.033819,-0.21353674,3.6608758,3.7847672,1.4946469,-1.7698364
0.708,5.0241556,-0.25480413,3.4074135,3.7981098,1.4577283,-1.7796731
0.71,5.018102,-0.29597044,3.160614,3.8122773,1.4221288,-1.7889922
0.712,5.017498,-0.33799624,2.9222193,3.8273606,1.3885372,-1.7976747
0.714,5.0238,-0.381521,2.6938171,3.84338,1.3572879,-1.8056892
0.716,5.0379243,-0.42720985,2.4770875,3.8602724,1.3284042,-1.8130832
0.718,5.0606985,-0.47581124,2.2733827,3.8779337,1.3016598,-1.8199613
0.72,5.0926466,-0.52765346,2.0832815,3.8962178,1.2766274,-1.8264527
0.722,5.133929,-0.5829046,1.9075727,3.9149814,1.2527587,-1.8326788
0.724,5.1846457,-0.6417422,1.7465984,3.9340894,1.2294662,-1.8387368
0.726,5.244647,-0.7042942,1.6004785,3.9534607,1.2061725,-1.8446717
0.728,5.3133054,-0.7705617,1.4693553,3.9730365,1.1823618,-1.8504798
0.73,5.3899393,-0.8404956,1.3531501,3.9927864,1.1575999,-1.8560786
0.732,5.473793,-0.9138317,1.2521524,4.0127254,1.1314945,-1.8613276
0.734,5.5639887,-0.9903059,1.1662796,4.032867,1.1037078,-1.8660936
0.736,5.6599474,-1.0697339,1.0956337,4.053232,1.0739002,-1.8702666
0.738,5.7607074,-1.1518726,1.0402145,4.073833,1.0417806,-1.8737919
0.74,5.8653784,-1.2364821,0.9998695,4.0947037,1.0070899,-1.8766663
0.742,5.9736037,-1.3234975,0.97470593,4.115892,0.9696425,-1.8789686
0.744,6.084719,-1.4130294,0.9646892,4.1374645,0.929358,-1.8808545
0.746,6.1984015,-1.505132,0.9697389,4.1595073,0.8862746,-1.8825078
0.748,6.3143578,-1.5999587,0.9902008,4.1821256,0.84055245,-1.8841002
0.75,6.432701,-1.6976407,1.0261874,4.205406,0.7924558,-1.8857704
0.752,6.5531025,-1.7984354,1.077754,4.229437,0.7423209,-1.8875666
0.754,6.6758146,-1.9026268,1.1448462,4.254241,0.6905129,-1.8894463
0.756,6.80075,-2.0105276,1.2272131,4.279776,0.63737226,-1.8912666
0.758,6.928403,-2.1225095,1.3245766,4.30593,0.5832188,-1.8928084
0.76,7.0592594,-2.238909,1.4363077,4.3325286,0.5283108,-1.8937802
0.762,7.1936464,-2.3602076,1.5619022,4.359357,0.4728644,-1.8938769
0.764,7.331728,-2.486876,1.7004886,4.3861885,0.41708636,-1.8927901
0.766,7.4739738,-2.6195145,1.8514795,4.4128036,0.36115754,-1.8902351
0.768,7.620144,-2.7582445,2.0144043,4.4389963,0.30529237,-1.8859507
0.77,7.7700734,-2.9032352,2.1883056,4.464611,0.24971962,-1.8797364
0.772,7.9238443,-3.0546634,2.3717978,4.4894896,0.194664,-1.8714185
0.774,8.081542,-3.2125936,2.563491,4.5134954,0.14031935,-1.860864
0.776,8.242828,-3.3768923,2.7616518,4.536502,0.0868876,-1.8479965
0.778,8.407469,-3.5477533,2.9645987,4.558386,0.03451276,-1.8327795
0.78,8.574978,-3.7248976,3.1703389,4.5790324,-0.01670456,-1.8151917
0.782,8.744992,-3.908022,3.37679,4.598366,-0.06671834,-1.7952609
0.784,8.916916,-4.096685,3.5820403,4.616338,-0.1155653,-1.7730718
0.786,9.090185,-4.2903414,3.7841182,4.63295,-0.163311,-1.7487271
0.788,9.264734,-4.488712,3.9814334,4.648268,-0.21005225,-1.7223427
0.79,9.439876,-4.6908054,4.1710653,4.662447,-0.25589967,-1.6940458
0.792,9.616071,-4.8963575,4.3507504,4.6756907,-0.30098677,-1.6639891
0.794,9.792707,-5.104721,4.519548,4.688283,-0.3454075,-1.6323142
0.796,9.969248,-5.3152256,4.677383,4.7005296,-0.38928246,-1.5991805
0.798,10.145258,-5.526816,4.822535,4.7127457,-0.432714,-1.564721
0.8,10.32068,-5.7387114,4.95371,4.7252584,-0.47576976,-1.5290756
0.802,10.494413,-5.9498405,5.0688267,4.738363,-0.5185697,-1.4924041
0.804,10.667018,-6.159854,5.1671085,4.752307,-0.56130505,-1.4548771
0.806,10.836285,-6.3677945,5.249043,4.767294,-0.60422397,-1.4166992
0.808,10.999873,-6.573881,5.3165765,4.7834864,-0.64764,-1.3780797
0.81,11.162414,-6.7796044,5.3695807,4.8010144,-0.6919012,-1.3392198
0.812,11.324451,-6.981594,5.4049196,4.8199773,-0.7373915,-1.3003004
0.814,11.483297,-7.178532,5.422309,4.8404455,-0.7844775,-1.2615136
0.816,11.639494,-7.370747,5.4220657,4.8624725,-0.8334646,-1.2230024
0.818,11.792965,-7.556333,5.407439,4.8861113,-0.8845844,-1.1848543
0.82,11.940696,-7.7342763,5.384245,4.911448,-0.9378958,-1.1470978
0.822,12.081746,-7.905589,5.3562903,4.938487,-0.9935341,-1.1097765
0.824,12.215197,-8.069866,5.3241863,4.9670753,-1.0518897,-1.0729771
0.826,12.340521,-8.227115,5.28883,4.997037,-1.1132832,-1.0368198
0.828,12.456298,-8.377587,5.251841,5.028178,-1.1780457,-1.00145
0.83,12.56528,-8.523294,5.2153974,5.060188,-1.2468815,-0.9670819
0.832,12.668644,-8.664379,5.180009,5.0927124,-1.3206214,-0.9339665
0.834,12.762146,-8.798017,5.1467237,5.12527,-1.4004407,-0.90245724
0.836,12.844214,-8.9229355,5.121202,5.157172,-1.4880078,-0.8730215
0.838,12.916239,-9.038869,5.109141,5.1877375,-1.5849035,-0.84601486
0.84,12.979946,-9.146135,5.113911,5.216831,-1.6914132,-0.82125044
0.842,13.035338,-9.245135,5.13804,5.244342,-1.8080643,-0.7987348
0.844,13.083296,-9.336206,5.1845784,5.2699265,-1.9358052,-0.7786388
0.846,13.125506,-9.420231,5.256224,5.2934628,-2.074689,-0.7605932
0.848,13.163833,-9.498349,5.355514,5.314954,-2.224383,-0.7440752
0.85,13.199867,-9.571226,5.4844213,5.334468,-2.3840885,-0.7285409
0.852,13.235104,-9.639187,5.644291,5.352433,-2.551628,-0.7129959
0.854,13.271638,-9.702265,5.8354893,5.369625,-2.723925,-0.69624805
0.856,13.311161,-9.760287,6.058364,5.387015,-2.8972993,-0.67715263
0.858,13.355207,-9.813106,6.313637,5.405747,-3.0673952,-0.6546382
0.86,13.40486,-9.860872,6.6022844,5.4269743,-3.229343,-0.6276207
0.862,13.461273,-9.903196,6.924062,5.451599,-3.378439,-0.59514546
0.864,13.525103,-9.93976,7.2774496,5.480174,-3.5106997,-0.55654967
0.866,13.596966,-9.970085,7.6604652,5.5130744,-3.6223965,-0.5111882
0.868,13.6766615,-9.993477,8.070653,5.5505967,-3.709802,-0.45834732
0.87,13.763612,-10.009059,8.50538,5.5927086,-3.7698414,-0.3974086
0.872,13.856566,-10.015567,8.961415,5.6391196,-3.8003054,-0.32785136
0.874,13.953572,-10.011485,9.435774,5.6894264,-3.7999208,-0.24923138
0.876,14.05192,-9.99492,9.925111,5.743186,-3.7684205,-0.16125327
0.878,14.148789,-9.964176,10.42604,5.7998624,-3.7068207,-0.06389028
0.88,14.240881,-9.917638,10.935704,5.858604,-3.617879,0.042484105
0.882,14.324057,-9.8536215,11.451186,5.9182444,-3.505784,0.15709198
0.884,14.39428,-9.770854,11.969582,5.9773574,-3.375709,0.27884346
0.886,14.447397,-9.668033,12.488049,6.034137,-3.2338543,0.4063056
0.888,14.479233,-9.544093,13.003967,6.0865283,-3.0866764,0.5378375
0.89,14.4859495,-9.398517,13.514839,6.132386,-2.9402523,0.67182493
0.892,14.463819,-9.230943,14.018399,6.1694818,-2.800269,0.80665255
0.894,14.409614,-9.041585,14.512618,6.195439,-2.6721895,0.940599
0.896,14.320946,-8.831244,14.995521,6.2086186,-2.55938,1.0726695
0.898,14.195244,-8.60071,15.465496,6.20823,-2.463603,1.2022343
0.9,14.031223,-8.3519535,15.92222,6.1938653,-2.3864658,1.3283964
0.902,13.827135,-8.086216,16.364767,6.165707,-2.3288062,1.4505169
0.904,13.583211,-7.8055115,16.790802,6.1245513,-2.2909799,1.5682017
0.906,13.300428,-7.512095,17.198116,6.071468,-2.2736564,1.6808559
0.908,12.980544,-7.2087965,17.586319,6.0078406,-2.2770505,1.7880697
0.91,12.62554,-6.898078,17.954388,5.9353476,-2.3007832,1.8896863
0.912,12.239011,-6.5828485,18.302105,5.8557544,-2.3442285,1.9856379
0.914,11.823771,-6.2654104,18.62788,5.7708406,-2.4065127,2.0758312
0.916,11.385408,-5.9485383,18.929716,5.682358,-2.4862227,2.1602583
0.918,10.929092,-5.633838,19.205389,5.591874,-2.581542,2.2390401
0.92,10.454145,-5.3219614,19.455687,5.500558,-2.6910489,2.312154
0.922,9.965517,-5.018222,19.683918,5.409198,-2.8137956,2.3794978
0.924,9.470946,-4.724451,19.889854,5.318538,-2.9486148,2.441076
0.926,8.97402,-4.440899,20.072939,5.2291865,-3.0942142,2.4969614
0.928,8.479451,-4.1695337,20.23087,5.1415176,-3.2493756,2.5472476
0.93,7.993887,-3.910791,20.361227,5.0557804,-3.4128418,2.592146
0.932,7.520504,-3.663589,20.46552,4.9721856,-3.5832396,2.631986
0.934,7.0623145,-3.428575,20.548645,4.8908777,-3.7591605,2.667188
0.936,6.62151,-3.2057142,20.614414,4.8119564,-3.9392366,2.6982303
0.938,6.2009916,-2.9948244,20.665482,4.7354846,-4.122124,2.725606
0.94,5.799415,-2.7943826,20.704319,4.6615424,-4.3064427,2.7498708
0.942,5.417918,-2.604978,20.734455,4.59021,-4.4908886,2.771591
0.944,5.0616207,-2.429079,20.758373,4.521521,-4.674281,2.7912507
0.946,4.73133,-2.2666583,20.774696,4.455501,-4.855542,2.8092592
0.948,4.4247627,-2.1163225,20.783539,4.3921676,-5.0335116,2.8260343
0.95,4.14002,-1.9764256,20.787876,4.3315716,-5.206945,2.841958
0.952,3.8767767,-1.8454866,20.790794,4.2738,-5.374543,2.8573725
0.954,3.6336346,-1.7224188,20.79449,4.2189302,-5.535031,2.8725755
0.956,3.4081354,-1.6057677,20.80057,4.1669865,-5.6871643,2.8877954
0.958,3.1979504,-1.4942479,20.810318,4.1179514,-5.829812,2.9031782
0.96,3.0011358,-1.3872027,20.824867,4.071749,-5.962049,2.918765
0.962,2.8153553,-1.2842228,20.844868,4.0282445,-6.0831795,2.9344838
0.964,2.637805,-1.1850693,20.870934,3.9872816,-6.1927547,2.9501991
0.966,2.465829,-1.0893018,20.902626,3.9487128,-6.290503,2.9657283
0.968,2.2968512,-0.996228,20.938236,3.9123504,-6.3763247,2.980845
0.97,2.1281748,-0.90477085,20.976057,3.877983,-6.450294,2.9953175
0.972,1.9568739,-0.8141017,21.01509,3.8453882,-6.5125446,3.008972
0.974,1.7805529,-0.7235403,21.054848,3.8143518,-6.563257,3.0216532
0.976,1.5959063,-0.63189673,21.094751,3.78472,-6.6026297,3.0333142
0.978,1.4004135,-0.5382662,21.13395,3.7563653,-6.6308694,3.0439978
0.98,1.1918392,-0.44172025,21.171352,3.7292047,-6.648162,3.0538344
0.982,0.96859264,-0.34176207,21.20578,3.7032104,-6.6546607,3.0630445
0.984,0.7292805,-0.23785615,21.235537,3.6783972,-6.65054,3.0719182
0.986,0.47292805,-0.12969184,21.258808,3.6548138,-6.636016,3.0808408
0.988,0.19901466,-0.016801357,21.27381,3.6325436,-6.6113353,3.0902286
0.99,-0.09286308,0.10145378,21.278988,3.6117005,-6.576784,3.100495
0.992,-0.4023795,0.22558713,21.273235,3.5924315,-6.532714,3.1120496
0.994,-0.72948885,0.35627913,21.255732,3.5748613,-6.4795365,3.1252222
0.996,-1.0735083,0.49373293,21.225721,3.559111,-6.417772,3.1402287
0.998,-1.4329762,0.63793135,21.182232,3.5452685,-6.3480763,3.1571474
1,-1.8061719,0.7887099,21.124414,3.533377,-6.2711835,3.1758661
1.002,-2.190867,0.9454963,21.0509,3.5234137,-6.1879215,3.196134
1.004,-2.5846763,1.1080339,20.96036,3.515273,-6.0992627,3.2175853
1.006,-2.985149,1.2760475,20.852089,3.5087872,-6.006297,3.2397602
1.008,-3.3898523,1.4491577,20.725437,3.5037699,-5.910131,3.262134
1.01,-3.79624,1.6270278,20.580364,3.4999776,-5.8119926,3.2841377
1.012,-4.2016563,1.8087878,20.41705,3.4971063,-5.713139,3.305207
1.014,-4.603697,1.9937202,20.235996,3.494833,-5.6148057,3.3248296
1.016,-4.9999466,2.1809042,20.037771,3.4928384,-5.5181856,3.342526
1.018,-5.3887153,2.3696408,19.823555,3.4908423,-5.424344,3.3578808
1.02,-5.7681875,2.5592997,19.594608,3.4886098,-5.3342257,3.3705585
1.022,-6.137025,2.7492208,19.352478,3.4859931,-5.248532,3.3803124
1.024,-6.494203,2.9388628,19.098856,3.4829245,-5.1676536,3.3869796
1.026,-6.8384976,3.127713,18.835598,3.4794068,-5.091744,3.3904738
1.028,-7.1694517,3.3150585,18.56504,3.4754777,-5.020732,3.3908277
1.03,-7.4865417,3.5000818,18.289425,3.47119,-4.95437,3.388112
1.032,-7.7899246,3.6825655,18.011131,3.466578,-4.8923573,3.3824224
1.034,-8.079875,3.861868,17.732492,3.461668,-4.8344445,3.3738556
1.036,-8.356445,4.037693,17.455648,3.4564269,-4.7805324,3.3624592
1.038,-8.62032,4.209765,17.182568,3.450772,-4.730718,3.3481786
1.04,-8.871831,4.377743,16.915035,3.4445543,-4.685295,3.3308704
1.042,-9.111258,4.5415573,16.654919,3.4376342,-4.644735,3.3103285
1.044,-9.338814,4.7008877,16.403894,3.429822,-4.60964,3.2863078
1.046,-9.554649,4.855403,16.163618,3.4209225,-4.58067,3.2584813
1.048,-9.759205,5.0047684,15.935601,3.4107883,-4.558446,3.226524
1.05,-9.952564,5.1485424,15.720971,3.3992963,-4.543495,3.1901405
1.052,-10.134513,5.2860312,15.520595,3.3863626,-4.5361586,3.1490757
1.054,-10.30526,5.416691,15.335047,3.3719645,-4.536583,3.1031628
1.056,-10.464596,5.539954,15.164618,3.356133,-4.5447145,3.0522952
1.058,-10.612335,5.655227,15.009559,3.3389714,-4.5601826,2.9964895
1.06,-10.748221,5.761975,14.869899,3.3206568,-4.5822983,2.9358368
1.062,-10.871958,5.859315,14.745675,3.3014073,-4.610156,2.8705587
1.064,-10.98323,5.9465537,14.636999,3.2815247,-4.6425276,2.8009815
1.066,-11.081409,6.022755,14.543877,3.2613587,-4.6779895,2.7274997
1.068,-11.166269,6.087137,14.4663725,3.2412732,-4.714973,2.6505604
1.07,-11.237861,6.138764,14.404331,3.2216702,-4.751853,2.5706577
1.072,-11.296307,6.1769123,14.357748,3.2029462,-4.787043,2.4882774
1.074,-11.341505,6.200479,14.326345,3.1854715,-4.819027,2.4039087
1.076,-11.373628,6.208621,14.309668,3.1695783,-4.84642,2.3180504
1.078,-11.392552,6.200367,14.307025,3.1555374,-4.868085,2.2311783
1.08,-11.398247,6.1750345,14.31743,3.143531,-4.8831553,2.1437356
1.082,-11.390684,6.1320844,14.339905,3.1336687,-4.891074,2.056122
1.084,-11.370457,6.071431,14.373332,3.1259632,-4.8915763,1.9687139
1.086,-11.337378,5.992445,14.416055,3.1203516,-4.8847165,1.8818499
1.088,-11.291692,5.8950567,14.46644,3.1166816,-4.8708415,1.7958663
1.09,-11.234078,5.7794714,14.522636,3.1147225,-4.8505163,1.7110637
1.092,-11.165166,5.646353,14.582634,3.1141667,-4.8245153,1.6277319
1.094,-11.085566,5.496289,14.644792,3.1146219,-4.7937336,1.546133
1.096,-10.995746,5.3303185,14.70707,3.1156144,-4.759122,1.4665225
1.098,-10.896775,5.1497326,14.767203,3.1166248,-4.7216043,1.3891482
1.1,-10.78945,4.956029,14.822611,3.117085,-4.682027,1.3142986
1.102,-10.674689,4.7508965,14.870718,3.1163864,-4.641124,1.2422631
1.104,-10.55315,4.5360107,14.908872,3.1139524,-4.599505,1.1733404
1.106,-10.42574,4.313534,14.934721,3.1092596,-4.557592,1.1078303
1.108,-10.293699,4.085745,14.946236,3.1018753,-4.5156245,1.0460069
1.11,-10.158308,3.8550494,14.941519,3.0915074,-4.4736214,0.98813224
1.112,-10.020657,3.624025,14.919174,3.078029,-4.43139,0.9343899
1.114,-9.881809,3.3948374,14.878086,3.0614686,-4.3884854,0.88495445
1.116,-9.742506,3.1695685,14.816971,3.0420098,-4.344204,0.83995545
1.118,-9.603018,2.950271,14.734763,3.0199707,-4.2976475,0.799522
1.12,-9.464049,2.7390053,14.63039,2.9957683,-4.2477565,0.76379246
1.122,-9.32631,2.5381246,14.503352,2.9698408,-4.193418,0.7329105
1.124,-9.190025,2.3493757,14.353905,2.9425924,-4.133578,0.70700645
1.126,-9.055891,2.1744854,14.182641,2.9143708,-4.067341,0.6861914
1.128,-8.924083,2.014974,13.990673,2.8854542,-3.9941015,0.67051494
1.13,-8.794919,1.8719208,13.779116,2.8560758,-3.9135764,0.65994054
1.132,-8.668597,1.7463803,13.549072,2.8264081,-3.8257701,0.65435207
1.134,-8.545555,1.6394026,13.301931,2.7965784,-3.7309656,0.6535373
1.136,-8.426346,1.5518318,13.039116,2.7666872,-3.6296284,0.6572151
1.138,-8.311141,1.4843985,12.76196,2.7368355,-3.5223668,0.6650507
1.14,-8.200342,1.4374363,12.472055,2.7071424,-3.4098568,0.67669916
1.142,-8.094395,1.4111972,12.171233,2.6720166,-3.2910817,0.69177955
1.144,-7.993818,1.4059461,11.861374,2.63935,-3.1690257,0.70993066
1.146,-7.8993425,1.4217012,11.544291,2.6055417,-3.043172,0.7308109
1.148,-7.8119574,1.458502,11.221752,2.5703328,-2.9139607,0.754091
1.15,-7.732666,1.51599,10.895185,2.53352,-2.7818496,0.7794584
1.152,-7.6622825,1.593702,10.56554,2.4950721,-2.6473517,0.80658454
1.154,-7.601671,1.6913805,10.233449,2.455259,-2.5110455,0.8351229
1.156,-7.5517836,1.8084953,9.899638,2.4146945,-2.3736765,0.86474514
1.158,-7.5134964,1.944538,9.565184,2.3744245,-2.2361045,0.89509267
1.16,-7.487723,2.0987523,9.231146,2.3358738,-2.0993195,0.9257866
1.162,-7.47519,2.2702086,8.898391,2.3007102,-1.9644132,0.9564412
1.164,-7.4760895,2.4575753,8.567749,2.270605,-1.8324877,0.986673
1.166,-7.4910336,2.6598105,8.239925,2.2469776,-1.7045529,1.016125
1.168,-7.520305,2.8755822,7.9152484,2.2307403,-1.5814213,1.0444314
1.17,-7.5639434,3.1034484,7.5941577,2.2221193,-1.4635757,1.071274
1.172,-7.621767,3.3421474,7.276787,2.2206125,-1.3511385,1.0963702
1.174,-7.6936846,3.5905018,6.963192,2.2250574,-1.2438233,1.1195121
1.176,-7.779456,3.8471856,6.6536055,2.2338843,-1.1410183,1.1405526
1.178,-7.8783693,4.1106324,6.3478546,2.2453737,-1.0418775,1.1593807
1.18,-7.9893074,4.3794003,6.0458937,2.2579293,-0.9454564,1.1759439
1.182,-8.111289,4.6522427,5.747586,2.270275,-0.8508139,1.1902704
1.184,-8.243542,4.9282455,5.452696,2.2815723,-0.7571611,1.2024275
1.186,-8.384939,5.206298,5.161317,2.2914324,-0.6639535,1.212501
1.188,-8.534646,5.485733,4.873346,2.2998297,-0.57095015,1.220586
1.19,-8.691738,5.7659864,4.5886793,2.3069556,-0.47821933,1.2267451
1.192,-8.85515,6.046706,4.3069396,2.3131096,-0.38613677,1.2310395
1.194,-9.023834,6.327628,4.027815,2.3185635,-0.29529393,1.233512
1.196,-9.196493,6.6085706,3.7515082,2.326855,-0.20746475,1.234215
1.198,-9.372483,6.889611,3.4780045,2.3299773,-0.121091664,1.2331842
1.2,-9.550683,7.1708875,3.2073247,2.3333886,-0.03865981,1.2304441
1.202,-9.730286,7.452505,2.9397602,2.3368564,0.039099693,1.2260156
1.204,-9.910466,7.734945,2.6755567,2.3402145,0.11160582,1.2199185
1.206,-10.091022,8.01864,2.4154716,2.3433824,0.17846978,1.2121968
1.208,-10.271264,8.304064,2.160459,2.3463194,0.23951995,1.2028947
1.21,-10.450817,8.591483,1.9117181,2.349072,0.29483438,1.1920457
1.212,-10.62955,8.881441,1.6704795,2.3517,0.344657,1.1797044
1.214,-10.807356,9.174282,1.4382951,2.3543026,0.3894143,1.1659095
1.216,-10.98439,9.47017,1.2169936,2.3569977,0.42972666,1.1506793
1.218,-11.161128,9.769256,1.0085739,2.3598924,0.46632463,1.1340303
1.22,-11.33821,10.071634,0.8149309,2.3630908,0.499989,1.1159583
1.222,-11.516404,10.376924,0.63796484,2.3666615,0.53149074,1.0964351
1.224,-11.696497,10.685158,0.4792643,2.3706632,0.5615122,1.0753901
1.226,-11.879418,10.995992,0.3403992,2.375118,0.59064233,1.0527415
1.228,-12.066386,11.3091345,0.22293556,2.380035,0.61934835,1.0284066
1.23,-12.258098,11.623967,0.12853584,2.3854098,0.6479628,1.0023044
1.232,-12.455741,11.939811,0.058853984,2.3912032,0.6766639,0.9743883
1.234,-12.6608925,12.2563925,0.0153698325,2.3973532,0.70545614,0.94459283
1.236,-12.874587,12.573339,-0.0006082356,2.4037788,0.7342117,0.91282934
1.238,-13.097921,12.889979,0.011748493,2.4103787,0.76271075,0.87903845
1.24,-13.332204,13.206259,0.053260863,2.417038,0.7906305,0.8431728
1.242,-13.578813,13.522089,0.12460852,2.4236717,0.81760466,0.8051959
1.244,-13.838764,13.83726,0.22602439,2.4302096,0.8432442,0.76510084
1.246,-14.1128645,14.15181,0.35727024,2.4366202,0.86720765,0.722874
1.248,-14.40184,14.465991,0.5175322,2.442906,0.8892139,0.67851454
1.25,-14.706128,14.7804985,0.70602465,2.4490883,0.90906817,0.63203907
1.252,-15.026115,15.096081,0.9214326,2.4552107,0.9266707,0.58347195
1.254,-15.361977,15.413547,1.1621764,2.4613557,0.9420198,0.53282106
1.256,-15.713752,15.733908,1.4265642,2.4676487,0.95519376,0.4800731
1.258,-16.080788,16.058125,1.7125287,2.4742622,0.96637285,0.4251716
1.26,-16.462397,16.387648,2.0176907,2.4813433,0.9758057,0.36800307
1.262,-16.857695,16.723713,2.339227,2.4890516,0.9838041,0.3084104
1.264,-17.265654,17.067682,2.674075,2.4975307,0.99079543,0.2461729
1.266,-17.684801,17.420906,3.0189574,2.5069008,0.99726427,0.18103874
1.268,-18.113068,17.784372,3.3703105,2.5172448,1.003722,0.11274302
1.27,-18.548351,18.159416,3.7244809,2.5286222,1.0106754,0.04096353
1.272,-18.98846,18.547005,4.0779443,2.541085,1.0186025,-0.0346781
1.274,-19.430992,18.947899,4.4273243,2.554668,1.0279323,-0.11461711
1.276,-19.873499,19.36253,4.769276,2.5694504,1.0390728,-0.19933355
1.278,-20.313358,19.790956,5.1004186,2.5855722,1.0524275,-0.28932357
1.28,-20.747938,20.232893,5.4176984,2.603225,1.0683753,-0.3851354
1.282,-21.174904,20.68782,5.7182436,2.6226692,1.0873082,-0.4873579
1.284,-21.591501,21.15461,5.999216,2.6442099,1.109682,-0.5965616
1.286,-21.995275,21.63208,6.2577014,2.6682389,1.1360364,-0.7132788
1.288,-22.383905,22.118763,6.4913516,2.6951776,1.1669714,-0.8379658
1.29,-22.755493,22.612673,6.697806,2.7254727,1.2030807,-0.97102237
1.292,-23.108051,23.111362,6.875119,2.7595737,1.2448678,-1.1127898
1.294,-23.4398,23.612186,7.021687,2.797927,1.2926987,-1.2635474
1.296,-23.749311,24.112246,7.135993,2.8409386,1.346681,-1.4234978
1.298,-24.035524,24.608425,7.2169876,2.888986,1.406621,-1.592787
1.3,-24.297602,25.097256,7.2637653,2.9424028,1.4720029,-1.7715269
1.302,-24.534693,25.575195,7.275673,3.0014725,1.5419377,-1.9597485
1.304,-24.746296,26.038815,7.2522764,3.0664554,1.615207,-2.1574
1.306,-24.932373,26.484695,7.1931486,3.1375086,1.6902696,-2.3643613
1.308,-25.092756,26.909264,7.0984163,3.2147107,1.7653058,-2.5804207
1.31,-25.2277,27.309143,6.96852,3.2980528,1.8382552,-2.805253
1.312,-25.3377,27.681175,6.8042936,3.3873973,1.9068274,-3.0384295
1.314,-25.423231,28.022135,6.6069555,3.48254,1.9685804,-3.2794268
1.316,-25.484726,28.329191,6.378022,3.5831494,2.020933,-3.527647
1.318,-25.522799,28.59972,6.1193247,3.6887727,2.0612268,-3.7824452
1.32,-25.538141,28.83165,5.8329926,3.798859,2.0867882,-4.0431366
1.322,-25.53106,29.023048,5.521555,3.9127407,2.0950193,-4.3090115
1.324,-25.501999,29.172564,5.187956,4.0296726,2.0834606,-4.5793266
1.326,-25.451344,29.279537,4.835576,4.1488595,2.0499327,-4.8533363
1.328,-25.379103,29.343342,4.4683743,4.269491,1.9926,-5.130234
1.33,-25.285202,29.363838,4.0910254,4.3907485,1.9100089,-5.409217
1.332,-25.169895,29.34172,3.7086535,4.5118527,1.8011676,-5.689482
1.334,-25.03273,29.278008,3.3265429,4.6320925,1.6655331,-5.9702153
1.336,-24.873425,29.174372,2.9504156,4.7508173,1.5030226,-6.250611
1.338,-24.691092,29.032803,2.5860405,4.8674636,1.3139901,-6.5299206
1.34,-24.485136,28.856064,2.23944,4.9815073,1.0991524,-6.807475
1.342,-24.254381,28.647367,1.9165545,5.092491,0.85956144,-7.082702
1.344,-23.99776,28.410213,1.6233826,5.1999855,0.59656644,-7.3551235
1.346,-23.71402,28.148487,1.3660021,5.3035965,0.31176043,-7.6243625
1.348,-23.402176,27.866554,1.1502752,5.4029427,0.006923914,-7.8901644
1.35,-23.061014,27.568787,0.98203754,5.497661,-0.31602263,-8.152416
1.352,-22.688927,27.25975,0.86655045,5.587385,-0.6551039,-8.411123
1.354,-22.285025,26.944233,0.80869484,5.671737,-1.0083361,-8.66639
1.356,-21.84844,26.627094,0.81297874,5.750354,-1.373693,-8.918445
1.358,-21.37853,26.31345,0.8835125,5.822858,-1.7492232,-9.167626
1.36,-20.87459,26.008165,1.0236397,5.8888807,-2.1330338,-9.414346
1.362,-20.33577,25.715776,1.2356482,5.948033,-2.5233111,-9.659075
1.364,-19.76162,25.440716,1.5214834,5.9999046,-2.9183173,-9.902362
1.366,-19.151762,25.18742,1.8821344,6.044086,-3.3164144,-10.144823
1.368,-18.5062,24.959957,2.3179674,6.080159,-3.7160778,-10.387102
1.37,-17.825182,24.761896,2.8285084,6.107696,-4.1158786,-10.629869
1.372,-17.109058,24.596245,3.4126854,6.126294,-4.5144897,-10.873783
1.374,-16.358452,24.465439,4.0685897,6.135553,-4.910691,-11.119463
1.376,-15.574294,24.371593,4.7934275,6.135119,-5.303354,-11.3674555
1.378,-14.758044,24.316545,5.583892,6.124664,-5.691472,-11.61821
1.38,-13.911079,24.301243,6.4363346,6.1038885,-6.0742083,-11.872036
1.382,-13.034995,24.326557,7.346864,6.072514,-6.450831,-12.129169
1.384,-12.131542,24.392797,8.311227,6.0303144,-6.8207817,-12.389633
1.386,-11.202603,24.499752,9.325203,5.9771285,-7.183634,-12.653297
1.388,-10.250474,24.64698,10.3845825,5.912816,-7.539111,-12.919901
1.39,-9.276332,24.833721,11.484815,5.83728,-7.8870945,-13.189058
1.392,-8.280243,25.058212,12.6216345,5.75045,-8.22768,-13.460278
1.394,-7.2640758,25.318535,13.791165,5.652272,-8.561195,-13.732948
1.396,-6.229174,25.612326,14.989645,5.542695,-8.888255,-14.006372
1.398,-5.1761513,25.936771,16.213268,5.421669,-9.209736,-14.279783
1.4,-4.105744,26.289095,17.458567,5.289126,-9.526794,-14.552362
1.402,-3.018674,26.66617,18.72229,5.145011,-9.840863,-14.82324
1.404,-1.91535,27.0647,20.001091,4.9892783,-10.153542,-15.091478
1.406,-0.79630184,27.481533,21.291492,4.8218803,-10.466501,-15.356133
1.408,0.3393669,27.912897,22.589808,4.6427884,-10.781402,-15.616232
1.41,1.4925232,28.355324,23.892107,4.4519887,-11.099737,-15.870838
1.412,2.6630383,28.806065,25.195103,4.2494884,-11.4227295,-16.118988
1.414,3.851739,29.26128,26.496023,4.035307,-11.751238,-16.359756
1.416,5.0594482,29.71688,27.791819,3.8094811,-12.085686,-16.592253
1.418,6.286647,30.169298,29.079056,3.5720358,-12.426073,-16.815552
1.42,7.5335855,30.615002,30.354483,3.3230662,-12.771965,-17.02869
1.422,8.801054,31.050241,31.614819,3.062674,-13.122601,-17.230762
1.424,10.0894985,31.471071,32.856842,2.791008,-13.477005,-17.42083
1.426,11.39901,31.873653,34.07763,2.5082698,-13.834024,-17.59792
1.428,12.729839,32.25393,35.27513,2.2147717,-14.192399,-17.76104
1.43,14.082407,32.607857,36.447243,1.9109344,-14.550774,-17.909222
1.432,15.457043,32.931076,37.591812,1.5973883,-14.907721,-18.04144
1.434,16.85348,33.219654,38.70685,1.2749958,-15.261658,-18.156677
1.436,18.27208,33.469162,39.79064,0.94486237,-15.610839,-18.253922
1.438,19.711908,33.675568,40.842804,0.60832024,-15.953336,-18.332207
1.44,21.172377,33.834835,41.862846,0.26694775,-16.286995,-18.390564
1.442,22.653217,33.94231,42.85048,-0.07740402,-16.609564,-18.4281
1.444,24.153109,33.994225,43.806347,-0.4227171,-16.91866,-18.443966
1.446,25.670864,33.986603,44.731476,-0.76686287,-17.211903,-18.43729
1.448,27.20482,33.91584,45.627636,-1.1076126,-17.486982,-18.407152
1.45,28.75365,33.778587,46.496845,-1.4427509,-17.741835,-18.352648
1.452,30.3165,33.571865,47.341457,-1.7701178,-17.974827,-18.272842
1.454,31.891783,33.29329,48.164417,-2.0876331,-18.184721,-18.166777
1.456,33.478024,32.94114,48.969154,-2.3933592,-18.370779,-18.033554
1.458,35.074036,32.514442,49.75946,-2.6854963,-18.53281,-17.872425
1.46,36.678093,32.013504,50.539413,-2.9623709,-18.671124,-17.682793
1.462,38.288696,31.43874,51.313442,-3.2224922,-18.786425,-17.464241
1.464,39.90457,30.79183,52.085953,-3.464508,-18.879784,-17.216623
1.466,41.523476,30.075943,52.860897,-3.6872091,-18.952553,-16.940023
1.468,43.14316,29.294666,53.641808,-3.8894882,-19.006247,-16.634743
1.47,44.761166,28.452734,54.431473,-4.0702724,-19.042477,-16.30121
1.472,46.374428,27.556705,55.233154,-4.2285886,-19.062836,-15.939897
1.474,47.980167,26.614212,56.04933,-4.3635583,-19.068972,-15.5513
1.476,49.575047,25.633484,56.882217,-4.4743423,-19.062502,-15.13594
1.478,51.155926,24.624006,57.73307,-4.560226,-19.045103,-14.6944275
1.48,52.71982,23.59689,58.602997,-4.62061,-19.018526,-14.227512
1.482,54.263947,22.564478,59.49183,-4.655052,-18.98463,-13.736111
1.484,55.78683,21.540318,60.39895,-4.663313,-18.945417,-13.221396
1.486,57.286987,20.538042,61.323532,-4.645279,-18.902924,-12.684843
1.488,58.763474,19.573513,62.26383,-4.600977,-18.859167,-12.128091
1.49,60.217674,18.66098,63.218292,-4.5304184,-18.816109,-11.553049
1.492,61.650482,17.819231,64.184875,-4.433587,-18.77545,-10.96168
1.494,63.061966,17.068233,65.1618,-4.310447,-18.738615,-10.355851
1.496,64.45638,16.425348,66.14722,-4.1608872,-18.706636,-9.7372055
1.498,65.8394,15.907385,67.138054,-3.984692,-18.680105,-9.107117
1.5,67.21582,15.533707,68.13196,-3.7815528,-18.659203,-8.466604
1.502,68.59032,15.324665,69.12575,-3.5511444,-18.643679,-7.816303
1.504,69.97196,15.300714,70.11626,-3.2931328,-18.632832,-7.1564217
1.506,71.36964,15.483639,71.1016,-3.007188,-18.625551,-6.4868126
1.508,72.79098,15.898333,72.08,-2.6930194,-18.62043,-5.807085
1.51,74.24655,16.566605,73.05272,-2.3503938,-18.615711,-5.116538
1.512,75.73857,17.522673,74.01757,-1.9791534,-18.609365,-4.414207
1.514,77.284615,18.785168,74.974144,-1.5792774,-18.599218,-3.6988573
1.516,78.89169,20.388458,75.92978,-1.1509461,-18.583057,-2.9689732
1.518,80.55527,22.36321,76.88237,-0.69463253,-18.558867,-2.22285
1.52,82.271774,24.717543,77.819084,-0.21132225,-18.525024,-1.4585522
1.522,84.022095,27.481436,78.73576,0.29730672,-18.480413,-0.6737201
1.524,85.78456,30.68267,79.63106,0.8288894,-18.424547,0.13406736
1.526,87.5457,34.336914,80.516075,1.3802103,-18.357655,0.9672904
1.528,89.27971,38.445057,81.42649,1.947036,-18.280907,1.8288133
1.53,90.968636,43.01188,82.38164,2.5241895,-18.196545,2.7216325
1.532,92.57527,48.053352,83.38541,3.1059737,-18.107458,3.6483078
1.534,94.019394,53.585506,84.45471,3.6863246,-18.017258,4.6108193
1.536,95.30926,59.57382,85.63658,4.258978,-17.930027,5.610702
1.538,96.43852,65.989174,86.96652,4.817731,-17.849909,6.648623
1.54,97.45011,72.821495,88.4042,5.3566456,-17.781378,7.724305
1.542,98.32476,80.027725,89.974144,5.870922,-17.72803,8.83644
1.544,99.13268,87.56175,91.726234,6.3565845,-17.69264,9.984021
1.546,99.714424,95.396164,93.693954,6.8106637,-17.676353,11.166423
1.548,100.051155,103.46454,95.92359,7.2331724,-17.675537,12.382234
1.55,100.14006,111.68532,98.467384,7.6263,-17.684235,13.629626
1.552,99.9993,119.99997,101.32108,7.9942093,-17.693298,14.906127
1.554,99.633354,128.24724,104.64373,8.343097,-17.686937,16.209122
1.556,99.08302,136.33324,108.46092,8.679637,-17.64357,17.535744
1.558,98.38121,144.08066,112.74351,9.009873,-17.53672,18.8801
1.56,97.58575,151.34215,117.30032,9.34083,-17.331846,20.234093
1.562,96.83818,158.20378,122.16652,9.680147,-16.988964,21.58707
1.564,96.107254,164.71635,127.5773,10.030763,-16.462906,22.923296
1.566,95.68365,170.39189,133.60858,10.390877,-15.696364,24.242283
1.568,95.54248,175.12045,140.07092,10.75949,-14.613298,25.561726
1.57,95.80235,178.88182,146.9123,11.124024,-13.190817,26.852432
1.572,96.46762,181.61316,154.078,11.480758,-11.377533,28.097532
1.574,97.653824,183.27048,161.43971,11.820224,-9.1336155,29.29456
1.576,99.48248,183.78175,168.89919,12.1188545,-6.4592185,30.437355
1.578,102.05819,183.12888,176.31587,12.278899,-3.6111703,31.36131
1.58,105.44335,181.36867,183.50897,12.324947,-0.49898148,32.09659
1.582,109.645584,178.59386,190.28275,12.236537,2.7594252,32.568974
1.584,114.630356,174.90675,196.44977,11.984947,5.9831085,32.69047
1.586,120.37292,170.4043,201.82352,11.549213,8.941974,32.34669
1.588,126.83815,165.18327,206.20619,10.973091,11.562342,31.520975
1.59,133.93793,159.35887,209.40916,10.271034,13.607068,30.130196
1.592,141.52753,153.09312,211.26372,9.4870405,14.820236,28.01996
1.594,149.46626,146.52629,211.62224,8.74131,15.168615,25.040993
1.596,157.58755,139.77335,210.37863,8.088407,14.679672,21.187817
1.598,165.6919,132.96738,207.47806,7.58974,13.47033,16.584211
1.6,173.57738,126.247246,202.91595,7.3728857,11.7908535,11.435337
1.602,181.05063,119.74102,196.73517,7.55128,9.957293,6.0174336
1.604,187.91302,113.55523,189.0132,8.20636,8.313049,0.64288205
1.606,193.99365,107.78074,179.84778,9.377309,7.175091,-4.3780575
1.608,199.15733,102.49333,169.3848,11.040124,6.763442,-8.7927265
1.61,203.28714,97.75305,157.82037,13.100046,7.1567183,-12.456339
1.612,206.28787,93.60075,145.39813,15.393808,8.277256,-15.350321
1.614,208.09584,90.059425,132.38342,17.703651,9.908419,-17.567356
1.616,208.67844,87.14058,119.05026,19.785507,11.741058,-19.273853
1.618,208.04059,84.8378,105.67731,21.401854,13.422423,-20.658054
1.62,206.21667,83.13304,92.53531,22.35033,14.60956,-21.895443
1.622,203.27386,81.98872,79.881,22.488369,15.024672,-23.105888
1.624,199.28586,81.37331,67.943726,21.76206,14.53712,-24.29207
1.626,194.35641,81.23596,56.91478,20.191051,13.087299,-25.417301
1.628,188.6185,81.52931,46.95993,17.879421,10.737584,-26.414967
1.63,182.21791,82.21581,38.210487,14.998918,7.659415,-27.201046
1.632,175.2934,83.25664,30.736717,11.793442,4.2082543,-27.621284
1.634,168.00542,84.60939,24.572475,8.397415,0.39731646,-27.780842
1.636,160.49478,86.233055,19.701797,5.014656,-3.4894867,-27.698418
1.638,152.8956,88.09099,16.052608,1.8275366,-7.1924047,-27.442108
1.64,145.3161,90.13614,13.54641,-1.0291605,-10.502418,-27.092648
1.642,137.86931,92.308075,12.088264,-3.4973717,-13.372772,-26.789791
1.644,130.68054,94.54972,11.544991,-5.4999228,-15.59684,-26.5338
1.646,123.77189,96.84413,11.746475,-7.0115037,-17.033524,-26.238369
1.648,117.18219,99.15423,12.534752,-8.066429,-17.741077,-25.82303
1.65,110.91145,101.418945,13.812099,-8.634421,-17.735178,-25.288536
1.652,105.020706,103.6076,15.407421,-8.731555,-17.045908,-24.636702
1.654,99.48806,105.681465,17.14626,-8.4464035,-15.764747,-23.835302
1.656,94.48628,107.58546,18.89484,-7.8477826,-13.996193,-22.859554
1.658,90.00243,109.30083,20.528442,-6.995908,-11.867151,-21.712519
1.66,86.00464,110.816666,21.946411,-5.9559946,-9.524789,-20.436369
1.662,82.447784,112.096405,23.120441,-4.7936983,-7.115359,-19.101397
1.664,79.30653,113.18941,23.900154,-3.5757542,-4.7756515,-17.788914
1.666,76.52547,114.0626,24.31012,-2.369298,-2.6309688,-16.581697
1.668,74.06767,114.75464,24.417953,-1.2420216,-0.79486096,-15.559795
1.67,71.8806,115.25737,24.39405,-0.25789165,0.64002705,-14.788129
1.672,69.85906,115.384636,24.154488,0.5303087,1.6145116,-14.306662
1.674,68.07075,115.07985,23.498348,1.0840011,2.1037676,-14.12348
1.676,66.293434,114.75909,22.457066,1.3787193,2.1128187,-14.212915
1.678,64.64337,114.37321,21.28104,1.4044361,1.6750755,-14.523796
1.68,63.066525,113.83062,20.016262,1.1666098,0.84674835,-14.990622
1.682,61.606354,113.130646,18.695183,0.68352604,-0.30133915,-15.542128
1.684,60.181335,112.28173,17.394444,-0.0166049,-1.6876435,-16.108974
1.686,58.72135,111.336075,16.131329,-0.8987069,-3.2248266,-16.630112
1.688,57.18367,110.3073,14.94389,-1.9223957,-4.827104,-17.056278
1.69,55.56306,109.169685,13.878212,-3.0431733,-6.413365,-17.353138
1.692,53.884773,107.90928,12.962597,-4.2147408,-7.907042,-17.501915
1.694,52.178978,106.54156,12.196548,-5.391753,-9.242886,-17.496964
1.696,50.434097,105.11008,11.571266,-6.5332947,-10.373727,-17.344002
1.698,48.63176,103.66492,11.085659,-7.605019,-11.269915,-17.056425
1.7,46.786674,102.23812,10.731346,-8.580304,-11.916531,-16.650335
1.702,44.936806,100.82417,10.491764,-9.440863,-12.311846,-16.142029
1.704,43.086754,99.445625,10.349659,-10.176659,-12.46652,-15.548592
1.706,41.249226,98.13797,10.27549,-10.785142,-12.401689,-14.889737
1.708,39.451347,96.9021,10.2318,-11.269295,-12.145897,-14.1880665
1.71,37.705814,95.7272,10.182453,-11.636432,-11.732238,-13.466766
1.712,36.014793,94.6009,10.100208,-11.897149,-11.195494,-12.747587
1.714,34.390144,93.520134,9.976166,-12.063756,-10.570145,-12.050121
1.716,32.82362,92.48299,9.823952,-12.149874,-9.889711,-11.388842
1.718,31.29725,91.48423,9.645592,-12.170048,-9.185377,-10.773157
1.72,29.807798,90.51493,9.42927,-12.138729,-8.483712,-10.20911
1.722,28.360203,89.569275,9.154812,-12.068394,-7.8057904,-9.699363
1.724,26.957186,88.64381,8.813438,-11.970963,-7.169533,-9.243934
1.726,25.602066,87.73184,8.407719,-11.857801,-6.5894804,-8.840193
1.728,24.294138,86.83133,7.94458,-11.739214,-6.076443,-8.4831915
1.73,23.032307,85.94383,7.4340935,-11.624242,-5.6381474,-8.166641
1.732,21.81781,85.07044,6.8908443,-11.520508,-5.279357,-7.883544
1.734,20.653498,84.21327,6.3313923,-11.433988,-5.0018406,-7.626928
1.736,19.541363,83.371544,5.7724876,-11.36879,-4.8044395,-7.3903646
1.738,18.475155,82.54311,5.2277737,-11.327259,-4.683515,-7.168615
1.74,17.443024,81.72988,4.7094154,-11.309891,-4.6334124,-6.9578233
1.742,16.453403,80.911156,4.2308216,-11.315596,-4.6468577,-6.755251
1.744,15.486723,80.081566,3.7936192,-11.341857,-4.7150345,-6.55892
1.746,14.533095,79.245766,3.399805,-11.385206,-4.828409,-6.3675184
1.748,13.593262,78.40869,3.054472,-11.441605,-4.977344,-6.180261
1.75,12.671069,77.572975,2.7591362,-11.506656,-5.152572,-5.9965844
1.752,11.7662115,76.74154,2.5162506,-11.575951,-5.3456116,-5.816097
1.754,10.877997,75.915825,2.3267574,-11.645175,-5.5489798,-5.6384573
1.756,10.004933,75.097755,2.1891613,-11.710244,-5.75624,-5.4632463
1.758,9.146135,74.28798,2.100029,-11.76742,-5.9618945,-5.28985
1.76,8.299292,73.48709,2.0538568,-11.813337,-6.1612415,-5.117398
1.762,7.464739,72.69478,2.0424938,-11.844972,-6.35011,-4.944852
1.764,6.641267,71.912254,2.05544,-11.859709,-6.524767,-4.7711334
1.766,5.82965,71.13876,2.0815744,-11.855312,-6.681754,-4.595264
1.768,5.02899,70.37476,2.1107092,-11.830041,-6.817734,-4.4164634
1.77,4.240962,69.61805,2.1316023,-11.782669,-6.9294662,-4.2342234
1.772,3.466385,68.868065,2.1324253,-11.712646,-7.0139284,-4.0484476
1.774,2.7067947,68.12417,2.1017609,-11.620106,-7.068468,-3.8594236
1.776,1.9650946,67.385025,2.0296555,-11.505905,-7.0909567,-3.6678314
1.778,1.2437,66.649376,1.9082432,-11.371515,-7.079853,-3.4747505
1.78,0.5447054,65.915695,1.7312336,-11.218918,-7.0343423,-3.28157
1.782,-0.13009405,65.181625,1.4938846,-11.05051,-6.954431,-3.0899816
1.784,-0.7796483,64.44428,1.192503,-10.869023,-6.8410006,-2.901888
1.786,-1.4027495,63.700356,0.8245635,-10.677248,-6.6957617,-2.719223
1.788,-1.9982262,62.946957,0.3886428,-10.478025,-6.5212407,-2.5438547
1.79,-2.5647209,62.18176,-0.11508989,-10.2740555,-6.320631,-2.3775082
1.792,-3.1010308,61.4033,-0.6856041,-10.067799,-6.0976257,-2.2216063
1.794,-3.6057172,60.610256,-1.3202968,-9.861444,-5.856194,-2.077273
1.796,-4.077569,59.80142,-2.0158026,-9.656797,-5.600395,-1.9453554
1.798,-4.515702,58.975956,-2.7671766,-9.455333,-5.334179,-1.8263102
1.8,-4.9201183,58.13298,-3.5685663,-9.258174,-5.0613346,-1.7202544
1.802,-5.2900186,57.27127,-4.4136324,-9.066155,-4.7854147,-1.6270039
1.804,-5.6250963,56.38981,-5.294795,-8.879883,-4.509655,-1.5461156
1.806,-5.92561,55.488037,-6.204079,-8.699658,-4.237006,-1.4769135
1.808,-6.1921883,54.566143,-7.133081,-8.525599,-3.970163,-1.4185214
1.81,-6.4258595,53.624897,-8.073744,-8.357585,-3.711526,-1.3699694
1.812,-6.627454,52.664776,-9.019079,-8.195291,-3.4632223,-1.3301718
1.814,-6.7981114,51.686546,-9.962355,-8.038142,-3.227053,-1.2980039
1.816,-6.9393578,50.69149,-10.897383,-7.8853416,-3.004624,-1.2722669
1.818,-7.0524583,49.681053,-11.818332,-7.735826,-2.7973483,-1.2517436
1.82,-7.139422,48.656895,-12.720217,-7.58827,-2.6063128,-1.2352359
1.822,-7.202064,47.620884,-13.598793,-7.4410424,-2.4321709,-1.221585
1.824,-7.2423925,46.574936,-14.451109,-7.292165,-2.275015,-1.2096651
1.826,-7.26302,45.52136,-15.275327,-7.139386,-2.134287,-1.1983597
1.828,-7.265995,44.462097,-16.070122,-6.980225,-2.0087278,-1.1866021
1.83,-7.2542653,43.399277,-16.83453,-6.8120594,-1.8963406,-1.1733406
1.832,-7.230489,42.334896,-17.568485,-6.6322517,-1.7943608,-1.1575003
1.834,-7.197399,41.27091,-18.2729,-6.4383717,-1.699486,-1.1379709
1.836,-7.157413,40.209435,-18.949436,-6.2283926,-1.6081499,-1.113696
1.838,-7.1129956,39.152573,-19.599503,-6.0008025,-1.5167723,-1.0837238
1.84,-7.0665865,38.102493,-20.224659,-5.754815,-1.4221071,-1.0472742
1.842,-7.0203648,37.061214,-20.826363,-5.490452,-1.3215984,-1.0037836
1.844,-6.976302,36.03086,-21.405676,-5.2086143,-1.2135515,-0.9529233
1.846,-6.9362316,35.013565,-21.963484,-4.910994,-1.0972224,-0.8946495
1.848,-6.9017906,34.01147,-22.499996,-4.6000004,-0.9729014,-0.8290607
1.85,-6.8741684,33.02639,-23.014858,-4.278556,-0.84181494,-0.7564299
1.852,-6.8545284,32.060307,-23.50711,-3.949894,-0.7059446,-0.67710567
1.854,-6.8440533,31.115316,-23.975163,-3.6173315,-0.5678302,-0.5913794
1.856,-6.8433037,30.193228,-24.41681,-3.284103,-0.43038827,-0.49942958
1.858,-6.8527136,29.29608,-24.829174,-2.9531574,-0.2966987,-0.40127134
1.86,-6.872444,28.425678,-25.208782,-2.6270988,-0.16985153,-0.2968034
1.862,-6.902418,27.584091,-25.552372,-2.308053,-0.052830666,-0.18586117
1.864,-6.942276,26.773233,-25.856602,-1.997679,0.051510096,-0.06832218
1.866,-6.9913282,25.995102,-26.118233,-1.6971433,0.14063023,0.055786252
1.868,-7.0484343,25.251648,-26.3339,-1.4071169,0.21244672,0.18625706
1.87,-7.112315,24.544878,-26.500423,-1.1277788,0.26555145,0.32266113
1.872,-7.1820164,23.876429,-26.615223,-0.8589021,0.29923394,0.46436965
1.874,-7.255707,23.248112,-26.676147,-0.5998899,0.31341165,0.6106552
1.876,-7.3316107,22.661444,-26.681648,-0.3498565,0.30863225,0.7607599
1.878,-7.4079666,22.11805,-26.630758,-0.10772461,0.28601202,0.9139623
1.88,-7.482815,21.619158,-26.523132,0.12770584,0.24711728,1.0696588
1.882,-7.553941,21.16589,-26.358894,0.35761887,0.1937765,1.2273395
1.884,-7.619401,20.759155,-26.138554,0.5830655,0.12784775,1.3866119
1.886,-7.677558,20.399797,-25.8631,0.80485594,0.051028177,1.5471301
1.888,-7.726185,20.088394,-25.534496,1.0235559,-0.035214573,1.7085598
1.89,-7.763074,19.825258,-25.154953,1.2394339,-0.1296789,1.8705828
1.892,-7.7865343,19.610865,-24.726494,1.452421,-0.23155814,2.0328074
1.894,-7.7942657,19.445078,-24.250786,1.6621587,-0.34042677,2.1946878
1.896,-7.7847576,19.327543,-23.729298,1.868098,-0.45615137,2.355491
1.898,-7.756592,19.257574,-23.163956,2.0695412,-0.57891977,2.5142794
1.9,-7.7085085,19.234438,-22.556889,2.2657092,-0.7091807,2.6699708
1.902,-7.639267,19.256927,-21.909832,2.4558663,-0.84750795,2.8213508
1.904,-7.5481043,19.323887,-21.224678,2.6393273,-0.9945576,2.967173
1.906,-7.4344807,19.433985,-20.502981,2.8155298,-1.1509944,3.1062293
1.908,-7.29795,19.585651,-19.746815,2.984073,-1.3174088,3.23736
1.91,-7.1380033,19.77698,-18.958134,3.1447403,-1.4941957,3.359593
1.912,-6.9553194,20.006527,-18.1383,3.297488,-1.6814966,3.4721408
1.914,-6.7508016,20.272846,-17.289524,3.4424603,-1.8791778,3.5744276
1.916,-6.5242105,20.573502,-16.413706,3.5799305,-2.086871,3.666068
1.918,-6.2755156,20.906258,-15.512526,3.7102892,-2.3039207,3.7468836
1.92,-6.0058384,21.26891,-14.587277,3.8340266,-2.5294213,3.8168278
1.922,-5.7162886,21.65949,-13.639229,3.9517138,-2.7622528,3.875977
1.924,-5.4081697,22.075878,-12.670155,4.063979,-3.0011106,3.924489
1.926,-5.082952,22.516037,-11.681736,4.1715126,-3.2444894,3.9625592
1.928,-4.742072,22.978003,-10.676182,4.2750506,-3.4907262,3.9903665
1.93,-4.387059,23.459833,-9.655695,4.375369,-3.7380447,4.0080795
1.932,-4.0194507,23.959623,-8.622795,4.4732466,-3.984608,4.0158753
1.934,-3.6409693,24.47555,-7.5799656,4.5694666,-4.228541,4.0138555
1.936,-3.253058,25.005816,-6.5296183,4.6647687,-4.4680185,4.0021763
1.938,-2.8576417,25.54895,-5.4743643,4.759843,-4.7013264,3.9809763
1.94,-2.4563446,26.103447,-4.4167557,4.8552866,-4.9269814,3.9504235
1.942,-2.050799,26.66783,-3.3591409,4.9515486,-5.1437864,3.9107175
1.944,-1.642581,27.240665,-2.3040218,5.0489073,-5.3509154,3.8620946
1.946,-1.2334013,27.820484,-1.2538426,5.1474824,-5.5479093,3.804867
1.948,-0.8248763,28.406042,-0.21111059,5.247218,-5.7347283,3.7394257
1.95,-0.41826105,28.996075,0.8222499,5.3478775,-5.911674,3.6662314
1.952,-0.014816761,29.589296,1.8443726,5.4490795,-6.0793843,3.5858078
1.954,0.38432193,30.184639,2.8536754,5.550318,-6.2387743,3.4986973
1.956,0.7783494,30.780834,3.848637,5.6509886,-6.3909254,3.4055054
1.958,1.1666837,31.376913,4.828066,5.7504663,-6.537012,3.3068435
1.96,1.5486994,31.971869,5.791151,5.8480988,-6.6782265,3.203327
1.962,1.9241891,32.56458,6.7372036,5.9432693,-6.8156757,3.0956101
1.964,2.2932248,33.15413,7.665627,6.035434,-6.95033,2.984348
1.966,2.6558545,33.739647,8.576093,6.124131,-7.0829177,2.8702126
1.968,3.0123963,34.320393,9.468339,6.209029,-7.213857,2.753881
1.97,3.3632421,34.895504,10.342146,6.2899604,-7.3432236,2.6360214
1.972,3.7087672,35.46418,11.19757,6.3669,-7.470776,2.5172398
1.974,4.049464,36.02572,12.034425,6.4399557,-7.595931,2.3981278
1.976,4.385776,36.579575,12.852945,6.509344,-7.717823,2.2792535
1.978,4.718148,37.125168,13.653149,6.5753827,-7.835342,2.161185
1.98,5.047393,37.66197,14.43523,6.6384516,-7.9472103,2.0444674
1.982,5.3741937,38.1896,15.199414,6.698945,-8.052123,1.929633
1.984,5.6989903,38.70755,15.945882,6.7572627,-8.148764,1.8171604
1.986,6.0224123,39.215572,16.674757,6.813796,-8.235905,1.707483
1.988,6.344878,39.71328,17.386024,6.8688917,-8.312491,1.6009672
1.99,6.6668077,40.200554,18.079744,6.9228506,-8.377704,1.4978576
1.992,6.988246,40.677135,18.755846,6.9758625,-8.431018,1.398277
1.994,7.309477,41.1427,19.414265,7.0280447,-8.472188,1.302186
1.996,7.630729,41.5971,20.054754,7.0794196,-8.501255,1.2094142
1.998,7.9515643,42.04016,20.677132,7.129904,-8.518491,1.1196876
2,8.2720995,42.47138,21.2811,7.17929,-8.524406,1.0326161
2.002,8.591892,42.890327,21.866518,7.227306,-8.5196,0.9478018
2.004,8.910444,43.29659,22.433184,7.2736263,-8.504695,0.8648666
2.006,9.22708,43.689777,22.980608,7.317881,-8.480301,0.7834599
2.008,9.541256,44.069122,23.508415,7.359707,-8.446896,0.70333576
2.01,9.852399,44.43384,24.01598,7.398783,-8.404814,0.6242939
2.012,10.159498,44.783245,24.502377,7.434858,-8.354219,0.5462418
2.014,10.462055,45.116272,24.96697,7.4677677,-8.295069,0.4691459
2.016,10.759243,45.43204,25.408602,7.4974356,-8.227145,0.39299446
2.018,11.050135,45.729465,25.82623,7.523887,-8.150106,0.31781876
2.02,11.334005,46.007645,26.218653,7.5471897,-8.063553,0.24365756
2.022,11.610126,46.265312,26.584396,7.567442,-7.9671116,0.17058367
2.024,11.877871,46.501495,26.922222,7.5847263,-7.860467,0.09869468
2.026,12.136703,46.715122,27.230572,7.5990715,-7.743458,0.028076291
2.028,12.385791,46.905315,27.507887,7.6104574,-7.6161175,-0.041213393
2.03,12.625049,47.07105,27.752583,7.6187544,-7.4787455,-0.109146
2.032,12.854128,47.21176,27.96319,7.623742,-7.331895,-0.17574751
2.034,13.072977,47.326935,28.13819,7.62513,-7.1763573,-0.24108565
2.036,13.281495,47.416344,28.276205,7.6225457,-7.0131474,-0.30535614
2.038,13.479775,47.480095,28.375935,7.6155615,-6.843459,-0.36886203
2.04,13.668298,47.518375,28.436237,7.603737,-6.6686144,-0.43201423
2.042,13.847481,47.53173,28.456268,7.5866494,-6.4899435,-0.49529028
2.044,14.01802,47.521057,28.435318,7.5639157,-6.3087306,-0.55919516
2.046,14.180641,47.48716,28.372766,7.535233,-6.1262045,-0.62422824
2.048,14.336267,47.431377,28.268448,7.500373,-5.94347,-0.69080484
2.05,14.485751,47.35518,28.122225,7.4592004,-5.7614803,-0.75926256
2.052,14.630108,47.260178,27.934196,7.4116507,-5.581043,-0.8298093
2.054,14.770372,47.148064,27.70487,7.3577256,-5.402874,-0.9025396
2.056,14.907785,47.02108,27.435135,7.2974563,-5.2276106,-0.977499
2.058,15.043357,46.881058,27.126022,7.2308893,-5.0558577,-1.0546494
2.06,15.178158,46.730133,26.778805,7.158086,-4.8882456,-1.1339167
2.062,15.313206,46.570477,26.395157,7.0790806,-4.7254944,-1.2152644
2.064,15.449333,46.404217,25.977024,6.993889,-4.56841,-1.2986777
2.066,15.587464,46.23339,25.526648,6.902508,-4.4178915,-1.3842049
2.068,15.728109,46.059868,25.04668,6.804938,-4.274948,-1.4719342
2.07,15.871792,45.885414,24.539783,6.701177,-4.1406784,-1.561988
2.072,16.01899,45.711758,24.008997,6.5912724,-4.0161877,-1.654528
2.074,16.169779,45.54023,23.457615,6.4753256,-3.9025302,-1.7496992
2.076,16.324343,45.37203,22.888945,6.3535204,-3.8006806,-1.8476577
2.078,16.482372,45.208138,22.306623,6.2261467,-3.7114935,-1.9485655
2.08,16.643663,45.049297,21.714294,6.093589,-3.6356373,-2.052529
2.082,16.807976,44.896034,21.115656,5.956318,-3.5736017,-2.1596239
2.084,16.974651,44.748722,20.514421,5.8148956,-3.5256648,-2.269902
2.086,17.142965,44.607384,19.914011,5.669923,-3.491925,-2.383367
2.088,17.312416,44.47214,19.31793,5.522032,-3.472341,-2.499949
2.09,17.481863,44.342827,18.729362,5.371855,-3.4667153,-2.619484
2.092,17.650362,44.219353,18.15126,5.2200074,-3.4747772,-2.7417457
2.094,17.817034,44.101288,17.586376,5.067025,-3.496191,-2.8664443
2.096,17.980698,43.98817,17.037374,4.913377,-3.5306182,-2.9932516
2.098,18.140535,43.879463,16.506575,4.7594314,-3.5776987,-3.1217883
2.1,18.295383,43.774563,15.99606,4.605459,-3.637073,-3.2516503
2.102,18.444414,43.672718,15.507683,4.4516315,-3.7084017,-3.3824263
2.104,18.586718,43.573063,15.043037,4.2980423,-3.7913496,-3.5137186
2.106,18.721272,43.474648,14.603378,4.1447754,-3.885562,-3.6451359
2.108,18.847494,43.376507,14.189803,3.9918633,-3.990617,-3.7763002
2.11,18.964224,43.277878,13.803161,3.839351,-4.1060286,-3.9068737
2.112,19.070704,43.177883,13.443962,3.6873019,-4.2312026,-4.036564
2.114,19.166225,43.07521,13.11274,3.5358224,-4.365415,-4.1651154
2.116,19.25018,42.96862,12.80972,3.3850746,-4.5078254,-4.292304
2.118,19.321596,42.85716,12.534982,3.235249,-4.6574936,-4.4179087
2.12,19.37985,42.73963,12.28842,3.0866137,-4.813391,-4.541744
2.122,19.424444,42.61482,12.070044,2.93948,-4.9744277,-4.663606
2.124,19.454674,42.481747,11.87922,2.794196,-5.1394577,-4.7833076
2.126,19.469975,42.339207,11.71551,2.6511283,-5.3073077,-4.900613
2.128,19.470081,42.186264,11.578272,2.5107076,-5.476783,-5.0152626
2.13,19.454435,42.022106,11.466534,2.3733938,-5.6466904,-5.126931
2.132,19.42258,41.845993,11.379227,2.2396846,-5.815825,-5.2352343
2.134,19.374413,41.657246,11.315148,2.1100879,-5.9830084,-5.3397474
2.136,19.309494,41.4554,11.272957,1.9851351,-6.147053,-5.4400253
2.138,19.227814,41.240067,11.251165,1.8653576,-6.3067794,-5.5356064
2.14,19.129269,41.01112,11.248098,1.7512913,-6.46105,-5.626066
2.142,19.013874,40.768593,11.262266,1.6434262,-6.608782,-5.711027
2.144,18.881605,40.51255,11.292076,1.5422261,-6.748956,-5.7901545
2.146,18.732832,40.24339,11.335768,1.44807,-6.8806267,-5.8631988
2.148,18.567621,39.961746,11.391687,1.3612995,-7.002952,-5.929986
2.15,18.386204,39.668365,11.458154,1.2821858,-7.1151733,-5.9903946
2.152,18.189068,39.364044,11.533487,1.2109406,-7.2166467,-6.0443935
2.154,17.976637,39.049786,11.616133,1.147713,-7.306844,-6.0919905
2.156,17.74942,38.726738,11.704434,1.0926015,-7.385316,-6.133277
2.158,17.508041,38.395813,11.797066,1.0456588,-7.4517,-6.1683617
2.16,17.253347,38.058212,11.892475,1.0069056,-7.5056906,-6.1974
2.162,16.986147,37.71516,11.989239,0.97634673,-7.5470176,-6.2205687
2.164,16.70732,37.36812,12.086056,0.95397735,-7.5754585,-6.238064
2.166,16.417818,37.018166,12.181586,0.93978834,-7.590805,-6.250079
2.168,16.119041,36.666607,12.274649,0.93376946,-7.5928516,-6.256795
2.17,15.811974,36.314644,12.364048,0.9358785,-7.581455,-6.2583656
2.172,15.498013,35.963295,12.448662,0.94607234,-7.556505,-6.2549243
2.174,15.178511,35.61357,12.52752,0.9642465,-7.517975,-6.246558
2.176,14.854807,35.266354,12.599859,0.99026203,-7.4659367,-6.233341
2.178,14.528284,34.92244,12.664754,1.0239213,-7.4006033,-6.2153163
2.18,14.2004795,34.58256,12.721453,1.0649354,-7.322347,-6.1925707
2.182,13.872706,34.247116,12.769434,1.1129029,-7.2317233,-6.1651983
2.184,13.54646,33.91668,12.808204,1.1673355,-7.129458,-6.133358
2.186,13.223057,33.591625,12.837384,1.22767,-7.0164304,-6.097266
2.188,12.903704,33.272186,12.856712,1.2932694,-6.8936186,-6.057204
2.19,12.589621,32.958645,12.8662,1.3634546,-6.7621164,-6.0135255
2.192,12.282071,32.651066,12.865769,1.4375286,-6.623046,-5.9666185
2.194,11.982016,32.349434,12.855675,1.5147943,-6.4774966,-5.916938
2.196,11.690512,32.05371,12.836163,1.5946246,-6.326452,-5.8649635
2.198,11.408037,31.763958,12.807461,1.6764762,-6.1708074,-5.8112016
2.2,11.135421,31.480047,12.769896,1.7599351,-6.0112967,-5.756157
2.202,10.873262,31.20186,12.724115,1.8446779,-5.8484917,-5.700335
2.204,10.621949,30.929403,12.670572,1.930515,-5.6828003,-5.6441855
2.206,10.381861,30.662632,12.609834,2.0173602,-5.5144935,-5.58813
2.208,10.153092,30.40168,12.542483,2.1052382,-5.3437214,-5.532503
2.21,9.935734,30.146507,12.469045,2.1942282,-5.170559,-5.4775324
2.212,9.729941,29.897339,12.390044,2.2844524,-4.9950576,-5.423411
2.214,9.535534,29.65438,12.305967,2.3760433,-4.817259,-5.3702316
2.216,9.352376,29.417845,12.217312,2.4691224,-4.6372824,-5.3180366
2.218,9.180237,29.188143,12.124417,2.5637567,-4.455273,-5.2668085
2.22,9.018961,28.965551,12.02766,2.6599643,-4.2714386,-5.2164993
2.222,8.868377,28.750452,11.927326,2.7576962,-4.0860653,-5.16705
2.224,8.728112,28.543303,11.823547,2.8568614,-3.8994784,-5.1183934
2.226,8.597679,28.344582,11.71645,2.9572918,-3.7120667,-5.0704412
2.228,8.47695,28.154692,11.606131,3.0587845,-3.5242515,-5.0231137
2.23,8.365324,27.973974,11.492649,3.161096,-3.336488,-4.976335
2.232,8.262338,27.802938,11.375898,3.2639992,-3.1492293,-4.9300065
2.234,8.167544,27.641684,11.255953,3.3672628,-2.9629648,-4.884064
2.236,8.080326,27.4906,11.132783,3.470667,-2.7781754,-4.838432
2.238,8.000109,27.349894,11.006194,3.5739877,-2.5953636,-4.7930512
2.24,7.926416,27.219503,10.8764,3.6770325,-2.41505,-4.747889
2.242,7.858648,27.099571,10.743409,3.779626,-2.2377763,-4.7029533
2.244,7.7962255,26.99003,10.607196,3.8815799,-2.0640867,-4.658277
2.246,7.7386093,26.89074,10.467866,3.982719,-1.894545,-4.613929
2.248,7.68534,26.801474,10.325701,4.0828667,-1.7297394,-4.56999
2.25,7.635806,26.721855,10.180784,4.1818237,-1.570267,-4.52657
2.252,7.5894,26.651396,10.03314,4.279397,-1.4167006,-4.4837627
2.254,7.545885,26.589529,9.882944,4.3753977,-1.2695758,-4.441666
2.256,7.5045204,26.535547,9.730448,4.4696646,-1.1293955,-4.4003525
2.258,7.4650836,26.488659,9.575917,4.5620446,-0.99658495,-4.3598604
2.26,7.427147,26.447927,9.419619,4.65243,-0.871497,-4.320202
2.262,7.3903627,26.412498,9.261758,4.740714,-0.75438905,-4.2813497
2.264,7.3544254,26.381247,9.1026,4.826828,-0.64545476,-4.24326
2.266,7.319127,26.353235,8.942522,4.9106946,-0.54480255,-4.205837
2.268,7.284033,26.327429,8.781616,4.992231,-0.4524792,-4.16899
2.27,7.248942,26.302723,8.620361,5.07135,-0.36847192,-4.132629
2.272,7.213547,26.278067,8.458997,5.1479216,-0.29276907,-4.0966654
2.274,7.177724,26.252354,8.297791,5.221774,-0.22535436,-4.061011
2.276,7.1414924,26.224455,8.136958,5.2926917,-0.16619904,-4.0256042
2.278,7.1043487,26.19362,7.97678,5.3603992,-0.11528036,-3.9903812
2.28,7.06638,26.158827,7.8175154,5.4246016,-0.072592996,-3.955299
2.282,7.0274677,26.119547,7.659345,5.4849844,-0.038141172,-3.920313
2.284,6.9873643,26.075045,7.5024414,5.54123,-0.011893616,-3.8853657
2.286,6.9461656,26.024948,7.34692,5.593029,0.006193161,-3.8504233
2.288,6.903993,25.96876,7.193054,5.6401596,0.016195789,-3.8154383
2.29,6.8607397,25.906271,7.0410995,5.6824207,0.018229589,-3.7803926
2.292,6.81639,25.83738,6.8910885,5.7197247,0.012465447,-3.7452846
2.294,6.7710247,25.761997,6.743249,5.752034,-0.00090262294,-3.7101386
2.296,6.7246847,25.680033,6.5976753,5.779395,-0.021611929,-3.6750224
2.298,6.677471,25.59165,6.4545493,5.8019238,-0.049370915,-3.6400428
2.3,6.629478,25.49688,6.313834,5.819788,-0.0838317,-3.6053486
2.302,6.5807433,25.396057,6.175684,5.833193,-0.124635875,-3.5711248
2.304,6.531347,25.289299,6.0400677,5.842373,-0.17138895,-3.537587
2.306,6.4814076,25.176836,5.9070296,5.8475685,-0.22368369,-3.5049372
2.308,6.431118,25.058914,5.776524,5.849027,-0.2811156,-3.473383
2.31,6.3806896,24.935843,5.648532,5.846983,-0.34326035,-3.4431248
2.312,6.3301334,24.807898,5.522713,5.8416834,-0.40969843,-3.4143302
2.314,6.279714,24.675388,5.3989773,5.8333426,-0.47999328,-3.3871207
2.316,6.229571,24.538563,5.2769446,5.8221664,-0.5537094,-3.3615863
2.318,6.1798396,24.397652,5.1564937,5.808355,-0.630402,-3.3377624
2.32,6.1307163,24.252995,5.0372667,5.7920933,-0.7096057,-3.315636
2.322,6.0823603,24.10479,4.9190435,5.773547,-0.7908593,-3.2951336
2.324,6.0349236,23.953314,4.8015924,5.752859,-0.8736999,-3.2761633
2.326,5.988637,23.798721,4.684803,5.730165,-0.95768684,-3.2586036
2.328,5.943473,23.641249,4.568424,5.7055674,-1.0424031,-3.242314
2.33,5.899557,23.481052,4.45239,5.6791368,-1.1274698,-3.2271402
2.332,5.8570156,23.31824,4.336603,5.6509094,-1.2125788,-3.2129304
2.334,5.815791,23.153036,4.2211313,5.6208706,-1.2974926,-3.199553
2.336,5.776126,22.985474,4.1060524,5.5889626,-1.3820481,-3.1868906
2.338,5.73781,22.815643,3.9915826,5.5551214,-1.4661831,-3.1748638
2.34,5.7011437,22.643667,3.8779757,5.5192184,-1.5499117,-3.1634598
2.342,5.6659336,22.469551,3.765608,5.4810963,-1.6333535,-3.1527045
2.344,5.6322985,22.293344,3.6548574,5.440602,-1.7166871,-3.1426744
2.346,5.600259,22.1149,3.5461571,5.397569,-1.8001502,-3.133481
2.348,5.569584,21.93417,3.4400046,5.3518515,-1.883996,-3.1252408
2.35,5.540149,21.751091,3.3367891,5.3033047,-1.9685034,-3.1180716
2.352,5.511977,21.565413,3.237209,5.251816,-2.0539093,-3.1120758
2.354,5.484783,21.37702,3.141645,5.1973157,-2.140439,-3.1073174
2.356,5.458439,21.185705,3.05064,5.139741,-2.2282627,-3.1038165
2.358,5.4327593,20.99124,2.9645302,5.0790772,-2.3174822,-3.101584
2.36,5.4075413,20.79342,2.88375,5.015334,-2.4081454,-3.1005898
2.362,5.382661,20.592133,2.808619,4.9485426,-2.5002348,-3.1008096
2.364,5.3578653,20.38725,2.739325,4.878767,-2.5937037,-3.1021888
2.366,5.333174,20.178553,2.6761527,4.806082,-2.6884425,-3.104661
2.368,5.3082485,19.96594,2.6190243,4.73063,-2.7843342,-3.1081853
2.37,5.2829957,19.749355,2.5679736,4.6525583,-2.8812218,-3.112721
2.372,5.2571373,19.528822,2.5229216,4.572043,-2.9789205,-3.1182404
2.374,5.2304573,19.304424,2.4838355,4.489295,-3.0772429,-3.1247077
2.376,5.2030406,19.076012,2.4504626,4.4045277,-3.1759837,-3.1320949
2.378,5.1746874,18.843903,2.4225802,4.3179693,-3.274908,-3.1403549
2.38,5.1451225,18.608131,2.399816,4.2298665,-3.3737683,-3.149439
2.382,5.1144147,18.368885,2.381947,4.140456,-3.4723244,-3.1593027
2.384,5.0824027,18.126415,2.368622,4.049979,-3.5703669,-3.1698914
2.386,5.0488605,17.881096,2.3595004,3.9586854,-3.6676822,-3.1811552
2.388,5.0140486,17.633034,2.354186,3.8668191,-3.764093,-3.193028
2.39,4.977721,17.382763,2.3523295,3.7745986,-3.8594537,-3.205448
2.392,4.939929,17.130505,2.3535924,3.6822329,-3.9536242,-3.2183537
2.394,4.9006653,16.876707,2.3576684,3.5899477,-4.0464687,-3.2316523
2.396,4.8598623,16.621819,2.3642962,3.497952,-4.1378403,-3.2452626
2.398,4.8173475,16.366287,2.3731732,3.4064412,-4.227601,-3.259099
2.4,4.773274,16.110489,2.384017,3.315588,-4.3155823,-3.2730503
2.402,4.7275715,15.854813,2.3966603,3.2255573,-4.401593,-3.286995
2.404,4.680196,15.599819,2.4108815,3.1365082,-4.485402,-3.300809
2.406,4.6310954,15.345949,2.4264483,3.048567,-4.566785,-3.3143353
2.408,4.580283,15.093752,2.4431782,2.961852,-4.6454697,-3.3274066
2.41,4.527658,14.843542,2.4609857,2.87648,-4.721183,-3.33985
2.412,4.4732056,14.595723,2.4796212,2.792523,-4.7936816,-3.3514752
2.414,4.4168663,14.350838,2.499,2.7100768,-4.8627276,-3.3620934
2.416,4.358334,14.109248,2.5191135,2.629232,-4.928096,-3.3715386
2.418,4.297503,13.871351,2.5399625,2.550075,-4.989563,-3.3796854
2.42,4.2341747,13.637391,2.5614579,2.4726958,-5.046938,-3.386443
2.422,4.168288,13.407731,2.5834968,2.3971837,-5.1000147,-3.3917098
2.424,4.099743,13.182497,2.6060162,2.3236573,-5.148614,-3.3954277
2.426,4.0282946,12.962046,2.6291575,2.2522345,-5.192548,-3.3975315
2.428,3.9537373,12.746649,2.6529388,2.1830347,-5.231632,-3.3979778
2.43,3.876118,12.536416,2.677382,2.1162148,-5.265683,-3.3967116
2.432,3.7951565,12.331614,2.7024238,2.0519338,-5.29454,-3.3936539
2.434,3.7109191,12.13232,2.7280636,1.9903249,-5.318048,-3.3887281
2.436,3.6233344,11.938656,2.754036,1.9315494,-5.3360767,-3.3818448
2.438,3.532505,11.750664,2.7804866,1.8757615,-5.3484955,-3.3729115
2.44,3.4384513,11.5683775,2.8073692,1.8231204,-5.3552074,-3.361836
2.442,3.3411927,11.391815,2.8347013,1.7737777,-5.35616,-3.3485303
2.444,3.2410364,11.221087,2.8625154,1.7278646,-5.3513494,-3.33291
2.446,3.1380913,11.056103,2.8907847,1.6855202,-5.3408213,-3.3149323
2.448,3.03274,10.896944,2.9194016,1.6468686,-5.3246417,-3.2945611
2.45,2.9250352,10.743619,2.9484372,1.6120393,-5.302927,-3.271781
2.452,2.815556,10.59602,2.9777625,1.5811548,-5.2758064,-3.2465715
2.454,2.7043693,10.454181,3.007398,1.5543195,-5.243475,-3.2189162
2.456,2.5920417,10.318075,3.0372632,1.5316281,-5.2061577,-3.1888056
2.458,2.4790025,10.187626,3.0673304,1.5131562,-5.164079,-3.1562116
2.46,2.3658242,10.062779,3.0975945,1.4989631,-5.1175046,-3.1211364
2.462,2.2527585,9.94351,3.127879,1.4890587,-5.066698,-3.0835712
2.464,2.1404011,9.829786,3.1582453,1.4834228,-5.0119114,-3.0434947
2.466,2.0292056,9.721603,3.1885355,1.4820144,-4.9533787,-3.000887
2.468,1.9194784,9.618889,3.21873,1.4847248,-4.8913536,-2.9557452
2.47,1.8117464,9.521546,3.2487044,1.491416,-4.826066,-2.9080844
2.472,1.7063816,9.429472,3.2783403,1.5019343,-4.7577214,-2.857934
2.474,1.6038262,9.342572,3.3075535,1.5161129,-4.6865253,-2.8053343
2.476,1.5043113,9.260976,3.3360972,1.5337914,-4.6126795,-2.7503886
2.478,1.4082446,9.184505,3.3640769,1.5548075,-4.5363693,-2.6932147
2.48,1.316085,9.113144,3.391334,1.5790455,-4.457804,-2.6339865
2.482,1.2279761,9.04677,3.417687,1.606407,-4.377212,-2.5728922
2.484,1.1441984,8.985331,3.4431694,1.636823,-4.2948384,-2.5101705
2.486,1.0648654,8.92886,3.4676843,1.6702495,-4.210972,-2.4460678
2.488,0.99023134,8.877228,3.4912548,1.706667,-4.1259017,-2.3808074
2.49,0.9204347,8.830481,3.5139222,1.7460434,-4.0399504,-2.3145902
2.492,0.8555127,8.78858,3.5356042,1.7883284,-3.953445,-2.2476106
2.494,0.79548836,8.751574,3.556397,1.8334467,-3.8667178,-2.1800168
2.496,0.7404529,8.719316,3.576487,1.8813139,-3.7800622,-2.1119437
2.498,0.69026655,8.691879,3.5959234,1.9318335,-3.6937468,-2.0434904
2.5,0.6448782,8.669243,3.614875,1.9848616,-3.6080017,-1.974732
2.502,0.60415703,8.651461,3.6335392,2.0402517,-3.5230494,-1.9057423
2.504,0.5682064,8.638554,3.6521044,2.0978475,-3.4390554,-1.8365943
2.506,0.5366993,8.630467,3.670829,2.1575172,-3.3561664,-1.7673674
2.508,0.50953156,8.627219,3.6897485,2.2191572,-3.2744617,-1.6981423
2.51,0.48637712,8.628866,3.7091343,2.282659,-3.1939967,-1.6289716
2.512,0.4672285,8.635367,3.7291114,2.347932,-3.1148067,-1.5599139
2.514,0.45181417,8.646704,3.7497635,2.4149148,-3.036898,-1.4909956
2.516,0.4398582,8.662984,3.7713256,2.4835713,-2.960256,-1.422246
2.518,0.4312023,8.683966,3.7938447,2.5538511,-2.8848517,-1.3536721
2.52,0.42559388,8.709939,3.8173833,2.625719,-2.8106441,-1.2852721
2.522,0.4227181,8.740816,3.842102,2.6991482,-2.737583,-1.2170241
2.524,0.4224045,8.776569,3.8678935,2.7741015,-2.6656346,-1.1488903
2.526,0.42461476,8.817226,3.8947546,2.850539,-2.5947928,-1.0808593
2.528,0.42905703,8.862682,3.9226472,2.9284103,-2.5250525,-1.0129224
2.53,0.43548876,8.9131775,3.951624,3.0076518,-2.4564433,-0.94506294
2.532,0.44386524,8.968632,3.9816682,3.0882254,-2.389019,-0.8772703
2.534,0.45374012,9.029118,4.0127745,3.1700556,-2.3228376,-0.80952436
2.536,0.46533522,9.09464,4.0448437,3.2530782,-2.2579927,-0.7418061
2.538,0.47838265,9.16514,4.07786,3.337225,-2.1945872,-0.6740947
2.54,0.49276355,9.240681,4.1118793,3.4224317,-2.132729,-0.6063889
2.542,0.5083729,9.321218,4.146948,3.5086393,-2.0725453,-0.53868866
2.544,0.5250305,9.40689,4.183214,3.5957928,-2.014169,-0.47100902
2.546,0.5427766,9.497657,4.220889,3.6838257,-1.9577332,-0.4033628
2.548,0.5614469,9.59351,4.2600155,3.7726772,-1.90336,-0.33577687
2.55,0.580948,9.694562,4.300603,3.8622801,-1.8511639,-0.26828218
2.552,0.60126233,9.800968,4.342779,3.9525516,-1.8012462,-0.20092785
2.554,0.62224936,9.912565,4.3865786,4.0434136,-1.7536751,-0.1337502
2.556,0.64396757,10.029382,4.4322634,4.134782,-1.7084786,-0.06677657
2.558,0.6666299,10.151338,4.479921,4.226562,-1.6656519,-2.7894974e-05
2.56,0.6902376,10.278275,4.5297303,4.318665,-1.6251345,0.06649417
2.562,0.71491265,10.410114,4.5817804,4.4110045,-1.5868332,0.13281953
2.564,0.7405857,10.54706,4.6362906,4.503526,-1.5506234,0.19896987
2.566,0.76726484,10.689027,4.6932387,4.596177,-1.5163459,0.26500955
2.568,0.79503083,10.836111,4.752887,4.68891,-1.4838073,0.33099997
2.57,0.8239124,10.988401,4.815117,4.781717,-1.4528184,0.3970093
2.572,0.85414565,11.145912,4.8801613,4.8746047,-1.4231778,0.46309674
2.574,0.8859937,11.308706,4.9479637,4.967591,-1.3946772,0.5293479
2.576,0.9196278,11.476812,5.018655,5.0607114,-1.3671439,0.5958488
2.578,0.9553369,11.650387,5.092236,5.1540203,-1.340404,0.6626827
2.58,0.99330467,11.82955,5.168711,5.247582,-1.3142924,0.7299373
2.582,1.033696,12.014452,5.248187,5.3414555,-1.2886945,0.7976734
2.584,1.0768307,12.205275,5.330793,5.4356933,-1.2635094,0.86595017
2.586,1.1228775,12.402076,5.4167137,5.530325,-1.2386696,0.9347969
2.588,1.1719419,12.60528,5.506093,5.625387,-1.2141234,1.004244
2.59,1.2240236,12.814957,5.5992517,5.720895,-1.1898273,1.074302
2.592,1.2790298,13.031428,5.6967287,5.816838,-1.1657729,1.1449676
2.594,1.3368113,13.254926,5.7988873,5.9131866,-1.1419792,1.2162173
2.596,1.3966961,13.485781,5.9063835,6.0099006,-1.1184747,1.2879957
2.598,1.4581842,13.72434,6.0197935,6.1069145,-1.0952806,1.3602439
2.6,1.5204678,13.971143,6.1398597,6.204191,-1.0724072,1.4329035
2.602,1.5827179,14.226514,6.267474,6.3016567,-1.0498002,1.505938
2.604,1.6442449,14.490774,6.4035573,6.399274,-1.0273453,1.5793424
2.606,1.7043034,14.7641,6.5490255,6.497019,-1.0048523,1.6531687
2.608,1.761713,15.04647,6.704908,6.5948844,-0.98204476,1.7275121
2.61,1.8154039,15.33803,6.872184,6.69287,-0.9585638,1.8025082
2.612,1.8638803,15.638768,7.051754,6.7909894,-0.9339632,1.8783486
2.614,1.9053864,15.948866,7.244561,6.8892713,-0.90778685,1.9552253
2.616,1.9386345,16.26823,7.451489,6.9877114,-0.8795539,2.0333178
2.618,1.9621457,16.59681,7.6735597,7.0863023,-0.84880996,2.112782
2.62,1.974453,16.934351,7.9112515,7.1849995,-0.8151554,2.1937118
2.622,1.9740413,17.28054,8.165331,7.2837305,-0.7782525,2.2761602
2.624,1.9596611,17.634933,8.43623,7.382363,-0.7378243,2.3601286
2.626,1.9304003,17.99697,8.724226,7.4807224,-0.6936923,2.445592
2.628,1.8852999,18.366081,9.029335,7.5785956,-0.64575803,2.532526
2.63,1.8238449,18.7412,9.351414,7.675714,-0.59397113,2.6209044
2.632,1.7459991,19.121359,9.689968,7.7717795,-0.5383589,2.7107058
2.634,1.6518459,19.505514,10.044438,7.8664427,-0.4789766,2.8019557
2.636,1.5417356,19.892282,10.413673,7.9593506,-0.41589117,2.8947234
2.638,1.4169865,20.280289,10.796311,8.050138,-0.34914494,2.9891472
2.64,1.2792034,20.667723,11.190632,8.138494,-0.2787435,3.0854347
2.642,1.130178,21.052961,11.594614,8.224147,-0.20467687,3.1838565
2.644,0.97234917,21.434284,12.005766,8.306923,-0.12687826,3.2847452
2.646,0.8082118,21.809809,12.421484,8.386756,-0.045207024,3.3884997
2.648,0.64064074,22.177818,12.83877,8.46371,0.040554762,3.4955509
2.65,0.4726901,22.536634,13.254638,8.537903,0.13064218,3.6063414
2.652,0.30763865,22.8846,13.665821,8.60953,0.22534466,3.721291
2.654,0.14869022,23.220045,14.06904,8.678805,0.3249991,3.8407476
2.656,-0.0010814667,23.541748,14.460899,8.74592,0.4299388,3.9649649
2.658,-0.13884354,23.84857,14.838126,8.810965,0.5405419,4.094068
2.66,-0.26202583,24.13955,15.197464,8.873934,0.6572025,4.2280436
2.662,-0.36849213,24.414085,15.5359535,8.934717,0.7802744,4.3667407
2.664,-0.45688868,24.67206,15.850695,8.993068,0.91006947,4.509819
2.666,-0.5259123,24.91337,16.139105,9.0486355,1.0468462,4.656802
2.668,-0.57519674,25.138483,16.399109,9.100973,1.190752,4.80708
2.67,-0.6049309,25.348257,16.628912,9.149598,1.3418043,4.9599338
2.672,-0.6160679,25.543873,16.827158,9.193978,1.4998372,5.114551
2.674,-0.60971737,25.726513,16.992733,9.233601,1.6644962,5.270099
2.676,-0.58775043,25.897745,17.125244,9.267962,1.8352337,5.4256873
2.678,-0.5526161,26.059498,17.224562,9.296597,2.0112782,5.580448
2.68,-0.5072079,26.213846,17.291206,9.319074,2.191694,5.7335663
2.682,-0.45478153,26.362837,17.325768,9.334965,2.3753884,5.884284
2.684,-0.39857388,26.508408,17.329449,9.34391,2.561174,6.0319777
2.686,-0.34210587,26.652475,17.303284,9.345531,2.7477298,6.1761217
2.688,-0.2888832,26.796856,17.248722,9.339455,2.9336202,6.3162804
2.69,-0.24244595,26.94335,17.167435,9.325291,3.1173158,6.4520707
2.692,-0.20593739,27.093426,17.06089,9.302634,3.2972536,6.583185
2.694,-0.18251419,27.248552,16.930744,9.271088,3.4719198,6.709358
2.696,-0.17493057,27.410015,16.77877,9.230185,3.6397514,6.8303447
2.698,-0.18561745,27.578857,16.606627,9.179419,3.7991476,6.9459224
2.7,-0.21652031,27.755974,16.416006,9.118225,3.9485319,7.055833
2.702,-0.26904297,27.941889,16.208466,9.046065,4.0864415,7.159828
2.704,-0.34457397,28.137058,15.985608,8.962378,4.2114925,7.2576094
2.706,-0.4435606,28.341463,15.748955,8.866573,4.322362,7.348878
2.708,-0.566432,28.554878,15.499997,8.758104,4.417868,7.4333353
2.71,-0.7130127,28.776796,15.240075,8.6365,4.4970274,7.510633
2.712,-0.88306236,29.006554,14.970526,8.501383,4.5590706,7.580476
2.714,-1.0762119,29.243359,14.692484,8.352478,4.6034546,7.6425724
2.716,-1.2917757,29.486588,14.407166,8.18968,4.629925,7.696713
2.718,-1.528265,29.735157,14.115683,8.013111,4.638544,7.742763
2.72,-1.7841196,29.987598,13.819091,7.8231273,4.629733,7.780598
2.722,-2.057477,30.242596,13.518509,7.6203523,4.604284,7.810117
2.724,-2.3461828,30.498388,13.21475,7.405711,4.5633345,7.8312683
2.726,-2.648302,30.7533,12.9085045,7.1803904,4.5084085,7.8440046
2.728,-2.9616756,31.005703,12.600495,6.945828,4.4413433,7.848254
2.73,-3.284772,31.254189,12.291702,6.703583,4.364258,7.8439984
2.732,-3.6161766,31.497623,11.982905,6.455255,4.2794623,7.831338
2.734,-3.9541388,31.73462,11.674636,6.202385,4.1893535,7.8104563
2.736,-4.296974,31.964008,11.367441,5.9463687,4.0963697,7.7817125
2.738,-4.643321,32.184875,11.062092,5.688363,4.0028453,7.745673
2.74,-4.991843,32.396397,10.759612,5.4292746,3.9109607,7.703122
2.742,-5.342124,32.59808,10.460984,5.169754,3.8226957,7.6550503
2.744,-5.6937523,32.789658,10.167242,4.9102197,3.739736,7.6025777
2.746,-6.0462685,32.97124,9.8794365,4.6509013,3.6634235,7.5468717
2.748,-6.399551,33.142952,9.598573,4.3919497,3.594812,7.4890804
2.75,-6.7536426,33.305355,9.325583,4.133535,3.5348237,7.4302754
2.752,-7.1085634,33.459244,9.061636,3.8759093,3.4842494,7.371418
2.754,-7.464561,33.605904,8.807737,3.6194305,3.4437342,7.313315
2.756,-7.821608,33.747097,8.564703,3.3645587,3.4138455,7.2566285
2.758,-8.181164,33.88352,8.333775,3.111876,3.3951235,7.201887
2.76,-8.543982,34.016914,8.115523,2.8620987,3.3881412,7.149551
2.762,-8.9103565,34.148674,7.9103627,2.6160617,3.3936095,7.100098
2.764,-9.279864,34.28061,7.7176847,2.3746963,3.412335,7.0540366
2.766,-9.652641,34.414574,7.5371876,2.138948,3.4451041,7.0119
2.768,-10.029316,34.55342,7.368908,1.9097795,3.4926426,6.974237
2.77,-10.40979,34.697704,7.2118583,1.688122,3.5556085,6.9416213
2.772,-10.79399,34.84937,7.065055,1.4748266,3.6345863,6.9146624
2.774,-11.180373,35.00964,6.927131,1.2708228,3.7301705,6.894051
2.776,-11.568145,35.180016,6.7957616,1.0770284,3.8430512,6.880365
2.778,-11.955678,35.361202,6.6675644,0.89425987,3.9739058,6.8740935
2.78,-12.3407955,35.554054,6.5390778,0.7233424,4.123424,6.8756814
2.782,-12.721531,35.7594,6.4061413,0.565076,4.2923226,6.885545
2.784,-13.095334,35.97755,6.2641473,0.42025936,4.4812994,6.904041
2.786,-13.459316,36.20869,6.10761,0.28974435,4.690957,6.9314837
2.788,-13.810702,36.45234,5.9314137,0.174265,4.9217877,6.9679937
2.79,-14.147219,36.708996,5.729535,0.07450229,5.174143,7.0136127
2.792,-14.463741,36.976715,5.4959917,-0.009000421,5.447963,7.0683374
2.794,-14.757411,37.2548,5.2251134,-0.07598321,5.742444,7.132022
2.796,-15.025476,37.542088,4.9114466,-0.12651154,6.0558486,7.204199
2.798,-15.264044,37.8367,4.54964,-0.16104162,6.3854575,7.2839775
2.8,-15.4700985,38.136425,4.135023,-0.18064195,6.7275558,7.369665
2.802,-15.640968,38.43908,3.6636307,-0.18696445,7.077358,7.4589095
2.804,-15.774148,38.742115,3.132095,-0.18219566,7.429187,7.5487075
2.806,-15.867659,39.04268,2.538074,-0.16910794,7.7765126,7.635305
2.808,-15.9195595,39.337757,1.8803333,-0.15093943,8.112177,7.7143407
2.81,-15.928422,39.624317,1.1587932,-0.13128561,8.428673,7.781008
2.812,-15.893976,39.899525,0.3745779,-0.11382568,8.718587,7.830286
2.814,-15.815681,40.16025,-0.47021872,-0.10216147,8.974884,7.8571815
2.816,-15.6939535,40.403713,-1.3722854,-0.09951967,9.191169,7.85708
2.818,-15.529264,40.62713,-2.3275368,-0.10860741,9.36202,7.826021
2.82,-15.322823,40.82786,-3.3305726,-0.1312967,9.4834795,7.7608576
2.822,-15.0760765,41.003475,-4.374922,-0.16881287,9.552638,7.659564
2.824,-14.790825,41.151802,-5.4532332,-0.22162968,9.567722,7.521243
2.826,-14.468614,41.27042,-6.557436,-0.28930265,9.528249,7.346164
2.828,-14.112082,41.3577,-7.678811,-0.37080252,9.4348,7.1357927
2.83,-13.724039,41.412567,-8.807733,-0.4645957,9.288756,6.892744
2.832,-13.307135,41.43407,-9.934528,-0.5687963,9.092297,6.620551
2.834,-12.864146,41.421593,-11.048982,-0.68143183,8.848209,6.3234115
2.836,-12.398134,41.37509,-12.140979,-0.8005277,8.55977,6.0060515
2.838,-11.912119,41.294838,-13.200683,-0.9243074,8.2305975,5.6735144
2.84,-11.408884,41.181534,-14.218735,-1.0513347,7.8645625,5.330966
2.842,-10.890988,41.035988,-15.186391,-1.1804214,7.465693,4.983653
2.844,-10.361831,40.859726,-16.095066,-1.3106807,7.0381675,4.6365547
2.846,-9.825013,40.65467,-16.937624,-1.4414449,6.586477,4.2941766
2.848,-9.283447,40.422768,-17.707752,-1.5721238,6.1154933,3.9605196
2.85,-8.740564,40.16636,-18.400581,-1.7021278,5.6303296,3.6390457
2.852,-8.198974,39.887863,-19.012228,-1.8307569,5.1363316,3.3325105
2.854,-7.6615324,39.58961,-19.54016,-1.9569653,4.639048,3.0430293
2.856,-7.1312866,39.274067,-19.982864,-2.0795128,4.1441555,2.7716956
2.858,-6.6114388,38.943806,-20.33999,-2.1969557,3.6573312,2.5186272
2.86,-6.104701,38.601173,-20.612497,-2.3076048,3.1842506,2.2831419
2.862,-5.6135254,38.24817,-20.802485,-2.409673,2.7303374,2.0637891
2.864,-5.1403084,37.88662,-20.913095,-2.5014477,2.300405,1.8584828
2.866,-4.687253,37.51815,-20.948303,-2.5814872,1.8983332,1.6647569
2.868,-4.2549686,37.1452,-20.91309,-2.6487546,1.5269158,1.479939
2.87,-3.8450117,36.768963,-20.812546,-2.7027268,1.1877446,1.3013238
2.872,-3.4589405,36.391224,-20.652086,-2.7433853,0.8811727,1.1264615
2.874,-3.0981855,36.01297,-20.436905,-2.7712865,0.6062992,0.9533645
2.876,-2.7631292,35.635197,-20.17288,-2.7872925,0.36149442,0.78053683
2.878,-2.453187,35.258034,-19.86649,-2.7926724,0.14432257,0.60715014
2.88,-2.1681957,34.88364,-19.523006,-2.789114,-0.048360705,0.43300903
2.882,-1.9075909,34.512398,-19.147945,-2.778365,-0.21995163,0.258475
2.884,-1.6715918,34.14525,-18.746021,-2.7620802,-0.37369347,0.084391296
2.886,-1.4591045,33.78275,-18.321182,-2.7417665,-0.51256585,-0.08805817
2.888,-1.2692337,33.425877,-17.876463,-2.7187233,-0.6391807,-0.2575391
2.89,-1.1009512,33.074905,-17.415012,-2.6940258,-0.7556701,-0.42272192
2.892,-0.95259476,32.730137,-16.939121,-2.6684492,-0.8636137,-0.5824263
2.894,-0.8229027,32.392124,-16.450945,-2.6425002,-0.9640482,-0.7357277
2.896,-0.71072006,32.061367,-15.9519825,-2.6164882,-1.0575875,-0.88201994
2.898,-0.6142721,31.738419,-15.444113,-2.590564,-1.1444724,-1.0210414
2.9,-0.53145885,31.422682,-14.928249,-2.5647237,-1.2246487,-1.1528115
2.902,-0.46272182,31.115845,-14.405436,-2.5388591,-1.2978413,-1.2776171
2.904,-0.4060526,30.817526,-13.876774,-2.5128202,-1.3636351,-1.3959384
2.906,-0.3594265,30.527527,-13.343305,-2.4864488,-1.4216423,-1.5083768
2.908,-0.3221035,30.24599,-12.805849,-2.4595766,-1.4715104,-1.615581
2.91,-0.29268646,29.972675,-12.265451,-2.43202,-1.5129124,-1.7181602
2.912,-0.2699089,29.7071,-11.723207,-2.40359,-1.5456028,-1.8166492
2.914,-0.25266647,29.448704,-11.180186,-2.3741012,-1.5694627,-1.9114416
2.916,-0.2398758,29.197025,-10.637603,-2.3433695,-1.5844607,-2.0027893
2.918,-0.23062706,28.95146,-10.096678,-2.311164,-1.5905936,-2.0908175
2.92,-0.22428322,28.711617,-9.558763,-2.2772365,-1.5879083,-2.1755557
2.922,-0.21945667,28.4766,-9.025154,-2.2413135,-1.5765184,-2.2569504
2.924,-0.21557999,28.245928,-8.496773,-2.2031212,-1.5565388,-2.3348782
2.926,-0.21188927,28.019032,-7.974763,-2.1623755,-1.5281278,-2.4091935
2.928,-0.20797825,27.795437,-7.459834,-2.1187978,-1.4914758,-2.4797468
2.93,-0.2032299,27.574875,-6.952954,-2.0721307,-1.4467778,-2.546409
2.932,-0.19706488,27.357094,-6.4552455,-2.0221374,-1.3942772,-2.6090794
2.934,-0.18903494,27.14185,-5.9676213,-1.9686263,-1.334265,-2.6676812
2.936,-0.1792674,26.929333,-5.4910455,-1.9114559,-1.2670586,-2.7221775
2.938,-0.16705942,26.71934,-5.0262694,-1.8505243,-1.193025,-2.7725687
2.94,-0.15189075,26.511765,-4.57448,-1.785799,-1.1125876,-2.818894
2.942,-0.13375902,26.30655,-4.1364017,-1.7173057,-1.0262036,-2.861234
2.944,-0.11246157,26.103882,-3.7128062,-1.6451172,-0.9343623,-2.899727
2.946,-0.08790493,25.903898,-3.3044353,-1.5693569,-0.83756566,-2.9345555
2.948,-0.060025692,25.706661,-2.9117756,-1.4901686,-0.73630846,-2.9659393
2.95,-0.028717518,25.51214,-2.5352204,-1.4077163,-0.6310731,-2.9941177
2.952,0.0058398247,25.320704,-2.1751919,-1.3221939,-0.52232116,-3.0193412
2.954,0.04369831,25.132519,-1.8320446,-1.2338128,-0.4104583,-3.0418663
2.956,0.08476615,24.947886,-1.505856,-1.1427743,-0.29583108,-3.0619087
2.958,0.1288805,24.766869,-1.1968292,-1.049279,-0.17872852,-3.0796695
2.96,0.17589855,24.589813,-0.9051786,-0.9535261,-0.0593846,-3.0953088
2.962,0.22557068,24.41684,-0.6309822,-0.8557299,0.062024027,-3.1089394
2.964,0.2776425,24.24821,-0.37421566,-0.7560698,0.18539725,-3.1206713
2.966,0.3319037,24.084108,-0.13505912,-0.65473104,0.3106575,-3.1305606
2.968,0.38804054,23.924717,0.08635551,-0.5518776,0.4377334,-3.138663
2.97,0.44560122,23.770256,0.29007903,-0.44765514,0.56656396,-3.1450193
2.972,0.50439954,23.6209,0.4759999,-0.34219873,0.69706327,-3.149658
2.974,0.564083,23.476725,0.64407295,-0.23563713,0.8291148,-3.1526256
2.976,0.62416434,23.337807,0.79419124,-0.128088,0.96252847,-3.1539443
2.978,0.6842797,23.204271,0.9262004,-0.019650936,1.0970432,-3.153658
2.98,0.7439568,23.076391,1.0402358,0.089570045,1.2323278,-3.151809
2.982,0.8028663,22.95393,1.1361567,0.19945735,1.3679622,-3.1484463
2.984,0.86030275,22.837202,1.2142787,0.3098653,1.5034283,-3.1436324
2.986,0.9159486,22.726088,1.2747656,0.42062217,1.6381203,-3.1374574
2.988,0.9696179,22.620504,1.3180283,0.5315099,1.7713624,-3.1300383
2.99,1.0207024,22.520592,1.3445132,0.6422758,1.9024184,-3.1215067
2.992,1.0689735,22.426212,1.354681,0.75260484,2.0305257,-3.1120176
2.994,1.1142733,22.337261,1.3492017,0.8621581,2.154894,-3.101765
2.996,1.1559627,22.253702,1.3287909,0.9705576,2.2747545,-3.0909731
2.998,1.1937749,22.175219,1.2943151,1.0774145,2.3893654,-3.079922
3,1.2275857,22.101648,1.2467175,1.1823301,2.49805,-3.0688949
3.002,1.2571565,22.032753,1.187026,1.2849154,2.6001823,-3.0581846
3.004,1.2823404,21.968317,1.1163623,1.3847916,2.6952183,-3.0480883
3.006,1.3029441,21.907864,1.0358906,1.481601,2.7827241,-3.0388763
3.008,1.3188595,21.851,0.94675714,1.5749856,2.8623211,-3.0307772
3.01,1.3301525,21.79746,0.85017383,1.6645877,2.9336998,-3.0239687
3.012,1.3367888,21.746572,0.7472651,1.7500848,2.996683,-3.0185454
3.014,1.3387935,21.69801,0.6393294,1.8311498,3.0511758,-3.014526
3.016,1.3362472,21.651287,0.527371,1.9074898,3.0971656,-3.0118625
3.018,1.3294826,21.605545,0.41250652,1.9788244,3.1347454,-3.0104284
3.02,1.3186338,21.560276,0.295833,2.0448866,3.164112,-3.0100577
3.022,1.3038921,21.515007,0.17837566,2.105429,3.1855245,-3.0105326
3.024,1.2854378,21.469217,0.06101519,2.1602805,3.1993198,-3.011618
3.026,1.2636957,21.422306,-0.055481136,2.2093186,3.2058854,-3.0131092
3.028,1.2388134,21.373802,-0.17040694,2.252511,3.2056465,-3.0148323
3.03,1.2112982,21.32312,-0.2830882,2.2898855,3.1990383,-3.0166457
3.032,1.1813407,21.269989,-0.39287364,2.321531,3.186479,-3.0184073
3.034,1.1494699,21.214016,-0.49935937,2.347608,3.1683862,-3.0199747
3.036,1.116045,21.154953,-0.60208964,2.368334,3.1451569,-3.0212202
3.038,1.0815811,21.092623,-0.70077574,2.383929,3.117168,-3.0220068
3.04,1.0462835,21.026943,-0.79522336,2.3946137,3.0848017,-3.0221336
3.042,1.0107546,20.957916,-0.8851248,2.4006066,3.0484,-3.0213687
3.044,0.9753499,20.885542,-0.9702712,2.4020948,3.0083356,-3.0194342
3.046,0.94085646,20.811249,-1.0528193,2.3992372,2.9650042,-3.0160365
3.048,0.907038,20.733242,-1.129064,2.3921657,2.9187572,-3.0108275
3.05,0.87444067,20.65263,-1.2005719,2.3810105,2.869927,-3.0034199
3.052,0.8436508,20.569921,-1.267368,2.365924,2.8188956,-2.9934516
3.054,0.8148575,20.485397,-1.3295909,2.3470836,2.7659953,-2.9806223
3.056,0.7885463,20.399536,-1.3872244,2.3246832,2.7115428,-2.9646986
3.058,0.7649479,20.312695,-1.4403728,2.2989392,2.6558022,-2.9455345
3.06,0.7444415,20.225313,-1.4892133,2.2701168,2.5989778,-2.9230592
3.062,0.727242,20.137735,-1.5337833,2.2384982,2.541259,-2.8972955
3.064,0.7135136,20.05022,-1.5741247,2.2043812,2.48281,-2.868331
3.066,0.7034321,19.96312,-1.6103286,2.168049,2.4237335,-2.8363266
3.068,0.6971197,19.876867,-1.6424154,2.129791,2.3641615,-2.8014948
3.07,0.6946118,19.791645,-1.6704229,2.0898726,2.3042367,-2.7640896
3.072,0.6960547,19.707624,-1.6944001,2.048542,2.2441046,-2.7243788
3.074,0.7016022,19.624851,-1.7143294,2.0060277,2.1839554,-2.682651
3.076,0.71089554,19.543427,-1.7300962,1.9625235,2.1240134,-2.6391952
3.078,0.72408676,19.463354,-1.7415802,1.9181998,2.0645328,-2.5942867
3.08,0.7412021,19.384647,-1.7487893,1.8731952,2.0057836,-2.5481617
3.082,0.7619152,19.307308,-1.7515962,1.8276145,1.948032,-2.5010276
3.084,0.78621984,19.231184,-1.7497888,1.7815546,1.8915557,-2.453068
3.086,0.8139615,19.156174,-1.7431152,1.7351087,1.836605,-2.4044414
3.088,0.84505844,19.082165,-1.7313187,1.6883702,1.7834117,-2.355253
3.09,0.87925124,19.009073,-1.7142463,1.6414444,1.7321832,-2.3055544
3.092,0.91635275,18.936892,-1.6916239,1.5944631,1.6831017,-2.2553835
3.094,0.9563844,18.86536,-1.6634023,1.5475562,1.6363082,-2.2047749
3.096,0.99904346,18.794489,-1.6294053,1.5008614,1.5919597,-2.153729
3.098,1.0439072,18.724323,-1.5894766,1.4545298,1.5501654,-2.1022692
3.1,1.090976,18.654734,-1.5435615,1.40873,1.5110284,-2.050403
3.102,1.1399198,18.585772,-1.4914689,1.3636192,1.474702,-1.9982197
3.104,1.1905537,18.517452,-1.4332473,1.3193399,1.4413166,-1.9458221
3.106,1.242852,18.449661,-1.3687851,1.2760327,1.4109724,-1.8932885
3.108,1.2965794,18.382545,-1.2983046,1.2338343,1.3837879,-1.8407154
3.11,1.3515649,18.316051,-1.2218618,1.1928827,1.359918,-1.7881892
3.112,1.4075623,18.250275,-1.1395988,1.1533258,1.3395389,-1.7357852
3.114,1.4643025,18.18514,-1.0517535,1.1152861,1.3228197,-1.6835926
3.116,1.5218768,18.120785,-0.958611,1.0788871,1.3099432,-1.6316783
3.118,1.5800462,18.0572,-0.86035204,1.0442543,1.3010905,-1.5801013
3.12,1.6385012,17.99432,-0.75744843,1.0115136,1.2964573,-1.5288956
3.122,1.6971292,17.932358,-0.65014863,0.98078966,1.2962327,-1.4780787
3.124,1.7559419,17.871231,-0.539026,0.9522084,1.300599,-1.427649
3.126,1.8148055,17.810957,-0.4244206,0.92590475,1.3097554,-1.3776039
3.128,1.8733449,17.751774,-0.30681777,0.9020185,1.3238615,-1.3279161
3.13,1.9316907,17.693615,-0.18686748,0.8806738,1.3430825,-1.2785428
3.132,1.9897423,17.636402,-0.0650816,0.86198515,1.3675735,-1.2294302
3.134,2.0475335,17.580124,0.057991028,0.8460711,1.3974713,-1.1805239
3.136,2.1050286,17.524744,0.18168354,0.8330363,1.4328965,-1.1317729
3.138,2.160338,17.47157,0.30362797,0.822974,1.4739327,-1.0831288
3.14,2.214754,17.419672,0.42476845,0.81594265,1.5206542,-1.0345709
3.142,2.268293,17.369064,0.54445505,0.81198716,1.5730977,-0.9860787
3.144,2.3208199,17.319834,0.66205215,0.81111634,1.6312575,-0.93766177
3.146,2.372292,17.272026,0.77699184,0.81332123,1.6950872,-0.8893423
3.148,2.4226074,17.2257,0.8886881,0.8185703,1.764501,-0.8411666
3.15,2.4718528,17.180866,0.99663544,0.8268199,1.8393435,-0.79320914
3.152,2.5198655,17.137577,1.1003132,0.8379938,1.9193991,-0.7455333
3.154,2.5666957,17.095957,1.1993008,0.8520053,2.0043988,-0.6982188
3.156,2.6120257,17.054989,1.2950444,0.8687686,2.0939994,-0.6513345
3.158,2.6564546,17.016905,1.3834496,0.8881848,2.187799,-0.60497415
3.16,2.6996827,16.980505,1.4664841,0.91014093,2.2853565,-0.5592524
3.162,2.7415557,16.945734,1.5440192,0.9345178,2.3862016,-0.5142628
3.164,2.7821398,16.912727,1.6160488,0.961197,2.4898334,-0.47012204
3.166,2.8214178,16.881315,1.6825752,0.98866814,2.5918434,-0.42819065
3.168,2.8593931,16.851622,1.7436528,1.0173635,2.6935892,-0.38789797
3.17,2.896029,16.823616,1.7995114,1.0468466,2.7938938,-0.3495173
3.172,2.9313245,16.797268,1.8503327,1.0766251,2.8915596,-0.31331146
3.174,2.9653077,16.772573,1.8962932,1.1061937,2.9854352,-0.27951163
3.176,2.9980426,16.74942,1.937707,1.1350791,3.074495,-0.24829948
3.178,3.0294766,16.72774,1.9748011,1.1628512,3.157919,-0.2197833
3.18,3.059719,16.707386,2.0079808,1.189156,3.235126,-0.19398439
3.182,3.0886698,16.688354,2.0375547,1.2137451,3.3058233,-0.17085993
3.184,3.116291,16.670673,2.0637722,1.2364755,3.3699646,-0.15029192
3.186,3.1429167,16.654207,2.086969,1.2572895,3.4277122,-0.13211226
3.188,3.168437,16.638891,2.107367,1.2762127,3.479415,-0.11610806
