Time_s_,Acc_x_m_s_2_,Acc_y_m_s_2_,Acc_z_m_s_2_,Gyro_x_1_s_,Gyro_y_1_s_,Gyro_z_1_s_
0,-2.9825633,0.60680485,1.4207362,1.0330583,0.96274364,0.5016521
0.002,-2.996494,0.6453459,1.3670583,1.0287822,0.9690185,0.49361873
0.004,-3.012797,0.6866188,1.3121288,1.0239797,0.9762193,0.48428977
0.006,-3.0298083,0.73047924,1.2563827,1.0187726,0.9844648,0.47375688
0.008,-3.0472603,0.7767143,1.2008379,1.0132192,0.99342203,0.46210104
0.01,-3.0654035,0.82520556,1.1474961,1.0071601,1.0020425,0.44935167
0.012,-3.082383,0.8747088,1.0956943,1.0005293,1.0096173,0.43565404
0.014,-3.0977013,0.92464125,1.0460594,0.99335194,1.0156875,0.42131725
0.016,-3.111391,0.97448367,1.0005189,0.98552185,1.0194556,0.40676242
0.018,-3.122914,1.023555,0.9611042,0.9767958,1.0198755,0.39244497
0.02,-3.1317356,1.071003,0.9300495,0.9667539,1.0155189,0.37886137
0.022,-3.1366224,1.1155229,0.9094318,0.95491093,1.0050809,0.36633405
0.024,-3.1361122,1.1556133,0.90065944,0.9406897,0.9875963,0.35491905
0.026,-3.1284509,1.1895113,0.90447944,0.9234884,0.9625904,0.3444964
0.028,-3.1117635,1.2152237,0.9218643,0.9025386,0.9302482,0.3345679
0.03,-3.0845518,1.230488,0.95246506,0.87775636,0.891334,0.32527447
0.032,-3.0443592,1.2327948,0.9959053,0.8492162,0.8476499,0.31631348
0.034,-2.9891708,1.2198193,1.0517119,0.8175173,0.80190253,0.30744985
0.036,-2.917657,1.1900039,1.1198797,0.7838508,0.757536,0.29862
0.038,-2.8286092,1.1421101,1.2000371,0.74989176,0.7183614,0.28996265
0.04,-2.721026,1.075015,1.2908778,0.7177055,0.6882328,0.28178126
0.042,-2.594068,0.98802197,1.3907942,0.6895406,0.67067754,0.27462882
0.044,-2.4480066,0.8808332,1.4985476,0.66753364,0.6683256,0.26925525
0.046,-2.2836576,0.75351846,1.61314,0.6533607,0.6826655,0.2664643
0.048,-2.1025808,0.6063909,1.7334765,0.6480353,0.7138764,0.26702684
0.05,-1.9067267,0.440365,1.8583661,0.6516887,0.7607513,0.27155745
0.052,-1.6984384,0.25691885,1.9860299,0.6635333,0.82091314,0.28048563
0.054,-1.4802136,0.058024526,2.1140826,0.6819667,0.8910846,0.29398775
0.056,-1.2538302,-0.15387496,2.2409852,0.7047228,0.9673783,0.3118628
0.058,-1.0234045,-0.37651056,2.3635006,0.7292036,1.0458223,0.3335014
0.06,-0.7924478,-0.6069567,2.47945,0.7528265,1.1227957,0.357962
0.062,-0.56371605,-0.8423817,2.586389,0.7734456,1.1955514,0.38425165
0.064,-0.34038833,-1.0801017,2.6831918,0.7896622,1.2624078,0.41144168
0.066,-0.12487265,-1.31728,2.7688115,0.8006886,1.3220483,0.4385428
0.068,0.080344856,-1.5514534,2.8424175,0.8064391,1.3738548,0.4646132
0.07,0.2740491,-1.7805191,2.9029794,0.8076119,1.4183209,0.48892587
0.072,0.45522863,-2.0026095,2.9489727,0.8054322,1.4566133,0.5110762
0.074,0.62376094,-2.2160852,2.9790807,0.80140465,1.4903204,0.53090096
0.076,0.77924633,-2.4196792,2.9927726,0.797001,1.520715,0.5485478
0.078,0.922067,-2.6124105,2.9894059,0.7935203,1.5486356,0.564458
0.08,1.0530244,-2.7934673,2.9682999,0.7919591,1.5744672,0.5792048
0.082,1.1739359,-2.9625645,2.9304535,0.7929468,1.5981354,0.59338176
0.084,1.2858922,-3.1196003,2.877124,0.7966721,1.6191589,0.6075903
0.086,1.3905325,-3.264625,2.810314,0.8028881,1.6366739,0.62236106
0.088,1.4900241,-3.3984308,2.7308612,0.81091785,1.6495807,0.63795376
0.09,1.585531,-3.5216527,2.6366491,0.81977373,1.6568692,0.65429914
0.092,1.6776705,-3.634869,2.5289068,0.8283115,1.6578836,0.6710381
0.094,1.7662342,-3.7379146,2.4110637,0.83532286,1.6523432,0.6876178
0.096,1.8505949,-3.8306441,2.2859738,0.83958644,1.6404114,0.7031261
0.098,1.9305595,-3.9129052,2.1578007,0.84002405,1.6227664,0.7165321
0.1,2.0060048,-3.9855103,2.0291386,0.83576113,1.6002764,0.7269031
0.102,2.0788095,-4.0500884,1.9014881,0.8261632,1.573749,0.73343444
0.104,2.1488307,-4.1074944,1.7761569,0.8108722,1.5437993,0.7355114
0.106,2.2148626,-4.1582317,1.6551133,0.78977126,1.5107087,0.7327051
0.108,2.2720351,-4.2010846,1.5422518,0.76287234,1.4743435,0.72480464
0.11,2.318096,-4.2366934,1.4429835,0.73026025,1.4341562,0.71183693
0.112,2.3566058,-4.2677937,1.3572168,0.69205403,1.3893496,0.69406927
0.114,2.3889258,-4.2957635,1.2829229,0.64836437,1.3390179,0.67191327
0.116,2.4127374,-4.320186,1.2216169,0.599275,1.2822906,0.6457875
0.118,2.4249167,-4.340668,1.1751428,0.5448383,1.2184763,0.6161076
0.12,2.4242496,-4.357793,1.1444678,0.48514163,1.1471916,0.58338237
0.122,2.410039,-4.372037,1.1308317,0.42033318,1.0683889,0.54815656
0.124,2.3838878,-4.383976,1.1328189,0.35069597,0.9824525,0.51094675
0.126,2.3467197,-4.393141,1.1480021,0.2767098,0.89011425,0.47216767
0.128,2.2981415,-4.3987494,1.1747468,0.19906949,0.79242504,0.43218952
0.13,2.2374747,-4.400148,1.2117743,0.118662566,0.690788,0.3913067
0.132,2.1640863,-4.3967266,1.258166,0.036560163,0.58686584,0.34971407
0.134,2.077261,-4.3875875,1.3127819,-0.045995057,0.48256838,0.30752447
0.136,1.9770484,-4.3716297,1.374108,-0.1276268,0.3800339,0.26485747
0.138,1.8636613,-4.347486,1.4392061,-0.20680341,0.28165048,0.22180344
0.14,1.738911,-4.3141828,1.5059655,-0.28182232,0.1902384,0.17858222
0.142,1.6040123,-4.270982,1.5714636,-0.35085177,0.10883093,0.1358907
0.144,1.4598951,-4.2170143,1.6326448,-0.41204584,0.040048435,0.09470613
0.146,1.3084868,-4.152331,1.6855481,-0.46367082,-0.013838351,0.055767983
0.148,1.1519425,-4.077105,1.7260886,-0.50416124,-0.05069112,0.019440517
0.15,0.992863,-3.9912739,1.7506709,-0.5323382,-0.06887099,-0.013884567
0.152,0.833875,-3.894939,1.756156,-0.5475377,-0.06743051,-0.043542124
0.154,0.6783382,-3.7884479,1.7393025,-0.54950356,-0.04602103,-0.068591155
0.156,0.5292601,-3.6721857,1.6973777,-0.5383029,-0.00489071,-0.08812754
0.158,0.38961738,-3.5467134,1.6284938,-0.51433396,0.055148408,-0.10150157
0.16,0.26202756,-3.4130096,1.5314889,-0.47835356,0.13262415,-0.10831219
0.162,0.1486491,-3.2722085,1.4066458,-0.43155158,0.2253745,-0.10833294
0.164,0.05150205,-3.1259112,1.2553828,-0.37551165,0.3306264,-0.101516604
0.166,-0.027579665,-2.975637,1.0794668,-0.312157,0.44504976,-0.08806844
0.168,-0.08746058,-2.8231697,0.88120455,-0.24368602,0.5648549,-0.068509296
0.17,-0.12715173,-2.670098,0.66350573,-0.17250936,0.6859338,-0.04368891
0.172,-0.14640343,-2.5181894,0.42969102,-0.10116045,0.80405587,-0.01472345
0.174,-0.14487934,-2.36904,0.18243653,-0.032203764,0.9150646,0.016992986
0.176,-0.12272304,-2.2244701,-0.074876726,0.03190419,1.0152106,0.04990968
0.178,-0.080163,-2.0861022,-0.33854544,0.088939816,1.1012911,0.08251694
0.18,-0.018193483,-1.9556313,-0.60433835,0.137041,1.1709442,0.1134879
0.182,0.06270337,-1.8349422,-0.8678605,0.17483354,1.2227108,0.14167503
0.184,0.16187966,-1.7258373,-1.125199,0.20150553,1.2560946,0.16615832
0.186,0.27905524,-1.6299388,-1.3730223,0.216809,1.271525,0.18623692
0.188,0.41384482,-1.5486192,-1.6085992,0.22099416,1.2701654,0.20158851
0.19,0.565945,-1.4831696,-1.8296516,0.21479978,1.2536998,0.21224767
0.192,0.7352709,-1.4346495,-2.0345218,0.1993903,1.2240672,0.21865511
0.194,0.92202723,-1.4039211,-2.221841,0.17627145,1.1830766,0.22143951
0.196,1.126267,-1.3916008,-2.3908348,0.14722948,1.132484,0.22117743
0.198,1.3483555,-1.3978803,-2.541133,0.114206284,1.0740987,0.21859697
0.2,1.5888299,-1.4225245,-2.6731658,0.07916099,1.009366,0.21483946
0.202,1.8480964,-1.465099,-2.7871392,0.043905526,0.9391378,0.21115705
0.204,2.1250854,-1.5249109,-2.8826537,0.010088772,0.8640453,0.2085179
0.206,2.418171,-1.6007199,-2.9592733,-0.02096352,0.78463507,0.20741196
0.208,2.7257268,-1.6905799,-3.016717,-0.048478886,0.7012501,0.20813805
0.21,3.0462704,-1.7925234,-3.0548406,-0.072218955,0.6141594,0.21116087
0.212,3.378199,-1.9042604,-3.0738447,-0.0923447,0.52362716,0.21706322
0.214,3.7194076,-2.023472,-3.0744312,-0.10923107,0.43002206,0.2263388
0.216,4.065702,-2.1470158,-3.059243,-0.12335726,0.33382836,0.23920202
0.218,4.41603,-2.273467,-3.0318966,-0.13528207,0.2356146,0.25561666
0.22,4.767289,-2.4002109,-2.9948578,-0.1455912,0.13603875,0.27539715
0.222,5.1105514,-2.522808,-2.944897,-0.15481025,0.035829954,0.29829174
0.224,5.439357,-2.6382518,-2.878861,-0.16331163,-0.06424257,0.32398832
0.226,5.750332,-2.7449534,-2.7975955,-0.1712798,-0.16339396,0.35207695
0.228,6.0405264,-2.8406968,-2.7023134,-0.17869586,-0.26083595,0.38210654
0.23,6.3047867,-2.9224498,-2.5935745,-0.18533848,-0.3558516,0.41353288
0.232,6.536685,-2.9870377,-2.4707031,-0.1908708,-0.44779003,0.44572568
0.234,6.7297497,-3.0321076,-2.3325782,-0.19486704,-0.5360861,0.4780327
0.236,6.879571,-3.0566,-2.178904,-0.19686039,-0.62025076,0.50991523
0.238,6.983036,-3.059637,-2.0103717,-0.19640246,-0.6999661,0.5410062
0.24,7.0379343,-3.0403106,-1.8283715,-0.19312833,-0.77497995,0.5711474
0.242,7.0418787,-2.9979005,-1.6344593,-0.18678907,-0.84507036,0.6002419
0.244,6.9937906,-2.9323592,-1.42971,-0.17724396,-0.9098975,0.62827855
0.246,6.892648,-2.8442392,-1.2151489,-0.16441585,-0.9688829,0.65529424
0.248,6.7388306,-2.7346206,-0.9917522,-0.14831564,-1.021367,0.6815007
0.25,6.5329823,-2.6045861,-0.7613179,-0.12905255,-1.0666786,0.70731413
0.252,6.277351,-2.4557645,-0.52625656,-0.10679193,-1.1039592,0.733212
0.254,5.976159,-2.2906852,-0.28944856,-0.08179861,-1.1322451,0.75955844
0.256,5.6339254,-2.1120973,-0.05367945,-0.05449927,-1.1506025,0.7866138
0.258,5.2557254,-1.9229655,0.17849311,-0.025453448,-1.1582562,0.81442577
0.26,4.847051,-1.7266161,0.40466657,0.0047432333,-1.1546574,0.8428524
0.262,4.4139147,-1.5264547,0.62208927,0.03553924,-1.1395963,0.87150496
0.264,3.962896,-1.3258667,0.8281553,0.06647332,-1.1133473,0.89974487
0.266,3.5012147,-1.1283607,1.0203489,0.097220935,-1.0767395,0.9267477
0.268,3.0361948,-0.93722445,1.196644,0.1275753,-1.0310783,0.9515377
0.27,2.574995,-0.7557238,1.355589,0.15741506,-0.9780771,0.9731559
0.272,2.1244907,-0.5870622,1.4958794,0.1865951,-0.91974187,0.99079186
0.274,1.6908674,-0.43397325,1.6168666,0.21487123,-0.85823905,1.0039113
0.276,1.2800454,-0.29907602,1.718354,0.24183597,-0.795702,1.0122912
0.278,0.89746,-0.184493,1.800512,0.26691467,-0.73405135,1.0160092
0.28,0.54867727,-0.09241521,1.8637173,0.28936374,-0.67493653,1.0153892
0.282,0.23769043,-0.023876607,1.909723,0.30833575,-0.61966175,1.0108964
0.284,-0.034750402,0.021187007,1.9416988,0.32299164,-0.5691509,1.0030597
0.286,-0.26800275,0.042545855,1.961119,0.33262897,-0.5240029,0.9923753
0.288,-0.45852786,0.039666474,1.9684603,0.33675036,-0.48458838,0.97922564
0.29,-0.60777634,0.014886975,1.9670413,0.33512744,-0.451117,0.96383816
0.292,-0.71673083,-0.030492067,1.9609538,0.3278559,-0.42366487,0.9462894
0.294,-0.78730226,-0.09477055,1.9508903,0.3153161,-0.402313,0.92658824
0.296,-0.8193518,-0.17682898,1.9380356,0.2980887,-0.38712263,0.90480757
0.298,-0.81471556,-0.27461714,1.9237163,0.27680948,-0.37820402,0.88112724
0.3,-0.7770421,-0.3853405,1.9092804,0.25208935,-0.37565756,0.8558607
0.302,-0.7098575,-0.5066072,1.8959811,0.22451437,-0.37931597,0.8293828
0.304,-0.61713886,-0.63575304,1.8841436,0.19465163,-0.38876498,0.80214024
0.306,-0.50290066,-0.7698703,1.8742604,0.16299582,-0.40347165,0.77475387
0.308,-0.3713065,-0.90589607,1.8671436,0.13001417,-0.4227264,0.7480074
0.31,-0.22703247,-1.0407186,1.8633199,0.09615173,-0.44552344,0.7227315
0.312,-0.0741948,-1.1715027,1.8625503,0.06179416,-0.470708,0.6997378
0.314,0.08332499,-1.2955952,1.8641341,0.027248323,-0.49697047,0.67964506
0.316,0.24152896,-1.4105512,1.866946,-0.0071775783,-0.5225907,0.66301244
0.318,0.3967647,-1.5143588,1.8694867,-0.041181616,-0.5458028,0.65052634
0.32,0.5448117,-1.6048552,1.870745,-0.074399695,-0.5650355,0.6427128
0.322,0.68139213,-1.6802363,1.8700991,-0.10642992,-0.5787363,0.6397735
0.324,0.8030584,-1.7388924,1.8672985,-0.13667604,-0.58516276,0.6418108
0.326,0.9082047,-1.7800989,1.8633333,-0.16454881,-0.5829644,0.6488731
0.328,0.9938501,-1.8026644,1.8585389,-0.18947211,-0.57122445,0.66085434
0.33,1.0567876,-1.8057034,1.8518081,-0.2108081,-0.5492433,0.6774297
0.332,1.0957222,-1.7893893,1.84189,-0.2279796,-0.5167257,0.6981193
0.334,1.1102855,-1.75462,1.8276452,-0.24051523,-0.47382283,0.7223585
0.336,1.0996995,-1.7022034,1.8086009,-0.24811055,-0.42119598,0.7495429
0.338,1.0648116,-1.6338297,1.7847985,-0.25064415,-0.3599787,0.7789722
0.34,1.0063702,-1.5515822,1.7565905,-0.24818653,-0.2916606,0.809773
0.342,0.9254761,-1.4579245,1.7243285,-0.24101108,-0.21801673,0.8409756
0.344,0.82355577,-1.3552922,1.6889539,-0.22960415,-0.14102787,0.8715769
0.346,0.70256716,-1.24622,1.6512762,-0.21462792,-0.062791824,0.9006145
0.348,0.5644007,-1.1331217,1.6120003,-0.19687033,0.014614135,0.9272086
0.35,0.4113999,-1.0185583,1.5722784,-0.1772314,0.08918336,0.95062107
0.352,0.24601617,-0.90484065,1.5329726,-0.15667629,0.15910842,0.9703028
0.354,0.06991182,-0.79380333,1.4952614,-0.13620529,0.22288989,0.98588794
0.356,-0.114641264,-0.6873212,1.460732,-0.11681956,0.2794009,0.99717116
0.358,-0.30537504,-0.5872345,1.430819,-0.099485695,0.3279246,1.0040891
0.36,-0.49984464,-0.49503568,1.4067981,-0.08508173,0.3681365,1.0066904
0.362,-0.69625235,-0.41154194,1.3895652,-0.07433602,0.40005296,1.0051079
0.364,-0.89234537,-0.33751822,1.3794253,-0.06779161,0.4238417,0.99952006
0.366,-1.0857103,-0.27359456,1.376885,-0.0657599,0.43985614,0.99016047
0.368,-1.2737491,-0.2205901,1.3821183,-0.068311095,0.4484877,0.9772903
0.37,-1.4552797,-0.17810506,1.3949922,-0.075305134,0.4498893,0.96107
0.372,-1.6286092,-0.14594348,1.4161901,-0.086423695,0.44424385,0.941475
0.374,-1.7926704,-0.12346178,1.4459175,-0.10120273,0.43183154,0.9185954
0.376,-1.9462258,-0.10998489,1.4845765,-0.11908206,0.41276142,0.8926453
0.378,-2.0883794,-0.10487704,1.5323786,-0.13959569,0.3869741,0.86366284
0.38,-2.2186353,-0.10701825,1.5888848,-0.1622302,0.35487354,0.8316092
0.382,-2.336373,-0.11536494,1.6532909,-0.18656844,0.31719846,0.79655635
0.384,-2.4404283,-0.12893555,1.7246026,-0.21239813,0.27476096,0.75869405
0.386,-2.5303686,-0.14682797,1.8018562,-0.23957285,0.2286971,0.71825147
0.388,-2.606042,-0.16811049,1.8841612,-0.26792127,0.18045403,0.6755031
0.39,-2.6680384,-0.19132629,1.9708179,-0.29724962,0.13168535,0.63076913
0.392,-2.7161112,-0.21583253,2.060603,-0.3272938,0.08412807,0.58451945
0.394,-2.7481267,-0.24159527,2.1515534,-0.35767037,0.039474674,0.5373718
0.396,-2.763859,-0.26740718,2.2437222,-0.38786092,-0.00068286806,0.4900363
0.398,-2.7663212,-0.29181764,2.3375194,-0.41729686,-0.03503207,0.44324738
0.4,-2.754133,-0.3155467,2.430429,-0.44541016,-0.06268744,0.39768133
0.402,-2.7281663,-0.33747393,2.5200593,-0.47160646,-0.08291757,0.35395032
0.404,-2.6893222,-0.35656205,2.607442,-0.49541485,-0.095394194,0.3125648
0.406,-2.6406658,-0.37116343,2.6920898,-0.5164593,-0.10007298,0.27392814
0.408,-2.5833805,-0.3804474,2.773128,-0.53449994,-0.09717065,0.23831373
0.41,-2.5175824,-0.3841214,2.849396,-0.5494762,-0.08728534,0.20584533
0.412,-2.4444442,-0.38117278,2.9200873,-0.56139326,-0.07109712,0.1764605
0.414,-2.3654177,-0.37086293,2.98497,-0.57032835,-0.049310185,0.149939
0.416,-2.2819996,-0.35271573,3.0433192,-0.5764476,-0.02269435,0.12595427
0.418,-2.1962318,-0.3262529,3.0943093,-0.5799222,0.008099154,0.1041179
0.42,-2.1097367,-0.2911963,3.1375258,-0.58096516,0.042512044,0.08406171
0.422,-2.0244317,-0.24716675,3.1728423,-0.57983035,0.080048084,0.06551801
0.424,-1.9420744,-0.19394627,3.200266,-0.5767972,0.12035064,0.048285812
0.426,-1.863932,-0.13157529,3.2196636,-0.5721526,0.16320288,0.032257088
0.428,-1.7918223,-0.06026697,3.2312303,-0.5662057,0.20847449,0.01742505
0.43,-1.7270503,0.019729078,3.2346504,-0.5592393,0.2560392,0.0038702749
0.432,-1.6706172,0.107721925,3.2293856,-0.55150175,0.3057598,-0.008293122
0.434,-1.6231723,0.202937,3.2147226,-0.5431506,0.35742053,-0.018922875
0.436,-1.5853164,0.30433863,3.1900816,-0.53425467,0.4106894,-0.027899813
0.438,-1.5574212,0.41099602,3.1548414,-0.5247951,0.46511742,-0.03513318
0.44,-1.5397141,0.52189726,3.1088285,-0.51472944,0.5200309,-0.040621303
0.442,-1.5323001,0.63603985,3.0517159,-0.5040499,0.5745341,-0.04447224
0.444,-1.5353285,0.7525009,2.9840279,-0.49281132,0.62753975,-0.046896048
0.446,-1.5480492,0.86977005,2.906382,-0.4811995,0.67775184,-0.048199818
0.448,-1.5704223,0.98673177,2.8195834,-0.46954644,0.72369546,-0.048773617
0.45,-1.6017835,1.1020637,2.7250705,-0.4583063,0.7638055,-0.049089357
0.452,-1.6413732,1.2148197,2.6247845,-0.44796777,0.7965968,-0.049675018
0.454,-1.6883733,1.32367,2.5203452,-0.43904018,0.82073766,-0.051024675
0.456,-1.7416816,1.4275978,2.4136562,-0.43204555,0.834867,-0.053628772
0.458,-1.8001739,1.5256736,2.3065636,-0.4273515,0.8380392,-0.057897493
0.46,-1.8630459,1.6172717,2.2009037,-0.42520827,0.82967085,-0.064158216
0.462,-1.9290794,1.7018578,2.0985932,-0.4256783,0.80967826,-0.07258566
0.464,-1.9967151,1.7785618,2.0011382,-0.42862976,0.77867126,-0.08318932
0.466,-2.0648534,1.8470461,1.9096074,-0.43386972,0.73773414,-0.095787734
0.468,-2.1324267,1.9071665,1.8250954,-0.44107777,0.68851614,-0.1100667
0.47,-2.1984973,1.9588552,1.7484734,-0.44981673,0.6332729,-0.12559652
0.472,-2.2616692,2.0020363,1.6805959,-0.4595942,0.5746396,-0.14188401
0.474,-2.32096,2.036921,1.6218929,-0.46983021,0.5154544,-0.15843116
0.476,-2.3753555,2.063952,1.5718963,-0.4798826,0.45860213,-0.17475174
0.478,-2.4243486,2.083892,1.5298454,-0.4890503,0.40679568,-0.19040608
0.48,-2.4659362,2.0965893,1.4946842,-0.49661705,0.36234775,-0.20503137
0.482,-2.499189,2.1024332,1.4640343,-0.50189537,0.3269911,-0.21841455
0.484,-2.5228813,2.101741,1.4359629,-0.50427574,0.30183926,-0.23050432
0.486,-2.536429,2.0951009,1.408211,-0.5032782,0.28729567,-0.24138808
0.488,-2.5389478,2.0832808,1.379003,-0.49861997,0.28304392,-0.25131217
0.49,-2.5295722,2.0667002,1.3472358,-0.4902025,0.28818446,-0.26061565
0.492,-2.5077672,2.0460122,1.3120484,-0.47814438,0.30135074,-0.26967338
0.494,-2.4737482,2.021728,1.2724879,-0.46275997,0.32085165,-0.278849
0.496,-2.4270315,1.9943279,1.2278321,-0.44453117,0.34483546,-0.28846988
0.498,-2.3673632,1.9641844,1.1773992,-0.4240431,0.37142518,-0.29877177
0.5,-2.2945771,1.9314038,1.1205777,-0.40195057,0.39884618,-0.3099096
0.502,-2.2088933,1.8961346,1.0570934,-0.37890193,0.42551795,-0.32195246
0.504,-2.110938,1.8587756,0.9870225,-0.3554982,0.4500578,-0.33488417
0.506,-2.001314,1.8193353,0.9108311,-0.33225635,0.47129357,-0.34863135
0.508,-1.8806436,1.7780554,0.8296199,-0.3096068,0.48826927,-0.36307067
0.51,-1.7498499,1.7351589,0.74471617,-0.2878843,0.5002129,-0.37808263
0.512,-1.609997,1.6908224,0.6574423,-0.26735216,0.5065271,-0.39355007
0.514,-1.4620212,1.645105,0.5692853,-0.24822591,0.5067683,-0.40936488
0.516,-1.3070203,1.5980402,0.48163477,-0.23069365,0.50068235,-0.42544505
0.518,-1.1462257,1.5496943,0.39565113,-0.21491462,0.48819762,-0.44168147
0.52,-0.9808104,1.5001247,0.31236073,-0.20099477,0.46947625,-0.45797074
0.522,-0.8119628,1.4494048,0.23236483,-0.18900448,0.4448883,-0.47420362
0.524,-0.64059997,1.3975122,0.15616894,-0.17896679,0.41499475,-0.49026808
0.526,-0.4680058,1.3446863,0.084285825,-0.17086005,0.38049582,-0.50604767
0.528,-0.29517922,1.2911563,0.01692897,-0.16460764,0.34218195,-0.52143085
0.53,-0.123251945,1.2372391,-0.046045423,-0.16008186,0.3008468,-0.53634834
0.532,0.046682566,1.1834189,-0.10481197,-0.15713044,0.25717586,-0.5507789
0.534,0.21368392,1.1301887,-0.15949744,-0.15558423,0.2117277,-0.5647522
0.536,0.37675387,1.0781107,-0.21012482,-0.15526286,0.16488141,-0.5783391
0.538,0.5349998,1.0279334,-0.2568561,-0.15599349,0.116838545,-0.591653
0.54,0.6874935,0.9800527,-0.29985344,-0.15758368,0.06768814,-0.6048529
0.542,0.83370066,0.93517166,-0.33939165,-0.15985426,0.017476887,-0.61809534
0.544,0.9728921,0.8939519,-0.3756488,-0.1626266,-0.03376186,-0.63150984
0.546,1.1045425,0.85701346,-0.40888605,-0.16568838,-0.08592492,-0.6451701
0.548,1.2281339,0.8248464,-0.43925062,-0.16879414,-0.13875374,-0.65906763
0.55,1.3434206,0.7979616,-0.4669406,-0.17164925,-0.1918353,-0.6731226
0.552,1.4501963,0.7767633,-0.4917664,-0.17390053,-0.24457152,-0.6871547
0.554,1.5481765,0.7615926,-0.513638,-0.1751315,-0.2961795,-0.70088685
0.556,1.6372945,0.7527039,-0.53221405,-0.17490092,-0.34574118,-0.7139497
0.558,1.7174994,0.75020224,-0.5467962,-0.17273985,-0.39219669,-0.7259289
0.56,1.7886614,0.75419766,-0.5567684,-0.16816261,-0.43438494,-0.7363806
0.562,1.8508041,0.764471,-0.5614595,-0.1606921,-0.4711203,-0.7448815
0.564,1.9041518,0.78068185,-0.55988884,-0.14989066,-0.5012306,-0.7510027
0.566,1.9484888,0.80231833,-0.5511871,-0.1353876,-0.5236502,-0.75439554
0.568,1.9842986,0.8288181,-0.5344909,-0.11687446,-0.5374034,-0.7547796
0.57,2.0118122,0.85949594,-0.50886893,-0.09414798,-0.54166585,-0.75195825
0.572,2.0314102,0.89342505,-0.4734953,-0.06711069,-0.5358064,-0.7458174
0.574,2.043412,0.9298083,-0.42770934,-0.03579685,-0.5194706,-0.73631287
0.576,2.048291,0.9677406,-0.37140155,-0.00037133694,-0.49256286,-0.7234597
0.578,2.04635,1.0064797,-0.30466598,0.03887871,-0.45527232,-0.70736957
0.58,2.0379424,1.0451871,-0.22749913,0.081519246,-0.4080575,-0.6882301
0.582,2.023551,1.0828938,-0.14011842,0.12698612,-0.3516521,-0.6662915
0.584,2.0036006,1.1187491,-0.043278515,0.1746013,-0.28705668,-0.641853
0.586,1.9783344,1.1521014,0.062369704,0.22360429,-0.2155062,-0.615268
0.588,1.9482956,1.1824889,0.17603737,0.27320194,-0.13844678,-0.58696485
0.59,1.9136615,1.2095284,0.29665387,0.32257363,-0.057478487,-0.5574319
0.592,1.8748946,1.2329624,0.42318237,0.37093687,0.025661409,-0.5272125
0.594,1.8323407,1.2526038,0.5542458,0.41755092,0.10918696,-0.4968736
0.596,1.7865506,1.2681587,0.68846875,0.46176502,0.19129488,-0.46700087
0.598,1.737776,1.2796481,0.82438993,0.50302404,0.27020478,-0.43813103
0.6,1.6865903,1.2872913,0.9603323,0.5408641,0.34424335,-0.4107198
0.602,1.6336195,1.2910867,1.0949873,0.5749339,0.41186267,-0.38512194
0.604,1.5793064,1.291605,1.2271645,0.6049766,0.47171187,-0.36157504
0.606,1.5243084,1.28927,1.3556573,0.6308104,0.5226447,-0.3402116
0.608,1.4692111,1.2846076,1.479433,0.6523513,0.5637106,-0.3210588
0.61,1.4145935,1.2780027,1.5978165,0.6696285,0.59422475,-0.3041103
0.612,1.3612705,1.2700751,1.7102236,0.6827906,0.61383575,-0.28934255
0.614,1.3099856,1.2612159,1.8162539,0.69208384,0.6225014,-0.276696
0.616,1.2613586,1.2519419,1.915736,0.69783443,0.6204808,-0.26611334
0.618,1.2159855,1.2427313,2.0085363,0.7004483,0.6083485,-0.2575554
0.62,1.1746005,1.2339412,2.0945184,0.7004122,0.586989,-0.2509655
0.622,1.1379178,1.2259161,2.1737404,0.6982578,0.55754846,-0.2462722
0.624,1.1064451,1.2188892,2.246486,0.6945802,0.5214057,-0.24337026
0.626,1.0806023,1.2130666,2.3132985,0.69001186,0.48014873,-0.24206915
0.628,1.0608401,1.2085111,2.3745985,0.68518305,0.43550107,-0.24208447
0.63,1.0473218,1.2053745,2.4309952,0.6807307,0.38925546,-0.24306263
0.632,1.0403036,1.2034717,2.4828982,0.6772158,0.34313667,-0.24454339
0.634,1.0397015,1.2028528,2.5307498,0.67513335,0.29875314,-0.24606924
0.636,1.0454223,1.2031949,2.574903,0.6748687,0.25752664,-0.24721007
0.638,1.0573909,1.2041104,2.6157827,0.67666364,0.22059815,-0.2475941
0.64,1.0754901,1.205176,2.6540375,0.68062305,0.18878348,-0.24692142
0.642,1.0993228,1.205977,2.6903057,0.6867044,0.16251816,-0.24498226
0.644,1.1283416,1.2059398,2.725016,0.69474465,0.14187095,-0.24167398
0.646,1.1620917,1.204633,2.7585268,0.70445716,0.1265904,-0.23700745
0.648,1.2001678,1.2013514,2.791325,0.71547765,0.116166115,-0.23110111
0.65,1.242085,1.1957476,2.8239288,0.7274008,0.109904796,-0.22413549
0.652,1.2870215,1.1873603,2.8568416,0.73982596,0.10704929,-0.21633986
0.654,1.3344879,1.1757264,2.8903022,0.7523619,0.10682772,-0.20795925
0.656,1.384125,1.1604087,2.9250927,0.76466525,0.10853623,-0.19919881
0.658,1.43577,1.1414214,2.9607363,0.7764682,0.111561656,-0.19023679
0.66,1.4889135,1.1183771,2.997722,0.7875799,0.115435645,-0.18122779
0.662,1.5425825,1.0917485,3.035986,0.79786336,0.11986762,-0.17230007
0.664,1.5969173,1.0618659,3.0757127,0.8072425,0.124676764,-0.16352321
0.666,1.6517938,1.0287507,3.1166239,0.8157061,0.12976594,-0.15491879
0.668,1.7068923,0.99258554,3.1585655,0.82330924,0.13513716,-0.14649521
0.67,1.7622834,0.9538623,3.201276,0.83018297,0.14088807,-0.13823897
0.672,1.8175273,0.9131522,3.244471,0.83650863,0.14715384,-0.13008434
0.674,1.8724606,0.8711592,3.2877712,0.842476,0.15407012,-0.12197171
0.676,1.9270825,0.8286536,3.3307858,0.8482893,0.16177237,-0.1138276
0.678,1.9810407,0.78647673,3.3730164,0.85414743,0.17036483,-0.10558531
0.68,2.034109,0.74541295,3.4136877,0.86021817,0.17991844,-0.09721774
0.682,2.0861053,0.7061684,3.452334,0.8666551,0.19048062,-0.08870962
0.684,2.1368275,0.6694802,3.4884973,0.8735495,0.20203935,-0.08004983
0.686,2.185748,0.63607645,3.5217953,0.88102555,0.2146016,-0.07121897
0.688,2.2327535,0.6063827,3.551824,0.8891595,0.228181,-0.062164217
0.69,2.277185,0.5808748,3.5779884,0.8979754,0.24272087,-0.052803874
0.692,2.318233,0.560217,3.5999708,0.90752614,0.25822863,-0.043013543
0.694,2.3553534,0.54490364,3.6177766,0.9178278,0.27473754,-0.03270939
0.696,2.3876235,0.5351931,3.6313436,0.9288691,0.2922724,-0.021831155
0.698,2.4141905,0.53105795,3.6406841,0.94060004,0.3108315,-0.010293186
0.7,2.4343328,0.532215,3.6459837,0.9529326,0.3303867,0.0019924045
0.702,2.4469857,0.5386473,3.647462,0.9657543,0.35087946,0.015096247
0.704,2.4512682,0.5501044,3.6455545,0.97892094,0.37224174,0.029013902
0.706,2.4461985,0.56652856,3.6406972,0.99224067,0.39436406,0.04371205
0.708,2.4309177,0.5873281,3.6330705,1.005533,0.41710868,0.059122145
0.71,2.4046254,0.61195755,3.623197,1.018604,0.44032758,0.07514459
0.712,2.366475,0.6400113,3.6113186,1.0312536,0.4638359,0.09169501
0.714,2.3161147,0.6707983,3.5975635,1.0432959,0.48741496,0.10869375
0.716,2.2529986,0.70384,3.5821261,1.0545645,0.5108046,0.12609187
0.718,2.177016,0.7385404,3.5653954,1.0648868,0.53370106,0.1438478
0.72,2.087966,0.77449536,3.547358,1.0740926,0.5557351,0.16193661
0.722,1.985873,0.81132483,3.5278087,1.0820426,0.5765251,0.18034431
0.724,1.8712432,0.84853697,3.506526,1.0886111,0.59566444,0.19905698
0.726,1.7445538,0.8857695,3.4832382,1.0937154,0.6127344,0.21801251
0.728,1.6065181,0.9227536,3.4576025,1.0972981,0.627326,0.2371366
0.73,1.457801,0.95943093,3.4294727,1.0993415,0.6390747,0.25630623
0.732,1.299517,0.9955889,3.3984036,1.0998807,0.64769214,0.27535468
0.734,1.1329411,1.0313131,3.36381,1.0990089,0.6529551,0.29404643
0.736,0.95930654,1.0664306,3.3251023,1.0968535,0.6547061,0.31209147
0.738,0.78014755,1.1010067,3.2821012,1.0936025,0.6528796,0.32917297
0.74,0.596967,1.1350499,3.2343307,1.0894322,0.647466,0.3449325
0.742,0.4113751,1.1687417,3.1815472,1.0845556,0.638484,0.35902917
0.744,0.22494364,1.2022767,3.123712,1.0791808,0.6260187,0.37112555
0.746,0.03923917,1.2357947,3.0606303,1.073488,0.6101551,0.3809254
0.748,-0.14434367,1.2694678,2.992471,1.0676742,0.5910552,0.388228
0.75,-0.32431257,1.3033283,2.9193807,1.06193,0.5689548,0.39290538
0.752,-0.49956083,1.3373166,2.8418007,1.0564528,0.54418844,0.39485857
0.754,-0.6689408,1.3716555,2.7600799,1.051451,0.5171544,0.3940724
0.756,-0.8314666,1.4061232,2.6749997,1.0471286,0.488321,0.39063781
0.758,-0.98652333,1.4405673,2.5874512,1.0437135,0.45823115,0.38477284
0.76,-1.1335392,1.4746749,2.498286,1.0414532,0.427522,0.37673074
0.762,-1.2720332,1.5081193,2.408705,1.0405935,0.39686105,0.3668397
0.764,-1.4017868,1.540445,2.3197715,1.0413731,0.36693162,0.3554581
0.766,-1.5230339,1.571431,2.2320704,1.0440302,0.33840525,0.34298313
0.768,-1.6359783,1.6003141,2.147321,1.0487705,0.311924,0.32983136
0.77,-1.7407229,1.6268468,2.066048,1.05576,0.28806755,0.3164381
0.772,-1.8371838,1.6501497,1.9892565,1.0651189,0.26736158,0.30325943
0.774,-1.9261951,1.6695445,1.917552,1.0769126,0.2502547,0.29071778
0.776,-2.0084865,1.6847447,1.8518876,1.0911524,0.23714665,0.27922976
0.778,-2.0845084,1.695309,1.7927481,1.1078272,0.228365,0.26918983
0.78,-2.1551204,1.7006382,1.7405186,1.1268923,0.2241652,0.26097333
0.782,-2.2206395,1.7002316,1.6955417,1.1483281,0.22473481,0.2548808
0.784,-2.2817142,1.6937456,1.6579571,1.1720859,0.23014936,0.25114414
0.786,-2.3389306,1.6809437,1.6277909,1.1981121,0.24037197,0.2499059
0.788,-2.3927314,1.6615489,1.6049236,1.2263441,0.25524926,0.25126225
0.79,-2.4435337,1.635596,1.5891714,1.2567004,0.27448523,0.2552241
0.792,-2.4917412,1.6032884,1.5802339,1.2890606,0.29763895,0.2617248
0.794,-2.5374405,1.5647147,1.5775907,1.3232934,0.32417378,0.27061552
0.796,-2.5807018,1.520083,1.581044,1.3592203,0.35345164,0.28166512
0.798,-2.6215315,1.4697092,1.5902379,1.3966329,0.38479477,0.29458398
0.8,-2.6595213,1.4141154,1.6047442,1.4352684,0.41743404,0.3090012
0.802,-2.6943102,1.3535169,1.6240102,1.4748459,0.45057058,0.32449773
0.804,-2.7256315,1.2882503,1.6476604,1.5150716,0.48341334,0.34061188
0.806,-2.752792,1.2188656,1.6751069,1.5556576,0.5151855,0.35685813
0.808,-2.7753463,1.1458461,1.705865,1.5963172,0.54516226,0.37274587
0.81,-2.7927568,1.0699524,1.7395523,1.636766,0.572654,0.38778672
0.812,-2.8043542,0.9915979,1.7759039,1.6767316,0.59702367,0.4015088
0.814,-2.8097034,0.91125214,1.8146281,1.7159731,0.6176816,0.41349846
0.816,-2.808365,0.8293816,1.855468,1.7542791,0.63414115,0.42338488
0.818,-2.7997098,0.74647826,1.8983343,1.7914507,0.6459975,0.4308539
0.82,-2.7834969,0.6631524,1.9430525,1.8273032,0.65296775,0.43567678
0.822,-2.75932,0.57984555,1.9894516,1.8616927,0.6548701,0.43767306
0.824,-2.7271118,0.4968766,2.0374255,1.8944827,0.65162563,0.4367249
0.826,-2.6868567,0.4146173,2.0868652,1.9255593,0.6432754,0.43277866
0.828,-2.6385655,0.33341616,2.1375136,1.954823,0.62998205,0.42585713
0.83,-2.5822864,0.25350568,2.189504,1.982199,0.61199313,0.4160164
0.832,-2.5184677,0.1749337,2.2427933,2.0076318,0.5896631,0.40335166
0.834,-2.4475265,0.09801807,2.2972784,2.0311003,0.5634313,0.38799334
0.836,-2.3699608,0.022886682,2.3529203,2.0526078,0.53381526,0.3701042
0.838,-2.2862875,-0.050413467,2.4095728,2.072222,0.5013887,0.3498601
0.84,-2.197076,-0.12184447,2.467076,2.0900645,0.46677518,0.3274822
0.842,-2.1032917,-0.19127834,2.5253198,2.106291,0.43063086,0.30320254
0.844,-2.0055628,-0.25898123,2.584216,2.1211138,0.39363796,0.2773087
0.846,-1.9048158,-0.32481587,2.6435797,2.134779,0.356488,0.25013185
0.848,-1.80182,-0.38903248,2.7032793,2.1475484,0.3198468,0.22203773
0.85,-1.6972498,-0.45171526,2.7629862,2.1597028,0.28437495,0.19341272
0.852,-1.5920159,-0.5131309,2.8226423,2.171515,0.25066155,0.16465333
0.854,-1.4868926,-0.57358193,2.881961,2.1832376,0.21927905,0.13614711
0.856,-1.3825113,-0.633192,2.9409423,2.1950986,0.19071966,0.10826573
0.858,-1.2795867,-0.6921903,2.9992564,2.2072885,0.16541857,0.08134219
0.86,-1.1785958,-0.750647,3.056693,2.2199688,0.14371681,0.055665076
0.862,-1.0800217,-0.80882555,3.1129138,2.2332616,0.12589127,0.031464994
0.864,-0.9842922,-0.86692345,3.1678653,2.2472608,0.112112164,0.008928299
0.866,-0.8918506,-0.92493236,3.2211597,2.2620194,0.10246152,-0.011799842
0.868,-0.80291516,-0.9827778,3.2724683,2.2775524,0.096927464,-0.030619204
0.87,-0.71784806,-1.0404012,3.3215413,2.2938297,0.09540039,-0.047478676
0.872,-0.6367868,-1.0977769,3.3680384,2.3107913,0.09767789,-0.062374324
0.874,-0.55989826,-1.1547382,3.4118578,2.3283403,0.10345262,-0.07533336
0.876,-0.4871885,-1.2111807,3.4528892,2.346331,0.11237782,-0.08638263
0.878,-0.41887122,-1.2667918,3.4908822,2.3646255,0.12405902,-0.09559655
0.88,-0.35495874,-1.321326,3.5256727,2.3830776,0.13808882,-0.1030691
0.882,-0.29544157,-1.3745545,3.5570288,2.401558,0.15407306,-0.1089071
0.884,-0.24030283,-1.4260933,3.5847073,2.4199455,0.17164785,-0.1132392
0.886,-0.18946373,-1.4755669,3.6085567,2.4381633,0.19051415,-0.11620438
0.888,-0.14290786,-1.5226724,3.628404,2.4561877,0.21043694,-0.117984354
0.89,-0.100409634,-1.5671358,3.6442878,2.4740374,0.23124176,-0.11877102
0.892,-0.061820835,-1.6087325,3.6561258,2.4917686,0.2528034,-0.1187571
0.894,-0.026818141,-1.647321,3.6638632,2.5094442,0.27501637,-0.11815488
0.896,0.00469622,-1.6827905,3.66745,2.5271554,0.29778856,-0.1171799
0.898,0.03319086,-1.7150606,3.6669178,2.5449796,0.32101345,-0.11602309
0.9,0.059031293,-1.7442101,3.6623769,2.562988,0.3445564,-0.11486468
0.902,0.08248031,-1.7703338,3.6539493,2.5812225,0.3682511,-0.11382854
0.904,0.10408157,-1.7935874,3.641943,2.599712,0.39191103,-0.11298537
0.906,0.1243213,-1.8143499,3.6263783,2.618458,0.41534746,-0.11237514
0.908,0.1436797,-1.8328414,3.6076086,2.637454,0.43832266,-0.11200553
0.91,0.16258009,-1.8496737,3.5858471,2.6566594,0.4605754,-0.11185554
0.912,0.18168919,-1.8652657,3.5615768,2.676041,0.481817,-0.111889094
0.914,0.20152545,-1.8800453,3.535234,2.6955392,0.501764,-0.11207664
0.916,0.22261012,-1.8947686,3.5072994,2.7151036,0.5201019,-0.1123929
0.918,0.24553546,-1.909936,3.478186,2.7346714,0.53653014,-0.112819225
0.92,0.27053836,-1.9262841,3.448381,2.7541623,0.5507431,-0.113357335
0.922,0.29821244,-1.9444422,3.4181874,2.7735114,0.56244016,-0.11401972
0.924,0.32890126,-1.9648981,3.3881123,2.7926412,0.5713444,-0.11479586
0.926,0.36289868,-1.9881014,3.3586125,2.8114738,0.57720155,-0.11566213
0.928,0.40015385,-2.014427,3.3300486,2.8299344,0.57978916,-0.11660293
0.93,0.440796,-2.0444357,3.3026962,2.8479462,0.57889926,-0.11757845
0.932,0.4847324,-2.0783033,3.2769015,2.8654194,0.5743595,-0.11854285
0.934,0.5316232,-2.116075,3.2529302,2.8822613,0.56600624,-0.11946514
0.936,0.5812336,-2.1579237,3.2311246,2.8983586,0.5536624,-0.12033829
0.938,0.6330496,-2.2036355,3.2118006,2.9135854,0.5371469,-0.12116909
0.94,0.6866324,-2.2531283,3.1950436,2.9278154,0.5162553,-0.12201589
0.942,0.74145514,-2.3061228,3.1812952,2.9409075,0.4907875,-0.12295318
0.944,0.79663956,-2.3621955,3.1707673,2.9527297,0.4605518,-0.12408543
0.946,0.85145456,-2.4208798,3.163326,2.9631443,0.4253741,-0.12556148
0.948,0.90522134,-2.4817317,3.1591625,2.972057,0.38512915,-0.12752476
0.95,0.9572455,-2.5443177,3.1583133,2.9794154,0.3397553,-0.13008744
0.952,1.0067155,-2.6080265,3.1609366,2.985222,0.28929436,-0.13334145
0.954,1.0527116,-2.6721196,3.1670666,2.9895408,0.23391545,-0.1373077
0.956,1.0949583,-2.736208,3.1767955,2.992507,0.17394209,-0.1419474
0.958,1.1330173,-2.7997053,3.1900003,2.9943216,0.10983801,-0.1471621
0.96,1.1661233,-2.8618865,3.206813,2.9952533,0.04223144,-0.15275384
0.962,1.1934369,-2.9221482,3.2271216,2.9956026,-0.028127551,-0.15843868
0.964,1.2149444,-2.9802425,3.2505212,2.995713,-0.10037923,-0.16390964
0.966,1.2307255,-3.036127,3.2767267,2.9959483,-0.173603,-0.16882545
0.968,1.2411358,-3.089515,3.3060203,2.9966578,-0.24688727,-0.17285287
0.97,1.2457304,-3.1396961,3.3385835,2.998157,-0.31935352,-0.17567757
0.972,1.2449065,-3.186481,3.3741398,3.0007272,-0.39021367,-0.17704087
0.974,1.239337,-3.2301679,3.4123373,3.0046058,-0.45881826,-0.17674652
0.976,1.2294593,-3.2705178,3.4528463,3.00994,-0.52466315,-0.17466787
0.978,1.2157927,-3.3075614,3.4949598,3.0168355,-0.58741766,-0.17074469
0.98,1.199209,-3.341527,3.5380735,3.0253267,-0.64690846,-0.1649795
0.982,1.180754,-3.372412,3.5817153,3.0353873,-0.7031396,-0.15742281
0.984,1.1612518,-3.400294,3.6255236,3.046941,-0.7562618,-0.14816822
0.986,1.1417644,-3.4252696,3.6690924,3.059874,-0.806547,-0.13731384
0.988,1.1231205,-3.447514,3.712153,3.0740435,-0.8543463,-0.12499619
0.99,1.1062167,-3.467203,3.7542086,3.0892568,-0.90011203,-0.111396685
0.992,1.0918707,-3.4844766,3.794644,3.1053338,-0.94435,-0.096728824
0.994,1.08068,-3.4994636,3.8329144,3.1220636,-0.9875741,-0.08117839
0.996,1.0732784,-3.5123935,3.8681579,3.1392398,-1.0303279,-0.064989164
0.998,1.0703584,-3.5235927,3.8997233,3.1566641,-1.0731643,-0.048389778
1,1.0722048,-3.5329108,3.9267402,3.1741767,-1.1166106,-0.03158077
1.002,1.0792431,-3.5406065,3.9483254,3.1916327,-1.1611581,-0.014738999
1.004,1.0915095,-3.5468562,3.9638386,3.2088804,-1.2073075,0.0020344008
1.006,1.1091764,-3.5517302,3.972741,3.2257972,-1.255517,0.01870987
1.008,1.1321009,-3.5553613,3.974329,3.2422924,-1.3061835,0.035320204
1.01,1.1601613,-3.5576339,3.9679875,3.2583098,-1.3596436,0.05197879
1.012,1.1933503,-3.5588381,3.9531424,3.2738085,-1.416217,0.06882809
1.014,1.2313751,-3.5591803,3.929136,3.2887654,-1.4761511,0.08596998
1.016,1.274359,-3.5583634,3.895553,3.3032086,-1.539607,0.10345657
1.018,1.3214039,-3.5560758,3.8518622,3.3171515,-1.606731,0.121289514
1.02,1.372331,-3.5524201,3.7978683,3.3305964,-1.6777039,0.13937835
1.022,1.426998,-3.5476642,3.7332885,3.343527,-1.7527716,0.15753816
1.024,1.4850669,-3.5417562,3.6579947,3.3558881,-1.8322731,0.17546013
1.026,1.5461906,-3.534306,3.5720735,3.3676023,-1.9166355,0.19277155
1.028,1.6100116,-3.5253344,3.4760344,3.3785636,-2.006328,0.20906037
1.03,1.6763291,-3.514878,3.37024,3.3886783,-2.101819,0.22388461
1.032,1.7448013,-3.502983,3.2556267,3.3978422,-2.2034876,0.23679337
1.034,1.8164507,-3.490234,3.1342082,3.4059844,-2.3115606,0.24741773
1.036,1.8898815,-3.4756021,3.0077276,3.4130826,-2.4260101,0.25547802
1.038,1.9621295,-3.4576075,2.8756745,3.4191523,-2.5465696,0.26080266
1.04,2.0343103,-3.437232,2.737423,3.4242342,-2.6727452,0.26329494
1.042,2.1080332,-3.4149163,2.592839,3.4284005,-2.8038335,0.26297474
1.044,2.184318,-3.3906384,2.4438815,3.4317489,-2.9389255,0.2599795
1.046,2.2622676,-3.3642125,2.2933888,3.434363,-3.0770516,0.254479
1.048,2.3400948,-3.3354049,2.14347,3.436287,-3.217273,0.24661057
1.05,2.418524,-3.3047485,1.9959345,3.4375677,-3.3586946,0.23654966
1.052,2.4970353,-3.271718,1.8519317,3.4382427,-3.5004656,0.22453295
1.054,2.5754457,-3.2360904,1.7121398,3.438355,-3.6418164,0.21080719
1.056,2.6533294,-3.1977267,1.5778011,3.4379847,-3.7820263,0.19558626
1.058,2.729444,-3.156721,1.4502254,3.4372861,-3.92033,0.17904022
1.06,2.8059824,-3.114561,1.330348,3.436472,-4.0559635,0.1613687
1.062,2.8832185,-3.0708566,1.2182708,3.435766,-4.188192,0.1427562
1.064,2.9596047,-3.0244966,1.1143646,3.435361,-4.3164005,0.12330124
1.066,3.0351892,-2.976347,1.0210186,3.435472,-4.4400444,0.10305077
1.068,3.1092582,-2.9270105,0.93808883,3.436355,-4.558526,0.0820207
1.07,3.1819484,-2.876586,0.8668489,3.4381943,-4.671401,0.060358584
1.072,3.2528982,-2.824877,0.8089957,3.4411764,-4.7783875,0.03820634
1.074,3.320411,-2.7717094,0.76613694,3.4454517,-4.8793063,0.015488863
1.076,3.3834338,-2.7174559,0.73934996,3.451169,-4.973958,-0.007974684
1.078,3.441205,-2.6632023,0.72901696,3.4585528,-5.061958,-0.032232165
1.08,3.49314,-2.6103673,0.73587227,3.467876,-5.14275,-0.057104826
1.082,3.5383258,-2.560134,0.76094025,3.479556,-5.215567,-0.082273364
1.084,3.5765316,-2.5140305,0.8049748,3.4941432,-5.2792854,-0.10734391
1.086,3.6089885,-2.4743829,0.8680371,3.512243,-5.3325663,-0.13177729
1.088,3.6363714,-2.4428148,0.949316,3.5345047,-5.373845,-0.15489268
1.09,3.6583166,-2.4202495,1.0475469,3.5616298,-5.40116,-0.1757648
1.092,3.6742167,-2.4078374,1.1616713,3.5942745,-5.4123335,-0.19344342
1.094,3.684436,-2.4066567,1.2910143,3.632875,-5.405327,-0.20718956
1.096,3.6897564,-2.4179065,1.4351984,3.6774464,-5.3782415,-0.21623158
1.098,3.690325,-2.4424608,1.5937691,3.727909,-5.329411,-0.21969497
1.1,3.6873872,-2.481557,1.7659469,3.783972,-5.2577496,-0.21691823
1.102,3.682598,-2.536563,1.9504604,3.845111,-5.1628246,-0.20757496
1.104,3.6777444,-2.6086583,2.1457362,3.9106505,-5.044854,-0.19170463
1.106,3.6747603,-2.6985893,2.3500974,3.9798334,-4.904814,-0.1697334
1.108,3.6755643,-2.8069355,2.5619478,4.0518446,-4.744418,-0.1423583
1.11,3.6823719,-2.9342728,2.7795465,4.125842,-4.5661097,-0.1104753
1.112,3.6972582,-3.0805793,3.0010736,4.20093,-4.3729253,-0.07506895
1.114,3.7224898,-3.2453234,3.2244272,4.2761626,-4.1682696,-0.03706062
1.116,3.7603428,-3.4278803,3.4474268,4.350619,-3.955565,0.0029099584
1.118,3.812943,-3.6269135,3.6678529,4.4234,-3.7380443,0.044508994
1.12,3.881979,-3.840714,3.8833778,4.4934926,-3.5187755,0.0877009
1.122,3.968862,-4.066683,4.091732,4.5598702,-3.300559,0.13278759
1.124,4.074722,-4.3020177,4.2908416,4.6217165,-3.085515,0.1803081
1.126,4.2001534,-4.5436954,4.4784336,4.6784754,-2.874974,0.23103672
1.128,4.345695,-4.7883377,4.6524477,4.729909,-2.669579,0.28593925
1.13,4.5109816,-5.0318923,4.8108854,4.7760844,-2.4695287,0.3458178
1.132,4.694751,-5.2701015,4.9522552,4.8173003,-2.2748494,0.41112134
1.134,4.895734,-5.499107,5.07522,4.854121,-2.0855196,0.48193938
1.136,5.1117744,-5.7150145,5.1786213,4.887231,-1.9016358,0.5581219
1.138,5.3403153,-5.9138355,5.261513,4.917363,-1.7236657,0.6392836
1.14,5.5784388,-6.091926,5.323592,4.945237,-1.5524073,0.72471845
1.142,5.8224974,-6.2459216,5.3645115,4.971388,-1.3890517,0.81346714
1.144,6.0675135,-6.3725986,5.383479,4.996064,-1.2352719,0.9043614
1.146,6.3102655,-6.4706955,5.380957,5.019267,-1.0928531,0.996287
1.148,6.548386,-6.5393386,5.360122,5.040832,-0.96337026,1.0883645
1.15,6.77517,-6.575736,5.323659,5.060493,-0.8482067,1.1796414
1.152,6.9844613,-6.578905,5.273418,5.077636,-0.7484151,1.2692401
1.154,7.172009,-6.5490103,5.209194,5.0915804,-0.6644669,1.3567253
1.156,7.3355417,-6.4869285,5.130626,5.101703,-0.596416,1.4420573
1.158,7.4739327,-6.3942685,5.0388885,5.107387,-0.54410505,1.5254291
1.16,7.5835333,-6.2720194,4.935844,5.1080837,-0.5071518,1.6071713
1.162,7.6628394,-6.1229167,4.8241186,5.103363,-0.48504606,1.687663
1.164,7.7104917,-5.9493437,4.7064724,5.0929236,-0.4772972,1.7672479
1.166,7.725916,-5.753749,4.585056,5.0765862,-0.48361212,1.8460984
1.168,7.709309,-5.5383205,4.4617352,5.0542717,-0.50396967,1.924114
1.17,7.6589894,-5.3044534,4.3387675,5.026,-0.53857857,2.00089
1.172,7.576414,-5.055603,4.21884,4.9919453,-0.58772373,2.0758033
1.174,7.4651194,-4.7954807,4.103818,4.95248,-0.6516024,2.1480372
1.176,7.32693,-4.5253797,3.9939084,4.908064,-0.73039085,2.2165885
1.178,7.1648273,-4.247302,3.8918245,4.8592343,-0.82415146,2.2803793
1.18,6.9812675,-3.9637432,3.798654,4.80655,-0.9327797,2.3384404
1.182,6.7796087,-3.6768155,3.715333,4.7506313,-1.0558233,2.3900247
1.184,6.563555,-3.3881638,3.6435184,4.692154,-1.1923782,2.4346666
1.186,6.3357167,-3.098875,3.5850496,4.6317945,-1.341032,2.4721766
1.188,6.0988216,-2.8098373,3.5418513,4.570158,-1.4999573,2.5027044
1.19,5.8560867,-2.522317,3.5151145,4.5077863,-1.6670252,2.526762
1.192,5.610022,-2.2371314,3.505992,4.4451456,-1.8398539,2.5451946
1.194,5.361948,-1.9547853,3.5153804,4.3826656,-2.015926,2.5590768
1.196,5.112795,-1.6760384,3.54417,4.320753,-2.1926925,2.5695882
1.198,4.8642116,-1.4022169,3.593178,4.2597804,-2.3676949,2.5779333
1.2,4.618889,-1.1351068,3.662271,4.200116,-2.5386312,2.5852304
1.202,4.379246,-0.8761722,3.7500381,4.1421185,-2.703476,2.5924463
1.204,4.1468353,-0.62659836,3.85399,4.086102,-2.8605263,2.6003358
1.206,3.9226134,-0.38715208,3.971129,4.032374,-3.0084062,2.609381
1.208,3.7084289,-0.15856266,4.098304,3.9812255,-3.1460202,2.6198282
1.21,3.5047607,0.059073567,4.232953,3.9329348,-3.2725568,2.631677
1.212,3.3124378,0.2655859,4.3716364,3.887699,-3.3875299,2.6447585
1.214,3.1315925,0.46131074,4.5123296,3.845591,-3.4908373,2.658803
1.216,2.9624925,0.6462817,4.651643,3.8065648,-3.582714,2.6734707
1.218,2.8059974,0.820313,4.786189,3.7704883,-3.663615,2.6884289
1.22,2.6622868,0.9835764,4.913516,3.7371306,-3.7342095,2.7034063
1.222,2.5313003,1.1364164,5.0307245,3.7061577,-3.7953997,2.7182357
1.224,2.4132767,1.2790514,5.135124,3.6771555,-3.8483412,2.7328343
1.226,2.307915,1.412014,5.224569,3.6496582,-3.8943477,2.7472203
1.228,2.2146554,1.5358044,5.297567,3.6231875,-3.9348083,2.7614276
1.23,2.133295,1.650881,5.3531475,3.5972898,-3.9710898,2.7754936
1.232,2.0632277,1.7576965,5.390753,3.5715642,-4.0044727,2.78943
1.234,2.0034933,1.8570062,5.4104424,3.545696,-4.036113,2.803225
1.236,1.9527382,1.9497019,5.412861,3.5194492,-4.0670104,2.8168206
1.238,1.909894,2.036591,5.398881,3.4926572,-4.097977,2.830126
1.24,1.8733099,2.118734,5.369789,3.4651957,-4.129688,2.8430293
1.242,1.8415959,2.1970932,5.3272104,3.4370143,-4.162567,2.8554916
1.244,1.8128057,2.2725778,5.273122,3.4081082,-4.196702,2.867387
1.246,1.785198,2.3460493,5.20998,3.3785462,-4.2319803,2.8787212
1.248,1.7567159,2.4182274,5.14033,3.34839,-4.2681828,2.8895905
1.25,1.7253622,2.4898133,5.0668697,3.317751,-4.3048534,2.9001174
1.252,1.6890728,2.5613117,4.9922543,3.286832,-4.341279,2.9105108
1.254,1.6462471,2.6331048,4.918947,3.2558637,-4.3766036,2.921022
1.256,1.595695,2.705371,4.8493586,3.2251534,-4.409827,2.931921
1.258,1.5360131,2.7782447,4.7850857,3.1950777,-4.4398355,2.9434762
1.26,1.4661165,2.8515234,4.7276497,3.1660604,-4.4654884,2.9559464
1.262,1.3855364,2.9249406,4.677892,3.1385293,-4.48566,2.9695468
1.264,1.2937351,2.9980755,4.636798,3.1129246,-4.499234,2.984435
1.266,1.1906679,3.0704362,4.604785,3.0897107,-4.5051427,3.0007224
1.268,1.0753298,3.1422544,4.5818534,3.0693188,-4.5024137,3.018476
1.27,0.9489629,3.2127395,4.567835,3.052106,-4.4903364,3.0377588
1.272,0.81240904,3.281637,4.5612726,3.0382936,-4.4685273,3.058607
1.274,0.66703445,3.3483505,4.5610685,3.027997,-4.436921,3.080993
1.276,0.51416826,3.4124038,4.56544,3.0212104,-4.395816,3.1048481
1.278,0.35589918,3.4731612,4.5722666,3.0177524,-4.3459487,3.1300218
1.28,0.19401151,3.530365,4.5791483,3.0172899,-4.2884874,3.1563096
1.282,0.030369416,3.5839012,4.5837717,3.0193496,-4.2250104,3.1834233
1.284,-0.13326585,3.6338654,4.583938,3.0233157,-4.1575155,3.2109435
1.286,-0.29481083,3.6803775,4.577564,3.0284393,-4.0883274,3.2383685
1.288,-0.45241526,3.7238138,4.562511,3.0339022,-4.01997,3.2650833
1.29,-0.6040553,3.7646458,4.537059,3.0388606,-3.954975,3.290404
1.292,-0.74808556,3.8033977,4.4995613,3.042527,-3.8957348,3.3136404
1.294,-0.88306314,3.840738,4.448778,3.0442476,-3.8443046,3.334175
1.296,-1.0076363,3.8773632,4.384098,3.0434835,-3.8023906,3.3515124
1.298,-1.1212062,3.9141235,4.305351,3.0398865,-3.771313,3.3653693
1.3,-1.2235821,3.9520547,4.2131543,3.0332906,-3.7518198,3.3755178
1.302,-1.3144373,3.9921303,4.1080413,3.0237775,-3.7440004,3.3819134
1.304,-1.393662,4.0351605,3.9910045,3.011609,-3.7475398,3.384727
1.306,-1.4615731,4.0820775,3.8632832,2.9972377,-3.7616484,3.3842456
1.308,-1.5184884,4.1336365,3.7262683,2.981293,-3.785026,3.3808866
1.31,-1.5655308,4.1907,3.5815237,2.9645126,-3.8160267,3.375112
1.312,-1.6038736,4.2539124,3.4308228,2.9477024,-3.85273,3.3673959
1.314,-1.6350373,4.324002,3.2762756,2.9316816,-3.8930063,3.3581746
1.316,-1.6605794,4.4012895,3.1199536,2.917265,-3.934586,3.3478355
1.318,-1.6822053,4.486136,2.96399,2.9051733,-3.9752412,3.3367033
1.32,-1.701695,4.578779,2.8097067,2.8959715,-4.012892,3.3250637
1.322,-1.7211086,4.679458,2.6592968,2.8900607,-4.045683,3.313161
1.324,-1.7417871,4.787856,2.5130246,2.8876603,-4.072046,3.301221
1.326,-1.7651248,4.9038053,2.3725028,2.8888404,-4.090758,3.2894626
1.328,-1.7931845,5.027238,2.2386227,2.8935049,-4.1010103,3.278103
1.33,-1.8271173,5.157599,2.111795,2.9014084,-4.1024055,3.2673266
1.332,-1.8681456,5.294254,1.9928479,2.9122434,-4.094927,3.2572863
1.334,-1.9176096,5.436534,1.8824904,2.9256604,-4.0788918,3.2480211
1.336,-1.9762241,5.583742,1.780793,2.9413052,-4.054866,3.2394588
1.338,-2.0445983,5.7351084,1.6876659,2.958883,-4.0235505,3.231414
1.34,-2.1234314,5.889928,1.602813,2.9781475,-3.985742,3.2235973
1.342,-2.2128327,6.0475187,1.5256191,2.9989164,-3.9422908,3.2156677
1.344,-2.3126829,6.207012,1.4555211,3.0210686,-3.893992,3.207263
1.346,-2.4220917,6.3673964,1.3917557,3.0445154,-3.8415926,3.1980414
1.348,-2.5406206,6.527851,1.333749,3.069202,-3.7857683,3.1877334
1.35,-2.667561,6.6876416,1.2808249,3.0950785,-3.7271345,3.1761637
1.352,-2.8022754,6.8461475,1.2321525,3.1220715,-3.6663024,3.1633496
1.354,-2.943575,7.0027614,1.1871173,3.1500778,-3.6038864,3.1493804
1.356,-3.0904088,7.1569643,1.145023,3.1789324,-3.5406017,3.1343594
1.358,-3.2413497,7.3081527,1.105205,3.208416,-3.4772186,3.1183822
1.36,-3.3951707,7.4559484,1.0669051,3.238237,-3.4146478,3.101497
1.362,-3.5501924,7.5997477,1.0293089,3.2680683,-3.3538654,3.0836463
1.364,-3.7051535,7.7392,0.9917471,3.297583,-3.295825,3.0646942
1.366,-3.8586729,7.8739777,0.9531841,3.3264747,-3.241433,3.0444312
1.368,-4.009497,8.003843,0.91304415,3.3545036,-3.191447,3.0225706
1.37,-4.156433,8.128666,0.8705802,3.381529,-3.146425,2.9987907
1.372,-4.298456,8.248382,0.82549393,3.407529,-3.106622,2.9727693
1.374,-4.434525,8.363098,0.77721107,3.4326053,-3.0719826,2.9442039
1.376,-4.5640006,8.472886,0.7256191,3.4569683,-3.0421932,2.9128952
1.378,-4.685163,8.577298,0.67039734,3.48089,-3.0166984,2.8787508
1.38,-4.798129,8.676927,0.6111346,3.5046654,-2.9947839,2.8417993
1.382,-4.9022155,8.771859,0.54817164,3.5286033,-2.9755893,2.8021824
1.384,-4.997064,8.8625345,0.48136592,3.5529988,-2.9582384,2.7601256
1.386,-5.0822897,8.949387,0.4109764,3.578051,-2.9419153,2.7159243
1.388,-5.157969,9.032986,0.33752036,3.6038876,-2.92593,2.6699066
1.39,-5.224461,9.113845,0.26180494,3.6305385,-2.9097817,2.6224155
1.392,-5.2819595,9.192388,0.18447995,3.6579247,-2.8931544,2.5737753
1.394,-5.330914,9.269001,0.10637939,3.6859126,-2.8759096,2.5242455
1.396,-5.372077,9.344055,0.028138638,3.7143097,-2.85806,2.4740357
1.398,-5.4059596,9.417983,-0.04936993,3.7428873,-2.839726,2.4232955
1.4,-5.4332504,9.491139,-0.12569058,3.7714188,-2.821065,2.3721373
1.402,-5.454832,9.564009,-0.20021391,3.799663,-2.8022425,2.3206284
1.404,-5.4715075,9.636925,-0.27251554,3.827402,-2.783381,2.268837
1.406,-5.4841595,9.710275,-0.34237552,3.8544564,-2.7645667,2.216816
1.408,-5.4935036,9.784326,-0.4093234,3.880661,-2.7458894,2.164629
1.41,-5.500322,9.859263,-0.47310388,3.905881,-2.7274523,2.112331
1.412,-5.5053353,9.935023,-0.5330877,3.9300067,-2.7093887,2.0598922
1.414,-5.5093265,10.01156,-0.58907795,3.952969,-2.691896,2.0072217
1.416,-5.512876,10.088819,-0.6407695,3.974729,-2.6752992,1.9541714
1.418,-5.5165176,10.166685,-0.687884,3.995249,-2.660013,1.9004943
1.42,-5.5205245,10.24508,-0.73020816,4.0145383,-2.6465194,1.8459164
1.422,-5.525178,10.323949,-0.7674677,4.0326324,-2.6353464,1.7901379
1.424,-5.5304246,10.403048,-0.79945,4.0495877,-2.6269991,1.7328622
1.426,-5.5361195,10.482276,-0.8256555,4.065491,-2.6219327,1.6738486
1.428,-5.542058,10.561477,-0.8458031,4.0804644,-2.6204898,1.6129296
1.43,-5.548055,10.640349,-0.8591984,4.0946617,-2.6228716,1.5500267
1.432,-5.553724,10.718723,-0.8653359,4.108273,-2.6290953,1.485168
1.434,-5.5587673,10.796529,-0.8636664,4.1215153,-2.6390088,1.4184593
1.436,-5.5631447,10.873552,-0.8538692,4.1346097,-2.6523113,1.3500763
1.438,-5.5665107,10.949862,-0.83559704,4.147764,-2.6685886,1.2802609
1.44,-5.5687585,11.025463,-0.8088196,4.161155,-2.687342,1.2092792
1.442,-5.569661,11.100435,-0.77315706,4.1748676,-2.708069,1.1373726
1.444,-5.569342,11.174951,-0.7283235,4.188922,-2.73027,1.0647441
1.446,-5.568016,11.249058,-0.6739282,4.2032514,-2.7535293,0.99154526
1.448,-5.56577,11.322783,-0.60977334,4.217692,-2.777532,0.9178641
1.45,-5.5628037,11.396411,-0.53597426,4.232011,-2.802082,0.84372765
1.452,-5.559509,11.470118,-0.4524194,4.245932,-2.8271325,0.7691104
1.454,-5.556156,11.544196,-0.359401,4.259129,-2.8527641,0.6939142
1.456,-5.5532475,11.61881,-0.2570187,4.2712927,-2.8791494,0.6180047
1.458,-5.5506945,11.69427,-0.14572188,4.2821064,-2.9065669,0.5412048
1.46,-5.548514,11.770669,-0.025931343,4.2912807,-2.9353967,0.46333975
1.462,-5.546642,11.848109,0.101887405,4.298585,-2.96605,0.3842249
1.464,-5.545103,11.926789,0.23698848,4.303844,-2.998963,0.30369473
1.466,-5.5438404,12.006808,0.3789724,4.3069625,-3.0345292,0.22160244
1.468,-5.543139,12.088559,0.5272708,4.3079033,-3.0730677,0.1378336
1.47,-5.5429153,12.172171,0.6815637,4.3067107,-3.1147568,0.05231273
1.472,-5.543132,12.257899,0.84182966,4.3035164,-3.1596231,-0.035005093
1.474,-5.543614,12.345877,1.0078012,4.2985115,-3.207504,-0.12414336
1.476,-5.5440965,12.436227,1.1794468,4.2919188,-3.2580602,-0.2150988
1.478,-5.544513,12.529278,1.3564816,4.283996,-3.310809,-0.3078403
1.48,-5.544659,12.625124,1.5388409,4.274966,-3.3651397,-0.40230572
1.482,-5.544323,12.72409,1.7261491,4.265029,-3.4204323,-0.49842203
1.484,-5.5430913,12.826301,1.9181993,4.254299,-3.4761007,-0.5960799
1.486,-5.5405436,12.931955,2.1144524,4.242797,-3.531721,-0.69517076
1.488,-5.536563,13.041322,2.314979,4.230431,-3.5870347,-0.795565
1.49,-5.5310645,13.154526,2.519822,4.217019,-3.6420228,-0.89713407
1.492,-5.524067,13.27181,2.7291517,4.202265,-3.6968858,-0.999797
1.494,-5.5155544,13.3933735,2.9433336,4.185814,-3.7520258,-1.1034973
1.496,-5.5056033,13.51938,3.1629884,4.167268,-3.8080096,-1.2082283
1.498,-5.4943786,13.649854,3.3885891,4.146204,-3.865493,-1.3140608
1.5,-5.481802,13.7847,3.620674,4.122216,-3.925121,-1.4211257
1.502,-5.467916,13.923858,3.8599386,4.094954,-3.9874644,-1.529593
1.504,-5.453166,14.067348,4.106982,4.0641637,-4.052904,-1.6396673
1.506,-5.4375772,14.215084,4.362414,4.0296907,-4.1215873,-1.7515762
1.508,-5.4214897,14.366772,4.6267757,3.9915154,-4.193351,-1.8655303
1.51,-5.405054,14.52223,4.900811,3.9497447,-4.267677,-1.9817029
1.512,-5.3882737,14.680727,5.184871,3.9046338,-4.343658,-2.1002045
1.514,-5.371636,14.841885,5.4794316,3.856528,-4.420049,-2.2210724
1.516,-5.355083,15.005133,5.7845716,3.8058503,-4.49534,-2.3442364
1.518,-5.338916,15.1698065,6.0997543,3.7530637,-4.56783,-2.4695344
1.52,-5.3230696,15.335236,6.4243884,3.698626,-4.6357713,-2.596693
1.522,-5.307836,15.500657,6.7578096,3.6429448,-4.697467,-2.7253923
1.524,-5.2932124,15.665369,7.0990906,3.5863461,-4.751405,-2.8552732
1.526,-5.279254,15.828362,7.447014,3.5290527,-4.796332,-2.9859815
1.528,-5.266224,15.988654,7.8004637,3.4711633,-4.831334,-3.117231
1.53,-5.254003,16.144993,8.157761,3.4126673,-4.855901,-3.2488074
1.532,-5.242661,16.296202,8.517005,3.353456,-4.8699193,-3.3806224
1.534,-5.231973,16.44113,8.876085,3.2933621,-4.873622,-3.5127017
1.536,-5.22183,16.578665,9.23265,3.232149,-4.867541,-3.6452012
1.538,-5.212271,16.707695,9.584467,3.169601,-4.85244,-3.778367
1.54,-5.2031174,16.826994,9.92942,3.1054835,-4.8292465,-3.9124758
1.542,-5.1942744,16.93551,10.265753,3.0396233,-4.798985,-4.047807
1.544,-5.185292,17.031857,10.591732,2.9718451,-4.7627344,-4.184605
1.546,-5.175929,17.11505,10.905869,2.9020073,-4.7215457,-4.323001
1.548,-5.1661587,17.183802,11.206953,2.8299837,-4.6764164,-4.4630003
1.55,-5.155855,17.237064,11.493743,2.7556374,-4.6283307,-4.604483
1.552,-5.144867,17.273758,11.765016,2.6788154,-4.5782013,-4.747189
1.554,-5.133011,17.29288,12.019693,2.5993495,-4.526841,-4.8907585
1.556,-5.1201725,17.293753,12.257118,2.5170844,-4.47499,-5.0347743
1.558,-5.1063433,17.275679,12.476973,2.4318664,-4.4232864,-5.1787586
1.56,-5.091774,17.238163,12.679174,2.3435967,-4.3722596,-5.322201
1.562,-5.0764847,17.180931,12.863663,2.2522295,-4.3223143,-5.4646125
1.564,-5.060439,17.103855,13.030443,2.1578014,-4.2737074,-5.6055512
1.566,-5.0439157,17.007137,13.179348,2.0604525,-4.226502,-5.74461
1.568,-5.0267267,16.890945,13.31028,1.9604628,-4.180565,-5.8814416
1.57,-5.008851,16.755894,13.423103,1.8582315,-4.135564,-6.015723
1.572,-4.9901495,16.602636,13.517963,1.7542887,-4.0909934,-6.1471844
1.574,-4.970602,16.431957,13.595112,1.6492615,-4.0462284,-6.275574
1.576,-4.949834,16.244715,13.654644,1.5438459,-4.000554,-6.4006786
1.578,-4.9273243,16.041828,13.696707,1.4387462,-3.9532428,-6.5223203
1.58,-4.902886,15.824536,13.721371,1.3346233,-3.9036229,-6.640325
1.582,-4.8763866,15.593967,13.72863,1.2320502,-3.8511667,-6.7545214
1.584,-4.8472395,15.351343,13.71866,1.1314912,-3.795564,-6.8647895
1.586,-4.8149643,15.097987,13.691411,1.0332615,-3.7367105,-6.971053
1.588,-4.778613,14.834898,13.647083,0.9375608,-3.6747398,-7.073322
1.59,-4.7375016,14.563356,13.586039,0.84445024,-3.6100378,-7.171674
1.592,-4.6909494,14.284348,13.508818,0.753865,-3.5431492,-7.266259
1.594,-4.6382117,13.9990425,13.415662,0.6656749,-3.4747603,-7.35734
1.596,-4.578614,13.708532,13.307205,0.5796933,-3.4056275,-7.445246
1.598,-4.5114226,13.413748,13.18373,0.49571466,-3.3365102,-7.530354
1.6,-4.43589,13.115679,13.045854,0.41358542,-3.2681096,-7.613081
1.602,-4.3512716,12.814963,12.894126,0.33320284,-3.2010267,-7.6938043
1.604,-4.257195,12.51239,12.729017,0.25456142,-3.1356153,-7.772853
1.606,-4.1532526,12.208709,12.551079,0.17775536,-3.0720415,-7.850477
1.608,-4.039108,11.904494,12.360697,0.1029408,-3.0102775,-7.926833
1.61,-3.9144163,11.600541,12.158263,0.030353308,-2.950051,-8.001975
1.612,-3.778935,11.297398,11.944135,-0.03970599,-2.8908825,-8.075888
1.614,-3.632461,10.995407,11.718726,-0.10688305,-2.8320904,-8.148497
1.616,-3.4748745,10.694992,11.4823475,-0.17080021,-2.7728934,-8.219708
1.618,-3.3061004,10.396515,11.235077,-0.23109388,-2.7124434,-8.289425
1.62,-3.1264334,10.100383,10.977044,-0.2874031,-2.649924,-8.357574
1.622,-2.9360657,9.807291,10.70846,-0.33942592,-2.584612,-8.424119
1.624,-2.7348957,9.517536,10.429064,-0.38689494,-2.5159159,-8.489041
1.626,-2.523103,9.231525,10.138851,-0.42963648,-2.4435172,-8.552377
1.628,-2.3008273,8.949715,9.838025,-0.46753943,-2.3673837,-8.614214
1.63,-2.0681443,8.672365,9.527,-0.5005771,-2.2878256,-8.674636
1.632,-1.8249769,8.39992,9.206083,-0.52882504,-2.2055342,-8.733759
1.634,-1.5715246,8.132612,8.875901,-0.55246043,-2.1215885,-8.791727
1.636,-1.3083212,7.8707476,8.536916,-0.57181406,-2.037388,-8.8487015
1.638,-1.0352869,7.6145616,8.189441,-0.58733916,-1.9545696,-8.90484
1.64,-0.75299716,7.364295,7.834247,-0.59960186,-1.8750343,-8.9603
1.642,-0.46180725,7.120333,7.472124,-0.6092731,-1.8007812,-9.015251
1.644,-0.16236305,6.8828754,7.104161,-0.61706066,-1.733767,-9.069866
1.646,0.14482784,6.652161,6.731649,-0.6236754,-1.6758232,-9.124316
1.648,0.45949268,6.4281936,6.356163,-0.6298132,-1.6285446,-9.178745
1.65,0.7811258,6.2112684,5.979142,-0.63612294,-1.5932515,-9.233296
1.652,1.1091065,6.0012484,5.6022906,-0.64316785,-1.5708985,-9.288083
1.654,1.442257,5.798213,5.2274375,-0.651434,-1.5620704,-9.343207
1.656,1.7799331,5.6019425,4.8565054,-0.661306,-1.5669861,-9.398762
1.658,2.1211584,5.412355,4.491393,-0.6730529,-1.5855865,-9.454804
1.66,2.4649265,5.229123,4.13422,-0.686849,-1.6175661,-9.511348
1.662,2.8105106,5.0518575,3.786874,-0.7027689,-1.6624064,-9.568372
1.664,3.1567912,4.880106,3.451267,-0.7207995,-1.7194505,-9.62583
1.666,3.5027084,4.7135067,3.1289816,-0.74088717,-1.7879465,-9.683641
1.668,3.8475275,4.551688,2.8215485,-0.76293087,-1.8670809,-9.741659
1.67,4.190638,4.3940697,2.530387,-0.7867949,-1.9560132,-9.799679
1.672,4.5313463,4.2401557,2.256849,-0.8122768,-2.053892,-9.857467
1.674,4.8690195,4.089468,2.0025215,-0.83917856,-2.1598682,-9.9147625
1.676,5.203364,3.9413233,1.7689512,-0.8672843,-2.2731204,-9.971312
1.678,5.5336246,3.7951875,1.5575602,-0.89640474,-2.392933,-10.026872
1.68,5.8598213,3.6502352,1.3696989,-0.92638946,-2.5186815,-10.081222
1.682,6.181824,3.5060587,1.2061003,-0.957203,-2.649901,-10.134183
1.684,6.499997,3.3620863,1.0674046,-0.9888968,-2.7863693,-10.185636
1.686,6.814552,3.2181854,0.9542072,-1.0216627,-2.9280832,-10.235497
1.688,7.1259193,3.0742335,0.8674333,-1.0558038,-3.0753033,-10.283768
1.69,7.434684,2.9301362,0.8079731,-1.0916551,-3.228504,-10.33052
1.692,7.741603,2.786037,0.77684367,-1.1296238,-3.3883533,-10.375885
1.694,8.047253,2.6422029,0.7748228,-1.1700984,-3.5555935,-10.420023
1.696,8.352251,2.4988806,0.8027279,-1.213421,-3.730987,-10.463125
1.698,8.6574545,2.356401,0.86090624,-1.2598548,-3.9151888,-10.505458
1.7,8.963565,2.2154045,0.94964665,-1.3095586,-4.1086226,-10.547337
1.702,9.271239,2.0766425,1.0693221,-1.3625423,-4.311386,-10.589037
1.704,9.581166,1.9413273,1.2202752,-1.4187152,-4.5232744,-10.630793
1.706,9.894215,1.8107331,1.4022397,-1.4779081,-4.7437844,-10.67275
1.708,10.211003,1.6862459,1.6151386,-1.5398798,-4.9721904,-10.714922
1.71,10.532317,1.5692182,1.858279,-1.604373,-5.207597,-10.757187
1.712,10.860052,1.4608958,2.1321125,-1.6711032,-5.449009,-10.799289
1.714,11.1926985,1.3630201,2.4359546,-1.7397845,-5.695429,-10.840874
1.716,11.5324135,1.276172,2.7694325,-1.8101313,-5.945981,-10.881527
1.718,11.878875,1.2017832,3.1318681,-1.8819222,-6.199992,-10.920864
1.72,12.231999,1.141416,3.5223603,-1.9549828,-6.45696,-10.958545
1.722,12.59238,1.0963637,3.9398692,-2.029225,-6.716585,-10.994402
1.724,12.959815,1.0681326,4.3835278,-2.1046655,-6.978691,-11.028389
1.726,13.334399,1.0577412,4.852444,-2.1814208,-7.2431993,-11.060608
1.728,13.715933,1.0663307,5.3454356,-2.2596798,-7.510127,-11.091303
1.73,14.104256,1.0948746,5.86093,-2.3396678,-7.7795877,-11.1208
1.732,14.499299,1.1440014,6.3971243,-2.421667,-8.051652,-11.149417
1.734,14.900963,1.2142063,6.9521165,-2.5059037,-8.326306,-11.177462
1.736,15.30895,1.3057446,7.523804,-2.5925288,-8.603416,-11.205227
1.738,15.722989,1.4186621,8.110296,-2.6815715,-8.882772,-11.232937
1.74,16.142544,1.5531104,8.709505,-2.772964,-9.164047,-11.260705
1.742,16.56708,1.7088504,9.319247,-2.866582,-9.446758,-11.28853
1.744,16.99625,1.8855361,9.937263,-2.9621959,-9.730196,-11.31628
1.746,17.430058,2.0824943,10.56166,-3.0595899,-10.01345,-11.343751
1.748,17.868437,2.2985857,11.19046,-3.158496,-10.295395,-11.370665
1.75,18.311357,2.532705,11.821386,-3.2586012,-10.574741,-11.396666
1.752,18.759031,2.783329,12.452044,-3.3595934,-10.850122,-11.421422
1.754,19.211653,3.0486624,13.079887,-3.461094,-11.120099,-11.44466
1.756,19.669416,3.3268142,13.702375,-3.5626917,-11.383116,-11.4662
1.758,20.132639,3.6158528,14.316843,-3.663909,-11.637558,-11.485893
1.76,20.601782,3.9137354,14.920849,-3.764186,-11.881794,-11.503626
1.762,21.078121,4.2179546,15.511683,-3.8628688,-12.114159,-11.519276
1.764,21.563047,4.5260277,16.086897,-3.9592538,-12.332994,-11.532615
1.766,22.057882,4.8352995,16.643753,-4.05261,-12.536703,-11.543255
1.768,22.564304,5.1435137,17.179646,-4.1422515,-12.723804,-11.550604
1.77,23.08401,5.4482465,17.692314,-4.227532,-12.892948,-11.553856
1.772,23.618761,5.7470474,18.179918,-4.3079166,-13.042986,-11.552025
1.774,24.170572,6.0374594,18.640993,-4.382972,-13.173073,-11.544018
1.776,24.741535,6.3168917,19.074306,-4.4524193,-13.282711,-11.528685
1.778,25.33332,6.5830617,19.479153,-4.516093,-13.371729,-11.504914
1.78,25.947636,6.833848,19.855225,-4.5739217,-13.440336,-11.471722
1.782,26.586237,7.067358,20.202595,-4.625882,-13.489031,-11.42827
1.784,27.250942,7.2817526,20.521397,-4.6719637,-13.518541,-11.373908
1.786,27.942837,7.475704,20.812546,-4.712098,-13.529793,-11.30819
1.788,28.663366,7.647784,21.077385,-4.7461715,-13.523832,-11.230851
1.79,29.413492,7.796575,21.317749,-4.77399,-13.501637,-11.141749
1.792,30.19347,7.9212027,21.536396,-4.7952366,-13.464059,-11.040922
1.794,31.003384,8.020544,21.73626,-4.8094606,-13.41177,-10.928542
1.796,31.843159,8.0932,21.920254,-4.816111,-13.345277,-10.804867
1.798,32.711582,8.13892,22.091648,-4.814533,-13.264987,-10.670267
1.8,33.607758,8.157175,22.253532,-4.8039856,-13.1712475,-10.525223
1.802,34.530403,8.147461,22.409325,-4.7837553,-13.064485,-10.370325
1.804,35.477528,8.109493,22.562418,-4.7531166,-12.945203,-10.20622
1.806,36.447094,8.043075,22.71616,-4.7114515,-12.814125,-10.033542
1.808,37.436535,7.948303,22.873795,-4.658289,-12.672367,-9.852922
1.81,38.443314,7.8250675,23.0382,-4.593275,-12.521454,-9.665022
1.812,39.464386,7.6738505,23.211536,-4.516273,-12.363262,-9.470475
1.814,40.496647,7.4947124,23.395557,-4.4273415,-12.200046,-9.269901
1.816,41.536602,7.2884,23.591768,-4.3267336,-12.034344,-9.063878
1.818,42.58113,7.0558615,23.800753,-4.214871,-11.868859,-8.852968
1.82,43.627247,6.798337,24.022816,-4.092296,-11.706371,-8.637683
1.822,44.671024,6.517445,24.25684,-3.9596105,-11.549609,-8.418523
1.824,45.712444,6.2142773,24.502447,-3.8174675,-11.401143,-8.195984
1.826,46.747444,5.8912926,24.758364,-3.666543,-11.263416,-7.9704976
1.828,47.774933,5.550213,25.023624,-3.507463,-11.138572,-7.7424827
1.83,48.793526,5.1927085,25.296576,-3.3408334,-11.0284815,-7.5123878
1.832,49.80175,4.8209248,25.57582,-3.167237,-10.934753,-7.280622
1.834,50.79917,4.4372582,25.85954,-2.987238,-10.858714,-7.0475025
1.836,51.785065,4.044485,26.146055,-2.8013422,-10.801386,-6.813255
1.838,52.7598,3.6455536,26.433582,-2.6100225,-10.763522,-6.5780096
1.84,53.72443,3.2434611,26.720188,-2.4136696,-10.745545,-6.341779
1.842,54.680496,2.841869,27.00408,-2.2125695,-10.747476,-6.104425
1.844,55.629887,2.4449916,27.283686,-2.0068576,-10.768927,-5.865702
1.846,56.57528,2.0573843,27.557869,-1.796509,-10.80908,-5.6252546
1.848,57.519917,1.6838713,27.82574,-1.5813034,-10.866641,-5.382613
1.85,58.467567,1.3297331,28.086952,-1.3608096,-10.939846,-5.137277
1.852,59.422756,1.0004282,28.342354,-1.1344166,-11.026519,-4.8886395
1.854,60.390297,0.7021327,28.59418,-0.90136814,-11.124152,-4.6360016
1.856,61.37446,0.44157434,28.845758,-0.6607895,-11.2300625,-4.3785996
1.858,62.381134,0.22491813,29.100655,-0.4117385,-11.341487,-4.1156025
1.86,63.4161,0.059117556,29.36377,-0.15320456,-11.455728,-3.8461466
1.862,64.48392,-0.04695487,29.639633,0.1158241,-11.570302,-3.5693326
1.864,65.58833,-0.08280468,29.932383,0.3963195,-11.6830845,-3.2842588
1.866,66.736206,-0.040717125,30.245958,0.68921053,-11.792242,-2.9900389
1.868,67.93387,0.088290215,30.58835,0.9953679,-11.896315,-2.6858664
1.87,69.18057,0.3183241,30.963144,1.3155754,-11.99423,-2.3710308
1.872,70.48392,0.6560812,31.376242,1.6504915,-12.08537,-2.044949
1.874,71.848045,1.1098514,31.83521,2.000577,-12.169458,-1.7072159
1.876,73.26715,1.6980643,32.34888,2.3661044,-12.246597,-1.3575752
1.878,74.74769,2.4395823,32.917534,2.7471359,-12.317139,-0.99585986
1.88,76.29113,3.3503556,33.546997,3.1434128,-12.381729,-0.622067
1.882,77.8972,4.4439554,34.244152,3.5542612,-12.44152,-0.23619491
1.884,79.56439,5.735652,35.01584,3.9785795,-12.498147,0.16172749
1.886,81.28627,7.247526,35.86933,4.414901,-12.553472,0.5715729
1.888,83.0549,9.004554,36.811485,4.86153,-12.609477,0.9931917
1.89,84.86203,11.02932,37.84496,5.3165894,-12.668158,1.4265481
1.892,86.69913,13.338738,38.97841,5.778249,-12.731184,1.8714981
1.894,88.54993,15.952936,40.216393,6.2447376,-12.799883,2.3276672
1.896,90.41775,18.86783,41.566917,6.7144213,-12.875067,2.794972
1.898,92.277466,22.119375,43.02865,7.1857452,-12.95673,3.273763
1.9,94.11633,25.723675,44.588223,7.657561,-13.043672,3.7644637
1.902,95.91298,29.694847,46.254105,8.129108,-13.133443,4.2685356
1.904,97.65143,34.037865,48.04514,8.599714,-13.222585,4.7891893
1.906,99.26772,38.75427,50.005013,9.069119,-13.3054905,5.330575
1.908,100.71277,43.835857,52.180275,9.538489,-13.373942,5.8980656
1.91,101.98387,49.256714,54.619137,10.009246,-13.418955,6.4983473
1.912,103.2353,54.993767,57.282932,10.482481,-13.431107,7.1393914
1.914,104.53386,61.009598,60.17497,10.9597,-13.399348,7.8312054
1.916,105.81502,67.25875,63.30296,11.442756,-13.310086,8.584986
1.918,107.01675,73.74689,66.712944,11.93317,-13.148602,9.411543
1.92,108.16277,80.46786,70.37026,12.431812,-12.899339,10.321011
1.922,109.26375,87.34207,74.30867,12.938331,-12.546209,11.322708
1.924,110.34137,94.298874,78.57266,13.451008,-12.072355,12.42485
1.926,111.422516,101.25425,83.21503,13.965551,-11.460817,13.636132
1.928,112.54395,108.12846,88.146324,14.475957,-10.694542,14.965265
1.93,113.764145,114.887474,93.12041,14.97534,-9.75473,16.419569
1.932,115.08507,121.62719,98.47588,15.45373,-8.621855,18.004288
1.934,116.668175,128.04901,104.138504,15.897751,-7.2768993,19.720852
1.936,118.45334,133.88774,110.19096,16.291126,-5.700823,21.570683
1.938,120.47084,139.21861,116.45923,16.617758,-3.8720632,23.553251
1.94,122.71518,143.96344,122.84166,16.862906,-1.779244,25.660671
1.942,125.26514,147.9881,129.26541,17.018652,0.58860207,27.884518
1.944,128.21277,151.19998,135.64902,17.082241,3.2355003,30.208164
1.946,131.5535,153.59067,141.90198,17.055305,6.159729,32.598667
1.948,135.30237,155.17705,147.91245,16.940678,9.355397,35.000084
1.95,139.4661,155.97495,153.55627,16.747332,12.798065,37.35046
1.952,144.04648,156.00159,158.68068,16.491072,16.44294,39.584663
1.954,149.02275,155.28557,163.13,16.196129,20.229618,41.63118
1.956,154.34628,153.87346,166.75163,15.896719,24.090775,43.40624
1.958,159.94263,151.8302,169.39641,15.626961,27.958595,44.822735
1.96,165.7145,149.23103,170.93303,15.409022,31.742838,45.823948
1.962,171.54684,146.16017,171.25339,15.274601,35.313843,46.307915
1.964,177.3096,142.71246,170.27594,15.266274,38.605125,46.210052
1.966,182.86205,138.98915,167.95087,15.376511,41.547127,45.508568
1.968,188.05807,135.08954,164.26678,15.592935,44.075848,44.17723
1.97,192.7466,131.10649,159.24345,15.894502,46.132885,42.188747
1.972,196.78508,127.122154,152.93193,16.233227,47.668156,39.52639
1.974,200.05103,123.20831,145.4194,16.536497,48.6281,36.19059
1.976,202.42467,119.42979,136.84021,16.719868,48.958946,32.202095
1.978,203.8017,115.83753,127.362465,16.700193,48.61815,27.605953
1.98,204.11116,112.46192,117.18356,16.400623,47.57635,22.472542
1.982,203.29988,109.32657,106.51943,15.75252,45.81943,16.906622
1.984,201.34769,106.439606,95.598724,14.704713,43.354866,11.056747
1.986,198.27063,103.79154,84.65349,13.232699,40.221046,5.1123276
1.988,194.10123,101.36706,73.91895,11.33987,36.488365,-0.70995903
1.99,188.90735,99.14966,63.611153,9.055223,32.254265,-6.1890144
1.992,182.78458,97.122314,53.925735,6.4279213,27.63691,-11.117308
1.994,175.85202,95.26584,45.030457,3.5240717,22.776915,-15.320364
1.996,168.25056,93.55744,37.06069,0.4205246,17.81616,-18.684135
1.998,160.133,91.975494,30.116638,-2.7952175,12.896207,-21.159569
2,151.65787,90.50439,24.265423,-6.0293355,8.1497135,-22.76258
2.002,142.98466,89.13571,19.530228,-9.186178,3.6951907,-23.567978
2.004,134.2748,87.8586,15.902382,-12.1793165,-0.35888606,-23.709406
2.006,125.66414,86.68149,13.335865,-14.933804,-3.92306,-23.35087
2.008,117.30327,85.57274,11.763905,-17.388199,-6.932417,-22.655098
2.01,109.31073,84.52452,11.101433,-19.496414,-9.350939,-21.760239
2.012,101.79358,83.52822,11.221735,-21.222431,-11.1697235,-20.775679
2.014,94.83021,82.58017,11.982775,-22.540405,-12.387394,-19.793789
2.016,88.51384,81.67381,13.225979,-23.457973,-13.010216,-18.827684
2.018,82.88642,80.80315,14.805788,-24.005661,-13.12822,-17.906519
2.02,77.92617,79.967606,16.594227,-24.193108,-12.820745,-17.057985
2.022,73.48717,79.15183,18.548853,-24.067211,-12.173786,-16.27168
2.024,69.55054,78.34414,20.578104,-23.69225,-11.279423,-15.529289
2.026,66.202934,77.52934,22.597525,-23.121769,-10.235901,-14.825838
2.028,63.476425,76.644905,24.508904,-22.42165,-9.129782,-14.172292
2.03,61.29811,75.65503,26.306904,-21.650126,-8.046532,-13.5885935
2.032,59.61086,74.590744,27.928072,-20.870323,-7.0679216,-13.095974
2.034,58.34762,73.457146,29.32705,-20.136292,-6.2616963,-12.709795
2.036,57.442123,72.2613,30.478184,-19.48798,-5.676006,-12.439892
2.038,56.826103,70.999626,31.488033,-18.954998,-5.3406525,-12.291932
2.04,56.423637,69.63341,32.540405,-18.557976,-5.269804,-12.263232
2.042,56.218403,68.04817,33.277687,-18.307684,-5.461128,-12.338766
2.044,56.061214,66.5032,33.829926,-18.205011,-5.897248,-12.492626
2.046,56.029938,65.12468,34.164314,-18.241997,-6.5505233,-12.69298
2.048,56.08428,63.71512,34.47583,-18.404007,-7.3867497,-12.9057865
2.05,56.21196,62.290718,34.820793,-18.671892,-8.3682995,-13.097359
2.052,56.321945,60.91948,35.201687,-19.02326,-9.456466,-13.237553
2.054,56.338642,59.620766,35.61876,-19.433233,-10.613984,-13.30237
2.056,56.2843,58.353653,36.071404,-19.874924,-11.806072,-13.275463
2.058,56.14466,57.094032,36.568886,-20.320381,-12.99916,-13.14864
2.06,55.904747,55.85303,37.1203,-20.742691,-14.162699,-12.920808
2.062,55.546993,54.660854,37.747517,-21.117836,-15.272092,-12.596732
2.064,55.067413,53.54873,38.460274,-21.424816,-16.307085,-12.185499
2.066,54.47335,52.540695,39.257607,-21.64589,-17.250372,-11.698557
2.068,53.777348,51.652504,40.135452,-21.767239,-18.0879,-11.148181
2.07,52.99277,50.89673,41.07912,-21.779282,-18.808928,-10.546164
2.072,52.129772,50.281303,42.068516,-21.676653,-19.405874,-9.903397
2.074,51.19671,49.80455,43.082115,-21.458073,-19.874172,-9.229778
2.076,50.199677,49.458992,44.098255,-21.126022,-20.212215,-8.534403
2.078,49.141937,49.23715,45.095158,-20.68623,-20.421106,-7.8256817
2.08,48.029987,49.13041,46.05883,-20.150234,-20.503214,-7.1114044
2.082,46.86573,49.129818,46.982033,-19.519806,-20.46644,-6.3989725
2.084,45.644054,49.224373,47.8572,-18.811195,-20.316559,-5.695533
2.086,44.37159,49.400467,48.66532,-18.035315,-20.062534,-5.007697
2.088,43.0588,49.645027,49.3872,-17.202864,-19.714375,-4.341177
2.09,41.71162,49.948444,50.00987,-16.324005,-19.282646,-3.7003756
2.092,40.335854,50.302357,50.52303,-15.408112,-18.778053,-3.0881748
2.094,38.938217,50.69852,50.9181,-14.463739,-18.211178,-2.5056849
2.096,37.52601,51.12799,51.19021,-13.498787,-17.592249,-1.9523602
2.098,36.105537,51.582417,51.336624,-12.520781,-16.931097,-1.426178
2.1,34.681484,52.053955,51.356625,-11.5370455,-16.237171,-0.923975
2.102,33.257786,52.533993,51.25157,-10.554911,-15.519514,-0.44192028
2.104,31.837358,53.012856,51.026314,-9.581806,-14.7867,0.023953438
2.106,30.422098,53.480568,50.68792,-8.625242,-14.046877,0.4772992
2.108,29.014069,53.928528,50.244774,-7.692669,-13.3077545,0.9212718
2.11,27.614687,54.35005,49.70583,-6.7911987,-12.576371,1.3583503
2.112,26.224493,54.740135,49.0812,-5.9273167,-11.859005,1.7902641
2.114,24.844042,55.094894,48.382908,-5.106678,-11.161132,2.2180512
2.116,23.473295,55.411644,47.623985,-4.3338757,-10.487289,2.642163
2.118,22.11171,55.688873,46.817898,-3.6123204,-9.841048,3.0625663
2.12,20.758398,55.926598,45.9783,-2.9442363,-9.224937,3.4788184
2.122,19.412231,56.125164,45.118614,-2.3306673,-8.640442,3.8902292
2.124,18.072063,56.285812,44.2517,-1.7716316,-8.088102,4.2960005
2.126,16.736973,56.40959,43.389317,-1.2662269,-7.5674996,4.6953545
2.128,15.405754,56.498005,42.54277,-0.81277966,-7.0774007,5.087609
2.13,14.077377,56.55275,41.721394,-0.40893316,-6.6157575,5.472311
2.132,12.752279,56.57502,40.932724,-0.051784515,-6.1797757,5.849284
2.134,11.4298935,56.565838,40.18291,0.26204348,-5.7659583,6.2186327
2.136,10.110577,56.526302,39.477295,0.5363288,-5.370157,6.580614
2.138,8.795197,56.456787,38.818695,0.77514863,-4.9875894,6.935628
2.14,7.4851913,56.35771,38.207207,0.9828534,-4.6128907,7.2840986
2.142,6.1839333,56.22987,37.640114,1.1640012,-4.2401423,7.626443
2.144,4.896345,56.073452,37.112473,1.3233399,-3.8629508,7.9629965
2.146,3.6283627,55.889156,36.617294,1.465673,-3.4745157,8.294037
2.148,2.387041,55.67729,36.146065,1.5957637,-3.067752,8.619704
2.15,1.1804771,55.43839,35.688667,1.718251,-2.6354532,8.940084
2.152,0.01797676,55.17248,35.233704,1.8375547,-2.1704504,9.255266
2.154,-1.090702,54.87982,34.767918,1.9577692,-1.6658072,9.565341
2.156,-2.1350079,54.561047,34.27643,2.0825698,-1.114968,9.870397
2.158,-3.1046658,54.216625,33.74382,2.2151546,-0.5119893,10.17043
2.16,-3.988696,53.847397,33.153328,2.35817,0.14819638,10.465467
2.162,-4.777028,53.453808,32.48831,2.5136395,0.86943865,10.755344
2.164,-5.459197,53.036484,31.731657,2.682869,1.6540823,11.039614
2.166,-6.026271,52.59585,30.866613,2.8663554,2.5026107,11.317442
2.168,-6.4704437,52.132748,29.876923,3.0638666,3.4137013,11.587629
2.17,-6.784626,51.647606,28.747208,3.2745347,4.384109,11.84872
2.172,-6.9637337,51.141693,27.463732,3.4966617,5.4082327,12.098611
2.174,-7.0048614,50.616493,26.01488,3.72763,6.477944,12.334452
2.176,-6.906946,50.073658,24.391685,3.9639494,7.5825872,12.552629
2.178,-6.670912,49.514896,22.587952,4.2013855,8.7090845,12.748809
2.18,-6.3002896,48.941902,20.600569,4.435065,9.842112,12.91803
2.182,-5.8006597,48.356407,18.429554,4.659691,10.964494,13.0549755
2.184,-5.180256,47.76055,16.078306,4.8697424,12.05767,13.154172
2.186,-4.4496665,47.15623,13.553303,5.059728,13.102318,13.210227
2.188,-3.6215491,46.545307,10.864672,5.2243934,14.078934,13.218113
2.19,-2.7101798,45.929527,8.025865,5.3589892,14.968608,13.173458
2.192,-1.7316277,45.31019,5.054145,5.459516,15.753801,13.07274
2.194,-0.7030697,44.688637,1.9700246,5.522844,16.418753,12.913508
2.196,0.35759926,44.06574,-1.2027478,5.546792,16.949867,12.694539
2.198,1.4315863,43.44232,-4.4374056,5.5301733,17.336105,12.415887
2.2,2.5004516,42.81905,-7.7047634,5.4726334,17.569029,12.078748
2.202,3.5457091,42.196705,-10.973665,5.374521,17.642834,11.685455
2.204,4.5498257,41.57594,-14.211626,5.2366767,17.554232,11.239267
2.206,5.496744,40.957005,-17.385258,5.0602703,17.302423,10.744238
2.208,6.371912,40.34051,-20.461143,4.846756,16.889069,10.205069
2.21,7.162465,39.727016,-23.406788,4.5977263,16.318123,9.627079
2.212,7.8579855,39.11693,-26.190767,4.3150563,15.595878,9.016071
2.214,8.449889,38.510647,-28.78365,4.001015,14.731053,8.378281
2.216,8.931961,37.908672,-31.158712,3.6585205,13.734866,7.72038
2.218,9.300341,37.311573,-33.292126,3.2913587,12.621016,7.049407
2.22,9.553822,36.719658,-35.163853,2.9044101,11.405636,6.3726287
2.222,9.693523,36.133247,-36.758286,2.503559,10.10686,5.6971693
2.224,9.722659,35.552647,-38.064713,2.095615,8.744585,5.0297756
2.226,9.646193,34.978477,-39.076775,1.6883297,7.3402877,4.3769064
2.228,9.470874,34.41137,-39.79275,1.2900391,5.9163847,3.7444792
2.23,9.205334,33.85178,-40.215702,0.90913683,4.495424,3.1374848
2.232,8.85906,33.300182,-40.353233,0.55357516,3.0992289,2.5599065
2.234,8.4431305,32.756454,-40.216972,0.23042029,1.7481657,2.0146616
2.236,7.9690123,32.220493,-39.82219,-0.054492816,0.4603713,1.5035675
2.238,7.4479613,31.692446,-39.187134,-0.29677257,-0.7487935,1.0275334
2.24,6.8908863,31.172443,-38.332348,-0.49352407,-1.8671274,0.5867871
2.242,6.308374,30.660654,-37.280556,-0.6432704,-2.8856962,0.18110341
2.244,5.712113,30.156975,-36.05596,-0.7458967,-3.7989173,-0.19014123
2.246,5.1124883,29.660883,-34.685085,-0.8024653,-4.6044044,-0.52784395
2.248,4.519509,29.172369,-33.194252,-0.81500375,-5.30242,-0.83311695
2.25,3.9426684,28.691097,-31.60918,-0.7862129,-5.8954625,-1.1072433
2.252,3.3901005,28.21609,-29.954088,-0.7192414,-6.387849,-1.3516643
2.254,2.8687868,27.74709,-28.252275,-0.61742455,-6.785221,-1.567911
2.256,2.3850722,27.283508,-26.525726,-0.48414752,-7.094021,-1.7576879
2.258,1.9444261,26.825216,-24.794971,-0.32280925,-7.321169,-1.9228282
2.26,1.5511746,26.372057,-23.078762,-0.13674814,-7.4738297,-2.0652978
2.262,1.2084656,25.924248,-21.393282,0.07071692,-7.5592256,-2.1871526
2.264,0.9184923,25.482145,-19.752153,0.2963305,-7.5844564,-2.2904904
2.266,0.6825309,25.045782,-18.16609,0.5368797,-7.556489,-2.3773985
2.268,0.50101805,24.615978,-16.644135,0.7891774,-7.4821415,-2.4498541
2.27,0.37302256,24.193712,-15.192536,1.0500524,-7.368119,-2.5096357
2.272,0.29783726,23.780321,-13.816324,1.3164451,-7.2210226,-2.5583003
2.274,0.27319145,23.377438,-12.518206,1.5854133,-7.047342,-2.5971608
2.276,0.29694414,22.986626,-11.299513,1.8542321,-6.8534355,-2.6272547
2.278,0.3666067,22.609373,-10.159685,2.1204417,-6.6454854,-2.6494408
2.28,0.47873354,22.247341,-9.096931,2.3818588,-6.4293723,-2.6644568
2.282,0.6294882,21.901833,-8.108458,2.6365833,-6.2106037,-2.6730385
2.284,0.81509304,21.574059,-7.19086,2.8830106,-5.9941697,-2.6759057
2.286,1.0319772,21.26479,-6.340325,3.1198218,-5.784424,-2.6738288
2.288,1.2758362,20.975018,-5.552227,3.3460057,-5.584971,-2.667654
2.29,1.5426979,20.705503,-4.8214784,3.5608246,-5.3985844,-2.6582704
2.292,1.8285072,20.456852,-4.1426444,3.7638083,-5.2272167,-2.6465812
2.294,2.1293352,20.229267,-3.5101435,3.954716,-5.071993,-2.6334436
2.296,2.4419649,20.022667,-2.9181948,4.133553,-4.9333153,-2.6196368
2.298,2.7629294,19.836788,-2.3614342,4.3005304,-4.810955,-2.60577
2.3,3.0890312,19.671186,-1.834907,4.4560475,-4.7041397,-2.5922656
2.302,3.4174802,19.52537,-1.3342233,4.600636,-4.6117244,-2.5793717
2.304,3.745734,19.398407,-0.85548764,4.7348733,-4.5323205,-2.5672128
2.306,4.071557,19.289162,-0.39560223,4.859317,-4.4644375,-2.5557632
2.308,4.3931823,19.196474,0.0481205,4.974478,-4.4065075,-2.5449004
2.31,4.708992,19.118872,0.4776976,5.0808487,-4.357039,-2.5344083
2.312,5.017788,19.054745,0.8947575,5.178845,-4.314634,-2.5240185
2.314,5.3188434,19.00236,1.3005455,5.2688427,-4.2780356,-2.5134547
2.316,5.6114526,18.96019,1.6959062,5.3511987,-4.246108,-2.5024505
2.318,5.895421,18.92633,2.0814242,5.426255,-4.217841,-2.4907992
2.32,6.170452,18.899368,2.457464,5.494365,-4.1923127,-2.4783351
2.322,6.436591,18.8778,2.8243146,5.555898,-4.1686807,-2.464947
2.324,6.694151,18.860275,3.1821606,5.61126,-4.146216,-2.4505825
2.326,6.943649,18.8457,3.5312426,5.660875,-4.124288,-2.435241
2.328,7.1856656,18.832962,3.8714213,5.7051454,-4.102392,-2.4190078
2.33,7.4207525,18.821098,4.202737,5.7444725,-4.08016,-2.4020586
2.332,7.649644,18.809086,4.525853,5.779229,-4.057407,-2.3846755
2.334,7.872795,18.796124,4.841037,5.80976,-4.0340853,-2.367215
2.336,8.090761,18.781513,5.148761,5.8363643,-4.010329,-2.3500896
2.338,8.304266,18.764725,5.4494276,5.8593006,-3.9864116,-2.3337665
2.34,8.513907,18.745255,5.743642,5.8788047,-3.9627085,-2.3186944
2.342,8.720194,18.722815,6.03207,5.8950377,-3.9396648,-2.3052602
2.344,8.923474,18.697363,6.31541,5.9081616,-3.9177322,-2.2937841
2.346,9.124128,18.66884,6.5943847,5.918314,-3.8973196,-2.284471
2.348,9.322437,18.637297,6.8698177,5.9256244,-3.8787217,-2.2774005
2.35,9.518825,18.60279,7.1422486,5.9302044,-3.8620782,-2.2725363
2.352,9.713377,18.56565,7.4123397,5.9321585,-3.8473873,-2.2697246
2.354,9.906222,18.526045,7.680687,5.931596,-3.8345132,-2.2687428
2.356,10.097421,18.484394,7.9477844,5.9286103,-3.823169,-2.2693005
2.358,10.287006,18.441063,8.213978,5.9233036,-3.8129714,-2.2710989
2.36,10.474982,18.396374,8.479349,5.915759,-3.8035064,-2.273877
2.362,10.661477,18.350891,8.743895,5.9060555,-3.7943654,-2.2774286
2.364,10.846481,18.304865,9.007556,5.8942356,-3.785155,-2.281658
2.366,11.02992,18.258593,9.270081,5.8803453,-3.7755637,-2.2865398
2.368,11.211759,18.21232,9.530936,5.864412,-3.7653735,-2.2921438
2.37,11.392161,18.166142,9.789529,5.8464446,-3.754442,-2.2986155
2.372,11.57083,18.120285,10.045084,5.8264513,-3.7427158,-2.306133
2.374,11.747845,18.074837,10.297049,5.8044553,-3.7302036,-2.314932
2.376,11.923019,18.029846,10.544372,5.7805104,-3.716934,-2.3252554
2.378,12.096514,17.985044,10.786064,5.754696,-3.702947,-2.337333
2.38,12.268162,17.940437,11.021086,5.7271214,-3.6882665,-2.3513598
2.382,12.437853,17.895668,11.248607,5.697947,-3.6728764,-2.3674927
2.384,12.605536,17.850418,11.467662,5.667346,-3.6567152,-2.385847
2.386,12.771337,17.804276,11.677479,5.635513,-3.639681,-2.4064748
2.388,12.935213,17.756725,11.876976,5.602623,-3.621631,-2.4294155
2.39,13.097025,17.707218,12.065477,5.5688615,-3.6023817,-2.4546862
2.392,13.256883,17.655264,12.242182,5.5343738,-3.5817194,-2.4822872
2.394,13.415039,17.600082,12.406327,5.4992876,-3.559397,-2.512202
2.396,13.571371,17.54115,12.557281,5.4637203,-3.535143,-2.54439
2.398,13.726248,17.477879,12.694281,5.4277687,-3.5086699,-2.578773
2.4,13.879595,17.409885,12.816632,5.3915253,-3.4796743,-2.6152496
2.402,14.031521,17.336763,12.923728,5.3550825,-3.4478648,-2.6537151
2.404,14.182387,17.258253,13.015026,5.3185496,-3.4129345,-2.6940217
2.406,14.332228,17.1742,13.089882,5.2820516,-3.3745723,-2.7360096
2.408,14.481312,17.084621,13.14784,5.245725,-3.3324788,-2.7794976
2.41,14.629854,16.989452,13.188542,5.209759,-3.286373,-2.8242881
2.412,14.778249,16.888746,13.211601,5.17436,-3.2360096,-2.8701398
2.414,14.926603,16.782871,13.216719,5.1397405,-3.1811662,-2.9167988
2.416,15.074936,16.672504,13.203816,5.106117,-3.1217082,-2.964001
2.418,15.223646,16.558006,13.172821,5.0736465,-3.0576181,-3.011469
2.42,15.3727865,16.440119,13.123926,5.042422,-2.989038,-3.0589457
2.422,15.522511,16.319687,13.057406,5.0124383,-2.9162734,-3.1061754
2.424,15.672729,16.197697,12.973747,4.983585,-2.8398392,-3.152957
2.426,15.823546,16.075047,12.873313,4.9556055,-2.7604795,-3.1991403
2.428,15.974884,15.952932,12.756813,4.9280734,-2.6791453,-3.2446098
2.43,16.126795,15.832393,12.625217,4.900442,-2.5969653,-3.289316
2.432,16.27906,15.714676,12.479452,4.872053,-2.5151567,-3.3332102
2.434,16.431665,15.600839,12.32054,4.8421907,-2.4349964,-3.376255
2.436,16.584503,15.491938,12.149639,4.810081,-2.3577473,-3.4183557
2.438,16.737232,15.389144,11.968328,4.774985,-2.2845626,-3.4593675
2.44,16.889639,15.293461,11.778055,4.736222,-2.216468,-3.4990702
2.442,17.041563,15.205673,11.580202,4.6932387,-2.154291,-3.5371897
2.444,17.192726,15.126521,11.376312,4.645603,-2.0986378,-3.5734088
2.446,17.34311,15.056459,11.167847,4.5930676,-2.0498924,-3.607428
2.448,17.492262,14.995972,10.956129,4.535551,-2.0082314,-3.6390135
2.45,17.63977,14.945408,10.742771,4.4731336,-1.9736753,-3.6680472
2.452,17.785675,14.904493,10.529026,4.4060464,-1.9461019,-3.6945596
2.454,17.929543,14.873137,10.316114,4.334655,-1.9253149,-3.7187586
2.456,18.070951,14.850994,10.105207,4.2593837,-1.9110777,-3.7410083
2.458,18.209734,14.837477,9.89736,4.180702,-1.9031863,-3.7618334
2.46,18.34542,14.832144,9.693794,4.0990896,-1.9014857,-3.7818694
2.462,18.477697,14.833992,9.495178,4.014997,-1.9058753,-3.8018262
2.464,18.606318,14.842276,9.302464,3.92882,-1.9163442,-3.822417
2.466,18.730957,14.8560295,9.116481,3.8409047,-1.9329358,-3.844319
2.468,18.851067,14.87427,8.937693,3.751554,-1.9557016,-3.86808
2.47,18.966373,14.896126,8.766843,3.6610477,-1.9846586,-3.8941061
2.472,19.076347,14.920611,8.604343,3.5696397,-2.0197954,-3.9226267
2.474,19.180845,14.946943,8.45072,3.4775722,-2.0610087,-3.9536726
2.476,19.279354,14.974436,8.306185,3.3850696,-2.1081195,-3.9871068
2.478,19.371634,15.0023575,8.171122,3.29238,-2.1608644,-4.022622
2.48,19.457218,15.030104,8.045771,3.1938891,-2.2385826,-4.0719094
2.482,19.536118,15.057166,7.930337,3.097769,-2.3142152,-4.1180496
2.484,19.608057,15.0830965,7.8247676,3.0003853,-2.4003584,-4.1685386
2.486,19.672958,15.107584,7.7290626,2.901489,-2.498139,-4.223851
2.488,19.730501,15.130465,7.6430807,2.800891,-2.6083732,-4.284358
2.49,19.780697,15.151477,7.5665402,2.6985917,-2.7311766,-4.3501515
2.492,19.823378,15.170799,7.4989605,2.594879,-2.865551,-4.420754
2.494,19.85853,15.188341,7.4398518,2.4904358,-3.009005,-4.494927
2.496,19.886173,15.204193,7.3885603,2.3864055,-3.1573968,-4.570562
2.498,19.90632,15.218365,7.344426,2.2843676,-3.3050475,-4.644697
2.5,19.919144,15.230985,7.306636,2.1861892,-3.445291,-4.7138033
2.502,19.924698,15.242076,7.274336,2.093791,-3.571292,-4.774237
2.504,19.923141,15.251794,7.246794,2.0088677,-3.6770492,-4.8227887
2.506,19.914637,15.260114,7.2230124,1.9325947,-3.7584112,-4.857285
2.508,19.899586,15.266986,7.2022085,1.8654317,-3.8138058,-4.876955
2.51,19.878273,15.272389,7.183462,1.8070891,-3.8444471,-4.8826013
2.512,19.850975,15.276276,7.1659956,1.7565585,-3.8541057,-4.8764215
2.514,19.818016,15.278641,7.1489472,1.7123379,-3.8483648,-4.8615746
2.516,19.779776,15.279309,7.131648,1.6727073,-3.8336263,-4.841584
2.518,19.736536,15.2782,7.113407,1.6360306,-3.8160872,-4.8198004
2.52,19.688755,15.275101,7.0936356,1.6009729,-3.800925,-4.7989016
2.522,19.636684,15.269878,7.07177,1.5666423,-3.7917962,-4.7806516
2.524,19.580791,15.262243,7.04745,1.532619,-3.7906911,-4.7658553
2.526,19.521599,15.251739,7.0202484,1.4989022,-3.798127,-4.754485
2.528,19.45927,15.238022,6.98976,1.4657586,-3.8134844,-4.7459517
2.53,19.394367,15.220715,6.9557405,1.4336333,-3.8354778,-4.7393646
2.532,19.32716,15.199295,6.917824,1.4029903,-3.862529,-4.7337966
2.534,19.258026,15.173131,6.875802,1.3776612,-3.8816004,-4.721378
2.536,19.187246,15.141789,6.8296223,1.3496372,-3.9193506,-4.718791
2.538,19.115122,15.104641,6.779096,1.3246322,-3.9560556,-4.7142463
2.54,19.041855,15.06117,6.7238684,1.3025017,-3.9916677,-4.708097
2.542,18.967705,15.010903,6.6639276,1.2830902,-4.026101,-4.7007084
2.544,18.892904,14.953306,6.59917,1.266241,-4.0592504,-4.6924105
2.546,18.817554,14.888019,6.5294685,1.2517864,-4.0909853,-4.6834846
2.548,18.742111,14.814524,6.454535,1.2395948,-4.121158,-4.674153
2.55,18.666586,14.73265,6.3742247,1.22955,-4.149639,-4.664547
2.552,18.59112,14.642396,6.288504,1.2215405,-4.176286,-4.6547203
2.554,18.515903,14.543649,6.197335,1.2154868,-4.2009716,-4.6446724
2.556,18.441021,14.436657,6.1007476,1.2113159,-4.223564,-4.6343303
2.558,18.366623,14.321663,5.998898,1.2089761,-4.243967,-4.6235785
2.56,18.292803,14.199103,5.8918047,1.2084128,-4.262101,-4.6122594
2.562,18.219517,14.069719,5.779791,1.2095793,-4.2778974,-4.6002336
2.564,18.147062,13.934114,5.6632376,1.2124196,-4.2913413,-4.58737
2.566,18.07553,13.793058,5.542501,1.2168635,-4.302437,-4.573574
2.568,18.00486,13.647474,5.417916,1.2228415,-4.31121,-4.558816
2.57,17.935091,13.498179,5.289966,1.230262,-4.317723,-4.543116
2.572,17.866428,13.34622,5.159359,1.2390337,-4.322039,-4.5265317
2.574,17.798641,13.192446,5.0267267,1.2490687,-4.3242393,-4.5091715
2.576,17.731731,13.03787,4.8926454,1.2602513,-4.324396,-4.491147
2.578,17.665752,12.883367,4.757955,1.272485,-4.322575,-4.472617
2.58,17.600567,12.729754,4.6234217,1.2856915,-4.3188257,-4.453744
2.582,17.536142,12.577866,4.489747,1.2998092,-4.3131695,-4.434683
2.584,17.472166,12.428494,4.3576355,1.3147955,-4.3056254,-4.4155884
2.586,17.40872,12.282297,4.227931,1.3306081,-4.2961693,-4.396575
2.588,17.34562,12.139853,4.1011457,1.3472403,-4.2847486,-4.377741
2.59,17.282745,12.001671,3.978032,1.3646873,-4.27128,-4.3591604
2.592,17.219849,11.868201,3.858966,1.3829591,-4.255658,-4.340862
2.594,17.156818,11.739742,3.7444568,1.4020689,-4.2377195,-4.3228436
2.596,17.09338,11.616739,3.6348977,1.4220394,-4.217282,-4.305064
2.598,17.02966,11.499404,3.5304217,1.4428886,-4.1941214,-4.2874203
2.6,16.965475,11.387833,3.4312966,1.4646641,-4.168008,-4.269807
2.602,16.900934,11.282027,3.3375185,1.4874007,-4.1386886,-4.2520814
2.604,16.835865,11.1820965,3.2490363,1.5111449,-4.1059294,-4.2341046
2.606,16.770266,11.08792,3.1656606,1.5359657,-4.0694995,-4.2157273
2.608,16.704195,10.999411,3.0872898,1.5619366,-4.0292087,-4.196807
2.61,16.63765,10.916282,3.0135727,1.589137,-3.9849248,-4.177208
2.612,16.570803,10.838301,2.9440458,1.6176453,-3.936575,-4.156832
2.614,16.503632,10.7652235,2.87834,1.6475362,-3.8841758,-4.135639
2.616,16.436407,10.696569,2.8161063,1.678834,-3.8278399,-4.113597
2.618,16.369076,10.631974,2.756792,1.7115374,-3.767768,-4.090748
2.62,16.301853,10.570965,2.699923,1.7456145,-3.7042818,-4.067181
2.622,16.234898,10.513138,2.6450238,1.7809598,-3.637785,-4.0430174
2.624,16.168184,10.457893,2.5916193,1.8174431,-3.568776,-4.0184317
2.626,16.101938,10.404806,2.5393875,1.8548644,-3.4978092,-3.993602
2.628,16.036295,10.353425,2.487876,1.8929929,-3.4254622,-3.9687264
2.63,15.971187,10.303336,2.436754,1.9315698,-3.3523264,-3.9439816
2.632,15.906828,10.2540455,2.3858438,1.9703332,-3.2789807,-3.9194965
2.634,15.843363,10.205176,2.3346925,2.009016,-3.2059255,-3.8953562
2.636,15.780692,10.156399,2.2831702,2.0473626,-3.1336184,-3.8715956
2.638,15.718945,10.107546,2.2310886,2.0851355,-3.0624304,-3.8481998
2.64,15.658031,10.058271,2.178373,2.122149,-2.9926496,-3.825128
2.642,15.598153,10.0084305,2.1249552,2.158249,-2.9244843,-3.8023248
2.644,15.539325,9.958046,2.0706987,2.193315,-2.8580756,-3.7797003
2.646,15.481557,9.907013,2.015635,2.2272828,-2.7934904,-3.7572036
2.648,15.424892,9.855422,1.9596518,2.2601314,-2.7307584,-3.734801
2.65,15.3694725,9.803344,1.9028385,2.2918637,-2.669881,-3.7124572
2.652,15.315178,9.750937,1.8451791,2.3225358,-2.6108358,-3.6901886
2.654,15.262131,9.6985,1.786696,2.3522208,-2.5535989,-3.6679893
2.656,15.2104645,9.646186,1.7275125,2.3810098,-2.4981465,-3.6458712
2.658,15.160088,9.594418,1.6677555,2.4090073,-2.4444737,-3.6238327
2.66,15.111304,9.543382,1.6075443,2.4363112,-2.3926013,-3.6018634
2.662,15.064194,9.493389,1.5469676,2.4630165,-2.3425498,-3.5799356
2.664,15.018829,9.444824,1.4862078,2.4892077,-2.294388,-3.5580194
2.666,14.975262,9.397941,1.42538,2.514942,-2.2481914,-3.5360649
2.668,14.933805,9.35298,1.3646373,2.540239,-2.2040508,-3.5140133
2.67,14.894494,9.310261,1.3041252,2.5651085,-2.1620827,-3.491829
2.672,14.85733,9.270075,1.2441458,2.5895302,-2.122407,-3.4694896
2.674,14.822395,9.232517,1.1846668,2.613449,-2.0851464,-3.446999
2.676,14.789653,9.1976795,1.1260273,2.636799,-2.050434,-3.424391
2.678,14.759276,9.165581,1.0684222,2.6594944,-2.018375,-3.4017048
2.68,14.731274,9.136312,1.0118992,2.6814487,-1.9890354,-3.3790066
2.682,14.705544,9.109744,0.95664144,2.7025702,-1.9624736,-3.356362
2.684,14.682169,9.085824,0.90251946,2.7227674,-1.9386841,-3.3338416
2.686,14.6611805,9.064311,0.8496393,2.7419333,-1.9176079,-3.3115063
2.688,14.642445,9.045097,0.7978995,2.759991,-1.8991476,-3.2894034
2.69,14.625847,9.027966,0.7471734,2.7768743,-1.8831544,-3.2675674
2.692,14.611224,9.012611,0.6973698,2.7925017,-1.8694396,-3.246008
2.694,14.598576,8.998628,0.648203,2.8068058,-1.8578012,-3.2247334
2.696,14.587658,8.985815,0.5994818,2.819734,-1.8480202,-3.2037485
2.698,14.578283,8.9737215,0.5510864,2.831241,-1.8398626,-3.1830692
2.7,14.570402,8.961966,0.5025717,2.8412786,-1.8331339,-3.1627164
2.702,14.563776,8.950222,0.45380276,2.849823,-1.8276693,-3.142721
2.704,14.558224,8.938135,0.40449816,2.8568559,-1.823314,-3.1231313
2.706,14.553652,8.925293,0.35445678,2.862366,-1.819961,-3.1039743
2.708,14.549628,8.911376,0.30362695,2.8663585,-1.817542,-3.0852947
2.71,14.546108,8.896082,0.2519521,2.8688579,-1.8160312,-3.0671203
2.712,14.542673,8.879288,0.19934392,2.8698769,-1.8154492,-3.04948
2.714,14.539293,8.860739,0.14595115,2.8694534,-1.8158686,-3.03241
2.716,14.535716,8.840276,0.09187436,2.8676198,-1.817411,-3.0159512
2.718,14.5317335,8.817804,0.03723246,2.864405,-1.8202212,-3.0001433
2.72,14.52722,8.793412,-0.017750144,2.859854,-1.8244724,-2.9850132
2.722,14.52196,8.767004,-0.07272518,2.854017,-1.8303611,-2.9706054
2.724,14.515675,8.738709,-0.12754971,2.8469334,-1.8380461,-2.9569085
2.726,14.508383,8.708664,-0.1818344,2.8386538,-1.8476624,-2.943895
2.728,14.49983,8.677094,-0.23532519,2.8292477,-1.8593009,-2.931489
2.73,14.489948,8.644145,-0.2875781,2.818768,-1.8729833,-2.919559
2.732,14.478699,8.610069,-0.33835337,2.8072798,-1.8886833,-2.9079432
2.734,14.465992,8.575097,-0.38737184,2.7948515,-1.9063041,-2.896457
2.736,14.451696,8.539539,-0.43452173,2.7815626,-1.9256887,-2.884914
2.738,14.435689,8.503569,-0.47966766,2.7674994,-1.9466324,-2.8731303
2.74,14.418159,8.467414,-0.52274406,2.7527616,-1.9689026,-2.8609812
2.742,14.398918,8.431468,-0.5638503,2.737442,-1.992249,-2.848381
2.744,14.378112,8.395907,-0.6029911,2.7216547,-2.0164185,-2.8353002
2.746,14.355796,8.361026,-0.6403125,2.7055352,-2.0411525,-2.8217483
2.748,14.332075,8.326939,-0.6761072,2.6892178,-2.0662086,-2.8077712
2.75,14.307104,8.293937,-0.7106297,2.6728296,-2.0913763,-2.7934265
2.752,14.280945,8.262242,-0.74419576,2.6565118,-2.1164536,-2.778763
2.754,14.2536335,8.231918,-0.7770757,2.6403875,-2.1412587,-2.7638235
2.756,14.225505,8.202923,-0.8096138,2.624577,-2.16563,-2.7486305
2.758,14.196603,8.175435,-0.84215134,2.6091843,-2.1894457,-2.7331872
2.76,14.167072,8.149357,-0.8751241,2.5942905,-2.2126126,-2.717492
2.762,14.137088,8.124704,-0.9088006,2.5799646,-2.235052,-2.7015293
2.764,14.106813,8.101297,-0.9434683,2.566239,-2.2567132,-2.6852849
2.766,14.076254,8.078977,-0.9793657,2.553133,-2.2775853,-2.6687553
2.768,14.045803,8.0574875,-1.0167623,2.5405946,-2.297715,-2.6519425
2.77,14.015354,8.036686,-1.0556579,2.5285604,-2.3171923,-2.6348774
2.772,13.985099,8.016285,-1.0961735,2.5169168,-2.3361764,-2.6176233
2.774,13.955006,7.9960136,-1.1383355,2.5055027,-2.3548684,-2.6002805
2.776,13.925174,7.975645,-1.182167,2.494126,-2.37351,-2.5829716
2.778,13.895682,7.954938,-1.2276133,2.482575,-2.3923805,-2.565862
2.78,13.866529,7.933582,-1.2745852,2.4706333,-2.4117446,-2.5490916
2.782,13.837788,7.911314,-1.3231826,2.458096,-2.4318485,-2.532788
2.784,13.809408,7.888098,-1.3731059,2.444799,-2.4528842,-2.5170374
2.786,13.781469,7.8637743,-1.4242146,2.4306078,-2.4749804,-2.5018594
2.788,13.753778,7.838253,-1.4763843,2.415442,-2.498197,-2.4871688
2.79,13.726221,7.811328,-1.5292635,2.399273,-2.5225115,-2.4728346
2.792,13.698722,7.7830925,-1.5827997,2.3821225,-2.547842,-2.4586453
2.794,13.671173,7.7535014,-1.6367103,2.3640654,-2.57404,-2.44435
2.796,13.643443,7.7225723,-1.6907387,2.3452075,-2.6009133,-2.4296963
2.798,13.615366,7.690341,-1.7448123,2.325696,-2.628245,-2.414461
2.8,13.586751,7.657033,-1.7987264,2.305695,-2.6558142,-2.3984666
2.802,13.557552,7.622735,-1.8523982,2.2853854,-2.6833973,-2.381626
2.804,13.527384,7.5877914,-1.9056834,2.264975,-2.7107644,-2.3639164
2.806,13.496111,7.5523767,-1.9586474,2.244679,-2.737712,-2.345391
2.808,13.4636345,7.5168695,-2.0111785,2.2247093,-2.7640448,-2.326139
2.81,13.429657,7.4815674,-2.0632324,2.2052655,-2.789573,-2.3062754
2.812,13.394063,7.4466047,-2.1147783,2.1865556,-2.8141227,-2.2859058
2.814,13.356619,7.412365,-2.165771,2.168748,-2.8375273,-2.265107
2.816,13.3172245,7.3790145,-2.2162514,2.1519892,-2.859658,-2.2439327
2.818,13.275925,7.3469267,-2.266212,2.136403,-2.8803935,-2.2223833
2.82,13.232527,7.31629,-2.3155437,2.122055,-2.8996277,-2.2004158
2.822,13.186947,7.2872243,-2.3640103,2.1090012,-2.9172587,-2.1779418
2.824,13.139266,7.259901,-2.4114614,2.0972373,-2.9332309,-2.1548672
2.826,13.089389,7.234557,-2.4575257,2.0867546,-2.9475021,-2.1310933
2.828,13.037346,7.2112846,-2.5020227,2.077505,-2.9600914,-2.1065536
2.83,12.983207,7.190005,-2.5445325,2.069447,-2.9710581,-2.0812135
2.832,12.9271145,7.170828,-2.584691,2.0625257,-2.9805021,-2.0550742
2.834,12.869341,7.1536903,-2.6221461,2.056692,-2.9885578,-2.0281963
2.836,12.809875,7.138695,-2.6565857,2.0519176,-2.995379,-2.0006633
2.838,12.749137,7.1255245,-2.6877747,2.0481763,-3.001123,-1.9725677
2.84,12.687264,7.1142464,-2.715569,2.0454721,-3.0059218,-1.9439921
2.842,12.624431,7.104706,-2.7397485,2.0438142,-3.0098743,-1.9149973
2.844,12.561003,7.0967712,-2.7601345,2.0432234,-3.0130186,-1.8855851
2.846,12.497213,7.09023,-2.7767627,2.0437195,-3.0153208,-1.8557239
2.848,12.433429,7.0848618,-2.7896867,2.0453367,-3.0167022,-1.8253293
2.85,12.3696165,7.080472,-2.798983,2.048126,-3.0170317,-1.7943072
2.852,12.306158,7.0766683,-2.8048584,2.0521111,-3.0161357,-1.7625605
2.854,12.243063,7.073269,-2.8077116,2.05734,-3.0138412,-1.730026
2.856,12.180648,7.0698266,-2.8079429,2.0638652,-3.0099986,-1.6966708
2.858,12.118948,7.0661273,-2.805876,2.071732,-3.004477,-1.6625259
2.86,12.058041,7.0618815,-2.8021064,2.0809858,-2.9972048,-1.6276884
2.862,11.998014,7.0568933,-2.7971783,2.0916786,-2.9881573,-1.5922916
2.864,11.939159,7.0509624,-2.7915866,2.1038616,-2.9773712,-1.5564876
2.866,11.881212,7.044077,-2.7859569,2.1175818,-2.9649096,-1.5204442
2.868,11.824386,7.036092,-2.7806997,2.1328897,-2.9508781,-1.4842943
2.87,11.768583,7.0271463,-2.7762003,2.1498244,-2.9354076,-1.4481318
2.872,11.71402,7.0172186,-2.77286,2.1684382,-2.918634,-1.4120172
2.874,11.660527,7.00651,-2.7709908,2.1887844,-2.900713,-1.3759626
2.876,11.608259,6.9951878,-2.770713,2.2109075,-2.8817942,-1.3399435
2.878,11.557046,6.9835486,-2.7721486,2.2348497,-2.8620434,-1.303864
2.88,11.507122,6.971725,-2.7752333,2.2606297,-2.8416238,-1.2676129
2.882,11.458321,6.9600744,-2.779871,2.2882586,-2.8207169,-1.2310576
2.884,11.41086,6.9489536,-2.7858326,2.3176942,-2.7995293,-1.1940641
2.886,11.364714,6.938692,-2.7927566,2.3488617,-2.7782915,-1.156528
2.888,11.319961,6.9295654,-2.800289,2.3816352,-2.7572541,-1.1183872
2.89,11.276667,6.921965,-2.8079658,2.4158463,-2.7366858,-1.0796329
2.892,11.234808,6.9162846,-2.8152988,2.4512844,-2.7168498,-1.0403006
2.894,11.194675,6.912699,-2.8218424,2.4877088,-2.6979918,-1.0004736
2.896,11.156196,6.911544,-2.8271022,2.5248744,-2.6803122,-0.960279
2.898,11.119631,6.913013,-2.8306174,2.5625362,-2.6639543,-0.91984177
2.9,11.085077,6.9172893,-2.8320825,2.6004896,-2.6490004,-0.87929225
2.902,11.052435,6.9245443,-2.8309484,2.6385546,-2.6354458,-0.8387253
2.904,11.021742,6.934832,-2.8269439,2.6765857,-2.623211,-0.7981889
2.906,10.993037,6.948103,-2.8199053,2.7145112,-2.612158,-0.7576848
2.908,10.966337,6.9643197,-2.8094893,2.7522964,-2.6020904,-0.71716917
2.91,10.941781,6.983198,-2.795684,2.7899518,-2.5927868,-0.67657435
2.912,10.919046,7.0045176,-2.7783988,2.8275077,-2.5840254,-0.63583136
2.914,10.898161,7.027998,-2.7577658,2.865039,-2.5755684,-0.59486496
2.916,10.878999,7.0533285,-2.7338424,2.9026394,-2.567204,-0.5536442
2.918,10.861309,7.0801716,-2.706913,2.9404,-2.5587647,-0.51216877
2.92,10.844899,7.10814,-2.6771922,2.978428,-2.5501096,-0.47048867
2.922,10.829578,7.1369457,-2.6449904,3.0168328,-2.5411253,-0.42868197
2.924,10.815287,7.166072,-2.610652,3.0557053,-2.5317159,-0.38684583
2.926,10.801655,7.1952763,-2.574442,3.0951257,-2.5218086,-0.3450786
2.928,10.788255,7.224173,-2.5365784,3.1351566,-2.511349,-0.30347896
2.93,10.775007,7.2524414,-2.4975085,3.1758444,-2.5003061,-0.26212192
2.932,10.7617,7.2797976,-2.4574094,3.2172022,-2.4886522,-0.22105992
2.934,10.747758,7.30606,-2.416542,3.259233,-2.4763856,-0.18029761
2.936,10.7331295,7.3310604,-2.3750756,3.3019018,-2.4635112,-0.139799
2.938,10.717596,7.3546333,-2.3328938,3.34517,-2.4500704,-0.09951329
2.94,10.700932,7.376755,-2.2900577,3.3889666,-2.4361155,-0.059354782
2.942,10.682756,7.3973627,-2.2463987,3.4332237,-2.4217157,-0.019220233
2.944,10.662987,7.4163465,-2.2017226,3.4778633,-2.4069567,0.020998597
2.946,10.641484,7.4339056,-2.1558714,3.5228124,-2.391942,0.06138873
2.948,10.618154,7.450253,-2.108419,3.5680027,-2.3767734,0.10203934
2.95,10.592875,7.46541,-2.0589895,3.6133776,-2.3615422,0.14301169
2.952,10.565485,7.479804,-2.0073366,3.6588798,-2.3463202,0.18435168
2.954,10.53602,7.493601,-1.9531035,3.7044766,-2.3311589,0.22608125
2.956,10.504542,7.5071125,-1.8957958,3.7501357,-2.316081,0.26821226
2.958,10.470985,7.5205812,-1.8350807,3.7958522,-2.3010812,0.31076044
2.96,10.435596,7.53425,-1.7708406,3.8416042,-2.2861247,0.35374022
2.962,10.398274,7.548393,-1.7026906,3.8873684,-2.2711582,0.39716417
2.964,10.359077,7.563201,-1.6303266,3.933142,-2.2561102,0.4410708
2.966,10.3181095,7.5788684,-1.5536375,3.978904,-2.2409039,0.48548138
2.968,10.2755165,7.5954905,-1.4726115,4.024627,-2.2254848,0.53039676
2.97,10.231294,7.6131186,-1.3870522,4.0702744,-2.2097886,0.57581854
2.972,10.185651,7.6316967,-1.2969513,4.1158104,-2.1937592,0.62170625
2.974,10.138416,7.6513767,-1.202428,4.161193,-2.17736,0.66801095
2.976,10.08983,7.6721487,-1.10343,4.206374,-2.160575,0.7146446
2.978,10.039808,7.6938953,-1.0001584,4.2513175,-2.1434164,0.7614965
2.98,9.988476,7.7167377,-0.89276564,4.2959867,-2.1258924,0.8084324
2.982,9.935646,7.740568,-0.78134525,4.3403573,-2.107992,0.8553285
2.984,9.881559,7.765265,-0.6660458,4.384437,-2.089701,0.9020784
2.986,9.826214,7.7906837,-0.54708123,4.428231,-2.070974,0.94861674
2.988,9.769505,7.81668,-0.42446113,4.4717736,-2.0517507,0.9949487
2.99,9.71129,7.8431845,-0.2984525,4.515133,-2.0319414,1.0411365
2.992,9.651557,7.870226,-0.16895974,4.558388,-2.0114408,1.087321
2.994,9.59005,7.897766,-0.03594172,4.601643,-1.9901272,1.1337074
2.996,9.526821,7.9257345,0.10064256,4.644989,-1.9678762,1.180509
2.998,9.461523,7.954136,0.24097931,4.6885166,-1.9445866,1.2279565
3,9.394104,7.9829264,0.38514066,4.732299,-1.9201583,1.2762786
3.002,9.324421,8.012209,0.53345704,4.7763715,-1.8945204,1.3256495
3.004,9.2521,8.042105,0.686069,4.8207436,-1.8676308,1.3762056
3.006,9.177078,8.072687,0.8432057,4.8653965,-1.8394783,1.4280294
3.008,9.098965,8.104147,1.0052887,4.910257,-1.8100669,1.4811418
3.01,9.017544,8.136637,1.1726043,4.9552336,-1.7794341,1.5354891
3.012,8.932732,8.170174,1.345497,5.0001917,-1.7476249,1.5909773
3.014,8.844255,8.204826,1.5243695,5.044999,-1.7146838,1.6474727
3.016,8.752048,8.24075,1.7094877,5.089506,-1.68066,1.70482
3.018,8.655882,8.277746,1.9011416,5.133536,-1.6456227,1.7628207
3.02,8.555406,8.315898,2.0996156,5.1769304,-1.6096795,1.8212509
3.022,8.450658,8.35508,2.3051229,5.219502,-1.5729591,1.8798215
3.024,8.341373,8.395101,2.5179884,5.2610993,-1.5356288,1.9381804
3.026,8.227339,8.435724,2.7382193,5.3015785,-1.497822,1.9959539
3.028,8.108414,8.476698,2.9658914,5.34081,-1.4596677,2.0527637
3.03,7.984377,8.517639,3.201048,5.378709,-1.4212407,2.1082795
3.032,7.8551173,8.55825,3.44347,5.415217,-1.3825517,2.1622572
3.034,7.720422,8.598071,3.6930137,5.4503303,-1.3435175,2.2145822
3.036,7.5800776,8.6366625,3.9492407,5.4840784,-1.303929,2.265278
3.038,7.434038,8.673752,4.211689,5.5165534,-1.2634039,2.3145547
3.04,7.281951,8.708969,4.4798822,5.5479116,-1.2214262,2.3627913
3.042,7.1237946,8.741998,4.753015,5.5783362,-1.1773367,2.4105208
3.044,6.959521,8.772518,5.0302205,5.6080513,-1.1303717,2.4583921
3.046,6.789076,8.800098,5.310591,5.6372995,-1.0797098,2.5071142
3.048,6.6124067,8.824499,5.592915,5.666298,-1.0245647,2.557373
3.05,6.4295764,8.845362,5.8758955,5.695248,-0.9642199,2.6097922
3.052,6.2408457,8.86255,6.1582093,5.724296,-0.8980881,2.664831
3.054,6.046277,8.875814,6.438311,5.753506,-0.82575905,2.722744
3.056,5.846149,8.885075,6.714775,5.7828727,-0.7470343,2.7835798
3.058,5.6409903,8.889939,6.9859247,5.8122807,-0.6619551,2.8471866
3.06,5.431182,8.890426,7.2500505,5.841544,-0.5707588,2.9132369
3.062,5.217204,8.886325,7.505694,5.87039,-0.47391915,2.9812784
3.064,4.999586,8.877634,7.7511606,5.8984513,-0.37209153,3.0507686
3.066,4.778916,8.864309,7.984807,5.9252915,-0.26614308,3.1210978
3.068,4.555702,8.846317,8.2053175,5.9503984,-0.15709615,3.1916316
3.07,4.3303537,8.823732,8.411445,5.973231,-0.04607439,3.2617548
3.072,4.103423,8.796542,8.602041,5.9932175,0.06572485,3.330882
3.074,3.8752007,8.764762,8.776264,6.009788,0.17711854,3.3984988
3.076,3.6459618,8.728613,8.933541,6.022393,0.2869377,3.4641676
3.078,3.4157095,8.68829,9.073587,6.0305166,0.3940673,3.5275314
3.08,3.1846466,8.643984,9.1962185,6.0336914,0.4974606,3.5883093
3.082,2.9524124,8.59613,9.301677,6.031541,0.5962441,3.6462805
3.084,2.7188845,8.545026,9.390401,6.023771,0.68969584,3.7012906
3.086,2.4835372,8.491187,9.462901,6.0101814,0.77727175,3.7532444
3.088,2.2456732,8.435201,9.520023,5.9906564,0.8585937,3.8021188
3.09,2.004523,8.377493,9.562627,5.9651637,0.9334147,3.8479476
3.092,1.7593168,8.318817,9.591927,5.933703,1.0015888,3.8907962
3.094,1.5088133,8.260041,9.609156,5.896326,1.0630481,3.9307718
3.096,1.2519131,8.201972,9.615778,5.853101,1.1177771,3.968007
3.098,0.9875548,8.145342,9.613235,5.8040886,1.1657956,4.002647
3.1,0.7145299,8.090938,9.603177,5.7493563,1.2071152,4.034835
3.102,0.43198723,8.039257,9.58695,5.6889663,1.241734,4.0647073
3.104,0.13891095,7.9909673,9.566033,5.6229677,1.2696161,4.0923433
3.106,-0.16576207,7.9464827,9.541776,5.5513783,1.2906826,4.117769
3.108,-0.48261127,7.9062357,9.515581,5.4742203,1.3047903,4.140909
3.11,-0.81214714,7.870363,9.48867,5.391511,1.3117621,4.1615543
3.112,-1.154672,7.8388186,9.462224,5.30327,1.3114202,4.1793537
3.114,-1.5103277,7.8113766,9.437317,5.2095413,1.3035975,4.193846
3.116,-1.878798,7.787592,9.414869,5.1104045,1.2881854,4.2045026
3.118,-2.259569,7.766742,9.39561,5.0060053,1.2651453,4.2107553
3.12,-2.6519213,7.748206,9.380124,4.8965216,1.2345636,4.212084
3.122,-3.0551128,7.731129,9.368892,4.7822037,1.1966019,4.20803
3.124,-3.4678764,7.7145624,9.362174,4.6633472,1.1515286,4.1982365
3.126,-3.888957,7.697436,9.360196,4.540282,1.0997314,4.18248
3.128,-4.316866,7.6787663,9.362943,4.4133587,1.0416741,4.1606565
3.13,-4.7499266,7.6573443,9.370336,4.2829275,0.9779208,4.132778
3.132,-5.186583,7.632173,9.382127,4.149314,0.90910053,4.098975
3.134,-5.624961,7.6022534,9.397884,4.0128226,0.8358979,4.0594673
3.136,-6.0633173,7.56663,9.417072,3.8737202,0.75901747,4.01458
3.138,-6.4999657,7.524685,9.43922,3.7322588,0.6791856,3.964724
3.14,-6.9331126,7.475829,9.46344,3.5886545,0.59714985,3.9103951
3.142,-7.3612804,7.4196754,9.489046,3.4431543,0.5136968,3.8521605
3.144,-7.783013,7.356113,9.515177,3.2960374,0.42962897,3.7906406
3.146,-8.196828,7.2851205,9.541013,3.1476145,0.34578145,3.7265127
3.148,-8.601497,7.206824,9.565749,2.9982338,0.2629813,3.6604877
3.15,-8.995865,7.121685,9.588461,2.848278,0.18202353,3.5932703
3.152,-9.378956,7.0302086,9.608395,2.6981585,0.1036489,3.5255325
3.154,-9.750047,6.9331503,9.624846,2.548304,0.028551102,3.4578738
3.156,-10.108669,6.8315043,9.637041,2.3991601,-0.042622566,3.3908317
3.158,-10.454262,6.7262726,9.64446,2.2511814,-0.10932028,3.3248453
3.16,-10.786604,6.6187444,9.646607,2.1048303,-0.17108476,3.2602797
3.162,-11.105476,6.509938,9.643031,1.9605609,-0.22755301,3.1974251
3.164,-11.4107275,6.4012575,9.633508,1.8188138,-0.278427,3.1365218
3.166,-11.702475,6.2937126,9.617734,1.6800315,-0.32350612,3.0777812
3.168,-11.980846,6.188725,9.595764,1.5446191,-0.36265337,3.0213838
3.17,-12.246001,6.0874705,9.567427,1.4129632,-0.3957709,2.9674726
3.172,-12.49801,5.9910564,9.532827,1.2853814,-0.4227723,2.916185
3.174,-12.737194,5.900527,9.492069,1.1621594,-0.44356614,2.8676338
3.176,-12.963903,5.816923,9.445527,1.0435212,-0.45801616,2.8218963
3.178,-13.1783085,5.7411118,9.393344,0.92962015,-0.46594405,2.7789974
3.18,-13.380522,5.6737247,9.335734,0.8205701,-0.46711773,2.7389257
3.182,-13.570833,5.6154785,9.272726,0.71641517,-0.46127635,2.7016215
3.184,-13.749375,5.566872,9.204467,0.6171504,-0.44816047,2.666953
3.186,-13.916313,5.5281844,9.130959,0.5227429,-0.42751622,2.6347053
3.188,-14.071812,5.4997106,9.052275,0.4331228,-0.39912117,2.6046062
3.19,-14.215965,5.4815626,8.968426,0.34819204,-0.36283654,2.5763247
3.192,-14.348699,5.473545,8.879389,0.2678331,-0.31862772,2.5494885
3.194,-14.470185,5.475487,8.78527,0.1919322,-0.26661146,2.52369
3.196,-14.580256,5.487009,8.686091,0.120328784,-0.20705062,2.4985218
3.198,-14.678864,5.5076795,8.581929,0.052871644,-0.14032906,2.4736
3.2,-14.765929,5.5369964,8.472787,-0.010614753,-0.066979945,2.4485664
3.202,-14.84116,5.574357,8.358217,-0.07033366,0.012350261,2.4231024
3.204,-14.905848,5.6191254,8.238981,-0.12651187,0.09689689,2.3969626
3.206,-14.9595585,5.6704135,8.115303,-0.1794154,0.18580359,2.3699384
3.208,-15.001062,5.7274323,7.985636,-0.22935605,0.27812856,2.3418553
3.21,-15.031473,5.7897015,7.8508215,-0.276684,0.37285727,2.3125513
3.212,-15.050985,5.856572,7.710723,-0.32176882,0.46898356,2.2818677
3.214,-15.059766,5.92727,7.5655336,-0.36498138,0.5655251,2.2496605
3.216,-15.057995,6.00131,7.41542,-0.40667248,0.6615409,2.2157712
3.218,-15.046037,6.077977,7.2604685,-0.44715893,0.75618804,2.1800442
3.22,-15.024347,6.1568003,7.100986,-0.48671985,0.8487375,2.1423335
3.222,-14.993378,6.237194,6.937049,-0.5255643,0.9385805,2.1025207
3.224,-14.9535,6.3187013,6.7690268,-0.5638556,1.025259,2.0605297
3.226,-14.905215,6.401022,6.5970454,-0.6016665,1.108451,2.016335
3.228,-14.849117,6.4839344,6.4214373,-0.6390176,1.1879555,1.9699676
3.23,-14.78575,6.567149,6.242564,-0.6758864,1.2636695,1.9215249
3.232,-14.715628,6.6504717,6.060728,-0.7122146,1.3355246,1.8711318
3.234,-14.6395,6.733755,5.876388,-0.7479364,1.40353,1.818914
3.236,-14.557831,6.816858,5.6897907,-0.78283775,1.4679528,1.7651551
3.238,-14.471136,6.899634,5.5013022,-0.81677437,1.5288452,1.7101287
3.24,-14.379802,6.9821324,5.3110905,-0.84969515,1.5862598,1.6539794
3.242,-14.2844715,7.0643644,5.119539,-0.88148546,1.6402969,1.5969045
3.244,-14.185858,7.146378,4.9270735,-0.9120825,1.6910523,1.5390663
3.246,-14.084565,7.2283244,4.7340493,-0.9414927,1.738636,1.480653
3.248,-13.980944,7.3101544,4.540831,-0.96973836,1.783149,1.4218637
3.25,-13.875563,7.3920536,4.347904,-0.9968735,1.8246698,1.3629029
3.252,-13.768996,7.4740214,4.1556807,-1.0230019,1.8632642,1.303995
3.254,-13.661711,7.556234,3.9645658,-1.0482492,1.8989775,1.245369
3.256,-13.554163,7.6388397,3.7749815,-1.0727563,1.9318128,1.187227
3.258,-13.446926,7.721931,3.587202,-1.0966812,1.9617448,1.1296892
3.26,-13.340441,7.8057456,3.4017816,-1.1201842,1.9887056,1.0728014
3.262,-13.235378,7.890479,3.2191296,-1.1434269,2.0126042,1.0164993
3.264,-13.131916,7.97617,3.039681,-1.1665748,2.0333312,0.960603
3.266,-13.030364,8.062944,2.8637524,-1.189774,2.050776,0.90488744
3.268,-12.931248,8.150928,2.6917968,-1.2131467,2.064843,0.8490875
3.27,-12.834775,8.240059,2.52417,-1.2367946,2.0754752,0.7929851
3.272,-12.741306,8.330389,2.3611145,-1.2607696,2.0826597,0.73642856
3.274,-12.651154,8.4218,2.2028751,-1.2850718,2.086469,0.67934537
3.276,-12.565963,8.511974,2.0527668,-1.3096658,2.0870519,0.6217679
3.278,-12.484833,8.602722,1.9083171,-1.3344905,2.0845952,0.5638075
3.28,-12.407779,8.693804,1.7698727,-1.3594697,2.0793185,0.50564253
3.282,-12.335026,8.785011,1.6374283,-1.3845246,2.0714698,0.44747376
3.284,-12.266688,8.876214,1.511087,-1.4095802,2.0613103,0.3894999
3.286,-12.2026615,8.967024,1.3907022,-1.4345739,2.0491266,0.33188653
3.288,-12.142911,9.0572405,1.2762723,-1.4594513,2.0351756,0.27475357
3.29,-12.087422,9.146586,1.1677637,-1.4842806,2.019598,0.21805966
3.292,-12.036046,9.234709,1.0651197,-1.5090287,2.0028172,0.16181481
3.294,-11.988611,9.321316,0.96815395,-1.533643,1.9851719,0.10610807
3.296,-11.944973,9.406096,0.8767357,-1.5581772,1.9669224,0.0509001
3.298,-11.904801,9.488693,0.79056215,-1.5826285,1.948325,-0.0038409233
3.3,-11.867969,9.568872,0.7094312,-1.6069847,1.9296322,-0.058144927
3.302,-11.834288,9.646448,0.6330795,-1.6312342,1.9110721,-0.112030745
3.304,-11.803373,9.721228,0.56115246,-1.6545649,1.8933914,-0.16368127
3.306,-11.775127,9.793101,0.4933939,-1.677305,1.876421,-0.21395302
3.308,-11.749205,9.861916,0.42953634,-1.6992662,1.860318,-0.26251101
3.31,-11.725462,9.927615,0.36940527,-1.7202545,1.8451972,-0.3089869
3.312,-11.703994,9.990183,0.31303787,-1.7400862,1.8311183,-0.353011
3.314,-11.68297,10.049431,0.2593131,-1.7586077,1.8181032,-0.39425564
3.316,-11.663114,10.105645,0.20791197,-1.7757018,1.8061469,-0.43247014
3.318,-11.645767,10.158872,0.16060305,-1.7912961,1.7952309,-0.46750075
3.32,-11.629098,10.208717,0.115810394,-1.8053868,1.7853167,-0.49931663
3.322,-11.613328,10.255343,0.073723316,-1.8180091,1.7763606,-0.52798855
3.324,-11.598337,10.298924,0.033956528,-1.8292384,1.7683126,-0.5536805
3.326,-11.584145,10.339563,-0.0036096573,-1.8391848,1.7611125,-0.5766151
