Time_s_,Acc_x_m_s_2_,Acc_y_m_s_2_,Acc_z_m_s_2_,Gyro_x_1_s_,Gyro_y_1_s_,Gyro_z_1_s_
0,-0.59486496,0.53646517,0.6123633,1.1482704,0.5768378,-0.17458797
0.002,-0.58252674,0.54230565,0.6051439,1.1543767,0.58433306,-0.17334527
0.004,-0.5703056,0.5486828,0.5976164,1.1608837,0.5922321,-0.17202622
0.006,-0.5583279,0.5556847,0.5899594,1.1677356,0.60042465,-0.17066252
0.008,-0.5464483,0.5634223,0.5822527,1.1748512,0.6087504,-0.16927606
0.01,-0.5349005,0.5719555,0.57465583,1.1821046,0.6170066,-0.1679064
0.012,-0.523793,0.5814544,0.5673577,1.1893644,0.62495935,-0.16660452
0.014,-0.513047,0.59179616,0.5605152,1.1964707,0.63235843,-0.16541588
0.016,-0.50302184,0.60314167,0.55428994,1.2032835,0.6389766,-0.16436237
0.018,-0.49363953,0.6154991,0.54880273,1.209692,0.6446429,-0.16345286
0.02,-0.4846344,0.62855357,0.5445186,1.2156422,0.64928424,-0.16268206
0.022,-0.47703254,0.64270425,0.5413037,1.2211552,0.65295064,-0.16201377
0.024,-0.47031567,0.65770787,0.5394257,1.2263291,0.65580755,-0.16138583
0.026,-0.46454966,0.67334026,0.53916705,1.2313213,0.65814024,-0.16074193
0.028,-0.4598658,0.6896079,0.5406351,1.2366046,0.660583,-0.15996397
0.03,-0.45618212,0.70629525,0.5439365,1.2420391,0.66314346,-0.15906775
0.032,-0.453777,0.7233157,0.5491941,1.2479153,0.6663294,-0.15800053
0.034,-0.45243564,0.74037594,0.55654067,1.2544749,0.67058736,-0.15671706
0.036,-0.45231357,0.75729215,0.5660014,1.2619078,0.6762984,-0.15521294
0.038,-0.4533897,0.77387613,0.5775201,1.2703431,0.68375486,-0.15351099
0.04,-0.455583,0.7899297,0.59111965,1.2798357,0.69316673,-0.15163821
0.042,-0.45895225,0.80518997,0.6066642,1.2903936,0.7046294,-0.14963233
0.044,-0.4633485,0.81947994,0.6239475,1.3019652,0.718142,-0.1475544
0.046,-0.46873128,0.83259463,0.64276445,1.3144611,0.7336322,-0.14545119
0.048,-0.47511932,0.844349,0.662865,1.327779,0.7509676,-0.14335078
0.05,-0.48241976,0.85451835,0.6839609,1.3417835,0.7699318,-0.14128208
0.052,-0.49062687,0.8630444,0.7056448,1.3563282,0.79029113,-0.13924176
0.054,-0.49960342,0.86968565,0.7276306,1.371267,0.8117666,-0.13722682
0.056,-0.50893116,0.87475723,0.749584,1.386449,0.8340534,-0.1352272
0.058,-0.5193033,0.8779056,0.7709166,1.4017282,0.85686255,-0.13324201
0.06,-0.5304959,0.87928414,0.79134184,1.4169748,0.87994254,-0.13125145
0.062,-0.54243064,0.8788328,0.8105376,1.4320854,0.90306175,-0.12926656
0.064,-0.55512357,0.8768034,0.8281727,1.4469635,0.92599714,-0.12731671
0.066,-0.5685171,0.87306154,0.84393275,1.4615055,0.9485427,-0.12546605
0.068,-0.58232,0.86768615,0.8575512,1.4756281,0.9705035,-0.12379295
0.07,-0.5964712,0.8610068,0.86882627,1.4892601,0.9916768,-0.12242442
0.072,-0.61101204,0.85312986,0.8776136,1.5023366,1.0118661,-0.121479034
0.074,-0.62551343,0.8441864,0.88396865,1.5148052,1.0308533,-0.12107062
0.076,-0.6399964,0.8342298,0.8877682,1.5266147,1.0484036,-0.12131429
0.078,-0.6543187,0.82338464,0.88915676,1.53773,1.0642878,-0.12230086
0.08,-0.6682135,0.81187296,0.88817674,1.5481373,1.0782697,-0.1240595
0.082,-0.68160665,0.79985785,0.88506377,1.5578153,1.0901376,-0.12660861
0.084,-0.69414926,0.78729135,0.88006186,1.5667796,1.0996958,-0.12991202
0.086,-0.7055902,0.7740694,0.87341857,1.5750672,1.1068019,-0.13391793
0.088,-0.7157022,0.7602314,0.8654409,1.5827303,1.1113696,-0.13855964
0.09,-0.7242517,0.74570024,0.85649633,1.5898323,1.1133652,-0.14376241
0.092,-0.73111653,0.7305392,0.84694594,1.5964587,1.1128308,-0.14946008
0.094,-0.73599124,0.7145455,0.8371299,1.6027195,1.1098592,-0.15560251
0.096,-0.73882616,0.6976931,0.82744074,1.608721,1.1046118,-0.16214138
0.098,-0.7392687,0.67972213,0.8181006,1.614556,1.0972972,-0.1690324
0.1,-0.73735845,0.6606454,0.80945534,1.6203139,1.0881295,-0.17625785
0.102,-0.7329945,0.6402313,0.80180216,1.6260486,1.0773275,-0.1838367
0.104,-0.72611535,0.61831754,0.7952989,1.6317657,1.0651112,-0.1917783
0.106,-0.71667385,0.5947306,0.7902141,1.6374204,1.0516768,-0.20011544
0.108,-0.7045506,0.56942546,0.7866206,1.6429218,1.0371284,-0.20886523
0.11,-0.68994975,0.5423032,0.78462094,1.6481286,1.0215292,-0.21805263
0.112,-0.6728765,0.513326,0.7841799,1.6528867,1.0048804,-0.22770572
0.114,-0.6533499,0.48255214,0.78525513,1.6570286,0.98712116,-0.23783201
0.116,-0.6315868,0.449936,0.78767586,1.660358,0.9681438,-0.2484231
0.118,-0.6078416,0.4155019,0.7912758,1.6627,0.9477925,-0.2594571
0.12,-0.58219105,0.37934744,0.79578567,1.6638865,0.92589563,-0.27091277
0.122,-0.554783,0.3415773,0.8009818,1.6637766,0.9022888,-0.2827717
0.124,-0.52596086,0.30250123,0.8065469,1.662246,0.8768285,-0.29499745
0.126,-0.49588794,0.26227054,0.8122916,1.6592479,0.8494252,-0.30754727
0.128,-0.46500802,0.2212609,0.81794965,1.6547756,0.8200692,-0.3203563
0.13,-0.4337741,0.17994484,0.8230586,1.6488911,0.788831,-0.333336
0.132,-0.4017274,0.13843432,0.82767165,1.6417198,0.7558672,-0.3463856
0.134,-0.36988258,0.09723971,0.83132493,1.6334428,0.72141254,-0.3594079
0.136,-0.33846694,0.056927234,0.8336784,1.6242902,0.68575585,-0.372293
0.138,-0.30782664,0.017767318,0.83453315,1.6145053,0.64927053,-0.3849262
0.14,-0.27820307,-0.019877397,0.83364296,1.6043658,0.61233735,-0.3971898
0.142,-0.24986058,-0.055693753,0.8307899,1.5941424,0.5753652,-0.40898192
0.144,-0.2233508,-0.08928119,0.82583135,1.5840867,0.5387478,-0.42021066
0.146,-0.1987875,-0.12037666,0.8185591,1.5744117,0.502849,-0.43081176
0.148,-0.17641878,-0.14883928,0.80900997,1.5653143,0.46798497,-0.4407472
0.15,-0.15652817,-0.17440735,0.7970564,1.5569607,0.4344478,-0.45001394
0.152,-0.13926664,-0.19691658,0.78279155,1.5494719,0.4024591,-0.4586389
0.154,-0.12498163,-0.21626933,0.7663522,1.542929,0.37218583,-0.46666172
0.156,-0.11368186,-0.232454,0.74793637,1.5373923,0.3437522,-0.47412056
0.158,-0.10554033,-0.24549818,0.72763854,1.5329013,0.31722233,-0.4810833
0.16,-0.10050378,-0.25552267,0.70566404,1.5294647,0.29259053,-0.48761266
0.162,-0.098635316,-0.26270944,0.6824281,1.527071,0.26986212,-0.4937756
0.164,-0.099813566,-0.26721194,0.6581833,1.5257109,0.2489776,-0.49964046
0.166,-0.1039357,-0.26936436,0.6333972,1.5253463,0.22983631,-0.505267
0.168,-0.11078882,-0.26953438,0.60843915,1.5259402,0.21231958,-0.51070833
0.17,-0.12035741,-0.26809216,0.5837318,1.5274713,0.19630614,-0.5160041
0.172,-0.13222462,-0.2653837,0.55972296,1.5299268,0.18169299,-0.52116466
0.174,-0.14610893,-0.26190248,0.536891,1.5332791,0.16835758,-0.52618384
0.176,-0.16166054,-0.25793657,0.5155806,1.537494,0.15616533,-0.5310509
0.178,-0.17860043,-0.25392735,0.4962045,1.5425355,0.14497411,-0.5357333
0.18,-0.19658089,-0.250557,0.479094,1.5483334,0.1346404,-0.5402057
0.182,-0.21517849,-0.24791385,0.46445325,1.5548255,0.12502825,-0.5444406
0.184,-0.23403013,-0.24658054,0.45230395,1.5619521,0.116024196,-0.5483943
0.186,-0.25271937,-0.24684227,0.44295442,1.5696492,0.107552946,-0.5520118
0.188,-0.27087077,-0.24889988,0.43644875,1.5778956,0.099601984,-0.55522734
0.19,-0.2881825,-0.25310308,0.4327993,1.58669,0.09222904,-0.557947
0.192,-0.30425254,-0.25963295,0.43196416,1.5960796,0.08552235,-0.5600889
0.194,-0.31881762,-0.26853418,0.4338457,1.6061103,0.07962051,-0.5615737
0.196,-0.3317304,-0.2798293,0.43834996,1.6168252,0.0746634,-0.5623529
0.198,-0.3427952,-0.29352766,0.44540742,1.6282662,0.07077512,-0.562404
0.2,-0.35173506,-0.3096121,0.45474026,1.6404366,0.068059295,-0.5617458
0.202,-0.3584903,-0.32800788,0.46603617,1.6532942,0.06655127,-0.560449
0.204,-0.3630101,-0.34840024,0.4792463,1.6667491,0.066189766,-0.558627
0.206,-0.3653217,-0.370739,0.49406174,1.6806927,0.06686008,-0.55640984
0.208,-0.36554444,-0.39464235,0.51036227,1.6949944,0.06841004,-0.5539578
0.21,-0.36365837,-0.41994777,0.5279327,1.709502,0.07064587,-0.5514478
0.212,-0.35972917,-0.44631183,0.54657495,1.7240881,0.073375404,-0.5490257
0.214,-0.3539195,-0.47350866,0.56630194,1.7386454,0.07642424,-0.54682505
0.216,-0.34652334,-0.5011699,0.58688617,1.7531059,0.07964742,-0.5449326
0.218,-0.33767247,-0.52915716,0.60835314,1.767427,0.08295715,-0.5433974
0.22,-0.3275889,-0.5572349,0.63068795,1.7816195,0.08630723,-0.5422157
0.222,-0.31664014,-0.58519053,0.6539631,1.7957033,0.089692414,-0.5413463
0.224,-0.30512363,-0.61291087,0.6781543,1.809721,0.09315246,-0.54071903
0.226,-0.29315856,-0.6402367,0.7034557,1.8237374,0.09674722,-0.5402522
0.228,-0.28103822,-0.66707134,0.72997403,1.8378282,0.10055554,-0.53984094
0.23,-0.2690379,-0.6932422,0.7578079,1.8520571,0.10468584,-0.5393971
0.232,-0.25743437,-0.71881104,0.7869442,1.866477,0.10922474,-0.53886366
0.234,-0.24647753,-0.7438183,0.8176716,1.8811283,0.11424577,-0.53820693
0.236,-0.23626903,-0.76824707,0.849867,1.8960485,0.11981046,-0.5374198
0.238,-0.22690992,-0.7922627,0.8835552,1.9112477,0.12598145,-0.53652525
0.24,-0.21876644,-0.81586576,0.91887474,1.9267236,0.13279563,-0.5355705
0.242,-0.21193112,-0.83920103,0.955833,1.9424366,0.14025468,-0.5346086
0.244,-0.20646927,-0.8623557,0.9945277,1.9583462,0.14833868,-0.53371346
0.246,-0.20245035,-0.8854488,1.0348543,1.974385,0.1570198,-0.5329348
0.248,-0.19993834,-0.9085672,1.0767907,1.9904847,0.16624814,-0.53229326
0.25,-0.19912627,-0.9317745,1.1202337,2.0065775,0.1759702,-0.5317943
0.252,-0.19991374,-0.9550942,1.1650667,2.0225842,0.18611568,-0.5313935
0.254,-0.20227729,-0.97865677,1.2110076,2.038451,0.19658792,-0.531031
0.256,-0.20622903,-1.0025957,1.2579342,2.0541182,0.20729423,-0.5306349
0.258,-0.21184331,-1.026886,1.3055453,2.0695527,0.21812475,-0.53011656
0.26,-0.21898392,-1.051585,1.3534818,2.0846972,0.22896051,-0.5294163
0.262,-0.22760794,-1.0766329,1.401543,2.099509,0.23966235,-0.5284873
0.264,-0.23747802,-1.102098,1.449385,2.113964,0.2501003,-0.5273007
0.266,-0.24868554,-1.1278526,1.4966422,2.128024,0.26015824,-0.5258684
0.268,-0.26099867,-1.1538485,1.54303,2.1416397,0.26969922,-0.52421916
0.27,-0.2742878,-1.1799433,1.5882083,2.154748,0.27857804,-0.52242374
0.272,-0.2883494,-1.2060986,1.6316907,2.167274,0.2866584,-0.52056533
0.274,-0.3031924,-1.2321348,1.6731808,2.1791232,0.29379046,-0.5187515
0.276,-0.3186404,-1.2581413,1.7122254,2.190231,0.2998258,-0.51708347
0.278,-0.3344444,-1.2838932,1.7483821,2.200532,0.30462837,-0.51562846
0.28,-0.35048854,-1.3093699,1.7814524,2.2099738,0.30806786,-0.51442975
0.282,-0.36682117,-1.3344657,1.8112793,2.2185516,0.31001318,-0.51352257
0.284,-0.38316378,-1.3590891,1.8376484,2.2262795,0.3103472,-0.51289165
0.286,-0.3994444,-1.383263,1.8603886,2.2332304,0.30899906,-0.5125004
0.288,-0.41552886,-1.406898,1.8793082,2.239501,0.30591482,-0.5122926
0.29,-0.43118155,-1.42996,1.8943715,2.2451968,0.30105495,-0.51219916
0.292,-0.44630665,-1.4526141,1.9056668,2.25044,0.29437685,-0.512167
0.294,-0.46093076,-1.4747097,1.9131556,2.2553458,0.28585976,-0.51212823
0.296,-0.4748822,-1.496362,1.9169484,2.260007,0.27550906,-0.51203835
0.298,-0.48802695,-1.5177326,1.9172194,2.2644954,0.26332152,-0.5118609
0.3,-0.5002978,-1.5387971,1.91412,2.2688599,0.24930203,-0.5115971
0.302,-0.5114796,-1.5598278,1.9079674,2.2731385,0.23349899,-0.51125455
0.304,-0.5215436,-1.5808926,1.8990868,2.277362,0.2159884,-0.51083344
0.306,-0.5303726,-1.602093,1.8877363,2.281584,0.19689608,-0.5103618
0.308,-0.53787196,-1.6235993,1.874423,2.2858481,0.1763891,-0.5098417
0.31,-0.54415274,-1.6455681,1.8596553,2.290229,0.15467829,-0.50926375
0.312,-0.54898393,-1.6681057,1.8439014,2.2948148,0.13200343,-0.5086149
0.314,-0.5523721,-1.6914824,1.8275694,2.2997284,0.108621895,-0.5078636
0.316,-0.5541653,-1.7157896,1.8111602,2.305066,0.08479065,-0.5069791
0.318,-0.5544175,-1.7411697,1.7950212,2.310919,0.060744405,-0.50593185
0.32,-0.5530362,-1.7677639,1.7795365,2.317358,0.0366866,-0.5046891
0.322,-0.5501223,-1.7956786,1.76507,2.3244581,0.012800753,-0.5032191
0.324,-0.5456794,-1.8250519,1.751719,2.332264,-0.010760248,-0.5014906
0.326,-0.53977066,-1.856035,1.7398367,2.3407853,-0.033908606,-0.49945664
0.328,-0.5324677,-1.8886255,1.7296494,2.3500018,-0.056613505,-0.49708983
0.33,-0.5239553,-1.9228604,1.7214527,2.3598359,-0.07890767,-0.49436498
0.332,-0.51429105,-1.9587762,1.7154868,2.3702104,-0.100841045,-0.49128115
0.334,-0.50369304,-1.9963124,1.7120081,2.3810184,-0.1225037,-0.48782906
0.336,-0.49238634,-2.0354705,1.7109863,2.3920984,-0.14405006,-0.48401162
0.338,-0.48069844,-2.076273,1.7124722,2.403269,-0.16570234,-0.4798688
0.34,-0.46891883,-2.1185951,1.7165184,2.4143147,-0.18771344,-0.4754476
0.342,-0.4572939,-2.162285,1.7230659,2.4250355,-0.21035844,-0.4708085
0.344,-0.44612688,-2.207048,1.7320195,2.4352536,-0.23387605,-0.46600407
0.346,-0.4358427,-2.2527657,1.7434664,2.444841,-0.2584558,-0.46107066
0.348,-0.42683142,-2.299068,1.7573864,2.453718,-0.28420764,-0.4560408
0.35,-0.41940248,-2.3457294,1.7735205,2.461872,-0.31115556,-0.4509024
0.352,-0.41402256,-2.3926206,1.791621,2.4693358,-0.33922,-0.44563672
0.354,-0.41086924,-2.4394064,1.8115532,2.4761994,-0.36821985,-0.44018978
0.356,-0.4104197,-2.4858594,1.8330923,2.4825962,-0.3979059,-0.43450463
0.358,-0.41288686,-2.5316403,1.8559707,2.4886606,-0.4279971,-0.4285314
0.36,-0.41852367,-2.576483,1.880021,2.494496,-0.4582134,-0.4222232
0.362,-0.42755198,-2.6202579,1.9048835,2.5001907,-0.48832905,-0.4155655
0.364,-0.44020557,-2.6626537,1.9304893,2.5057719,-0.5181991,-0.4085719
0.366,-0.4565742,-2.703412,1.9565059,2.51122,-0.54778564,-0.40126705
0.368,-0.47651613,-2.7424006,1.982711,2.516462,-0.577155,-0.3937007
0.37,-0.50014734,-2.7795215,2.0090387,2.5214195,-0.6064358,-0.3859319
0.372,-0.527395,-2.8147564,2.035125,2.5260034,-0.63580257,-0.37800732
0.374,-0.55805445,-2.847929,2.060922,2.5301325,-0.6654557,-0.36997667
0.376,-0.59189487,-2.879123,2.0863335,2.5337358,-0.69556814,-0.36186376
0.378,-0.62862694,-2.9083595,2.1113138,2.5367684,-0.726298,-0.35367316
0.38,-0.66803086,-2.935732,2.1358,2.5392115,-0.75776285,-0.34541953
0.382,-0.7095472,-2.9614606,2.1598299,2.541076,-0.79002225,-0.33708775
0.384,-0.75269556,-2.9857588,2.1831825,2.5424016,-0.8230679,-0.3286521
0.386,-0.7967802,-3.008664,2.2059717,2.543214,-0.8569087,-0.3200684
0.388,-0.8410566,-3.0305889,2.228181,2.5435386,-0.8915652,-0.311328
0.39,-0.8852159,-3.0516698,2.249635,2.5434048,-0.9270399,-0.3024205
0.392,-0.9282557,-3.0722785,2.270434,2.5428333,-0.96333134,-0.29332477
0.394,-0.9695931,-3.0926778,2.2907164,2.541822,-1.0004876,-0.28404588
0.396,-1.0083551,-3.113086,2.310721,2.5403318,-1.0385792,-0.27459672
0.398,-1.0438225,-3.133923,2.3305855,2.5383027,-1.0777284,-0.26501656
0.4,-1.0753696,-3.1554792,2.3506517,2.5356796,-1.118049,-0.25533855
0.402,-1.1023026,-3.178177,2.3711,2.5324166,-1.159633,-0.2456058
0.404,-1.1237936,-3.2023797,2.392309,2.5284991,-1.2025003,-0.23584406
0.406,-1.139267,-3.2282593,2.4144254,2.5239568,-1.2465909,-0.22605252
0.408,-1.14836,-3.2559204,2.4375734,2.5188632,-1.2917178,-0.21621402
0.41,-1.1505395,-3.2856336,2.461911,2.513348,-1.3376065,-0.2062946
0.412,-1.1453794,-3.3173418,2.4872944,2.5076022,-1.3838549,-0.19623497
0.414,-1.1324234,-3.35142,2.5144396,2.5018554,-1.4299482,-0.18596083
0.416,-1.1116252,-3.3881438,2.543396,2.4963732,-1.4752772,-0.17536472
0.418,-1.0827029,-3.4275799,2.5740228,2.4914236,-1.5192119,-0.16435342
0.42,-1.0457146,-3.469691,2.6063251,2.4872475,-1.5611267,-0.1528499
0.422,-1.0008439,-3.5142903,2.6405566,2.484033,-1.6004491,-0.14076373
0.424,-0.9482341,-3.561214,2.676901,2.4819136,-1.6367208,-0.12804857
0.426,-0.8882724,-3.610238,2.7154717,2.4809396,-1.6696076,-0.11469915
0.428,-0.8210809,-3.6616564,2.7562075,2.4811044,-1.6989185,-0.10072709
0.43,-0.74733794,-3.7152567,2.7989876,2.4823596,-1.7246066,-0.08617479
0.432,-0.6674684,-3.770746,2.8437645,2.484628,-1.7467114,-0.071088165
0.434,-0.5819701,-3.827819,2.8903842,2.4878268,-1.7653967,-0.05551144
0.436,-0.4912424,-3.8862906,2.938566,2.4918764,-1.7809131,-0.039487027
0.438,-0.39607096,-3.9458928,2.9880135,2.4967208,-1.7935926,-0.023087753
0.44,-0.29718173,-4.0062,3.0385041,2.502372,-1.8037398,-0.006393658
0.442,-0.19500017,-4.0670323,3.089772,2.5089102,-1.8116115,0.010539273
0.444,-0.09017599,-4.1280518,3.1415215,2.5163918,-1.8174566,0.02766594
0.446,0.01666665,-4.188889,3.1934302,2.5248885,-1.821471,0.04496342
0.448,0.12483668,-4.2489405,3.2452352,2.5345008,-1.8238337,0.062427346
0.45,0.23378658,-4.307994,3.296629,2.545294,-1.8247594,0.0800283
0.452,0.34295774,-4.3655486,3.3472261,2.5572758,-1.8244451,0.09773535
0.454,0.4517455,-4.421346,3.39646,2.5703814,-1.8230958,0.11550296
0.456,0.55967903,-4.475008,3.4438095,2.5844932,-1.8209497,0.13324276
0.458,0.6663501,-4.526374,3.488707,2.5994134,-1.8182675,0.15088215
0.46,0.7713592,-4.5751066,3.5307143,2.6148899,-1.8153208,0.16840287
0.462,0.87441516,-4.6208644,3.5693228,2.63062,-1.8124058,0.1857667
0.464,0.9751048,-4.66344,3.6038327,2.6462703,-1.8098093,0.20292254
0.466,1.0732071,-4.7027197,3.6336684,2.661507,-1.8078345,0.21983685
0.468,1.1689346,-4.738559,3.6578498,2.6760073,-1.8068359,0.23647946
0.47,1.2625253,-4.7709217,3.675668,2.6894603,-1.8072115,0.2528147
0.472,1.3532913,-4.7994356,3.6875303,2.7016056,-1.8093932,0.26880968
0.474,1.4405069,-4.823737,3.694147,2.7122474,-1.8138618,0.28441113
0.476,1.5241313,-4.8441434,3.6956434,2.7212093,-1.8211658,0.29954675
0.478,1.6041555,-4.8607745,3.6910899,2.7283406,-1.8319272,0.3141481
0.48,1.6806729,-4.873669,3.6798463,2.7335525,-1.8467625,0.32814726
0.482,1.7539947,-4.883115,3.6617756,2.7367873,-1.8662616,0.34147072
0.484,1.8238373,-4.8890696,3.636857,2.7379758,-1.8910079,0.35404426
0.486,1.8903352,-4.891454,3.6044936,2.7370484,-1.9215816,0.36578098
0.488,1.9533622,-4.8902545,3.563869,2.7339063,-1.9584965,0.37659588
0.49,2.013204,-4.885626,3.515286,2.7284334,-2.002222,0.38641405
0.492,2.0704954,-4.877937,3.459783,2.720491,-2.053165,0.39516842
0.494,2.1249657,-4.867009,3.398521,2.7099304,-2.111662,0.4027952
0.496,2.1761456,-4.8527765,3.3330288,2.696613,-2.1779633,0.40921846
0.498,2.222906,-4.835121,3.265486,2.6805177,-2.2521753,0.41435832
0.5,2.263275,-4.8134127,3.1979067,2.661644,-2.3342938,0.41810948
0.502,2.2970324,-4.788281,3.132352,2.639983,-2.4243042,0.42035425
0.504,2.326207,-4.760886,3.069336,2.615642,-2.5219545,0.4210043
0.506,2.3509398,-4.731373,3.007917,2.5888662,-2.626679,0.42004028
0.508,2.371023,-4.6999273,2.9485662,2.5599859,-2.7377262,0.41749385
0.51,2.385223,-4.666615,2.8930614,2.5293667,-2.8542614,0.41342944
0.512,2.3928995,-4.631256,2.8429916,2.4974484,-2.9752965,0.40793765
0.514,2.3939395,-4.593845,2.7990627,2.4647124,-3.0996656,0.401146
0.516,2.388579,-4.5548573,2.76187,2.4316683,-3.2260332,0.3932697
0.518,2.3770566,-4.515088,2.7321353,2.398778,-3.3530335,0.3845786
0.52,2.359606,-4.475136,2.7105484,2.3664074,-3.4794674,0.37535024
0.522,2.3360834,-4.4354835,2.6976295,2.3349082,-3.6041038,0.36588845
0.524,2.3068986,-4.396306,2.693036,2.3045807,-3.7257414,0.35647815
0.526,2.2726426,-4.3578596,2.697146,2.2756538,-3.843409,0.34733176
0.528,2.2339332,-4.3205237,2.7100303,2.2483377,-3.9563227,0.33864626
0.53,2.1918907,-4.284936,2.7315998,2.222865,-4.0638666,0.33059454
0.532,2.1476293,-4.2516823,2.7613425,2.1995769,-4.1653323,0.32335564
0.534,2.1022868,-4.221027,2.7986178,2.1790392,-4.2596307,0.31715256
0.536,2.0573826,-4.1932964,2.8427458,2.1618433,-4.3457546,0.31206143
0.538,2.0141342,-4.1682024,2.892851,2.148466,-4.4229865,0.30806214
0.54,1.9743221,-4.1458836,2.9479594,2.1393864,-4.490365,0.30524826
0.542,1.9396602,-4.1266394,3.0068707,2.1350718,-4.5465093,0.30387318
0.544,1.911576,-4.1102877,3.0685227,2.1358323,-4.5899324,0.3042345
0.546,1.8917242,-4.096757,3.1317387,2.1417842,-4.619262,0.3066926
0.548,1.8818216,-4.0859537,3.1949544,2.1528835,-4.6333113,0.3117475
0.55,1.8834355,-4.0778513,3.25668,2.169038,-4.63111,0.32006502
0.552,1.8976032,-4.072111,3.3153892,2.1901321,-4.6120434,0.3323996
0.554,1.9252913,-4.0685363,3.3697395,2.2161274,-4.5759892,0.34953272
0.556,1.9671261,-4.0667925,3.4185357,2.2470827,-4.523305,0.37215996
0.558,2.023728,-4.066697,3.4603722,2.2830567,-4.455089,0.4007529
0.56,2.0953012,-4.0678635,3.494092,2.3240302,-4.3731294,0.43547398
0.562,2.1814566,-4.069866,3.518987,2.369935,-4.279525,0.47619617
0.564,2.2814968,-4.07215,3.534642,2.4206138,-4.1764483,0.522547
0.566,2.3944385,-4.074244,3.5406895,2.475694,-4.06614,0.5738884
0.568,2.5187688,-4.075456,3.5369215,2.5345974,-3.9507837,0.62944657
0.57,2.6530013,-4.0753856,3.5233154,2.5965781,-3.8323202,0.6884081
0.572,2.795287,-4.0734982,3.500256,2.6608002,-3.7122474,0.74999666
0.574,2.9436913,-4.0692897,3.4681177,2.7264204,-3.591551,0.8135457
0.576,3.0964184,-4.0621843,3.4271092,2.7926013,-3.4709706,0.87854815
0.578,3.2513857,-4.0517664,3.3775597,2.858601,-3.3509836,0.9446825
0.58,3.4067545,-4.0375924,3.3194776,2.9238195,-3.2317488,1.0118285
0.582,3.5614634,-4.019476,3.2521544,2.9877777,-3.113339,1.0799072
0.584,3.714295,-3.997095,3.1749654,3.0501091,-2.995846,1.1488934
0.586,3.8635032,-3.9695601,3.0881784,3.1104298,-2.8796926,1.218746
0.588,4.007124,-3.9363232,2.9929328,3.1682675,-2.7658308,1.289388
0.59,4.143857,-3.896769,2.8897069,3.2232425,-2.6552062,1.3608041
0.592,4.272771,-3.8503888,2.7785418,3.2750814,-2.548763,1.4329009
0.594,4.3932,-3.7969544,2.6594865,3.323418,-2.4480085,1.505337
0.596,4.504426,-3.7362075,2.5331106,3.3677719,-2.3549197,1.5776215
0.598,4.6059,-3.667747,2.4000492,3.4077098,-2.271544,1.6492891
0.6,4.6970496,-3.5911856,2.2599826,3.4428864,-2.1997726,1.7198799
0.602,4.7770357,-3.5058403,2.112351,3.4730089,-2.141336,1.7888494
0.604,4.846148,-3.411693,1.957439,3.497867,-2.097679,1.855608
0.606,4.9045763,-3.3086338,1.7956543,3.5173988,-2.0697773,1.9196022
0.608,4.952561,-3.1963892,1.6275635,3.5317054,-2.0580275,1.9803743
0.61,4.991274,-3.0754774,1.4545672,3.5410821,-2.0621467,2.0375865
0.612,5.01916,-2.9449282,1.2781161,3.5460315,-2.081167,2.0910342
0.614,5.0340767,-2.8040936,1.1011957,3.5472412,-2.1134841,2.140653
0.616,5.0363097,-2.6537547,0.92728657,3.5455046,-2.1570315,2.1865315
0.618,5.026657,-2.4946373,0.75787866,3.5416825,-2.2094352,2.2289193
0.62,5.0062685,-2.327593,0.5930568,3.536623,-2.2682052,2.268213
0.622,4.975597,-2.1537642,0.43345612,3.531137,-2.3308516,2.3049135
0.624,4.9342737,-1.9739255,0.28031412,3.525955,-2.395049,2.3395994
0.626,4.8821154,-1.7887206,0.13491881,3.5216963,-2.4587693,2.3728633
0.628,4.819621,-1.5987334,-0.0020644665,3.5188518,-2.5203543,2.4053018
0.63,4.7472,-1.4047924,-0.1300304,3.5177495,-2.5786037,2.437449
0.632,4.665885,-1.2080803,-0.24857914,3.5185752,-2.6327648,2.4697433
0.634,4.5764165,-1.0098948,-0.35749388,3.5213776,-2.68252,2.5024357
0.636,4.4802523,-0.8116287,-0.45702314,3.5260904,-2.727899,2.5356212
0.638,4.3783407,-0.6144326,-0.5476376,3.5325427,-2.7692108,2.569208
0.64,4.272042,-0.41919935,-0.6299395,3.5404987,-2.8069553,2.6029682
0.642,4.1628613,-0.22704649,-0.7046824,3.5496485,-2.841772,2.6365647
0.644,4.049946,-0.03773451,-0.7731632,3.5596316,-2.874484,2.6696332
0.646,3.9384348,0.14645135,-0.83616495,3.5700376,-2.9060736,2.701775
0.648,3.8246977,0.32614875,-0.8924394,3.580465,-2.9374933,2.7326372
0.65,3.7130232,0.5000054,-0.941154,3.5905864,-2.9695883,2.761927
0.652,3.6025677,0.66844535,-0.98224944,3.6001077,-3.00311,2.789432
0.654,3.4938097,0.8314953,-1.0157202,3.6087437,-3.0388222,2.815021
0.656,3.386908,0.98980933,-1.0424516,3.616215,-3.0775275,2.838627
0.658,3.283013,1.1439586,-1.0639728,3.6222405,-3.1200547,2.8602355
0.66,3.18274,1.2946813,-1.0809401,3.6265655,-3.1671934,2.879818
0.662,3.0855756,1.4428821,-1.0920556,3.6290035,-3.2195885,2.897338
0.664,2.9910512,1.5890887,-1.0955504,3.6294413,-3.277728,2.912746
0.666,2.898551,1.733645,-1.0901592,3.627877,-3.3418486,2.9260087
0.668,2.8071637,1.877275,-1.0750568,3.6244674,-3.4118123,2.937109
0.67,2.7159986,2.0209432,-1.0488554,3.619553,-3.4870133,2.9460857
0.672,2.6237016,2.1657636,-1.010856,3.613654,-3.5663702,2.9530091
0.674,2.5289779,2.312687,-0.96120596,3.6074543,-3.6482983,2.958012
0.676,2.429924,2.4625602,-0.89944696,3.6017082,-3.7307987,2.9613788
0.678,2.3256617,2.6158438,-0.8264049,3.5971875,-3.811784,2.9635139
0.68,2.2152567,2.772932,-0.7434187,3.594697,-3.888802,2.9647706
0.682,2.097446,2.9343863,-0.65123737,3.5948687,-3.959723,2.9654303
0.684,1.9710417,3.1002526,-0.549976,3.598174,-4.0226116,2.9658337
0.686,1.8351328,3.2703748,-0.4397292,3.6049366,-4.0758014,2.9663324
0.688,1.6886926,3.4445674,-0.32142198,3.6153626,-4.11794,2.9672914
0.69,1.5312655,3.6226537,-0.19687474,3.6294973,-4.148217,2.9688852
0.692,1.3629714,3.804288,-0.06847191,3.6472492,-4.166316,2.971036
0.694,1.1841143,3.9890432,0.06099546,3.6683903,-4.1723695,2.973527
0.696,0.99510777,4.1763124,0.18930411,3.6925201,-4.167035,2.976097
0.698,0.79713535,4.3654413,0.31430483,3.7190762,-4.151526,2.9784834
0.7,0.5910667,4.555438,0.4343372,3.7473576,-4.127613,2.9803734
0.702,0.3777416,4.7456408,0.5477226,3.7766385,-4.0976367,2.9812856
0.704,0.15859655,4.935202,0.6530218,3.806188,-4.0643053,2.9806342
0.706,-0.06493357,5.1236033,0.74925643,3.835374,-4.0303893,2.9778037
0.708,-0.29144722,5.3104067,0.83565855,3.8636754,-3.9985368,2.9722774
0.71,-0.5199519,5.495456,0.9122551,3.890664,-3.9712667,2.9636326
0.712,-0.7491294,5.6784024,0.9796318,3.9159403,-3.9508522,2.9514992
0.714,-0.97797614,5.8590484,1.0389863,3.9391766,-3.9391055,2.9356074
0.716,-1.2054086,6.0373373,1.091839,3.9600587,-3.937305,2.9158027
0.718,-1.4304694,6.2131815,1.1401742,3.978306,-3.9461868,2.8920712
0.72,-1.6526018,6.386893,1.1862336,3.9937084,-3.9659722,2.8645055
0.722,-1.871169,6.5585876,1.2329392,4.0061903,-3.9963422,2.833281
0.724,-2.0860329,6.728572,1.2829845,4.0158668,-4.0365014,2.7985916
0.726,-2.2969756,6.897203,1.3390563,4.0230975,-4.08521,2.7606344
0.728,-2.503514,7.0646334,1.4035505,4.0284247,-4.1408963,2.719595
0.73,-2.7050037,7.2309484,1.4787097,4.032538,-4.201746,2.6756036
0.732,-2.9012575,7.396286,1.5664244,4.0361705,-4.2656293,2.6288335
0.734,-3.0919585,7.560557,1.6683865,4.039981,-4.330574,2.5796003
0.736,-3.27679,7.7237062,1.7855729,4.0446343,-4.3943305,2.5282748
0.738,-3.455894,7.8855557,1.9186538,4.050648,-4.4548545,2.4751298
0.74,-3.629135,8.045918,2.0676363,4.05833,-4.5104523,2.4204354
0.742,-3.7963994,8.204531,2.2321918,4.067766,-4.5597825,2.3644762
0.744,-3.9574819,8.36109,2.411541,4.0789127,-4.6018257,2.3075993
0.746,-4.112459,8.515335,2.604589,4.0916533,-4.635971,2.250139
0.748,-4.260843,8.666711,2.8100111,4.1057963,-4.662044,2.1922505
0.75,-4.4024577,8.814692,3.0259423,4.121146,-4.6801624,2.1339076
0.752,-4.5371127,8.958945,3.250569,4.1375084,-4.6906643,2.0749469
0.754,-4.6624346,9.098044,3.4822562,4.1546392,-4.69412,2.0152283
0.756,-4.7818947,9.233151,3.7185967,4.17223,-4.6912284,1.9546889
0.758,-4.8902106,9.362447,3.9560094,4.1899943,-4.682755,1.8932946
0.76,-4.9906425,9.486468,4.1917768,4.2076554,-4.6695285,1.8309709
0.762,-5.0809193,9.604155,4.424467,4.2249746,-4.6523204,1.7676196
0.764,-5.1606336,9.714985,4.652868,4.241811,-4.63171,1.7031759
0.766,-5.229687,9.818352,4.876744,4.2581053,-4.608124,1.6376892
0.768,-5.28883,9.913946,5.096224,4.273841,-4.5819516,1.5712571
0.77,-5.338158,10.001604,5.3103623,4.2890377,-4.5534887,1.5039893
0.772,-5.37726,10.081198,5.516775,4.303739,-4.5229115,1.435995
0.774,-5.4057837,10.152921,5.7135296,4.3179746,-4.4902887,1.3674155
0.776,-5.4238005,10.217076,5.8999243,4.3317375,-4.455633,1.2984056
0.778,-5.4317374,10.273673,6.0760794,4.344992,-4.418893,1.2291852
0.78,-5.430116,10.322443,6.241734,4.357684,-4.379959,1.1599735
0.782,-5.419117,10.363215,6.3972244,4.369789,-4.3387566,1.0909832
0.784,-5.3994555,10.396059,6.5434995,4.3812776,-4.295215,1.0223713
0.786,-5.3715677,10.421203,6.6808095,4.392114,-4.2493057,0.9542352
0.788,-5.3370667,10.439261,6.8104157,4.4022684,-4.2010574,0.8866352
0.79,-5.297277,10.450837,6.933058,4.4116592,-4.150576,0.8196212
0.792,-5.2532477,10.456185,7.0484314,4.420199,-4.098057,0.753241
0.794,-5.205979,10.4561405,7.155917,4.427809,-4.043745,0.6875605
0.796,-5.1568637,10.451439,7.2551856,4.434429,-3.9879613,0.6226173
0.798,-5.106765,10.442774,7.346843,4.4400363,-3.9310403,0.55846715
0.8,-5.057004,10.430637,7.4318137,4.4446254,-3.8733299,0.4951371
0.802,-5.00886,10.41565,7.511082,4.448236,-3.8151622,0.43264663
0.804,-4.963426,10.398448,7.5857663,4.4509196,-3.7568748,0.3709854
0.806,-4.9214916,10.379642,7.656101,4.4527063,-3.6987994,0.31012875
0.808,-4.883973,10.35993,7.7220616,4.4536195,-3.6412494,0.250031
0.81,-4.8515296,10.340145,7.7835865,4.4536457,-3.5845234,0.19059905
0.812,-4.8246818,10.320949,7.8410993,4.452757,-3.5289397,0.13169183
0.814,-4.8039594,10.302913,7.8949957,4.4508815,-3.4748015,0.07316004
0.816,-4.7895074,10.286488,7.9457994,4.4479303,-3.422433,0.014843859
0.818,-4.781193,10.271842,7.9941225,4.443779,-3.3722026,-0.04341021
0.82,-4.7785583,10.259199,8.040349,4.43828,-3.3244905,-0.101773694
0.822,-4.781153,10.248824,8.084631,4.431257,-3.2797267,-0.16042006
0.824,-4.7881455,10.240911,8.127097,4.422524,-3.2383723,-0.21950436
0.826,-4.7990003,10.235636,8.168085,4.4118805,-3.2008944,-0.27917504
0.828,-4.812839,10.233166,8.207874,4.3991275,-3.1677825,-0.33958736
0.83,-4.8289175,10.233537,8.246937,4.384097,-3.1395125,-0.40084547
0.832,-4.846407,10.236781,8.285387,4.3666463,-3.1165261,-0.46307534
0.834,-4.8645735,10.243006,8.32386,4.3466816,-3.099151,-0.5263794
0.836,-4.882572,10.252123,8.362939,4.3241997,-3.0875542,-0.59084386
0.838,-4.89969,10.264181,8.403238,4.299285,-3.0817678,-0.65651834
0.84,-4.915091,10.2791,8.445296,4.2720957,-3.0816445,-0.7234298
0.842,-4.9279127,10.296523,8.489709,4.242856,-3.0868623,-0.79158825
0.844,-4.937047,10.316197,8.53679,4.2118516,-3.0969086,-0.86099166
0.846,-4.941722,10.33779,8.586853,4.1794004,-3.1111126,-0.93162537
0.848,-4.9411445,10.361061,8.640289,4.145815,-3.1286924,-1.0034648
0.85,-4.9344935,10.385531,8.697489,4.111392,-3.1488008,-1.0764762
0.852,-4.9213853,10.410866,8.758855,4.076397,-3.1705847,-1.1506267
0.854,-4.9013753,10.436692,8.824831,4.041037,-3.193226,-1.2258584
0.856,-4.8743606,10.462565,8.895943,4.0054426,-3.215996,-1.3021106
0.858,-4.8402567,10.488158,8.972513,3.969683,-3.2382655,-1.3793159
0.86,-4.799115,10.513041,9.054817,3.93376,-3.2595253,-1.4574188
0.862,-4.7510586,10.536882,9.142989,3.8976166,-3.2793987,-1.5363742
0.864,-4.6964703,10.559425,9.23729,3.8611457,-3.2976422,-1.616147
0.866,-4.635865,10.58038,9.338145,3.8241887,-3.3141308,-1.6967138
0.868,-4.5701275,10.59959,9.445997,3.7865672,-3.3288414,-1.7780769
0.87,-4.499935,10.617083,9.561376,3.7481046,-3.341811,-1.8602461
0.872,-4.4266577,10.632891,9.68473,3.7086277,-3.3530364,-1.9432007
0.874,-4.3512816,10.647087,9.8165,3.6680093,-3.3624706,-2.026875
0.876,-4.2751226,10.65999,9.956846,3.626166,-3.3699617,-2.1111422
0.878,-4.199444,10.671869,10.106208,3.5830998,-3.3752224,-2.1957989
0.88,-4.1257753,10.683016,10.264435,3.5389128,-3.377771,-2.280583
0.882,-4.0554414,10.693865,10.431536,3.4937932,-3.3769271,-2.3651476
0.884,-3.9899254,10.70492,10.6073475,3.4480166,-3.3718455,-2.44911
0.886,-3.9305987,10.71677,10.791588,3.4019375,-3.3615613,-2.5320323
0.888,-3.8787618,10.729864,10.984079,3.3559399,-3.345088,-2.613469
0.89,-3.8356133,10.744818,11.184069,3.3103795,-3.3214922,-2.6929872
0.892,-3.8021846,10.762171,11.390768,3.265585,-3.2899997,-2.7702148
0.894,-3.7791991,10.782534,11.603194,3.221801,-3.2500715,-2.8448725
0.896,-3.767467,10.806535,11.820081,3.1791441,-3.2014728,-2.9167867
0.898,-3.7674365,10.834531,12.040224,3.1376045,-3.1443415,-2.98594
0.9,-3.7794318,10.867034,12.262288,3.0970187,-3.079166,-3.052487
0.902,-3.8031836,10.904187,12.484729,3.0570984,-3.0067854,-3.1167214
0.904,-3.8383818,10.946169,12.706169,3.0174484,-2.9283228,-3.179065
0.906,-3.8845005,10.992906,12.925022,2.97761,-2.8451362,-3.240056
0.908,-3.9407759,11.0442095,13.139952,2.9370995,-2.7587132,-3.3003097
0.91,-4.006317,11.099936,13.349686,2.8954587,-2.6705575,-3.360475
0.912,-4.080098,11.159572,13.553074,2.8522797,-2.582107,-3.4211733
0.914,-4.160853,11.222535,13.749029,2.8072376,-2.4946604,-3.4829407
0.916,-4.2474537,11.288197,13.936831,2.760128,-2.4092617,-3.5462084
0.918,-4.3385386,11.355669,14.115879,2.7108564,-2.326665,-3.6112838
0.92,-4.432574,11.423943,14.285729,2.6594315,-2.247287,-3.67833
0.922,-4.5282116,11.492094,14.44602,2.6059651,-2.1712296,-3.747375
0.924,-4.623883,11.55891,14.596245,2.5506384,-2.0983095,-3.8183007
0.926,-4.718333,11.623247,14.736128,2.4937127,-2.0281086,-3.8909209
0.928,-4.8105364,11.684185,14.86542,2.4354935,-1.9600066,-3.9649892
0.93,-4.8994484,11.7407,14.9840355,2.3763266,-1.8932298,-4.040235
0.932,-4.9842396,11.791758,15.092107,2.3165545,-1.8269552,-4.1163692
0.934,-5.064276,11.836403,15.189613,2.2564955,-1.7603779,-4.1931043
0.936,-5.138957,11.873706,15.276618,2.1964567,-1.6927395,-4.270171
0.938,-5.207767,11.902863,15.353013,2.1366887,-1.6233722,-4.347319
0.94,-5.270401,11.923164,15.418594,2.0774186,-1.5517161,-4.4243035
0.942,-5.326702,11.93402,15.473133,2.018825,-1.47733,-4.5009084
0.944,-5.376235,11.934858,15.516043,1.9610522,-1.3999271,-4.576948
0.946,-5.4191604,11.925351,15.5469055,1.9042109,-1.3193458,-4.652252
0.948,-5.4556193,11.905297,15.565247,1.8484066,-1.2355653,-4.7266803
0.95,-5.485788,11.874481,15.570585,1.7937325,-1.1486913,-4.800144
0.952,-5.5100293,11.833006,15.562476,1.7402809,-1.0589169,-4.8726034
0.954,-5.5288873,11.780824,15.540494,1.6881485,-0.9665184,-4.9440575
0.956,-5.542914,11.718214,15.504346,1.6374187,-0.8718251,-5.014565
0.958,-5.552614,11.645369,15.453747,1.5881624,-0.77522767,-5.084213
0.96,-5.5587225,11.562855,15.388411,1.5404274,-0.67710185,-5.1531
0.962,-5.561907,11.471026,15.307962,1.4942415,-0.57786274,-5.2213473
0.964,-5.5625005,11.370276,15.21206,1.4495875,-0.4779457,-5.2890415
0.966,-5.5608034,11.261177,15.100445,1.4064124,-0.37779427,-5.356242
0.968,-5.5573235,11.144188,14.973262,1.3646257,-0.27785468,-5.422963
0.97,-5.552293,11.019815,14.83052,1.3241099,-0.1785984,-5.48917
0.972,-5.546117,10.888464,14.672357,1.2847208,-0.080533266,-5.5547967
0.974,-5.538973,10.750624,14.498893,1.2463052,0.015767097,-5.6197486
0.976,-5.5310755,10.606825,14.310389,1.2087102,0.10972381,-5.6839447
0.978,-5.522772,10.457518,14.10705,1.1718063,0.20079398,-5.747319
0.98,-5.5141907,10.302973,13.8893795,1.1354954,0.28846192,-5.8098316
0.982,-5.505055,10.14355,13.658081,1.0995203,0.3716278,-5.8718405
0.984,-5.495432,9.979587,13.414148,1.0641251,0.4507153,-5.932854
0.986,-5.485195,9.811179,13.158599,1.0292262,0.5249765,-5.993211
0.988,-5.4739833,9.638484,12.892363,0.99491465,0.5941081,-6.0530596
0.99,-5.4611845,9.461643,12.616608,0.96135247,0.6578996,-6.1126184
0.992,-5.4461126,9.280719,12.332521,0.92875457,0.7162266,-6.1721115
0.994,-5.4282036,9.09571,12.041405,0.8973717,0.76903224,-6.2317686
0.996,-5.4067836,8.906649,11.744632,0.8674896,0.81630754,-6.291782
0.998,-5.3808284,8.713551,11.443216,0.8394011,0.85810494,-6.352269
1,-5.3495502,8.516474,11.13838,0.8133839,0.8945432,-6.4132957
1.002,-5.312023,8.315442,10.831134,0.78966105,0.92573667,-6.474815
1.004,-5.2672453,8.110505,10.522424,0.76841223,0.95180655,-6.536725
1.006,-5.214231,7.9017334,10.213287,0.7497426,0.9728248,-6.59886
1.008,-5.15203,7.6894765,9.904535,0.7336543,0.9888184,-6.6610584
1.01,-5.0799093,7.473851,9.5972595,0.72008014,0.99971867,-6.7231727
1.012,-4.9973316,7.25542,9.292484,0.7088693,1.0053353,-6.7851143
1.014,-4.9037585,7.0345316,8.990591,0.6998167,1.0053713,-6.846884
1.016,-4.798692,6.81188,8.692258,0.69267285,0.9995141,-6.9085264
1.018,-4.6818976,6.5882196,8.397754,0.6872071,0.9874244,-6.97019
1.02,-4.5530257,6.364109,8.107419,0.6831924,0.9687941,-7.0320454
1.022,-4.411984,6.1403875,7.8214536,0.6804201,0.94339037,-7.094282
1.024,-4.259104,5.918023,7.539956,0.67871284,0.9110925,-7.157074
1.026,-4.0944853,5.6979976,7.262869,0.6779449,0.8719473,-7.2205377
1.028,-3.918578,5.4815187,6.9902515,0.6780385,0.8262291,-7.284737
1.03,-3.731784,5.2695894,6.7220044,0.6789522,0.7743361,-7.3496485
1.032,-3.5344179,5.063203,6.458211,0.680701,0.71680117,-7.4152126
1.034,-3.3270571,4.8634486,6.19927,0.6833452,0.6542616,-7.4813266
1.036,-3.1101751,4.6710687,5.9455633,0.6870898,0.58778596,-7.5476623
1.038,-2.8841968,4.4868164,5.6973925,0.69175726,0.5171685,-7.614663
1.04,-2.649801,4.3113627,5.4548597,0.6975984,0.44358587,-7.681876
1.042,-2.40741,4.1453705,5.218248,0.7046169,0.3674426,-7.749238
1.044,-2.1575918,3.9894812,4.9881067,0.71274316,0.28895903,-7.816721
1.046,-1.9007366,3.8440824,4.764901,0.72183895,0.20817256,-7.8843327
1.048,-1.6372399,3.7094107,4.5494423,0.7316921,0.124928236,-7.9521284
1.05,-1.3674603,3.5854933,4.342412,0.7420468,0.03890276,-8.020205
1.052,-1.091924,3.472279,4.144688,0.75259507,-0.050320625,-8.088699
1.054,-0.81119585,3.3696594,3.957234,0.7630122,-0.14321256,-8.157731
1.056,-0.52557594,3.2772775,3.7809312,0.7729963,-0.24022603,-8.227457
1.058,-0.23551512,3.1946034,3.6167135,0.78229,-0.34174395,-8.29798
1.06,0.058688164,3.1211436,3.4656205,0.79066396,-0.44805574,-8.369388
1.062,0.3566314,3.0562189,3.3288064,0.7979256,-0.55934143,-8.441686
1.064,0.6577457,2.9992454,3.2073975,0.8038975,-0.6756444,-8.514839
1.066,0.9617764,2.9493535,3.102488,0.80841756,-0.7968991,-8.58874
1.068,1.2681097,2.9057415,3.0151398,0.81130874,-0.9229729,-8.663215
1.07,1.5762367,2.86733,2.9463878,0.8124043,-1.0537012,-8.738066
1.072,1.8857732,2.8332934,2.8972223,0.811527,-1.1889262,-8.813072
1.074,2.1956246,2.8029299,2.8684063,0.8085172,-1.3284864,-8.888039
1.076,2.5048614,2.7757516,2.860508,0.80324566,-1.4722426,-8.962791
1.078,2.812836,2.751294,2.873858,0.79563856,-1.62006,-9.037186
1.08,3.1186223,2.7292404,2.9090662,0.7856538,-1.7718132,-9.111087
1.082,3.4214883,2.709631,2.9663544,0.7732836,-1.927423,-9.184396
1.084,3.7208471,2.6924353,3.0458388,0.7585194,-2.086814,-9.257
1.086,4.0162153,2.6776009,3.147725,0.7413595,-2.2499447,-9.328741
1.088,4.307169,2.6656096,3.2720125,0.7217479,-2.416809,-9.399453
1.09,4.5928373,2.6569843,3.418633,0.69957256,-2.58746,-9.468918
1.092,4.87281,2.6523247,3.5871487,0.67465305,-2.7620537,-9.536909
1.094,5.1466937,2.6525168,3.7770615,0.6467254,-2.9408493,-9.603222
1.096,5.4144907,2.658538,3.9878187,0.6154809,-3.1242552,-9.6677
1.098,5.6760373,2.6715467,4.218927,0.58054423,-3.3128011,-9.730274
1.1,5.9314632,2.6927488,4.469636,0.54152703,-3.507061,-9.790972
1.102,6.181104,2.7233818,4.7392716,0.49805546,-3.7075806,-9.849917
1.104,6.4256244,2.7647324,5.027033,0.44980216,-3.914842,-9.907354
1.106,6.665726,2.817789,5.3321457,0.39653182,-4.129231,-9.963608
1.108,6.902335,2.8837624,5.6538815,0.33806324,-4.3509684,-10.019101
1.11,7.136546,2.963642,5.991403,0.2742877,-4.5800705,-10.074261
1.112,7.36967,3.05824,6.3438387,0.20514727,-4.8163314,-10.129496
1.114,7.602896,3.1684513,6.709975,0.13063097,-5.059358,-10.185167
1.116,7.8379784,3.2948058,7.088681,0.050759315,-5.308583,-10.24155
1.118,8.076545,3.437799,7.4786577,-0.034456253,-5.5632925,-10.298773
1.12,8.320643,3.597635,7.8787346,-0.12500525,-5.82273,-10.356858
1.122,8.572195,3.7741432,8.287767,-0.22088718,-6.086106,-10.415749
1.124,8.8329735,3.9671903,8.704615,-0.32209396,-6.352607,-10.47531
1.126,9.105013,4.1763,9.128172,-0.42860508,-6.621458,-10.535314
1.128,9.390198,4.4007583,9.557443,-0.54036,-6.8919353,-10.595526
1.13,9.6905155,4.6395116,9.991683,-0.6572571,-7.163354,-10.6557
1.132,10.007748,4.8913097,10.430176,-0.7791281,-7.435043,-10.715605
1.134,10.343628,5.1547084,10.872198,-0.9057088,-7.7063265,-10.775043
1.136,10.699707,5.4281206,11.3171015,-1.036665,-7.9764633,-10.833807
1.138,11.077552,5.709554,11.764294,-1.1715789,-8.244641,-10.891693
1.14,11.478039,5.9971504,12.213301,-1.3099904,-8.509998,-10.948526
1.142,11.90181,6.2889147,12.663603,-1.4513607,-8.7715645,-11.004073
1.144,12.349573,6.5827684,13.114584,-1.5950475,-9.028271,-11.058083
1.146,12.821658,6.876734,13.565585,-1.7403688,-9.278961,-11.1102295
1.148,13.318411,7.1686373,14.016233,-1.8866158,-9.522461,-11.1601095
1.15,13.839898,7.4562807,14.466315,-2.0330863,-9.757646,-11.207314
1.152,14.385828,7.73744,14.91592,-2.1791039,-9.983458,-11.251373
1.154,14.955743,8.009673,15.364901,-2.3240557,-10.198995,-11.291818
1.156,15.54889,8.2709465,15.813137,-2.4674487,-10.40357,-11.328218
1.158,16.164074,8.519003,16.260254,-2.608934,-10.596737,-11.360206
1.16,16.799965,8.752115,16.705898,-2.7482958,-10.7782755,-11.387458
1.162,17.455029,8.968551,17.14975,-2.8854518,-10.948181,-11.409711
1.164,18.127396,9.166883,17.591183,-3.0203624,-11.106584,-11.4267845
1.166,18.815166,9.345975,18.029655,-3.1530104,-11.2537565,-11.438571
1.168,19.516264,9.504699,18.46463,-3.28334,-11.390045,-11.44503
1.17,20.228447,9.642048,18.895613,-3.4112382,-11.515827,-11.446136
1.172,20.949587,9.757381,19.32188,-3.5364656,-11.631415,-11.441893
1.174,21.677395,9.850231,19.742842,-3.6586618,-11.73703,-11.432278
1.176,22.40953,9.920327,20.157846,-3.7773652,-11.832764,-11.417206
1.178,23.14384,9.967687,20.566216,-3.8920243,-11.918617,-11.396572
1.18,23.878292,9.992576,20.96745,-4.0020084,-11.994432,-11.370248
1.182,24.610868,9.995385,21.361168,-4.1066427,-12.059955,-11.338079
1.184,25.339897,9.976471,21.746914,-4.205243,-12.114797,-11.299866
1.186,26.063694,9.936334,22.124231,-4.297117,-12.158532,-11.255461
1.188,26.780933,9.875754,22.492495,-4.381607,-12.1907215,-11.204712
1.19,27.490435,9.79577,22.85068,-4.4580665,-12.210964,-11.147522
1.192,28.191488,9.697085,23.198076,-4.5258784,-12.218952,-11.083852
1.194,28.883411,9.580965,23.53386,-4.584448,-12.214517,-11.013679
1.196,29.566166,9.448733,23.857098,-4.633264,-12.19771,-10.937074
1.198,30.239952,9.301379,24.16727,-4.6719165,-12.168827,-10.854149
1.2,30.905767,9.139697,24.463898,-4.7000675,-12.1283865,-10.765075
1.202,31.564121,8.96452,24.74683,-4.7174883,-12.0771265,-10.6700325
1.204,32.216312,8.776237,25.015831,-4.724056,-12.01599,-10.569182
1.206,32.863346,8.575425,25.270868,-4.719758,-11.946157,-10.4626875
1.208,33.50646,8.362505,25.511868,-4.704669,-11.868968,-10.350723
1.21,34.146343,8.137997,25.739073,-4.678947,-11.785876,-10.2333975
1.212,34.78413,7.9024706,25.95226,-4.642755,-11.698379,-10.110814
1.214,35.421288,7.6565046,26.15125,-4.596263,-11.607919,-9.983024
1.216,36.05934,7.4004946,26.335907,-4.5395765,-11.515852,-9.850075
1.218,36.699436,7.1345987,26.506437,-4.4727635,-11.423346,-9.711969
1.22,37.343147,6.858939,26.6636,-4.3957872,-11.331261,-9.568689
1.222,37.992004,6.573307,26.80803,-4.3085103,-11.24015,-9.420145
1.224,38.64795,6.277162,26.940643,-4.210703,-11.150215,-9.266281
1.226,39.31176,5.9702635,27.06272,-4.102087,-11.061348,-9.107019
1.228,39.98512,5.6518545,27.175034,-3.9823418,-10.973157,-8.942287
1.23,40.668865,5.321492,27.278805,-3.8511217,-10.885078,-8.7720375
1.232,41.364418,4.978542,27.374866,-3.7081358,-10.796489,-8.596224
1.234,42.07374,4.622156,27.463707,-3.5531428,-10.706835,-8.414822
1.236,42.798656,4.2513885,27.545403,-3.3859606,-10.615699,-8.227806
1.238,43.540997,3.8658686,27.61977,-3.2064962,-10.522904,-8.035189
1.24,44.30336,3.4648798,27.686157,-3.0147371,-10.42854,-7.8369446
1.242,45.088448,3.0474665,27.744211,-2.8107126,-10.332834,-7.633021
1.244,45.89907,2.6128876,27.794,-2.5945191,-10.236169,-7.4233828
1.246,46.738018,2.1606076,27.835667,-2.3663092,-10.13904,-7.2078996
1.248,47.60811,1.6903746,27.869244,-2.1262774,-10.04198,-6.986415
1.25,48.51261,1.2024674,27.894585,-1.874678,-9.945505,-6.758656
1.252,49.45535,0.6971917,27.91133,-1.6118172,-9.850092,-6.5242496
1.254,50.439766,0.17548752,27.919218,-1.3381069,-9.756231,-6.282706
1.256,51.46943,-0.36135674,27.917656,-1.0540779,-9.66448,-6.033459
1.258,52.54765,-0.91110754,27.90584,-0.7604294,-9.57556,-5.7759285
1.26,53.677498,-1.4701536,27.882835,-0.45801163,-9.490447,-5.5095515
1.262,54.862137,-2.0339527,27.848217,-0.14782691,-9.410423,-5.233862
1.264,56.104267,-2.5966637,27.802372,0.16904664,-9.337013,-4.9485083
1.266,57.406086,-3.1515183,27.746037,0.49156666,-9.27195,-4.6532955
1.268,58.7698,-3.6905913,27.681036,0.8188597,-9.216963,-4.348197
1.27,60.195236,-4.20416,27.609907,1.1502389,-9.173791,-4.033259
1.272,61.68321,-4.68299,27.535067,1.4852,-9.144187,-3.7084308
1.274,63.236965,-5.118903,27.460129,1.8234411,-9.129769,-3.3734527
1.276,64.8544,-5.5013847,27.389318,2.1648233,-9.131921,-3.02774
1.278,66.537155,-5.8198624,27.327993,2.509321,-9.151823,-2.670291
1.28,68.27983,-6.058688,27.282486,2.8569448,-9.190448,-2.299615
1.282,70.08116,-6.2010927,27.265118,3.2076588,-9.24863,-1.9137799
1.284,71.92798,-6.21971,27.272133,3.5613713,-9.327019,-1.5105033
1.286,73.82533,-6.098282,27.309822,3.9179134,-9.426084,-1.0872904
1.288,75.77812,-5.8247285,27.392323,4.2769327,-9.546205,-0.6415367
1.29,77.77925,-5.3788166,27.528465,4.6377964,-9.687759,-0.17079616
1.292,79.820564,-4.734333,27.721462,4.999531,-9.851101,0.32708812
1.294,81.90066,-3.8652782,27.975101,5.360753,-10.03653,0.8537363
1.296,84.024475,-2.7506154,28.296164,5.719693,-10.244339,1.4101665
1.298,86.18744,-1.3627002,28.691544,6.074205,-10.474804,1.996596
1.3,88.38929,0.3254006,29.170876,6.4219227,-10.728125,2.6122253
1.302,90.63492,2.3505213,29.742903,6.760539,-11.004197,3.2554064
1.304,92.91765,4.7255526,30.399021,7.087925,-11.302688,3.923733
1.306,95.24306,7.449032,31.148464,7.402456,-11.6230135,4.614032
1.308,97.59311,10.556007,31.977882,7.703438,-11.963947,5.3227987
1.31,99.934814,14.079619,32.882225,7.991066,-12.323635,6.04613
1.312,102.22515,18.041698,33.87672,8.266779,-12.699026,6.7798367
1.314,104.47826,22.421915,35.014114,8.534386,-13.084475,7.5198946
1.316,106.63045,27.20715,36.36835,8.798649,-13.47356,8.263115
1.318,108.58294,32.3924,38.01193,9.064954,-13.859034,9.008401
1.32,110.52977,37.9645,39.882603,9.339926,-14.230831,9.757199
1.322,112.614624,43.881752,41.98169,9.631159,-14.575163,10.513734
1.324,114.81273,50.128487,44.340286,9.946088,-14.875877,11.285247
1.326,117.024994,56.682007,46.982395,10.291021,-15.115743,12.082427
1.328,119.187096,63.501938,49.937782,10.671112,-15.27619,12.918791
1.33,121.28553,70.53247,53.224625,11.089795,-15.33739,13.80928
1.332,123.31418,77.729225,56.846962,11.548126,-15.278821,14.7695
1.334,125.27123,85.04449,60.88288,12.043804,-15.081241,15.813852
1.336,127.16059,92.42341,65.33979,12.570984,-14.727386,16.955217
1.338,128.97766,99.758995,70.08495,13.121647,-14.200616,18.203365
1.34,130.72272,106.92674,75.2059,13.686331,-13.484951,19.561993
1.342,132.4316,113.88974,80.727715,14.253131,-12.565105,21.029219
1.344,133.804,120.825485,86.63383,14.807909,-11.428297,22.601711
1.346,135.28183,127.32567,92.94367,15.335673,-10.062513,24.273457
1.348,136.87253,133.07796,99.6981,15.829861,-8.4509115,26.032198
1.35,138.51654,138.13548,106.708145,16.289278,-6.5879345,27.845383
1.352,140.14197,142.47073,113.90256,16.710917,-4.465042,29.674736
1.354,141.88516,145.95029,121.18815,17.094772,-2.068695,31.485748
1.356,143.80061,148.5236,128.44643,17.443003,0.6134033,33.24293
1.358,145.92381,150.19807,135.5337,17.765955,3.590642,34.906456
1.36,148.28604,150.98209,142.31728,18.075861,6.862463,36.44073
1.362,150.92917,150.8972,148.64049,18.38208,10.411218,37.820786
1.364,153.8784,149.98325,154.33589,18.694878,14.211117,39.010258
1.366,157.13936,148.2989,159.23134,19.02133,18.232792,39.951298
1.368,160.69574,145.91718,163.14796,19.345896,22.429579,40.595757
1.37,164.51282,142.90762,165.92569,19.623327,26.69041,40.938793
1.372,168.53044,139.3556,167.42667,19.828564,30.89177,40.97382
1.374,172.66518,135.37347,167.54205,19.995426,34.958916,40.65635
1.376,176.82355,131.08194,166.1875,20.118132,38.78769,39.951878
1.378,180.88791,126.61011,163.31558,20.130013,42.236908,38.877205
1.38,184.74109,122.07558,158.9215,20.003075,45.211067,37.431297
1.382,188.25612,117.58834,153.04178,19.735378,47.640083,35.620293
1.384,191.30273,113.24784,145.75319,19.321259,49.461636,33.450115
1.386,193.76038,109.13414,137.17467,18.759922,50.63485,30.916508
1.388,195.51305,105.31202,127.460396,18.06657,51.141006,28.00632
1.39,196.46895,101.82364,116.794556,17.267506,50.985107,24.70346
1.392,196.5509,98.69325,105.3862,16.387608,50.1929,21.001987
1.394,195.71428,95.921234,93.4798,15.445108,48.80482,16.923658
1.396,193.9227,93.50484,81.31937,14.448469,46.874947,12.528557
1.398,191.17044,91.428085,69.14665,13.393896,44.468704,7.918153
1.4,187.48776,89.65598,57.20464,12.263053,41.65496,3.2359877
1.402,182.92891,88.14183,45.727985,11.019708,38.49937,-1.3392048
1.404,177.56607,86.8401,34.92797,9.624547,35.0765,-5.6081314
1.406,171.49005,85.71283,24.985928,8.0497,31.452702,-9.396425
1.408,164.82033,84.71848,16.054344,6.278927,27.688293,-12.581713
1.41,157.68489,83.82088,8.250751,4.3131742,23.844246,-15.100318
1.412,150.21466,82.981575,1.6583982,2.1694546,19.982815,-16.95093
1.414,142.55405,82.190254,-3.66261,-0.11314535,16.169104,-18.196795
1.416,134.83322,81.44585,-7.7090197,-2.4778051,12.468631,-18.94956
1.418,127.19634,80.71373,-10.491831,-4.8623323,8.935234,-19.327795
1.42,119.77994,79.97246,-12.065979,-7.2022552,5.6108484,-19.438322
1.422,112.7028,79.21704,-12.530125,-9.426735,2.538937,-19.387154
1.424,106.01019,78.47706,-12.025864,-11.468929,-0.21133995,-19.273323
1.426,99.80275,77.76059,-10.707451,-13.307873,-2.6082716,-19.130762
1.428,94.16842,77.06084,-8.715345,-14.964357,-4.677061,-18.927586
1.43,88.92482,76.374626,-6.0775585,-16.402401,-6.403261,-18.638905
1.432,84.011536,75.715515,-2.9165077,-17.558918,-7.7530212,-18.273098
1.434,79.535355,75.061844,0.617157,-18.439898,-8.74447,-17.811432
1.436,75.61581,74.39834,4.3901443,-19.069427,-9.399819,-17.257843
1.438,72.27969,73.72212,8.275139,-19.4571,-9.730571,-16.634647
1.44,69.47978,73.034935,12.1668625,-19.615784,-9.757578,-15.975131
1.442,67.15949,72.319725,15.981037,-19.571552,-9.511097,-15.320992
1.444,65.26041,71.56086,19.582031,-19.35646,-9.033306,-14.716636
1.446,63.725418,70.74839,22.92658,-19.001934,-8.375693,-14.202926
1.448,62.50952,69.911896,26.08033,-18.540981,-7.593349,-13.812051
1.45,61.569145,69.07499,28.888464,-18.00925,-6.74457,-13.561418
1.452,60.838196,68.176735,31.299953,-17.444624,-5.8873615,-13.450137
1.454,60.52562,67.02033,33.31453,-16.884031,-5.0743074,-13.459854
1.456,60.15119,65.966736,34.903755,-16.3603,-4.350319,-13.560189
1.458,59.782745,65.14386,36.041378,-15.901906,-3.752427,-13.712974
1.46,59.51763,64.32551,36.901093,-15.532276,-3.3087292,-13.876714
1.462,59.41659,63.445396,37.492943,-15.268073,-3.0367537,-14.01238
1.464,59.34008,62.559673,37.84185,-15.117804,-2.9431772,-14.089118
1.466,59.264534,61.64785,37.98595,-15.08278,-3.026146,-14.087334
1.468,59.185078,60.669376,37.97298,-15.158035,-3.2759705,-13.998999
1.47,59.09281,59.621777,37.82847,-15.332878,-3.6763716,-13.826164
1.472,58.96254,58.519714,37.59619,-15.592573,-4.2069473,-13.578059
1.474,58.780315,57.38423,37.321346,-15.920263,-4.845151,-13.267724
1.476,58.53981,56.238083,37.04715,-16.298197,-5.5676074,-12.908706
1.478,58.239815,55.106808,36.81926,-16.708939,-6.3513956,-12.5123005
1.48,57.878338,54.027523,36.665497,-17.135984,-7.1750507,-12.086353
1.482,57.45758,53.023888,36.602966,-17.56343,-8.018368,-11.635188
1.484,56.982155,52.097023,36.640114,-17.97599,-8.862253,-11.160216
1.486,56.448395,51.246468,36.78736,-18.35948,-9.688719,-10.660836
1.488,55.861847,50.467392,37.04725,-18.701233,-10.480715,-10.134581
1.49,55.21859,49.76451,37.414795,-18.990206,-11.2217865,-9.577795
1.492,54.51935,49.14265,37.882626,-19.216875,-11.896218,-8.986721
1.494,53.766937,48.605896,38.441547,-19.373125,-12.489637,-8.358723
1.496,52.965508,48.159668,39.077354,-19.452229,-12.989494,-7.6929674
1.498,52.121216,47.80708,39.77643,-19.448957,-13.385393,-6.990924
1.5,51.238167,47.551014,40.524925,-19.359806,-13.669543,-6.256196
1.502,50.321686,47.393883,41.30522,-19.183144,-13.8370495,-5.4941587
1.504,49.377617,47.33676,42.097855,-18.919289,-13.885997,-4.7115326
1.506,48.411602,47.380394,42.88323,-18.570648,-13.817487,-3.9159431
1.508,47.43032,47.524868,43.64273,-18.14168,-13.635305,-3.1152945
1.51,46.442795,47.767273,44.359596,-17.63883,-13.3454895,-2.317296
1.512,45.456924,48.10208,45.01812,-17.070234,-12.955777,-1.5290432
1.514,44.47734,48.519325,45.604523,-16.445335,-12.475021,-0.7568588
1.516,43.506695,49.005066,46.10643,-15.774403,-11.912705,-0.0059399605
1.518,42.546402,49.544804,46.512028,-15.067948,-11.278539,0.7197609
1.52,41.5977,50.124966,46.81146,-14.336289,-10.582099,1.4175806
1.522,40.66349,50.732773,46.997936,-13.5890255,-9.832593,2.0860872
1.524,39.746613,51.356533,47.068245,-12.834673,-9.038672,2.724978
1.526,38.849552,51.986042,47.022137,-12.080608,-8.208395,3.3348122
1.528,37.974503,52.612465,46.861492,-11.333101,-7.3492923,3.9166565
1.53,37.123436,53.22884,46.589497,-10.597516,-6.46845,4.4717236
1.532,36.297676,53.830143,46.210598,-9.878628,-5.572645,5.001085
1.534,35.49836,54.412506,45.73034,-9.180718,-4.6682854,5.5055194
1.536,34.726505,54.97299,45.155167,-8.507805,-3.761653,5.9854746
1.538,33.981934,55.510338,44.49166,-7.8637657,-2.8589654,6.4410834
1.54,33.26365,56.023876,43.74626,-7.2523427,-1.9662815,6.8721294
1.542,32.570286,56.51356,42.924896,-6.6771226,-1.0895201,7.278101
1.544,31.899927,56.97992,42.033558,-6.1414566,-0.23437423,7.658387
1.546,31.250397,57.42352,41.078064,-5.6483293,0.5936871,8.012393
1.548,30.619123,57.844864,40.064056,-5.200302,1.3894738,8.339591
1.55,30.003075,58.24472,38.997528,-4.7993717,2.1482759,8.63953
1.552,29.399137,58.62415,37.884598,-4.4468923,2.8659565,8.911867
1.554,28.80434,58.984562,36.731415,-4.1435466,3.5390444,9.156349
1.556,28.216291,59.327267,35.54379,-3.889337,4.164879,9.372755
1.558,27.633232,59.653515,34.327484,-3.6835217,4.7417054,9.560932
1.56,27.05301,59.964714,33.087185,-3.5246577,5.268713,9.720818
1.562,26.474392,60.26127,31.826576,-3.410626,5.7460175,9.852402
1.564,25.89687,60.542973,30.549349,-3.3386614,6.1746492,9.955797
1.566,25.320038,60.809425,29.258562,-3.3053727,6.5565243,10.031273
1.568,24.74446,61.05932,27.956211,-3.3068233,6.8943434,10.079195
1.57,24.171213,61.29085,26.643414,-3.338623,7.1914625,10.099974
1.572,23.602127,61.50182,25.32008,-3.3960125,7.4518404,10.094197
1.574,23.039412,61.689377,23.98492,-3.4739275,7.6798882,10.062672
1.576,22.486189,61.85035,22.635925,-3.5671268,7.8802695,10.00641
1.578,21.946115,61.980938,21.270205,-3.6703274,8.057725,9.926514
1.58,21.42326,62.077255,19.884281,-3.778307,8.216937,9.824144
1.582,20.921593,62.13484,18.474068,-3.8860564,8.362297,9.700525
1.584,20.445011,62.149044,17.035473,-3.9889493,8.497657,9.556882
1.586,19.997074,62.115314,15.56435,-4.0828743,8.626207,9.394399
1.588,19.580585,62.029533,14.056478,-4.1643324,8.75036,9.214134
1.59,19.19836,61.887554,12.507927,-4.2305703,8.871653,9.016996
1.592,18.852732,61.68576,10.914965,-4.279605,8.990681,8.803773
1.594,18.54541,61.421135,9.274164,-4.310244,9.107114,8.57514
1.596,18.277637,61.090935,7.582489,-4.3220205,9.219733,8.331673
1.598,18.049435,60.69288,5.8381042,-4.3152137,9.326513,8.073803
1.6,17.860338,60.225082,4.0402184,-4.2907243,9.424753,7.8018813
1.602,17.708588,59.686874,2.1891956,-4.249996,9.511221,7.5162416
1.604,17.591978,59.07807,0.2866726,-4.1949263,9.582245,7.2171817
1.606,17.50727,58.39904,-1.6641293,-4.127741,9.633878,6.9049244
1.608,17.450623,57.650513,-3.6585693,-4.0509496,9.662004,6.5796895
1.61,17.417564,56.834152,-5.690632,-3.9672635,9.662447,6.2417665
1.612,17.40308,55.952335,-7.7526207,-3.8795238,9.631079,5.891547
1.614,17.401926,55.00802,-9.835476,-3.7906525,9.563936,5.529601
1.616,17.40871,54.00463,-11.928974,-3.703566,9.457279,5.156787
1.618,17.418093,52.946358,-14.022003,-3.6211162,9.307687,4.774275
1.62,17.424543,51.837906,-16.102455,-3.5460143,9.112223,4.3836613
1.622,17.423092,50.684513,-18.157345,-3.4806926,8.868499,3.98703
1.624,17.408937,49.492115,-20.173616,-3.4272404,8.574832,3.5868797
1.626,17.377806,48.266983,-22.137852,-3.3873236,8.230328,3.1860588
1.628,17.325737,47.01565,-24.036814,-3.36211,7.8349533,2.787695
1.63,17.249668,45.74491,-25.857872,-3.3522115,7.38968,2.3951466
1.632,17.146557,44.461937,-27.588715,-3.3576126,6.896535,2.0118628
1.634,17.014393,43.17392,-29.218063,-3.377662,6.358579,1.6412268
1.636,16.851032,41.888092,-30.735722,-3.4111066,5.7799425,1.2863338
1.638,16.655571,40.61172,-32.132473,-3.456171,5.165681,0.94991124
1.64,16.427387,39.35177,-33.400696,-3.5105965,4.5216846,0.63422096
1.642,16.16653,38.11493,-34.534443,-3.571746,3.854519,0.34098148
1.644,15.87376,36.90719,-35.52923,-3.6366923,3.1712027,0.071336985
1.646,15.550072,35.734013,-36.382046,-3.7023025,2.4790254,-0.17418677
1.648,15.197074,34.600197,-37.09141,-3.765345,1.7853415,-0.3956232
1.65,14.816695,33.510166,-37.657784,-3.822588,1.0973597,-0.59348273
1.652,14.410677,32.467842,-38.08293,-3.870864,0.42188865,-0.7686423
1.654,13.981432,31.476452,-38.37037,-3.9071555,-0.23475859,-0.9222245
1.656,13.53126,30.53842,-38.524296,-3.92867,-0.86691874,-1.0555089
1.658,13.063158,29.655344,-38.55015,-3.9329147,-1.4696479,-1.1697946
1.66,12.580158,28.82815,-38.45413,-3.917743,-2.0387797,-1.2663361
1.662,12.085474,28.057034,-38.243484,-3.881396,-2.570908,-1.3463172
1.664,11.5823345,27.341597,-37.926216,-3.8225403,-3.0633738,-1.410826
1.666,11.073908,26.68079,-37.51062,-3.7402868,-3.514279,-1.4608057
1.668,10.5636215,26.073112,-37.005196,-3.6341977,-3.9223661,-1.4970694
1.67,10.054861,25.516586,-36.418594,-3.5042481,-4.28699,-1.520361
1.672,9.551218,25.00869,-35.759346,-3.3508334,-4.608081,-1.5313752
1.674,9.055948,24.546717,-35.03612,-3.1747332,-4.886116,-1.5307901
1.676,8.572491,24.127548,-34.257225,-2.9770353,-5.1220064,-1.5192983
1.678,8.103859,23.748014,-33.431152,-2.7590747,-5.3170414,-1.4976451
1.68,7.6530113,23.404772,-32.565975,-2.5223916,-5.472802,-1.4666739
1.682,7.22278,23.094133,-31.669207,-2.2686596,-5.591078,-1.4273307
1.684,6.815687,22.812595,-30.748045,-1.9996355,-5.6738462,-1.3806565
1.686,6.433757,22.55668,-29.80918,-1.7171474,-5.723206,-1.3277535
1.688,6.0786695,22.323044,-28.858746,-1.4230285,-5.7413406,-1.269763
1.69,5.7518196,22.108337,-27.90244,-1.1190491,-5.7304945,-1.2077751
1.692,5.4546747,21.90918,-26.94535,-0.8069304,-5.6929526,-1.142832
1.694,5.188019,21.72276,-25.99228,-0.48834574,-5.631122,-1.0758691
1.696,4.9524817,21.54628,-25.047277,-0.16492805,-5.5474877,-1.0076697
1.698,4.748585,21.377129,-24.114172,0.16172165,-5.44461,-0.9388914
1.7,4.57635,21.213037,-23.196188,0.49004582,-5.325139,-0.8699839
1.702,4.4354773,21.052256,-22.296116,0.81851405,-5.1917844,-0.80122304
1.704,4.3254642,20.893368,-21.416208,1.145659,-5.047287,-0.7327235
1.706,4.245569,20.735336,-20.558018,1.4700592,-4.8943405,-0.66446745
1.708,4.1948023,20.577446,-19.722895,1.7903671,-4.7356167,-0.5963265
1.71,4.172265,20.419426,-18.911875,2.1053317,-4.573662,-0.5281211
1.712,4.1766715,20.26084,-18.125517,2.4138026,-4.4108486,-0.45965528
1.714,4.2066083,20.101727,-17.363989,2.7147539,-4.249338,-0.39079964
1.716,4.2607265,19.942635,-16.627295,3.0072916,-4.0910506,-0.32147455
1.718,4.337558,19.784157,-15.915431,3.290648,-3.9376488,-0.25171936
1.72,4.4355383,19.626968,-15.22807,3.5641897,-3.7905304,-0.18166053
1.722,4.5530524,19.471855,-14.56459,3.8274088,-3.6508768,-0.11150873
1.724,4.688547,19.319708,-13.924262,4.079916,-3.5196667,-0.041552305
1.726,4.840634,19.171547,-13.306154,4.321428,-3.3976579,0.02785492
1.728,5.0075984,19.028265,-12.709189,4.5517726,-3.2854323,0.09630108
1.73,5.188159,18.890692,-12.132219,4.770857,-3.183433,0.16331291
1.732,5.380799,18.759827,-11.574276,4.978657,-3.0919893,0.22843301
1.734,5.5842366,18.636381,-11.033986,5.175224,-3.011291,0.29125237
1.736,5.7972136,18.521008,-10.51012,5.36068,-2.9414577,0.3514186
1.738,6.0185437,18.414284,-10.001501,5.5352116,-2.882525,0.4086852
1.74,6.246907,18.316698,-9.506824,5.699073,-2.834456,0.4629203
1.742,6.481327,18.228767,-9.0250225,5.852603,-2.7971582,0.51413333
1.744,6.720604,18.151072,-8.555012,5.996209,-2.7704968,0.56242967
1.746,6.963997,18.083973,-8.095839,6.1303544,-2.7543154,0.608003
1.748,7.210584,18.02782,-7.646609,6.255561,-2.748404,0.6510848
1.75,7.4596343,17.982813,-7.2062736,6.3723707,-2.7525387,0.6919216
1.752,7.71039,17.949265,-6.7738323,6.4813247,-2.7664504,0.7307342
1.754,7.9620996,17.92746,-6.3484125,6.5829396,-2.7898612,0.7676792
1.756,8.214168,17.917677,-5.9293275,6.677687,-2.8224492,0.8028408
1.758,8.466061,17.91994,-5.515712,6.765977,-2.8638592,0.83623695
1.76,8.717202,17.934458,-5.1068044,6.8481703,-2.9136815,0.8678175
1.762,8.967217,17.961288,-4.702114,6.9245825,-2.9714508,0.89749277
1.764,9.215649,18.000542,-4.300916,6.9954967,-3.0366883,0.9251547
1.766,9.462209,18.052185,-3.9027195,7.0611744,-3.1088696,0.9507035
1.768,9.7064495,18.116194,-3.5071125,7.121886,-3.1874595,0.9740697
1.77,9.94823,18.192532,-3.1136036,7.17789,-3.2719214,0.995204
1.772,10.187029,18.28117,-2.7217426,7.229475,-3.3617072,1.0140666
1.774,10.422489,18.381958,-2.3310556,7.276956,-3.4562693,1.0306093
1.776,10.654461,18.494804,-1.9410982,7.32065,-3.5550485,1.0447803
1.778,10.88272,18.61945,-1.551403,7.3608685,-3.6574917,1.0565324
1.78,11.107012,18.755617,-1.1615949,7.397938,-3.76305,1.0658258
1.782,11.327109,18.903072,-0.77107525,7.4321575,-3.8711624,1.0726337
1.784,11.542867,19.06162,-0.37954378,7.4638014,-3.9812589,1.0769395
1.786,11.754046,19.231018,0.013245106,7.4931273,-4.092732,1.0787165
1.788,11.960591,19.410765,0.4076681,7.520343,-4.204997,1.0779471
1.79,12.162303,19.600338,0.80404234,7.545647,-4.3174405,1.0746589
1.792,12.35886,19.799377,1.202569,7.569223,-4.4294195,1.0688865
1.794,12.550173,20.007246,1.6037059,7.5912275,-4.540294,1.0606856
1.796,12.73611,20.223312,2.0075526,7.611825,-4.649436,1.0501688
1.798,12.916532,20.446856,2.414351,7.6311536,-4.7562246,1.037457
1.8,13.091354,20.67724,2.8242743,7.649379,-4.860051,1.0226803
1.802,13.260411,20.913662,3.237519,7.6666727,-4.9603457,1.005974
1.804,13.423557,21.155256,3.654218,7.6832256,-5.056582,0.98748875
1.806,13.5808525,21.400946,4.0742984,7.6992445,-5.148279,0.96738815
1.808,13.732061,21.649824,4.4978094,7.714946,-5.235008,0.945817
1.81,13.877029,21.90087,4.924651,7.7305536,-5.3164015,0.9229262
1.812,14.015832,22.152658,5.355142,7.7462616,-5.392153,0.89884734
1.814,14.148277,22.404167,5.789016,7.7622576,-5.462012,0.8737042
1.816,14.2743225,22.653954,6.226183,7.778662,-5.52579,0.8475902
1.818,14.394018,22.90075,6.666497,7.795541,-5.5833397,0.82060885
1.82,14.507067,23.143091,7.1100073,7.8128753,-5.634598,0.7928555
1.822,14.6134,23.379623,7.5565,7.8305655,-5.6795063,0.7644179
1.824,14.713095,23.608837,8.005833,7.848432,-5.7180676,0.73539376
1.826,14.805841,23.829062,8.457844,7.8662205,-5.750296,0.7059164
1.828,14.891464,24.038757,8.912427,7.8836155,-5.7762055,0.6761136
1.83,14.969864,24.236252,9.369201,7.9002833,-5.79582,0.6461179
1.832,15.04092,24.41998,9.827812,7.9158516,-5.8091397,0.6160333
1.834,15.104255,24.588394,10.287947,7.9299784,-5.8161664,0.5859182
1.836,15.159514,24.739956,10.749033,7.942344,-5.816886,0.5557575
1.838,15.206718,24.873272,11.210579,7.952681,-5.811297,0.5254681
1.84,15.245499,24.986906,11.672033,7.9607973,-5.7994003,0.49492264
1.842,15.275457,25.07975,12.132715,7.966546,-5.781221,0.46396375
1.844,15.296299,25.150898,12.591938,7.9698124,-5.7568655,0.43241596
1.846,15.307953,25.199423,13.048909,7.970499,-5.7265315,0.40014243
1.848,15.31016,25.224688,13.502924,7.968525,-5.6904917,0.36703992
1.85,15.30279,25.226467,13.95302,7.9637938,-5.649094,0.3330474
1.852,15.285519,25.204576,14.398112,7.9561768,-5.6027327,0.2981851
1.854,15.258324,25.159096,14.836995,7.945507,-5.5518665,0.2625258
1.856,15.221588,25.09036,15.268478,7.9315753,-5.4969625,0.22616005
1.858,15.175078,24.998844,15.691264,7.914157,-5.4384794,0.1891861
1.86,15.119132,24.885452,16.104063,7.893029,-5.376839,0.15169477
1.862,15.053978,24.751171,16.505354,7.8680267,-5.3124127,0.11374831
1.864,14.980101,24.597229,16.893452,7.839046,-5.245467,0.07536411
1.866,14.897946,24.425058,17.266727,7.8060923,-5.1761794,0.036525965
1.868,14.808138,24.236305,17.623146,7.7692785,-5.1046305,-0.0028235912
1.87,14.711466,24.03263,17.96083,7.7288394,-5.030793,-0.042785645
1.872,14.608866,23.815557,18.27801,7.6851387,-4.954561,-0.08348918
1.874,14.501375,23.5869,18.573013,7.638598,-4.875745,-0.12505484
1.876,14.389878,23.348446,18.844463,7.589717,-4.794134,-0.16756105
1.878,14.275564,23.101957,19.0909,7.5389895,-4.7094917,-0.21104717
1.88,14.159637,22.849205,19.310993,7.4868736,-4.621599,-0.2554953
1.882,14.043327,22.591877,19.50359,7.4337797,-4.530302,-0.30081868
1.884,13.92792,22.331478,19.667568,7.3800206,-4.435538,-0.34686947
1.886,13.814621,22.069595,19.80199,7.325803,-4.3373485,-0.3934121
1.888,13.704702,21.80753,19.906088,7.2712045,-4.2359014,-0.44016004
1.89,13.599575,21.546503,19.979267,7.216213,-4.131483,-0.48678303
1.892,13.500328,21.287737,20.021189,7.1607018,-4.024469,-0.532933
1.894,13.408375,21.032099,20.031937,7.104491,-3.9153109,-0.57827544
1.896,13.324617,20.78046,20.011843,7.0473633,-3.8044534,-0.62251353
1.898,13.250022,20.533583,19.961658,6.9891343,-3.6923409,-0.6653805
1.9,13.185492,20.29225,19.882107,6.9296465,-3.5793853,-0.7066461
1.902,13.131953,20.056759,19.774435,6.8687706,-3.4659953,-0.7460865
1.904,13.089558,19.827452,19.640009,6.8064594,-3.3525417,-0.78349876
1.906,13.058794,19.604548,19.480686,6.742734,-3.2393944,-0.8186972
1.908,13.039616,19.388306,19.298332,6.6776695,-3.1268663,-0.8515128
1.91,13.031781,19.17869,19.09514,6.611382,-3.0152924,-0.88177085
1.912,13.034908,18.97588,18.873474,6.5439916,-2.9050403,-0.9093493
1.914,13.048392,18.779644,18.635822,6.47558,-2.7965841,-0.93415725
1.916,13.071267,18.590004,18.384876,6.406152,-2.6905208,-0.95616317
1.918,13.102648,18.406681,18.123472,6.335617,-2.5876274,-0.9754045
1.92,13.141421,18.229433,17.85439,6.263733,-2.4888413,-0.99202037
1.922,13.186055,18.058214,17.580263,6.190124,-2.395258,-1.0062647
1.924,13.235275,17.892769,17.304102,6.1142564,-2.308087,-1.0184796
1.926,13.287521,17.732944,17.028513,6.03545,-2.228601,-1.0291221
1.928,13.34143,17.578459,16.75605,5.9529448,-2.158045,-1.0387318
1.93,13.395609,17.429228,16.489048,5.8659406,-2.0975444,-1.0479249
1.932,13.44891,17.284967,16.229649,5.77368,-2.0480506,-1.0573434
1.934,13.499937,17.145706,15.979899,5.675488,-2.0102859,-1.0675951
1.936,13.547704,17.011177,15.741502,5.570856,-1.9847538,-1.0792434
1.938,13.591417,16.881369,15.515867,5.4594874,-1.9717267,-1.0927855
1.94,13.630418,16.756027,15.3044405,5.341327,-1.9712474,-1.1086353
1.942,13.664072,16.635044,15.108258,5.2165804,-1.9831831,-1.1271253
1.944,13.6922455,16.518206,14.928173,5.085687,-2.007276,-1.1484907
1.946,13.71487,16.405275,14.764912,4.9492903,-2.0431561,-1.1728851
1.948,13.731759,16.295908,14.618865,4.8081875,-2.0903943,-1.2003776
1.95,13.743225,16.189884,14.490372,4.663259,-2.1485415,-1.2309881
1.952,13.749683,16.086643,14.379649,4.5154247,-2.2170691,-1.2647046
1.954,13.751549,15.985601,14.286589,4.3656263,-2.295408,-1.3014935
1.956,13.749044,15.88645,14.211038,4.214768,-2.382878,-1.3413364
1.958,13.742783,15.788458,14.152751,4.063692,-2.4787312,-1.3842148
1.96,13.733368,15.690916,14.111289,3.9131718,-2.582116,-1.4300966
1.962,13.7214365,15.593115,14.086231,3.763918,-2.6920915,-1.4789236
1.964,13.707331,15.494212,14.076927,3.616575,-2.807565,-1.5306151
1.966,13.69128,15.393527,14.082639,3.4717581,-2.927299,-1.5850523
1.968,13.673983,15.290346,14.102252,3.3300288,-3.0498905,-1.6420585
1.97,13.655645,15.183689,14.134585,3.191919,-3.1738217,-1.7014118
1.972,13.636779,15.072723,14.178452,3.0579007,-3.297473,-1.7628298
1.974,13.61745,14.956674,14.232672,2.9284196,-3.4191868,-1.8259754
1.976,13.597753,14.834518,14.295836,2.8038583,-3.5373013,-1.8904612
1.978,13.577759,14.7056675,14.3665905,2.6845417,-3.6502197,-1.9558902
1.98,13.557555,14.569273,14.443207,2.570734,-3.7564754,-2.0218487
1.982,13.537047,14.424789,14.523817,2.462626,-3.8547761,-2.0879257
1.984,13.516135,14.271494,14.60647,2.360334,-3.9440715,-2.1537178
1.986,13.494922,14.10887,14.689193,2.263901,-4.0235424,-2.218867
1.988,13.473479,13.936334,14.770166,2.1733193,-4.092637,-2.2830718
1.99,13.4516115,13.753393,14.847549,2.0885034,-4.151052,-2.3460798
1.992,13.429527,13.55973,14.919824,2.0093298,-4.198732,-2.4076805
1.994,13.406851,13.355133,14.985564,1.9356272,-4.2358522,-2.4677339
1.996,13.38364,13.139402,15.0434475,1.8671663,-4.2627816,-2.526141
1.998,13.359778,12.912415,15.092429,1.8037044,-4.2800274,-2.5828507
2,13.335058,12.674323,15.131748,1.7449743,-4.2882066,-2.6378398
2.002,13.309515,12.425062,15.160568,1.6906806,-4.2879877,-2.691113
2.004,13.282758,12.164902,15.178286,1.6405301,-4.280032,-2.7426476
2.006,13.2549305,11.894109,15.184601,1.594229,-4.265028,-2.7924285
2.008,13.225949,11.613173,15.179174,1.551485,-4.243635,-2.8404212
2.01,13.19558,11.322458,15.162165,1.5120125,-4.2164826,-2.8865414
2.012,13.163733,11.022728,15.133642,1.4755309,-4.1841936,-2.9306793
2.014,13.130567,10.714653,15.0938,1.44177,-4.1473646,-2.9727046
2.016,13.09583,10.399051,15.043076,1.4104676,-4.1065893,-3.0124762
2.018,13.05962,10.076735,14.981937,1.3813539,-4.062471,-3.0498612
2.02,13.021864,9.748681,14.910841,1.3541307,-4.0156074,-3.0847504
2.022,12.982781,9.415772,14.8304825,1.3285027,-3.966597,-3.1170614
2.024,12.942445,9.078951,14.741497,1.3041501,-3.9160318,-3.146747
2.026,12.900934,8.739342,14.644553,1.280739,-3.864498,-3.1738052
2.028,12.858276,8.39793,14.540354,1.2579209,-3.8125415,-3.1982558
2.03,12.814618,8.055793,14.429425,1.2353103,-3.7606628,-3.2201462
2.032,12.770082,7.7139745,14.312374,1.2125278,-3.7093165,-3.2395594
2.034,12.724752,7.373398,14.18969,1.1892129,-3.6588748,-3.256584
2.036,12.678895,7.035071,14.061802,1.1650089,-3.6096618,-3.2713282
2.038,12.632513,6.6998687,13.9291725,1.1396152,-3.5619211,-3.2839165
2.04,12.585829,6.3687143,13.7921715,1.1127572,-3.5158286,-3.294479
2.042,12.538854,6.0423737,13.651157,1.0842359,-3.47148,-3.3031526
2.044,12.491863,5.721474,13.506411,1.0538974,-3.428925,-3.3100958
2.046,12.444962,5.4067936,13.358143,1.0216503,-3.3881662,-3.315486
2.048,12.398261,5.0988064,13.206626,0.98747027,-3.3491654,-3.3194556
2.05,12.351782,4.7979302,13.052135,0.9513869,-3.3118405,-3.322154
2.052,12.305642,4.5045233,12.894839,0.9134668,-3.2760992,-3.3237007
2.054,12.25989,4.218861,12.735063,0.8738295,-3.241829,-3.324209
2.056,12.214556,3.9411683,12.573043,0.8326328,-3.2088976,-3.3237734
2.058,12.169825,3.6716328,12.409084,0.7900555,-3.1771696,-3.3224726
2.06,12.125732,3.4102712,12.243436,0.7462957,-3.146478,-3.3203354
2.062,12.082197,3.1571674,12.07643,0.70154274,-3.1166675,-3.3173623
2.064,12.039152,2.9122653,11.908498,0.6560081,-3.0875893,-3.3135755
2.066,11.996832,2.6753163,11.740034,0.60987926,-3.0590992,-3.3089914
2.068,11.955069,2.4463406,11.57135,0.5633265,-3.0310926,-3.3036401
2.07,11.913887,2.2249942,11.402866,0.5164547,-3.003498,-3.2975774
2.072,11.873268,2.011119,11.235112,0.46934724,-2.9763107,-3.2908592
2.074,11.833451,1.8046103,11.068481,0.4220264,-2.9495788,-3.283553
2.076,11.794238,1.6052032,10.903324,0.37446117,-2.9233966,-3.2757294
2.078,11.755781,1.4125066,10.740174,0.32655108,-2.8979053,-3.267451
2.08,11.718186,1.2264056,10.579203,0.27815485,-2.8732686,-3.2587752
2.082,11.681466,1.0466151,10.420793,0.22908735,-2.8496864,-3.249733
2.084,11.645712,0.8728585,10.265114,0.17914176,-2.8273268,-3.240335
2.086,11.611182,0.7049823,10.112277,0.12810361,-2.806354,-3.2305837
2.088,11.577944,0.5427923,9.962382,0.075745344,-2.786911,-3.2204995
2.09,11.546181,0.38607168,9.815538,0.021884084,-2.7691047,-3.2101135
2.092,11.516012,0.23461008,9.671782,-0.03362322,-2.7530031,-3.1994839
2.094,11.487581,0.08829117,9.531108,-0.09084749,-2.7386732,-3.1887085
2.096,11.460968,-0.053141117,9.393304,-0.1498164,-2.7261388,-3.1779156
2.098,11.436259,-0.18975782,9.25826,-0.21045566,-2.7153912,-3.1672556
2.1,11.413643,-0.3216858,9.125813,-0.2726425,-2.7064102,-3.1568863
2.102,11.393068,-0.4491005,8.995679,-0.33619702,-2.6991372,-3.1469784
2.104,11.374733,-0.57205915,8.867694,-0.40089417,-2.6934984,-3.137669
2.106,11.358495,-0.6906018,8.741557,-0.46646798,-2.689376,-3.1290789
2.108,11.344368,-0.8047886,8.617152,-0.53265095,-2.6866417,-3.1212764
2.11,11.332411,-0.914701,8.494125,-0.59919035,-2.685149,-3.1142993
2.112,11.322416,-1.0203071,8.37233,-0.66586024,-2.6847398,-3.1081345
2.114,11.31432,-1.1216183,8.251589,-0.7324538,-2.6852715,-3.102753
2.116,11.307927,-1.2185769,8.131672,-0.79880357,-2.6865988,-3.0980968
2.118,11.30319,-1.3111343,8.012544,-0.864789,-2.6885781,-3.094073
2.12,11.300024,-1.3992953,7.8940425,-0.9303125,-2.6910625,-3.0905607
2.122,11.298167,-1.4829831,7.776244,-0.995329,-2.6939025,-3.087432
2.124,11.297493,-1.5620885,7.6591115,-1.0597899,-2.6969693,-3.0845482
2.126,11.297808,-1.6365314,7.542566,-1.1236868,-2.7001164,-3.0817645
2.128,11.299076,-1.7062633,7.4266586,-1.1870177,-2.703204,-3.0789511
2.13,11.3011465,-1.7712057,7.311549,-1.2497807,-2.7060933,-3.0759847
2.132,11.3037,-1.8311763,7.197197,-1.3119717,-2.7086318,-3.0727575
2.134,11.3067,-1.8860116,7.0836434,-1.3735758,-2.7106698,-3.0691805
2.136,11.310098,-1.9357224,6.9709435,-1.4345815,-2.712052,-3.0652068
2.138,11.31374,-1.9801054,6.859132,-1.4949658,-2.712627,-3.060795
2.14,11.317676,-2.0191684,6.7483945,-1.5547059,-2.7122276,-3.0559065
2.142,11.321751,-2.052838,6.6388307,-1.6137445,-2.7106981,-3.0505352
2.144,11.326054,-2.0810726,6.530463,-1.6720548,-2.707876,-3.044701
2.146,11.33038,-2.1039758,6.423444,-1.7296,-2.703615,-3.0383983
2.148,11.334869,-2.1215947,6.317752,-1.7863371,-2.69778,-3.0316324
2.15,11.339443,-2.1341085,6.2134676,-1.8422321,-2.6902552,-3.024377
2.152,11.344131,-2.1414752,6.1104813,-1.8972534,-2.680956,-3.016614
2.154,11.348791,-2.14391,6.0087523,-1.9513793,-2.6698194,-3.0083132
2.156,11.353443,-2.1415055,5.9083037,-2.0045862,-2.6568189,-2.9994352
2.158,11.357979,-2.1344662,5.8090367,-2.0568578,-2.641953,-2.9899366
2.16,11.362488,-2.1228013,5.7108436,-2.1081777,-2.6252546,-2.9797854
2.162,11.3669405,-2.106804,5.6135592,-2.1585371,-2.6067762,-2.9689753
2.164,11.371284,-2.0866542,5.517009,-2.2079072,-2.5865858,-2.9575186
2.166,11.375409,-2.062618,5.4211006,-2.2562685,-2.5647697,-2.9454587
2.168,11.379183,-2.0349615,5.325705,-2.3036056,-2.5413904,-2.9328492
2.17,11.382617,-2.003934,5.2307396,-2.3498843,-2.5165198,-2.9197526
2.172,11.385661,-1.969763,5.1360188,-2.3950841,-2.490232,-2.9062316
2.174,11.388241,-1.9326515,5.041416,-2.4391718,-2.4625728,-2.89234
2.176,11.390265,-1.8928502,4.9469366,-2.4821053,-2.433572,-2.878116
2.178,11.391674,-1.8506172,4.852469,-2.5238523,-2.4032354,-2.863596
2.18,11.392449,-1.8060162,4.758,-2.564362,-2.371563,-2.8487904
2.182,11.3925,-1.7593322,4.6634316,-2.603596,-2.338537,-2.8336864
2.184,11.391781,-1.7106884,4.568704,-2.641509,-2.3041425,-2.81826
2.186,11.39044,-1.6602612,4.4738545,-2.678049,-2.2683654,-2.8024623
2.188,11.388308,-1.6079481,4.3787565,-2.7131877,-2.2312005,-2.7862318
2.19,11.385664,-1.553874,4.283487,-2.7468758,-2.1926394,-2.7694905
2.192,11.382443,-1.4980803,4.187997,-2.7790918,-2.1527185,-2.7521698
2.194,11.37884,-1.4404833,4.092301,-2.8098245,-2.1114967,-2.7341785
2.196,11.375031,-1.3810341,3.996467,-2.839089,-2.0690515,-2.7154248
2.198,11.371174,-1.3198571,3.9004765,-2.8669035,-2.025495,-2.6957877
2.2,11.367366,-1.2565916,3.8044333,-2.8933153,-1.9809679,-2.675185
2.202,11.363855,-1.191231,3.7083447,-2.9183803,-1.9356232,-2.6535645
2.204,11.360976,-1.123745,3.6122527,-2.9421763,-1.8896484,-2.6308827
2.206,11.358879,-1.0539975,3.516378,-2.9647985,-1.8432529,-2.6071427
2.208,11.3577795,-0.98197484,3.4206028,-2.9863348,-1.7966539,-2.5823846
2.21,11.357989,-0.9076297,3.3251286,-3.0068963,-1.7500749,-2.5567007
2.212,11.3595705,-0.83086395,3.230023,-3.0265965,-1.7037548,-2.5302172
2.214,11.362857,-0.75174904,3.135406,-3.0455382,-1.6579279,-2.5030942
2.216,11.367945,-0.6703143,3.041358,-3.0638247,-1.6128011,-2.47551
2.218,11.375039,-0.58670354,2.9478655,-3.081564,-1.5685699,-2.4476454
2.22,11.384251,-0.50092816,2.855109,-3.0988393,-1.5254097,-2.4196754
2.222,11.395704,-0.41329122,2.7629855,-3.1157398,-1.4834507,-2.391754
2.224,11.409396,-0.32379746,2.671609,-3.1323237,-1.4427902,-2.3640158
2.226,11.425392,-0.23279786,2.581036,-3.148621,-1.4034901,-2.336545
2.228,11.443602,-0.14045048,2.4911952,-3.1646402,-1.3655958,-2.3094056
2.23,11.464007,-0.047001123,2.4020472,-3.180387,-1.329108,-2.2826247
2.232,11.486585,0.047333956,2.3134909,-3.1958268,-1.2940063,-2.2561934
2.234,11.511258,0.14229894,2.2256155,-3.2109158,-1.2602607,-2.2300944
2.236,11.537865,0.23766637,2.1382246,-3.225595,-1.2278317,-2.2042816
2.238,11.5661955,0.33317184,2.0513594,-3.2398071,-1.1966579,-2.1787248
2.24,11.5961485,0.42859912,1.9648287,-3.2534919,-1.1666737,-2.1533663
2.242,11.627596,0.5236287,1.8785802,-3.26657,-1.1378188,-2.1281583
2.244,11.660321,0.6180787,1.7926695,-3.2789953,-1.1100211,-2.1030576
2.246,11.694206,0.71177006,1.7068166,-3.2907047,-1.0832047,-2.0780222
2.248,11.7289505,0.8045869,1.6210766,-3.3016613,-1.0573056,-2.053018
2.25,11.7643585,0.8963556,1.5353215,-3.311827,-1.0322818,-2.0279975
2.252,11.800379,0.9868767,1.4495895,-3.3211725,-1.008115,-2.0029266
2.254,11.836703,1.076031,1.3638955,-3.3296864,-0.9848124,-1.9777528
2.256,11.873308,1.163837,1.2782184,-3.3373733,-0.96240366,-1.9524112
2.258,11.909918,1.2500858,1.1926334,-3.3442354,-0.9409468,-1.9268507
2.26,11.946442,1.3347707,1.1071126,-3.3503094,-0.9205153,-1.9010141
2.262,11.982649,1.4177709,1.0218494,-3.3556378,-0.9012122,-1.8748384
2.264,12.01852,1.499069,0.9368874,-3.3602822,-0.88313603,-1.8482752
2.266,12.053894,1.5785437,0.8523438,-3.364314,-0.86638784,-1.8212932
2.268,12.088753,1.6561654,0.76822996,-3.3678138,-0.85104966,-1.7938828
2.27,12.122888,1.7318368,0.6846906,-3.3708417,-0.8371995,-1.7660501
2.272,12.156155,1.8055967,0.60184026,-3.3734694,-0.82489,-1.7378178
2.274,12.18846,1.8772892,0.51972985,-3.3757565,-0.814153,-1.7092457
2.276,12.219853,1.9469917,0.43849337,-3.377728,-0.8050262,-1.6803966
2.278,12.250287,2.014624,0.3581822,-3.3794093,-0.7975141,-1.651336
2.28,12.279527,2.0801578,0.27873564,-3.3808024,-0.7916247,-1.6221558
2.282,12.30759,2.1434727,0.20026195,-3.381889,-0.78735995,-1.5929253
2.284,12.33448,2.204605,0.12272942,-3.3826299,-0.78471804,-1.5637124
2.286,12.359925,2.2634373,0.045881867,-3.3829799,-0.78370214,-1.534564
2.288,12.384104,2.3199534,-0.030160904,-3.3828733,-0.7842958,-1.5055175
2.29,12.406785,2.374003,-0.10559249,-3.3822489,-0.7864846,-1.4765849
2.292,12.428032,2.4257183,-0.18060493,-3.381035,-0.790254,-1.447741
2.294,12.447825,2.474856,-0.25528932,-3.379152,-0.79557896,-1.4189532
2.296,12.466063,2.521442,-0.3298179,-3.3765357,-0.8024397,-1.3901701
2.298,12.482841,2.5653458,-0.40441203,-3.3731143,-0.8107992,-1.3613122
2.3,12.497875,2.6066847,-0.47917664,-3.3688216,-0.82063264,-1.3323059
2.302,12.511413,2.6453986,-0.55433524,-3.3635952,-0.83190954,-1.3030751
2.304,12.523351,2.6813996,-0.6301694,-3.3573813,-0.84459645,-1.2735465
2.306,12.53375,2.714756,-0.7067678,-3.350127,-0.8586648,-1.2436469
2.308,12.542587,2.7455215,-0.7843188,-3.3417892,-0.87409395,-1.2133172
2.31,12.549987,2.773539,-0.86294496,-3.3323302,-0.8908732,-1.1825075
2.312,12.555758,2.7990568,-0.94273794,-3.3216963,-0.9089753,-1.151176
2.314,12.560112,2.822085,-1.0237901,-3.3098319,-0.92838705,-1.1193004
2.316,12.563018,2.8426733,-1.1061636,-3.2966921,-0.94908583,-1.0868769
2.318,12.56448,2.860877,-1.1897718,-3.2822123,-0.9710573,-1.0539081
2.32,12.564461,2.8768787,-1.2745945,-3.266319,-0.9942649,-1.0204105
2.322,12.563143,2.8907661,-1.3605675,-3.2489426,-1.0186708,-0.98640376
2.324,12.56034,2.902747,-1.4476327,-3.2299938,-1.0442234,-0.9519069
2.326,12.55614,2.912979,-1.5355511,-3.20937,-1.0708492,-0.91694474
2.328,12.550488,2.9216645,-1.6241707,-3.1869593,-1.0984526,-0.8815041
2.33,12.543349,2.9290147,-1.713305,-3.162651,-1.1269112,-0.84556633
2.332,12.534632,2.9353933,-1.8025105,-3.1363246,-1.1560949,-0.8090863
2.334,12.5243,2.9408832,-1.891658,-3.1078563,-1.1858485,-0.7720047
2.336,12.512228,2.9458418,-1.9804194,-3.077103,-1.2160106,-0.73422754
2.338,12.498247,2.9505672,-2.0685458,-3.0439262,-1.2464178,-0.6956383
2.34,12.482337,2.9553487,-2.155599,-3.0082,-1.2768834,-0.6561323
2.342,12.464194,2.960484,-2.2414374,-2.9697845,-1.3072358,-0.6155869
2.344,12.443631,2.9663172,-2.3257542,-2.928544,-1.3372918,-0.57387555
2.346,12.420585,2.9732306,-2.4082499,-2.8843586,-1.3668704,-0.5308969
2.348,12.39478,2.9815154,-2.4886422,-2.8371181,-1.3957996,-0.486553
2.35,12.365946,2.9914978,-2.5667143,-2.7867277,-1.4238849,-0.44075984
2.352,12.334016,3.0034432,-2.6422439,-2.73311,-1.4509629,-0.39346123
2.354,12.29866,3.017693,-2.715099,-2.6762047,-1.4768574,-0.34460372
2.356,12.259696,3.0344641,-2.7848747,-2.6159759,-1.5013947,-0.29417908
2.358,12.217131,3.0538762,-2.8515618,-2.552399,-1.5244186,-0.24218714
2.36,12.170723,3.0761404,-2.9149158,-2.4854586,-1.5457819,-0.18866324
2.362,12.120402,3.101523,-2.974873,-2.4151633,-1.5653601,-0.13366258
2.364,12.066033,3.1299992,-3.0312736,-2.3415346,-1.5830573,-0.07727426
2.366,12.007682,3.1615674,-3.0839467,-2.264627,-1.5988162,-0.019600332
2.368,11.9454,3.1962965,-3.1327918,-2.1845045,-1.6126015,0.039221704
2.37,11.879235,3.2340727,-3.1776133,-2.1012473,-1.6244177,0.0990656
2.372,11.809385,3.2747984,-3.2183752,-2.0149603,-1.6342878,0.15976274
2.374,11.735954,3.3182378,-3.2550092,-1.9257528,-1.642266,0.22114313
2.376,11.659167,3.3642528,-3.2874222,-1.8337381,-1.6483959,0.28303868
2.378,11.579428,3.4125829,-3.3155165,-1.7390299,-1.6527286,0.34527653
2.38,11.496854,3.462969,-3.3393211,-1.6417267,-1.6553049,0.40770948
2.382,11.411996,3.5150108,-3.3587961,-1.5419183,-1.656164,0.47021747
2.384,11.325231,3.5684874,-3.3740125,-1.4396838,-1.655339,0.53269404
2.386,11.2369175,3.6230412,-3.384991,-1.3350884,-1.6528542,0.59508085
2.388,11.147501,3.6784348,-3.3918157,-1.2281761,-1.64873,0.65734315
2.39,11.057527,3.7342987,-3.3945684,-1.1190127,-1.6429963,0.71946615
2.392,10.967462,3.7902915,-3.3933792,-1.0076557,-1.63569,0.7814524
2.394,10.877806,3.8461864,-3.388514,-0.89416194,-1.6268458,0.84332466
2.396,10.7891035,3.9017882,-3.3800263,-0.7785945,-1.6165032,0.9051045
2.398,10.701723,3.9568052,-3.3682673,-0.66103125,-1.6046946,0.96681994
2.4,10.616363,4.0110674,-3.3535051,-0.5415348,-1.5914567,1.0285187
2.402,10.533413,4.064352,-3.336095,-0.42018554,-1.5768265,1.0902585
2.404,10.453417,4.116688,-3.3164332,-0.29705736,-1.5608486,1.1521018
2.406,10.376913,4.1679497,-3.2948434,-0.17222908,-1.5435561,1.2141277
2.408,10.30437,4.2181683,-3.2716146,-0.04577326,-1.5250163,1.2764194
2.41,10.236177,4.267288,-3.2472346,0.08222922,-1.5052961,1.3390818
2.412,10.172698,4.3154106,-3.2221227,0.21168467,-1.4844778,1.4022075
2.414,10.114433,4.362649,-3.196606,0.34249422,-1.4626517,1.4659022
2.416,10.061589,4.40917,-3.1712134,0.4745542,-1.4399153,1.5302551
2.418,10.01451,4.455134,-3.1463232,0.60774344,-1.416387,1.5953531
2.42,9.973556,4.500816,-3.1223855,0.74193454,-1.3921804,1.6612703
2.422,9.939152,4.546319,-3.0998003,0.87697953,-1.3674192,1.7280947
2.424,9.911211,4.59195,-3.0789099,1.0127162,-1.3422327,1.7958925
2.426,9.890222,4.638071,-3.0601888,1.1489742,-1.3167617,1.8647572
2.428,9.876209,4.684966,-3.0438347,1.2855707,-1.2911491,1.9347804
2.43,9.8693,4.7328997,-3.0302796,1.4223236,-1.2655772,2.0060403
2.432,9.8694515,4.782149,-3.0197787,1.5590512,-1.2402275,2.0786352
2.434,9.87682,4.8330493,-3.0125916,1.6955652,-1.2153196,2.1526382
2.436,9.891357,4.8859262,-3.0089414,1.8316805,-1.1910951,2.2281194
2.438,9.912994,4.941117,-3.0090783,1.9672177,-1.1678225,2.3051252
2.44,9.941574,4.9988804,-3.0132103,2.1019745,-1.1458015,2.3836646
2.442,9.977129,5.059573,-3.0213766,2.235739,-1.1253762,2.4637127
2.444,10.019479,5.123419,-3.033741,2.3683004,-1.1068972,2.5452044
2.446,10.068407,5.190892,-3.050359,2.499427,-1.0907341,2.6280465
2.448,10.123652,5.2621365,-3.0710435,2.628855,-1.0772878,2.7121081
2.45,10.184837,5.3375793,-3.0958776,2.7563071,-1.066958,2.797215
2.452,10.251906,5.4174247,-3.1245522,2.8814898,-1.060169,2.883173
2.454,10.324418,5.5020733,-3.1568842,3.004099,-1.057343,2.9697683
2.456,10.402174,5.591798,-3.1925771,3.123826,-1.0589112,3.0567894
2.458,10.484791,5.687023,-3.2313144,3.2403364,-1.0653173,3.1440392
2.46,10.5718975,5.788088,-3.2726498,3.353319,-1.0769792,3.2313354
2.462,10.663083,5.8954754,-3.316106,3.4624605,-1.0943203,3.3185287
2.464,10.758013,6.009513,-3.361138,3.5674756,-1.1177491,3.4054985
2.466,10.856287,6.1307216,-3.4070942,3.668111,-1.1476271,3.4921558
2.468,10.957491,6.259612,-3.4534225,3.7641444,-1.1842706,3.578446
2.47,11.061153,6.3966703,-3.4993355,3.855411,-1.2279403,3.6643462
2.472,11.166956,6.5422797,-3.5441988,3.9418004,-1.2787932,3.7498662
2.474,11.274524,6.697147,-3.587139,4.0232654,-1.3369333,3.8350291
2.476,11.38333,6.8617897,-3.6275468,4.099821,-1.402359,3.919876
2.478,11.493013,7.0367694,-3.6646528,4.171545,-1.4749777,4.004458
2.48,11.603119,7.2225933,-3.697661,4.238556,-1.5546174,4.0888414
2.482,11.713343,7.4196997,-3.7257981,4.3010097,-1.6410515,4.173055
2.484,11.823284,7.628624,-3.748313,4.359082,-1.7339978,4.257141
2.486,11.932457,7.84972,-3.7644134,4.4129558,-1.833162,4.3411083
2.488,12.040237,8.083397,-3.7732987,4.4628463,-1.938226,4.424931
2.49,12.146451,8.32995,-3.77417,4.5089746,-2.0488539,4.5085535
2.492,12.250553,8.589678,-3.7664294,4.551564,-2.1647396,4.591887
2.494,12.3521,8.862823,-3.7493787,4.5908346,-2.2855709,4.674817
2.496,12.450851,9.149354,-3.7225447,4.627016,-2.411046,4.757183
2.498,12.546202,9.4493,-3.6854339,4.6603227,-2.5408828,4.838786
2.5,12.637739,9.762665,-3.6374326,4.690994,-2.6747909,4.919383
2.502,12.725202,10.089257,-3.5780935,4.7192383,-2.8124716,4.9987335
2.504,12.808029,10.42852,-3.5069013,4.745275,-2.9535978,5.0765686
2.506,12.8860235,10.780122,-3.423438,4.7693157,-3.0978055,5.1526394
2.508,12.958681,11.143577,-3.3272643,4.791561,-3.2446718,5.226693
2.51,13.025585,11.518372,-3.217979,4.8122387,-3.393713,5.298504
2.512,13.086508,11.903923,-3.0952702,4.831584,-3.5443697,5.367893
2.514,13.141128,12.299491,-2.9589314,4.849832,-3.6960297,5.434755
2.516,13.189431,12.704442,-2.8090687,4.8672338,-3.8479867,5.4990435
2.518,13.230968,13.118018,-2.6457286,4.8840632,-3.9994645,5.560787
2.52,13.265814,13.539437,-2.4690528,4.900607,-4.1496215,5.6200967
2.522,13.294053,13.967871,-2.2794328,4.91717,-4.2975874,5.6771584
2.524,13.315564,14.402686,-2.077198,4.9340496,-4.4424486,5.7322197
2.526,13.330294,14.843,-1.8626695,4.9515295,-4.583323,5.7855816
2.528,13.33846,15.288044,-1.63659,4.9698873,-4.719342,5.8375597
2.53,13.3401985,15.736981,-1.3997321,4.9893656,-4.8497314,5.8884954
2.532,13.335657,16.189058,-1.1530168,5.010149,-4.973812,5.9386873
2.534,13.324935,16.643496,-0.8974614,5.032342,-5.09106,5.9884133
2.536,13.30862,17.099049,-0.63403606,5.0559807,-5.2011,6.037898
2.538,13.287604,17.55441,-0.36388397,5.081002,-5.303721,6.087238
2.54,13.262104,18.008575,-0.08827257,5.1072583,-5.398875,6.136401
2.542,13.232607,18.460567,0.1915555,5.134508,-5.486668,6.1852136
2.544,13.199451,18.909344,0.47423327,5.162443,-5.56735,6.2333484
2.546,13.16317,19.353745,0.758821,5.1907473,-5.6412296,6.2803416
2.548,13.124384,19.79251,1.0442337,5.2191057,-5.7086673,6.3256235
2.55,13.083769,20.22432,1.329606,5.2472177,-5.7700453,6.368595
2.552,13.041984,20.647673,1.6140515,5.274808,-5.825792,6.408671
2.554,12.999428,21.061258,1.8969443,5.3016205,-5.8763595,6.44528
2.556,12.956854,21.463467,2.1777663,5.327489,-5.9221735,6.47796
2.558,12.914763,21.852886,2.4560957,5.352265,-5.9636564,6.5063806
2.56,12.873726,22.228035,2.7318137,5.375841,-6.0012503,6.5303288
2.562,12.834017,22.58751,3.0048957,5.3981175,-6.035413,6.549688
2.564,12.796091,22.929813,3.2753959,5.4190307,-6.0665708,6.56446
2.566,12.760356,23.253576,3.5438046,5.4385495,-6.0951486,6.574702
2.568,12.726912,23.557644,3.8105078,5.4566655,-6.121507,6.580559
2.57,12.695822,23.841148,4.0761666,5.473371,-6.1459665,6.58222
2.572,12.666895,24.103277,4.341406,5.4886656,-6.1687703,6.5798388
2.574,12.640229,24.34322,4.6068697,5.5025506,-6.1900454,6.5735464
2.576,12.615391,24.560066,4.8732843,5.515035,-6.2097883,6.563463
2.578,12.591842,24.753265,5.1415315,5.526078,-6.2278624,6.5497346
2.58,12.56897,24.922516,5.412388,5.5356197,-6.244007,6.532498
2.582,12.545672,25.067747,5.686782,5.5435185,-6.2578244,6.5118833
2.584,12.521031,25.188803,5.9652452,5.549589,-6.2687883,6.488002
2.586,12.493866,25.285849,6.2485104,5.5535803,-6.2762794,6.4609156
2.588,12.462801,25.359146,6.537037,5.555187,-6.279617,6.430569
2.59,12.426348,25.409283,6.83104,5.554058,-6.2780905,6.3968296
2.592,12.382699,25.436867,7.130705,5.5498366,-6.271006,6.359477
2.594,12.330299,25.442533,7.4360685,5.5421515,-6.2577324,6.3182287
2.596,12.267247,25.427048,7.7468987,5.530692,-6.2377505,6.2727704
2.598,12.19168,25.391293,8.062953,5.5152125,-6.2106667,6.222768
2.6,12.101545,25.336151,8.383539,5.4955926,-6.1762133,6.167958
2.602,11.994903,25.262789,8.708021,5.471839,-6.1342397,6.1081724
2.604,11.869822,25.172142,9.035467,5.444043,-6.0847764,6.0433636
2.606,11.7243,25.065441,9.364858,5.4123845,-6.0279846,5.973748
2.608,11.556804,24.943716,9.695138,5.3771157,-5.9641256,5.899794
2.61,11.365737,24.808155,10.024961,5.338509,-5.8935385,5.822131
2.612,11.149361,24.659859,10.352976,5.296833,-5.816584,5.741494
2.614,10.906631,24.500069,10.677872,5.2523556,-5.7335577,5.658675
2.616,10.636154,24.329754,10.99815,5.2052946,-5.644674,5.5744605
2.618,10.337246,24.149876,11.312566,5.1558094,-5.5500817,5.489555
2.62,10.009285,23.96125,11.619823,5.104016,-5.4498267,5.4044995
2.622,9.651758,23.76466,11.91872,5.0500026,-5.343852,5.3196745
2.624,9.264646,23.560709,12.208077,4.9938407,-5.232063,5.235368
2.626,8.848108,23.349752,12.487082,4.935578,-5.1144056,5.151834
2.628,8.40282,23.132116,12.754699,4.875252,-4.9908485,5.0693245
2.63,7.929637,22.908054,13.010161,4.812932,-4.861404,4.9881024
2.632,7.429722,22.677656,13.252757,4.7487254,-4.72614,4.908445
2.634,6.9048247,22.44066,13.481716,4.6827755,-4.5851808,4.8307047
2.636,6.357258,22.196875,13.696259,4.6152806,-4.4386864,4.755266
2.638,5.7891636,21.946007,13.895888,4.5464735,-4.2868443,4.682523
2.64,5.203282,21.687555,14.080173,4.476647,-4.129818,4.6128683
2.642,4.602813,21.421038,14.248638,4.4060903,-3.9677398,4.5466304
2.644,3.991123,21.145882,14.400667,4.335084,-3.800733,4.4840436
2.646,3.3715515,20.861713,14.535734,4.263873,-3.6289272,4.4252167
2.648,2.7476525,20.56831,14.653196,4.1926394,-3.4524636,4.3701086
2.65,2.12365,20.265186,14.752813,4.121445,-3.2715185,4.3185596
2.652,1.5035629,19.95174,14.834101,4.0502214,-3.0863495,4.2702928
2.654,0.8916235,19.62765,14.896585,3.9787354,-2.8973439,4.2249484
2.656,0.29182434,19.292881,14.939523,3.9066114,-2.7050033,4.182118
2.658,-0.29195213,18.947552,14.962466,3.8334002,-2.509882,4.1413608
2.66,-0.85606956,18.591862,14.964838,3.7585552,-2.3126228,4.1021857
2.662,-1.3971262,18.226627,14.946221,3.6814647,-2.113986,4.064119
2.664,-1.911819,17.852535,14.906416,3.6015089,-1.9148343,4.0267577
2.666,-2.397439,17.470615,14.84506,3.518124,-1.7160441,3.9898043
2.668,-2.8515892,17.082043,14.761848,3.4308443,-1.5185254,3.9530299
2.67,-3.2724657,16.688284,14.656675,3.3393495,-1.3231379,3.9163048
2.672,-3.658699,16.29094,14.529411,3.2434924,-1.130671,3.8795528
2.674,-4.009317,15.89169,14.380175,3.1433113,-0.9417971,3.8428
2.676,-4.324336,15.49255,14.208862,3.0390427,-0.75709856,3.8061392
2.678,-4.6037765,15.09526,14.015861,2.9310894,-0.57701546,3.7697115
2.68,-4.848345,14.701668,13.801192,2.8199978,-0.4018234,3.7336683
2.682,-5.058852,14.313478,13.5652275,2.706451,-0.23169047,3.6981337
2.684,-5.237148,13.932726,13.308416,2.5911934,-0.06668717,3.6632032
2.686,-5.3849154,13.561331,13.031172,2.4749932,0.09317945,3.6289408
2.688,-5.5042357,13.200922,12.733957,2.3586154,0.24794167,3.5953515
2.69,-5.597379,12.852893,12.417334,2.242786,0.39761707,3.5623457
2.692,-5.666667,12.518293,12.081893,2.1281486,0.54219127,3.5297422
2.694,-5.714879,12.198048,11.728363,2.0152526,0.68157506,3.4972236
2.696,-5.744428,11.892762,11.357521,1.9045088,0.8155643,3.4643636
2.698,-5.757802,11.6026535,10.970199,1.7961862,0.94383395,3.430595
2.7,-5.7574797,11.32766,10.567416,1.6904002,1.0659075,3.3952463
2.702,-5.745702,11.067477,10.150207,1.5871222,1.1811413,3.3575547
2.704,-5.7247567,10.821667,9.719778,1.4861782,1.2887242,3.3167253
2.706,-5.6964674,10.589339,9.277258,1.3872825,1.3876764,3.2719195
2.708,-5.6626053,10.369388,8.824049,1.2900491,1.4768944,3.22232
2.71,-5.6247287,10.160511,8.3617115,1.1940448,1.5552019,3.16716
2.712,-5.584278,9.961086,7.8918543,1.0987864,1.621361,3.105763
2.714,-5.5423603,9.7696085,7.416228,1.0037684,1.6741183,3.0376039
2.716,-5.500123,9.584351,6.936642,0.9085082,1.7122747,2.9623373
2.718,-5.4584355,9.403655,6.454855,0.81255376,1.7347599,2.8797803
2.72,-5.4179955,9.22575,5.9728565,0.7155005,1.7406482,2.7899346
2.722,-5.3793015,9.048993,5.4926715,0.6169894,1.7292423,2.6929698
2.724,-5.342972,8.871772,5.0163484,0.5167384,1.7000688,2.5892212
2.726,-5.3092027,8.692605,4.546141,0.4145186,1.6529,2.4792047
2.728,-5.2785883,8.510082,4.084083,0.31015325,1.5877123,2.363576
2.73,-5.251152,8.32307,3.6325486,0.20354068,1.5047299,2.2430997
2.732,-5.227154,8.130529,3.1937766,0.094667554,1.4043772,2.1186333
2.734,-5.2068257,7.93172,2.7700002,-0.016414046,1.2872388,1.9910971
2.736,-5.1890907,7.733833,2.3640778,-0.12957549,1.1540487,1.8614542
2.738,-5.174718,7.5308666,1.9764974,-0.24460685,1.0056801,1.7306614
2.74,-5.1637473,7.3229694,1.6089549,-0.36118495,0.8431423,1.5996246
2.742,-5.1561904,7.11053,1.2630029,-0.4789008,0.6675323,1.469182
2.744,-5.151946,6.8941717,0.9399395,-0.5972588,0.48006284,1.3401
2.746,-5.1510496,6.674647,0.6408613,-0.71565163,0.28202525,1.2130537
2.748,-5.15329,6.4528265,0.36656833,-0.83339274,0.07480073,1.0886395
2.75,-5.1585307,6.2297816,0.117491245,-0.94971466,-0.14013115,0.9673479
2.752,-5.1666627,6.006503,-0.106143475,-1.0638092,-0.3612067,0.84958464
2.754,-5.1773095,5.7840605,-0.30432343,-1.1748321,-0.58676267,0.7356592
2.756,-5.1904254,5.5635967,-0.47752523,-1.2819555,-0.81504303,0.62579095
2.758,-5.20574,5.3460774,-0.62635446,-1.3843943,-1.0442401,0.5200899
2.76,-5.222905,5.1323414,-0.75189257,-1.4814277,-1.272469,0.4186249
2.762,-5.2416162,4.9233575,-0.85528564,-1.5724233,-1.49784,0.3214085
2.764,-5.2617145,4.7198915,-0.9378035,-1.6554424,-1.7130232,0.23086092
2.766,-5.2830057,4.522606,-1.0009098,-1.7311616,-1.9195154,0.14554179
2.768,-5.3053236,4.3321347,-1.0461848,-1.7993087,-2.1151273,0.065672874
2.77,-5.3284144,4.148981,-1.0752292,-1.8598019,-2.2979405,-0.008526146
2.772,-5.3521705,3.9733548,-1.0897167,-1.9127705,-2.4664564,-0.07686919
2.774,-5.3763475,3.8054287,-1.0913558,-1.9585277,-2.6196938,-0.13924941
2.776,-5.4009137,3.6453786,-1.0816958,-1.9975489,-2.757239,-0.19566122
2.778,-5.4255958,3.4931624,-1.0621741,-2.0304441,-2.87924,-0.2462218
2.78,-5.4502864,3.3486485,-1.0342085,-2.0578878,-2.9863298,-0.29118976
2.782,-5.474844,3.2116299,-0.99915123,-2.080585,-3.0794957,-0.3309301
2.784,-5.499321,3.0820198,-0.9581735,-2.0992293,-3.1599941,-0.3658718
2.786,-5.52343,2.9593587,-0.9123068,-2.1144772,-3.2292192,-0.3965013
