Time_s_,Acc_x_m_s_2_,Acc_y_m_s_2_,Acc_z_m_s_2_,Gyro_x_1_s_,Gyro_y_1_s_,Gyro_z_1_s_
0,-0.3140583,0.07690344,0.46328112,0.38943624,0.31854606,-0.14780435
0.002,-0.2995513,0.06388533,0.48450983,0.3948403,0.33096555,-0.14821082
0.004,-0.28315893,0.049625654,0.5060143,0.40058565,0.3447525,-0.14837617
0.006,-0.26423052,0.033969708,0.52625513,0.4066574,0.36006546,-0.14819793
0.008,-0.24238445,0.016824655,0.54373115,0.41298324,0.37699077,-0.14756991
0.01,-0.21720159,-0.001739081,0.5579217,0.41947535,0.39558467,-0.1463728
0.012,-0.18851183,-0.021475814,0.5689953,0.4260037,0.4158499,-0.14445433
0.014,-0.15601331,-0.04251279,0.57699966,0.43240362,0.43770927,-0.1416337
0.016,-0.11942835,-0.06522378,0.5816615,0.438482,0.46103227,-0.13771887
0.018,-0.07835527,-0.08953213,0.5821441,0.44403908,0.4856376,-0.13254094
0.02,-0.03122276,-0.11541735,0.57704693,0.44886497,0.5112891,-0.12595594
0.022,0.020528257,-0.14150138,0.5649753,0.45276982,0.5377319,-0.117869526
0.024,0.07689439,-0.16754514,0.54586375,0.45562658,0.56470406,-0.10825932
0.026,0.13819277,-0.1937587,0.51957333,0.45733613,0.5919198,-0.09718722
0.028,0.20468718,-0.21997437,0.48543423,0.4580807,0.61975884,-0.08467901
0.03,0.27624846,-0.24551097,0.44279188,0.457516,0.64693487,-0.07092762
0.032,0.35268083,-0.2699593,0.3911457,0.4557557,0.6732805,-0.056162477
0.034,0.43369243,-0.2924583,0.3298327,0.45291045,0.69859725,-0.04063207
0.036,0.51888824,-0.3124177,0.25863576,0.44909927,0.72262436,-0.02457738
0.038,0.6076819,-0.32910013,0.17743675,0.44444814,0.74501455,-0.008196652
0.04,0.6996926,-0.34197918,0.08618909,0.43906873,0.7653346,0.008332133
0.042,0.7944374,-0.3505206,-0.015036494,0.433057,0.7831026,0.024859726
0.044,0.89120054,-0.35425365,-0.12555203,0.42646033,0.79780257,0.04125002
0.046,0.9892893,-0.35277447,-0.24474469,0.41930047,0.80894196,0.057427436
0.048,1.0877547,-0.34579623,-0.3718443,0.41160065,0.8160758,0.07342136
0.05,1.1858485,-0.33309793,-0.50592256,0.40327814,0.81869125,0.08934456
0.052,1.2828741,-0.3146441,-0.6459974,0.394188,0.81601924,0.10525414
0.054,1.3777585,-0.29051623,-0.79077744,0.38430494,0.80748165,0.12108418
0.056,1.4711254,-0.26124692,-0.9396051,0.37356812,0.79247236,0.13677002
0.058,1.5601885,-0.22671916,-1.0895823,0.36185974,0.7702831,0.15232503
0.06,1.6441088,-0.18753088,-1.2389706,0.34901106,0.7402984,0.16779956
0.062,1.7217433,-0.1444852,-1.3858353,0.33488098,0.7020481,0.1832344
0.064,1.7923646,-0.09835422,-1.5281955,0.31933725,0.6552547,0.19866703
0.066,1.8550506,-0.05008217,-1.6640631,0.30229145,0.59990305,0.21409994
0.068,1.9087012,-0.000323534,-1.791525,0.2836948,0.53632075,0.22950809
0.07,1.9528449,0.049674578,-1.9083916,0.26356834,0.46514386,0.24485213
0.072,1.9868677,0.098776996,-2.0129716,0.24199113,0.38727838,0.2600671
0.074,2.0095503,0.14631802,-2.1039171,0.21914437,0.30390012,0.2750533
0.076,2.020479,0.19148535,-2.1796613,0.19529925,0.21639122,0.28971112
0.078,2.0191586,0.2333214,-2.2386787,0.1707854,0.12626873,0.30395806
0.08,2.0050015,0.2715107,-2.280168,0.14603,0.035107687,0.31772554
0.082,1.977825,0.3054765,-2.3038619,0.12149559,-0.055532858,0.3309552
0.084,1.937806,0.33484766,-2.3093052,0.09768711,-0.14414905,0.34365186
0.086,1.8847811,0.35932764,-2.2965257,0.075093456,-0.22937295,0.35589397
0.088,1.8188702,0.37887877,-2.2658043,0.05415615,-0.30995867,0.36781657
0.09,1.740673,0.3937496,-2.2177796,0.035237256,-0.38480875,0.37958074
0.092,1.6507053,0.40417522,-2.15337,0.01859609,-0.45297125,0.39132118
0.094,1.5507957,0.41479078,-2.0715365,0.0044015124,-0.5136541,0.4031896
0.096,1.4396207,0.4187771,-1.9781313,-0.007275801,-0.56630397,0.41532663
0.098,1.3192469,0.4200114,-1.8728948,-0.016462537,-0.61063915,0.42783073
0.1,1.190592,0.41918418,-1.7578279,-0.023289174,-0.64668316,0.44069788
0.102,1.0544468,0.4169201,-1.6349366,-0.02797349,-0.6747337,0.4537883
0.104,0.9134215,0.4133092,-1.5054317,-0.030784713,-0.6952062,0.46692485
0.106,0.7677282,0.40930697,-1.3718644,-0.032008704,-0.70851874,0.47999257
0.108,0.61983144,0.405155,-1.235977,-0.032042384,-0.71543795,0.49288234
0.11,0.47057712,0.40137994,-1.1001817,-0.031245118,-0.7167907,0.5052934
0.112,0.3213669,0.39808714,-0.9656769,-0.029894873,-0.7134093,0.5168286
0.114,0.1734623,0.39543372,-0.8333589,-0.028214704,-0.7061478,0.527169
0.116,0.028012112,0.39342964,-0.70374537,-0.026410542,-0.69578385,0.53606075
0.118,-0.11410035,0.39182806,-0.5773425,-0.024663009,-0.68303275,0.5433275
0.12,-0.25167242,0.39033014,-0.45536435,-0.023101307,-0.6685325,0.5488677
0.122,-0.38380235,0.38845924,-0.3393165,-0.021803685,-0.6528389,0.5526528
0.124,-0.50957465,0.38598433,-0.23036513,-0.020825155,-0.63639885,0.55471075
0.126,-0.62835205,0.38252285,-0.12900604,-0.020175822,-0.61952895,0.55513644
0.128,-0.7396034,0.37748313,-0.035377473,-0.019871138,-0.6024854,0.5540751
0.13,-0.84378994,0.37029535,0.050832123,-0.01994548,-0.5854865,0.55167764
0.132,-0.9392514,0.35958886,0.12987262,-0.020456024,-0.56873345,0.54811096
0.134,-1.0258608,0.34513962,0.20098537,-0.02149304,-0.5523842,0.5435711
0.136,-1.103926,0.32722116,0.26372933,-0.023154967,-0.53662413,0.5382402
0.138,-1.1737987,0.30573672,0.3183862,-0.025542006,-0.52168494,0.53229326
0.14,-1.2357061,0.28030613,0.36538896,-0.02876208,-0.5078598,0.5258978
0.142,-1.2898666,0.25094482,0.40497842,-0.032897554,-0.4954989,0.5191848
0.144,-1.3365765,0.21744637,0.43771774,-0.038012512,-0.48498574,0.51226133
0.146,-1.376337,0.18014333,0.463784,-0.044126585,-0.47672486,0.50520056
0.148,-1.4093845,0.13930708,0.48355743,-0.05123827,-0.4711061,0.4980303
0.15,-1.436485,0.095557496,0.49750507,-0.059307218,-0.46844748,0.49073398
0.152,-1.4583127,0.049509913,0.5062089,-0.06824576,-0.4689695,0.48330116
0.154,-1.4752567,0.0017776787,0.5096933,-0.077945754,-0.4727439,0.47570616
0.156,-1.4879646,-0.046804756,0.5084151,-0.08828248,-0.4796799,0.46791238
0.158,-1.496783,-0.09551017,0.5029587,-0.09910123,-0.48954934,0.45988092
0.16,-1.5023947,-0.14348057,0.49378937,-0.110261425,-0.5019582,0.45161673
0.162,-1.505439,-0.1898617,0.4815356,-0.121625744,-0.5163692,0.44314367
0.164,-1.5061805,-0.23385537,0.46653003,-0.13304123,-0.5321094,0.43454328
0.166,-1.5051625,-0.2746987,0.44903886,-0.14436206,-0.54841876,0.4259214
0.168,-1.5027747,-0.3115633,0.42917532,-0.15544614,-0.56449777,0.41739136
0.17,-1.4994465,-0.34384698,0.4071409,-0.16612208,-0.5795762,0.40908587
0.172,-1.4954373,-0.37099585,0.38314342,-0.17618893,-0.59290165,0.40111667
0.174,-1.4911201,-0.39265382,0.3573684,-0.18546936,-0.6038204,0.39359945
0.176,-1.4868827,-0.40835747,0.33004022,-0.19380295,-0.61179984,0.3866266
0.178,-1.4831207,-0.4181432,0.30135316,-0.20104066,-0.61646086,0.380293
0.18,-1.4798636,-0.42180243,0.27142912,-0.20709878,-0.617588,0.37463802
0.182,-1.4774947,-0.41944647,0.24022806,-0.21194367,-0.61511487,0.3696715
0.184,-1.4760232,-0.4112888,0.20761329,-0.21561271,-0.6091198,0.365363
0.186,-1.475522,-0.39768034,0.17355585,-0.21819766,-0.5998021,0.36163792
0.188,-1.4760022,-0.37903565,0.13798898,-0.21986848,-0.587468,0.3583964
0.19,-1.4774916,-0.3560329,0.10094166,-0.22086579,-0.57249755,0.35550955
0.192,-1.4798913,-0.3290221,0.0624153,-0.2214455,-0.55530965,0.35282648
0.194,-1.4832783,-0.2985854,0.022169411,-0.22187223,-0.536356,0.35021383
0.196,-1.4875605,-0.26511684,-0.019687712,-0.22239596,-0.5160819,0.34754288
0.198,-1.4927561,-0.2291072,-0.062969804,-0.22324237,-0.49495313,0.3446939
0.2,-1.4989347,-0.19117972,-0.10738397,-0.22460304,-0.47343922,0.3415804
0.202,-1.5058525,-0.15170284,-0.15269727,-0.22660893,-0.45202494,0.33813792
0.204,-1.5143571,-0.1141215,-0.20036995,-0.22936529,-0.4312063,0.3343336
0.206,-1.5222682,-0.07150546,-0.24559152,-0.2329401,-0.4115038,0.33012444
0.208,-1.5304552,-0.028480887,-0.29067087,-0.23737198,-0.3934274,0.32551393
0.21,-1.5386664,0.014827251,-0.33538505,-0.24268132,-0.3774792,0.32051033
0.212,-1.5466903,0.058465242,-0.37934625,-0.24887225,-0.36412126,0.315109
0.214,-1.5543213,0.10231203,-0.42239815,-0.25595185,-0.35377952,0.3093034
0.216,-1.5612061,0.1463143,-0.46405065,-0.2639348,-0.34683546,0.30307925
0.218,-1.5670849,0.19039819,-0.50392395,-0.27283886,-0.3435561,0.29641685
0.22,-1.5716152,0.23466733,-0.54147625,-0.28268763,-0.34411114,0.2892961
0.222,-1.5745375,0.27914524,-0.5762675,-0.29350373,-0.34856933,0.28169715
0.224,-1.5755008,0.3238534,-0.6076826,-0.30532658,-0.35690403,0.27360657
0.226,-1.5742209,0.36879635,-0.63519025,-0.31819814,-0.36903748,0.26502723
0.228,-1.5700197,0.4138939,-0.65830004,-0.33212104,-0.38480026,0.25597286
0.23,-1.5627466,0.4591552,-0.6764368,-0.34707922,-0.40399474,0.24650054
0.232,-1.5519361,0.50446343,-0.68906355,-0.36303204,-0.42638254,0.2367054
0.234,-1.5374428,0.5497047,-0.69556546,-0.3799087,-0.45166975,0.22673474
0.236,-1.5189118,0.5949883,-0.6958003,-0.39758915,-0.47948587,0.21677646
0.238,-1.496352,0.6402761,-0.68929267,-0.4158796,-0.5093641,0.2070928
0.24,-1.469606,0.6854909,-0.67581606,-0.43453285,-0.5407327,0.19800606
0.242,-1.4385736,0.73055184,-0.65519416,-0.45321465,-0.5729103,0.18989009
0.244,-1.4034745,0.77548593,-0.62731194,-0.4715204,-0.6050648,0.18319014
0.246,-1.3643175,0.8202292,-0.5918603,-0.4889882,-0.6362801,0.17838076
0.248,-1.3213223,0.8646865,-0.5488328,-0.50510496,-0.66556793,0.17593
0.25,-1.2745185,0.9087441,-0.4984555,-0.519367,-0.6919071,0.17630643
0.252,-1.2242675,0.95252335,-0.44082153,-0.5312896,-0.7142618,0.17991236
0.254,-1.1710238,0.9960307,-0.37621874,-0.54043424,-0.7316468,0.1870575
0.256,-1.1150569,1.0393674,-0.3050129,-0.5464468,-0.7431706,0.19794124
0.258,-1.0568802,1.0826254,-0.22789276,-0.5490396,-0.7480766,0.21265209
0.26,-0.996819,1.1257786,-0.14565885,-0.54803365,-0.7457707,0.23115033
0.262,-0.93509454,1.1689355,-0.05915129,-0.5433442,-0.7358638,0.25326863
0.264,-0.8722789,1.2122679,0.030981958,-0.5349804,-0.71817625,0.27875894
0.266,-0.80871683,1.2556436,0.12402192,-0.52304834,-0.69271326,0.30731645
0.268,-0.7449516,1.2992673,0.21891648,-0.507718,-0.6596637,0.33861005
0.27,-0.6811255,1.343079,0.31478605,-0.48921597,-0.6193569,0.37230968
0.272,-0.6174464,1.3870786,0.41059962,-0.46782142,-0.57227486,0.40810126
0.274,-0.5540714,1.4311543,0.5052579,-0.44385326,-0.51899487,0.44572937
0.276,-0.49100053,1.4749863,0.59771794,-0.41763657,-0.4601515,0.48497167
0.278,-0.42865324,1.518514,0.68698657,-0.38951635,-0.3964116,0.5256368
0.28,-0.3666023,1.5613279,0.7725549,-0.35984707,-0.32849532,0.56754553
0.282,-0.30553228,1.6036509,0.85434735,-0.32898712,-0.25713426,0.61052746
0.284,-0.24593592,1.645266,0.93173873,-0.2972936,-0.18304361,0.654377
0.286,-0.18769646,1.6860815,1.0033545,-0.26510844,-0.106912956,0.69886065
0.288,-0.13117623,1.7263798,1.0679094,-0.23274404,-0.029462371,0.7437207
0.29,-0.07677734,1.7662259,1.1256235,-0.20054136,0.048580028,0.7886493
0.292,-0.025171459,1.8060783,1.177589,-0.16884378,0.12652425,0.8332929
0.294,0.022742748,1.8463266,1.2239132,-0.13797161,0.20375597,0.8772962
0.296,0.06724757,1.8868321,1.2656662,-0.10824016,0.2797044,0.9203366
0.298,0.106872916,1.9281433,1.3043933,-0.0799385,0.35387468,0.9621546
0.3,0.13977873,1.9707586,1.3382218,-0.053295344,0.42592335,1.0025915
0.302,0.16703546,2.0141227,1.3666415,-0.028441846,0.49562818,1.0415715
0.304,0.18846244,2.058648,1.3904514,-0.0053983927,0.5628821,1.0791068
0.306,0.20335144,2.1048613,1.4108052,0.015918314,0.62769544,1.115323
0.308,0.21067917,2.1529021,1.4292351,0.0356887,0.69017667,1.1504409
0.31,0.20947856,2.2027793,1.4469671,0.054183125,0.7505242,1.1847172
0.312,0.1992768,2.2544923,1.4651558,0.071716785,0.809046,1.2183467
0.314,0.17942,2.3082106,1.4848394,0.088674664,0.8662429,1.2515168
0.316,0.14917302,2.3645115,1.5070727,0.105472445,0.92276925,1.2844195
0.318,0.10766244,2.4238024,1.5327764,0.12250489,0.9792857,1.317176
0.32,0.05453801,2.4862254,1.5625012,0.14007902,1.0363151,1.3498006
0.322,-0.010380864,2.5516834,1.596386,0.15843701,1.0943937,1.3822455
0.324,-0.08695245,2.61978,1.6345608,0.1777417,1.1541598,1.4144173
0.326,-0.17498136,2.689969,1.6768857,0.19800329,1.2160664,1.4461207
0.328,-0.27398503,2.7613077,1.7231004,0.21908021,1.2804384,1.4770982
0.33,-0.3828931,2.8324056,1.7736819,0.24082583,1.3477628,1.5071307
0.332,-0.50154614,2.9025285,1.8279293,0.26298684,1.4181868,1.5361905
0.334,-0.6284273,2.9700794,1.8835881,0.28526926,1.4915407,1.564287
0.336,-0.7611158,3.0334325,1.9390686,0.30744988,1.5676562,1.5912521
0.338,-0.8985318,3.091432,1.9940379,0.3293925,1.646449,1.6168408
0.34,-1.0382252,3.1422737,2.0477386,0.35102057,1.7278724,1.6408104
0.342,-1.1805282,3.1847456,2.1003268,0.37234235,1.8119466,1.6630149
0.344,-1.3225627,3.2168994,2.150306,0.39352638,1.8986863,1.683389
0.346,-1.4624388,3.237377,2.196933,0.41486877,1.9881101,1.7019286
0.348,-1.59839,3.24517,2.2394314,0.4367537,2.080199,1.7186899
0.35,-1.7288027,3.2393289,2.277073,0.45961714,2.1748989,1.7338192
0.352,-1.8519586,3.2190082,2.3089063,0.48382062,2.2720447,1.7475656
0.354,-1.9662019,3.183372,2.3342078,0.50956345,2.3712366,1.7602553
0.356,-2.0706244,3.1321695,2.352332,0.53677636,2.4717824,1.7722685
0.358,-2.1642535,3.0654368,2.3631234,0.5650553,2.572663,1.7839302
0.36,-2.2466092,2.9834654,2.3667362,0.593576,2.6724236,1.795418
0.362,-2.3173,2.8867557,2.3632588,0.6211626,2.7693267,1.8067036
0.364,-2.3759143,2.7759383,2.3533094,0.6464014,2.8613899,1.8175755
0.366,-2.422319,2.6518667,2.3376348,0.6677872,2.9462926,1.8276515
0.368,-2.4566162,2.5155513,2.317717,0.68388855,3.0215552,1.8362188
0.37,-2.4792147,2.3684325,2.295207,0.69349563,3.0845857,1.8422263
0.372,-2.490681,2.2117426,2.2716773,0.6958366,3.1332214,1.8445812
0.374,-2.4913988,2.0468535,2.2487278,0.6906475,3.1657548,1.8423785
0.376,-2.481945,1.875287,2.2278004,0.6780746,3.180823,1.8348639
0.378,-2.4630234,1.6984842,2.2105045,0.65880203,3.1777027,1.8214872
0.38,-2.435439,1.5179865,2.1983008,0.63402045,3.156722,1.8019998
0.382,-2.3997624,1.335196,2.1924975,0.60528725,3.1191452,1.7764533
0.384,-2.3567603,1.1515415,2.1941493,0.5742666,3.0669389,1.7451954
0.386,-2.307172,0.96862423,2.2035565,0.5427736,3.0032496,1.7087436
0.388,-2.2511725,0.78757995,2.2204444,0.5126022,2.9321163,1.6679097
0.39,-2.1898053,0.61004627,2.243746,0.4854054,2.8579974,1.6238236
0.392,-2.1228213,0.43687096,2.2716272,0.46271384,2.785631,1.5776653
0.394,-2.050291,0.26947898,2.302268,0.44595325,2.7198865,1.5305297
0.396,-1.972863,0.10868521,2.3337722,0.43636847,2.6654935,1.4833992
0.398,-1.8901435,-0.04493649,2.3640518,0.4349934,2.6267145,1.4372001
0.4,-1.8024379,-0.1902602,2.3892968,0.4426039,2.607022,1.3927639
0.402,-1.7093427,-0.32689962,2.4052973,0.4596758,2.6088035,1.3508217
0.404,-1.6106238,-0.4544791,2.4089255,0.48631966,2.6331418,1.3119054
0.406,-1.5074909,-0.5717992,2.3959343,0.5222606,2.679696,1.2763367
0.408,-1.4001088,-0.6783133,2.3616743,0.5667678,2.7467465,1.2441735
0.41,-1.2882004,-0.7733563,2.3056989,0.61866677,2.831265,1.2151909
0.412,-1.1742103,-0.8554478,2.2276185,0.6763488,2.9290934,1.1888843
0.414,-1.058809,-0.9241976,2.1271968,0.7378754,3.0352986,1.16449
0.416,-0.9420498,-0.97965735,2.0037827,0.80104846,3.14441,1.1410353
0.418,-0.8226915,-1.022179,1.856949,0.8635961,3.250832,1.117414
0.42,-0.6999668,-1.0520546,1.688864,0.9233317,3.3493562,1.0924649
0.422,-0.5749049,-1.0697794,1.5028677,0.9783255,3.4353888,1.0651264
0.424,-0.44774258,-1.0764014,1.3022751,1.0271068,3.5053916,1.034476
0.426,-0.31842446,-1.0730629,1.0899868,1.0687675,3.5568416,0.9997858
0.428,-0.1871277,-1.0605184,0.8693521,1.10289,3.5883882,0.96045667
0.43,-0.05435458,-1.0393612,0.6445816,1.1295999,3.6000144,0.9161328
0.432,0.07952532,-1.0100485,0.42024085,1.149432,3.5928195,0.86686546
0.434,0.21418537,-0.9728325,0.20082179,1.1631994,3.5687528,0.8130703
0.436,0.34955576,-0.9280971,-0.009570487,1.171905,3.530511,0.7554141
0.438,0.4857599,-0.87612,-0.20700896,1.1767206,3.4812481,0.69472975
0.44,0.62263197,-0.8173431,-0.38864458,1.1787913,3.4241045,0.6319994
0.442,0.76126903,-0.7529093,-0.5505521,1.179101,3.3619187,0.5682579
0.444,0.90161574,-0.6834748,-0.68888533,1.1784797,3.2972174,0.5044981
0.446,1.0434626,-0.61001265,-0.8017138,1.1775795,3.2321906,0.4416163
0.448,1.1881784,-0.53396195,-0.88930684,1.17676,3.168343,0.3804034
0.45,1.3363023,-0.4566611,-0.95128036,1.1760473,3.1063116,0.32145476
0.452,1.4910096,-0.37997478,-0.987598,1.175159,3.0460193,0.26511025
0.454,1.6513551,-0.3048795,-0.9966746,1.1735256,2.9867349,0.2114886
0.456,1.8171633,-0.23289983,-0.9786852,1.170324,2.9271595,0.1604752
0.458,1.9888022,-0.16566049,-0.93498087,1.1645087,2.8655865,0.11175656
0.46,2.1666255,-0.10432682,-0.8669516,1.1548864,2.8001676,0.064813435
0.462,2.3506513,-0.049984574,-0.7756657,1.1401771,2.729131,0.018988907
0.464,2.540312,-0.003251627,-0.6624466,1.1191305,2.651036,-0.026392102
0.466,2.7340527,0.035293132,-0.5274942,1.0906745,2.5649393,-0.07198727
0.468,2.929174,0.065312296,-0.3706398,1.0540057,2.4704523,-0.11835849
0.47,3.1253157,0.08631995,-0.19683576,1.0086906,2.367738,-0.16588527
0.472,3.3241622,0.09782544,-0.014003158,0.9547293,2.2574778,-0.21472692
0.474,3.526246,0.10003096,0.17380214,0.892611,2.1407442,-0.26473892
0.476,3.726571,0.094869465,0.366951,0.8232783,2.0188038,-0.3154954
0.478,3.9196224,0.08399227,0.56544256,0.74802935,1.8929048,-0.36632103
0.48,4.103028,0.068276554,0.76545405,0.66833204,1.7640848,-0.4164945
0.482,4.276063,0.0498783,0.9606905,0.5858008,1.6332113,-0.46519887
0.484,4.436552,0.03238207,1.1459534,0.5019143,1.5008005,-0.51162434
0.486,4.5810223,0.01998365,1.3194283,0.4178567,1.3671163,-0.5551757
0.488,4.7057214,0.016278088,1.4809073,0.3345706,1.23236,-0.59543765
0.49,4.807244,0.024435878,1.6293854,0.2526909,1.0965749,-0.6321509
0.492,4.8829184,0.047747135,1.762794,0.1725971,0.95977217,-0.66526234
0.494,4.9312997,0.089628994,1.879007,0.094564244,0.8220835,-0.6949118
0.496,4.951374,0.15315866,1.9769585,0.01877658,0.68354857,-0.72143316
0.498,4.9424214,0.24091822,2.0571432,-0.05463852,0.5442403,-0.7451985
0.5,4.90371,0.3546098,2.1202362,-0.12530388,0.4046868,-0.7664623
0.502,4.8349752,0.49552572,2.1669855,-0.19245681,0.26568326,-0.78534204
0.504,4.7370257,0.6638811,2.197905,-0.25509724,0.12792009,-0.80193126
0.506,4.6117706,0.8595585,2.2140272,-0.31196007,-0.007651925,-0.8165291
0.508,4.46095,1.0814459,2.2164767,-0.36153316,-0.13937306,-0.82961416
0.51,4.2871256,1.3272552,2.2070646,-0.4022125,-0.26498085,-0.84149814
0.512,4.093055,1.5942285,2.1880455,-0.43234482,-0.38196397,-0.8521663
0.514,3.882217,1.878803,2.16139,-0.45022058,-0.4877175,-0.8615452
0.516,3.6587517,2.1763546,2.1294687,-0.454118,-0.5795335,-0.8697678
0.518,3.4276664,2.4815469,2.0953727,-0.44248614,-0.6547233,-0.8771647
0.52,3.192934,2.7886298,2.0615947,-0.41420284,-0.7108418,-0.8839905
0.522,2.9583046,3.0913417,2.0297127,-0.3687753,-0.74598217,-0.8902875
0.524,2.7273564,3.3835237,2.0010142,-0.3064593,-0.75901246,-0.8959161
0.526,2.5036197,3.659368,1.9780843,-0.22831091,-0.7497261,-0.90069366
0.528,2.289087,3.9138741,1.9637171,-0.13618636,-0.7189129,-0.9044981
0.53,2.0862663,4.1420403,1.95954,-0.03265339,-0.6682327,-0.9072554
0.532,1.8981147,4.339322,1.9672375,0.07915953,-0.60010475,-0.90895003
0.534,1.7264017,4.50184,1.9892232,0.19577089,-0.51756746,-0.90960926
0.536,1.5718747,4.626247,2.0279918,0.31360072,-0.42418677,-0.9093987
0.538,1.4350172,4.710139,2.085016,0.4292158,-0.32384676,-0.9086361
0.54,1.3159614,4.7520285,2.1602504,0.5394776,-0.22055131,-0.90781695
0.542,1.2139218,4.75163,2.253116,0.6416447,-0.11813691,-0.90754527
0.544,1.127916,4.709553,2.362593,0.73348886,-0.02002909,-0.9083917
0.546,1.0560174,4.6279373,2.4869134,0.81328475,0.07076774,-0.9107597
0.548,0.9965093,4.509769,2.6228566,0.8798567,0.15173376,-0.9148704
0.55,0.9475435,4.3592405,2.7670722,0.93262184,0.22106414,-0.9207022
0.552,0.9068991,4.181308,2.9160757,0.97151107,0.2774715,-0.9280969
0.554,0.87242746,3.9815621,3.0665789,0.9968276,0.32017413,-0.9367847
0.556,0.8422266,3.765901,3.2149951,1.0093215,0.34937283,-0.9463074
0.558,0.8149719,3.540343,3.3576617,1.0103104,0.36622307,-0.955943
0.56,0.78889036,3.3110805,3.4902089,1.0014803,0.3720678,-0.96472746
0.562,0.7626629,3.0841522,3.60776,0.98485917,0.3682953,-0.9717659
0.564,0.73594034,2.8650432,3.7057707,0.9627452,0.35667193,-0.9765941
0.566,0.708519,2.658803,3.7808857,0.9374888,0.33939087,-0.9790684
0.568,0.68030334,2.4696245,3.8310149,0.9112518,0.3187024,-0.9789738
0.57,0.6512033,2.3010542,3.8544428,0.8859482,0.29658064,-0.97597396
0.572,0.6210003,2.15596,3.849717,0.86320007,0.27455696,-0.96986127
0.574,0.59067965,2.035961,3.8165889,0.8443352,0.25370327,-0.9607798
0.576,0.5610194,1.9418378,3.7546494,0.83032393,0.23475671,-0.9492221
0.578,0.532866,1.8737063,3.6642559,0.82166433,0.21800387,-0.9358816
0.58,0.5057173,1.8310683,3.5498464,0.81832844,0.20315179,-0.92150754
0.582,0.47808003,1.812685,3.4180038,0.81984246,0.18938464,-0.9069172
0.584,0.4495932,1.8164396,3.2719495,0.8253788,0.17548662,-0.8930533
0.586,0.42416704,1.8381945,3.1123912,0.83384454,0.15996537,-0.8809458
0.588,0.40511847,1.8740911,2.9415174,0.8439728,0.14123231,-0.871627
0.59,0.39209163,1.9208596,2.7664993,0.8544702,0.11779853,-0.866011
0.592,0.38296866,1.974402,2.596602,0.8641178,0.088416174,-0.86477005
0.594,0.37724936,2.0297966,2.4381552,0.8718928,0.052175354,-0.8682967
0.596,0.37584746,2.0824132,2.2936256,0.8770741,0.008638106,-0.87671465
0.598,0.37941074,2.1290915,2.1649728,0.879225,-0.042081915,-0.8898996
0.6,0.38754773,2.1676,2.0557387,0.87822914,-0.09920548,-0.9074674
0.602,0.39881676,2.1959887,1.9705799,0.87423277,-0.1613352,-0.92881024
0.604,0.410963,2.2126374,1.9126852,0.8676008,-0.22658254,-0.95318806
0.606,0.4227208,2.2163568,1.883697,0.85888493,-0.29261577,-0.9797552
0.608,0.43162948,2.2074757,1.8833809,0.84878165,-0.35676867,-1.0075728
0.61,0.43671703,2.186862,1.9105647,0.83816504,-0.4160759,-1.0355992
0.612,0.4365399,2.156345,1.9629352,0.8279933,-0.46766177,-1.062725
0.614,0.42961466,2.1182966,2.037908,0.8192774,-0.5087846,-1.0878725
0.616,0.41459382,2.0750568,2.1319294,0.81304187,-0.5368758,-1.1099954
0.618,0.39050937,2.0290942,2.240251,0.8102799,-0.54968774,-1.1280423
0.62,0.35703385,1.983138,2.3572319,0.81185144,-0.54555464,-1.1410439
0.622,0.3142172,1.9400983,2.4773703,0.8185017,-0.52336776,-1.1482613
0.624,0.26240504,1.9028502,2.5957174,0.8308577,-0.48254818,-1.1491942
0.626,0.20206845,1.8738003,2.7067318,0.8493931,-0.42314988,-1.143594
0.628,0.13397884,1.8550162,2.8046362,0.8743403,-0.34601486,-1.1315199
0.63,0.05971551,1.8481561,2.8839378,0.90572107,-0.25272238,-1.1133612
0.632,-0.01873374,1.8544978,2.940142,0.94332975,-0.14543305,-1.0898106
0.634,-0.09929454,1.8745456,2.9704864,0.9867408,-0.026766196,-1.0617708
0.636,-0.17996109,1.9081424,2.972761,1.0352423,0.10008864,-1.0302842
0.638,-0.25753748,1.9541059,2.9453163,1.0878664,0.23149768,-0.9964926
0.64,-0.32860386,2.0106373,2.887576,1.1434724,0.36362278,-0.9615897
0.642,-0.38991392,2.0753045,2.8000417,1.2007387,0.49247754,-0.92680216
0.644,-0.4381137,2.1450963,2.684562,1.2581661,0.6140332,-0.8933564
0.646,-0.47056496,2.2169452,2.5438828,1.3142124,0.7244327,-0.8624473
0.648,-0.48458576,2.2872546,2.3814418,1.3673629,0.8202398,-0.83511764
0.65,-0.47809327,2.3524318,2.2013946,1.4161383,0.8984132,-0.8122374
0.652,-0.44906616,2.409087,2.0076718,1.4591323,0.9563552,-0.7945319
0.654,-0.3962288,2.4540591,1.804687,1.4951186,0.99212897,-0.78262436
0.656,-0.31867552,2.484271,1.597537,1.5231044,1.0045753,-0.776953
0.658,-0.21651942,2.4971268,1.3922275,1.5423809,0.99330044,-0.7777294
0.66,-0.09040159,2.4906087,1.1938863,1.5525162,0.95861876,-0.7848955
0.662,0.05875945,2.4633746,1.0067227,1.5533727,0.9015307,-0.79813516
0.664,0.22913343,2.414928,0.8343817,1.5451171,0.82373244,-0.8168511
0.666,0.41831276,2.3458793,0.67990494,1.5282773,0.72776175,-0.8401059
0.668,0.62319565,2.2576551,0.54574025,1.5036964,0.61668164,-0.8665963
0.67,0.84100056,2.152232,0.43365932,1.472509,0.49378037,-0.89480686
0.672,1.0684485,2.0320418,0.34463143,1.4361027,0.3626079,-0.92317504
0.674,1.3021345,1.9000518,0.2786408,1.3960562,0.22696726,-0.9501519
0.676,1.538815,1.7593521,0.23487687,1.353973,0.09063693,-0.9742602
0.678,1.7750108,1.6137917,0.21160674,1.3113955,-0.042840905,-0.9942082
0.68,2.0072737,1.4669447,0.20637059,1.2698374,-0.17019102,-1.0089927
0.682,2.2328827,1.3223646,0.21614707,1.2308083,-0.28838125,-1.0179211
0.684,2.4487903,1.1837387,0.23738801,1.1957345,-0.3948316,-1.0206201
0.686,2.6531725,1.0542452,0.26649368,1.1659256,-0.48748606,-1.0170362
0.688,2.8442278,0.9367034,0.3002839,1.1425331,-0.5647635,-1.0073997
0.69,3.0194044,0.83365625,0.3367175,1.1265088,-0.62547994,-0.9921011
0.692,3.1766136,0.747037,0.37308228,1.1185912,-0.668919,-0.9716153
0.694,3.3152268,0.67799586,0.40571177,1.1192199,-0.6948082,-0.9464454
0.696,3.4351425,0.6272872,0.43168616,1.1285738,-0.7032811,-0.917072
0.698,3.5354614,0.59531176,0.44981408,1.1465381,-0.69488543,-0.8839731
0.7,3.615933,0.5816365,0.45925725,1.1726632,-0.67065275,-0.8476799
0.702,3.67689,0.5849368,0.45955384,1.2062382,-0.6320447,-0.8087996
0.704,3.7192218,0.6034302,0.45158696,1.2463349,-0.58078235,-0.768002
0.706,3.7432961,0.63521165,0.4369204,1.2918428,-0.5188242,-0.72592384
0.708,3.7493713,0.67804235,0.4170786,1.3414509,-0.44843775,-0.68318164
0.71,3.7377944,0.729505,0.39400816,1.3937294,-0.37211034,-0.6404064
0.712,3.7091646,0.78720444,0.37012815,1.4471838,-0.29238164,-0.5982082
0.714,3.6641612,0.84881926,0.3488145,1.5003494,-0.2117822,-0.5571854
0.716,3.6030486,0.912391,0.33316433,1.551849,-0.13278694,-0.51785207
0.718,3.5270715,0.97542864,0.3263762,1.600437,-0.05783558,-0.48064035
0.72,3.4362166,1.036207,0.33172154,1.6450438,0.010760754,-0.44594568
0.722,3.3307211,1.0926528,0.35195625,1.6848072,0.07094814,-0.41415372
0.724,3.210905,1.1429756,0.3891393,1.7190816,0.12109235,-0.38564292
0.726,3.0766296,1.1865191,0.44531763,1.7474548,0.15998122,-0.3607542
0.728,2.9280953,1.2232196,0.52273667,1.7697388,0.1868709,-0.33980805
0.73,2.7652926,1.2530289,0.62346995,1.7859623,0.20150918,-0.323107
0.732,2.5882857,1.2760566,0.74841774,1.7963632,0.2042411,-0.31093484
0.734,2.3970995,1.2926368,0.8974944,1.801359,0.19598565,-0.30351245
0.736,2.1920907,1.3035688,1.0701847,1.8014939,0.17814708,-0.30092317
0.738,1.9737811,1.3096923,1.265607,1.797451,0.15257964,-0.30313385
0.74,1.7426894,1.3122362,1.4819497,1.7900444,0.12149599,-0.309964
0.742,1.4993439,1.3123548,1.7166066,1.7801793,0.08732721,-0.3210472
0.744,1.2443111,1.3114146,1.9666047,1.7688168,0.05261922,-0.3358446
0.746,0.978365,1.3110147,2.2288947,1.7568264,0.019878149,-0.35368025
0.748,0.70175785,1.312834,2.5005255,1.7449763,-0.008504361,-0.37379673
0.75,0.41496563,1.3183273,2.7780757,1.7339416,-0.030215621,-0.3953865
0.752,0.119371176,1.3289261,3.057692,1.7242895,-0.043168485,-0.4175683
0.754,-0.18372321,1.3457105,3.3352122,1.7165025,-0.045683682,-0.4393797
0.756,-0.49239886,1.3694928,3.6067357,1.7109436,-0.036587194,-0.45989254
0.758,-0.80493534,1.4009708,3.868718,1.7078998,-0.015153483,-0.4783164
0.76,-1.1194824,1.4405674,4.1177897,1.7075595,0.018901706,-0.4941037
0.762,-1.4339417,1.4882993,4.3510003,1.7099357,0.06532931,-0.50696886
0.764,-1.7461407,1.5440785,4.5655355,1.7149223,0.12337643,-0.5169399
0.766,-2.0532835,1.6074157,4.758847,1.7223191,0.19182995,-0.52435386
0.768,-2.3527608,1.6778741,4.9287806,1.7318664,0.26908758,-0.5298132
0.77,-2.641652,1.7544228,5.073947,1.7432747,0.35329348,-0.53415143
0.772,-2.9169667,1.8358225,5.19354,1.7562577,0.44248012,-0.5383464
0.774,-3.1754909,1.920515,5.2873955,1.7705789,0.53464276,-0.54338735
0.776,-3.4140787,2.0067453,5.3558426,1.786092,0.62791395,-0.5501525
0.778,-3.6295557,2.0925374,5.3995137,1.8027602,0.72068655,-0.5592705
0.78,-3.8189747,2.1759167,5.419384,1.8206619,0.81169546,-0.57108814
0.782,-3.9795556,2.255002,5.416798,1.8399503,0.9000292,-0.5856445
0.784,-4.1088223,2.3277993,5.393524,1.8608023,0.98512626,-0.60270524
0.786,-4.204505,2.392559,5.351656,1.8833953,1.0666924,-0.6217838
0.788,-4.2648168,2.4474022,5.293317,1.9078574,1.1446469,-0.64223725
0.79,-4.2881436,2.490878,5.220707,1.9342573,1.2189718,-0.6633683
0.792,-4.2732077,2.521307,5.1361217,1.9625663,1.2896166,-0.6844644
0.794,-4.2193947,2.537487,5.0418253,1.9926536,1.3564522,-0.70491
0.796,-4.1264224,2.538609,4.9398813,2.024288,1.4191809,-0.7242536
0.798,-3.9944837,2.5239754,4.8324714,2.0571342,1.4773662,-0.7422008
0.8,-3.8243055,2.49316,4.721379,2.0907855,1.530448,-0.75852615
0.802,-3.6170855,2.4463267,4.60826,2.1247714,1.577775,-0.7730725
0.804,-3.3745337,2.3839495,4.494604,2.158517,1.6186062,-0.78577
0.806,-3.0987892,2.306779,4.3818674,2.191401,1.6522021,-0.79668343
0.808,-2.7923396,2.2159715,4.27111,2.2227845,1.6779807,-0.8060287
0.81,-2.458109,2.112894,4.163151,2.2521145,1.6955326,-0.8140639
0.812,-2.0990229,1.999252,4.058625,2.2789497,1.7045724,-0.8210257
0.814,-1.7186487,1.8769842,3.9580472,2.3029876,1.7049356,-0.8271693
0.816,-1.3200448,1.7480265,3.8619046,2.324095,1.6966538,-0.8327773
0.818,-0.90639937,1.6143818,3.7705765,2.342268,1.6799884,-0.8381397
0.82,-0.4809395,1.4781771,3.6838956,2.3576434,1.6554399,-0.8435403
0.822,-0.046783805,1.3413485,3.6014733,2.3704739,1.6237255,-0.849214
0.824,0.39295268,1.2058108,3.5230083,2.3811173,1.5857179,-0.85527116
0.826,0.8346732,1.0733654,3.4485078,2.3900318,1.5424701,-0.86172223
0.828,1.2755648,0.94596434,3.3777435,2.397749,1.4952254,-0.8684686
0.83,1.7130511,0.8251108,3.310846,2.4048312,1.4453263,-0.8753195
0.832,2.1447546,0.712486,3.2480662,2.411817,1.3941231,-0.8820207
0.834,2.5679765,0.6097343,3.1892495,2.4192207,1.3429534,-0.8882546
0.836,2.9806938,0.51770663,3.1334522,2.427514,1.2931497,-0.8936311
0.838,3.3813646,0.43682933,3.0791087,2.4371336,1.2459664,-0.8977421
0.84,3.7683523,0.36749125,3.0252614,2.4484046,1.2024586,-0.9001951
0.842,4.1400905,0.31003737,2.9714327,2.4615693,1.1634486,-0.90065515
0.844,4.495231,0.26428747,2.9176595,2.4767709,1.1295462,-0.89884835
0.846,4.832572,0.23003316,2.864113,2.4940624,1.1010929,-0.89459234
0.848,5.150916,0.20690346,2.8104696,2.5134144,1.0781611,-0.8878244
0.85,5.449307,0.19407964,2.7566016,2.534719,1.0605695,-0.87857944
0.852,5.727159,0.19066477,2.7025533,2.5578163,1.0478585,-0.8669773
0.854,5.9837947,0.1956191,2.6481838,2.5825276,1.0393515,-0.8532037
0.856,6.2187133,0.2076757,2.5939035,2.6086066,1.0341616,-0.83748835
0.858,6.431369,0.22544074,2.540045,2.6357892,1.0312676,-0.8200221
0.86,6.6212707,0.24798584,2.486899,2.6637964,1.0295827,-0.80095756
0.862,6.7879944,0.27383566,2.4349601,2.6923478,1.027952,-0.78038913
0.864,6.93145,0.30196595,2.3850102,2.7211494,1.0251821,-0.7583802
0.866,7.051856,0.33091855,2.338104,2.7499316,1.0201106,-0.7349375
0.868,7.149269,0.3593316,2.2952065,2.7784762,1.0116963,-0.71003574
0.87,7.224067,0.3858595,2.2573836,2.8066127,0.9990675,-0.68364775
0.872,7.276735,0.40911555,2.2257051,2.8341947,0.9815256,-0.6557838
0.874,7.3080072,0.42789555,2.201309,2.8610847,0.9585718,-0.6265051
0.876,7.318485,0.44125485,2.1848822,2.8871439,0.9299757,-0.59591484
0.878,7.3089333,0.44828558,2.1769383,2.9122493,0.8957902,-0.5641759
0.88,7.280476,0.44828057,2.1779206,2.936271,0.8562571,-0.5314871
0.882,7.2340684,0.4407735,2.1882286,2.9590476,0.81174487,-0.49809283
0.884,7.170891,0.42574525,2.2081592,2.9804204,0.7627615,-0.464265
0.886,7.0919023,0.40312433,2.2380571,3.000258,0.7099212,-0.43030083
0.888,6.9981837,0.37336707,2.2778509,3.0184298,0.65386224,-0.39650977
0.89,6.8908186,0.33693004,2.3272352,3.0348446,0.59513915,-0.36321694
0.892,6.7710924,0.2945392,2.38557,3.0494225,0.5341997,-0.3307504
0.894,6.6405087,0.2469244,2.4521518,3.062146,0.47143728,-0.29944485
0.896,6.500353,0.19495559,2.5260384,3.0730479,0.40720797,-0.26960242
0.898,6.3519278,0.13952947,2.606423,3.082222,0.34177387,-0.2415235
0.9,6.196499,0.08170438,2.6924825,3.0898335,0.2753741,-0.21543217
0.902,6.0352674,0.022632599,2.7831388,3.096105,0.20823288,-0.19150037
0.904,5.869552,-0.0369277,2.8772242,3.1013184,0.14059621,-0.16984874
0.906,5.700738,-0.09637356,2.9737074,3.1058085,0.07274699,-0.15056187
0.908,5.530094,-0.15497756,3.0713627,3.1099267,0.0050328374,-0.1336503
0.91,5.3588,-0.2122078,3.169338,3.1140842,-0.06211531,-0.11905736
0.912,5.1881537,-0.26783252,3.2667906,3.118676,-0.12826866,-0.10666138
0.914,5.019307,-0.32164073,3.3630261,3.124063,-0.19300836,-0.09629053
0.916,4.8532443,-0.3735137,3.4575262,3.1305475,-0.25593406,-0.08773744
0.918,4.690985,-0.4236238,3.5498774,3.1383624,-0.31668139,-0.08074796
0.92,4.5332007,-0.4720893,3.6397226,3.1476536,-0.3749385,-0.07505751
0.922,4.3806324,-0.5193069,3.726752,3.1584723,-0.4305032,-0.070366144
0.924,4.2339144,-0.56578684,3.8104668,3.1707742,-0.4832868,-0.06636384
0.926,4.093611,-0.6120677,3.8906825,3.184444,-0.5333188,-0.06274697
0.928,3.9600499,-0.6586027,3.9670062,3.1993163,-0.58070076,-0.05925554
0.93,3.8334422,-0.70590043,4.0393367,3.2152197,-0.62560636,-0.055664122
0.932,3.7138314,-0.7543719,4.1072097,3.2319562,-0.6682613,-0.051803857
0.934,3.6013007,-0.8045089,4.1704116,3.249338,-0.7088811,-0.047552824
0.936,3.4960425,-0.8567016,4.228673,3.267218,-0.74767864,-0.042843908
0.938,3.3978505,-0.91131544,4.2816687,3.2854855,-0.78487515,-0.037676632
0.94,3.3066463,-0.9685676,4.329046,3.3040385,-0.8206828,-0.032066733
0.942,3.2224956,-1.0287619,4.370764,3.322815,-0.85531163,-0.026058242
0.944,3.1453815,-1.0920035,4.4069405,3.3417442,-0.88897675,-0.019715518
0.946,3.0754337,-1.158422,4.4376097,3.3607757,-0.92192566,-0.01310429
0.948,3.012577,-1.2280747,4.4629993,3.3798316,-0.95445687,-0.0062933266
0.95,2.957124,-1.3009079,4.4830327,3.398834,-0.98692715,0.0006556213
0.952,2.9092498,-1.3771528,4.497718,3.417719,-1.019696,0.0076954365
0.954,2.869375,-1.4566274,4.507155,3.4364424,-1.053133,0.014753163
0.956,2.8380692,-1.5393598,4.511887,3.455005,-1.0875793,0.0217835
0.958,2.8159032,-1.62553,4.5122757,3.4734595,-1.1233181,0.028727755
0.96,2.8035738,-1.7151707,4.508783,3.4919133,-1.1605277,0.03554426
0.962,2.8018074,-1.8084222,4.5016117,3.5105393,-1.1992676,0.04218749
0.964,2.8116841,-1.9055537,4.4911633,3.529539,-1.2394868,0.048623003
0.966,2.8336494,-2.006679,4.477728,3.5491252,-1.2809812,0.054810002
0.968,2.868419,-2.1117165,4.4616637,3.5695121,-1.3234358,0.06075675
0.97,2.9169333,-2.2211037,4.4429493,3.5908778,-1.3664832,0.06652189
0.972,2.9800386,-2.3348913,4.421835,3.6133306,-1.4097778,0.07217358
0.974,3.0584755,-2.4533107,4.398276,3.6369138,-1.4530293,0.07780341
0.976,3.1525636,-2.5763452,4.372202,3.661572,-1.4960521,0.08351786
0.978,3.2627532,-2.704113,4.3437576,3.6871624,-1.5387888,0.089401625
0.98,3.389201,-2.836379,4.312785,3.7134929,-1.58131,0.09554905
0.982,3.5319362,-2.9729235,4.279143,3.740319,-1.623826,0.10205676
0.984,3.69073,-3.1135216,4.242295,3.7673767,-1.6666584,0.10898457
0.986,3.8654256,-3.2578924,4.2020507,3.7944233,-1.7102355,0.11637886
0.988,4.0557017,-3.4056358,4.1582003,3.8212118,-1.75505,0.1242791
0.99,4.26054,-3.556145,4.1103163,3.8475423,-1.8015795,0.13269588
0.992,4.4790683,-3.7088172,4.058045,3.8732605,-1.850274,0.1416549
0.994,4.7104197,-3.8634422,4.0011497,3.898279,-1.9015234,0.15117502
0.996,4.9529133,-4.0189304,3.9387152,3.9225354,-1.9556544,0.16129054
0.998,5.2056265,-4.174834,3.8696423,3.9460142,-2.0129132,0.1720542
1,5.4674993,-4.3301725,3.7947364,3.9687388,-2.0734603,0.18353796
1.002,5.7324495,-4.4822884,3.7144973,3.9907901,-2.1373832,0.19581446
1.004,6.000253,-4.631087,3.6270194,4.0122437,-2.2047358,0.20894328
1.006,6.2706842,-4.7755814,3.530152,4.0331707,-2.2755456,0.22296026
1.008,6.5412626,-4.914605,3.425551,4.0536146,-2.3498309,0.23791099
1.01,6.807121,-5.046215,3.3156395,4.073613,-2.4276428,0.25382206
1.012,7.061482,-5.1676283,3.2013307,4.0931625,-2.509056,0.27069417
1.014,7.305452,-5.280089,3.0841484,4.112246,-2.5941753,0.28848332
1.016,7.536835,-5.382746,2.9634264,4.1308455,-2.6831698,0.30712497
1.018,7.7569895,-5.4768558,2.8394806,4.1489344,-2.7762141,0.32653362
1.02,7.962389,-5.5611796,2.7134562,4.166527,-2.8734941,0.34659636
1.022,8.148845,-5.634628,2.5886722,4.1836524,-2.9752042,0.36717197
1.024,8.314206,-5.6963134,2.467782,4.20038,-3.0814996,0.3880872
1.026,8.456745,-5.7450647,2.3518798,4.2168236,-3.1924658,0.4091646
1.028,8.575706,-5.780713,2.2426643,4.233083,-3.3081405,0.4301957
1.03,8.6708,-5.8038664,2.1418335,4.249192,-3.428791,0.4509249
1.032,8.740236,-5.8144484,2.0510013,4.26514,-3.5546594,0.47097373
1.034,8.784011,-5.8132706,1.9734154,4.2810216,-3.6854627,0.49007267
1.036,8.803703,-5.8022623,1.912776,4.2969337,-3.821054,0.5079571
1.038,8.799486,-5.782167,1.8709021,4.3128858,-3.9616466,0.52414113
1.04,8.772372,-5.754534,1.8495563,4.328886,-4.1072974,0.5380513
1.042,8.725491,-5.721922,1.8517979,4.344906,-4.257924,0.5490738
1.044,8.662168,-5.686584,1.8793489,4.361092,-4.4130096,0.55683887
1.046,8.585923,-5.6503916,1.9322745,4.3778553,-4.571581,0.56099814
1.048,8.500431,-5.615187,2.0111928,4.395754,-4.732337,0.56117177
1.05,8.409634,-5.5828514,2.1176052,4.415423,-4.8938107,0.5570752
1.052,8.318207,-5.555,2.2524765,4.4376173,-5.05401,0.54875255
1.054,8.231034,-5.5330567,2.414983,4.4633503,-5.209977,0.536808
1.056,8.152839,-5.5180087,2.6032975,4.4938354,-5.357992,0.5221976
1.058,8.088237,-5.5104594,2.8153727,4.5303993,-5.4936705,0.5061854
1.06,8.041579,-5.5107317,3.0485303,4.574426,-5.61199,0.4904647
1.062,8.016733,-5.5183916,3.2995646,4.6272054,-5.7077026,0.47706735
1.064,8.01656,-5.5324516,3.5648305,4.6897774,-5.775627,0.46833083
1.066,8.04309,-5.55162,3.8400097,4.76298,-5.810819,0.46679658
1.068,8.097548,-5.573937,4.1208234,4.8472314,-5.8092384,0.47486246
1.07,8.17998,-5.5971956,4.4027305,4.9423504,-5.7683015,0.49455336
1.072,8.289604,-5.6188407,4.681086,5.047703,-5.686835,0.52754414
1.074,8.42448,-5.6358056,4.9514923,5.162208,-5.5651956,0.5749877
1.076,8.58204,-5.6450896,5.20964,5.28424,-5.405759,0.6373079
1.078,8.758539,-5.6435885,5.4515586,5.411651,-5.2128935,0.7141652
1.08,8.949263,-5.6281223,5.674351,5.5420127,-4.9923964,0.8045953
1.082,9.148975,-5.5955873,5.875418,5.6728387,-4.75094,0.9071731
1.084,9.351786,-5.5430202,6.0529075,5.8016324,-4.495662,1.0200546
1.086,9.552011,-5.4678636,6.2060523,5.92585,-4.234248,1.1411893
1.088,9.74359,-5.3677406,6.3346763,6.0429626,-3.9747026,1.2683011
1.09,9.920911,-5.2413063,6.439501,6.150754,-3.724157,1.3992172
1.092,10.078281,-5.087256,6.521902,6.247407,-3.4887102,1.5320569
1.094,10.210679,-4.9049654,6.583967,6.3314395,-3.2738109,1.6650099
1.096,10.313491,-4.6942854,6.6282573,6.401795,-3.0839527,1.7963753
1.098,10.382944,-4.455706,6.657646,6.4576864,-2.922681,1.9244647
1.1,10.416156,-4.1900935,6.6755977,6.498678,-2.7924004,2.0479414
1.102,10.410841,-3.8988197,6.6854916,6.524846,-2.6942072,2.1658187
1.104,10.365882,-3.583466,6.6906075,6.536793,-2.6278849,2.2772808
1.106,10.281472,-3.246706,6.694591,6.5354624,-2.592455,2.3815646
1.108,10.157686,-2.8909252,6.700946,6.521896,-2.5865545,2.4779472
1.11,9.995297,-2.518915,6.7111936,6.497339,-2.6081896,2.5660775
1.112,9.799458,-2.13487,6.7274003,6.4631844,-2.6548774,2.645891
1.114,9.569445,-1.7403601,6.753516,6.420834,-2.7239661,2.7174048
1.116,9.306259,-1.3381448,6.7922325,6.3716903,-2.812635,2.78072
1.118,9.014151,-0.9312706,6.84228,6.317038,-2.9181714,2.8359866
1.12,8.6989975,-0.52336645,6.9024425,6.2579384,-3.038222,2.8834023
1.122,8.367083,-0.117973745,6.9736376,6.1953225,-3.1705463,2.9233468
1.124,8.01738,0.28515175,7.0560184,6.1300573,-3.313009,2.9562993
1.126,7.653371,0.6834828,7.1513467,6.062795,-3.463951,2.9826975
1.128,7.276111,1.0764714,7.2595725,5.9940357,-3.6220431,3.0030427
1.13,6.8920894,1.461021,7.379701,5.92432,-3.785821,3.0179715
1.132,6.5070944,1.8347913,7.509512,5.8541923,-3.9538412,3.0281909
1.134,6.1244354,2.196192,7.648224,5.784073,-4.1250024,3.0343375
1.136,5.7472076,2.5436988,7.796682,5.7142963,-4.2984786,3.0369873
1.138,5.3779254,2.877059,7.9546723,5.6452055,-4.473483,3.0367227
1.14,5.01941,3.1964965,8.121829,5.5771666,-4.6491766,3.0340705
1.142,4.6757426,3.5016725,8.297367,5.510483,-4.8247848,3.0294242
1.144,4.349637,3.7928953,8.479184,5.4453807,-4.9996595,3.0230336
1.146,4.0421543,4.0712204,8.665335,5.3820662,-5.173201,3.0150304
1.148,3.7563946,4.3363266,8.856019,5.32069,-5.344883,3.0054321
1.15,3.4942217,4.5886517,9.050863,5.261367,-5.5142183,2.9940965
1.152,3.2559466,4.8294396,9.24848,5.2042217,-5.680688,2.9807317
1.154,3.0420036,5.0591025,9.448309,5.1494184,-5.8436556,2.964933
1.156,2.8533313,5.2776003,9.650648,5.0971375,-6.0024376,2.9462674
1.158,2.6905823,5.484874,9.854596,5.0475454,-6.1563673,2.9243793
1.16,2.5540097,5.6810136,10.057817,5.0008087,-6.3048034,2.8990235
1.162,2.442555,5.8663096,10.258315,4.95709,-6.447135,2.8701072
1.164,2.3551092,6.040914,10.455262,4.9164853,-6.582797,2.8376942
1.166,2.2901287,6.2052383,10.648087,4.879033,-6.711323,2.8020601
1.168,2.2457108,6.3596826,10.835942,4.844681,-6.8323565,2.763641
1.17,2.2192564,6.504705,11.018058,4.813279,-6.945653,2.7230382
1.172,2.207912,6.64073,11.193975,4.784616,-7.0510287,2.6809502
1.174,2.2086062,6.7679167,11.36306,4.7584124,-7.14831,2.6380987
1.176,2.2180562,6.8867273,11.524801,4.734352,-7.237304,2.5951774
1.178,2.2325912,6.9975586,11.678454,4.7121086,-7.317791,2.5528216
1.18,2.2486362,7.100915,11.823013,4.6913404,-7.3895597,2.511597
1.182,2.262455,7.1972957,11.957489,4.67174,-7.4523444,2.4719644
1.184,2.2702265,7.2870164,12.0811,4.653034,-7.5058975,2.4343183
1.186,2.268367,7.3705153,12.193417,4.635009,-7.5499845,2.3989797
1.188,2.2529948,7.4483223,12.293963,4.617487,-7.584443,2.3662055
1.19,2.2208085,7.5209656,12.38219,4.6003113,-7.6092176,2.3362217
1.192,2.1689296,7.588873,12.457558,4.5834036,-7.6242986,2.309218
1.194,2.0950694,7.652303,12.519701,4.5667486,-7.629758,2.2853584
1.196,1.9968153,7.7116365,12.568203,4.550386,-7.625731,2.2647834
1.198,1.87267,7.7669983,12.602564,4.5343885,-7.6124177,2.247616
1.2,1.7213297,7.8189335,12.622341,4.518878,-7.590071,2.2339797
1.202,1.5422298,7.867832,12.627211,4.503983,-7.5590534,2.2239714
1.204,1.3354957,7.914024,12.617202,4.489821,-7.519789,2.2176528
1.206,1.1017694,7.9578896,12.592576,4.4765005,-7.4728255,2.215023
1.208,0.842319,7.9994164,12.5534115,4.464081,-7.4188113,2.2160306
1.21,0.5590478,8.038893,12.499598,4.452595,-7.358446,2.2205086
1.212,0.25421035,8.0764,12.431017,4.4421086,-7.292425,2.228192
1.214,-0.06963384,8.111887,12.347796,4.432704,-7.221381,2.2387004
1.216,-0.4093039,8.145522,12.250057,4.424498,-7.1458206,2.2515745
1.218,-0.76128876,8.177269,12.138004,4.417649,-7.06614,2.2662911
1.22,-1.121571,8.206969,12.011838,4.412309,-6.982664,2.2822955
1.222,-1.4861159,8.2343645,11.871714,4.408579,-6.895689,2.2990656
1.224,-1.8507797,8.259449,11.717832,4.4065495,-6.8054996,2.3161356
1.226,-2.2118862,8.282154,11.550846,4.406253,-6.7123785,2.3331401
1.228,-2.5658505,8.302534,11.371424,4.407662,-6.616719,2.3498583
1.23,-2.9089792,8.32061,11.180554,4.410641,-6.5191307,2.366208
1.232,-3.2380428,8.336378,10.979271,4.4150114,-6.420414,2.3822036
1.234,-3.5502417,8.350038,10.769009,4.4205728,-6.3214946,2.3978662
1.236,-3.8434196,8.361986,10.551489,4.4271326,-6.2233534,2.4131887
1.238,-4.1156597,8.372413,10.328558,4.4345293,-6.126934,2.428131
1.24,-4.3658385,8.38184,10.101948,4.442679,-6.033028,2.4426353
1.242,-4.59319,8.390887,9.873416,4.4515862,-5.9421253,2.4565964
1.244,-4.797767,8.400019,9.644948,4.461358,-5.8543663,2.4698408
1.246,-4.9800105,8.409912,9.418391,4.4721904,-5.7694855,2.4822268
1.248,-5.1414313,8.421373,9.1958685,4.484356,-5.686802,2.4936929
1.25,-5.284115,8.4351635,8.979431,4.498186,-5.605282,2.5043077
1.252,-5.4102993,8.452018,8.770941,4.51401,-5.5235987,2.5142698
1.254,-5.5229855,8.47278,8.571878,4.532109,-5.440272,2.5238829
1.256,-5.624938,8.498382,8.383261,4.5527296,-5.3537602,2.5335293
1.258,-5.7193646,8.529455,8.205802,4.5759892,-5.2626553,2.543628
1.26,-5.809592,8.566817,8.039868,4.6018267,-5.165851,2.5545535
1.262,-5.8991833,8.611066,7.885296,4.630049,-5.0626545,2.5665774
1.264,-5.9914627,8.66285,7.7421637,4.6602597,-4.952823,2.5798202
1.266,-6.090006,8.722796,7.610274,4.6919103,-4.836623,2.5942273
1.268,-6.1977935,8.791235,7.4890404,4.7243147,-4.7148943,2.609593
1.27,-6.317642,8.86857,7.3777895,4.756708,-4.5890236,2.6255088
1.272,-6.451715,8.954973,7.2757835,4.7882953,-4.4608083,2.6414132
1.274,-6.6018324,9.050449,7.18226,4.8183565,-4.332291,2.6566148
1.276,-6.7690716,9.154655,7.0963564,4.846288,-4.2055883,2.6703577
1.278,-6.954186,9.267156,7.016723,4.8716025,-4.0828376,2.6818488
1.28,-7.1570096,9.387358,6.9421787,4.8939385,-3.9660785,2.6903248
1.282,-7.3769894,9.514534,6.871308,4.913127,-3.8570483,2.6950512
1.284,-7.613021,9.648143,6.802977,4.9291763,-3.7570372,2.695345
1.286,-7.8631783,9.7873335,6.736237,4.9422364,-3.6669028,2.6906104
1.288,-8.125281,9.931246,6.6704044,4.9525557,-3.5870974,2.680376
1.29,-8.397031,10.078992,6.6051455,4.9604273,-3.5178,2.6642962
1.292,-8.675526,10.229543,6.540077,4.9661427,-3.4589942,2.6421013
1.294,-8.95751,10.381808,6.4746723,4.9699416,-3.4105453,2.6136262
1.296,-9.239529,10.534796,6.408304,4.9719896,-3.3723466,2.578833
1.298,-9.517521,10.687224,6.3404903,4.9723506,-3.3443768,2.537786
1.3,-9.788091,10.838099,6.2708435,4.9709363,-3.3267903,2.4906385
1.302,-10.047846,10.986542,6.199235,4.9675303,-3.3199792,2.4375784
1.304,-10.293068,11.131769,6.1253576,4.9617996,-3.3245475,2.3788118
1.306,-10.520457,11.273182,6.0490875,4.9533343,-3.3412168,2.3144934
1.308,-10.727124,11.410203,5.970764,4.941688,-3.3707364,2.2447376
1.31,-10.910189,11.542316,5.8907776,4.926407,-3.413812,2.169601
1.312,-11.067193,11.668872,5.809635,4.907088,-3.4710193,2.0890937
1.314,-11.196282,11.789579,5.727665,4.883451,-3.5426507,2.0031939
1.316,-11.296089,11.90422,5.6453576,4.855321,-3.628661,1.9118574
1.318,-11.365917,12.01297,5.563636,4.822724,-3.7286012,1.8150383
1.32,-11.405581,12.115757,5.483697,4.7858353,-3.841604,1.7127253
1.322,-11.41527,12.212759,5.4070005,4.744982,-3.9663842,1.6049839
1.324,-11.396054,12.304355,5.3347635,4.7006097,-4.1012936,1.492009
1.326,-11.349247,12.39096,5.2688074,4.6532364,-4.244414,1.3741466
1.328,-11.276769,12.472892,5.2108974,4.603411,-4.3936553,1.2518662
1.33,-11.18063,12.5504875,5.162873,4.5516744,-4.5468407,1.1257418
1.332,-11.063253,12.624029,5.1267405,4.4985266,-4.7017736,0.99642706
1.334,-10.927655,12.69384,5.104388,4.4444284,-4.8562956,0.8645902
1.336,-10.776515,12.759924,5.097513,4.3898025,-5.0083494,0.73095375
1.338,-10.612993,12.822517,5.1075716,4.3350368,-5.156033,0.596186
1.34,-10.44058,12.88185,5.1359377,4.2804713,-5.297616,0.46086228
1.342,-10.2625675,12.938025,5.183882,4.2264256,-5.4315467,0.32544553
1.344,-10.082258,12.99114,5.252454,4.1731834,-5.556446,0.19030029
1.346,-9.902543,13.041088,5.342726,4.1210065,-5.671109,0.055682957
1.348,-9.72626,13.087964,5.4554367,4.0701203,-5.7745442,-0.07826778
1.35,-9.556025,13.131699,5.5914946,4.0206985,-5.8660064,-0.21146095
1.352,-9.39428,13.1721525,5.7512283,3.9728267,-5.94502,-0.34384328
1.354,-9.242767,13.209591,5.934739,3.926497,-6.011405,-0.47541127
1.356,-9.103331,13.243993,6.141883,3.8816,-6.065266,-0.60614145
1.358,-8.977184,13.275431,6.372181,3.8379173,-6.107041,-0.73603225
1.36,-8.865231,13.303974,6.6249285,3.7951314,-6.137477,-0.86507523
1.362,-8.768045,13.329722,6.8992167,3.7528062,-6.1576033,-0.99330866
1.364,-8.6856365,13.352821,7.1935463,3.7104163,-6.1686645,-1.1208385
1.366,-8.61763,13.373267,7.5060506,3.667375,-6.172032,-1.2478237
1.368,-8.5629635,13.391174,7.834622,3.623057,-6.169189,-1.3744996
1.37,-8.520362,13.406517,8.177358,3.5768611,-6.1616006,-1.5011519
1.372,-8.48835,13.419162,8.532371,3.528212,-6.1506753,-1.6281078
1.374,-8.465372,13.429335,8.897301,3.476627,-6.1377077,-1.755735
1.376,-8.449457,13.436985,9.269939,3.421734,-6.123783,-1.8844186
1.378,-8.438601,13.44228,9.648189,3.3632946,-6.1097426,-2.0145335
1.38,-8.430393,13.445073,10.0297985,3.3012214,-6.0961537,-2.1464112
1.382,-8.422424,13.445161,10.412597,3.2355556,-6.083274,-2.2802997
1.384,-8.412262,13.4423895,10.794123,3.1664915,-6.0710664,-2.4163494
1.386,-8.397794,13.436726,11.171917,3.0943508,-6.059202,-2.5545998
1.388,-8.376761,13.4282465,11.543909,3.019537,-6.0470877,-2.6949449
1.39,-8.347046,13.416866,11.907862,2.9425147,-6.033929,-2.8371878
1.392,-8.30671,13.402603,12.2619,2.863782,-6.018701,-2.980966
1.394,-8.253969,13.385257,12.604318,2.7838612,-6.000249,-3.125773
1.396,-8.187923,13.364865,12.933581,2.70327,-5.9773293,-3.2710166
1.398,-8.107407,13.341379,13.248421,2.6225193,-5.9486456,-3.4160144
1.4,-8.011433,13.31465,13.547718,2.5420845,-5.912949,-3.5600204
1.402,-7.8998866,13.284921,13.830592,2.462372,-5.869093,-3.7022169
1.404,-7.77266,13.252335,14.096288,2.3836887,-5.8161,-3.841784
1.406,-7.6302953,13.217062,14.344221,2.3062909,-5.753254,-3.9779148
1.408,-7.473708,13.179619,14.574226,2.2303224,-5.680116,-4.1099143
1.41,-7.30387,13.140472,14.7861595,2.1558526,-5.5965743,-4.2372284
1.412,-7.122358,13.100043,14.980016,2.082852,-5.5028796,-4.3594847
1.414,-6.930932,13.059088,15.156319,2.0112238,-5.3995876,-4.476495
1.416,-6.731193,13.018,15.315706,1.9408095,-5.2874885,-4.5882816
1.418,-6.524992,12.977303,15.458989,1.8714464,-5.1675124,-4.6950192
1.42,-6.314775,12.937533,15.58728,1.802963,-5.0406117,-4.797008
1.422,-6.103192,12.899237,15.701622,1.7351892,-4.9077244,-4.8946047
1.424,-5.8927236,12.862857,15.803476,1.6679685,-4.769675,-4.988141
1.426,-5.6856365,12.828804,15.894051,1.6011639,-4.6271553,-5.077896
1.428,-5.4838057,12.797244,15.97463,1.5346715,-4.4806757,-5.1640487
1.43,-5.2890606,12.768263,16.046404,1.4684262,-4.3306103,-5.246697
1.432,-5.103188,12.741938,16.110477,1.4023795,-4.17724,-5.325884
1.434,-4.9274,12.718066,16.168043,1.3365049,-4.0208263,-5.401597
1.436,-4.76313,12.696516,16.219706,1.2707841,-3.861675,-5.473853
1.438,-4.611146,12.677281,16.265902,1.2052014,-3.700168,-5.542718
1.44,-4.472418,12.660133,16.306751,1.1397371,-3.5367758,-5.6083355
1.442,-4.347143,12.644857,16.342222,1.074409,-3.3720527,-5.670952
1.444,-4.2353153,12.6308975,16.371904,1.009238,-3.2066112,-5.7309093
1.446,-4.136776,12.61785,16.395527,0.94425654,-3.0411532,-5.7886105
1.448,-4.051036,12.60507,16.412886,0.87950444,-2.876387,-5.844501
1.45,-3.9771585,12.591797,16.423151,0.81503654,-2.7129726,-5.8990316
1.452,-3.9139214,12.57723,16.425499,0.7508991,-2.551515,-5.952593
1.454,-3.859871,12.560422,16.418571,0.68713903,-2.3925533,-6.0055246
1.456,-3.8134785,12.54067,16.400963,0.62382865,-2.2365508,-6.058093
1.458,-3.773161,12.517107,16.371412,0.5610349,-2.083916,-6.1105127
1.46,-3.7372723,12.48878,16.328533,0.49883866,-1.9350059,-6.1629477
1.462,-3.704143,12.454994,16.271362,0.43733263,-1.7901697,-6.2155113
1.464,-3.6726089,12.4149,16.198818,0.3766036,-1.6497645,-6.2682996
1.466,-3.6411176,12.367885,16.110144,0.31672478,-1.5141447,-6.321354
1.468,-3.6084218,12.313294,16.004822,0.25776458,-1.3836948,-6.374709
1.47,-3.5733619,12.250528,15.882067,0.19976997,-1.2587994,-6.428394
1.472,-3.5349054,12.179075,15.74135,0.14274383,-1.139856,-6.482408
1.474,-3.492303,12.098595,15.582655,0.08664262,-1.02723,-6.5367184
1.476,-3.4449177,12.008709,15.406023,0.031404376,-0.92121375,-6.5912395
1.478,-3.3925424,11.909348,15.211566,-0.023059845,-0.8220092,-6.6458454
1.48,-3.3348508,11.800552,14.999316,-0.07684493,-0.7297132,-6.7003765
1.482,-3.2720351,11.682555,14.769548,-0.13002789,-0.6443068,-6.754633
1.484,-3.203947,11.5554085,14.52271,-0.18265355,-0.5656277,-6.8083925
1.486,-3.1309671,11.419464,14.259472,-0.23467994,-0.49341393,-6.861438
1.488,-3.0536504,11.2751465,13.980509,-0.2860093,-0.42729115,-6.91362
1.49,-2.972693,11.123135,13.686672,-0.3364668,-0.3668139,-6.964843
1.492,-2.888461,10.963873,13.379032,-0.38580537,-0.31150007,-7.015068
1.494,-2.8014479,10.79805,13.058861,-0.43375516,-0.2608919,-7.064332
1.496,-2.7119694,10.626005,12.727573,-0.48007834,-0.2145822,-7.1127186
1.498,-2.6205125,10.448151,12.386648,-0.5245608,-0.1722486,-7.160332
1.5,-2.5275025,10.265043,12.037624,-0.5670694,-0.13367939,-7.207304
1.502,-2.4332328,10.076929,11.682053,-0.60753655,-0.09880042,-7.2537627
1.504,-2.3381124,9.884403,11.321718,-0.6459955,-0.06768966,-7.2998314
1.506,-2.242262,9.687612,10.958284,-0.6825466,-0.04052782,-7.345656
1.508,-2.1457038,9.486789,10.5933895,-0.7173172,-0.017569542,-7.3913746
1.51,-2.0486922,9.282369,10.228606,-0.7504803,0.00087428093,-7.437116
1.512,-1.9510951,9.074521,9.865623,-0.7821938,0.014497042,-7.482994
1.514,-1.8528831,8.863537,9.5062475,-0.81261134,0.023040295,-7.529108
1.516,-1.7539818,8.649654,9.15233,-0.84183633,0.026296616,-7.57555
1.518,-1.6541255,8.432826,8.805284,-0.8699448,0.024148703,-7.622422
1.52,-1.5531547,8.213125,8.466417,-0.896947,0.016560316,-7.6698203
1.522,-1.450634,7.990718,8.1367855,-0.9228462,0.0035614967,-7.717844
1.524,-1.3463469,7.7656,7.817379,-0.94763994,-0.014751196,-7.766572
1.526,-1.2401705,7.538124,7.5090985,-0.971331,-0.03821206,-7.816077
1.528,-1.1318388,7.30848,7.212491,-0.9939313,-0.066599846,-7.866421
1.53,-1.0207713,7.07679,6.9279394,-1.0155132,-0.09968424,-7.917656
1.532,-0.9062395,6.8433404,6.65567,-1.0361862,-0.13723755,-7.9698195
1.534,-0.78789103,6.6085863,6.3954697,-1.0561194,-0.17912006,-8.022939
1.536,-0.6652765,6.3728833,6.147238,-1.075527,-0.22527528,-8.0770445
1.538,-0.5383645,6.1368704,5.910718,-1.0946788,-0.27577305,-8.132152
1.54,-0.40670562,5.901032,5.68533,-1.1138947,-0.33078003,-8.188248
1.542,-0.26984572,5.6657257,5.4703245,-1.1335174,-0.39058232,-8.245285
1.544,-0.12771809,5.431576,5.264691,-1.1539046,-0.45558834,-8.303199
1.546,0.020191789,5.1989465,5.067666,-1.1754463,-0.5262711,-8.361925
1.548,0.1738984,4.9683294,4.8784723,-1.1985316,-0.60312724,-8.421387
1.55,0.3338068,4.7402287,4.6966934,-1.2235328,-0.6866331,-8.481457
1.552,0.50011337,4.514967,4.5218368,-1.2507882,-0.7771621,-8.54196
1.554,0.6729677,4.29315,4.3536434,-1.2805868,-0.87496376,-8.602686
1.556,0.85217464,4.075215,4.1918755,-1.3131406,-0.98010683,-8.663399
1.558,1.0376296,3.861687,4.036418,-1.3485796,-1.0924191,-8.723858
1.56,1.2289228,3.6533077,3.8876398,-1.386953,-1.2115636,-8.78378
1.562,1.4257761,3.4508576,3.746011,-1.4282128,-1.3370626,-8.842863
1.564,1.6280826,3.254825,3.6127124,-1.4722391,-1.4683564,-8.900829
1.566,1.8355589,3.0655644,3.4891253,-1.518851,-1.604862,-8.95744
1.568,2.0477676,2.8835397,3.3768904,-1.5678421,-1.7460752,-9.012475
1.57,2.264617,2.7089217,3.2774496,-1.619011,-1.8915694,-9.06577
1.572,2.4861214,2.5419595,3.1921573,-1.6721575,-2.041036,-9.117201
1.574,2.7123942,2.3827717,3.1229024,-1.7271173,-2.1942985,-9.166672
1.576,2.9431677,2.231765,3.0716414,-1.7837665,-2.3512888,-9.214117
1.578,3.1785192,2.0893297,3.040296,-1.8419927,-2.5120323,-9.259527
1.58,3.4184303,1.9557631,3.0307539,-1.9017315,-2.6765988,-9.302955
1.582,3.6631386,1.83143,3.0448675,-1.962914,-2.8450627,-9.344515
1.584,3.912896,1.716636,3.0839462,-2.025487,-3.01746,-9.384385
1.586,4.1676626,1.6117318,3.1494129,-2.0893943,-3.1937418,-9.422783
1.588,4.427667,1.5171034,3.242456,-2.1545777,-3.3738263,-9.459962
1.59,4.6928234,1.432945,3.3639855,-2.2210033,-3.5575845,-9.496182
1.592,4.9630775,1.3597295,3.514576,-2.2886596,-3.744909,-9.531729
1.594,5.2382865,1.2977037,3.6944697,-2.3575368,-3.9357023,-9.566894
1.596,5.5182133,1.2472392,3.9031937,-2.4276714,-4.12986,-9.60194
1.598,5.8029757,1.2088969,4.1399913,-2.4991302,-4.327183,-9.637091
1.6,6.09221,1.1829906,4.4039865,-2.5719757,-4.527401,-9.672482
1.602,6.385433,1.1703205,4.693856,-2.6462522,-4.7301197,-9.708163
1.604,6.682279,1.1713709,5.0080724,-2.721987,-4.934874,-9.744176
1.606,6.9823003,1.1868321,5.344786,-2.7992063,-5.141088,-9.780487
1.608,7.2849703,1.2172039,5.7020707,-2.8778973,-5.348075,-9.817005
1.61,7.589608,1.2628145,6.0779724,-2.958044,-5.5550933,-9.853569
1.612,7.8954897,1.3239777,6.4702272,-3.0396287,-5.761414,-9.889999
1.614,8.202097,1.4007137,6.8762236,-3.1226368,-5.9663467,-9.926107
1.616,8.508904,1.4934263,7.2933903,-3.2071488,-6.169344,-9.961742
1.618,8.814894,1.6022213,7.7191525,-3.2932882,-6.3700457,-9.996715
1.62,9.119559,1.7269483,8.151134,-3.381271,-6.5682597,-10.030831
1.622,9.422043,1.867657,8.58704,-3.4713411,-6.763942,-10.063901
1.624,9.721733,2.024173,9.024622,-3.5637753,-6.957197,-10.095736
1.626,10.018226,2.1961305,9.461736,-3.6588218,-7.1482573,-10.1261635
1.628,10.310959,2.383425,9.896954,-3.7566812,-7.337378,-10.155027
1.63,10.599191,2.5855162,10.328993,-3.8574324,-7.5248165,-10.1821785
1.632,10.882248,2.8018384,10.756817,-3.9610448,-7.7107296,-10.207476
1.634,11.159387,3.0316324,11.179242,-4.0673304,-7.895137,-10.230774
1.636,11.430142,3.273942,11.59515,-4.1759577,-8.0778675,-10.251923
1.638,11.694098,3.5278845,12.003544,-4.286458,-8.258589,-10.27075
1.64,11.95111,3.7924361,12.403425,-4.3982735,-8.436834,-10.287079
1.642,12.201126,4.06641,12.794113,-4.5107536,-8.611931,-10.300658
1.644,12.444313,4.3483806,13.175121,-4.6231546,-8.783043,-10.311191
1.646,12.680815,4.6369243,13.546077,-4.7346325,-8.949238,-10.31839
1.648,12.911023,4.9305296,13.906563,-4.844277,-9.109505,-10.321936
1.65,13.135315,5.227562,14.256373,-4.9510956,-9.262846,-10.321526
1.652,13.354651,5.5262866,14.595018,-5.0540895,-9.408334,-10.31688
1.654,13.569931,5.8250275,14.922087,-5.152256,-9.545052,-10.307745
1.656,13.782427,6.122082,15.236938,-5.2446756,-9.672164,-10.293892
1.658,13.993748,6.415495,15.539179,-5.3305235,-9.788954,-10.275111
1.66,14.205357,6.703333,15.828402,-5.409157,-9.8949175,-10.251246
1.662,14.4189,6.9836774,16.104256,-5.480159,-9.989848,-10.222232
1.664,14.636463,7.2546787,16.366693,-5.5433645,-10.073872,-10.18809
1.666,14.860098,7.5143642,16.615677,-5.598793,-10.147483,-10.148959
1.668,15.091541,7.76081,16.851528,-5.6466484,-10.211449,-10.105076
1.67,15.332998,7.991865,17.074743,-5.6872177,-10.266794,-10.056782
1.672,15.586202,8.205507,17.28591,-5.7208443,-10.314713,-10.00453
1.674,15.852514,8.400381,17.485737,-5.747861,-10.35651,-9.948867
1.676,16.133343,8.575174,17.674644,-5.7685566,-10.393469,-9.890385
1.678,16.43086,8.728358,17.852833,-5.783166,-10.426673,-9.829629
1.68,16.746523,8.859066,18.022087,-5.7918525,-10.456921,-9.767129
1.682,17.08083,8.966772,18.184036,-5.794713,-10.484658,-9.703261
1.684,17.435083,9.050362,18.340334,-5.791791,-10.5100155,-9.638291
1.686,17.81006,9.10929,18.491684,-5.783118,-10.532852,-9.57232
1.688,18.207106,9.143108,18.638508,-5.768703,-10.552855,-9.505357
1.69,18.626698,9.1518345,18.782307,-5.7486057,-10.569563,-9.437302
1.692,19.068518,9.135673,18.924665,-5.7228923,-10.582483,-9.368027
1.694,19.53265,9.094938,19.066685,-5.6917043,-10.591241,-9.297413
1.696,20.019318,9.030432,19.208775,-5.6552334,-10.595641,-9.22545
1.698,20.528555,8.942902,19.351398,-5.6137533,-10.595737,-9.152181
1.7,21.0603,8.833667,19.4951,-5.567613,-10.591827,-9.077711
1.702,21.614754,8.704022,19.64046,-5.517208,-10.58441,-9.002235
1.704,22.191835,8.55543,19.7884,-5.462932,-10.574183,-8.926024
1.706,22.791191,8.389491,19.939978,-5.4051538,-10.56192,-8.849382
1.708,23.412458,8.207644,20.096027,-5.344108,-10.54835,-8.772596
1.71,24.055088,8.012037,20.257076,-5.279946,-10.534306,-8.695935
1.712,24.719025,7.8042355,20.423182,-5.212756,-10.520587,-8.619612
1.714,25.403896,7.5864,20.594345,-5.142453,-10.5076475,-8.543742
1.716,26.109222,7.3606358,20.770844,-5.0687866,-10.495696,-8.468306
1.718,26.834501,7.1291437,20.952902,-4.991483,-10.484921,-8.3931675
1.72,27.579477,6.89395,21.140902,-4.910268,-10.475492,-8.318148
1.722,28.34385,6.657245,21.335102,-4.824847,-10.467529,-8.242981
1.724,29.127308,6.4211254,21.535744,-4.7349496,-10.461154,-8.167391
1.726,29.929693,6.187708,21.742903,-4.640383,-10.456606,-8.091083
1.728,30.750267,5.9590945,21.956604,-4.541029,-10.454254,-8.013754
1.73,31.588875,5.7363653,22.177078,-4.4367714,-10.45464,-7.93516
1.732,32.44511,5.5208507,22.404245,-4.327505,-10.458393,-7.85511
1.734,33.318237,5.3138504,22.637947,-4.213132,-10.466255,-7.773488
1.736,34.207905,5.1164675,22.877708,-4.0935264,-10.478941,-7.690261
1.738,35.114044,4.9292803,23.122366,-3.9685204,-10.497116,-7.60544
1.74,36.036953,4.753298,23.370079,-3.837882,-10.521325,-7.5190387
1.742,36.97738,4.5889044,23.618643,-3.7013013,-10.552008,-7.431067
1.744,37.936687,4.4361415,23.865921,-3.5584102,-10.589438,-7.3414693
1.746,38.91633,4.294831,24.109528,-3.4087813,-10.633699,-7.250139
1.748,39.91755,4.1651363,24.347338,-3.2519445,-10.684617,-7.1568284
1.75,40.94188,4.047101,24.577404,-3.0874116,-10.741807,-7.061132
1.752,41.990982,3.940647,24.797607,-2.9146721,-10.804601,-6.962422
1.754,43.067066,3.8457189,25.005518,-2.7331982,-10.872048,-6.859864
1.756,44.173027,3.7621431,25.198519,-2.5424643,-10.943016,-6.7523937
1.758,45.31179,3.6904871,25.37405,-2.3419445,-11.016164,-6.638843
1.76,46.486244,3.6316533,25.529324,-2.131154,-11.09005,-6.51793
1.762,47.699966,3.586951,25.661684,-1.9096963,-11.1633215,-6.388255
1.764,48.956512,3.557913,25.76846,-1.6771834,-11.234559,-6.2483406
1.766,50.2594,3.546146,25.847399,-1.4332535,-11.302531,-6.096697
1.768,51.612366,3.553514,25.896418,-1.1776574,-11.366502,-5.9318433
1.77,53.01841,3.582559,25.914276,-0.91025424,-11.426019,-5.7523627
1.772,54.48037,3.6368227,25.901089,-0.6307998,-11.480615,-5.556918
1.774,56.0002,3.7207031,25.857595,-0.3389895,-11.52994,-5.34421
1.776,57.578354,3.8403091,25.786346,-0.034549713,-11.574015,-5.1130857
1.778,59.216022,4.0023475,25.69017,0.28272128,-11.613192,-4.8625813
1.78,60.912582,4.2141995,25.573235,0.6129267,-11.648118,-4.59201
1.782,62.666542,4.4843893,25.440983,0.9560261,-11.679673,-4.300923
1.784,64.47444,4.823883,25.300062,1.3117371,-11.709042,-3.9891121
1.786,66.331825,5.246416,25.158617,1.6795392,-11.73777,-3.6565518
1.788,68.22671,5.7687893,25.020918,2.0586495,-11.7677555,-3.3033442
1.79,70.153145,6.402129,24.891552,2.4480205,-11.801189,-2.9297297
1.792,72.10273,7.16446,24.777521,2.8463695,-11.840419,-2.5360446
1.794,74.06467,8.07365,24.693077,3.252224,-11.88783,-2.122714
1.796,76.02303,9.15822,24.65874,3.6639872,-11.945677,-1.6902322
1.798,77.974236,10.439415,24.678196,4.079938,-12.016065,-1.2391312
1.8,79.909454,11.946559,24.758877,4.498289,-12.100836,-0.7699572
1.802,81.81853,13.709307,24.913609,4.9172583,-12.201395,-0.28337878
1.804,83.68321,15.75968,25.156536,5.335162,-12.318664,0.21977901
1.806,85.48056,18.12203,25.496445,5.750542,-12.452918,0.73856485
1.808,87.19914,20.810982,25.943563,6.1622515,-12.603861,1.2720273
1.81,88.813774,23.843903,26.51591,6.569497,-12.77069,1.8193333
1.812,90.30046,27.233974,27.245222,6.971952,-12.952149,2.379951
1.814,91.62361,31.014757,28.135841,7.3698187,-13.146454,2.9536135
1.816,92.746544,35.213303,29.200449,7.763989,-13.351221,3.5402813
1.818,93.65353,39.82005,30.497252,8.156068,-13.5635,4.140465
1.82,94.36645,44.820896,32.068226,8.548181,-13.779777,4.7561274
1.822,94.897095,50.190895,33.97213,8.943284,-13.995496,5.390342
1.824,95.3256,55.93756,36.173515,9.344082,-14.205808,6.0469065
1.826,95.67872,61.98245,38.67918,9.753767,-14.403677,6.7301507
1.828,95.93869,68.31131,41.533455,10.177055,-14.579305,7.4466124
1.83,96.050095,74.92851,44.793785,10.61817,-14.722812,8.204709
1.832,96.03245,81.79039,48.51196,11.080565,-14.824396,9.013488
1.834,95.91826,88.861885,52.615265,11.567224,-14.87243,9.882236
1.836,95.73138,96.0414,57.11199,12.080623,-14.852278,10.820652
1.838,95.50899,103.23118,62.084595,12.622353,-14.746739,11.840835
1.84,95.304306,110.3518,67.52785,13.192848,-14.537541,12.955976
1.842,95.16697,117.27276,73.40432,13.792492,-14.202206,14.178997
1.844,95.16008,123.874084,79.61062,14.424447,-13.713061,15.522008
1.846,95.36814,130.08104,86.19145,15.094753,-13.037259,16.99151
1.848,95.72566,136.02827,93.17919,15.80574,-12.13822,18.586748
1.85,96.4063,141.48438,100.513565,16.559235,-10.979012,20.300629
1.852,97.66011,146.0764,108.1099,17.357985,-9.52453,22.117193
1.854,99.30591,149.8932,115.871864,18.204084,-7.741808,24.016605
1.856,101.49975,152.82056,123.637764,19.096176,-5.596573,25.974289
1.858,104.301315,154.8329,131.23015,20.029337,-3.060801,27.95712
1.86,107.75348,155.92166,138.49847,20.997316,-0.11575222,29.918922
1.862,111.884636,156.0982,145.294,21.988026,3.2408562,31.80661
1.864,116.705414,155.38663,151.45918,22.983452,6.9865484,33.567776
1.866,122.20585,153.83029,156.8171,23.960323,11.075591,35.1462
1.868,128.35059,151.49257,161.18788,24.881842,15.444515,36.480606
1.87,135.0778,148.45738,164.4015,25.700512,20.012768,37.512657
1.872,142.30006,144.8251,166.30553,26.36693,24.673332,38.21387
1.874,149.9103,140.70401,166.77686,26.833738,29.295084,38.599495
1.876,157.78021,136.2102,165.72704,27.056318,33.724712,38.667828
1.878,165.76115,131.46545,163.10103,27.050535,37.88143,38.417793
1.88,173.69084,126.58903,158.88023,26.828417,41.644733,37.84203
1.882,181.40054,121.68643,153.08205,26.384048,44.897984,36.96567
1.884,188.71725,116.84932,145.76178,25.776896,47.59662,35.80623
1.886,195.47667,112.14969,137.00903,25.06722,49.70054,34.37279
1.888,201.52124,107.64488,126.95209,24.299631,51.17517,32.65651
1.89,206.71414,103.375626,115.75612,23.511585,52.00302,30.631502
1.892,210.93924,99.36566,103.61588,22.726807,52.18147,28.260574
1.894,214.10777,95.62082,90.74784,21.9507,51.724575,25.50563
1.896,216.15556,92.13353,77.38447,21.169968,50.66127,22.341625
1.898,217.04808,88.88336,63.770363,20.35607,49.03607,18.77024
1.9,216.77983,85.84594,50.14482,19.474735,46.90985,14.83283
1.902,215.3678,82.99076,36.740395,18.498783,44.359337,10.613728
1.904,212.85172,80.292496,23.767815,17.408733,41.473854,6.2360096
1.906,209.3049,77.71365,11.424583,16.19589,38.348125,1.8536081
1.908,204.80565,75.229675,-0.09940338,14.86552,35.072792,-2.3693361
1.91,199.44835,72.819016,-10.655525,13.436331,31.724009,-6.275185
1.912,193.34116,70.46522,-20.128288,11.934889,28.364899,-9.729013
1.914,186.60562,68.1608,-28.429054,10.388662,25.041578,-12.632912
1.916,179.36588,65.91858,-35.493767,8.825264,21.784605,-14.940468
1.918,171.7317,63.765484,-41.291832,7.2674246,18.612993,-16.65866
1.92,163.82333,61.72488,-45.8282,5.729952,15.533191,-17.833271
1.922,155.75119,59.823643,-49.144035,4.2254205,12.542028,-18.53743
1.924,147.62532,58.071297,-51.274414,2.760108,9.6369095,-18.865124
1.926,139.54129,56.48658,-52.286213,1.3318863,6.8291044,-18.931826
1.928,131.56061,55.11465,-52.29943,-0.06347513,4.1407223,-18.855745
1.93,123.70957,53.983154,-51.413815,-1.4266627,1.6003458,-18.697815
1.932,116.02888,53.108864,-49.740814,-2.7868512,-0.81606036,-18.50271
1.934,108.50792,52.462337,-47.312706,-4.131148,-3.0672593,-18.304083
1.936,101.20044,52.077827,-44.225594,-5.423898,-5.119706,-18.155085
1.938,94.18768,51.90409,-40.608997,-6.681192,-6.9879117,-18.080296
1.94,87.55371,51.87687,-36.59025,-7.895675,-8.658813,-18.08809
1.942,81.28909,51.97825,-32.277367,-9.047052,-10.117234,-18.170803
1.944,75.37769,52.173054,-27.674145,-10.125493,-11.361964,-18.312027
1.946,69.81556,52.476357,-22.890049,-11.126873,-12.399323,-18.492304
1.948,64.588974,52.875267,-18.088514,-12.048494,-13.240717,-18.691477
1.95,59.675926,53.329617,-13.331987,-12.887276,-13.89934,-18.89207
1.952,55.06642,53.83926,-8.66675,-13.63895,-14.386079,-19.081106
1.954,50.744453,54.380596,-4.107269,-14.297992,-14.708125,-19.249285
1.956,46.68432,54.89257,0.18253592,-14.856609,-14.868778,-19.388746
1.958,42.986465,55.177414,4.0859036,-15.303421,-14.866299,-19.490116
1.96,39.51478,55.422146,7.5843735,-15.623971,-14.694303,-19.539818
1.962,36.13247,55.850018,10.664081,-15.802629,-14.343314,-19.51829
1.964,33.10386,56.22208,13.304449,-15.824553,-13.80274,-19.400305
1.966,30.3097,56.56462,15.524938,-15.678196,-13.063379,-19.157936
1.968,27.748497,56.834667,17.329605,-15.357724,-12.119782,-18.765343
1.97,25.423326,57.010025,18.682587,-14.864616,-10.972575,-18.204218
1.972,23.335289,57.082623,19.55288,-14.20896,-9.632208,-17.468046
1.974,21.483786,57.059406,19.930033,-13.409383,-8.121854,-16.563667
1.976,19.86619,56.951317,19.832958,-12.492733,-6.4783583,-15.512041
1.978,18.481142,56.768097,19.292717,-11.49286,-4.750952,-14.347459
1.98,17.326506,56.516182,18.344301,-10.448718,-2.9986396,-13.11441
1.982,16.396702,56.20052,17.026731,-9.401918,-1.2869937,-11.862812
1.984,15.680239,55.827183,15.378254,-8.393641,0.31711602,-10.643497
1.986,15.163518,55.399437,13.439949,-7.461543,1.7507877,-9.50166
1.988,14.832037,54.916313,11.261282,-6.6377006,2.9594383,-8.47163
1.99,14.668955,54.376633,8.898242,-5.946947,3.9000673,-7.5762787
1.992,14.652679,53.784588,6.4135056,-5.406137,4.54309,-6.8271794
1.994,14.761021,53.144684,3.8728924,-5.0245433,4.8748364,-6.224489
1.996,14.966019,52.46353,1.3440151,-4.803924,4.896932,-5.7598205
1.998,15.239737,51.744434,-1.110857,-4.7387094,4.6234703,-5.419828
2,15.551466,50.98912,-3.4370499,-4.8173738,4.078594,-5.1884127
2.002,15.870588,50.199196,-5.586197,-5.024048,3.2939496,-5.0482445
2.004,16.167171,49.378067,-7.515416,-5.3397927,2.3062863,-4.981764
2.006,16.416847,48.52939,-9.18958,-5.7437596,1.1553338,-4.971715
2.008,16.60089,47.659843,-10.58133,-6.2141128,-0.117044866,-5.001196
2.01,16.696125,46.779617,-11.669562,-6.729569,-1.4679931,-5.053812
2.012,16.69236,45.895264,-12.445279,-7.270581,-2.8558536,-5.114168
2.014,16.584433,45.013046,-12.906068,-7.819264,-4.2412515,-5.1678457
2.016,16.36468,44.146423,-13.065218,-8.359221,-5.587465,-5.201234
2.018,16.031502,43.309967,-12.9412985,-8.875738,-6.8610706,-5.202016
2.02,15.594648,42.51396,-12.554354,-9.355816,-8.032818,-5.159677
2.022,15.06352,41.771523,-11.933624,-9.788248,-9.078588,-5.066006
2.024,14.449077,41.091347,-11.115654,-10.16379,-9.979831,-4.9158463
2.026,13.764164,40.47502,-10.139763,-10.475156,-10.723524,-4.7074494
2.028,13.023346,39.92199,-9.04538,-10.716819,-11.301872,-4.442367
2.03,12.239883,39.431454,-7.870413,-10.884993,-11.7121525,-4.1249194
2.032,11.425872,39.00152,-6.649375,-10.977834,-11.9564295,-3.7614298
2.034,10.59281,38.628937,-5.416114,-10.995591,-12.041229,-3.3596811
2.036,9.752266,38.31012,-4.2016964,-10.940653,-11.977043,-2.9283235
2.038,8.9175415,38.041252,-3.0331545,-10.817636,-11.777626,-2.4762924
2.04,8.10195,37.81992,-1.9362946,-10.633261,-11.4594,-2.0123844
2.042,7.318062,37.644096,-0.93551254,-10.396128,-11.040766,-1.5449982
2.044,6.5757747,37.511627,-0.051525116,-10.116384,-10.541201,-1.0819218
2.046,5.8842726,37.418716,0.6982899,-9.805201,-9.980559,-0.63026094
2.048,5.2508135,37.359787,1.3014355,-9.474092,-9.378265,-0.19629502
2.05,4.6800056,37.32763,1.7523174,-9.134321,-8.752588,0.21454692
2.052,4.174194,37.31449,2.0514812,-8.796243,-8.12013,0.5977435
2.054,3.7330825,37.31307,2.2046661,-8.468834,-7.4953046,0.9497287
2.056,3.355197,37.315575,2.221201,-8.159252,-6.89003,1.2679334
2.058,3.037855,37.314877,2.112793,-7.8726587,-6.3134904,1.5508465
2.06,2.7764647,37.30552,1.8927011,-7.6122313,-5.77215,1.7980433
2.062,2.5655959,37.28327,1.5749855,-7.3793526,-5.2699103,2.010146
2.064,2.3987017,37.24524,1.1741257,-7.1739407,-4.808383,2.188663
2.066,2.2682228,37.18992,0.70375824,-6.9947934,-4.3872795,2.3358521
2.068,2.1669407,37.116295,0.17719364,-6.839914,-4.004821,2.4544775
2.07,2.087329,37.02391,-0.39351845,-6.706825,-3.6580985,2.5476024
2.072,2.0222802,36.912693,-0.9972019,-6.5927877,-3.3434472,2.6184273
2.074,1.9656093,36.78251,-1.6236,-6.494937,-3.056713,2.6702025
2.076,1.9114133,36.63357,-2.2637672,-6.4103484,-2.7934446,2.706077
2.078,1.8549619,36.466267,-2.909646,-6.3361187,-2.5490599,2.7290072
2.08,1.7924,36.281395,-3.5542955,-6.2693753,-2.3189223,2.7416854
2.082,1.7210197,36.0802,-4.1922894,-6.2073417,-2.0985293,2.7464976
2.084,1.6390785,35.8642,-4.8196173,-6.1474876,-1.8836944,2.7454166
2.086,1.546112,35.634686,-5.4336195,-6.087501,-1.6707046,2.7399883
2.088,1.442316,35.39337,-6.032797,-6.0253615,-1.4563,2.731328
2.09,1.3283384,35.14181,-6.6166596,-5.9593525,-1.2376566,2.72015
2.092,1.2063224,34.8811,-7.1856833,-5.888054,-1.0124952,2.7068744
2.094,1.0784984,34.612705,-7.7408347,-5.810383,-0.7792126,2.6917195
2.096,0.94768757,34.337803,-8.28331,-5.7255883,-0.5368774,2.6747465
2.098,0.8174977,34.056957,-8.814664,-5.63328,-0.28523427,2.6558588
2.1,0.69137675,33.770386,-9.336348,-5.533346,-0.024700522,2.634893
2.102,0.57288986,33.477806,-9.849945,-5.425978,0.24359637,2.6116939
2.104,0.46567005,33.178814,-10.356932,-5.311624,0.5177599,2.58614
2.106,0.37326014,32.872585,-10.858753,-5.1909227,0.7952206,2.5581641
2.108,0.29947343,32.55785,-11.356485,-5.0646315,1.0728359,2.5277357
2.11,0.24672551,32.23382,-11.851282,-4.9335523,1.3471143,2.4947515
2.112,0.21831612,31.899616,-12.343372,-4.7984967,1.6143776,2.4589257
2.114,0.21668564,31.554342,-12.832584,-4.660206,1.8710077,2.4197812
2.116,0.24296226,31.197187,-13.318144,-4.519299,2.1136389,2.3766181
2.118,0.29820153,30.827332,-13.799143,-4.376229,2.3393555,2.3285658
2.12,0.38269052,30.443913,-14.274529,-4.2312856,2.5457947,2.2746215
2.122,0.4960814,30.046223,-14.74268,-4.084611,2.7311544,2.2137563
2.124,0.63718736,29.633553,-15.201934,-3.936192,2.8941312,2.145002
2.126,0.80384696,29.205511,-15.650404,-3.7859342,3.0338237,2.0675502
2.128,0.9939031,28.761713,-16.085941,-3.6337051,3.1495874,1.9808512
2.13,1.2042723,28.302046,-16.506273,-3.4793594,3.2410288,1.8846835
2.132,1.4317071,27.826567,-16.909155,-3.3227916,3.3079543,1.7791866
2.134,1.6724392,27.335705,-17.292555,-3.1639764,3.3502963,1.6648264
2.136,1.9227316,26.830124,-17.654217,-3.0030103,3.3681927,1.5423541
2.138,2.1785994,26.310709,-17.992159,-2.8401356,3.3619983,1.4128008
2.14,2.4361663,25.778675,-18.304546,-2.675758,3.3322961,1.277392
2.142,2.69161,25.235332,-18.589529,-2.5104506,3.2799108,1.137514
2.144,2.941546,24.68225,-18.845207,-2.3449252,3.2059612,0.99460465
2.146,3.1827352,24.121283,-19.069857,-2.1800427,3.1118011,0.8501157
2.148,3.4121048,23.554352,-19.261953,-2.016773,2.9989781,0.70547503
2.15,3.6268592,22.98373,-19.420074,-1.856183,2.869121,0.56204545
2.152,3.824977,22.41162,-19.542797,-1.6993668,2.7239027,0.4211195
2.154,4.0046864,21.84034,-19.62889,-1.5474283,2.5650184,0.28386253
2.156,4.1651855,21.272194,-19.676966,-1.4014267,2.394231,0.15127
2.158,4.3054605,20.709248,-19.685722,-1.2623078,2.2133863,0.024171233
2.16,4.4253983,20.153915,-19.654457,-1.1308781,2.0244212,-0.09676267
2.162,4.524803,19.608322,-19.582474,-1.0077823,1.8292762,-0.21101102
2.164,4.6044416,19.07438,-19.469675,-0.8934836,1.6298608,-0.31813818
2.166,4.665391,18.553726,-19.316238,-0.7881981,1.4280632,-0.4177688
2.168,4.708857,18.048054,-19.122435,-0.69189554,1.2256953,-0.5096222
2.17,4.736548,17.558617,-18.889004,-0.6043097,1.024461,-0.59351784
2.172,4.7502832,17.086563,-18.61718,-0.52497154,0.82592833,-0.6693929
2.174,4.752059,16.632704,-18.308685,-0.45322004,0.6314629,-0.737312
2.176,4.7447224,16.197521,-17.965963,-0.3882591,0.44228277,-0.7974738
2.178,4.730634,15.78121,-17.591606,-0.32918516,0.25943702,-0.850156
2.18,4.7123747,15.383906,-17.188139,-0.2750386,0.083810255,-0.89572537
2.182,4.6923547,15.005522,-16.75817,-0.22484791,-0.083869025,-0.9346456
2.184,4.6725464,14.645851,-16.30467,-0.17768055,-0.2430322,-0.96742576
2.186,4.6549106,14.304544,-15.830849,-0.13268262,-0.39325696,-0.9946301
2.188,4.641346,13.980991,-15.340232,-0.08910288,-0.5342601,-1.0168393
2.19,4.633597,13.674322,-14.836408,-0.04629431,-0.6658833,-1.0346466
2.192,4.633186,13.383585,-14.322658,-0.003746882,-0.7880876,-1.0486289
2.194,4.6413045,13.107906,-13.802453,0.03890811,-0.90095407,-1.0593251
2.196,4.6591053,12.846315,-13.279111,0.081935816,-1.0046836,-1.0672374
2.198,4.687538,12.597826,-12.755795,0.1254761,-1.0996014,-1.0727954
2.2,4.727353,12.361506,-12.235434,0.16956753,-1.1861303,-1.0763885
2.202,4.7788115,12.136557,-11.720606,0.214182,-1.2647903,-1.0783554
2.204,4.8420725,11.921913,-11.21376,0.259239,-1.3361841,-1.07896
2.206,4.9170275,11.716753,-10.717109,0.30462348,-1.4009502,-1.0784081
2.208,5.003503,11.520397,-10.2325325,0.35019818,-1.4597467,-1.0768604
2.21,5.1012297,11.332169,-9.761723,0.39582705,-1.5132666,-1.0744154
2.212,5.2095594,11.151666,-9.305948,0.44137043,-1.5622004,-1.0711137
2.214,5.327922,10.978266,-8.866108,0.4866946,-1.6072632,-1.0669541
2.216,5.4555073,10.811741,-8.442626,0.5316709,-1.6491659,-1.0618951
2.218,5.5915036,10.651745,-8.035894,0.57617563,-1.6886141,-1.0559047
2.22,5.735115,10.498016,-7.6459117,0.620071,-1.7262923,-1.0489718
2.222,5.885464,10.3502655,-7.272361,0.6632212,-1.7628455,-1.0411402
2.224,6.04155,10.208293,-6.91463,0.7054761,-1.7988856,-1.032528
2.226,6.2024813,10.071929,-6.5720243,0.74669147,-1.8349843,-1.0233169
2.228,6.3671846,9.940979,-6.2435493,0.78672045,-1.8716093,-1.0137553
2.23,6.5348125,9.815093,-5.927908,0.82544047,-1.9091754,-1.0041523
2.232,6.7044086,9.694095,-5.6239157,0.86273754,-1.9479815,-0.9948691
2.234,6.8751197,9.577636,-5.3301473,0.89855075,-1.9882288,-0.98626417
2.236,7.046077,9.465536,-5.0453706,0.93286175,-2.0300372,-0.9786589
2.238,7.2162733,9.357518,-4.7683616,0.96571857,-2.0734143,-0.97233385
2.24,7.38519,9.25335,-4.498069,0.9972145,-2.1182847,-0.96748555
2.242,7.5518084,9.152785,-4.2334137,1.0274961,-2.1644866,-0.9642373
2.244,7.7154536,9.05557,-3.9733908,1.0567452,-2.2117937,-0.9626235
2.246,7.8753886,8.961569,-3.7171261,1.0851756,-2.2598906,-0.96260893
2.248,8.031082,8.870494,-3.464021,1.113017,-2.3084044,-0.9641011
2.25,8.182114,8.782145,-3.2133887,1.1404684,-2.3569129,-0.96695733
2.252,8.328048,8.696373,-2.9648151,1.1677513,-2.4049406,-0.9709946
2.254,8.468324,8.613006,-2.7181654,1.195058,-2.4519696,-0.9760064
2.256,8.602787,8.531888,-2.4733148,1.2225485,-2.4974952,-0.981768
2.258,8.731266,8.453075,-2.2302713,1.2503649,-2.5409994,-0.9880704
2.26,8.853598,8.376311,-1.98925,1.2786248,-2.5820227,-0.99472016
2.262,8.969726,8.301557,-1.750462,1.3074293,-2.6201327,-1.0015712
2.264,9.079785,8.228805,-1.514342,1.3368572,-2.6549807,-1.0084982
2.266,9.183722,8.158094,-1.2812119,1.3669829,-2.6862922,-1.0154287
2.268,9.281852,8.089303,-1.051658,1.3978696,-2.713882,-1.0223173
2.27,9.374258,8.022486,-0.826043,1.4295791,-2.7376597,-1.0291513
2.272,9.461438,7.9575133,-0.6049093,1.4621704,-2.7576315,-1.035912
2.274,9.543428,7.8944864,-0.38859916,1.495693,-2.77388,-1.0425814
2.276,9.620611,7.8334317,-0.17747533,1.5301832,-2.786563,-1.0491256
2.278,9.693517,7.7742248,0.028082848,1.5656409,-2.7958918,-1.0554781
2.28,9.762405,7.7169085,0.22769177,1.6020508,-2.8021233,-1.0615675
2.282,9.827704,7.6614437,0.42122436,1.6393584,-2.8055418,-1.067308
2.284,9.889979,7.607758,0.6083076,1.6774812,-2.8064268,-1.0726095
2.286,9.949439,7.555767,0.788944,1.7163074,-2.805061,-1.0773871
2.288,10.006812,7.505353,0.9630022,1.7557017,-2.8016818,-1.0815828
2.29,10.062191,7.4564767,1.1305635,1.7955259,-2.7964804,-1.0851941
2.292,10.116198,7.4090023,1.2915938,1.8356471,-2.789627,-1.0882441
2.294,10.16907,7.362758,1.4462173,1.8759441,-2.7812386,-1.0908215
2.296,10.221125,7.3176217,1.5944641,1.9163127,-2.7713878,-1.0930533
2.298,10.272767,7.2734275,1.7365603,1.9566733,-2.7601078,-1.0950794
2.3,10.324313,7.229995,1.872597,1.9969844,-2.7474153,-1.0970614
2.302,10.3761635,7.1871624,2.0025928,2.037218,-2.7332976,-1.0991317
2.304,10.428414,7.1449738,2.1266026,2.07739,-2.7177334,-1.101403
2.306,10.481261,7.103324,2.244708,2.117499,-2.7006974,-1.1039301
2.308,10.534939,7.0622807,2.3569179,2.1575792,-2.682174,-1.1066984
2.31,10.589613,7.021864,2.4632812,2.1976688,-2.662145,-1.1096134
2.312,10.645647,6.982066,2.5636826,2.237805,-2.6406524,-1.1125218
2.314,10.703104,6.9430895,2.6581743,2.27804,-2.6177478,-1.1152165
2.316,10.762161,6.904984,2.7467349,2.318403,-2.5935547,-1.1174371
2.318,10.82293,6.8679614,2.8293228,2.3589208,-2.5682273,-1.1189129
2.32,10.88534,6.8321986,2.905839,2.3996112,-2.541975,-1.1193606
2.322,10.949627,6.7979054,2.9763072,2.4404697,-2.5150719,-1.1185439
2.324,11.015837,6.765321,3.0406158,2.4814782,-2.4878397,-1.116263
2.326,11.083912,6.7345886,3.098574,2.5225818,-2.460648,-1.1124107
2.328,11.153906,6.7060275,3.1503031,2.5637007,-2.4339101,-1.1069723
2.33,11.225683,6.6797853,3.195741,2.6047132,-2.4080355,-1.1000171
2.332,11.299274,6.6559277,3.2349365,2.6454885,-2.3834438,-1.0917058
2.334,11.374546,6.6346927,3.2679117,2.685849,-2.3605287,-1.0822741
2.336,11.451349,6.6160297,3.2949097,2.725588,-2.3396552,-1.0720147
2.338,11.529493,6.6000576,3.316135,2.7644975,-2.321153,-1.0612555
2.34,11.608796,6.5867343,3.3316872,2.80237,-2.3052843,-1.0503184
2.342,11.689071,6.5759754,3.3418674,2.8389876,-2.292261,-1.039516
2.344,11.7701435,6.5677886,3.3470426,2.8741612,-2.2822216,-1.0290956
2.346,11.851718,6.5620914,3.347621,2.9077208,-2.2752328,-1.0192585
2.348,11.933611,6.5587482,3.3439538,2.939528,-2.2713275,-1.0101134
2.35,12.01552,6.5575953,3.3365703,2.9694915,-2.2704978,-1.0016917
2.352,12.097305,6.558621,3.3260136,2.9975548,-2.2727284,-0.99398696
2.354,12.17887,6.561738,3.3127232,3.0236943,-2.278002,-0.98692524
2.356,12.259933,6.566849,3.2972226,3.047926,-2.286309,-0.98041034
2.358,12.340412,6.5740013,3.2801232,3.070284,-2.2976677,-0.9743361
2.36,12.420005,6.5832453,3.2617874,3.0908291,-2.3121316,-0.96859145
2.362,12.4987335,6.5946565,3.2426367,3.1096241,-2.3297749,-0.9630879
2.364,12.576346,6.608329,3.2233105,3.1267617,-2.3506563,-0.9577497
2.366,12.6526785,6.6244097,3.204173,3.1423318,-2.3748138,-0.95248014
2.368,12.727772,6.642967,3.1857052,3.156424,-2.4022563,-0.9471812
2.37,12.801399,6.6642,3.1682782,3.1691453,-2.4329367,-0.94176733
2.372,12.873587,6.688399,3.1521297,3.1806111,-2.466744,-0.9361211
2.374,12.944114,6.7155514,3.1375952,3.190906,-2.5034816,-0.93012595
2.376,13.012932,6.7458344,3.1247196,3.2001433,-2.5428793,-0.9236555
2.378,13.079929,6.7795157,3.1137304,3.208427,-2.5846088,-0.91661906
2.38,13.145062,6.816672,3.104683,3.2158544,-2.6282916,-0.9089276
2.382,13.208101,6.857519,3.0977573,3.2225354,-2.6735377,-0.9005159
2.384,13.269201,6.9020977,3.0928469,3.2285817,-2.719962,-0.8913622
2.386,13.328213,6.950571,3.0899148,3.2340975,-2.767188,-0.881456
2.388,13.385009,7.0029764,3.0888896,3.239205,-2.8148897,-0.870798
2.39,13.439576,7.0594378,3.0897326,3.244047,-2.8627646,-0.8593824
2.392,13.492044,7.1198864,3.0922399,3.2487645,-2.9105444,-0.84720266
2.394,13.542234,7.1843147,3.0964026,3.2535083,-2.958019,-0.83424604
2.396,13.590333,7.252741,3.1020627,3.2584405,-3.0049887,-0.82047504
2.398,13.636158,7.3251696,3.109179,3.2637098,-3.051306,-0.80585563
2.4,13.680077,7.401478,3.1175728,3.2694721,-3.096841,-0.7903431
2.402,13.721968,7.4815855,3.1272812,3.275886,-3.1414807,-0.7739044
2.404,13.762091,7.5653076,3.138194,3.2830677,-3.185157,-0.75653434
2.406,13.800579,7.6525145,3.150282,3.2911186,-3.2278316,-0.7382315
2.408,13.837512,7.7429867,3.1635728,3.3001034,-3.2695017,-0.71904016
2.41,13.873148,7.8365793,3.1781015,3.3100483,-3.310221,-0.6990449
2.412,13.907505,7.93293,3.193963,3.3209252,-3.350082,-0.6783601
2.414,13.941181,8.031633,3.2113295,3.332663,-3.3892205,-0.65713745
2.416,13.974045,8.13248,3.2305503,3.3451476,-3.427803,-0.6355459
2.418,14.006566,8.234959,3.2515292,3.3582056,-3.4660358,-0.6137776
2.42,14.0389,8.338772,3.2745295,3.371651,-3.5041237,-0.5920329
2.422,14.070805,8.443595,3.299985,3.3852682,-3.5422666,-0.5705114
2.424,14.102857,8.548947,3.3279076,3.3988497,-3.580636,-0.5493755
2.426,14.135138,8.654524,3.3586173,3.4121854,-3.6193488,-0.5287865
2.428,14.167788,8.759958,3.3922267,3.4251308,-3.6584728,-0.50885695
2.43,14.201108,8.864863,3.4290252,3.437565,-3.698006,-0.48967147
2.432,14.235186,8.96892,3.469109,3.4494312,-3.7378707,-0.47128403
2.434,14.270065,9.071948,3.5126662,3.4607375,-3.7779052,-0.4537248
2.436,14.30609,9.173566,3.5598803,3.471552,-3.817876,-0.4370013
2.438,14.3431835,9.2736025,3.6106324,3.4819875,-3.8574858,-0.4211018
2.44,14.381643,9.371956,3.665121,3.4922233,-3.8963857,-0.4060073
2.442,14.421272,9.468565,3.7233229,3.5024784,-3.9341898,-0.39167774
2.444,14.462289,9.563274,3.785153,3.512984,-3.9704933,-0.3780393
2.446,14.50469,9.656136,3.8505712,3.5239778,-4.0049086,-0.36500132
2.448,14.548471,9.747094,3.9193726,3.535707,-4.037077,-0.35244656
2.45,14.593674,9.836294,3.9915934,3.5484064,-4.06667,-0.3402481
2.452,14.640255,9.923746,4.0670166,3.562285,-4.09341,-0.32827824
2.454,14.688063,10.00963,4.1453342,3.5775049,-4.1171227,-0.31642997
2.456,14.737144,10.094036,4.226348,3.5941694,-4.137714,-0.304617
2.458,14.787394,10.177079,4.30978,3.6123292,-4.1551633,-0.2927664
2.46,14.838483,10.259068,4.3954716,3.6319957,-4.1695185,-0.28086329
2.462,14.890432,10.340152,4.4829664,3.6531286,-4.180894,-0.2689256
2.464,14.942894,10.420603,4.572167,3.6756353,-4.1894093,-0.25700778
2.466,14.995725,10.500587,4.6627264,3.6993914,-4.1952043,-0.24517667
2.468,15.048641,10.5802965,4.754368,3.7242706,-4.1983957,-0.23349705
2.47,15.101453,10.659977,4.846968,3.7501407,-4.199073,-0.22202164
2.472,15.153952,10.739859,4.940218,3.776884,-4.1972766,-0.2107588
2.474,15.205815,10.820171,5.0337024,3.8044066,-4.1930046,-0.19967854
2.476,15.256891,10.901049,5.1271687,3.83264,-4.1862144,-0.18869781
2.478,15.306968,10.982771,5.2203274,3.8615358,-4.1768656,-0.17770463
2.48,15.355814,11.065538,5.312852,3.891054,-4.1649213,-0.16656494
2.482,15.403263,11.149433,5.40444,3.9211807,-4.150348,-0.15512988
2.484,15.449314,11.2347,5.4947534,3.9518971,-4.133116,-0.14325884
2.486,15.49382,11.321435,5.5834846,3.9831874,-4.1132245,-0.13082954
2.488,15.537062,11.409637,5.6702385,4.015038,-4.0907197,-0.117738694
2.49,15.579019,11.499423,5.754648,4.047429,-4.0656495,-0.103905156
2.492,15.619759,11.590827,5.8361607,4.08036,-4.038108,-0.08927028
2.494,15.659366,11.683768,5.9144173,4.113814,-4.00821,-0.073780075
2.496,15.698038,11.778178,5.9891467,4.1477766,-3.9761095,-0.05737391
2.498,15.7361,11.873899,6.059885,4.1822314,-3.9420218,-0.040010154
2.5,15.773758,11.970709,6.1263213,4.217143,-3.9061997,-0.021610655
2.502,15.811146,12.068413,6.1882105,4.2524405,-3.8689802,-0.002121605
2.504,15.848663,12.166672,6.245287,4.2880044,-3.8307917,0.018512413
2.506,15.886367,12.265045,6.297389,4.323649,-3.7921264,0.040311113
2.508,15.924543,12.363092,6.344499,4.3591275,-3.7535188,0.06324283
2.51,15.963077,12.460245,6.386609,4.3941355,-3.7155528,0.087219015
2.512,16.002052,12.555908,6.423728,4.4282985,-3.6788576,0.112061806
2.514,16.04142,12.649484,6.4560695,4.461188,-3.6440604,0.13752662
2.516,16.081232,12.740177,6.483899,4.492351,-3.6117601,0.16331258
2.518,16.12107,12.827353,6.5074463,4.521347,-3.5825112,0.18905708
2.52,16.16069,12.910224,6.5270133,4.5477557,-3.5567982,0.21436933
2.522,16.199776,12.988201,6.542988,4.5711927,-3.5349936,0.23884022
2.524,16.237894,13.060524,6.5557566,4.5913634,-3.517378,0.26209092
2.526,16.274769,13.126498,6.56556,4.6080723,-3.504084,0.28378275
2.528,16.309708,13.185581,6.573059,4.621229,-3.4951096,0.30365196
2.53,16.342216,13.237192,6.5786023,4.63086,-3.4903302,0.321513
2.532,16.372072,13.280927,6.582308,4.6370897,-3.4894924,0.3372811
2.534,16.398502,13.316468,6.5847764,4.6401367,-3.4922502,0.3509542
2.536,16.421034,13.343626,6.5861278,4.6402802,-3.4981847,0.36261237
2.538,16.439198,13.362312,6.5866814,4.6378474,-3.5068355,0.37241942
2.54,16.452515,13.372524,6.586635,4.6331677,-3.5177202,0.38060045
2.542,16.460604,13.374486,6.5860815,4.626578,-3.53037,0.3874067
2.544,16.463266,13.368475,6.585124,4.618387,-3.5443368,0.39313897
2.546,16.459976,13.355068,6.583762,4.6088758,-3.5592256,0.3981112
2.548,16.450737,13.334639,6.582163,4.598271,-3.5746982,0.4026481
2.55,16.435213,13.307751,6.5803246,4.586769,-3.5904627,0.40705213
2.552,16.413683,13.275091,6.5782146,4.5745363,-3.6062663,0.4116287
2.554,16.386003,13.237489,6.5758457,4.5617013,-3.6218994,0.41663998
2.556,16.352217,13.195562,6.5732427,4.5483565,-3.637204,0.42230874
2.558,16.31255,13.150087,6.570611,4.5346003,-3.6520276,0.4288032
2.56,16.267115,13.101761,6.567926,4.5205,-3.6662471,0.43625325
2.562,16.216333,13.051362,6.5653925,4.5061016,-3.6797767,0.44472405
2.564,16.160374,12.999449,6.5632687,4.4914427,-3.692546,0.45419398
2.566,16.099695,12.94658,6.5617867,4.4765296,-3.7045121,0.46459636
2.568,16.03468,12.893261,6.561409,4.4613514,-3.7156796,0.4758074
2.57,15.965865,12.839861,6.562334,4.4458804,-3.726091,0.48764533
2.572,15.893511,12.786628,6.565039,4.4300647,-3.7358463,0.49989474
2.574,15.818237,12.733737,6.5699053,4.4138336,-3.7450676,0.512337
2.576,15.740446,12.681293,6.577286,4.3971105,-3.7539256,0.5247539
2.578,15.660496,12.62942,6.5876455,4.37981,-3.762581,0.53694636
2.58,15.578926,12.577894,6.6011276,4.3618336,-3.7711937,0.5487591
2.582,15.496059,12.526654,6.6181903,4.343104,-3.7798803,0.56008697
2.584,15.412489,12.4754,6.639016,4.3235564,-3.788687,0.5708765
2.586,15.328623,12.423971,6.663727,4.303157,-3.7975807,0.58111835
2.588,15.244635,12.372153,6.692329,4.281918,-3.8064234,0.5908508
2.59,15.161131,12.319478,6.724744,4.2598877,-3.8149865,0.6001365
2.592,15.078468,12.265759,6.7608423,4.237177,-3.8229496,0.6090558
2.594,14.996959,12.210711,6.800197,4.2139554,-3.8299365,0.6176933
2.596,14.917051,12.153948,6.8425384,4.1904283,-3.8355088,0.6261433
2.598,14.838719,12.095426,6.887269,4.166829,-3.8392165,0.63448215
2.6,14.762618,12.034722,6.933818,4.143414,-3.840632,0.64280885
2.602,14.689047,11.97162,6.9816923,4.1204443,-3.839387,0.6512122
2.604,14.618372,11.905951,7.0301723,4.0981336,-3.8352165,0.6598102
2.606,14.550959,11.837663,7.0784554,4.076663,-3.8279743,0.6687275
2.608,14.486984,11.766627,7.125943,4.0561457,-3.8176677,0.6780687
2.61,14.4268055,11.692698,7.1718864,4.036607,-3.8044314,0.68794465
2.612,14.370691,11.615871,7.2156863,4.017992,-3.7885635,0.69842285
2.614,14.318775,11.536109,7.2568636,4.0001717,-3.770492,0.7095129
2.616,14.271371,11.45343,7.2949133,3.9829473,-3.75074,0.72117317
2.618,14.228493,11.367895,7.329447,3.9660635,-3.7299082,0.7332988
2.62,14.190414,11.279557,7.360238,3.94924,-3.7086267,0.745704
2.622,14.157036,11.188495,7.387211,3.9321814,-3.687521,0.7581465
2.624,14.128274,11.094819,7.4104004,3.9146116,-3.6671531,0.7703626
2.626,14.1039,10.998811,7.429928,3.8963068,-3.6480098,0.78208447
2.628,14.084017,10.900565,7.445979,3.8770945,-3.630461,0.793029
2.63,14.068286,10.800318,7.458883,3.8568792,-3.6147482,0.8029842
2.632,14.056496,10.698349,7.4689865,3.835646,-3.6010005,0.8117813
2.634,14.048185,10.594967,7.476781,3.8134787,-3.5892043,0.8193332
2.636,14.043013,10.490534,7.482617,3.790521,-3.5792482,0.8256072
2.638,14.040527,10.385373,7.4869733,3.76697,-3.5709212,0.830666
2.64,14.040344,10.279895,7.4902735,3.7430508,-3.5639417,0.8346225
2.642,14.041895,10.174427,7.49301,3.719022,-3.5579822,0.83764446
2.644,14.044688,10.069368,7.495472,3.6951323,-3.5526922,0.83991474
2.646,14.048147,9.965094,7.4982014,3.671584,-3.5477147,0.84162486
2.648,14.051832,9.861893,7.5014133,3.6485665,-3.5427313,0.8429592
2.65,14.05534,9.760283,7.505298,3.626223,-3.53745,0.84407336
2.652,14.058153,9.660369,7.5101857,3.604647,-3.531643,0.8450925
2.654,14.059986,9.562519,7.516091,3.5838933,-3.525136,0.846103
2.656,14.060635,9.467083,7.523091,3.5639727,-3.5178154,0.8471608
2.658,14.059679,9.374199,7.53116,3.544871,-3.5096245,0.848272
2.66,14.057094,9.2842245,7.5402007,3.5265255,-3.5005653,0.84942186
2.662,14.052425,9.197256,7.550176,3.5088608,-3.4906857,0.8505994
2.664,14.04582,9.113262,7.560955,3.4917772,-3.4800825,0.85175705
2.666,14.037199,9.03231,7.572361,3.4751668,-3.4688792,0.8528409
2.668,14.026495,8.954384,7.5841084,3.4589212,-3.4572175,0.85380995
2.67,14.013844,8.87929,7.596092,3.442915,-3.445259,0.85461813
2.672,13.999139,8.806856,7.6080174,3.4270384,-3.4331632,0.8552169
2.674,13.982557,8.736867,7.61973,3.4111755,-3.4211197,0.855565
2.676,13.96408,8.668922,7.6310754,3.395227,-3.4093094,0.85561097
2.678,13.944103,8.602713,7.6417823,3.379089,-3.397912,0.8552921
2.68,13.922495,8.537792,7.651832,3.3626688,-3.3870907,0.854538
2.682,13.8997965,8.473812,7.660996,3.3458724,-3.3770063,0.8532886
2.684,13.876024,8.410373,7.6692615,3.328628,-3.3678117,0.85146093
2.686,13.85156,8.347088,7.6764884,3.3108752,-3.359635,0.84897864
2.688,13.826605,8.283497,7.6826234,3.2925484,-3.352608,0.8457742
2.69,13.801429,8.219284,7.687717,3.2736034,-3.3468206,0.8418143
2.692,13.776287,8.154137,7.6916933,3.2540216,-3.342367,0.83709514
2.694,13.751332,8.087766,7.6945777,3.233774,-3.3393366,0.83166295
2.696,13.726861,8.019929,7.696441,3.2128475,-3.3378203,0.8256068
2.698,13.703165,7.9503083,7.6972556,3.1912315,-3.337905,0.81909853
2.7,13.680393,7.878876,7.6971846,3.1689305,-3.3396645,0.8123247
2.702,13.658804,7.805335,7.6962714,3.1459427,-3.3431723,0.80550045
2.704,13.638491,7.7296786,7.694673,3.1222825,-3.3485086,0.7988514
2.706,13.619669,7.651824,7.69234,3.0979545,-3.355744,0.79257256
2.708,13.602522,7.571652,7.6893587,3.0729566,-3.3649359,0.78681767
2.71,13.586871,7.4893165,7.685843,3.0472827,-3.376156,0.78166485
2.712,13.572786,7.4048347,7.681671,3.0209167,-3.3894653,0.77713
2.714,13.560094,7.3183036,7.6768723,2.9938397,-3.404913,0.77314687
2.716,13.548827,7.2296786,7.671457,2.9660258,-3.4225302,0.7695728
2.718,13.538954,7.1390057,7.6653395,2.9374325,-3.4423594,0.7662244
2.72,13.530357,7.0463886,7.6585827,2.9080195,-3.4644234,0.76288426
2.722,13.522743,6.9518538,7.651113,2.8777537,-3.4887187,0.7593175
2.724,13.515968,6.8554697,7.642845,2.8466005,-3.515235,0.7552944
2.726,13.509819,6.75727,7.6337705,2.8145413,-3.5439558,0.75061476
2.728,13.504059,6.657115,7.6237783,2.7815766,-3.5748188,0.74511695
2.73,13.498266,6.5549774,7.6127377,2.7477202,-3.607759,0.7386818
2.732,13.49213,6.450827,7.600567,2.7130098,-3.6426883,0.73123085
2.734,13.485461,6.3446274,7.5871897,2.6774914,-3.6795063,0.7227315
2.736,13.477814,6.2362733,7.5725017,2.6412246,-3.7180958,0.71316504
2.738,13.469002,6.1257324,7.5565405,2.604272,-3.758312,0.7025571
2.74,13.458755,6.0130444,7.53938,2.5666761,-3.8000221,0.69094557
2.742,13.446783,5.898225,7.5210085,2.5284832,-3.843083,0.6783837
2.744,13.432909,5.7813497,7.501397,2.489732,-3.8873758,0.66492254
2.746,13.417081,5.6624713,7.480731,2.450447,-3.9327781,0.65059954
2.748,13.399069,5.5418406,7.459112,2.4106464,-3.979192,0.63547546
2.75,13.378874,5.41957,7.436592,2.3703337,-4.0265236,0.619652
2.752,13.356392,5.2958813,7.4134254,2.3294954,-4.0747023,0.6032088
2.754,13.331505,5.170979,7.389759,2.288136,-4.123658,0.58626616
2.756,13.304421,5.0450373,7.36575,2.2462473,-4.1733184,0.56895417
2.758,13.275008,4.9183345,7.3416834,2.2038481,-4.223622,0.55141455
2.76,13.243226,4.790947,7.31779,2.160993,-4.2744846,0.533789
2.762,13.209037,4.6633496,7.2942133,2.1177619,-4.3258247,0.5162176
2.764,13.172477,4.5356307,7.2712255,2.0742617,-4.377535,0.49883536
2.766,13.133549,4.407959,7.249052,2.030622,-4.429484,0.4817296
2.768,13.092251,4.280523,7.2278457,1.986984,-4.4815407,0.46495038
2.77,13.048498,4.1534557,7.207715,1.9434779,-4.53352,0.4485054
2.772,13.00247,4.0268984,7.1887045,1.9002488,-4.5852013,0.4323672
2.774,12.95393,3.9009497,7.170976,1.8573956,-4.636356,0.41646874
2.776,12.902909,3.7757556,7.1544642,1.815007,-4.6867166,0.40073633
2.778,12.849419,3.6512449,7.1391945,1.7731496,-4.7359934,0.38511503
2.78,12.79333,3.5274286,7.1249967,1.7318647,-4.783898,0.36956573
2.782,12.734727,3.4041808,7.1119,1.6911938,-4.8301497,0.35409987
2.784,12.673634,3.2813268,7.099549,1.6511592,-4.874483,0.3387679
2.786,12.609864,3.1587918,7.0876946,1.611801,-4.916669,0.3236739
2.788,12.543186,3.0364525,7.076188,1.5731525,-4.9565134,0.30893528
2.79,12.4739065,2.914,7.0645995,1.5352551,-4.99387,0.2946906
2.792,12.401803,2.7912643,7.0527067,1.4981382,-5.0286474,0.28105247
2.794,12.326945,2.6681151,7.0400553,1.4618545,-5.06079,0.2681085
2.796,12.249319,2.5443177,7.026458,1.4264288,-5.0903025,0.2558856
2.798,12.16914,2.4197116,7.0115356,1.3918614,-5.117244,0.24437988
2.8,12.086489,2.2941408,6.9951134,1.3581303,-5.1416936,0.23355353
2.802,12.001496,2.1674829,6.9767594,1.3252051,-5.1637683,0.22332525
2.804,11.91448,2.0396893,6.956378,1.2930359,-5.1836247,0.21361971
2.806,11.825493,1.9107456,6.933881,1.2615632,-5.201433,0.20439732
2.808,11.734861,1.7805618,6.909154,1.230707,-5.217379,0.19567263
2.81,11.64272,1.6492696,6.882013,1.2003968,-5.231663,0.18749511
2.812,11.549326,1.517026,6.852519,1.1705396,-5.244473,0.17995751
2.814,11.454983,1.3837619,6.820878,1.1410428,-5.2560053,0.17318916
2.816,11.3599205,1.2498168,6.787225,1.1118345,-5.2664347,0.16732359
2.818,11.264383,1.1153011,6.7517796,1.0828371,-5.275936,0.16249084
2.82,11.168622,0.98037493,6.71471,1.0540093,-5.2846594,0.15879333
2.822,11.072927,0.84528995,6.6763697,1.0253302,-5.292717,0.1562692
2.824,10.977531,0.7102605,6.6369796,0.9967954,-5.300193,0.15489495
2.826,10.882402,0.5755769,6.596844,0.96843386,-5.307112,0.15459132
2.828,10.787683,0.44158185,6.5562716,0.94030464,-5.313448,0.15522945
2.83,10.693521,0.3084085,6.5155387,0.9124892,-5.319113,0.15666139
2.832,10.599954,0.17637098,6.474849,0.8850869,-5.3239765,0.15873003
2.834,10.507032,0.0458014,6.434469,0.8582098,-5.32786,0.16130626
2.836,10.414623,-0.08312118,6.3946805,0.8319806,-5.330535,0.16428995
2.838,10.322849,-0.20995903,6.3556776,0.80652744,-5.3317714,0.167647
2.84,10.231714,-0.33443928,6.3176703,0.7819779,-5.3313346,0.1713891
2.842,10.141239,-0.45623028,6.2808576,0.7584531,-5.329021,0.17558622
2.844,10.051114,-0.5750903,6.245201,0.7360623,-5.3246393,0.18033755
2.846,9.961454,-0.6907922,6.2109275,0.7149025,-5.3180494,0.18576777
2.848,9.872043,-0.80300105,6.177965,0.6950259,-5.309169,0.19197977
2.85,9.78278,-0.91155565,6.1462603,0.676496,-5.297948,0.19908035
2.852,9.693491,-1.0162568,6.1159286,0.65933335,-5.2843733,0.20713556
2.854,9.6041765,-1.1169039,6.0868936,0.64355516,-5.268471,0.21618032
2.856,9.514678,-1.2133125,6.0590906,0.62915725,-5.2503004,0.22623122
2.858,9.424905,-1.305374,6.0325065,0.61612695,-5.2299237,0.23726499
2.86,9.334727,-1.3928777,6.0070744,0.6044613,-5.2074027,0.24925089
2.862,9.244141,-1.475667,5.982761,0.5941423,-5.1828074,0.26215756
2.864,9.153166,-1.5536305,5.9595323,0.5851674,-5.1561933,0.27597022
2.866,9.061682,-1.626671,5.937359,0.5775376,-5.1276283,0.2906586
2.868,8.969963,-1.6946757,5.915878,0.57126576,-5.097154,0.30620062
2.87,8.877842,-1.7576448,5.8954334,0.5663536,-5.0648346,0.3225844
2.872,8.785452,-1.8158187,5.8760014,0.56280535,-5.0307117,0.33978963
2.874,8.692615,-1.8690859,5.8574805,0.56060493,-4.9948373,0.35778224
2.876,8.599827,-1.9178686,5.839678,0.55974036,-4.9572606,0.37654495
2.878,8.507306,-1.9623857,5.822545,0.5601982,-4.9180207,0.39604068
2.88,8.415011,-2.0028863,5.806054,0.5619405,-4.87719,0.41621232
2.882,8.3230095,-2.0396492,5.7902794,0.5649305,-4.8348365,0.43699872
2.884,8.231635,-2.072946,5.7749557,0.5691215,-4.7910476,0.4583304
2.886,8.141013,-2.1030576,5.760108,0.5744537,-4.7459407,0.48012066
2.888,8.051273,-2.1303701,5.7456584,0.5808602,-4.6996455,0.5022818
2.89,7.96258,-2.155201,5.731584,0.58825415,-4.652362,0.5247121
2.892,7.8748703,-2.177842,5.717766,0.5965536,-4.6042852,0.5473075
2.894,7.7883267,-2.19867,5.704259,0.6056421,-4.555643,0.5699382
2.896,7.7029495,-2.2180102,5.691112,0.615418,-4.5066395,0.5924984
2.898,7.6187463,-2.2360716,5.6783094,0.6258203,-4.4574504,0.61486685
2.9,7.535602,-2.2531018,5.6659474,0.63669086,-4.4084272,0.6369339
2.902,7.453374,-2.2692492,5.654176,0.6479236,-4.359783,0.658661
2.904,7.37193,-2.2847357,5.6430836,0.659482,-4.3116064,0.6800219
2.906,7.291253,-2.2994678,5.632955,0.6713307,-4.2640347,0.70100594
2.908,7.2108903,-2.3135142,5.6238737,0.6834368,-4.2171855,0.7216815
2.91,7.1306524,-2.3267362,5.616069,0.6957972,-4.171119,0.74216604
2.912,7.0503087,-2.3390274,5.6098857,0.70844364,-4.1258492,0.7626239
2.914,6.9696255,-2.3501825,5.605522,0.7214026,-4.081386,0.7832254
2.916,6.88828,-2.3600345,5.6030664,0.7347233,-4.0377088,0.80413043
2.918,6.806114,-2.3682423,5.602786,0.74844944,-3.9947681,0.82548344
2.92,6.722758,-2.374596,5.604911,0.76263815,-3.952485,0.8474471
2.922,6.638106,-2.3789198,5.609562,0.77734244,-3.9107754,0.87016475
2.924,6.5517807,-2.3808515,5.6167283,0.7926221,-3.8695288,0.8937526
2.926,6.46369,-2.3802953,5.626609,0.80854654,-3.8286269,0.91832346
2.928,6.37364,-2.3769577,5.6392055,0.8251711,-3.7879605,0.9439701
2.93,6.281513,-2.370686,5.6545825,0.84255123,-3.7474272,0.970725
2.932,6.18715,-2.3614008,5.672757,0.8607147,-3.7069602,0.9985872
2.934,6.0905347,-2.3490999,5.6938043,0.87968314,-3.666493,1.0275042
2.936,5.991435,-2.3336267,5.7176924,0.89944106,-3.6260078,1.057374
2.938,5.8898773,-2.315185,5.74443,0.9199545,-3.5855126,1.0880536
2.94,5.7859316,-2.2938828,5.7738843,0.9411429,-3.5450346,1.1193722
2.942,5.6797624,-2.269938,5.80613,0.962899,-3.504639,1.1511579
2.944,5.5711174,-2.2435756,5.841155,0.9850963,-3.4643588,1.1832565
2.946,5.460067,-2.2149396,5.879049,1.0075986,-3.424251,1.2155478
2.948,5.3465853,-2.1843946,5.919908,1.0302749,-3.3843665,1.2479653
2.95,5.230729,-2.15237,5.96376,1.0530055,-3.3447518,1.2804744
2.952,5.112525,-2.1192055,6.010786,1.0756804,-3.3054492,1.3130862
2.954,4.9921103,-2.0853274,6.061213,1.0982988,-3.2663295,1.3458487
2.956,4.8693447,-2.0510242,6.1150627,1.1208345,-3.2274013,1.3787868
2.958,4.744087,-2.0166056,6.172629,1.143243,-3.1886837,1.4119434
2.96,4.616351,-1.9822865,6.2341075,1.16556,-3.1500568,1.4453768
2.962,4.485999,-1.9483349,6.2996173,1.187854,-3.1113648,1.4790661
2.964,4.3528795,-1.9148614,6.3695083,1.2101837,-3.0724614,1.5129985
2.966,4.2169065,-1.8820137,6.4438577,1.232605,-3.0331907,1.5471591
2.968,4.077926,-1.8498431,6.522955,1.2551848,-2.9933562,1.5815625
2.97,3.9357657,-1.8183297,6.606987,1.2779751,-2.9527614,1.616245
2.972,3.7902055,-1.7874763,6.6961803,1.3010299,-2.9112163,1.6512809
2.974,3.6408637,-1.7570821,6.790668,1.324379,-2.868535,1.686743
2.976,3.4874241,-1.7269896,6.8906016,1.3480506,-2.8245244,1.7227274
2.978,3.3294277,-1.6970936,6.996335,1.3720602,-2.779014,1.7593578
2.98,3.1667078,-1.6670121,7.1076136,1.3964175,-2.7318432,1.7967504
2.982,2.9985898,-1.6363617,7.224658,1.4211352,-2.6828437,1.8350202
2.984,2.8249614,-1.6050572,7.3475904,1.4462167,-2.6318583,1.8742821
2.986,2.6454103,-1.572685,7.476479,1.4716778,-2.5787199,1.9146312
2.988,2.4594474,-1.5388145,7.611421,1.4975202,-2.523266,1.9561344
2.99,2.2668798,-1.5032532,7.7523003,1.5237523,-2.465316,1.9988313
2.992,2.0675168,-1.4657025,7.8989587,1.5503658,-2.4046888,2.042763
2.994,1.8609278,-1.4260013,8.051317,1.5773554,-2.3411956,2.08794
2.996,1.6471654,-1.3838719,8.209118,1.6046932,-2.2746463,2.134387
2.998,1.426029,-1.3392091,8.372116,1.6323159,-2.2048507,2.182115
3,1.1975224,-1.2919294,8.539962,1.660153,-2.1316109,2.2311325
3.002,0.9618509,-1.2420628,8.712318,1.688119,-2.0547156,2.2814498
3.004,0.7190914,-1.1894785,8.888906,1.7161019,-1.973953,2.3330681
3.006,0.46962094,-1.1343338,9.069112,1.7439916,-1.8891201,2.385974
3.008,0.21369457,-1.0769026,9.252359,1.7716795,-1.8000373,2.4401329
3.01,-0.04843974,-1.0172881,9.438214,1.7990534,-1.7065784,2.4954965
3.012,-0.3163185,-0.95573103,9.625887,1.8260138,-1.608636,2.5519743
3.014,-0.5894606,-0.8925282,9.814797,1.8524654,-1.5061369,2.6094613
3.016,-0.86736274,-0.82814014,10.004118,1.8783094,-1.3990889,2.6678462
3.018,-1.1491885,-0.7628336,10.193377,1.9034469,-1.2875818,2.7269776
3.02,-1.4344518,-0.6970378,10.381643,1.9277675,-1.171742,2.7866669
3.022,-1.7223437,-0.63122475,10.568352,1.9511714,-1.0517147,2.8467164
3.024,-2.0124853,-0.5657793,10.752712,1.9735602,-0.92763996,2.9069257
3.026,-2.3042166,-0.5010241,10.93407,1.9948363,-0.79963523,2.9671063
3.028,-2.5972204,-0.4371735,11.111763,2.0149224,-0.6677823,3.0271187
3.03,-2.890891,-0.3745011,11.2850685,2.0337493,-0.53212833,3.0868568
3.032,-3.1851282,-0.31305695,11.453312,2.051258,-0.39264867,3.1462603
3.034,-3.4794877,-0.2528336,11.6158695,2.0673947,-0.2492798,3.2053246
3.036,-3.773906,-0.19385612,11.771991,2.0821223,-0.10193622,3.2640698
3.038,-4.068148,-0.13610172,11.921236,2.0953908,0.04951477,3.3225486
3.04,-4.3621607,-0.079274416,12.062872,2.1071541,0.20522225,3.3808384
3.042,-4.655907,-0.023000121,12.196396,2.1173747,0.36537147,3.4390347
3.044,-4.9494,0.03310573,12.321238,2.1260223,0.5301493,3.4972618
3.046,-5.2424297,0.089527726,12.436821,2.133101,0.69980097,3.55564
3.048,-5.5349493,0.14689028,12.542557,2.138636,0.87461406,3.6143332
3.05,-5.826939,0.20584106,12.637943,2.1426854,1.0549088,3.67349
3.052,-6.1182218,0.26705873,12.7222595,2.1453314,1.2410221,3.733297
3.054,-6.408622,0.33122122,12.794794,2.1466477,1.4333236,3.793935
3.056,-6.6979036,0.39898455,12.854773,2.1467032,1.632151,3.8555589
3.058,-6.985607,0.47096038,12.901344,2.1455507,1.8378091,3.9182909
3.06,-7.2715425,0.5478866,12.933853,2.1432009,2.0505497,3.982175
3.062,-7.55534,0.6303419,12.951298,2.1396208,2.270529,4.04715
3.064,-7.8364725,0.7189405,12.952911,2.1347232,2.4977884,4.1130643
3.066,-8.114473,0.8139918,12.938017,2.1283693,2.7321937,4.179668
3.068,-8.388708,0.91597664,12.9059925,2.1203637,2.973462,4.2466307
3.07,-8.658648,1.0252866,12.856237,2.1104844,3.2211738,4.3135595
3.072,-8.923317,1.1423473,12.788113,2.098486,3.474773,4.3800645
3.074,-9.181796,1.2674509,12.70083,2.0841045,3.733522,4.445772
3.076,-9.4335575,1.4011971,12.593843,2.0670557,3.996529,4.510339
3.078,-9.677624,1.5440041,12.466518,2.0470514,4.262786,4.573489
3.08,-9.913163,1.69655,12.3180685,2.0238082,4.531129,4.6350117
3.082,-10.139545,1.8595648,12.14782,1.9970672,4.800294,4.6947703
3.084,-10.356165,2.0336313,11.955381,1.9666052,5.068908,4.752682
3.086,-10.562201,2.2193413,11.740572,1.9322126,5.335452,4.8086777
3.088,-10.7570505,2.4171362,11.503304,1.8936809,5.5982666,4.862657
3.09,-10.939958,2.62744,11.243515,1.8507907,5.855544,4.914462
3.092,-11.110143,2.8504121,10.961412,1.8033402,6.1053486,4.9637785
3.094,-11.267238,3.086559,10.657315,1.7510855,6.3456554,5.0101185
3.096,-11.410957,3.3362794,10.331713,1.6937394,6.574386,5.0527773
3.098,-11.540445,3.599853,9.984708,1.6309383,6.7894955,5.0908093
3.1,-11.654965,3.8774076,9.616626,1.5622544,6.9890337,5.1230655
3.102,-11.754065,4.169258,9.227793,1.487181,7.171244,5.1482115
3.104,-11.83712,4.475664,8.818367,1.4051819,7.3346505,5.164798
3.106,-11.903996,4.796609,8.388227,1.315696,7.4782248,5.171362
3.108,-11.953863,5.1319613,7.937513,1.2181675,7.601377,5.166493
3.11,-11.986554,5.4815645,7.465988,1.1120772,7.7039967,5.148906
3.112,-12.001665,5.844851,6.973361,0.9969611,7.7863064,5.117515
3.114,-11.999156,6.221131,6.4594545,0.87243867,7.848765,5.071515
3.116,-11.978899,6.6094522,5.9242425,0.7382438,7.8918996,5.0103955
3.118,-11.940565,7.008651,5.3679466,0.59429085,7.916075,4.9339314
3.12,-11.884163,7.417254,4.7907276,0.4407075,7.921301,4.8421235
3.122,-11.810111,7.8335695,4.193139,0.27787364,7.907068,4.7351656
3.124,-11.718723,8.255893,3.5758595,0.10649919,7.872345,4.6134176
3.126,-11.610871,8.682208,2.9401078,-0.07236336,7.8156133,4.477313
3.128,-11.487178,9.110237,2.2873769,-0.25728187,7.7350006,4.3273335
3.13,-11.348514,9.537464,1.6199403,-0.44647297,7.628555,4.1640277
3.132,-11.195934,9.961057,0.9403875,-0.6378417,7.4945135,3.9879897
3.134,-11.030396,10.378079,0.25202775,-0.8290759,7.3316164,3.799913
3.136,-10.853149,10.7854185,-0.4413507,-1.0177878,7.1393104,3.6006603
3.138,-10.665443,11.179864,-1.1356865,-1.2016574,6.9179325,3.3913407
3.14,-10.46854,11.558286,-1.8261185,-1.3785244,6.668811,3.17333
3.142,-10.263918,11.917809,-2.5075836,-1.5465564,6.3942237,2.9482975
3.144,-10.053013,12.255584,-3.1750793,-1.7043375,6.0972905,2.7181602
3.146,-9.83724,12.5691185,-3.8235488,-1.8509244,5.7818093,2.4850435
3.148,-9.618128,12.856152,-4.4482403,-1.985857,5.4520273,2.251112
3.15,-9.396823,13.114723,-5.044366,-2.109125,5.112481,2.0184562
3.152,-9.174697,13.343391,-5.6078076,-2.2211149,4.767796,1.7889624
3.154,-8.952878,13.541121,-6.1348877,-2.3225212,4.4224854,1.5642002
3.156,-8.732359,13.707204,-6.62255,-2.41428,4.0808134,1.345375
3.158,-8.514468,13.841739,-7.0682726,-2.4974701,3.746676,1.1333176
3.16,-8.299943,13.944931,-7.470613,-2.573195,3.423462,0.92850924
3.162,-8.0895,14.017371,-7.828567,-2.642509,3.1140473,0.7311901
3.164,-7.8836374,14.060223,-8.141997,-2.706338,2.8207762,0.5414231
3.166,-7.682878,14.074934,-8.411622,-2.765392,2.545468,0.3591481
3.168,-7.487788,14.063261,-8.638608,-2.8201432,2.2894185,0.1841991
3.17,-7.298604,14.027151,-8.824969,-2.8708086,2.0533793,0.01631955
3.172,-7.1154337,13.968467,-8.973009,-2.917397,1.8376577,-0.14481767
3.174,-6.938634,13.889417,-9.085553,-2.959733,1.642149,-0.2996371
3.176,-6.768209,13.792219,-9.165712,-2.9975429,1.4663271,-0.44868463
3.178,-6.6041975,13.6788025,-9.216726,-3.0305543,1.3092828,-0.59259117
3.18,-6.446842,13.551301,-9.24189,-3.0585442,1.1698092,-0.7320111
3.182,-6.2963552,13.411549,-9.244156,-3.0814266,1.0464666,-0.8675994
3.184,-6.152988,13.261434,-9.226372,-3.0992947,0.9376477,-0.99994475
3.186,-6.0164576,13.102303,-9.191088,-3.112453,0.8416693,-1.1295161
3.188,-5.8869247,12.935677,-9.140842,-3.1213927,0.75685954,-1.2566097
3.19,-5.7643886,12.762733,-9.077459,-3.1267757,0.6816802,-1.3813591
3.192,-5.6484385,12.584606,-9.00269,-3.1293705,0.614761,-1.5037102
3.194,-5.538938,12.402542,-8.9182205,-3.13002,0.5549375,-1.6234615
3.196,-5.435939,12.217619,-8.825491,-3.1295638,0.5013031,-1.7403187
3.198,-5.3393564,12.0310335,-8.725743,-3.1288192,0.45318824,-1.8539233
3.2,-5.2491508,11.843807,-8.619819,-3.1285222,0.41013205,-1.9639225
3.202,-5.165305,11.656986,-8.508615,-3.1292894,0.37185088,-2.069952
3.204,-5.087532,11.47126,-8.392844,-3.1316054,0.33819747,-2.171678
3.206,-5.0156097,11.287046,-8.273039,-3.1357713,0.30912834,-2.2688093
3.208,-4.9494896,11.105008,-8.149497,-3.1419177,0.28469056,-2.3611212
3.21,-4.889023,10.925753,-8.022424,-3.1499648,0.2650113,-2.4484444
3.212,-4.833882,10.74944,-7.8921413,-3.1596665,0.25024623,-2.5306864
3.214,-4.78403,10.576621,-7.7587934,-3.1706257,0.24056756,-2.6077993
3.216,-4.738875,10.407734,-7.622396,-3.1822925,0.23613715,-2.6797853
3.218,-4.698682,10.243462,-7.4833784,-3.1940358,0.23707885,-2.7466736
3.22,-4.6628795,10.084118,-7.3419294,-3.205184,0.24348271,-2.8085175
3.222,-4.6313934,9.930172,-7.198218,-3.2150517,0.2553804,-2.8653584
3.224,-4.60387,9.782137,-7.052755,-3.2229986,0.27273172,-2.9172382
3.226,-4.580011,9.640404,-6.9059386,-3.2284498,0.29540992,-2.964189
3.228,-4.5599136,9.505358,-6.7582207,-3.230922,0.32322788,-3.0062056
3.23,-4.5431767,9.377487,-6.6100636,-3.230023,0.3559696,-3.0432773
3.232,-4.529463,9.257135,-6.461776,-3.2254438,0.39341062,-3.0753856
3.234,-4.5187755,9.144677,-6.3137393,-3.216979,0.43533802,-3.1025023
3.236,-4.5105815,9.040571,-6.1664066,-3.2044868,0.48155606,-3.1245637
3.238,-4.5047216,8.94519,-6.0202527,-3.187881,0.5319271,-3.1414945
3.24,-4.500821,8.859126,-5.875905,-3.1671252,0.58637834,-3.1532104
3.242,-4.498535,8.782875,-5.734111,-3.1422043,0.6449208,-3.159647
3.244,-4.497507,8.716989,-5.5955944,-3.113121,0.70763206,-3.1607647
3.246,-4.497455,8.661972,-5.461138,-3.0798962,0.7746867,-3.1565957
3.248,-4.4977684,8.618246,-5.3314247,-3.0425925,0.846336,-3.1472375
3.25,-4.4982786,8.586122,-5.207206,-3.001278,0.9228437,-3.132891
3.252,-4.4982624,8.565594,-5.0893025,-2.9560654,1.0044638,-3.1138396
3.254,-4.497225,8.556779,-4.9783974,-2.9070623,1.0914156,-3.0904393
3.256,-4.494492,8.559584,-4.8749895,-2.8544097,1.1838491,-3.0631306
3.258,-4.4895287,8.573776,-4.7797017,-2.7982736,1.2817942,-3.0324428
3.26,-4.481818,8.598975,-4.6931257,-2.7388072,1.3851826,-2.998958
3.262,-4.470584,8.63438,-4.6158705,-2.6761348,1.4938345,-2.9633179
3.264,-4.4554167,8.67935,-4.5484743,-2.6103597,1.6074929,-2.9262094
3.266,-4.43566,8.732893,-4.491366,-2.541539,1.7258587,-2.8883646
3.268,-4.4104567,8.793842,-4.4451814,-2.4697013,1.8485782,-2.8505673
3.27,-4.3795214,8.861004,-4.4100614,-2.3948646,1.9752791,-2.8136237
3.272,-4.3422966,8.933174,-4.38648,-2.31702,2.1055908,-2.7783437
3.274,-4.2982473,9.008848,-4.3748584,-2.2361615,2.2391167,-2.7454855
3.276,-4.247084,9.086554,-4.375293,-2.152301,2.3754432,-2.7157047
3.278,-4.1884794,9.164881,-4.3878164,-2.0655143,2.5140948,-2.6895447
3.28,-4.12218,9.242348,-4.412399,-1.9759678,2.6544695,-2.6674094
3.282,-4.0480647,9.317575,-4.4490023,-1.8839409,2.7958188,-2.6495445
3.284,-3.965912,9.389069,-4.497271,-1.7898529,2.937227,-2.6360369
3.286,-3.8757572,9.455616,-4.5568757,-1.6943116,3.077557,-2.6268587
3.288,-3.7778559,9.516035,-4.62747,-1.5980492,3.2154818,-2.621875
3.29,-3.6722608,9.569195,-4.7083807,-1.5019276,3.3495693,-2.6208887
3.292,-3.559301,9.614298,-4.7989655,-1.4068798,3.478303,-2.6236577
3.294,-3.4393435,9.6503525,-4.8984127,-1.3138663,3.6001697,-2.629899
3.296,-3.3129294,9.676952,-5.005881,-1.2238525,3.713726,-2.6393182
3.298,-3.1805184,9.693462,-5.1203537,-1.1377156,3.8176832,-2.6516354
3.3,-3.0426457,9.699638,-5.240881,-1.0562521,3.9109406,-2.6665654
3.302,-2.9000697,9.695219,-5.36632,-0.980115,3.992641,-2.6838117
3.304,-2.753266,9.680143,-5.4953794,-0.9098427,4.062175,-2.7030613
3.306,-2.603034,9.654632,-5.627037,-0.84582746,4.1191387,-2.724031
3.308,-2.4499288,9.618765,-5.7599845,-0.78838074,4.1633387,-2.7464457
3.31,-2.294679,9.572885,-5.8930664,-0.73768914,4.1947556,-2.7700264
3.312,-2.1378412,9.5174675,-6.0251403,-0.6938437,4.213509,-2.794461
3.314,-1.9804242,9.452981,-6.1548243,-0.6568836,4.219805,-2.8194115
3.316,-1.822979,9.380188,-6.2811565,-0.6267692,4.213907,-2.8445
3.318,-1.6658947,9.29957,-6.403037,-0.6033963,4.1961284,-2.8693147
3.32,-1.5099165,9.211801,-6.5195913,-0.58655894,4.1668267,-2.8934035
3.322,-1.3554666,9.117752,-6.6299205,-0.57598543,4.1264305,-2.9162936
3.324,-1.202807,9.017923,-6.7333755,-0.5713315,4.075399,-2.9375203
3.326,-1.0524435,8.912935,-6.829256,-0.5721854,4.0142546,-2.9566314
3.328,-0.90445876,8.803403,-6.9169884,-0.57810533,3.943571,-2.9732533
3.33,-0.7592068,8.6900425,-6.996086,-0.58862174,3.8639886,-2.9871018
3.332,-0.61693716,8.573497,-7.066359,-0.6032424,3.7762084,-2.997956
3.334,-0.4776461,8.4540825,-7.1275992,-0.6214727,3.6810198,-3.0056965
3.336,-0.3414445,8.332377,-7.179581,-0.64286256,3.5792642,-3.01031
3.338,-0.20828986,8.2087555,-7.222471,-0.6669835,3.471811,-3.01187
3.34,-0.07821226,8.083433,-7.2563014,-0.69344914,3.3595784,-3.0105069
3.342,0.049002647,7.956557,-7.2812085,-0.7219429,3.2434628,-3.0064268
3.344,0.17349315,7.828253,-7.2974534,-0.75221014,3.1242929,-2.9998531
3.346,0.29511333,7.698621,-7.3052564,-0.784057,3.0028095,-2.9910338
3.348,0.41404366,7.567673,-7.304887,-0.81734,2.879645,-2.980196
3.35,0.53044987,7.4353514,-7.2965612,-0.85193044,2.7552912,-2.967571
3.352,0.6443093,7.301606,-7.2806334,-0.88775533,2.6300988,-2.953331
3.354,0.7558117,7.166309,-7.2574406,-0.9247436,2.504281,-2.93765
3.356,0.8652867,7.0293155,-7.227397,-0.96284056,2.3779256,-2.9206576
3.358,0.9724952,6.8905416,-7.1909113,-1.0020049,2.2510552,-2.9024444
3.36,1.0778954,6.7498884,-7.1486335,-1.0421991,2.1236722,-2.8830519
3.362,1.1814295,6.607511,-7.100908,-1.0833633,1.9957613,-2.862507
3.364,1.2831963,6.4632483,-7.047996,-1.1254416,1.8673575,-2.8408227
3.366,1.3832475,6.3171206,-6.9905353,-1.1683552,1.7385755,-2.8179862
3.368,1.4817666,6.1692905,-6.92884,-1.2120004,1.6096218,-2.7939851
3.37,1.5788227,6.019741,-6.863304,-1.2562481,1.4808148,-2.7687874
3.372,1.6742967,5.868855,-6.794183,-1.3009186,1.3525434,-2.7423544
3.374,1.7683684,5.716732,-6.721822,-1.3458254,1.2252824,-2.714645
3.376,1.8609164,5.5638275,-6.6465573,-1.3907301,1.0995495,-2.6856284
3.378,1.9519455,5.4103746,-6.568662,-1.435372,0.97588426,-2.655263
3.38,2.0415068,5.2568893,-6.4886203,-1.4794762,0.85482246,-2.6235409
3.382,2.1295404,5.103767,-6.4066434,-1.5227548,0.7368785,-2.5904675
3.384,2.2160437,4.951422,-6.3228736,-1.564909,0.6225283,-2.5560572
3.386,2.3009312,4.800413,-6.2377243,-1.6056561,0.51221234,-2.5203621
3.388,2.3843448,4.651171,-6.151534,-1.6447093,0.40632004,-2.4834352
3.39,2.4662063,4.504122,-6.0645914,-1.6817889,0.30521,-2.4453292
3.392,2.5465426,4.3597693,-5.9771404,-1.7166369,0.20921183,-2.4061275
3.394,2.6253555,4.218453,-5.889595,-1.749023,0.11859906,-2.3659384
3.396,2.7024944,4.0804863,-5.8021293,-1.7787316,0.033626795,-2.3248672
3.398,2.7781906,3.9462018,-5.7149076,-1.8055843,-0.04550022,-2.2830565
3.4,2.8523273,3.8159175,-5.628128,-1.8294212,-0.118614554,-2.2406373
3.402,2.9249206,3.6898875,-5.541753,-1.8501172,-0.18560928,-2.1977556
3.404,2.996059,3.5683823,-5.4559064,-1.8675793,-0.24644011,-2.1545506
3.406,3.0657554,3.451499,-5.3705893,-1.8817344,-0.301135,-2.111157
3.408,3.1340885,3.339281,-5.285634,-1.8925586,-0.3498281,-2.0676947
3.41,3.2010202,3.2317116,-5.200992,-1.900064,-0.3927328,-2.0242538
3.412,3.2665367,3.1288204,-5.1165857,-1.9043163,-0.4301416,-1.9808732
3.414,3.3306398,3.0304637,-5.0323124,-1.905418,-0.46240535,-1.9375103
3.416,3.393341,2.9365106,-4.9479275,-1.903529,-0.4899024,-1.894051
3.418,3.4545603,2.8467426,-4.863241,-1.8988284,-0.5129999,-1.850305
3.42,3.5142365,2.7609138,-4.7781234,-1.8915058,-0.53199744,-1.8060511
3.422,3.5722678,2.678811,-4.6922655,-1.8817568,-0.5471059,-1.7610381
3.424,3.628839,2.6002007,-4.6057568,-1.8697546,-0.55845135,-1.7150406
3.426,3.6837862,2.5248716,-4.5183883,-1.8556525,-0.56601816,-1.6678616
3.428,3.736705,2.452545,-4.4301643,-1.8395498,-0.5696844,-1.6193683
3.43,3.787922,2.3829203,-4.341096,-1.8214945,-0.56922543,-1.5695132
3.432,3.8371205,2.3158035,-4.251377,-1.8014839,-0.564339,-1.5183576
3.434,3.8843174,2.2509837,-4.1610327,-1.7794626,-0.5546806,-1.4660486
3.436,3.9294252,2.1883397,-4.0704126,-1.7553376,-0.53990376,-1.4127936
3.438,3.9724388,2.127675,-3.9798536,-1.7290086,-0.5196871,-1.3588535
3.44,4.013326,2.0687814,-3.8896677,-1.7003433,-0.4937594,-1.3044893
3.442,4.0521507,2.0115364,-3.8000875,-1.6692302,-0.46192962,-1.2499644
3.444,4.0889754,1.9559667,-3.7116187,-1.6355499,-0.42409346,-1.1954899
3.446,4.1236844,1.9020487,-3.6247406,-1.5992197,-0.38023585,-1.1412355
3.448,4.1563935,1.8497791,-3.5398054,-1.5601625,-0.33041605,-1.087306
3.45,4.1871004,1.7992504,-3.4573727,-1.518349,-0.2747903,-1.0337821
3.452,4.2159085,1.7506046,-3.3780408,-1.4737761,-0.21358958,-0.980699
3.454,4.2429476,1.7038456,-3.3022382,-1.4264917,-0.14712822,-0.9280887
3.456,4.2683587,1.6590952,-3.2305233,-1.3765949,-0.07581419,-0.87598
3.458,4.2921386,1.6165262,-3.163328,-1.3242381,-0.00012359023,-0.8243939
3.46,4.314356,1.5762908,-3.10104,-1.2696292,0.07939011,-0.77337533
3.462,4.3352513,1.5385221,-3.0439668,-1.2130319,0.16212496,-0.72298795
3.464,4.354533,1.503446,-2.992521,-1.1547476,0.24742706,-0.6733258
3.466,4.372269,1.4711918,-2.9467359,-1.0950996,0.3346181,-0.6244893
3.468,4.388655,1.441954,-2.9065173,-1.0344439,0.42300057,-0.5765945
3.47,4.4036236,1.4158117,-2.8717885,-0.973135,0.51191056,-0.529763
3.472,4.4174566,1.3927069,-2.8423605,-0.911512,0.6006944,-0.4841081
3.474,4.430047,1.3729696,-2.8181114,-0.8499114,0.68875945,-0.43972424
3.476,4.441488,1.3566407,-2.798809,-0.788633,0.77558935,-0.39668834
3.478,4.451803,1.3435974,-2.784072,-0.72794855,0.8607675,-0.35505268
3.48,4.46108,1.3339084,-2.7736063,-0.6680918,0.943948,-0.31484336
3.482,4.4696136,1.3272806,-2.767054,-0.6092752,1.0248713,-0.27606392
3.484,4.4774632,1.3237903,-2.7640834,-0.5516844,1.1033595,-0.23866677
3.486,4.4846063,1.3235224,-2.764422,-0.49548396,1.1793234,-0.2025683
3.488,4.4912276,1.3265235,-2.7673626,-0.4408104,1.2527275,-0.16765308
3.49,4.4975204,1.3325953,-2.772138,-0.3877722,1.323598,-0.1337986
3.492,4.5038443,1.3416529,-2.7783103,-0.33643007,1.3920014,-0.100859344
3.494,4.5103993,1.3534572,-2.7856088,-0.28683758,1.4580005,-0.06869882
3.496,4.5175467,1.3675921,-2.7937436,-0.2390247,1.5216665,-0.037219644
3.498,4.5253463,1.3837733,-2.8024926,-0.19298945,1.5830532,-0.0063679814
3.5,4.5341215,1.4016992,-2.8114617,-0.14869459,1.6422135,0.023878098
3.502,4.5438566,1.4210911,-2.8202665,-0.10610032,1.6991665,0.05348307
