Time_s_,Acc_x_m_s_2_,Acc_y_m_s_2_,Acc_z_m_s_2_,Gyro_x_1_s_,Gyro_y_1_s_,Gyro_z_1_s_
0,-0.065454304,0.106746495,0.23366359,0.046761602,-0.020393852,0.000578832
0.002,-0.06674038,0.10627645,0.23859537,0.04707414,-0.019274212,0.0005450257
0.004,-0.06810353,0.10575945,0.24354768,0.047435224,-0.017935291,0.0005183463
0.006,-0.06962539,0.10524366,0.24851498,0.047832787,-0.01634697,0.00050991937
0.008,-0.07131691,0.10458987,0.2534787,0.048277613,-0.014465395,0.0005214433
0.01,-0.07327271,0.103820294,0.25836354,0.048779607,-0.012254091,0.00055078976
0.012,-0.07524922,0.10307829,0.2630939,0.049332235,-0.009678579,0.0006073951
0.014,-0.07743551,0.1021698,0.26764053,0.049937002,-0.0067131054,0.0006976314
0.016,-0.07972976,0.10114648,0.2719042,0.05060305,-0.0033558253,0.00082319323
0.018,-0.08230873,0.100079745,0.27580354,0.051327646,0.0003848346,0.0009797551
0.02,-0.0849717,0.09876976,0.27921975,0.05212003,0.004490451,0.0011776229
0.022,-0.08775266,0.097354114,0.2820654,0.052973118,0.008921437,0.0014151046
0.024,-0.0906759,0.09580851,0.28422716,0.053888276,0.013634013,0.0016938634
0.026,-0.09363336,0.09409752,0.28559533,0.054874174,0.018567963,0.0020223632
0.028,-0.096496545,0.09215312,0.28605193,0.05594567,0.023759391,0.0024033114
0.03,-0.099393755,0.090021014,0.28549182,0.05707423,0.029055255,0.002843177
0.032,-0.10210196,0.08766293,0.28382748,0.058264267,0.034402873,0.003332669
0.034,-0.104693554,0.08509062,0.2810446,0.059503734,0.039758556,0.003882505
0.036,-0.10719435,0.082405806,0.27711934,0.060775165,0.045062326,0.004482515
0.038,-0.109444134,0.0794831,0.27198952,0.062071517,0.05025868,0.0051277243
0.04,-0.111456096,0.07637361,0.2656192,0.0633595,0.055265393,0.005803637
0.042,-0.11310376,0.07308607,0.25802672,0.06461231,0.059996516,0.006488513
0.044,-0.114492275,0.06963473,0.24931395,0.06580161,0.064355806,0.0071656816
0.046,-0.1155729,0.066071674,0.23940158,0.06689711,0.06823312,0.007810369
0.048,-0.11624143,0.06235998,0.22842431,0.06787415,0.07153092,0.008383896
0.05,-0.11652209,0.05853257,0.21648017,0.068713464,0.07415427,0.008854993
0.052,-0.116465256,0.05460959,0.20368537,0.06938685,0.07601751,0.009191766
0.054,-0.11604688,0.050562885,0.19027509,0.069893286,0.07706348,0.009349581
0.056,-0.11534704,0.046404194,0.17640173,0.07021088,0.077256896,0.009305447
0.058,-0.1143251,0.04220958,0.1622268,0.07033312,0.07657917,0.009054828
0.06,-0.11309719,0.038043573,0.14797679,0.07026109,0.07504086,0.008584216
0.062,-0.1116676,0.033851087,0.13408694,0.06999008,0.072661065,0.007905364
0.064,-0.1101179,0.029693289,0.12065311,0.06952393,0.06947218,0.0070449747
0.066,-0.108572595,0.025502818,0.107863486,0.068880275,0.065533474,0.006022919
0.068,-0.10707153,0.021357717,0.096048996,0.06806922,0.06090807,0.004872039
0.07,-0.105417855,0.01723207,0.085239634,0.067118056,0.05568937,0.0036391206
0.072,-0.104037,0.013182673,0.07566383,0.06607049,0.049969636,0.002367437
0.074,-0.10271679,0.009229172,0.06755275,0.064968035,0.043849327,0.001082696
0.076,-0.10157648,0.0054016476,0.06091661,0.06387135,0.037462678,-0.00017391704
0.078,-0.10062538,0.0016314555,0.05596563,0.062841356,0.0309529,-0.0013754256
0.08,-0.09989492,-0.0020870417,0.052700453,0.06192376,0.024475096,-0.0024990123
0.082,-0.099558614,-0.005566427,0.051144663,0.061183915,0.018180504,-0.0035081487
0.084,-0.099390194,-0.009004782,0.051311713,0.06066747,0.012238786,-0.0043754997
0.086,-0.099553995,-0.012398213,0.05314983,0.06040714,0.00679297,-0.0050742235
0.088,-0.10002124,-0.015553549,0.05654387,0.060431845,0.0019653775,-0.005591548
0.09,-0.10095221,-0.018637229,0.06143499,0.060750842,-0.002154177,-0.005910823
0.092,-0.102213316,-0.021703139,0.06766752,0.061346248,-0.0055180946,-0.006011735
0.094,-0.10387793,-0.024557397,0.07514504,0.06221604,-0.008115295,-0.0059051784
0.096,-0.10595854,-0.027305147,0.083834276,0.06332649,-0.009980122,-0.005602812
0.098,-0.10862785,-0.029921936,0.093413346,0.06463844,-0.011188439,-0.005119595
0.1,-0.11184101,-0.03247609,0.10387871,0.06611017,-0.011836102,-0.0044752704
0.102,-0.115636066,-0.03488334,0.115118854,0.067705825,-0.012028222,-0.0036967844
0.104,-0.12003028,-0.03723525,0.12696698,0.06938182,-0.011871949,-0.0028086882
0.106,-0.12514904,-0.039416716,0.13934074,0.0711051,-0.011463187,-0.001829627
0.108,-0.13109477,-0.041521735,0.1522117,0.07282622,-0.010875922,-0.00077775493
0.11,-0.1378114,-0.04341458,0.16533934,0.07452285,-0.010171457,0.00032702368
0.112,-0.14537545,-0.04516101,0.17876385,0.07617554,-0.009378747,0.0014829766
0.114,-0.15393943,-0.046609618,0.19243248,0.077763915,-0.0085134385,0.002693654
0.116,-0.16334467,-0.047797382,0.20613657,0.07926759,-0.007571594,0.0039636493
0.118,-0.17365429,-0.048664227,0.21989857,0.08067244,-0.006539583,0.0052974476
0.12,-0.1847843,-0.049223218,0.23362504,0.08197302,-0.005412644,0.0067071375
0.122,-0.19691162,-0.04959536,0.24729082,0.083176136,-0.004172392,0.008199533
0.124,-0.209847,-0.04949931,0.26079187,0.08428428,-0.002818074,0.009768346
0.126,-0.22374524,-0.049034595,0.27410188,0.08530632,-0.0013459735,0.011406656
0.128,-0.23836283,-0.0481385,0.28723323,0.08625728,0.00024883635,0.013106082
0.13,-0.2537988,-0.04673615,0.30008772,0.087163605,0.0019424614,0.014841238
0.132,-0.26986304,-0.04491188,0.3126164,0.08804782,0.0037166476,0.016585581
0.134,-0.2864684,-0.042648762,0.3247109,0.088947944,0.005558392,0.018318675
0.136,-0.30354896,-0.039900556,0.33627856,0.08990333,0.0074404553,0.020019993
0.138,-0.32104912,-0.03665507,0.34727657,0.09095263,0.009351486,0.0216752
0.14,-0.3386009,-0.03290204,0.3577212,0.092131905,0.011285234,0.023273518
0.142,-0.3562422,-0.028678767,0.36739674,0.09347567,0.013234569,0.024823008
0.144,-0.37356904,-0.023982212,0.37622613,0.09501034,0.015209384,0.026333364
0.146,-0.39054018,-0.018918112,0.38412958,0.09676297,0.017210335,0.027808294
0.148,-0.40692422,-0.01339034,0.39109108,0.09873877,0.019238187,0.029263306
0.15,-0.42262453,-0.007460676,0.3971665,0.10094631,0.02128725,0.030699879
0.152,-0.43752047,-0.0011494905,0.4023764,0.10337796,0.02335496,0.032112505
0.154,-0.4512288,0.0055412054,0.406578,0.10600269,0.025402166,0.033477053
0.156,-0.46373296,0.012640968,0.409925,0.10878079,0.027360614,0.03477148
0.158,-0.47504118,0.020153448,0.4124479,0.111673705,0.02915883,0.03594939
0.16,-0.48496124,0.02807001,0.41418993,0.114635795,0.030722924,0.03697318
0.162,-0.4933473,0.03646785,0.41518426,0.117612146,0.031968802,0.037802696
0.164,-0.50015324,0.04535129,0.41547108,0.120560266,0.032820854,0.038392805
0.166,-0.5054602,0.05469306,0.41524747,0.1234357,0.033217013,0.038715355
0.168,-0.50923544,0.064521715,0.41464,0.12621541,0.033125542,0.038765177
0.17,-0.5114466,0.074860714,0.4138027,0.12889878,0.03255114,0.038543355
0.172,-0.5122225,0.08580669,0.4127297,0.13149264,0.031537592,0.038085368
0.174,-0.511418,0.09728408,0.4117213,0.13400848,0.030139755,0.037433647
0.176,-0.5092624,0.10937717,0.41093522,0.13645583,0.028438196,0.03662566
0.178,-0.5057569,0.12213678,0.4104262,0.13885404,0.026514865,0.035726227
0.18,-0.5011457,0.13557982,0.41039377,0.14121625,0.024457224,0.034791645
0.182,-0.49526972,0.14972365,0.41091204,0.14356445,0.022333246,0.033858377
0.184,-0.4884094,0.16448024,0.4121663,0.14589153,0.02019865,0.03296823
0.186,-0.48062825,0.17992847,0.41429937,0.14819473,0.018056989,0.032145284
0.188,-0.47199085,0.19605248,0.41732556,0.15046304,0.015886758,0.03139079
0.19,-0.46254265,0.21270925,0.4216047,0.15267599,0.013629459,0.030699339
0.192,-0.45240736,0.22993971,0.42722502,0.15481284,0.0112019405,0.030061297
0.194,-0.44171035,0.24772447,0.43435317,0.15686068,0.008522242,0.029458974
0.196,-0.43056795,0.2661219,0.4432357,0.1588028,0.0055033453,0.028859105
0.198,-0.4189815,0.2849007,0.45403194,0.16062473,0.0020586848,0.028230965
0.2,-0.40700734,0.30420768,0.46691525,0.1623134,-0.0018530488,0.027554344
0.202,-0.39476904,0.32394233,0.48213598,0.16387025,-0.006244283,0.02681955
0.204,-0.38220152,0.34410176,0.49973625,0.16531165,-0.011084717,0.026030425
0.206,-0.36945528,0.3646693,0.5198811,0.16669396,-0.016296681,0.025187518
0.208,-0.35660762,0.38568145,0.542727,0.16808245,-0.02172738,0.024319751
0.21,-0.3436163,0.40716073,0.568368,0.16956243,-0.027159143,0.023469152
0.212,-0.33056498,0.42907542,0.5967511,0.1712363,-0.032338537,0.022680368
0.214,-0.31733918,0.45145312,0.6279254,0.17321089,-0.036986716,0.022017652
0.216,-0.3039642,0.4741472,0.661891,0.17560123,-0.040802523,0.021552823
0.218,-0.29034007,0.4973403,0.69843745,0.17850624,-0.043485682,0.021368165
0.22,-0.27653912,0.5209468,0.73766065,0.18200345,-0.04479079,0.021545075
0.222,-0.26246777,0.54496557,0.7793375,0.18614107,-0.044517867,0.022145862
0.224,-0.24792776,0.5692666,0.8232019,0.19093236,-0.04254056,0.023224548
0.226,-0.23308513,0.5938291,0.8690377,0.1963691,-0.03879784,0.024806265
0.228,-0.217754,0.6186826,0.9163912,0.20242904,-0.03328481,0.026910886
0.23,-0.20196393,0.6438934,0.9647326,0.20905676,-0.026073609,0.029525395
0.232,-0.18562454,0.6695028,1.0131813,0.21618424,-0.017266206,0.032610614
0.234,-0.16867182,0.6953147,1.0614054,0.22373672,-0.0070094317,0.036117796
0.236,-0.15131378,0.7215839,1.1093543,0.23161379,0.004551202,0.03999463
0.238,-0.13349769,0.7480155,1.1566665,0.23973092,0.01727835,0.044182256
0.24,-0.11490351,0.77444607,1.2028807,0.24800712,0.031051837,0.04862681
0.242,-0.09557012,0.80061406,1.2471976,0.25635403,0.045766488,0.053295672
0.244,-0.07543227,0.8263004,1.2885554,0.2646975,0.061348327,0.05815938
0.246,-0.054457545,0.8513207,1.3264179,0.27297768,0.077707164,0.063212
0.248,-0.03295827,0.8757594,1.3605142,0.28113154,0.09476018,0.06843575
0.25,-0.01108551,0.89937466,1.3902965,0.28910464,0.11243408,0.07383448
0.252,0.011324108,0.92209697,1.4154546,0.29684958,0.13063833,0.07939198
0.254,0.034115553,0.94366974,1.4354407,0.3043201,0.14925945,0.08508374
0.256,0.05747226,0.9638672,1.4496746,0.31146526,0.16812405,0.090871386
0.258,0.08135584,0.982556,1.4577024,0.31819952,0.1869988,0.09669356
0.26,0.10580349,0.9995222,1.4591374,0.3244258,0.20558372,0.10250691
0.262,0.13083601,1.0145873,1.4537052,0.33006632,0.22351325,0.10825647
0.264,0.15624547,1.0276841,1.441336,0.3349658,0.24023679,0.113842465
0.266,0.18221116,1.0386183,1.4218366,0.33894858,0.25513756,0.11916874
0.268,0.20883757,1.0473549,1.3951385,0.341858,0.2676445,0.12412275
0.27,0.23623317,1.0537863,1.3612782,0.3435127,0.2771409,0.12860712
0.272,0.26475567,1.0576174,1.3206959,0.34374586,0.282996,0.13253579
0.274,0.29433405,1.058769,1.2736578,0.34241188,0.28456828,0.13583446
0.276,0.32508495,1.0573028,1.2205079,0.33935624,0.28115898,0.13843447
0.278,0.35705042,1.0531268,1.1617919,0.33444282,0.2721129,0.14024146
0.28,0.3904947,1.04609,1.0982667,0.32760504,0.2569485,0.14114316
0.282,0.42562953,1.0362065,1.0305207,0.31880337,0.23533694,0.14102806
0.284,0.46249822,1.0235811,0.95938396,0.30804092,0.20709187,0.13981673
0.286,0.5010943,1.0083119,0.88558733,0.2953522,0.17219082,0.13746122
0.288,0.54159284,0.99029034,0.80947846,0.2808358,0.13079786,0.13397005
0.29,0.5846328,0.96930665,0.7319834,0.2646366,0.083262354,0.12942404
0.292,0.6306225,0.94517875,0.65418285,0.24696125,0.030092493,0.1239796
0.294,0.6795734,0.9180373,0.5766537,0.22804695,-0.028062284,0.117862485
0.296,0.7314117,0.88794714,0.5000831,0.20819002,-0.09046883,0.11134414
0.298,0.78621477,0.8551893,0.42499435,0.18771161,-0.15633613,0.1047497
0.3,0.8442192,0.8198904,0.35174447,0.16693525,-0.22484165,0.09838096
0.302,0.9055876,0.782369,0.28054523,0.14617793,-0.29520017,0.092527784
0.304,0.96995175,0.7431624,0.21163797,0.1257413,-0.366697,0.08739936
0.306,1.0373672,0.7026107,0.1452389,0.10587646,-0.4387067,0.08316529
0.308,1.1079105,0.660899,0.08191666,0.086776964,-0.51072186,0.07993238
0.31,1.1815419,0.61820626,0.021772206,0.06859826,-0.5823161,0.07772979
0.312,1.2579021,0.5749122,-0.03481397,0.051448092,-0.65319717,0.0765301
0.314,1.3366507,0.5311405,-0.08742058,0.035364345,-0.7231834,0.076212496
0.316,1.4178257,0.4871479,-0.13551328,0.020353675,-0.79216206,0.076628864
0.318,1.5013466,0.44312096,-0.1785306,0.0064399987,-0.8599882,0.077637285
0.32,1.5869421,0.3992701,-0.21602371,-0.006385833,-0.9266303,0.0790872
0.322,1.674531,0.35551542,-0.24759826,-0.01818028,-0.99212605,0.0808073
0.324,1.7638326,0.31210217,-0.2723867,-0.028968737,-1.0564272,0.08263907
0.326,1.8545535,0.26911062,-0.2899618,-0.038795114,-1.1194313,0.08446431
0.328,1.9464035,0.22639845,-0.29985216,-0.04769212,-1.1809347,0.08625364
0.33,2.038746,0.1843706,-0.30110633,-0.05565542,-1.2406173,0.08808386
0.332,2.1306734,0.14328766,-0.29373798,-0.062689304,-1.2981689,0.09009457
0.334,2.2220716,0.10311359,-0.27820498,-0.06884363,-1.3533771,0.092475235
0.336,2.3123014,0.06421897,-0.2542733,-0.07416329,-1.4059536,0.09545958
0.338,2.4002912,0.026841104,-0.22113752,-0.078677565,-1.4555447,0.09932768
0.34,2.4852948,-0.008890808,-0.17771089,-0.08244929,-1.5018475,0.10434884
0.342,2.5664203,-0.04284787,-0.12251201,-0.08558273,-1.5446601,0.110809505
0.344,2.6426644,-0.07500225,-0.05479431,-0.08819643,-1.5838482,0.11897743
0.346,2.7134492,-0.10566574,0.025188833,-0.090385556,-1.6193001,0.12906265
0.348,2.7773352,-0.13450062,0.11713976,-0.09217888,-1.6509209,0.14118159
0.35,2.832656,-0.16117162,0.22078365,-0.09355503,-1.6786008,0.1553129
0.352,2.8781962,-0.18519026,0.33573592,-0.09442848,-1.7021905,0.17128736
0.354,2.9124267,-0.20608771,0.4612583,-0.0946486,-1.7214892,0.18882698
0.356,2.934405,-0.22382396,0.595625,-0.093992144,-1.7361662,0.20756018
0.358,2.9435854,-0.23837554,0.7370094,-0.0922119,-1.7457952,0.22710562
0.36,2.939082,-0.24946713,0.8842316,-0.089061916,-1.749901,0.247073
0.362,2.9200459,-0.2569679,1.0360498,-0.08424449,-1.7477658,0.26717675
0.364,2.8861787,-0.26076794,1.1914067,-0.07747325,-1.7385979,0.28732485
0.366,2.8371737,-0.26081574,1.3493466,-0.06852624,-1.7217917,0.30753767
0.368,2.772958,-0.2573316,1.5084995,-0.057185024,-1.696811,0.32797223
0.37,2.6941712,-0.25060976,1.6670119,-0.043252617,-1.6632233,0.3488871
0.372,2.6018977,-0.2411964,1.8226184,-0.026536793,-1.6207631,0.37055957
0.374,2.4975877,-0.2297194,1.9731729,-0.0068590045,-1.5692859,0.39325684
0.376,2.3823051,-0.21656561,2.1168318,0.015963733,-1.5088863,0.41723418
0.378,2.25751,-0.20225453,2.251999,0.04208809,-1.4399056,0.44264367
0.38,2.1246214,-0.18721342,2.377315,0.07164964,-1.3628466,0.46949902
0.382,1.9852073,-0.17182302,2.4912238,0.104714975,-1.2783812,0.4976262
0.384,1.8415134,-0.15660965,2.5922844,0.141244,-1.1872792,0.5267241
0.386,1.6957927,-0.14231956,2.6790566,0.18104438,-1.0903037,0.55645204
0.388,1.5500089,-0.12949061,2.7501628,0.2237253,-0.9882462,0.5864347
0.39,1.4057941,-0.11845553,2.8043451,0.26868248,-0.88195765,0.6162969
0.392,1.2650478,-0.1096046,2.8407297,0.31512457,-0.77227765,0.6456827
0.394,1.1291265,-0.10331571,2.8585792,0.36214685,-0.66007376,0.67434937
0.396,0.99967754,-0.09981656,2.8576174,0.40879261,-0.5463099,0.70210373
0.398,0.87772053,-0.09917843,2.8382244,0.45415097,-0.43215293,0.7288049
0.4,0.76369303,-0.10120213,2.8004155,0.49743658,-0.31898886,0.7543696
0.402,0.65839124,-0.1059401,2.7444427,0.5380451,-0.20843112,0.7786958
0.404,0.5624522,-0.11339176,2.6714263,0.5755649,-0.102384746,0.80159926
0.406,0.47639853,-0.12339699,2.582448,0.60974467,-0.002951324,0.8227531
0.408,0.40032244,-0.1356312,2.479093,0.6404256,0.087753534,0.8417051
0.41,0.3339399,-0.14967096,2.3629217,0.6674236,0.16768306,0.8579191
0.412,0.2768548,-0.1651367,2.2358751,0.6905296,0.23511806,0.8708255
0.414,0.22899958,-0.18144304,2.099935,0.70946956,0.28883514,0.87996954
0.416,0.18986401,-0.19809628,1.9571574,0.7238661,0.32801232,0.8850471
0.418,0.15842476,-0.21425158,1.8094337,0.7333665,0.35248613,0.88597554
0.42,0.13416907,-0.22925967,1.6591161,0.7377727,0.3628469,0.88299453
0.422,0.1163854,-0.24282521,1.5084186,0.73702896,0.3601353,0.8766096
0.424,0.10417083,-0.2544264,1.3594182,0.731322,0.34574458,0.8674798
0.426,0.09648822,-0.26374263,1.2139776,0.72107434,0.3213593,0.85639656
0.428,0.09205949,-0.27042875,1.0739746,0.70692486,0.2887861,0.8441309
0.43,0.09002243,-0.27409816,0.9411311,0.6896486,0.24986964,0.8313113
0.432,0.089048885,-0.27427498,0.8170985,0.67005366,0.20638236,0.8184354
0.434,0.08832021,-0.2709676,0.7028575,0.648932,0.15989238,0.80580676
0.436,0.08695941,-0.26402253,0.5995978,0.6270151,0.111772,0.7935656
0.438,0.08404571,-0.2534162,0.50808126,0.60492104,0.06316471,0.78168344
0.44,0.078891665,-0.23949745,0.42817086,0.58318514,0.015014201,0.76998675
0.442,0.07085795,-0.22232948,0.36055657,0.56229156,-0.031850785,0.7582637
0.444,0.058472663,-0.20171535,0.3056895,0.5426543,-0.07668838,0.74633235
0.446,0.04101056,-0.17782955,0.26289663,0.5246234,-0.11882612,0.7340927
0.448,0.018051207,-0.15057054,0.23072955,0.50850403,-0.15757081,0.7215507
0.45,-0.011063803,-0.1198476,0.20758513,0.49454784,-0.19222182,0.7088919
0.452,-0.047071688,-0.08531003,0.19188374,0.48292384,-0.22210357,0.696431
0.454,-0.09027382,-0.046630185,0.18236953,0.47370046,-0.24661678,0.6845883
0.456,-0.14127737,-0.003443567,0.17856418,0.46688747,-0.26521137,0.6738777
0.458,-0.19996536,0.04432395,0.18008627,0.46246934,-0.2773516,0.6648581
0.46,-0.2661304,0.096497566,0.18646133,0.46042514,-0.2826181,0.65803516
0.462,-0.339552,0.15280816,0.1969518,0.46074224,-0.2807731,0.6537786
0.464,-0.41961747,0.21310137,0.21081202,0.46345308,-0.2717346,0.6522742
0.466,-0.5062185,0.27747175,0.22716461,0.46858215,-0.2555818,0.6535578
0.468,-0.5987454,0.34555984,0.24471153,0.4761709,-0.23251513,0.657501
0.47,-0.6964149,0.41724035,0.26155314,0.4862459,-0.20282182,0.6638831
0.472,-0.7985287,0.49229038,0.27637088,0.49877286,-0.16689417,0.6724199
0.474,-0.90437853,0.57043296,0.28762683,0.51363283,-0.12522903,0.6828086
0.476,-1.0131923,0.65131986,0.29386324,0.5305975,-0.078451574,0.6947425
0.478,-1.123723,0.73431987,0.29427788,0.5493483,-0.027290761,0.70792365
0.48,-1.2348342,0.81872636,0.2884581,0.5694871,0.02741611,0.72204304
0.482,-1.345905,0.9041294,0.2761856,0.59055734,0.08471194,0.7367848
0.484,-1.455785,0.9895904,0.257325,0.612072,0.14359769,0.75183195
0.486,-1.5631486,1.0740986,0.23122373,0.6335273,0.20302916,0.76684105
0.488,-1.666688,1.1565716,0.19720134,0.65438485,0.2619307,0.78145885
0.49,-1.7651753,1.2359916,0.1545972,0.6741129,0.31923047,0.795354
0.492,-1.8579897,1.3116488,0.10318158,0.6922119,0.37386096,0.80823046
0.494,-1.9445995,1.3828735,0.043224514,0.70821446,0.4248039,0.81985575
0.496,-2.0249317,1.4492375,-0.024873927,0.72169316,0.47109872,0.83006954
0.498,-2.0987773,1.5104686,-0.10077992,0.732298,0.5118346,0.83878386
0.5,-2.1656783,1.5662158,-0.1837637,0.7397707,0.5462221,0.84598994
0.502,-2.225636,1.6162934,-0.27295563,0.7439595,0.5736263,0.85170543
0.504,-2.2788858,1.6608132,-0.36737686,0.74483925,0.5936238,0.8559805
0.506,-2.3256528,1.6998247,-0.46646926,0.7425147,0.606063,0.85891783
0.508,-2.3663278,1.7336344,-0.5697028,0.7371816,0.6110144,0.8606549
0.51,-2.4015818,1.7627017,-0.676343,0.7291188,0.60871357,0.86133826
0.512,-2.4323642,1.7876102,-0.78509676,0.71867687,0.59961087,0.8611207
0.514,-2.4593863,1.8089952,-0.8948077,0.70624864,0.5843431,0.8601685
0.516,-2.4838378,1.8273983,-1.0039856,0.69225657,0.5636952,0.8586679
0.518,-2.5065525,1.8433429,-1.1113204,0.67712116,0.5385336,0.85679924
0.52,-2.528637,1.8575591,-1.2152942,0.6612669,0.50975275,0.8547142
0.522,-2.550885,1.8706067,-1.3147295,0.64509684,0.47824746,0.8525404
0.524,-2.5744622,1.8831651,-1.4088954,0.6289758,0.44492343,0.85034263
0.526,-2.6004155,1.8960202,-1.4967744,0.61323607,0.41065812,0.8481748
0.528,-2.6302083,1.9101179,-1.5785779,0.5981603,0.37626198,0.84608006
0.53,-2.6631021,1.9250833,-1.6506455,0.583964,0.3424088,0.84410614
0.532,-2.6997397,1.941493,-1.71092,0.570755,0.30965638,0.842304
0.534,-2.7403677,1.9591494,-1.7592573,0.55860555,0.27848423,0.84070295
0.536,-2.784214,1.9774368,-1.7957573,0.5475538,0.2493718,0.8393543
0.538,-2.8309536,1.9956765,-1.8197999,0.53764135,0.22272563,0.8383264
0.54,-2.8807635,2.0134106,-1.8305482,0.52894515,0.19889846,0.8376943
0.542,-2.9329193,2.0300374,-1.8275888,0.5215858,0.1782375,0.83754885
0.544,-2.9868188,2.044589,-1.8107212,0.5157374,0.16109875,0.8379482
0.546,-3.041607,2.0560338,-1.7797132,0.51160854,0.14785132,0.8389541
0.548,-3.0965657,2.0633898,-1.7340187,0.50941277,0.13884524,0.84060454
0.55,-3.1506574,2.0655732,-1.6727986,0.50934935,0.13439837,0.8428886
0.552,-3.2030861,2.0613534,-1.5954555,0.5115576,0.134758,0.84577227
0.554,-3.2522297,2.0493047,-1.5017614,0.51609504,0.14002156,0.8491901
0.556,-3.296396,2.0279398,-1.3916162,0.5229285,0.15011233,0.8530458
0.558,-3.3343496,1.9958184,-1.2650672,0.5319588,0.1647982,0.857185
0.56,-3.364815,1.9518287,-1.1222203,0.5428667,0.18342677,0.8613939
0.562,-3.3854318,1.8942338,-0.96321154,0.55532,0.2054308,0.8654639
0.564,-3.3946004,1.8218005,-0.7881639,0.5689424,0.23033965,0.8691356
0.566,-3.390646,1.7334338,-0.597487,0.5831692,0.2573328,0.8721968
0.568,-3.3719304,1.6279367,-0.39172027,0.59737396,0.28542784,0.8744957
0.57,-3.336934,1.504504,-0.17142037,0.6109197,0.31376925,0.87585336
0.572,-3.2846072,1.3624533,0.06326866,0.6231341,0.34164023,0.876094
0.574,-3.2140305,1.2013083,0.31198135,0.6332368,0.3684129,0.8750523
0.576,-3.1245384,1.0209706,0.57396334,0.6403502,0.39356974,0.8726221
0.578,-3.0160863,0.8218788,0.84747565,0.6435524,0.41679463,0.8687942
0.58,-2.8876882,0.6041802,1.1302514,0.64186645,0.43795216,0.8636347
0.582,-2.7387826,0.36856335,1.4192818,0.6343511,0.45712322,0.8573131
0.584,-2.570631,0.116913795,1.7117038,0.6201836,0.47457814,0.85015726
0.586,-2.3842359,-0.14874019,2.0046225,0.59872067,0.4906192,0.84265304
0.588,-2.1817749,-0.42576164,2.2942052,0.56958133,0.5055558,0.83539736
0.59,-1.964977,-0.71083957,2.576007,0.53270376,0.519665,0.82903206
0.592,-1.7361435,-1.0002652,2.8465579,0.488275,0.53305995,0.8242207
0.594,-1.4982028,-1.2900636,3.102849,0.43672174,0.54563284,0.82160914
0.596,-1.2535577,-1.5764531,3.3419862,0.37868494,0.55707574,0.82177335
0.598,-1.0048888,-1.8557727,3.5604415,0.3148843,0.5667995,0.8251753
0.6,-0.754803,-2.1244583,3.755358,0.2460581,0.57394457,0.8321233
0.602,-0.50621617,-2.378524,3.9245234,0.17290032,0.57740736,0.84276617
0.604,-0.2640089,-2.613237,4.0664716,0.09600535,0.57593924,0.8570738
0.606,-0.027242936,-2.8268998,4.1788507,0.0158616,0.56821835,0.87482715
0.608,0.20316172,-3.0169187,4.258808,-0.067127734,0.55298537,0.8956392
0.61,0.42361626,-3.1801033,4.306754,-0.15261784,0.5291384,0.91900635
0.612,0.6312441,-3.3144815,4.3234835,-0.24024951,0.49585563,0.9442978
0.614,0.8250796,-3.419013,4.3091574,-0.3295268,0.45280614,0.9706518
0.616,1.0039107,-3.4933126,4.264735,-0.41990513,0.39994693,0.997092
0.618,1.1666846,-3.5371628,4.191616,-0.510626,0.3380255,1.02284
0.62,1.3125662,-3.550846,4.0915275,-0.6006974,0.26866022,1.047113
0.622,1.440844,-3.5355358,3.966656,-0.68901694,0.19404604,1.0691993
0.624,1.5511733,-3.4931421,3.8191764,-0.7743265,0.11678688,1.088554
0.626,1.6435894,-3.4260905,3.6513658,-0.85519665,0.039899938,1.1048404
0.628,1.7179672,-3.3369987,3.465129,-0.93004245,-0.033329874,1.1179322
0.63,1.773988,-3.2289996,3.2629936,-0.997234,-0.099694446,1.1278899
0.632,1.8115177,-3.1048422,3.0479543,-1.0552183,-0.1563746,1.134859
0.634,1.8304183,-2.9678273,2.8231006,-1.1025708,-0.20097294,1.1389635
0.636,1.8314712,-2.8212702,2.5909624,-1.1381586,-0.2314759,1.1404537
0.638,1.8152263,-2.6684601,2.3552332,-1.1613696,-0.24680375,1.1395746
0.64,1.7810538,-2.5114212,2.1161048,-1.1720686,-0.24649405,1.1363695
0.642,1.7302501,-2.35329,1.8758644,-1.1706374,-0.23049988,1.1307282
0.644,1.6640033,-2.1964865,1.6386316,-1.158003,-0.19933,1.1225979
0.646,1.5827053,-2.0430868,1.4079304,-1.1354592,-0.15380907,1.1120837
0.648,1.487094,-1.8949363,1.1854576,-1.1045127,-0.09497567,1.0994502
0.65,1.3779845,-1.753558,0.97218966,-1.0667933,-0.024157615,1.0849967
0.652,1.2559901,-1.6201066,0.7698753,-1.0239319,0.057135336,1.0690465
0.654,1.1224294,-1.4950659,0.58120865,-0.977491,0.14730078,1.0519406
0.656,0.9785963,-1.3790456,0.4084353,-0.92892104,0.24461758,1.033991
0.658,0.8260919,-1.272373,0.2523321,-0.8794688,0.34718233,1.0154207
0.66,0.66607326,-1.1754341,0.113242686,-0.8302124,0.45291746,0.99634886
0.662,0.49958235,-1.0882169,-0.00787349,-0.7821212,0.5596529,0.9765261
0.664,0.32708243,-1.0103343,-0.10922679,-0.7359675,0.665333,0.95544505
0.666,0.1496422,-0.9412675,-0.18967985,-0.6924137,0.767945,0.9324757
0.668,-0.031451702,-0.88060784,-0.24905,-0.65200734,0.86569947,0.9069407
0.67,-0.21479188,-0.8282162,-0.28817558,-0.61520374,0.95703346,0.8780275
0.672,-0.39962077,-0.7832679,-0.30856293,-0.582399,1.0405352,0.8447778
0.674,-0.58486456,-0.74501777,-0.31191576,-0.55381656,1.115329,0.8064275
0.676,-0.7698455,-0.7123903,-0.30047402,-0.52955586,1.1809614,0.762485
0.678,-0.95417535,-0.6840273,-0.276779,-0.5096438,1.2372661,0.71273863
0.68,-1.1372302,-0.65859973,-0.2433967,-0.494001,1.2843611,0.6572299
0.682,-1.3174446,-0.63501656,-0.20275122,-0.48250547,1.32256,0.5962543
0.684,-1.4933774,-0.6120553,-0.15637153,-0.47498578,1.3524308,0.5303446
0.686,-1.66292,-0.5889987,-0.10529035,-0.4711893,1.3748919,0.46025562
0.688,-1.8239994,-0.5650423,-0.05028373,-0.4707618,1.3910568,0.38693932
0.69,-1.9757125,-0.53919995,0.007716775,-0.47328645,1.4019058,0.31131664
0.692,-2.116397,-0.5108615,0.06722772,-0.4782639,1.4086449,0.2343517
0.694,-2.2426877,-0.4803602,0.12688112,-0.48525867,1.412332,0.15711889
0.696,-2.3519022,-0.44777066,0.18555015,-0.49392593,1.4138255,0.080564976
0.698,-2.4411795,-0.41344786,0.24232686,-0.50401294,1.4139416,0.005281657
0.7,-2.5085795,-0.37821478,0.29643738,-0.51545715,1.4133606,-0.06840104
0.702,-2.5523381,-0.34283298,0.34569573,-0.5284104,1.4126556,-0.14025807
0.704,-2.5708578,-0.30769795,0.38735563,-0.54312694,1.4124379,-0.21004757
0.706,-2.5630372,-0.2727545,0.41954213,-0.5598173,1.4134514,-0.277589
0.708,-2.5285394,-0.23765594,0.44078255,-0.57861006,1.4165437,-0.34277079
0.71,-2.467246,-0.20215249,0.4487847,-0.5994738,1.4227159,-0.40545863
0.712,-2.3790088,-0.16636103,0.44070578,-0.62221193,1.4331316,-0.4654291
0.714,-2.2631383,-0.13066632,0.4138778,-0.6464096,1.4489672,-0.522403
0.716,-2.1246636,-0.09285498,0.3671987,-0.6714024,1.4712422,-0.57584476
0.718,-1.9654965,-0.052226365,0.30016568,-0.69637173,1.5005851,-0.62517524
0.72,-1.7855959,-0.008850455,0.20943373,-0.7203531,1.5371499,-0.6698428
0.722,-1.5866685,0.038357913,0.09299463,-0.74228144,1.5803949,-0.70925355
0.724,-1.3720223,0.09055066,-0.049704254,-0.76119274,1.6289783,-0.7427946
0.726,-1.1448463,0.1489096,-0.21859464,-0.7763386,1.6808203,-0.7699599
0.728,-0.90761685,0.21392432,-0.41341677,-0.7873478,1.7332814,-0.7905015
0.73,-0.66250455,0.28553024,-0.6334617,-0.7943797,1.7833155,-0.8044638
0.732,-0.4116051,0.36386517,-0.87775683,-0.79816234,1.8277183,-0.81219345
0.734,-0.15734816,0.4488069,-1.1439316,-0.7999587,1.8634381,-0.8143279
0.736,0.09834017,0.53995097,-1.42958,-0.80140543,1.8878014,-0.8117559
0.738,0.35349214,0.6363965,-1.7311745,-0.8043581,1.8986332,-0.8055888
0.74,0.60725397,0.73700064,-2.0457692,-0.8107027,1.894298,-0.79706305
0.742,0.85949945,0.8398582,-2.3701975,-0.82207847,1.8738418,-0.7874766
0.744,1.1096319,0.9434985,-2.699993,-0.83961725,1.8371422,-0.7780713
0.746,1.3571306,1.0457351,-3.031557,-0.86374295,1.7847984,-0.769879
0.748,1.602598,1.144233,-3.360996,-0.89419216,1.7179091,-0.763576
0.75,1.8455793,1.2368293,-3.684025,-0.9300286,1.6379191,-0.7594155
0.752,2.0859358,1.3214959,-3.9960823,-0.96976507,1.5465554,-0.7572713
0.754,2.323642,1.3963004,-4.2922373,-1.0115715,1.4456731,-0.7566724
0.756,2.5584075,1.4598356,-4.5677304,-1.0535418,1.3370663,-0.756841
0.758,2.7903733,1.5107106,-4.818047,-1.0939208,1.2223626,-0.7567703
0.76,3.0196893,1.5474942,-5.038522,-1.1313016,1.1029383,-0.7553564
0.762,3.2456975,1.5694141,-5.225592,-1.164718,0.9799237,-0.7515851
0.764,3.4666038,1.576309,-5.377063,-1.1937099,0.85420775,-0.74465346
0.766,3.6807218,1.5685976,-5.4908237,-1.2182913,0.72652185,-0.7340122
0.768,3.8861432,1.5471148,-5.564078,-1.2388402,0.59758794,-0.71939206
0.77,4.0807548,1.5133629,-5.5946527,-1.2559772,0.4682512,-0.7007863
0.772,4.262606,1.4690276,-5.581523,-1.2704928,0.33948123,-0.67847264
0.774,4.4291625,1.4160318,-5.5245132,-1.2831774,0.21261644,-0.6529963
0.776,4.577714,1.3566236,-5.423219,-1.2946788,0.08939773,-0.6249793
0.778,4.70583,1.2932411,-5.277244,-1.3054496,-0.028201282,-0.59503245
0.78,4.8111873,1.2285194,-5.0866027,-1.315685,-0.1380707,-0.56363976
0.782,4.891657,1.1649435,-4.8523707,-1.3252926,-0.23812127,-0.5310549
0.784,4.9459763,1.104721,-4.5770826,-1.3339353,-0.3264357,-0.49732965
0.786,4.973545,1.0496198,-4.263816,-1.3411021,-0.40135723,-0.46233183
0.788,4.974071,1.0014583,-3.9165096,-1.3462026,-0.46167952,-0.42580742
0.79,4.9473886,0.9619908,-3.540058,-1.3486667,-0.50670904,-0.38744548
0.792,4.893588,0.9327599,-3.1404722,-1.3479917,-0.5362662,-0.34691522
0.794,4.8134446,0.9147493,-2.7245007,-1.343765,-0.55063987,-0.3039576
0.796,4.707757,0.9090552,-2.2991407,-1.3357191,-0.5504961,-0.25845036
0.798,4.5786047,0.91604775,-1.8708353,-1.3237379,-0.5367907,-0.21046841
0.8,4.428915,0.9356522,-1.4457197,-1.3078597,-0.5106412,-0.16026637
0.802,4.261795,0.9674765,-1.0295286,-1.2882245,-0.47321993,-0.108294666
0.804,4.0808563,1.0106072,-0.6282108,-1.2650677,-0.42571062,-0.055143595
0.806,3.889789,1.0638957,-0.24741578,-1.2386763,-0.36921787,-0.0014740825
0.808,3.693041,1.1256952,0.10784924,-1.209357,-0.30483824,0.051956445
0.81,3.4968538,1.1932427,0.43353236,-1.1774304,-0.23374493,0.104341924
0.812,3.304549,1.2649764,0.7272142,-1.1432004,-0.1572387,0.15488607
0.814,3.1203017,1.3383585,0.98724526,-1.1069607,-0.07683271,0.20286372
0.816,2.9484873,1.410722,1.2117388,-1.0690186,0.0056643337,0.2476555
0.818,2.7946467,1.4790566,1.4001912,-1.0297496,0.08811101,0.28874776
0.82,2.6629233,1.5405726,1.5538273,-0.9896275,0.1680569,0.32572874
0.822,2.5570278,1.5924892,1.674088,-0.9492759,0.2428315,0.35833478
0.824,2.4803824,1.6323923,1.7626561,-0.9094547,0.3096766,0.3864275
0.826,2.4344635,1.6589267,1.8220662,-0.8709737,0.3660441,0.41005263
0.828,2.4208236,1.6706011,1.8556554,-0.83467865,0.40963,0.42943734
0.83,2.4395037,1.6667008,1.8673371,-0.80144006,0.43845204,0.4448013
0.832,2.491545,1.6463616,1.8612119,-0.7720411,0.45104194,0.45639622
0.834,2.5770917,1.6093421,1.8416092,-0.7471452,0.44650406,0.46453202
0.836,2.6952577,1.5558095,1.8125969,-0.72725946,0.42450565,0.46952426
0.838,2.8442283,1.486468,1.7785325,-0.71270514,0.38535076,0.47170705
0.84,3.0216513,1.4026761,1.743979,-0.7036477,0.32985714,0.47146162
0.842,3.2244785,1.3062273,1.7132101,-0.70012933,0.25912917,0.46909976
0.844,3.4499922,1.1988441,1.6900545,-0.70202893,0.17473201,0.46501473
0.846,3.694901,1.0823114,1.6784371,-0.7090219,0.07880519,0.45980522
0.848,3.9553924,0.95866406,1.6809367,-0.7206628,-0.026243083,0.45412746
0.85,4.2268114,0.830333,1.699774,-0.73635185,-0.1377218,0.44868755
0.852,4.5033083,0.6997564,1.7362504,-0.7553177,-0.25264168,0.44435906
0.854,4.7798734,0.56974053,1.789931,-0.77669096,-0.3678481,0.4420926
0.856,5.05058,0.44372237,1.8608277,-0.7994366,-0.48004687,0.44291595
0.858,5.3094816,0.32492423,1.9479713,-0.82240665,-0.5858934,0.44786415
0.86,5.5512266,0.21647787,2.049696,-0.8443058,-0.6819488,0.45798635
0.862,5.770582,0.121561766,2.1638548,-0.8637166,-0.7647384,0.47425154
0.864,5.9620476,0.04328704,2.2872806,-0.8791417,-0.83088243,0.49743393
0.866,6.1210165,-0.015583515,2.4165716,-0.8890631,-0.87727356,0.52810895
0.868,6.243501,-0.052698374,2.5486202,-0.89204144,-0.90131384,0.5665716
0.87,6.325823,-0.06590772,2.680037,-0.88684636,-0.9010618,0.6127744
0.872,6.364772,-0.05345893,2.8078456,-0.8724996,-0.8753386,0.6662866
0.874,6.358176,-0.014180183,2.929556,-0.8483492,-0.8237858,0.72631353
0.876,6.304447,0.05270624,3.042873,-0.8141262,-0.74699265,0.7916907
0.878,6.2029085,0.14713168,3.1457994,-0.77005935,-0.6466292,0.86085933
0.88,6.054041,0.26855135,3.2364638,-0.71685505,-0.5253654,0.9319961
0.882,5.859098,0.41550517,3.3129041,-0.65563273,-0.38661814,1.0031464
0.884,5.6203904,0.5859697,3.373454,-0.58780694,-0.23422018,1.0723736
0.886,5.3408146,0.7774184,3.416549,-0.51497555,-0.072182566,1.1378738
0.888,5.0239363,0.987406,3.4412363,-0.4388034,0.09555045,1.1981095
0.89,4.6733427,1.2133446,3.4469588,-0.3608957,0.26544815,1.2519124
0.892,4.293537,1.4522704,3.4337196,-0.28271544,0.43453968,1.298511
0.894,3.8891792,1.7012682,3.401978,-0.2055034,0.60057974,1.3375423
0.896,3.465187,1.9572301,3.3525345,-0.13022614,0.7621259,1.3690995
0.898,3.0264287,2.2167468,3.2864032,-0.05766231,0.918077,1.3934524
0.9,2.578108,2.4764063,3.2046192,0.011492848,1.0673401,1.4109173
0.902,2.124727,2.7335649,3.1085632,0.07670599,1.208899,1.4219124
0.904,1.6703777,2.9860196,3.0000322,0.13749915,1.3415097,1.4267805
0.906,1.218811,3.231925,2.881498,0.1934321,1.4635208,1.4255984
0.908,0.7732874,3.469626,2.755687,0.24410856,1.5728863,1.4181715
0.91,0.33671057,3.6977775,2.625514,0.2891081,1.6671811,1.4040511
0.912,-0.08821428,3.915022,2.4938986,0.32803148,1.7438166,1.3826058
0.914,-0.4996593,4.120522,2.3638225,0.3605045,1.8002427,1.3530812
0.916,-0.89602065,4.3133864,2.2381275,0.38625008,1.834316,1.3147717
0.918,-1.2761915,4.493225,2.1200242,0.4051751,1.844722,1.2671822
0.92,-1.6404876,4.6602607,2.0123801,0.41743475,1.8313253,1.2101144
0.922,-1.9859139,4.812956,1.9173583,0.4235226,1.7954307,1.1438018
0.924,-2.31151,4.9508815,1.8370476,0.42430967,1.739746,1.0689614
0.926,-2.617204,5.073535,1.7738402,0.42099434,1.6682458,0.9867884
0.928,-2.9034932,5.18079,1.7290741,0.4150969,1.586024,0.898929
0.93,-3.1695752,5.2722044,1.7031064,0.40842164,1.4990478,0.8074095
0.932,-3.4146411,5.347618,1.6962367,0.40293887,1.4136972,0.7144977
0.934,-3.637734,5.406732,1.7085165,0.4005809,1.3361175,0.6224307
0.936,-3.8368115,5.4489756,1.7391247,0.4030753,1.2717023,0.5332236
0.938,-4.0110674,5.4742546,1.7865682,0.41178748,1.2247124,0.4485531
0.94,-4.158686,5.4824734,1.8489857,0.42762637,1.1980407,0.36967692
0.942,-4.2791777,5.4741745,1.9242743,0.4509939,1.1930516,0.2973826
0.944,-4.371958,5.450053,2.0102944,0.4818115,1.2096035,0.23200524
0.946,-4.4360933,5.4108715,2.1047044,0.51959634,1.2462089,0.1734789
0.948,-4.4705076,5.357352,2.2048197,0.56353575,1.3002226,0.12139541
0.95,-4.47463,5.2904983,2.3075,0.6125808,1.3681927,0.07508975
0.952,-4.447605,5.2113104,2.4099135,0.66556174,1.4462223,0.033733428
0.954,-4.389592,5.121499,2.5095706,0.72127557,1.5302109,-0.0036127567
0.956,-4.3011255,5.022835,2.604082,0.7784884,1.6160675,-0.03792274
0.958,-4.18242,4.9168687,2.6921103,0.8359958,1.6998748,-0.07015622
0.96,-4.033838,4.8051643,2.772429,0.8926062,1.7780226,-0.10121781
0.962,-3.8563657,4.6894073,2.8442864,0.9471879,1.8474028,-0.13187462
0.964,-3.6514027,4.571001,2.9073615,0.9987271,1.9055443,-0.16274172
0.966,-3.4206674,4.451476,2.9614453,1.0463483,1.9506781,-0.1942274
0.968,-3.166282,4.332329,3.006153,1.0893604,1.98168,-0.22650719
0.97,-2.8909216,4.2150073,3.041438,1.127295,1.9981291,-0.25950956
0.972,-2.5975003,4.100746,3.0675,1.1599245,2.0002003,-0.29294425
0.974,-2.2890825,3.9906406,3.084845,1.1872606,1.9885378,-0.3263589
0.976,-1.9690291,3.8857598,3.0941317,1.2095664,1.964167,-0.35920495
0.978,-1.6409819,3.7871606,3.0960839,1.2273006,1.9284081,-0.39090788
0.98,-1.3083432,3.6956222,3.091511,1.2410579,1.8826876,-0.42094332
0.982,-0.9742639,3.6120236,3.0811684,1.2514917,1.8283987,-0.4489348
0.984,-0.64234054,3.5370095,3.065851,1.2592934,1.7668943,-0.474683
0.986,-0.3156327,3.4710848,3.046156,1.2651789,1.6995475,-0.498115
0.988,0.0033791065,3.414263,3.0230708,1.269847,1.6276948,-0.5192385
0.99,0.3121302,3.3666286,2.9984405,1.2739223,1.5525463,-0.5381382
0.992,0.6075165,3.3286948,2.974855,1.2779455,1.4751203,-0.554955
0.994,0.88655627,3.3009896,2.954808,1.2823621,1.3963101,-0.5698667
0.996,1.1469164,3.2837076,2.9405644,1.2875407,1.3169017,-0.5830716
0.998,1.3868388,3.2763915,2.9338932,1.2937601,1.2376173,-0.59474885
1,1.6049958,3.2787771,2.9366372,1.3012483,1.1591322,-0.6050545
1.002,1.8001817,3.290414,2.9503388,1.3101965,1.0821348,-0.6141231
1.004,1.9712974,3.3108487,2.976665,1.3207783,1.0072955,-0.622037
1.006,2.1173608,3.339932,3.0171356,1.3331397,0.9352932,-0.62883687
1.008,2.2380195,3.3774972,3.0731049,1.3474114,0.8668596,-0.6345031
1.01,2.3324172,3.4234135,3.1458645,1.3637097,0.8027593,-0.63898253
1.012,2.4004393,3.476858,3.235986,1.3821095,0.7437959,-0.64217734
1.014,2.4422522,3.5370276,3.3436356,1.4026654,0.6908189,-0.64395475
1.016,2.458433,3.6028926,3.4683666,1.4254162,0.64468956,-0.644135
1.018,2.44934,3.6738043,3.6094582,1.4503394,0.6061981,-0.64251333
1.02,2.415436,3.749074,3.7659364,1.4773813,0.5759696,-0.6389439
1.022,2.3572176,3.8282673,3.9363704,1.5064608,0.55455625,-0.63333476
1.024,2.2755198,3.9107184,4.119163,1.5374831,0.54241246,-0.62565756
1.026,2.1714308,3.9957016,4.312147,1.5703855,0.539956,-0.6159417
1.028,2.0458963,4.082736,4.512729,1.6051373,0.5475566,-0.6042783
1.03,1.9003775,4.171224,4.717948,1.6417508,0.5655367,-0.590845
1.032,1.7362654,4.260711,4.92468,1.6802982,0.594244,-0.5758352
1.034,1.5551293,4.350785,5.129904,1.7209319,0.6341014,-0.55945003
1.036,1.3588676,4.440923,5.3304367,1.763821,0.6855575,-0.54190195
1.038,1.1494681,4.5306234,5.5232863,1.8091022,0.7489864,-0.5233677
1.04,0.9290638,4.619419,5.7053294,1.8568454,0.8246234,-0.5039968
1.042,0.70023835,4.706382,5.8740473,1.9070529,0.91251874,-0.4839028
1.044,0.4667735,4.7901163,6.027494,1.9596055,1.0123107,-0.4631865
1.046,0.23031712,4.8702254,6.1634917,2.0142028,1.1231072,-0.4419523
1.048,-0.0079,4.9472003,6.2768483,2.0703897,1.2433592,-0.4203441
1.05,-0.24336362,5.0194983,6.3647213,2.1275494,1.3708634,-0.3985899
1.052,-0.47212815,5.0858846,6.426937,2.184968,1.5027862,-0.37702036
1.054,-0.6917927,5.145794,6.4650745,2.2418492,1.6358212,-0.35607886
1.056,-0.9001293,5.198397,6.4810824,2.2973528,1.7662945,-0.33628547
1.058,-1.0940709,5.2427096,6.4757633,2.3506331,1.8903978,-0.31824863
1.06,-1.2700036,5.277902,6.449128,2.4008934,2.0044267,-0.3026023
1.062,-1.4250119,5.3034115,6.4011908,2.4474072,2.1050105,-0.28995943
1.064,-1.5564206,5.318429,6.33251,2.4895513,2.1893384,-0.28085256
1.066,-1.6619172,5.321867,6.245221,2.5268338,2.2552998,-0.27568066
1.068,-1.740118,5.312845,6.1424646,2.5588903,2.3015592,-0.2746768
1.07,-1.7902248,5.2905326,6.027764,2.58551,2.3275862,-0.2779163
1.072,-1.8115535,5.2544155,5.9044194,2.6066575,2.3336835,-0.28530598
1.074,-1.8036573,5.204311,5.7748404,2.6224318,2.3208637,-0.2965703
1.076,-1.7665732,5.1400394,5.641246,2.6330829,2.2907262,-0.31131005
1.078,-1.7007127,5.0617447,5.505312,2.6390824,2.2453847,-0.32913148
1.08,-1.6067686,4.9695196,5.368731,2.6408696,2.1869864,-0.34961522
1.082,-1.4859343,4.8639097,5.233054,2.6389027,2.1176383,-0.37233114
1.084,-1.3401848,4.7456594,5.100113,2.6337495,2.0395427,-0.39693618
1.086,-1.171847,4.615752,4.9714556,2.6259966,1.9548547,-0.42312324
1.088,-0.9837984,4.475382,4.848218,2.6160524,1.8654613,-0.45048237
1.09,-0.77923656,4.326206,4.731154,2.6042547,1.772856,-0.47855508
1.092,-0.5612986,4.169585,4.6205173,2.5909934,1.6782663,-0.50697064
1.094,-0.33293092,4.007167,4.5166407,2.5767412,1.5826398,-0.5354517
1.096,-0.09761751,3.8405771,4.420231,2.561968,1.4865866,-0.56373405
1.098,0.14069998,3.6721287,4.3313866,2.5471504,1.3905652,-0.5914623
1.1,0.3784021,3.503601,4.249561,2.5327573,1.2950008,-0.6181799
1.102,0.6127288,3.3364606,4.17405,2.5192,1.2003698,-0.64336544
1.104,0.8408503,3.1720629,4.104429,2.5068586,1.1072376,-0.66652024
1.106,1.0596607,3.012089,4.0405025,2.4960604,1.0162573,-0.6872372
1.108,1.2661781,2.8579068,3.9823272,2.4871542,0.92823666,-0.70524853
1.11,1.4578792,2.7106671,3.9295883,2.4805202,0.84415656,-0.720415
1.112,1.6322522,2.5714135,3.8817701,2.4765377,0.7651448,-0.7327171
1.114,1.7874458,2.4408464,3.838302,2.475588,0.69238186,-0.7422422
1.116,1.9219205,2.3194392,3.7983167,2.478002,0.62706053,-0.7492015
1.118,2.0344276,2.207572,3.7610235,2.4840398,0.5702976,-0.7538433
1.12,2.1243153,2.1053476,3.7256603,2.4938405,0.52305126,-0.7564405
1.122,2.1911108,2.0127566,3.6916676,2.507454,0.4860871,-0.75723934
1.124,2.2350154,1.929443,3.658265,2.5248084,0.45990816,-0.7564008
1.126,2.2564313,1.8550761,3.6245723,2.5457695,0.44474003,-0.75400436
1.128,2.256001,1.7890042,3.5896604,2.570152,0.44055104,-0.750072
1.13,2.2349882,1.7305361,3.5527284,2.5977201,0.44696128,-0.7445797
1.132,2.1946297,1.6788584,3.5132418,2.6281934,0.46327108,-0.7374406
1.134,2.136631,1.6331351,3.470567,2.661439,0.48873544,-0.72862774
1.136,2.0628438,1.592596,3.424352,2.6973445,0.5224203,-0.7181915
1.138,1.9754106,1.5559955,3.3743653,2.735693,0.5629955,-0.706185
1.14,1.876343,1.5224755,3.320605,2.7762325,0.6089022,-0.6928032
1.142,1.7679238,1.4911242,3.26307,2.8187306,0.6585706,-0.6784037
1.144,1.6525838,1.4609641,3.2017646,2.8628135,0.71045804,-0.66333544
1.146,1.5327046,1.4311142,3.1367283,2.90787,0.7629413,-0.6478706
1.148,1.4106264,1.4004852,3.0682142,2.9531498,0.81439155,-0.63224113
1.15,1.2887534,1.3683683,2.9965982,2.9979022,0.86324364,-0.6167586
1.152,1.1691818,1.3340399,2.9220338,3.0414288,0.90799725,-0.6017968
1.154,1.0529041,1.2972713,2.8445225,3.0831218,0.94719166,-0.58772224
1.156,0.943381,1.2566988,2.7649393,3.122466,0.97944367,-0.5748482
1.158,0.8435387,1.2107357,2.686966,3.1590173,1.0034659,-0.5633865
1.16,0.753034,1.1599164,2.6112561,3.1923966,1.0181451,-0.5534904
1.162,0.6724617,1.1041572,2.5366638,3.2222557,1.0225132,-0.5452884
1.164,0.6038936,1.0427231,2.4618866,3.2483077,1.0157801,-0.53894705
1.166,0.54869074,0.9752821,2.3868465,3.2703214,0.99727464,-0.5346652
1.168,0.5068033,0.90200144,2.3133547,3.2881129,0.9665012,-0.53264326
1.17,0.47797415,0.8227951,2.2440002,3.3015597,0.92316675,-0.53304076
1.172,0.46212232,0.73762614,2.1810558,3.3106267,0.86722606,-0.5359867
1.174,0.4591316,0.6468022,2.1258383,3.3153472,0.79892623,-0.5415508
1.176,0.46892977,0.5510821,2.0783358,3.3158317,0.71879876,-0.5497299
1.178,0.491678,0.45103103,2.037587,3.312317,0.62769985,-0.5604565
1.18,0.52712655,0.3471725,2.0031059,3.3051338,0.5267961,-0.5735878
1.182,0.5747658,0.23983145,1.9750266,3.294744,0.41747305,-0.5889281
1.184,0.6334174,0.12933284,1.9542469,3.2816775,0.30130905,-0.6062416
1.186,0.7020656,0.016052842,1.9414846,3.2665348,0.18005788,-0.62523806
1.188,0.779586,-0.09949654,1.9375293,3.2499392,0.055582732,-0.64560974
1.19,0.86477387,-0.21658939,1.9422189,3.2325165,-0.07024309,-0.66702926
1.192,0.9566184,-0.33474338,1.9552227,3.2148705,-0.19556843,-0.6891681
1.194,1.054209,-0.45343244,1.9757236,3.1975698,-0.31861117,-0.71169496
1.196,1.1567552,-0.5723025,2.0029705,3.1811538,-0.43770397,-0.73426926
1.198,1.2633826,-0.6909375,2.0359278,3.1661277,-0.55130327,-0.75656456
1.2,1.373002,-0.8090682,2.0737295,3.1529849,-0.65797985,-0.7782732
1.202,1.484563,-0.9263419,2.1156502,3.1422167,-0.7564479,-0.79911846
1.204,1.5969203,-1.0423992,2.1607332,3.1343126,-0.8455109,-0.8188462
1.206,1.7090981,-1.1569229,2.207786,3.1297584,-0.9240978,-0.8372759
1.208,1.8200461,-1.2696071,2.2556612,3.1290317,-0.99123114,-0.8542659
1.21,1.928953,-1.3802134,2.303435,3.1325908,-1.0460551,-0.86970437
1.212,2.034476,-1.4883063,2.3499615,3.1408389,-1.0878024,-0.8835034
1.214,2.1356406,-1.5934789,2.3941188,3.154093,-1.1158969,-0.8955661
1.216,2.2314305,-1.695613,2.4349382,3.1725824,-1.1299818,-0.9057882
1.218,2.320908,-1.7943285,2.47132,3.196401,-1.1299489,-0.9140386
1.22,2.4033742,-1.8893232,2.5022986,3.2255158,-1.11588,-0.9201498
1.222,2.478095,-1.9802988,2.5270255,3.259802,-1.088141,-0.923959
1.224,2.5442536,-2.0668864,2.5444093,3.2990062,-1.0474064,-0.9253104
1.226,2.6013882,-2.1489449,2.553493,3.3427486,-0.994653,-0.92405856
1.228,2.6488695,-2.2262604,2.553422,3.3905919,-0.93113434,-0.9201279
1.23,2.6864603,-2.2987354,2.5435073,3.4420311,-0.85832345,-0.9135201
1.232,2.7137768,-2.366046,2.5234866,3.4965124,-0.7779106,-0.90431786
1.234,2.730501,-2.4279795,2.4933019,3.553468,-0.69176906,-0.8927023
1.236,2.7364242,-2.484427,2.4531024,3.6123016,-0.601903,-0.8789338
1.238,2.7317631,-2.5352557,2.4032443,3.6724222,-0.5103979,-0.8633536
1.24,2.7165706,-2.5803766,2.3441086,3.7332265,-0.4193966,-0.8463904
1.242,2.691535,-2.6198478,2.276204,3.7941277,-0.33102316,-0.828507
1.244,2.6571681,-2.653613,2.2005177,3.8545346,-0.24732536,-0.8101951
1.246,2.6140344,-2.6817327,2.1180286,3.913896,-0.17025778,-0.79196
1.248,2.563112,-2.7043166,2.0300775,3.9716978,-0.10158765,-0.7742814
1.25,2.5054638,-2.7215679,1.937988,4.027493,-0.042869985,-0.75761384
1.252,2.4420385,-2.733766,1.8434354,4.0809007,0.004591286,-0.7423435
1.254,2.374076,-2.7412148,1.74818,4.1316276,0.039777577,-0.72880805
1.256,2.3029444,-2.744317,1.6541673,4.179459,0.06198919,-0.7172768
1.258,2.2300587,-2.743465,1.5632555,4.2242804,0.07085073,-0.7079418
1.26,2.1567378,-2.7394023,1.4773427,4.266057,0.066299975,-0.70094335
1.262,2.0846152,-2.732718,1.3981662,4.3048177,0.04858762,-0.6963959
1.264,2.0155013,-2.7242117,1.3273103,4.3406405,0.018230736,-0.69435877
1.266,1.9508462,-2.7145243,1.2661797,4.3736415,-0.02403742,-0.6948648
1.268,1.8923867,-2.7044604,1.2158493,4.403925,-0.077332556,-0.6979345
1.27,1.8416862,-2.69493,1.1773548,4.4315777,-0.14065343,-0.70354337
1.272,1.8005023,-2.6868644,1.1515962,4.4567103,-0.21296209,-0.71162266
1.274,1.7703676,-2.6810942,1.1390665,4.4794292,-0.29317492,-0.7220608
1.276,1.7529494,-2.6784782,1.1402396,4.499864,-0.38021177,-0.73469424
1.278,1.7494218,-2.6798742,1.155407,4.5181623,-0.47302312,-0.74932045
1.28,1.7610116,-2.6861236,1.1847484,4.5344787,-0.5706167,-0.7657102
1.282,1.7889881,-2.6980112,1.2280134,4.5490065,-0.6720584,-0.78357995
1.284,1.8344074,-2.716282,1.2850184,4.5619326,-0.77646315,-0.802635
1.286,1.8980032,-2.74154,1.3554134,4.5734644,-0.8829752,-0.8226009
1.288,1.9803011,-2.7743502,1.4385926,4.5838146,-0.99077857,-0.8431915
1.29,2.0820236,-2.8151867,1.533568,4.593179,-1.099051,-0.8641301
1.292,2.2034054,-2.86442,1.6392741,4.6017423,-1.2070209,-0.8851513
1.294,2.3446984,-2.9223294,1.754339,4.609683,-1.3139153,-0.90598536
1.296,2.5056708,-2.9888816,1.8774551,4.61717,-1.4190023,-0.92638505
1.298,2.6860175,-3.0641136,2.007271,4.6243696,-1.521548,-0.9461321
1.3,2.8852532,-3.1479754,2.1422331,4.631442,-1.6208208,-0.9650006
1.302,3.1026883,-3.2402523,2.280652,4.6385427,-1.7161307,-0.9827875
1.304,3.3375514,-3.3405974,2.4209244,4.6458135,-1.8068383,-0.9992723
1.306,3.588512,-3.4485621,2.561215,4.6533675,-1.8923669,-1.0142384
1.308,3.8544164,-3.5635312,2.7001405,4.6612945,-1.9722478,-1.0274101
1.31,4.133995,-3.6848948,2.835886,4.6696806,-2.0461426,-1.0385202
1.312,4.425583,-3.8117929,2.9667401,4.678575,-2.1138399,-1.0472867
1.314,4.727651,-3.943462,3.0909944,4.688007,-2.1752284,-1.0534743
1.316,5.0381513,-4.078786,3.2069514,4.69804,-2.2302625,-1.0568502
1.318,5.355283,-4.2168474,3.312997,4.7087655,-2.2789562,-1.057191
1.32,5.6769342,-4.35645,3.407474,4.720293,-2.3213873,-1.0543163
1.322,6.001254,-4.4964743,3.4888716,4.7327785,-2.3576188,-1.0480831
1.324,6.326116,-4.635713,3.555472,4.7463984,-2.3877008,-1.0383925
1.326,6.649828,-4.77302,3.605977,4.761313,-2.411683,-1.0252109
1.328,6.970264,-4.906999,3.6397905,4.7776637,-2.4296284,-1.0085573
1.33,7.2851033,-5.036433,3.656087,4.795526,-2.441592,-0.98849285
1.332,7.592418,-5.1601987,3.654236,4.814912,-2.447676,-0.96513104
1.334,7.890094,-5.277051,3.6351655,4.835746,-2.4481096,-0.93861
1.336,8.171601,-5.3838444,3.6003056,4.8578405,-2.4432788,-0.9091301
1.338,8.434707,-5.4801397,3.5499034,4.8809485,-2.4337742,-0.8769067
1.34,8.680515,-5.566484,3.481649,4.904745,-2.4204054,-0.84217566
1.342,8.910478,-5.6431437,3.3944054,4.928865,-2.404178,-0.80523515
1.344,9.122424,-5.709654,3.289085,4.952928,-2.3863099,-0.76639676
1.346,9.31417,-5.7657866,3.1685128,4.9765596,-2.3681564,-0.72599566
1.348,9.483804,-5.8111386,3.034956,4.9994,-2.3511915,-0.6843939
1.35,9.628399,-5.843695,2.8887382,5.02112,-2.3368945,-0.6419724
1.352,9.749176,-5.8633027,2.731779,5.041435,-2.3267217,-0.59912187
1.354,9.848446,-5.870454,2.5664172,5.060097,-2.3220625,-0.5562432
1.356,9.921938,-5.862686,2.3920088,5.0768523,-2.3242335,-0.51373434
1.358,9.967677,-5.839575,2.2107244,5.091449,-2.334453,-0.47202533
1.36,9.98933,-5.8038025,2.0276794,5.1036353,-2.353785,-0.43154424
1.362,9.988611,-5.7556095,1.8445725,5.113121,-2.3832026,-0.39273232
1.364,9.965847,-5.694851,1.6622635,5.119465,-2.423829,-0.3560843
1.366,9.920652,-5.6221905,1.4832345,5.1221356,-2.4769115,-0.3222425
1.368,9.858127,-5.540512,1.3110399,5.1208014,-2.5430832,-0.2916593
1.37,9.782126,-5.4515023,1.1483297,5.1153603,-2.6223967,-0.26459903
1.372,9.694744,-5.3559504,0.9959235,5.1057615,-2.715009,-0.24155653
1.374,9.600107,-5.2551928,0.8538481,5.0920544,-2.8210425,-0.22321516
1.376,9.502617,-5.1505632,0.72315025,5.0744643,-2.9401152,-0.21011764
1.378,9.40598,-5.0427165,0.60557336,5.0535665,-3.0709898,-0.20243335
1.38,9.314473,-4.932452,0.5028372,5.030306,-3.2116709,-0.19998252
1.382,9.233067,-4.821001,0.41580212,5.0061293,-3.3591723,-0.20227194
1.384,9.166641,-4.709445,0.34484208,4.983172,-3.5091467,-0.20845294
1.386,9.120038,-4.598922,0.2900337,4.963897,-3.6567564,-0.21755028
1.388,9.097797,-4.490774,0.251621,4.9508815,-3.7969646,-0.22824109
1.39,9.103797,-4.3862476,0.22955811,4.947043,-3.923865,-0.23843968
1.392,9.141096,-4.286531,0.22360241,4.9552217,-4.031389,-0.24579608
1.394,9.212167,-4.192507,0.23329687,4.977629,-4.1144547,-0.24818647
1.396,9.318258,-4.105173,0.25838768,5.0156727,-4.1691847,-0.2436794
1.398,9.459491,-4.0250154,0.2987424,5.069935,-4.1927466,-0.23045492
1.4,9.634699,-3.952518,0.35372353,5.139989,-4.183749,-0.20704722
1.402,9.842098,-3.8876448,0.42242348,5.2244043,-4.1423435,-0.17260706
1.404,10.078798,-3.830333,0.50396943,5.32087,-4.070102,-0.12683296
1.406,10.341084,-3.7801323,0.59696233,5.4264474,-3.96983,-0.06993842
1.408,10.62435,-3.7362962,0.69997287,5.5378714,-3.8452005,-0.0025652647
1.41,10.92321,-3.6977825,0.8115345,5.651802,-3.7003536,0.07443833
1.412,11.231758,-3.6632361,0.9302391,5.7650228,-3.539695,0.16020834
1.414,11.5436735,-3.6311686,1.054551,5.874595,-3.3677473,0.25395334
1.416,11.8522415,-3.5997355,1.1833775,5.9779906,-3.1889863,0.3550104
1.418,12.150665,-3.5670004,1.3152363,6.0732126,-3.007678,0.4629283
1.42,12.431862,-3.5307431,1.4491987,6.1587367,-2.8279262,0.57739604
1.422,12.68941,-3.488897,1.5841873,6.233316,-2.6541853,0.6978421
1.424,12.916796,-3.4391122,1.7193863,6.2960954,-2.4907465,0.8233988
1.426,13.108441,-3.3791692,1.8541477,6.346814,-2.340963,0.95320094
1.428,13.258995,-3.307129,1.9878409,6.385676,-2.207558,1.0861367
1.43,13.363992,-3.2212522,2.1199696,6.413174,-2.0929513,1.2205564
1.432,13.419835,-3.120127,2.2502928,6.4299483,-1.9991565,1.3544228
1.434,13.423878,-3.0028718,2.3785293,6.43679,-1.9273207,1.4856889
1.436,13.374332,-2.86886,2.5039053,6.4345098,-1.8778718,1.6125311
1.438,13.27078,-2.7182393,2.6252992,6.4237933,-1.8506885,1.7334815
1.44,13.113199,-2.5514,2.7422533,6.405475,-1.8444369,1.8476237
1.442,12.902008,-2.368812,2.8542483,6.380437,-1.8570871,1.9543471
1.444,12.638977,-2.1717834,2.9599116,6.349234,-1.8869308,2.0531058
1.446,12.329932,-1.9633431,3.058252,6.312374,-1.9320575,2.1438835
1.448,11.976583,-1.7440543,3.1500645,6.2705646,-1.9899755,2.2272582
1.45,11.579144,-1.5145648,3.2380857,6.224481,-2.0583186,2.303873
1.452,11.140201,-1.2769282,3.3230896,6.174692,-2.135236,2.374206
1.454,10.667093,-1.0343232,3.4032645,6.1218076,-2.219102,2.438679
1.456,10.167387,-0.7898252,3.4757328,6.0665226,-2.3084702,2.4977593
1.458,9.648618,-0.5468943,3.538672,6.0095935,-2.4021096,2.5517883
1.46,9.119247,-0.30967283,3.5923688,5.9517803,-2.4990063,2.6009989
1.462,8.584142,-0.07996714,3.6353087,5.8937774,-2.5984297,2.6455417
1.464,8.048686,0.14080131,3.6661,5.8362336,-2.6999493,2.685495
1.466,7.5245867,0.34914005,3.6862721,5.7797093,-2.803332,2.7209005
1.468,7.019329,0.5444796,3.694292,5.7246475,-2.908441,2.751838
1.47,6.5358067,0.7288301,3.6874318,5.6713605,-3.0151825,2.778448
1.472,6.0798144,0.9014518,3.6672611,5.6200066,-3.1235523,2.800922
1.474,5.658075,1.061859,3.6360693,5.5705886,-3.2337286,2.8194973
1.476,5.277281,1.2106739,3.5945718,5.5230036,-3.3460426,2.834505
1.478,4.938574,1.3504684,3.5431163,5.4770737,-3.4609218,2.8463278
1.48,4.644771,1.4821379,3.4839816,5.4326253,-3.578865,2.8553152
1.482,4.399727,1.6060565,3.4211955,5.389498,-3.7003913,2.861748
1.484,4.2039475,1.7236052,3.3591762,5.347638,-3.8258228,2.8658538
1.486,4.0569158,1.8363179,3.300773,5.307102,-3.9552193,2.8678317
1.488,3.9577572,1.9456121,3.2484326,5.268088,-4.08825,2.867873
1.49,3.904024,2.0532742,3.2048397,5.230943,-4.22405,2.8661847
1.492,3.8914597,2.1616523,3.1733642,5.1961484,-4.3611717,2.8630176
1.494,3.9148939,2.2728908,3.1575956,5.1642346,-4.4976034,2.8587089
1.496,3.9684577,2.3889256,3.1604755,5.135703,-4.630855,2.8537455
1.498,4.04602,2.5114725,3.183968,5.1109424,-4.7581077,2.8488045
1.5,4.1411314,2.6419063,3.2292244,5.090181,-4.8763924,2.8447745
1.502,4.2468734,2.7812448,3.2972946,5.0734406,-4.9828224,2.842675
1.504,4.3560605,2.930049,3.3881316,5.060526,-5.074792,2.843606
1.506,4.4615965,3.0888798,3.5009608,5.0510216,-5.1501846,2.8486085
1.508,4.556387,3.2575717,3.6345553,5.044359,-5.207533,2.8585546
1.51,4.633477,3.4358487,3.7876925,5.039868,-5.246071,2.8740149
1.512,4.6865892,3.6227381,3.9583683,5.0368547,-5.265791,2.8951738
1.514,4.709928,3.8170037,4.1439714,5.03467,-5.267354,2.9217508
1.516,4.699039,4.017079,4.3416142,5.032793,-5.2519574,2.9530725
1.518,4.650307,4.2212653,4.5474787,5.0308504,-5.221241,2.9881225
1.52,4.5615354,4.4276786,4.7577934,5.0285964,-5.1771955,3.02566
1.522,4.4313216,4.634564,4.968295,5.0258946,-5.1220207,3.0643964
1.524,4.259136,4.840251,5.1750026,5.0227,-5.0580044,3.103085
1.526,4.045882,5.043107,5.373763,5.018997,-4.987384,3.140668
1.528,3.7930036,5.2417474,5.5610485,5.014797,-4.912301,3.17636
1.53,3.503349,5.4349113,5.7335157,5.010091,-4.834697,3.2096844
1.532,3.1803818,5.6217313,5.888653,5.00488,-4.7563295,3.2404213
1.534,2.828358,5.801281,6.0243917,4.9991326,-4.6787496,3.2685633
1.536,2.4522057,5.9727798,6.1393013,4.9927874,-4.6033473,3.2942245
1.538,2.0574129,6.1359205,6.2324266,4.9857464,-4.5313473,3.3175507
1.54,1.6495296,6.2905874,6.303397,4.9779034,-4.4637933,3.338636
1.542,1.2343433,6.436899,6.3521385,4.9691434,-4.4015718,3.3575592
1.544,0.8174793,6.5754123,6.378962,4.959379,-4.3453965,3.3743486
1.546,0.40444887,6.706706,6.3844805,4.948548,-4.2958245,3.389
1.548,0.00074744225,6.831547,6.369356,4.9366713,-4.253194,3.4014816
1.55,-0.3882814,6.9507403,6.334218,4.923893,-4.217514,3.4117327
1.552,-0.75781965,7.0650964,6.27979,4.910496,-4.188424,3.4196997
1.554,-1.1041373,7.1757894,6.2069693,4.8969173,-4.1651626,3.4253778
1.556,-1.424199,7.283933,6.1166425,4.883693,-4.14656,3.4288301
1.558,-1.7157047,7.3908353,6.0098753,4.871448,-4.1310997,3.4302206
1.56,-1.9768327,7.497603,5.887739,4.8608313,-4.1169853,3.4298453
1.562,-2.206767,7.6056056,5.751522,4.852456,-4.1022882,3.4281182
1.564,-2.4052525,7.7160764,5.6030064,4.846844,-4.0850973,3.4255311
1.566,-2.5726645,7.830101,5.44423,4.8443375,-4.0637054,3.4226463
1.568,-2.7099338,7.948682,5.277267,4.8450747,-4.036786,3.420061
1.57,-2.818613,8.072579,5.104081,4.8489676,-4.003499,3.4182992
1.572,-2.900552,8.202335,4.926299,4.8557425,-3.9634552,3.4177802
1.574,-2.95781,8.33852,4.7452207,4.865005,-3.9167268,3.418757
1.576,-2.992831,8.481562,4.561819,4.8763003,-3.8637686,3.4212835
1.578,-3.0080462,8.631853,4.3769546,4.8891597,-3.805313,3.42524
1.58,-3.0066285,8.78967,4.191414,4.9031787,-3.7422354,3.4303107
1.582,-2.991763,8.955469,4.006055,4.918041,-3.6754446,3.436078
1.584,-2.9669504,9.129393,3.822097,4.9334946,-3.6058314,3.4420903
1.586,-2.935833,9.311759,3.6409953,4.9493227,-3.5342577,3.4479628
1.588,-2.9018817,9.502771,3.4639962,4.9653397,-3.461576,3.4533772
1.59,-2.8683288,9.7024975,3.2921727,4.9813256,-3.3886063,3.4581335
1.592,-2.8385406,9.911058,3.1264777,4.997007,-3.3162155,3.4620883
1.594,-2.8151515,10.128341,2.9676204,5.012041,-3.2452974,3.4651506
1.596,-2.8006845,10.354187,2.816555,5.026044,-3.1767793,3.4672112
1.598,-2.797844,10.588456,2.674417,5.038582,-3.1116576,3.4680874
1.6,-2.8091652,10.830962,2.5422504,5.049262,-3.0509048,3.4675195
1.602,-2.8367636,11.081635,2.4209394,5.0577164,-2.9954267,3.4651546
1.604,-2.8826602,11.340145,2.3114293,5.0636806,-2.9459918,3.4605842
1.606,-2.948869,11.606432,2.2146466,5.0669975,-2.9031432,3.4533818
1.608,-3.037046,11.880254,2.1314569,5.0676303,-2.8671632,3.4431427
1.61,-3.148778,12.161292,2.0629377,5.065675,-2.8380246,3.4295497
1.612,-3.2847373,12.448981,2.009337,5.0612984,-2.8154163,3.412373
1.614,-3.4451728,12.742637,1.9708436,5.054715,-2.7987983,3.391485
1.616,-3.6299245,13.04134,1.9470228,5.0461392,-2.787466,3.3668292
1.618,-3.838352,13.3441725,1.9373784,5.0357485,-2.7806406,3.3384352
1.62,-4.0694885,13.650202,1.9406481,5.0236692,-2.7775455,3.3063273
1.622,-4.3224607,13.958708,1.9558576,5.0099983,-2.777472,3.2705252
1.624,-4.5956845,14.268831,1.9819936,4.994772,-2.779882,3.2309995
1.626,-4.8877635,14.579789,2.0178368,4.9779997,-2.784465,3.1876793
1.628,-5.196809,14.890444,2.062669,4.9596863,-2.7911131,3.140464
1.63,-5.5208063,15.199909,2.115509,4.9398537,-2.7999294,3.08921
1.632,-5.8570905,15.5069475,2.175642,4.9185658,-2.8111765,3.0337777
1.634,-6.2010427,15.809569,2.2419505,4.8959293,-2.8252225,2.9740744
1.636,-6.5507417,16.107616,2.3114424,4.872114,-2.8424792,2.9100208
1.638,-6.9036326,16.400293,2.384684,4.847336,-2.863355,2.8415942
1.64,-7.255044,16.68547,2.4633584,4.8218336,-2.8881905,2.7688174
1.642,-7.6013994,16.961458,2.5479202,4.7958603,-2.9171748,2.69175
1.644,-7.939859,17.227446,2.6369085,4.7696986,-2.9503274,2.6104677
1.646,-8.268382,17.482777,2.7293427,4.743618,-2.9874687,2.5250468
1.648,-8.582863,17.727032,2.8225813,4.7178555,-3.0282638,2.4355683
1.65,-8.87949,17.959627,2.9167442,4.6926007,-3.0721872,2.3421006
1.652,-9.15598,18.180075,3.0129902,4.6680026,-3.1185417,2.24475
1.654,-9.411294,18.387827,3.1140947,4.6441708,-3.166508,2.1436172
1.656,-9.644241,18.581802,3.2235522,4.6211705,-3.2151601,2.0388598
1.658,-9.8544655,18.761795,3.3430762,4.598993,-3.2635665,1.9306996
1.66,-10.041517,18.927864,3.4736464,4.5775647,-3.3107955,1.8194146
1.662,-10.205568,19.080221,3.6167834,4.556759,-3.355939,1.705363
1.664,-10.347164,19.219011,3.774042,4.5364256,-3.3980937,1.5889765
1.666,-10.467632,19.344843,3.9463623,4.5164137,-3.4364624,1.4707153
1.668,-10.568877,19.45836,4.134746,4.4964457,-3.470471,1.3509302
1.67,-10.652435,19.560114,4.3417573,4.4763427,-3.4992974,1.230064
1.672,-10.721014,19.650953,4.5692005,4.4559283,-3.5221431,1.1084547
1.674,-10.778295,19.73239,4.8184075,4.434863,-3.538747,0.9862808
1.676,-10.826989,19.805443,5.0895977,4.412859,-3.5487103,0.863775
1.678,-10.869806,19.871315,5.3823996,4.389698,-3.5517278,0.74130607
1.68,-10.909235,19.931229,5.6967278,4.36512,-3.5477066,0.6190965
1.682,-10.948634,19.986475,6.0334444,4.3389053,-3.5366826,0.49714005
1.684,-10.991216,20.038212,6.393449,4.310729,-3.519008,0.3752843
1.686,-11.039675,20.087143,6.777387,4.2802095,-3.495231,0.25345457
1.688,-11.096498,20.134212,7.184851,4.24698,-3.466037,0.13169348
1.69,-11.163783,20.180384,7.614757,4.2106876,-3.432435,0.009986401
1.692,-11.243391,20.226368,8.06543,4.17103,-3.3957129,-0.11178601
1.694,-11.336571,20.272863,8.536028,4.127787,-3.3573124,-0.23386014
1.696,-11.444107,20.32015,9.025063,4.0808163,-3.3187766,-0.35658646
1.698,-11.566832,20.368555,9.530752,4.0299726,-3.281585,-0.48048365
1.7,-11.704802,20.41809,10.051123,3.9751298,-3.2469676,-0.60618496
1.702,-11.856681,20.468206,10.584052,3.916212,-3.215744,-0.7344185
1.704,-12.022259,20.519062,11.126141,3.8531337,-3.1883261,-0.86594677
1.706,-12.200045,20.570143,11.675128,3.785902,-3.1644804,-1.001395
1.708,-12.388065,20.62049,12.228979,3.7145824,-3.1434655,-1.1411393
1.71,-12.58391,20.669071,12.784578,3.6393547,-3.12418,-1.2853556
1.712,-12.784798,20.714489,13.338043,3.5605023,-3.1052291,-1.4339905
1.714,-12.987604,20.755493,13.88546,3.4783998,-3.085107,-1.5867368
1.716,-13.188595,20.790453,14.4233,3.3935,-3.0623407,-1.7430388
1.718,-13.384206,20.818056,14.947645,3.3063483,-3.0356739,-1.9021845
1.72,-13.5708,20.836761,15.454405,3.2175615,-3.0040948,-2.0633802
1.722,-13.744605,20.84481,15.939808,3.1279292,-2.9668686,-2.22584
1.724,-13.902165,20.840485,16.400578,3.0381436,-2.9238472,-2.3890567
1.726,-14.040244,20.822054,16.833864,2.9489217,-2.8749795,-2.5526583
1.728,-14.155901,20.788162,17.236824,2.8610187,-2.8200915,-2.7164116
1.73,-14.24646,20.737234,17.607082,2.7749498,-2.7595146,-2.8803725
1.732,-14.309624,20.66792,17.942402,2.691107,-2.693517,-3.04467
1.734,-14.343777,20.57919,18.241074,2.6098132,-2.6224146,-3.2092817
1.736,-14.347647,20.470224,18.502216,2.531169,-2.5467114,-3.3740625
1.738,-14.3203125,20.34057,18.725431,2.455252,-2.466763,-3.538797
1.74,-14.261492,20.18984,18.911028,2.3820066,-2.3830328,-3.703362
1.742,-14.1716795,20.018093,19.059826,2.3111646,-2.2961838,-3.86759
1.744,-14.052909,19.825975,19.173342,2.2423368,-2.206934,-4.0310335
1.746,-13.9051285,19.613062,19.254951,2.1750588,-2.1160734,-4.1930637
1.748,-13.72962,19.380085,19.304914,2.1088276,-2.024527,-4.353032
1.75,-13.53018,19.129143,19.324074,2.043109,-1.933328,-4.510325
1.752,-13.309374,18.861858,19.315487,1.977384,-1.843579,-4.6644177
1.754,-13.06942,18.579096,19.284187,1.9111534,-1.7564209,-4.814888
1.756,-12.812725,18.282114,19.234287,1.8438929,-1.6729217,-4.961447
1.758,-12.543942,17.972189,19.170826,1.7751576,-1.5939592,-5.103932
1.76,-12.266843,17.651031,19.09528,1.7045155,-1.5202694,-5.242393
1.762,-11.983734,17.320246,19.008533,1.6316718,-1.4523027,-5.377036
1.764,-11.696167,16.981596,18.910643,1.5565026,-1.3901821,-5.5081286
1.766,-11.406658,16.637169,18.80162,1.4791131,-1.3337828,-5.6360106
1.768,-11.117037,16.288105,18.683447,1.3998363,-1.2827462,-5.7611604
1.77,-10.829344,15.935172,18.557968,1.319185,-1.2365257,-5.8841996
1.772,-10.545325,15.579248,18.425789,1.2378056,-1.1943886,-6.005809
1.774,-10.266444,15.221205,18.286823,1.1564233,-1.1554867,-6.1266203
1.776,-9.993655,14.861653,18.140959,1.0758078,-1.1189544,-6.247161
1.778,-9.727758,14.50106,17.987312,0.99675035,-1.0839896,-6.3678484
1.78,-9.469696,14.140198,17.823606,0.92000747,-1.04992,-6.488976
1.782,-9.218925,13.779101,17.648472,0.84630036,-1.0161347,-6.610709
1.784,-8.974287,13.417662,17.461012,0.7762258,-0.9822264,-6.7331085
1.786,-8.735784,13.056167,17.26063,0.7102134,-0.9480134,-6.856189
1.788,-8.502952,12.694868,17.046835,0.64856243,-0.91334987,-6.979827
1.79,-8.274752,12.333632,16.818466,0.5914962,-0.87819266,-7.103802
1.792,-8.049267,11.972704,16.573622,0.5391016,-0.84272885,-7.227911
1.794,-7.824452,11.612144,16.310581,0.49135184,-0.8072449,-7.351966
1.796,-7.5984807,11.25234,16.0285,0.44820094,-0.7720133,-7.4758043
1.798,-7.3697224,10.893442,15.727575,0.40954065,-0.73730123,-7.5993223
1.8,-7.136134,10.535355,15.408455,0.37523007,-0.7034211,-7.722415
1.802,-6.8959756,10.178497,15.071833,0.34508538,-0.67073417,-7.8449306
1.804,-6.6475286,9.8232155,14.717388,0.3189175,-0.6395879,-7.966719
1.806,-6.38957,9.470238,14.345625,0.29654336,-0.6102693,-8.087656
1.808,-6.120329,9.120203,13.957468,0.27776527,-0.5830276,-8.2076235
1.81,-5.8388305,8.774075,13.553827,0.26237822,-0.5580816,-8.326506
1.812,-5.5447545,8.432936,13.135827,0.2501521,-0.53561234,-8.44417
1.814,-5.236844,8.097359,12.705689,0.24085093,-0.5157447,-8.560478
1.816,-4.9148526,7.768419,12.264079,0.23423553,-0.49855876,-8.675302
1.818,-4.5788856,7.447525,11.811525,0.23005986,-0.48413157,-8.788477
1.82,-4.229114,7.1359906,11.34988,0.22806048,-0.47254348,-8.899839
1.822,-3.8661604,6.8351007,10.881399,0.22798395,-0.4639237,-9.009195
1.824,-3.490603,6.5461226,10.407843,0.22958946,-0.45843172,-9.116326
1.826,-3.1038067,6.270251,9.930893,0.23263097,-0.45632935,-9.221021
1.828,-2.707052,6.008457,9.452555,0.23682141,-0.45796275,-9.3230915
1.83,-2.301534,5.7617006,8.974928,0.24185157,-0.4637301,-9.422381
1.832,-1.8889918,5.53091,8.500097,0.24739718,-0.4740758,-9.518734
1.834,-1.4711008,5.316723,8.030077,0.2531271,-0.48946714,-9.612089
1.836,-1.0493908,5.11972,7.5669136,0.25871432,-0.510376,-9.702452
1.838,-0.6256883,4.9400187,7.1126976,0.26390064,-0.5371847,-9.789903
1.84,-0.20169806,4.7775984,6.6699343,0.26846063,-0.57021093,-9.874592
1.842,0.2208066,4.632276,6.2412624,0.27222168,-0.6096487,-9.95675
1.844,0.6402997,4.503454,5.829283,0.27507603,-0.65555096,-10.0366745
1.846,1.0551476,4.3903694,5.4362593,0.27691412,-0.7078376,-10.114668
1.848,1.4638689,4.292023,5.0644083,0.27769387,-0.7663212,-10.1909895
1.85,1.8652062,4.2072196,4.715749,0.27736998,-0.8307638,-10.265826
1.852,2.2582386,4.1346226,4.392328,0.27590835,-0.90093946,-10.339329
1.854,2.64203,4.0728655,4.096403,0.273234,-0.9767189,-10.411585
1.856,3.015789,4.0204244,3.830239,0.2692535,-1.058063,-10.482653
1.858,3.3788242,3.9758377,3.5958543,0.26382804,-1.1450825,-10.552533
1.86,3.7306862,3.9377618,3.394814,0.25673628,-1.2380762,-10.621208
1.862,4.071147,3.904976,3.2284536,0.24768078,-1.3374791,-10.688646
1.864,4.4004073,3.8764482,3.0980144,0.23628688,-1.4438305,-10.754801
1.866,4.718836,3.8513284,3.0046859,0.22212839,-1.5577459,-10.819613
1.868,5.0271215,3.8287008,2.9496171,0.20475167,-1.6798415,-10.883027
1.87,5.3257194,3.8081155,2.9339163,0.18368071,-1.8107114,-10.945022
1.872,5.615466,3.78924,2.958429,0.15847129,-1.9508901,-11.005601
1.874,5.897127,3.7719831,3.023902,0.12874055,-2.1007857,-11.064809
1.876,6.1721272,3.7565908,3.1307802,0.09417859,-2.2606692,-11.122736
1.878,6.4417253,3.7436004,3.2793584,0.05455503,-2.4306808,-11.17952
1.88,6.707475,3.7338352,3.4696984,0.009769589,-2.6107507,-11.235322
1.882,6.9709454,3.7282894,3.7016068,-0.040168583,-2.800675,-11.290355
1.884,7.233952,3.7282217,3.975021,-0.09516779,-3.000153,-11.344847
1.886,7.498081,3.7348375,4.2896004,-0.15507004,-3.2088194,-11.399059
1.888,7.765186,3.7498913,4.644746,-0.21968463,-3.4262595,-11.453198
1.89,8.037366,3.7750196,5.0395374,-0.28882623,-3.652073,-11.507441
1.892,8.316392,3.812221,5.4729404,-0.3623364,-3.8859644,-11.561949
1.894,8.604501,3.8632185,5.9437795,-0.440125,-4.1277733,-11.61686
1.896,8.904074,3.9297693,6.4513035,-0.52213025,-4.3774986,-11.672291
1.898,9.217293,4.013324,6.994669,-0.608369,-4.63533,-11.728342
1.9,9.5463,4.115106,7.572834,-0.69890535,-4.901639,-11.785147
1.902,9.893062,4.236063,8.184584,-0.79392123,-5.1770225,-11.842856
1.904,10.259557,4.376909,8.8284445,-0.893685,-5.462235,-11.901636
1.906,10.647518,4.538232,9.502583,-0.9985093,-5.758113,-11.96163
1.908,11.05879,4.720349,10.205186,-1.1087296,-6.065487,-12.022966
1.91,11.4946165,4.9233985,10.934435,-1.2247281,-6.3851433,-12.085763
1.912,11.956265,5.1468678,11.688807,-1.3468988,-6.717784,-12.150118
1.914,12.444599,5.3899155,12.466602,-1.4756682,-7.0639305,-12.216103
1.916,12.960154,5.6515656,13.265895,-1.6114562,-7.4237933,-12.283726
1.918,13.50312,5.9305654,14.084509,-1.7546809,-7.7972093,-12.352934
1.92,14.073729,6.2249084,14.919858,-1.9057479,-8.1836,-12.423565
1.922,14.67214,6.5326424,15.769079,-2.0650156,-8.581911,-12.495331
1.924,15.298382,6.8512764,16.628979,-2.2327452,-8.990565,-12.567772
1.926,15.951635,7.17863,17.496628,-2.409114,-9.407506,-12.640291
1.928,16.631346,7.512056,18.36885,-2.5941582,-9.830307,-12.71215
1.93,17.336662,7.849207,19.242147,-2.7877486,-10.256182,-12.782463
1.932,18.066818,8.187624,20.112747,-2.9895291,-10.682077,-12.850234
1.934,18.82093,8.524797,20.97704,-3.1989322,-11.1047535,-12.914389
1.936,19.598494,8.85827,21.831173,-3.4151187,-11.520901,-12.973819
1.938,20.399029,9.185514,22.67154,-3.636981,-11.927227,-13.027478
1.94,21.222044,9.50414,23.494656,-3.8631458,-12.32057,-13.074353
1.942,22.067566,9.811952,24.297237,-4.0920815,-12.697968,-13.113532
1.944,22.93573,10.106698,25.076378,-4.3220825,-13.05669,-13.144158
1.946,23.826527,10.385911,25.829868,-4.5513988,-13.394305,-13.165428
1.948,24.740164,10.647301,26.556087,-4.7782817,-13.708639,-13.176571
1.95,25.67684,10.888716,27.253304,-5.0010433,-13.997896,-13.176903
1.952,26.636768,11.108162,27.9199,-5.2181387,-14.260575,-13.165766
1.954,27.620272,11.303724,28.554743,-5.428132,-14.495551,-13.142578
1.956,28.627714,11.473569,29.157207,-5.629731,-14.70198,-13.10687
1.958,29.659489,11.615918,29.727217,-5.821752,-14.879225,-13.058283
1.96,30.715801,11.729016,30.265345,-6.003129,-15.026863,-12.996621
1.962,31.79638,11.811223,30.772572,-6.1728783,-15.144683,-12.921795
1.964,32.901093,11.861,31.249962,-6.330112,-15.23262,-12.833785
1.966,34.029366,11.876619,31.69895,-6.47393,-15.2907295,-12.732569
1.968,35.180737,11.8565035,32.121387,-6.6035194,-15.319172,-12.618081
1.97,36.35396,11.799093,32.5195,-6.71811,-15.318268,-12.490152
1.972,37.547234,11.703103,32.895615,-6.8170323,-15.288502,-12.348507
1.974,38.758007,11.567528,33.25204,-6.8996587,-15.230599,-12.192785
1.976,39.98377,11.391563,33.59077,-6.9655113,-15.14553,-12.022646
1.978,41.221745,11.1746855,33.91354,-7.014184,-15.034569,-11.837827
1.98,42.469025,10.916521,34.222446,-7.04531,-14.8993225,-11.638263
1.982,43.722286,10.61696,34.51971,-7.058612,-14.741695,-11.424138
1.984,44.978313,10.276089,34.807365,-7.053815,-14.563969,-11.1959715
1.986,46.23357,9.8941,35.08774,-7.03067,-14.368723,-10.954632
1.988,47.485085,9.4711685,35.3629,-6.9889264,-14.158791,-10.701221
1.99,48.72952,9.007989,35.634464,-6.928387,-13.937139,-10.436999
1.992,49.963852,8.505541,35.90343,-6.8488855,-13.706707,-10.163226
1.994,51.185093,7.965527,36.170013,-6.7503166,-13.470427,-9.881033
1.996,52.391327,7.389755,36.43397,-6.6326556,-13.231153,-9.5913105
1.998,53.581158,6.779799,36.6949,-6.4959564,-12.991711,-9.29464
2,54.75363,6.1375656,36.95218,-6.340431,-12.754886,-8.991263
2.002,55.90813,5.4655666,37.204983,-6.1664357,-12.523446,-8.681084
2.004,57.04419,4.7671137,37.45238,-5.9744916,-12.300163,-8.363739
2.006,58.162285,4.046118,37.693535,-5.765284,-12.087829,-8.038753
2.008,59.263752,3.3072596,37.927666,-5.539671,-11.8892355,-7.705571
2.01,60.350574,2.5562525,38.15391,-5.29867,-11.707142,-7.3636637
2.012,61.425423,1.799221,38.371902,-5.04342,-11.5442295,-7.0126095
2.014,62.491257,1.0433197,38.5822,-4.775131,-11.402928,-6.6521196
2.016,63.551914,0.29656124,38.78563,-4.495041,-11.285254,-6.2821064
2.018,64.61078,-0.4310608,38.98303,-4.204358,-11.192684,-5.9026504
2.02,65.67284,-1.1294737,39.175488,-3.90418,-11.126117,-5.5140157
2.022,66.744156,-1.7897263,39.364037,-3.5954123,-11.085849,-5.1166387
2.024,67.83147,-2.402132,39.550644,-3.2787683,-11.071746,-4.7111535
2.026,68.94124,-2.9555483,39.737953,-2.9547315,-11.083242,-4.2983932
2.028,70.08115,-3.4379044,39.93026,-2.6234434,-11.119283,-3.8792152
2.03,71.25664,-3.83395,40.132023,-2.2847152,-11.178449,-3.4544544
2.032,72.474335,-4.1287766,40.348953,-1.9381076,-11.259148,-3.0248845
2.034,73.73563,-4.300308,40.58598,-1.5830414,-11.359797,-2.5911303
2.036,75.04785,-4.3331213,40.849007,-1.2188634,-11.478913,-2.1535635
2.038,76.4227,-4.2199993,41.1488,-0.8449377,-11.615099,-1.7122846
2.04,77.86276,-3.9332304,41.499325,-0.46065116,-11.767034,-1.2670612
2.042,79.37094,-3.4447002,41.90901,-0.06546295,-11.933611,-0.81739426
2.044,80.95502,-2.7292328,42.385338,0.34108484,-12.113824,-0.3625114
2.046,82.621735,-1.7641792,42.933224,0.75934696,-12.306709,0.09857178
2.048,84.37262,-0.51920605,43.553967,1.1896759,-12.511076,0.56684166
2.05,86.207306,1.0438166,44.25467,1.6324453,-12.725295,1.0431498
2.052,88.12363,2.9617996,45.047318,2.0879426,-12.947335,1.5283568
2.054,90.11041,5.2427235,45.92472,2.556261,-13.174841,2.0234022
2.056,92.158745,7.9036827,46.894592,3.037218,-13.405188,2.5291328
2.058,94.25673,10.965174,47.967594,3.5303693,-13.635358,3.04627
2.06,96.3956,14.440819,49.159973,4.035006,-13.862067,3.5752535
2.062,98.53203,18.37807,50.4446,4.5502586,-14.081604,4.116487
2.064,100.66345,22.794264,51.817436,5.075254,-14.289983,4.670407
2.066,102.71789,27.716528,53.28506,5.609063,-14.483055,5.2380533
2.068,104.646194,33.11237,54.931973,6.150165,-14.6569805,5.822857
2.07,106.31554,38.954872,56.865417,6.6974854,-14.806961,6.4306154
2.072,107.83756,45.257458,58.999245,7.2510095,-14.926883,7.0690746
2.074,109.43204,51.956657,61.309875,7.810725,-15.010665,7.7489166
2.076,111.11459,59.01736,63.8153,8.376464,-15.051125,8.484351
2.078,112.7271,66.44609,66.53806,8.948521,-15.038632,9.291624
2.08,114.20921,74.195175,69.49785,9.5272255,-14.961505,10.187437
2.082,115.55563,82.21601,72.67228,10.111689,-14.805368,11.187836
2.084,116.76893,90.45856,76.065765,10.699577,-14.552744,12.308483
2.086,117.85959,98.86801,79.77429,11.286951,-14.1845255,13.5626545
2.088,118.82747,107.320114,83.86163,11.868302,-13.680624,14.95852
2.09,119.694534,115.72672,88.316345,12.436401,-13.019724,16.498846
2.092,120.488434,123.97922,92.98054,12.98464,-12.177811,18.180851
2.094,121.26585,132.02734,97.741615,13.500948,-11.13463,19.996798
2.096,121.836136,139.93929,102.92125,13.96722,-9.872633,21.930487
2.098,122.56297,147.3587,108.500145,14.36365,-8.3715725,23.966614
2.1,123.44884,154.01483,114.43955,14.678356,-6.609443,26.100338
2.102,124.4851,159.95393,120.56627,14.905327,-4.5876994,28.29224
2.104,125.655426,165.1548,126.81891,15.044726,-2.2873058,30.497023
2.106,126.97338,169.5044,133.17195,15.094545,0.3007202,32.681896
2.108,128.64743,172.81813,139.57884,15.059226,3.1851072,34.803795
2.11,130.71198,175.17352,145.94011,14.955023,6.3701916,36.80905
2.112,133.1653,176.62442,152.11472,14.803247,9.842583,38.652897
2.114,136.05539,177.17772,157.93858,14.626184,13.564051,40.308434
2.116,139.41232,176.84637,163.23483,14.4521675,17.49113,41.729233
2.118,143.22708,175.66469,167.82956,14.31278,21.583097,42.83939
2.12,147.45952,173.68466,171.55696,14.225271,25.796333,43.556396
2.122,152.04355,170.98672,174.26437,14.183363,30.049988,43.861217
2.124,156.89056,167.66837,175.82031,14.147945,34.145676,43.7427
2.126,161.89192,163.83798,176.11688,14.142245,38.013027,43.139362
2.128,166.91414,159.6117,175.07878,14.173017,41.574837,42.02191
2.13,171.8007,155.10176,172.6528,14.184435,44.717026,40.39824
2.132,176.3983,150.40804,168.80966,14.124414,47.3377,38.264038
2.134,180.5751,145.62122,163.56076,13.956024,49.330063,35.613483
2.136,184.18385,140.83017,156.97368,13.646631,50.600716,32.440853
2.138,187.07608,136.11728,149.16171,13.165936,51.08328,28.75626
2.14,189.1284,131.54434,140.27562,12.49485,50.729218,24.567108
2.142,190.24084,127.15532,130.50128,11.625771,49.517067,19.875488
2.144,190.3429,122.974174,120.05545,10.553788,47.454266,14.708574
2.146,189.38438,119.02113,109.175186,9.276141,44.579277,9.142128
2.148,187.34216,115.311935,98.10672,7.7952757,40.967976,3.308649
2.15,184.23535,111.8345,87.09729,6.1109505,36.72587,-2.6012716
2.152,180.11539,108.57808,76.38881,4.216838,31.978218,-8.358362
2.154,175.06053,105.5367,66.20354,2.1016884,26.868061,-13.719974
2.156,169.17792,102.70684,56.738495,-0.23719025,21.562746,-18.425726
2.158,162.60083,100.07692,48.15951,-2.7835464,16.204556,-22.270687
2.16,155.47974,97.631996,40.587902,-5.489814,10.944541,-25.138176
2.162,147.97514,95.36351,34.100304,-8.290096,5.924566,-26.98617
2.164,140.25728,93.288925,28.747597,-11.108206,1.2699897,-27.853642
2.166,132.48808,91.40842,24.522455,-13.854455,-2.907772,-27.864254
2.168,124.82312,89.714645,21.378712,-16.432518,-6.5123525,-27.199703
2.17,117.398895,88.202866,19.236256,-18.755688,-9.484367,-26.038708
2.172,110.36145,86.836395,18.025936,-20.752312,-11.799462,-24.54174
2.174,103.79122,85.61015,17.626251,-22.361324,-13.454697,-22.859724
2.176,97.80715,84.50369,17.89291,-23.539776,-14.445559,-21.156796
2.178,92.46457,83.53941,18.620298,-24.267696,-14.740185,-19.526573
2.18,87.853424,82.70855,19.62276,-24.610325,-14.482901,-17.97679
2.182,83.81726,81.955284,20.905184,-24.609825,-13.787592,-16.536932
2.184,80.172226,81.288345,22.383202,-24.275469,-12.738973,-15.245981
2.186,76.97437,80.66867,23.942589,-23.661001,-11.450354,-14.113891
2.188,74.386665,80.02027,25.490402,-22.84748,-10.034669,-13.153662
2.19,72.40411,79.324974,26.962112,-21.915625,-8.614482,-12.385169
2.192,70.95028,78.557625,28.347788,-20.94117,-7.314471,-11.837852
2.194,69.944695,77.69274,29.620071,-19.999374,-6.2365108,-11.518307
2.196,69.30708,76.71101,30.697561,-19.158644,-5.4615984,-11.407388
2.198,68.97457,75.65077,31.574535,-18.470488,-5.044491,-11.482291
2.2,68.87216,74.50131,32.32603,-17.972084,-5.012693,-11.718258
2.202,68.933975,73.27193,33.12256,-17.684484,-5.367559,-12.081352
2.204,69.085846,71.92616,34.024895,-17.609234,-6.0854,-12.526869
2.206,69.463844,70.365906,34.724792,-17.731941,-7.1219997,-13.002272
2.208,69.695656,68.88917,35.324993,-18.026623,-8.419411,-13.451235
2.21,69.85144,67.60686,35.911674,-18.458578,-9.910523,-13.820239
2.212,69.981804,66.335785,36.639046,-18.989199,-11.524791,-14.064676
2.214,70.11483,65.03866,37.493473,-19.579151,-13.194882,-14.15285
2.216,70.22966,63.790638,38.419937,-20.186821,-14.859887,-14.068925
2.218,70.148735,62.711956,39.386284,-20.7694,-16.461819,-13.813432
2.22,69.90176,61.683426,40.400024,-21.28886,-17.950474,-13.39967
2.222,69.52803,60.67893,41.4822,-21.715145,-19.29021,-12.849159
2.224,69.000374,59.74904,42.645706,-22.025923,-20.457464,-12.188737
2.226,68.30441,58.943886,43.889763,-22.205982,-21.43786,-11.447788
2.228,67.45033,58.295647,45.1959,-22.247007,-22.225792,-10.65576
2.23,66.45497,57.822628,46.53534,-22.146997,-22.823751,-9.839867
2.232,65.3335,57.521122,47.874916,-21.909588,-23.241184,-9.023295
2.234,64.09776,57.379356,49.179577,-21.54262,-23.492493,-8.223898
2.236,62.756226,57.38085,50.420086,-21.05673,-23.594593,-7.4535675
2.238,61.322,57.50542,51.57076,-20.46402,-23.564978,-6.7185383
2.24,59.81131,57.737717,52.622974,-19.777193,-23.420662,-6.020523
2.242,58.22544,58.06894,53.58068,-19.008951,-23.177696,-5.3582916
2.244,56.54855,58.486874,54.444492,-18.171715,-22.850824,-4.728985
2.246,54.791817,58.968132,55.20124,-17.27739,-22.45329,-4.128721
2.248,52.974743,59.487274,55.839058,-16.33738,-21.996744,-3.553278
2.25,51.10742,60.02808,56.352825,-15.362461,-21.491402,-2.998518
2.252,49.197075,60.58064,56.739986,-14.363064,-20.946232,-2.4607763
2.254,47.253098,61.136436,56.999332,-13.349298,-20.369165,-1.9369144
2.256,45.28741,61.686592,57.132374,-12.330902,-19.767365,-1.4242697
2.258,43.311302,62.222343,57.142014,-11.317202,-19.14723,-0.92069626
2.26,41.334064,62.735104,57.034264,-10.316865,-18.514431,-0.4247222
2.262,39.36058,63.215324,56.81987,-9.337655,-17.873693,0.06443071
2.264,37.393414,63.653282,56.511024,-8.386194,-17.228645,0.5468836
2.266,35.434963,64.04065,56.11918,-7.4677725,-16.581656,1.0222754
2.268,33.48767,64.3723,55.65473,-6.586339,-15.934001,1.4900012
2.27,31.5531,64.64518,55.12709,-5.7444124,-15.286007,1.9493954
2.272,29.6329,64.85743,54.546116,-4.9431806,-14.63726,2.399877
2.274,27.727978,65.008415,53.921246,-4.1827083,-13.986747,2.841087
2.276,25.84009,65.09839,53.261272,-3.462225,-13.333127,3.2728517
2.278,23.969542,65.12935,52.574284,-2.7805266,-12.675018,3.6951523
2.28,22.118683,65.103806,51.866653,-2.1362839,-12.011278,4.10808
2.282,20.289967,65.025116,51.1429,-1.5283823,-11.34132,4.5118284
2.284,18.485771,64.89727,50.40619,-0.95611656,-10.665213,4.906644
2.286,16.7082,64.72498,49.659336,-0.41926754,-9.9838085,5.292775
2.288,14.9588585,64.512985,48.904175,0.081878185,-9.298722,5.6704435
2.29,13.238291,64.26623,48.141655,0.5466504,-8.612312,6.03978
2.292,11.546448,63.988304,47.372253,0.9741216,-7.9275084,6.4008102
2.294,9.883368,63.68152,46.5957,1.3632855,-7.247585,6.7533846
2.296,8.249313,63.34796,45.81131,1.713265,-6.576027,7.0971117
2.298,6.645254,62.989365,45.01798,2.0234306,-5.916236,7.4313297
2.3,5.0724792,62.607166,44.21537,2.2935855,-5.2713733,7.755091
2.302,3.532854,62.203255,43.40419,2.524007,-4.644186,8.067196
2.304,2.0279064,61.779457,42.585175,2.7154694,-4.0368443,8.366171
2.306,0.56055737,61.33723,41.758156,2.869273,-3.4507833,8.650319
2.308,-0.8663473,60.877777,40.92342,2.9872246,-2.886719,8.917841
2.31,-2.2503138,60.40186,40.08133,3.071541,-2.3446915,9.166909
2.312,-3.5873423,59.909767,39.23075,3.1247652,-1.8240712,9.395879
2.314,-4.8735094,59.401344,38.371025,3.1497228,-1.3235769,9.6034775
2.316,-6.104499,58.87617,37.50062,3.1494322,-0.8413232,9.788937
2.318,-7.2758226,58.33363,36.617672,3.1270652,-0.374869,9.9520855
2.32,-8.382864,57.773174,35.71996,3.0859532,0.078624725,10.093316
2.322,-9.421147,57.194225,34.804188,3.0296392,0.52244866,10.213495
2.324,-10.385712,56.596684,33.86506,2.9619193,0.96040964,10.314035
2.326,-11.27116,55.980274,32.896904,2.8868892,1.3967721,10.396826
2.328,-12.071926,55.34509,31.893156,2.8089538,1.836182,10.464004
2.33,-12.7822895,54.69086,30.846468,2.7327313,2.2835698,10.517824
2.332,-13.397206,54.01775,29.749092,2.6630416,2.7439814,10.560543
2.334,-13.912792,53.325924,28.59308,2.6048532,3.2224865,10.594335
2.336,-14.325825,52.615974,27.370548,2.5630383,3.7238278,10.6211
2.338,-14.6340065,51.888603,26.073475,2.5420523,4.251979,10.642281
2.34,-14.836194,51.144615,24.694336,2.5456028,4.8099203,10.658646
2.342,-14.932136,50.38549,23.226166,2.5764606,5.3992405,10.670345
2.344,-14.923021,49.613056,21.662998,2.6361623,6.0196304,10.67693
2.346,-14.810961,48.829514,19.999672,2.7248235,6.668583,10.677425
2.348,-14.5995245,48.037582,18.232552,2.8410957,7.3411474,10.670369
2.35,-14.293957,47.240135,16.359438,2.982111,8.029706,10.653897
2.352,-13.900749,46.440056,14.380286,3.1436236,8.724097,10.625843
2.354,-13.427548,45.6404,12.297076,3.3202598,9.411953,10.583827
2.356,-12.883433,44.84443,10.1145525,3.5057275,10.078949,10.52541
2.358,-12.278639,44.055305,7.8405275,3.6931221,10.709308,10.448144
2.36,-11.624289,43.27628,5.4858,3.8753343,11.286587,10.349681
2.362,-10.932058,42.510307,3.0640526,4.0454583,11.794398,10.227905
2.364,-10.214365,41.760384,0.5917883,4.1970587,12.217137,10.081081
2.366,-9.484156,41.029434,-1.9118462,4.3244553,12.540605,9.907895
2.368,-8.753956,40.31981,-4.425374,4.422947,12.752609,9.707524
2.37,-8.036053,39.63365,-6.9254055,4.488949,12.8434725,9.479613
2.372,-7.3419895,38.972473,-9.386877,4.520044,12.806318,9.22422
2.374,-6.6825085,38.33749,-11.784062,4.5148654,12.637274,8.941829
2.376,-6.0675945,37.729317,-14.090942,4.473027,12.335381,8.633247
2.378,-5.50591,37.14821,-16.282095,4.395087,11.902599,8.2994795
2.38,-5.004857,36.593792,-18.333347,4.2825007,11.343836,7.941823
2.382,-4.570196,36.06524,-20.22239,4.137722,10.667,7.5619917
2.384,-4.2055025,35.560783,-21.929241,3.9642606,9.882889,7.1622066
2.386,-3.9135962,35.07908,-23.437077,3.766614,9.005046,6.7451987
2.388,-3.6947174,34.61789,-24.732273,3.550233,8.049504,6.3142114
2.39,-3.5482044,34.175003,-25.804935,3.3214886,7.0344934,5.873084
2.392,-3.4718313,33.74786,-26.648998,3.0875373,5.97991,5.426221
2.394,-3.4616394,33.33402,-27.262348,2.8560445,4.9065275,4.9784155
2.396,-3.5127916,32.93116,-27.646885,2.634698,3.835215,4.534457
2.398,-3.6188736,32.537052,-27.808044,2.4308527,2.78618,4.0988564
2.4,-3.772272,32.14875,-27.75504,2.2511466,1.7780126,3.6756482
2.402,-3.9643707,31.76357,-27.50042,2.101143,0.82699573,3.2682774
2.404,-4.186656,31.37951,-27.059658,1.985113,-0.053454638,2.8795104
2.406,-4.430562,30.994833,-26.450245,1.9059186,-0.8532246,2.5114317
2.408,-4.687521,30.608013,-25.690784,1.8649571,-1.5656081,2.165513
2.41,-4.9489813,30.218376,-24.801659,1.862386,-2.1870255,1.842684
2.412,-5.2063646,29.825161,-23.804047,1.8972652,-2.7167673,1.5434215
2.414,-5.4508877,29.42788,-22.719158,1.9677473,-3.1566734,1.2678521
2.416,-5.675415,29.026218,-21.567125,2.0713122,-3.5105605,1.015796
2.418,-5.873044,28.620167,-20.368135,2.205026,-3.783672,0.78681505
2.42,-6.037297,28.210339,-19.141188,2.3657281,-3.9822695,0.58026004
2.422,-6.163186,27.79763,-17.902765,2.5501451,-4.1132174,0.39530015
2.424,-6.246615,27.383577,-16.668694,2.7550044,-4.1836977,0.23097062
2.426,-6.283666,26.969337,-15.452816,2.9771576,-4.200929,0.08616519
2.428,-6.2712994,26.556303,-14.266962,3.2136376,-4.1719456,-0.040322542
2.43,-6.2072515,26.145859,-13.121474,3.4616554,-4.1034765,-0.14975476
2.432,-6.089694,25.739311,-12.024494,3.7185802,-4.0019236,-0.24347591
2.434,-5.9181232,25.337917,-10.981295,3.9819255,-3.8733838,-0.3228922
2.436,-5.6932163,24.943373,-9.995778,4.249308,-3.7236614,-0.38941288
2.438,-5.416079,24.557251,-9.070256,4.5184646,-3.558216,-0.444417
2.44,-5.088756,24.18164,-8.2054615,4.787306,-3.3821607,-0.48921013
2.442,-4.713401,23.818272,-7.4011006,5.053931,-3.2002378,-0.5249622
2.444,-4.292508,23.469316,-6.6561,5.316656,-3.016807,-0.55273724
2.446,-3.8284597,23.136223,-5.9689636,5.5739937,-2.8357766,-0.57355595
2.448,-3.3244476,22.82053,-5.3371263,5.8246884,-2.6606114,-0.58834267
2.45,-2.7836661,22.52357,-4.757551,6.0677004,-2.4943027,-0.5979316
2.452,-2.2098346,22.246525,-4.226525,6.3021793,-2.3393767,-0.6030965
2.454,-1.6066618,21.990208,-3.7399068,6.527434,-2.1978965,-0.6045749
2.456,-0.97837496,21.755632,-3.2931824,6.742931,-2.071507,-0.603055
2.458,-0.32850027,21.543512,-2.8815794,6.948265,-1.9614916,-0.5992091
2.46,0.3392508,21.354559,-2.4999814,7.143066,-1.8688325,-0.59366655
2.462,1.0213814,21.189367,-2.1437793,7.3270116,-1.7942959,-0.5870509
2.464,1.714468,21.048437,-1.8080637,7.4997945,-1.7384477,-0.57994604
2.466,2.4154327,20.93197,-1.4882958,7.661106,-1.7016934,-0.57290196
2.468,3.1211042,20.840366,-1.1807737,7.8106503,-1.6842643,-0.56640744
2.47,3.8285522,20.773876,-0.88183045,7.9481525,-1.6862496,-0.560894
2.472,4.535235,20.732456,-0.5880499,8.073383,-1.707578,-0.55670214
2.474,5.238464,20.716095,-0.29628658,8.186159,-1.7479703,-0.5540991
2.476,5.936242,20.724274,-0.0037693977,8.286408,-1.806951,-0.5532763
2.478,6.6264863,20.756678,0.2920755,8.374175,-1.883826,-0.5543773
2.48,7.306909,20.812443,0.59363383,8.449627,-1.9776723,-0.55747914
2.482,7.9756665,20.890951,0.90286374,8.513092,-2.0873792,-0.56265426
2.484,8.631029,20.991167,1.2216275,8.565066,-2.2116697,-0.56999063
2.486,9.271461,21.11203,1.5514576,8.606144,-2.3491273,-0.57961535
2.488,9.895431,21.252302,1.8938777,8.637031,-2.4982712,-0.59171367
2.49,10.501591,21.410599,2.2501452,8.6585,-2.6575475,-0.60655665
2.492,11.088719,21.58534,2.6210072,8.671339,-2.8253808,-0.62448335
2.494,11.655745,21.774971,3.0070918,8.676315,-3.00021,-0.6458783
2.496,12.20154,21.977573,3.4089546,8.674128,-3.1805463,-0.6711669
2.498,12.72523,22.191267,3.8267317,8.665392,-3.3649247,-0.7007916
2.5,13.225876,22.414146,4.260297,8.650635,-3.5519617,-0.73514843
2.502,13.702749,22.644299,4.7091894,8.63026,-3.740344,-0.7746141
2.504,14.155246,22.87971,5.1725273,8.6045885,-3.9288478,-0.8194783
2.506,14.583,23.118204,5.6493444,8.573866,-4.116329,-0.8699391
2.508,14.985564,23.357662,6.138311,8.53829,-4.3017416,-0.92606163
2.51,15.362904,23.59602,6.637954,8.498038,-4.4841475,-0.98778176
2.512,15.714809,23.831287,7.1464953,8.453294,-4.6627083,-1.0548735
2.514,16.04145,24.061533,7.662225,8.404302,-4.83663,-1.1269698
2.516,16.342936,24.284805,8.183033,8.35138,-5.0051947,-1.2036126
2.518,16.619444,24.499275,8.706656,8.294862,-5.1677384,-1.2842269
2.52,16.871643,24.703133,9.230819,8.235164,-5.3236313,-1.3682237
2.522,17.100174,24.894659,9.753138,8.172722,-5.472309,-1.4550196
2.524,17.305908,25.072254,10.27129,8.1080065,-5.613267,-1.5440642
2.526,17.48965,25.234407,10.782962,8.041458,-5.746115,-1.6349132
2.528,17.652447,25.379753,11.285819,7.9734325,-5.8705945,-1.7272372
2.53,17.795422,25.506876,11.777636,7.9042115,-5.9866166,-1.820849
2.532,17.919708,25.614489,12.256021,7.833951,-6.0942364,-1.9157156
2.534,18.026827,25.701283,12.718657,7.7626476,-6.1936817,-2.0119648
2.536,18.11806,25.7663,13.163611,7.69013,-6.285324,-2.109833
2.538,18.194658,25.808445,13.588859,7.6160717,-6.369696,-2.2096245
2.54,18.25801,25.826813,13.992653,7.540057,-6.4474044,-2.3116946
2.542,18.309452,25.82065,14.37349,7.461595,-6.5190787,-2.4164248
2.544,18.350132,25.789354,14.729938,7.3801565,-6.5853367,-2.5241868
2.546,18.381681,25.732403,15.060711,7.2952414,-6.646705,-2.6353178
2.548,18.405117,25.649553,15.364637,7.206413,-6.703564,-2.750095
2.55,18.42192,25.540405,15.640714,7.1133695,-6.7560787,-2.8687236
2.552,18.433006,25.405178,15.887976,7.0159297,-6.804241,-2.9913309
2.554,18.439734,25.243969,16.10565,6.914042,-6.847824,-3.1179411
2.556,18.442848,25.057148,16.293112,6.807821,-6.8863897,-3.2484472
2.558,18.443268,24.845436,16.44981,6.697522,-6.919325,-3.3826306
2.56,18.441654,24.60971,16.575237,6.583517,-6.945867,-3.5200806
2.562,18.43865,24.35114,16.669144,6.466269,-6.96519,-3.6602502
2.564,18.434742,24.071083,16.73129,6.346308,-6.9764333,-3.8024287
2.566,18.430492,23.77112,16.761597,6.224184,-6.9787602,-3.945783
2.568,18.42597,23.453045,16.760086,6.100422,-6.97149,-4.0893593
2.57,18.421703,23.118963,16.726889,5.9754972,-6.95409,-4.232104
2.572,18.417648,22.771168,16.662504,5.849822,-6.9262414,-4.3729315
2.574,18.413916,22.41204,16.567354,5.723687,-6.887854,-4.5107307
2.576,18.41041,22.044144,16.442055,5.597263,-6.8390713,-4.6444287
2.578,18.407318,21.669918,16.287514,5.4705687,-6.78022,-4.772997
2.58,18.404491,21.291899,16.10477,5.3435197,-6.7118444,-4.8954997
2.582,18.401646,20.91278,15.89514,5.2159057,-6.6346583,-5.0111237
2.584,18.398785,20.535011,15.659981,5.0873938,-6.54953,-5.1191854
2.586,18.39561,20.161312,15.40098,4.957572,-6.4574733,-5.219112
2.588,18.39195,19.794062,15.120077,4.8259892,-6.359598,-5.310479
2.59,18.387703,19.435863,14.819001,4.692163,-6.2570615,-5.3930416
2.592,18.382833,19.088736,14.500101,4.5556,-6.1510553,-5.466699
2.594,18.377247,18.75488,14.165511,4.4157977,-6.042798,-5.531501
2.596,18.371035,18.436106,13.817755,4.272308,-5.9335103,-5.587627
2.598,18.364344,18.13401,13.459209,4.124734,-5.8243504,-5.6353693
2.6,18.357506,17.849909,13.092327,3.9727552,-5.7164435,-5.6751437
2.602,18.350746,17.58489,12.719742,3.8161368,-5.610836,-5.7074604
2.604,18.344303,17.339842,12.344021,3.6547537,-5.508457,-5.732873
2.606,18.338642,17.115305,11.96751,3.4886088,-5.4100986,-5.7520046
2.608,18.334269,16.911648,11.592434,3.3178375,-5.316457,-5.765515
2.61,18.331774,16.72869,11.221146,3.1426847,-5.228117,-5.774083
2.612,18.33176,16.5661,10.855764,2.9635358,-5.1455574,-5.778389
2.614,18.334682,16.423464,10.498428,2.7809052,-5.06914,-5.77917
2.616,18.34109,16.300022,10.150948,2.5953984,-4.999115,-5.777158
2.618,18.35148,16.194822,9.814881,2.4077034,-4.935609,-5.7730937
2.62,18.366669,16.106758,9.49143,2.2185903,-4.878618,-5.7676897
2.622,18.38713,16.034527,9.181907,2.0288749,-4.8279734,-5.7616296
2.624,18.412695,15.976788,8.887751,1.8393915,-4.7834024,-5.7555413
2.626,18.443499,15.9323015,8.609909,1.6509743,-4.744498,-5.7499595
2.628,18.479977,15.89948,8.348745,1.4644344,-4.710744,-5.745299
2.63,18.52201,15.876849,8.104911,1.2805524,-4.6815453,-5.7418413
2.632,18.569466,15.862938,7.878727,1.10003,-4.656267,-5.7397237
2.634,18.62214,15.856091,7.670168,0.9234984,-4.634228,-5.738933
2.636,18.6801,15.854914,7.47913,0.75149035,-4.614744,-5.7393217
2.638,18.742577,15.858334,7.3056793,0.5844443,-4.5971885,-5.7406454
2.64,18.809216,15.865332,7.149672,0.422683,-4.580985,-5.742601
2.642,18.879568,15.874791,7.010885,0.26642513,-4.5656214,-5.7448325
2.644,18.95293,15.885865,6.889234,0.11581206,-4.5506496,-5.746971
2.646,19.028517,15.897619,6.784228,-0.029091835,-4.5356555,-5.7486644
2.648,19.105768,15.909473,6.6955667,-0.1682589,-4.5202622,-5.7495737
2.65,19.183838,15.921034,6.622697,-0.30170035,-4.504137,-5.7493763
2.652,19.261982,15.931738,6.5651064,-0.4294603,-4.487006,-5.747801
2.654,19.339638,15.940903,6.5221014,-0.5515555,-4.468487,-5.7446065
2.656,19.416,15.948324,6.4929585,-0.6679572,-4.4480915,-5.739592
2.658,19.490408,15.953588,6.4769998,-0.7786356,-4.4253616,-5.7326365
2.66,19.562164,15.95638,6.473269,-0.8835398,-4.3998246,-5.7236676
2.662,19.630692,15.9561825,6.4808536,-0.98255885,-4.370885,-5.712671
2.664,19.695274,15.952618,6.4985065,-1.075549,-4.337927,-5.6996975
2.666,19.755474,15.945414,6.525125,-1.1623822,-4.3003755,-5.6848884
2.668,19.810902,15.933907,6.559311,-1.2429405,-4.25767,-5.668474
2.67,19.86119,15.917619,6.5996227,-1.3170451,-4.209206,-5.650746
2.672,19.905855,15.895893,6.644519,-1.3845395,-4.154433,-5.6320667
2.674,19.94462,15.868183,6.6923647,-1.4452816,-4.092865,-5.6128125
2.676,19.977135,15.833715,6.741443,-1.4991566,-4.024145,-5.593343
2.678,20.003204,15.7918625,6.7899446,-1.5460709,-3.948057,-5.57398
2.68,20.02244,15.741859,6.8361297,-1.585955,-3.8645906,-5.5549946
2.682,20.034847,15.68295,6.8782935,-1.6187708,-3.7739937,-5.5365777
2.684,20.040054,15.614611,6.9147964,-1.6445122,-3.6767664,-5.5188084
2.686,20.038017,15.536261,6.94396,-1.6632193,-3.5736494,-5.501681
2.688,20.02837,15.447485,6.9644375,-1.6750001,-3.4656346,-5.485102
2.69,20.011103,15.348051,6.9748473,-1.6800417,-3.3538303,-5.4688983
2.692,19.986088,15.23753,6.9739866,-1.6786089,-3.2393653,-5.4528656
2.694,19.953089,15.116035,6.961022,-1.6710417,-3.1233268,-5.4367986
2.696,19.91211,14.983431,6.9351325,-1.6577747,-3.0066736,-5.4204946
2.698,19.863197,14.839888,6.895645,-1.6392899,-2.8901803,-5.403777
2.7,19.806192,14.685744,6.8422494,-1.6161265,-2.7743955,-5.386507
2.702,19.741238,14.521636,6.7746997,-1.5888548,-2.659654,-5.3685694
2.704,19.668356,14.348155,6.6929383,-1.5580251,-2.5460744,-5.3498907
2.706,19.587662,14.166159,6.59711,-1.524147,-2.4336417,-5.3303676
2.708,19.499222,13.976675,6.487337,-1.4877143,-2.3223422,-5.3099027
2.71,19.403255,13.780756,6.364148,-1.4491649,-2.2121744,-5.2884007
2.712,19.300041,13.5795555,6.2280645,-1.4088609,-2.1030836,-5.26573
2.714,19.190123,13.374243,6.0795994,-1.3671052,-1.9950535,-5.241769
2.716,19.073877,13.165945,5.9194055,-1.3241698,-1.8882062,-5.2164145
2.718,18.951775,12.955917,5.7484107,-1.2803017,-1.7827445,-5.1895986
2.72,18.824242,12.745482,5.567472,-1.235708,-1.6789315,-5.161263
2.722,18.691872,12.535675,5.3774652,-1.1905984,-1.5771166,-5.1313796
2.724,18.5553,12.32774,5.179314,-1.1452055,-1.4777644,-5.09998
2.726,18.415066,12.122799,4.9739776,-1.0997698,-1.3813596,-5.067122
2.728,18.271936,11.921864,4.7626095,-1.0545299,-1.2883852,-5.0329313
2.73,18.126083,11.725956,4.54643,-1.0097579,-1.1992776,-4.997548
2.732,17.978395,11.535807,4.326306,-0.9657205,-1.114423,-4.9611006
2.734,17.82986,11.352014,4.102854,-0.92272043,-1.0341351,-4.9237146
2.736,17.681034,11.175144,3.877251,-0.8810775,-0.9586291,-4.885493
2.738,17.531986,11.005936,3.6508765,-0.84108746,-0.88802016,-4.8465095
2.74,17.383236,10.844665,3.4247184,-0.80303484,-0.82230806,-4.8068233
2.742,17.235155,10.691684,3.1997278,-0.76716375,-0.76140463,-4.766466
2.744,17.087921,10.547333,2.977158,-0.73367447,-0.705163,-4.725465
2.746,16.941694,10.4116125,2.757959,-0.702706,-0.65338993,-4.683813
2.748,16.796974,10.284164,2.5428588,-0.674335,-0.6058655,-4.6415234
2.75,16.6538,10.164862,2.3326747,-0.64857596,-0.5623707,-4.598618
2.752,16.512157,10.05349,2.128164,-0.62540346,-0.5227008,-4.5551424
2.754,16.372164,9.949695,1.9300544,-0.6047492,-0.48669964,-4.5111575
2.756,16.23394,9.853117,1.7389536,-0.5864986,-0.45423973,-4.466762
2.758,16.097275,9.763277,1.5554588,-0.57051927,-0.42522854,-4.4220657
2.76,15.962172,9.679406,1.3801117,-0.5566783,-0.3996092,-4.3772106
2.762,15.828497,9.601142,1.2131914,-0.54483753,-0.3773311,-4.332331
2.764,15.696201,9.527979,1.0550228,-0.53489923,-0.35833156,-4.28753
2.766,15.5649185,9.459141,0.9058,-0.5267715,-0.34252918,-4.242879
2.768,15.434722,9.394009,0.76548856,-0.52039695,-0.32982743,-4.1984015
2.77,15.305243,9.33209,0.63412744,-0.5157584,-0.32006484,-4.154082
2.772,15.176508,9.272762,0.511546,-0.5128443,-0.31302983,-4.1098647
2.774,15.048406,9.215384,0.39747924,-0.5116753,-0.30845788,-4.0656724
2.776,14.920638,9.159389,0.29155332,-0.5122562,-0.30607033,-4.021423
2.778,14.793125,9.104368,0.19336385,-0.5145995,-0.30553225,-3.977065
2.78,14.66578,9.049869,0.10245484,-0.51870173,-0.30652645,-3.9325578
2.782,14.538666,8.995589,0.018283606,-0.52451295,-0.30874395,-3.8878777
2.784,14.411638,8.941131,-0.059865892,-0.53196776,-0.3119102,-3.8430402
2.786,14.284817,8.886371,-0.132518,-0.54098344,-0.31579608,-3.7980795
2.788,14.158211,8.831191,-0.20020837,-0.5514352,-0.32021892,-3.7530415
2.79,14.03184,8.775414,-0.26371908,-0.56318444,-0.32505244,-3.7079833
2.792,13.905812,8.719109,-0.32355005,-0.57608867,-0.33021194,-3.6629496
2.794,13.780207,8.662258,-0.3803861,-0.589984,-0.33567333,-3.6179678
2.796,13.655166,8.604968,-0.4346823,-0.6047141,-0.34142753,-3.5730426
2.798,13.53097,8.547337,-0.4870001,-0.62012476,-0.34748596,-3.5281672
2.8,13.407797,8.489448,-0.5378249,-0.6360722,-0.3538548,-3.4833279
2.802,13.285765,8.431642,-0.58749634,-0.65241474,-0.360517,-3.4384928
2.804,13.165303,8.373924,-0.6365146,-0.66902524,-0.36746025,-3.393649
2.806,13.046585,8.3165865,-0.6851423,-0.68578804,-0.37463608,-3.3487742
2.808,12.929785,8.259944,-0.7335647,-0.7025881,-0.38198105,-3.303882
2.81,12.815311,8.204151,-0.78199756,-0.7193494,-0.38941944,-3.2589996
2.812,12.703274,8.149408,-0.83076227,-0.73599756,-0.3968932,-3.214171
2.814,12.594055,8.0960045,-0.87985903,-0.75248414,-0.40434116,-3.169444
2.816,12.48781,8.044176,-0.9295346,-0.7687811,-0.41173363,-3.1248975
2.818,12.38488,7.994102,-0.9797576,-0.7848709,-0.4190777,-3.0806081
2.82,12.285408,7.9460034,-1.0306226,-0.8007765,-0.42641753,-3.0366666
2.822,12.189657,7.9001184,-1.0821817,-0.8165388,-0.43382078,-2.9931657
2.824,12.0976095,7.8566227,-1.1343906,-0.8322321,-0.44140786,-2.9501808
2.826,12.009498,7.8156505,-1.187196,-0.8479507,-0.44932413,-2.907775
2.828,11.925229,7.7772827,-1.2407222,-0.8637985,-0.45770186,-2.8660119
2.83,11.844975,7.7415113,-1.294832,-0.8799002,-0.46666673,-2.824948
2.832,11.768628,7.708541,-1.3493236,-0.8963546,-0.47633547,-2.7846224
2.834,11.696069,7.678184,-1.4041982,-0.91322905,-0.4867624,-2.7450933
2.836,11.627248,7.650448,-1.4592621,-0.93058336,-0.49795067,-2.7064188
2.838,11.562102,7.6252584,-1.5144825,-0.94840723,-0.509832,-2.6686451
2.84,11.500403,7.602337,-1.5697287,-0.96666646,-0.5222809,-2.6318064
2.842,11.441849,7.581744,-1.6249313,-0.98527354,-0.53510046,-2.5959196
2.844,11.386347,7.5633492,-1.6800599,-1.0040905,-0.548051,-2.5610018
2.846,11.333708,7.546829,-1.7350732,-1.0229514,-0.5608546,-2.5270615
2.848,11.283674,7.532163,-1.7899168,-1.0416689,-0.5731877,-2.4940724
2.85,11.235989,7.519189,-1.8447789,-1.0600402,-0.58472896,-2.4619882
2.852,11.190364,7.5078588,-1.8996196,-1.0778515,-0.5951458,-2.430739
2.854,11.146699,7.4980593,-1.9545643,-1.094898,-0.60411435,-2.400219
2.856,11.104691,7.4897346,-2.0098357,-1.1109816,-0.6113352,-2.370305
2.858,11.064223,7.482747,-2.0655355,-1.125918,-0.61653644,-2.3408594
2.86,11.025073,7.4771624,-2.122034,-1.139546,-0.61950225,-2.3117328
2.862,10.987051,7.4729567,-2.1794708,-1.1517233,-0.62004614,-2.282765
2.864,10.949925,7.470106,-2.2382917,-1.1623294,-0.61803436,-2.2538197
2.866,10.913577,7.468584,-2.298791,-1.1712625,-0.6133785,-2.2247972
2.868,10.877956,7.468382,-2.36131,-1.1784419,-0.6060432,-2.1956182
2.87,10.842961,7.4697046,-2.4263206,-1.1838082,-0.5960437,-2.1662395
2.872,10.808432,7.472328,-2.4941022,-1.1873277,-0.5834419,-2.1366649
2.874,10.774213,7.4763317,-2.564985,-1.1889939,-0.56833774,-2.1069293
2.876,10.740282,7.4817233,-2.6393049,-1.1887913,-0.55087703,-2.0771055
2.878,10.706624,7.488427,-2.7172852,-1.1867397,-0.5312375,-2.0472815
2.88,10.672953,7.496331,-2.799335,-1.1828716,-0.50960743,-2.0175817
2.882,10.639464,7.505337,-2.885641,-1.177238,-0.48620957,-1.988125
2.884,10.6058235,7.515424,-2.9763706,-1.1699011,-0.46127567,-1.9590236
2.886,10.572166,7.5264077,-3.0718637,-1.160917,-0.4350341,-1.9303687
2.888,10.53838,7.5380898,-3.172271,-1.1503489,-0.4077267,-1.9022247
2.89,10.504418,7.550308,-3.2778044,-1.1382654,-0.37960273,-1.8746257
2.892,10.470171,7.5627995,-3.3886135,-1.1247104,-0.35090894,-1.8475747
2.894,10.435632,7.575535,-3.5047152,-1.1097221,-0.32187998,-1.821063
2.896,10.40072,7.5881495,-3.6263816,-1.0933378,-0.2927512,-1.795045
2.898,10.36547,7.600433,-3.7535768,-1.0755596,-0.263749,-1.7694713
2.9,10.329877,7.6121516,-3.8863578,-1.0563887,-0.23506582,-1.7442834
2.902,10.293799,7.6230392,-4.024632,-1.0358099,-0.20688891,-1.7194468
2.904,10.257497,7.6328373,-4.168591,-1.0137962,-0.17935964,-1.6949376
2.906,10.220611,7.6413116,-4.3180804,-0.9903176,-0.15259983,-1.6707472
2.908,10.1834135,7.6482115,-4.4731493,-0.96533227,-0.12670508,-1.6468825
2.91,10.14571,7.6533575,-4.633658,-0.9388143,-0.10174119,-1.6233763
2.912,10.107844,7.6564016,-4.7995977,-0.9107255,-0.07773983,-1.6002581
2.914,10.069638,7.657251,-4.9706483,-0.88102645,-0.054735214,-1.5775856
2.916,10.0311985,7.6556706,-5.146688,-0.8496798,-0.032760043,-1.5554318
2.918,9.99271,7.651484,-5.327506,-0.81665355,-0.011833487,-1.5338589
2.92,9.95427,7.644556,-5.5128326,-0.7819352,0.008005278,-1.5129358
2.922,9.915881,7.634808,-5.7022467,-0.74550587,0.02671162,-1.492725
2.924,9.877731,7.6221824,-5.8954268,-0.70735407,0.044236522,-1.4732795
2.926,9.839895,7.6066465,-6.0918803,-0.6674855,0.060522094,-1.454625
2.928,9.802618,7.5881844,-6.2910953,-0.6259054,0.07550466,-1.4367647
2.93,9.766037,7.5668664,-6.4925256,-0.58265173,0.08910476,-1.4196676
2.932,9.730177,7.542762,-6.6954584,-0.53773737,0.10123161,-1.4032987
2.934,9.695353,7.5159235,-6.8992147,-0.49118447,0.11177267,-1.3876019
2.936,9.661613,7.4866805,-7.1030216,-0.44301847,0.120577805,-1.3725127
2.938,9.6291685,7.455046,-7.305983,-0.39327094,0.1274826,-1.3579856
2.94,9.598175,7.421457,-7.5073943,-0.34199345,0.13229176,-1.3439974
2.942,9.568749,7.386067,-7.706378,-0.28922513,0.13480297,-1.3305415
2.944,9.540987,7.3493476,-7.9018903,-0.23501024,0.134803,-1.3176396
2.946,9.515061,7.31158,-8.092998,-0.17943652,0.13208729,-1.3053305
2.948,9.490866,7.273203,-8.278608,-0.12258676,0.12647183,-1.2936652
2.95,9.468735,7.234584,-8.457693,-0.06455982,0.11779606,-1.2827004
2.952,9.448606,7.1960964,-8.629201,-0.005480185,0.10594118,-1.2724692
2.954,9.430586,7.1581044,-8.7919655,0.054538637,0.09080286,-1.2630002
2.956,9.414574,7.121132,-8.945022,0.11535512,0.07232085,-1.254311
2.958,9.400691,7.085412,-9.087332,0.1768269,0.050441682,-1.2463853
2.96,9.388868,7.0515037,-9.217827,0.2388095,0.025126994,-1.239169
2.962,9.379277,7.0196986,-9.335759,0.30115885,-0.0036312938,-1.23261
2.964,9.371754,6.990484,-9.440102,0.36375314,-0.035868943,-1.2266374
2.966,9.36628,6.9642124,-9.529946,0.42646608,-0.071618706,-1.2211938
2.968,9.362915,6.941442,-9.6045265,0.48917872,-0.11090654,-1.2161956
2.97,9.361621,6.922468,-9.663121,0.5517663,-0.15376472,-1.2115573
2.972,9.362369,6.907744,-9.705122,0.6141366,-0.20024443,-1.2072139
2.974,9.365235,6.897548,-9.729973,0.676218,-0.2503346,-1.2030883
2.976,9.370117,6.892353,-9.737314,0.73795986,-0.30402297,-1.1991044
2.978,9.37704,6.892469,-9.726843,0.7993283,-0.36126852,-1.195156
2.98,9.385899,6.8981524,-9.698415,0.8603362,-0.42198604,-1.1911278
2.982,9.39678,6.9098883,-9.652028,0.9210389,-0.4860554,-1.1868594
2.984,9.409562,6.9278846,-9.587978,0.9815269,-0.553311,-1.1821518
2.986,9.424276,6.952414,-9.506613,1.0419432,-0.6235456,-1.1767666
2.988,9.440693,6.9837494,-9.408292,1.102494,-0.6965108,-1.1704413
2.99,9.459124,7.0220947,-9.293762,1.1634372,-0.7719228,-1.1629289
2.992,9.479101,7.067545,-9.163873,1.2250729,-0.84948504,-1.1539898
2.994,9.500761,7.120219,-9.019602,1.2877476,-0.9288676,-1.1434205
2.996,9.523908,7.1801805,-8.862035,1.351811,-1.0097215,-1.1310545
2.998,9.548528,7.247411,-8.692551,1.4176224,-1.0916983,-1.11679
3,9.574441,7.321758,-8.512538,1.485522,-1.1744537,-1.1005628
3.002,9.601526,7.4032593,-8.323515,1.5557811,-1.2576653,-1.0823594
3.004,9.629776,7.491477,-8.127122,1.6286012,-1.3410162,-1.0622147
3.006,9.659041,7.5862846,-7.924992,1.7040926,-1.424252,-1.0401862
3.008,9.68914,7.6872125,-7.7189565,1.7822614,-1.5071748,-1.0163609
3.01,9.720244,7.793934,-7.510726,1.8630322,-1.589642,-0.99086404
3.012,9.752149,7.9059734,-7.3021765,1.9462261,-1.6715778,-0.9638692
3.014,9.784609,8.022685,-7.094762,2.0315843,-1.7529607,-0.93561137
3.016,9.817927,8.143516,-6.8902764,2.1187744,-1.8338495,-0.90636563
3.018,9.851724,8.267885,-6.690152,2.2074208,-1.9143004,-0.8764634
3.02,9.886224,8.395085,-6.4958878,2.2971516,-1.9944025,-0.8462719
3.022,9.921166,8.524611,-6.3087745,2.3876002,-2.0742474,-0.816184
3.024,9.956763,8.655704,-6.1299844,2.4784145,-2.153919,-0.786594
3.026,9.992865,8.787858,-5.960547,2.5692616,-2.2334523,-0.75786257
3.028,10.029569,8.920405,-5.801198,2.6598635,-2.3128686,-0.7303006
3.03,10.066779,9.052845,-5.6527076,2.7499819,-2.3921323,-0.70418024
3.032,10.104664,9.184715,-5.5154185,2.839415,-2.4711676,-0.6796957
3.034,10.143176,9.315598,-5.389575,2.9280026,-2.549862,-0.6569688
3.036,10.182377,9.445219,-5.2752976,3.0155957,-2.6280713,-0.63606775
3.038,10.222181,9.573302,-5.1724873,3.1020756,-2.705646,-0.6170336
3.04,10.262763,9.69971,-5.0809307,3.187345,-2.7824123,-0.5998495
3.042,10.303958,9.8246155,-5.00037,3.2713237,-2.858227,-0.58449984
3.044,10.346127,9.94792,-4.9302692,3.3539324,-2.9329562,-0.5709554
3.046,10.389337,10.069834,-4.869983,3.4351199,-3.0064855,-0.5591902
3.048,10.433587,10.190772,-4.8187304,3.5148556,-3.0787525,-0.54916805
3.05,10.478891,10.310916,-4.775764,3.5931213,-3.149732,-0.5408778
3.052,10.525381,10.430728,-4.740288,3.669916,-3.219418,-0.5342799
3.054,10.573173,10.550681,-4.7115245,3.7452617,-3.2878284,-0.5293476
3.056,10.622338,10.671419,-4.6886005,3.8191817,-3.3549767,-0.5260144
3.058,10.672949,10.793423,-4.6706524,3.8917184,-3.4209108,-0.5241802
3.06,10.725049,10.917381,-4.656805,3.9628992,-3.485649,-0.5237043
3.062,10.778762,11.0438595,-4.64623,4.032749,-3.5491889,-0.5244057
3.064,10.833915,11.173548,-4.638062,4.1012974,-3.6115217,-0.5260571
3.066,10.89083,11.306819,-4.6314406,4.1685514,-3.672604,-0.5283998
3.068,10.949285,11.444318,-4.625625,4.2345133,-3.7323558,-0.5311561
3.07,11.009253,11.58656,-4.6198416,4.2992134,-3.790665,-0.5340355
3.072,11.070571,11.733963,-4.6132607,4.3626947,-3.847374,-0.53679425
3.074,11.133228,11.886872,-4.6053104,4.425002,-3.902363,-0.5392236
3.076,11.197182,12.045652,-4.5953417,4.4861674,-3.9555478,-0.5411864
3.078,11.262276,12.210493,-4.5827436,4.546291,-4.006796,-0.54260594
3.08,11.328358,12.381558,-4.5669417,4.605493,-4.0559893,-0.543433
3.082,11.395082,12.558855,-4.5474234,4.6639132,-4.1030397,-0.54364514
3.084,11.462245,12.742475,-4.523696,4.7217236,-4.14788,-0.5432147
3.086,11.529614,12.932198,-4.4953923,4.779104,-4.190485,-0.54212695
3.088,11.596937,13.127846,-4.462142,4.8362236,-4.2308583,-0.5403602
3.09,11.663943,13.329282,-4.423624,4.8932395,-4.2690134,-0.5378791
3.092,11.730336,13.536087,-4.37957,4.9503026,-4.3049893,-0.53462833
3.094,11.795938,13.747879,-4.329607,5.0075145,-4.338852,-0.5305538
3.096,11.860416,13.964327,-4.2735834,5.064936,-4.370662,-0.5255828
3.098,11.92352,14.184937,-4.2114472,5.122614,-4.400503,-0.5196582
3.1,11.985029,14.409233,-4.142898,5.180559,-4.4284625,-0.5127351
3.102,12.044762,14.6367855,-4.0678225,5.238754,-4.4546146,-0.5048135
3.104,12.102504,14.867044,-3.9861336,5.29718,-4.479062,-0.4959081
3.106,12.158118,15.099442,-3.8976798,5.3557825,-4.5019255,-0.4860543
3.108,12.211447,15.333384,-3.8023298,5.4144797,-4.5233483,-0.4752987
3.11,12.26232,15.568424,-3.7000122,5.473189,-4.5434957,-0.46369812
3.112,12.3107815,15.803867,-3.5906882,5.531796,-4.562505,-0.45131564
3.114,12.356605,16.039295,-3.474174,5.590185,-4.580536,-0.4382053
3.116,12.399761,16.274036,-3.350459,5.6482267,-4.597724,-0.42441744
3.118,12.440348,16.507654,-3.2193964,5.7057695,-4.6141977,-0.40998346
3.12,12.478113,16.739508,-3.0809298,5.7626905,-4.630041,-0.3949348
3.122,12.513189,16.969082,-2.934865,5.8188868,-4.6453037,-0.37928608
3.124,12.545592,17.195936,-2.7811708,5.874263,-4.659981,-0.36305702
3.126,12.575321,17.419487,-2.6196594,5.928747,-4.6740437,-0.3462259
3.128,12.602323,17.639175,-2.4504027,5.9823284,-4.6873465,-0.32877353
3.13,12.626628,17.854599,-2.2732377,6.0350647,-4.6996875,-0.31066152
3.132,12.648342,18.065168,-2.08819,6.0870028,-4.710882,-0.29184204
3.134,12.667292,18.270344,-1.8953035,6.138214,-4.720677,-0.27226403
3.136,12.683601,18.469675,-1.6946092,6.188816,-4.728767,-0.25185412
3.138,12.697136,18.66277,-1.4862278,6.2389297,-4.7347984,-0.23050678
3.14,12.707964,18.849056,-1.2702405,6.2887077,-4.7383904,-0.20808324
3.142,12.716047,19.028126,-1.0470142,6.338298,-4.739135,-0.18443483
3.144,12.721185,19.199638,-0.8169031,6.3878427,-4.7366343,-0.15940928
3.146,12.723484,19.363087,-0.58015203,6.437463,-4.730486,-0.13284811
3.148,12.722894,19.518154,-0.33717698,6.4872723,-4.7203016,-0.104616284
3.15,12.71917,19.664452,-0.08840251,6.537368,-4.7057056,-0.074608505
3.152,12.7125,19.801373,0.16578609,6.587826,-4.686352,-0.042736292
3.154,12.702424,19.928928,0.42483318,6.638675,-4.661952,-0.008932948
3.156,12.688967,20.046608,0.68818825,6.689934,-4.6322656,0.026885748
3.158,12.672034,20.154129,0.95513743,6.7415957,-4.5970736,0.06477928
3.16,12.651574,20.251213,1.2252454,6.793622,-4.5562267,0.104812145
3.162,12.627466,20.337708,1.497865,6.8459554,-4.5096464,0.14705586
3.164,12.599499,20.413311,1.7725091,6.8985014,-4.4573107,0.19158757
3.166,12.567549,20.477772,2.0485609,6.9511294,-4.399269,0.23849899
3.168,12.531488,20.530909,2.3254511,7.0036764,-4.3356276,0.2878679
3.17,12.491148,20.572573,2.6025686,7.0559416,-4.266539,0.3397733
3.172,12.44635,20.602541,2.8794987,7.1077013,-4.192175,0.39425826
3.174,12.396925,20.62059,3.1556664,7.1586866,-4.1127653,0.45133764
3.176,12.342657,20.62674,3.4306371,7.208639,-4.028552,0.51095843
3.178,12.283533,20.620472,3.7039728,7.2572775,-3.9397707,0.5730542
3.18,12.219217,20.601776,3.975328,7.30434,-3.8466601,0.6374925
3.182,12.149701,20.570288,4.244256,7.349581,-3.7494552,0.70410323
3.184,12.074784,20.52575,4.510427,7.392782,-3.648372,0.7726807
3.186,11.994205,20.46808,4.77357,7.4337907,-3.5436006,0.8430251
3.188,11.907763,20.397053,5.03326,7.4725056,-3.4353096,0.91489327
3.19,11.815538,20.312458,5.2893844,7.508865,-3.323628,0.9880757
3.192,11.717548,20.214241,5.541481,7.542874,-3.2086604,1.0623734
3.194,11.613672,20.102276,5.7893076,7.574568,-3.0904717,1.1376295
3.196,11.503982,19.9766,6.032652,7.6040382,-2.9691098,1.2137454
3.198,11.3885355,19.837292,6.2711334,7.6313753,-2.8445942,1.2906605
3.2,11.267425,19.684324,6.5044775,7.6566677,-2.7169442,1.3683684
3.202,11.140827,19.51807,6.732355,7.6800013,-2.586172,1.4469115
3.204,11.009151,19.33876,6.954294,7.701421,-2.4522653,1.5263791
3.206,10.872545,19.14667,7.169941,7.7209196,-2.3152297,1.6068972
3.208,10.731405,18.94239,7.378803,7.7384567,-2.175064,1.6886028
3.21,10.586048,18.72648,7.580407,7.7539206,-2.0317922,1.7716446
3.212,10.436919,18.499605,7.7742434,7.7671795,-1.8854713,1.856153
3.214,10.284621,18.262535,7.9597554,7.778037,-1.7361767,1.9422526
3.216,10.129543,18.016136,8.136315,7.786272,-1.5840337,2.0300202
3.218,9.972151,17.76135,8.303365,7.7916346,-1.4292226,2.1195107
3.22,9.813156,17.499165,8.460298,7.793879,-1.2719543,2.210744
3.222,9.652764,17.23062,8.6064625,7.7927485,-1.1124997,2.3036935
3.224,9.491732,16.956566,8.741281,7.787999,-0.9511659,2.3982925
3.226,9.330423,16.678295,8.864251,7.7794123,-0.7883041,2.4944565
3.228,9.169334,16.396643,8.974824,7.7667665,-0.62427497,2.5920572
3.23,9.008939,16.112677,9.072516,7.749842,-0.45947933,2.6909435
3.232,8.849551,15.827393,9.156805,7.7284584,-0.29433846,2.7909145
3.234,8.69143,15.5417385,9.227228,7.7024326,-0.12927222,2.8917603
3.236,8.534803,15.256558,9.28358,7.6715984,0.035305977,2.9932613
3.238,8.379975,14.972657,9.325722,7.635809,0.1989634,3.0951524
3.24,8.226939,14.690772,9.353492,7.594946,0.36128187,3.1971576
3.242,8.075743,14.4116125,9.366928,7.548893,0.5218427,3.2990003
3.244,7.9264917,14.135816,9.366102,7.497603,0.68024445,3.4003766
3.246,7.778944,13.863878,9.351305,7.441034,0.8361089,3.5010006
3.248,7.6330547,13.596385,9.322787,7.3791943,0.9890599,3.6005802
3.25,7.4886074,13.333968,9.281048,7.3121214,1.1387653,3.6988282
3.252,7.345262,13.076938,9.226659,7.23989,1.2849464,3.79549
3.254,7.202704,12.825769,9.160323,7.1626263,1.427393,3.8903456
3.256,7.060634,12.581002,9.08271,7.08046,1.5659566,3.9832046
3.258,6.918705,12.343069,8.994682,6.9935737,1.7005618,4.0739303
3.26,6.776491,12.112372,8.897011,6.902178,1.8312504,4.162442
3.262,6.6335435,11.889441,8.790782,6.8065095,1.958163,4.2487283
3.264,6.489453,11.674629,8.676836,6.706845,2.0815427,4.3328505
3.266,6.3438025,11.468608,8.556072,6.6034746,2.2017107,4.414926
3.268,6.1962547,11.27178,8.429569,6.49673,2.3190875,4.495115
3.27,6.04641,11.084736,8.298109,6.386961,2.4341645,4.573607
3.272,5.8938694,10.907839,8.1626625,6.2745504,2.5474823,4.65063
3.274,5.738316,10.741645,8.023929,6.1598706,2.659603,4.726388
3.276,5.579388,10.586688,7.882633,6.0433135,2.771105,4.801095
3.278,5.416827,10.443434,7.7394156,5.9252377,2.8824892,4.8748903
3.28,5.2501955,10.312332,7.5947165,5.8059855,2.9942214,4.9478745
3.282,5.0794716,10.193626,7.448865,5.685896,3.1066792,5.020085
3.284,4.904548,10.087746,7.302109,5.5652523,3.2201595,5.091511
3.286,4.725146,9.994791,7.1544847,5.4442987,3.3348293,5.1620703
3.288,4.5410852,9.915103,7.006174,5.323238,3.4507132,5.231597
3.29,4.352736,9.848477,6.8568597,5.20222,3.5676951,5.2998886
3.292,4.1599154,9.794987,6.706345,5.0813494,3.6855514,5.366705
3.294,3.9625335,9.754559,6.554465,4.9606752,3.8039348,5.4317517
3.296,3.7605882,9.727076,6.400936,4.8402333,3.9224138,5.4947033
3.298,3.554036,9.712293,6.245308,4.7199903,4.0404615,5.555217
3.3,3.342888,9.709845,6.0869436,4.599909,4.1575108,5.612911
3.302,3.127497,9.7190485,5.9254084,4.479917,4.2729564,5.6674156
3.304,2.9077034,9.73935,5.7601614,4.359933,4.38617,5.7183437
3.306,2.6837175,9.770042,5.590684,4.239881,4.4965277,5.7653217
3.308,2.4556777,9.810381,5.416354,4.119664,4.603446,5.8079824
3.31,2.2236693,9.859686,5.2366385,3.999207,4.7063804,5.8459997
3.312,1.9877704,9.91702,5.0509586,3.8784397,4.804803,5.879058
3.314,1.7479864,9.981713,4.8589497,3.7573018,4.898245,5.9069047
3.316,1.5047278,10.052812,4.6601157,3.6357503,4.9862895,5.929319
3.318,1.2581168,10.129372,4.454294,3.5137422,5.068554,5.946146
3.32,1.0083756,10.210628,4.2411194,3.3912485,5.1446924,5.957328
3.322,0.75601417,10.295595,4.0204916,3.2682567,5.2143106,5.96289
3.324,0.5011707,10.383323,3.7923758,3.1447353,5.2769833,5.962929
3.326,0.24432035,10.472871,3.5568154,3.0206459,5.3322763,5.957579
3.328,-0.014034613,10.56323,3.3139164,2.895961,5.3797197,5.946989
3.33,-0.27349573,10.653316,3.0639367,2.770614,5.418743,5.931308
3.332,-0.533392,10.742262,2.807344,2.6445177,5.448695,5.9107003
3.334,-0.7934096,10.829177,2.544347,2.5175588,5.468835,5.8852825
3.336,-1.0529091,10.912997,2.2754836,2.3896074,5.4783726,5.8551025
3.338,-1.3115523,10.992993,2.0012305,2.2605288,5.4764843,5.8200865
3.34,-1.568736,11.068227,1.7223845,2.1301484,5.462396,5.780037
3.342,-1.8237138,11.137745,1.439601,1.9983186,5.43543,5.734669
3.344,-2.0761292,11.200763,1.1538281,1.8648818,5.395037,5.683582
3.346,-2.3254876,11.256486,0.8658316,1.7296863,5.340807,5.626318
3.348,-2.571339,11.30433,0.576601,1.5926037,5.272494,5.5624437
3.35,-2.8132508,11.343669,0.28717136,1.4535359,5.1899915,5.49159
3.352,-3.0508924,11.373809,-0.0013303757,1.3124322,5.093333,5.4135275
3.354,-3.284051,11.394527,-0.2877879,1.16927,4.9826717,5.328176
3.356,-3.5123663,11.405331,-0.57098866,1.0240772,4.8582253,5.2356668
3.358,-3.7357092,11.405867,-0.8497617,0.8769511,4.720276,5.136355
3.36,-3.95393,11.39604,-1.1228783,0.72804487,4.5691833,5.0308065
3.362,-4.1669645,11.375923,-1.3891499,0.57759243,4.4053507,4.9197526
3.364,-4.374515,11.345465,-1.6472807,0.42588905,4.229282,4.8040113
3.366,-4.5768914,11.304874,-1.8962495,0.2732936,4.0416207,4.684465
3.368,-4.7740493,11.25453,-2.1350746,0.12021464,3.8431623,4.5619807
3.37,-4.965999,11.1947975,-2.3627472,-0.032875836,3.6348457,4.4374127
3.372,-5.1527557,11.126324,-2.5784917,-0.18549746,3.417798,4.311543
3.374,-5.334474,11.049578,-2.781579,-0.33715528,3.1932945,4.185093
3.376,-5.5110965,10.965305,-2.9713311,-0.48735416,2.9627519,4.0587006
3.378,-5.682766,10.874317,-3.1474,-0.6355953,2.7276855,3.9329627
3.38,-5.849643,10.777403,-3.3095047,-0.7813796,2.4896548,3.808439
3.382,-6.0115423,10.6754465,-3.457673,-0.9242414,2.250194,3.6856549
3.384,-6.168521,10.56929,-3.5918102,-1.0637021,2.010837,3.5650687
3.386,-6.320609,10.45977,-3.7121983,-1.1993153,1.7730399,3.447057
3.388,-6.46772,10.347672,-3.8191772,-1.3306346,1.5381179,3.3319287
3.39,-6.6098394,10.233786,-3.913093,-1.4572474,1.3071867,3.2199306
3.392,-6.7469068,10.118762,-3.9944124,-1.5787659,1.081188,3.111266
3.394,-6.878976,10.003145,-4.0636396,-1.6948123,0.8608413,3.0060587
3.396,-7.006032,9.887626,-4.1213493,-1.8050793,0.6466619,2.9043643
3.398,-7.1279454,9.772607,-4.1683073,-1.9092937,0.43899786,2.8061688
3.4,-7.244972,9.658466,-4.205019,-2.0072477,0.23805416,2.7114072
3.402,-7.35718,9.545521,-4.2320957,-2.0988045,0.04394126,2.6199603
3.404,-7.4645233,9.433931,-4.250394,-2.1839018,-0.14328337,2.5316446
3.406,-7.566973,9.323734,-4.2604856,-2.2625542,-0.32360494,2.4462552
3.408,-7.664722,9.21499,-4.2627974,-2.3348193,-0.49698466,2.3635886
3.41,-7.758128,9.107814,-4.2577887,-2.4008226,-0.66333103,2.2834089
3.412,-7.8476305,9.002312,-4.2459726,-2.460732,-0.82249737,2.2055025
3.414,-7.93334,8.898424,-4.227826,-2.514759,-0.9742687,2.1296601
3.416,-8.015669,8.796036,-4.203735,-2.5631275,-1.1183732,2.0557158
3.418,-8.095046,8.694981,-4.1740637,-2.60606,-1.2544845,1.983554
3.42,-8.171731,8.595125,-4.1392007,-2.64379,-1.3822843,1.9130762
3.422,-8.246157,8.496332,-4.099503,-2.6765575,-1.5014802,1.8442473
3.424,-8.318849,8.398548,-4.055483,-2.7045941,-1.6117804,1.7770591
3.426,-8.390266,8.301761,-4.0073857,-2.7280889,-1.7129421,1.7115062
3.428,-8.460772,8.205988,-3.9558454,-2.7472408,-1.8047954,1.6475899
3.43,-8.53085,8.111171,-3.9011648,-2.7622428,-1.8872647,1.5853318
3.432,-8.601154,8.017485,-3.8438623,-2.7732983,-1.9603586,1.5247602
3.434,-8.67168,7.9252286,-3.7844398,-2.7806137,-2.024187,1.4659098
3.436,-8.743098,7.834668,-3.7232585,-2.784401,-2.0789218,1.408845
3.438,-8.815538,7.746011,-3.6607687,-2.7848694,-2.1248188,1.3536648
3.44,-8.889367,7.6596785,-3.5973954,-2.7822227,-2.1621912,1.3004874
3.442,-8.964644,7.5758862,-3.5336556,-2.776671,-2.1914113,1.2494547
3.444,-9.041524,7.495016,-3.4697423,-2.7683997,-2.2128649,1.2007533
3.446,-9.119959,7.417435,-3.406032,-2.7575788,-2.2269678,1.154556
3.448,-9.199886,7.343371,-3.3426826,-2.7443566,-2.234139,1.1110147
3.45,-9.281235,7.2732415,-3.28017,-2.7288632,-2.2347994,1.0702487
3.452,-9.363969,7.2074,-3.218608,-2.711205,-2.2293656,1.032313
3.454,-9.447672,7.145915,-3.1582046,-2.691482,-2.218237,0.99715817
3.456,-9.532185,7.0890245,-3.0991118,-2.6698015,-2.2018044,0.96463025
3.458,-9.617058,7.0368986,-3.0415385,-2.6462638,-2.1804342,0.9344784
3.46,-9.701953,6.98939,-2.9856043,-2.6209867,-2.1544814,0.90636504
3.462,-9.786471,6.946728,-2.9314232,-2.5941048,-2.1243033,0.8798624
3.464,-9.870157,6.90857,-2.8790622,-2.5657635,-2.0902224,0.85449314
3.466,-9.952475,6.8748474,-2.8286514,-2.5361288,-2.0525703,0.82974696
3.468,-10.03307,6.8454537,-2.7802215,-2.5053697,-2.011669,0.8051319
3.47,-10.111317,6.8199396,-2.7338462,-2.473667,-1.9678025,0.780203
3.472,-10.186915,6.7980776,-2.6896014,-2.4411945,-1.9212314,0.7545811
3.474,-10.259398,6.77953,-2.6476274,-2.4081116,-1.8721994,0.72797203
