Time_s_,Acc_x_m_s_2_,Acc_y_m_s_2_,Acc_z_m_s_2_,Gyro_x_1_s_,Gyro_y_1_s_,Gyro_z_1_s_
0,-0.7054696,0.60942155,0.77015376,0.25249723,1.1548939,0.1166113
0.002,-0.6950559,0.61448103,0.77939796,0.2581467,1.1553615,0.11578265
0.004,-0.6842244,0.6196738,0.7903312,0.26447028,1.1557537,0.114830256
0.006,-0.6729814,0.6250855,0.802949,0.2715358,1.1560651,0.1137262
0.008,-0.66120565,0.6305409,0.8172868,0.27939573,1.1562955,0.11246909
0.01,-0.6491178,0.6361577,0.8335915,0.288078,1.1564782,0.11104992
0.012,-0.6366237,0.64176834,0.85187835,0.29762352,1.156688,0.109479666
0.014,-0.6239351,0.6475509,0.8723781,0.30804056,1.1570075,0.10779005
0.016,-0.6111228,0.6535261,0.8953412,0.31930205,1.1575487,0.10600799
0.018,-0.5983342,0.65971977,0.9207809,0.3313638,1.1584404,0.10417701
0.02,-0.5856281,0.6661408,0.9487201,0.3441574,1.1598318,0.10234475
0.022,-0.57325965,0.6728823,0.97919834,0.35758615,1.1618782,0.10056707
0.024,-0.5611836,0.67993325,1.012146,0.37155548,1.1647199,0.09889683
0.026,-0.54978263,0.68733567,1.0474682,0.38595062,1.1684527,0.09738897
0.028,-0.53909886,0.695107,1.0849408,0.4009756,1.1731914,0.096046224
0.03,-0.5293661,0.7032974,1.124422,0.4160794,1.1788454,0.09496659
0.032,-0.52080214,0.7119235,1.1655047,0.43122458,1.1854265,0.094172046
0.034,-0.5136341,0.7210902,1.2078254,0.44637117,1.1929221,0.09369807
0.036,-0.50795996,0.7307724,1.2509674,0.46148407,1.2013109,0.09357387
0.038,-0.5039511,0.74101436,1.2945911,0.47655255,1.2105987,0.09384471
0.04,-0.5017556,0.75172377,1.3381517,0.49157435,1.2208246,0.09454429
0.042,-0.5015182,0.7629152,1.3811442,0.5065767,1.2320411,0.09572396
0.044,-0.503467,0.7745358,1.4230545,0.5215796,1.2443051,0.09741473
0.046,-0.5075631,0.7866273,1.4634125,0.5366233,1.2576522,0.09964302
0.048,-0.5138935,0.7991054,1.5017465,0.55172306,1.2720683,0.10240319
0.05,-0.5225058,0.81186056,1.5375736,0.56688786,1.2874756,0.10565311
0.052,-0.53333765,0.82490903,1.5705345,0.5821166,1.3037403,0.10930112
0.054,-0.54632115,0.83813477,1.6002388,0.5973858,1.32064,0.113242984
0.056,-0.56108403,0.851748,1.6269661,0.61267984,1.3379154,0.11734548
0.058,-0.5779476,0.86519086,1.6497786,0.62797046,1.3552577,0.12146649
0.06,-0.596616,0.87835443,1.668694,0.6432275,1.3723533,0.12545604
0.062,-0.6170794,0.89106727,1.6835717,0.6584304,1.3889217,0.12916854
0.064,-0.63915724,0.90319914,1.6945772,0.67356896,1.4047136,0.1324631
0.066,-0.6625829,0.9145639,1.7018479,0.6886147,1.4195321,0.13520902
0.068,-0.6872973,0.9252146,1.7055653,0.7035537,1.4332607,0.1373041
0.07,-0.71313745,0.9350022,1.7061194,0.7183863,1.4458462,0.13867089
0.072,-0.7399613,0.94375795,1.703716,0.73311603,1.4573009,0.1392583
0.074,-0.76750875,0.9513969,1.6986398,0.74775004,1.4676406,0.13901666
0.076,-0.79595184,0.95790124,1.6912934,0.76229537,1.4768827,0.13789028
0.078,-0.82504994,0.9632577,1.6821923,0.7767553,1.4850435,0.13584995
0.08,-0.8547377,0.96745336,1.6717974,0.79115504,1.4921458,0.13287282
0.082,-0.88509244,0.9704561,1.6605449,0.80552053,1.4982144,0.12896153
0.084,-0.9160914,0.9723352,1.6489558,0.81988966,1.5032566,0.12413287
0.086,-0.94763917,0.9730222,1.6375306,0.834301,1.5072547,0.11843872
0.088,-0.9797089,0.9725156,1.6267604,0.8487874,1.5101814,0.1119442
0.09,-1.0124187,0.97097325,1.6170409,0.8633784,1.5120108,0.10474205
0.092,-1.0457795,0.96859187,1.6089232,0.87807584,1.5127094,0.09694663
0.094,-1.079823,0.9654181,1.6026717,0.8928771,1.5122566,0.088689744
0.096,-1.1143162,0.9615121,1.5987177,0.90776026,1.5106372,0.080105335
0.098,-1.1493825,0.95713663,1.5973471,0.92269766,1.5078566,0.07131708
0.1,-1.1848861,0.9523047,1.598813,0.937642,1.5039449,0.06243664
0.102,-1.2208099,0.9471925,1.6032026,0.95256543,1.4989479,0.053554773
0.104,-1.2568954,0.9418287,1.6107662,0.96744204,1.4929438,0.044754386
0.106,-1.2930768,0.9364081,1.621539,0.9822612,1.4860173,0.036083758
0.108,-1.3292618,0.93093467,1.6355402,0.99703646,1.4782856,0.02754891
0.11,-1.3644179,0.9252029,1.6528018,1.011778,1.4698665,0.019142926
0.112,-1.4003003,0.9197934,1.6732608,1.0265198,1.460912,0.010842323
0.114,-1.4356346,0.91448176,1.696761,1.041297,1.4515464,0.002630055
0.116,-1.4701427,0.9092375,1.7232568,1.0561404,1.4418966,-0.005533576
0.118,-1.5036556,0.90411586,1.7525853,1.0710707,1.4320734,-0.013658047
0.12,-1.5357721,0.899076,1.7844484,1.0861037,1.4221666,-0.021752298
0.122,-1.5663627,0.8941733,1.8185462,1.101245,1.412217,-0.029828668
0.124,-1.5950342,0.88917077,1.8544395,1.1164798,1.4022093,-0.037889123
0.126,-1.6216029,0.88399994,1.8919401,1.1317599,1.3920579,-0.04593277
0.128,-1.6456636,0.8785882,1.9307784,1.1470361,1.3816732,-0.053955674
0.13,-1.6671342,0.8728113,1.9707993,1.1622638,1.3709321,-0.061952412
0.132,-1.6857213,0.86654425,2.011908,1.1774006,1.3597046,-0.06992173
0.134,-1.7013583,0.8596972,2.0539155,1.1924133,1.3478605,-0.07784194
0.136,-1.7136016,0.8520774,2.0967345,1.2072992,1.3352942,-0.08568883
0.138,-1.7223679,0.84362656,2.1404207,1.222072,1.3219165,-0.093421996
0.14,-1.727596,0.83420587,2.1848004,1.2367905,1.3076975,-0.10100275
0.142,-1.7290434,0.82369584,2.2299988,1.2515254,1.2926563,-0.10837239
0.144,-1.7266003,0.81201464,2.275928,1.2663747,1.2768499,-0.115460455
0.146,-1.7202564,0.7991167,2.3226168,1.2814204,1.2603548,-0.122220755
0.148,-1.7098745,0.7848911,2.369873,1.2967441,1.2432727,-0.12859744
0.15,-1.6954726,0.7693929,2.4177778,1.3124038,1.2256951,-0.13457894
0.152,-1.6770086,0.7526649,2.4662602,1.3284397,1.2077202,-0.14014351
0.154,-1.65462,0.73473316,2.5153215,1.344872,1.1894413,-0.14529103
0.156,-1.6282854,0.7154982,2.5648324,1.3616983,1.1709404,-0.15005964
0.158,-1.5982705,0.6951469,2.614627,1.3788831,1.1522777,-0.15451765
0.16,-1.5646116,0.6738162,2.6646228,1.396395,1.1335138,-0.15873373
0.162,-1.5275846,0.6515892,2.7145674,1.4141883,1.1146882,-0.16279274
0.164,-1.4875289,0.6286793,2.7643268,1.4322181,1.0958271,-0.16678941
0.166,-1.4447092,0.6052499,2.8136444,1.4504313,1.0769371,-0.17082351
0.168,-1.3993274,0.58152425,2.8622916,1.4687781,1.0580106,-0.17498863
0.17,-1.3517895,0.5577449,2.9098697,1.487197,1.039022,-0.17939657
0.172,-1.3021852,0.53413755,2.956151,1.5056428,1.0199474,-0.1841417
0.174,-1.2510144,0.51091677,3.0007234,1.5240387,1.000748,-0.18931144
0.176,-1.1985062,0.48828933,3.0432174,1.5423269,0.9814026,-0.19497049
0.178,-1.1450907,0.4662655,3.0835278,1.5604565,0.9619074,-0.20113921
0.18,-1.091183,0.445114,3.1213,1.5784043,0.9422865,-0.20782143
0.182,-1.0371902,0.42505288,3.1562412,1.5961552,0.9225805,-0.21496058
0.184,-0.98354554,0.40611446,3.1883056,1.6137071,0.90287966,-0.22247607
0.186,-0.9303746,0.3883685,3.217184,1.6310866,0.8832959,-0.23026156
0.188,-0.8781382,0.37196374,3.2425945,1.6483467,0.8640049,-0.23819149
0.19,-0.82699895,0.35676163,3.2643867,1.6655585,0.8452287,-0.24612749
0.192,-0.7773473,0.3428223,3.2824237,1.6828212,0.8272635,-0.25391513
0.194,-0.72946393,0.33007747,3.2966514,1.7002494,0.8104133,-0.26140696
0.196,-0.68351614,0.31850392,3.3070078,1.7179497,0.79498446,-0.268484
0.198,-0.639919,0.3080883,3.3134096,1.7360034,0.7812672,-0.27504522
0.2,-0.5986512,0.29868454,3.3158402,1.754499,0.7695271,-0.28099692
0.202,-0.5597224,0.29007155,3.3141809,1.7734892,0.7599598,-0.2862879
0.204,-0.52320546,0.28210777,3.308482,1.7929864,0.75266945,-0.29088056
0.206,-0.48926955,0.27461427,3.2987995,1.8129528,0.74763906,-0.2947557
0.208,-0.45774448,0.26738226,3.2851996,1.8333153,0.7447405,-0.29790092
0.21,-0.4285167,0.26026434,3.267928,1.8539677,0.7437568,-0.30031502
0.212,-0.4015711,0.25320023,3.247128,1.874795,0.7443461,-0.30199462
0.214,-0.37686294,0.24607593,3.2230453,1.8956537,0.7461039,-0.3029384
0.216,-0.354015,0.23865223,3.1959462,1.9164164,0.7485546,-0.30317724
0.218,-0.33287448,0.2308355,3.166129,1.9369577,0.75121963,-0.30275255
0.22,-0.31314844,0.22241521,3.1338596,1.957192,0.753629,-0.30173087
0.222,-0.29466408,0.21341103,3.0993404,1.9770441,0.7553748,-0.30019438
0.224,-0.27704608,0.2036565,3.0628235,1.996484,0.75610054,-0.29823703
0.226,-0.26014954,0.1930409,3.0245032,2.015492,0.7555057,-0.29598796
0.228,-0.24373597,0.18159294,2.9846208,2.0340843,0.7533571,-0.29358178
0.23,-0.2274949,0.1692,2.943438,2.052258,0.74947226,-0.29114968
0.232,-0.21102738,0.15583163,2.9013817,2.0700278,0.7436801,-0.28881443
0.234,-0.19408745,0.1413886,2.8587036,2.0873919,0.7358254,-0.28668094
0.236,-0.1762383,0.12586531,2.8154924,2.104342,0.72577107,-0.28482443
0.238,-0.1574747,0.10921538,2.7720823,2.1208777,0.7133783,-0.28327036
0.24,-0.1374138,0.09155634,2.7287612,2.136971,0.6985035,-0.2820415
0.242,-0.11576623,0.072728336,2.6857488,2.1525724,0.6809768,-0.28112596
0.244,-0.092274636,0.052761316,2.6434398,2.1676226,0.6606321,-0.2804892
0.246,-0.066845566,0.031680226,2.6021607,2.1820598,0.637332,-0.28012735
0.248,-0.039227515,0.009444296,2.5621214,2.1958354,0.6110047,-0.28003216
0.25,-0.00918749,-0.013818443,2.5236146,2.2089422,0.581607,-0.2802257
0.252,0.023413628,-0.037948012,2.4870038,2.221382,0.54917556,-0.2807536
0.254,0.05896771,-0.06344354,2.4529045,2.2331758,0.5138117,-0.28167194
0.256,0.09752655,-0.09069079,2.421321,2.2443833,0.4756834,-0.28304577
0.258,0.13919622,-0.11934638,2.3925288,2.2550836,0.4350161,-0.28494883
0.26,0.18407865,-0.14938232,2.3669288,2.2653794,0.39209205,-0.28745928
0.262,0.23230639,-0.18089208,2.3446996,2.2753897,0.34725726,-0.29064035
0.264,0.28406927,-0.21396631,2.326048,2.2852325,0.30089152,-0.29452854
0.266,0.3392718,-0.24863788,2.3111186,2.2950141,0.2534306,-0.2991304
0.268,0.398138,-0.28498796,2.299951,2.3048131,0.20530146,-0.30444306
0.27,0.46050256,-0.3230195,2.2925887,2.3146873,0.15696019,-0.31042925
0.272,0.5263815,-0.36276543,2.2890577,2.3246868,0.10881221,-0.31704673
0.274,0.5958934,-0.40424618,2.2892854,2.3348339,0.06123519,-0.32423156
0.276,0.6689904,-0.44762978,2.2929924,2.3451495,0.014569879,-0.33191967
0.278,0.74553347,-0.49304157,2.3000267,2.3556614,-0.030894995,-0.34002116
0.28,0.82524157,-0.54042196,2.3100767,2.366427,-0.07489544,-0.34846744
0.282,0.90804464,-0.5898818,2.3228314,2.377523,-0.11722648,-0.35723084
0.284,0.99369836,-0.64141816,2.3380246,2.3890004,-0.1577251,-0.36627585
0.286,1.081952,-0.6949965,2.3553426,2.4009242,-0.19627053,-0.37550956
0.288,1.172862,-0.7506667,2.374355,2.413363,-0.23282349,-0.38486007
0.29,1.2659922,-0.80844086,2.3947535,2.426375,-0.2673921,-0.39430454
0.292,1.3610587,-0.8682525,2.4161181,2.4399772,-0.30000955,-0.40385905
0.294,1.4577444,-0.9301379,2.4380038,2.4541774,-0.33072817,-0.41353285
0.296,1.5558097,-0.9941061,2.4600115,2.4689486,-0.35963643,-0.4233342
0.298,1.6549554,-1.0601885,2.481848,2.484209,-0.3868479,-0.43325007
0.3,1.7549071,-1.1280991,2.503228,2.4998424,-0.41253144,-0.44323283
0.302,1.8553898,-1.1978648,2.5238004,2.5157228,-0.4368527,-0.4532106
0.304,1.9561716,-1.2693436,2.5432196,2.5317287,-0.45992237,-0.46308154
0.306,2.056837,-1.3423808,2.5613465,2.547789,-0.48184627,-0.4727107
0.308,2.1572762,-1.4168195,2.5778937,2.563861,-0.5027078,-0.48195344
0.31,2.2573009,-1.4926109,2.592562,2.5799499,-0.5225836,-0.49067897
0.312,2.356517,-1.569459,2.6052322,2.5961213,-0.5415525,-0.49878114
0.314,2.4547324,-1.6472201,2.6156445,2.6124744,-0.55970025,-0.5062262
0.316,2.5517638,-1.72557,2.6236258,2.629113,-0.5771599,-0.51304805
0.318,2.6473567,-1.8043599,2.629061,2.6461573,-0.5940631,-0.51933503
0.32,2.7412705,-1.8832864,2.6317458,2.6637166,-0.61056745,-0.52522665
0.322,2.8332784,-1.9620662,2.631562,2.681895,-0.6268027,-0.5308546
0.324,2.9232829,-2.0404658,2.6283677,2.7007713,-0.6428883,-0.5363161
0.326,3.0111134,-2.1180959,2.6218612,2.7203941,-0.6589024,-0.5416724
0.328,3.0968778,-2.1947508,2.6121228,2.7408075,-0.6749015,-0.5469323
0.33,3.180336,-2.2701151,2.599114,2.7620382,-0.6909168,-0.5520291
0.332,3.261561,-2.3440764,2.5827541,2.7840784,-0.70695066,-0.5568381
0.334,3.3403983,-2.4163833,2.5631926,2.8069007,-0.7230313,-0.5612002
0.336,3.4168406,-2.4868486,2.540513,2.830435,-0.73923707,-0.564927
0.338,3.4911761,-2.5554602,2.5149,2.8545926,-0.75573885,-0.5678932
0.34,3.563619,-2.6223052,2.4865475,2.8791826,-0.7728035,-0.57007354
0.342,3.6341488,-2.687389,2.4558136,2.9039454,-0.7908043,-0.57145417
0.344,3.7032301,-2.7509027,2.4233155,2.928584,-0.81025565,-0.5720586
0.346,3.770566,-2.8128457,2.3894808,2.9527698,-0.8318059,-0.5719753
0.348,3.8376267,-2.8736603,2.354514,2.9761398,-0.85619116,-0.5713699
0.35,3.9044178,-2.9337788,2.319039,2.9983542,-0.8841725,-0.5704693
0.352,3.971249,-2.9934487,2.2835817,3.0191054,-0.9165146,-0.5695617
0.354,4.038431,-3.0531924,2.2490098,3.0381193,-0.95394766,-0.5689159
0.356,4.106349,-3.113339,2.2156863,3.0551941,-0.9970946,-0.5687993
0.358,4.175683,-3.1743119,2.1840115,3.0702128,-1.0464358,-0.56944364
0.36,4.2471976,-3.2366993,2.154521,3.0831432,-1.1022736,-0.5710349
0.362,4.3211727,-3.3008869,2.1276872,3.0940409,-1.1647171,-0.5737064
0.364,4.3977857,-3.3667781,2.1038413,3.1030314,-1.2336957,-0.5774952
0.366,4.477669,-3.434469,2.0834684,3.1102855,-1.3089938,-0.5823498
0.368,4.561361,-3.5047092,2.066508,3.1160302,-1.390276,-0.58813375
0.37,4.6492977,-3.5778573,2.0525098,3.1205163,-1.477114,-0.5946675
0.372,4.741991,-3.654034,2.0411997,3.124014,-1.5690769,-0.60173184
0.374,4.8400726,-3.733324,2.031778,3.126791,-1.6657333,-0.60910076
0.376,4.944016,-3.8155987,2.0234663,3.129055,-1.7666508,-0.6166493
0.378,5.054433,-3.9009457,2.0154636,3.1310015,-1.8714719,-0.6242821
0.38,5.171671,-3.9893444,2.0067065,3.1327896,-1.9799521,-0.63190967
0.382,5.296041,-4.0805926,1.9960148,3.1345313,-2.0919087,-0.6395537
0.384,5.4279885,-4.174365,1.9822005,3.1363122,-2.2072299,-0.6472952
0.386,5.5680995,-4.2703476,1.9644957,3.1382034,-2.3258076,-0.65523416
0.388,5.7165136,-4.3679485,1.942347,3.14025,-2.447558,-0.66346115
0.39,5.872597,-4.466397,1.913783,3.1424696,-2.5724564,-0.6720746
0.392,6.036727,-4.5650563,1.8766361,3.1448286,-2.7005436,-0.6811304
0.394,6.2111487,-4.664243,1.8296497,3.1472738,-2.8318474,-0.69064236
0.396,6.396437,-4.7635326,1.7721992,3.149725,-2.9664114,-0.7005602
0.398,6.592256,-4.862008,1.7039694,3.1520503,-3.1043346,-0.71077526
0.4,6.7977285,-4.9588614,1.6247878,3.1541038,-3.2457228,-0.7211373
0.402,7.013725,-5.054228,1.5344008,3.1557837,-3.3906467,-0.73147076
0.404,7.241026,-5.147996,1.4323337,3.157023,-3.5391493,-0.74161696
0.406,7.480329,-5.239818,1.318568,3.1578026,-3.6912103,-0.75146806
0.408,7.733,-5.330109,1.194248,3.1581488,-3.846747,-0.76101214
0.41,7.9982333,-5.4185305,1.0603597,3.1581364,-4.005638,-0.7703175
0.412,8.27586,-5.505089,0.9194172,3.157886,-4.167658,-0.77954805
0.414,8.565918,-5.5898924,0.77394456,3.1575649,-4.3324623,-0.7889539
0.416,8.867855,-5.6724815,0.6258321,3.157352,-4.4996734,-0.7988219
0.418,9.181653,-5.7524714,0.47739276,3.1574197,-4.6688557,-0.80950534
0.42,9.506953,-5.8297515,0.33133054,3.1580558,-4.8392763,-0.8212942
0.422,9.842967,-5.904362,0.19046858,3.1596377,-5.009965,-0.83434284
0.424,10.188946,-5.9761753,0.057862908,3.1625352,-5.179923,-0.84868383
0.426,10.543708,-6.045304,-0.06319478,3.1671374,-5.3480444,-0.86426115
0.428,10.905702,-6.111437,-0.16927119,3.1738691,-5.513045,-0.8809544
0.43,11.273344,-6.174375,-0.25705856,3.1832566,-5.673416,-0.89846647
0.432,11.644798,-6.234136,-0.32318464,3.1959157,-5.8272095,-0.91632813
0.434,12.018216,-6.290492,-0.36445516,3.2126284,-5.9720087,-0.9338828
0.436,12.391268,-6.343171,-0.37771112,3.2342005,-6.105364,-0.95040894
0.438,12.761536,-6.391694,-0.36040986,3.2614446,-6.224793,-0.9651622
0.44,13.12627,-6.435557,-0.31010056,3.2950993,-6.3278384,-0.97738916
0.442,13.482349,-6.4739485,-0.22458631,3.335752,-6.412296,-0.9863107
0.444,13.826712,-6.5060344,-0.10223544,3.3838222,-6.4760647,-0.9910321
0.446,14.156084,-6.5309453,0.05822581,3.4395165,-6.5172205,-0.99067545
0.448,14.466889,-6.5477686,0.25726616,3.50272,-6.5342627,-0.9844452
0.45,14.755413,-6.555428,0.49462485,3.5730705,-6.5260077,-0.9716114
0.452,15.018056,-6.5528927,0.7692612,3.6500256,-6.4914713,-0.9514657
0.454,15.250693,-6.538864,1.0792098,3.7329373,-6.42984,-0.92329335
0.456,15.449678,-6.5122194,1.4222673,3.8210907,-6.3404217,-0.88639
0.458,15.610094,-6.471341,1.7958422,3.913808,-6.222556,-0.8400469
0.46,15.728201,-6.4150767,2.1965084,4.0105047,-6.075734,-0.7836249
0.462,15.800179,-6.3423133,2.6207197,4.1106944,-5.8996606,-0.7166097
0.464,15.822155,-6.252107,3.0643158,4.213939,-5.69444,-0.6386819
0.466,15.790495,-6.144,3.5234165,4.3197823,-5.4608245,-0.54981226
0.468,15.701705,-6.0177064,3.9938657,4.4276876,-5.2003794,-0.45034504
0.47,15.552721,-5.8728356,4.4713078,4.536996,-4.915592,-0.34101748
0.472,15.341531,-5.7093987,4.951381,4.6468706,-4.609958,-0.22296882
0.474,15.066489,-5.5275292,5.430202,4.756206,-4.288154,-0.09780204
0.476,14.726513,-5.327631,5.9045844,4.86375,-3.955668,0.032509685
0.478,14.321444,-5.110472,6.371842,4.968286,-3.6183484,0.16581574
0.48,13.852157,-4.8771305,6.8296943,5.068625,-3.2822187,0.2999003
0.482,13.320639,-4.629212,7.27608,5.1636834,-2.9532394,0.4326349
0.484,12.729622,-4.36853,7.7094975,5.252535,-2.63698,0.56204957
0.486,12.083024,-4.0972204,8.1286955,5.3344207,-2.3383214,0.68634856
0.488,11.385469,-3.8173666,8.532668,5.408829,-2.061131,0.80406725
0.49,10.642672,-3.531386,8.920611,5.4755936,-1.8078586,0.9142847
0.492,9.861049,-3.2418847,9.292072,5.5347786,-1.579718,1.0164956
0.494,9.047361,-2.95152,9.646772,5.5866413,-1.3768373,1.1105616
0.496,8.208978,-2.662888,9.98415,5.6316004,-1.1982954,1.1966598
0.498,7.3546124,-2.3788974,10.303421,5.670112,-1.0425441,1.2751913
0.5,6.4933457,-2.1024573,10.604941,5.702671,-0.9075879,1.346803
0.502,5.633537,-1.8358092,10.888579,5.7297935,-0.7910592,1.4123288
0.504,4.7823853,-1.580534,11.152992,5.75199,-0.6905451,1.4726062
0.506,3.948986,-1.338933,11.396231,5.7697062,-0.6037701,1.5283648
0.508,3.1426198,-1.1132681,11.616474,5.7833548,-0.52875006,1.5802135
0.51,2.3726766,-0.9054508,11.811947,5.793293,-0.4639411,1.6286136
0.512,1.6457243,-0.71626234,11.981105,5.7997947,-0.408301,1.6738998
0.514,0.96822333,-0.5465789,12.122809,5.803074,-0.3612417,1.7163296
0.516,0.3462727,-0.3975129,12.235565,5.80327,-0.32259995,1.7560897
0.518,-0.21533108,-0.2689762,12.317292,5.8004947,-0.29256022,1.7933326
0.52,-0.71079254,-0.16164207,12.36669,5.794785,-0.27158612,1.8282433
0.522,-1.1364772,-0.075120926,12.381885,5.7861333,-0.26032788,1.8610482
0.524,-1.4901359,-0.008780003,12.362039,5.77452,-0.25950983,1.8920131
0.526,-1.7703502,0.03805542,12.307802,5.7599387,-0.26973087,1.9214368
0.528,-1.9775847,0.066811085,12.22001,5.7424765,-0.2913217,1.9496574
0.53,-2.1132128,0.07962942,12.0997305,5.7222743,-0.32428,1.9770205
0.532,-2.1792054,0.07881069,11.948637,5.6995845,-0.3682357,2.0038338
0.534,-2.179,0.06699133,11.768848,5.674785,-0.42237875,2.030377
0.536,-2.1168883,0.04704666,11.56266,5.648372,-0.48541093,2.0569174
0.538,-1.9978626,0.021717548,11.332846,5.6209526,-0.55558515,2.083693
0.54,-1.827842,-0.0061044693,11.0826025,5.593201,-0.63086635,2.1109648
0.542,-1.6136894,-0.033246517,10.815317,5.565787,-0.7090279,2.1390429
0.544,-1.3628764,-0.05668688,10.534609,5.5393276,-0.7878538,2.1682658
0.546,-1.0831568,-0.07350588,10.244293,5.5143247,-0.86527854,2.1989634
0.548,-0.7824304,-0.08104205,9.948078,5.491129,-0.93952286,2.2314355
0.55,-0.46841764,-0.07686663,9.649644,5.469877,-1.0092479,2.2659209
0.552,-0.14902663,-0.058888197,9.352558,5.450504,-1.0736026,2.3025465
0.554,0.16826272,-0.02543211,9.060167,5.4327407,-1.1322445,2.3413482
0.556,0.4761343,0.024904013,8.7759075,5.4161367,-1.1853356,2.3821998
0.558,0.76779056,0.09308481,8.503143,5.4000998,-1.2335266,2.4248214
0.56,1.0369346,0.17976952,8.245018,5.383953,-1.2779076,2.4687932
0.562,1.2782023,0.28503847,8.004364,5.366981,-1.3198655,2.5135596
0.564,1.4871969,0.40870094,7.783613,5.348494,-1.3609322,2.558481
0.566,1.6602411,0.5500753,7.584697,5.3278704,-1.4026866,2.602878
0.568,1.7942755,0.7084179,7.4090414,5.304574,-1.4466377,2.6460752
0.57,1.8874528,0.8828249,7.2573957,5.2782106,-1.4941486,2.6874695
0.572,1.9384725,1.0720938,7.1302843,5.248531,-1.5463436,2.7265353
0.574,1.947123,1.2750448,7.027817,5.2154765,-1.604037,2.7628636
0.576,1.9137176,1.4904038,6.9499164,5.179169,-1.6677542,2.7961612
0.578,1.8393021,1.7168173,6.8962307,5.1398253,-1.7377313,2.8262634
0.58,1.7259095,1.9524893,6.8660464,5.097772,-1.8140255,2.8531003
0.582,1.5759192,2.1956346,6.858163,5.0533586,-1.8965207,2.8766787
0.584,1.3926543,2.4444838,6.8708687,5.006989,-1.9849684,2.897112
0.586,1.1798757,2.6972907,6.901925,4.959044,-2.0790057,2.9145484
0.588,0.9419124,2.9524093,6.948838,4.9098716,-2.178234,2.9291444
0.59,0.68334436,3.20817,7.008776,4.8597455,-2.2823234,2.941025
0.592,0.4082837,3.4632506,7.0789943,4.8088694,-2.391066,2.950262
0.594,0.12102795,3.7165039,7.15681,4.757393,-2.5043383,2.956833
0.596,-0.17414093,3.9666471,7.2397504,4.7054543,-2.6220994,2.960581
0.598,-0.47254348,4.212396,7.3252573,4.653206,-2.7443078,2.9612098
0.6,-0.76960135,4.4524527,7.4111195,4.600811,-2.870925,2.9583566
0.602,-1.0611563,4.6856728,7.495181,4.54847,-3.0019178,2.951611
0.604,-1.3430891,4.9109836,7.575248,4.496395,-3.1371622,2.9405918
0.606,-1.6117535,5.1275153,7.649096,4.444832,-3.276369,2.9249887
0.608,-1.8638561,5.3345633,7.7146273,4.394057,-3.4190266,2.9046187
0.61,-2.0963264,5.5315356,7.770195,4.3443966,-3.5643187,2.8795195
0.612,-2.306784,5.7179923,7.8143477,4.2961884,-3.711173,2.849934
0.614,-2.4932194,5.893721,7.8459496,4.2497873,-3.8583171,2.816311
0.616,-2.6540065,6.058668,7.8642592,4.20554,-4.0043178,2.779259
0.618,-2.7882385,6.212942,7.8688865,4.163827,-4.147623,2.7394838
0.62,-2.8956072,6.356942,7.8600345,4.1249766,-4.286697,2.6977239
0.622,-2.9763281,6.4912276,7.8384023,4.0892005,-4.4202147,2.6547394
0.624,-3.0311654,6.6164303,7.804946,4.056604,-4.547155,2.6112404
0.626,-3.061586,6.733651,7.760867,4.0271726,-4.6668015,2.56785
0.628,-3.0689466,6.843616,7.707537,4.0007944,-4.7787633,2.5250273
0.63,-3.0553803,6.947396,7.646615,3.9772522,-4.8829527,2.4830585
0.632,-3.0232677,7.046008,7.5799513,3.9562721,-4.9795423,2.4420433
0.634,-2.9754195,7.1406326,7.509385,3.93756,-5.0688677,2.4019356
0.636,-2.9147134,7.2321,7.4368105,3.920842,-5.1513333,2.3625424
0.638,-2.8442822,7.3215017,7.364149,3.9059033,-5.227325,2.323543
0.64,-2.767504,7.4096794,7.293496,3.8926237,-5.2971425,2.284576
0.642,-2.6879485,7.497477,7.2266464,3.8809998,-5.3608875,2.2453043
0.644,-2.6094043,7.5855613,7.165484,3.8711321,-5.4183884,2.205473
0.646,-2.5356894,7.6745195,7.1117234,3.8632061,-5.4692125,2.165002
0.648,-2.470671,7.764851,7.0668526,3.857449,-5.5126987,2.1240425
0.65,-2.4181771,7.857071,7.032114,3.8540733,-5.54799,2.082979
0.652,-2.381116,7.9513965,7.0083933,3.853287,-5.5741453,2.0424094
0.654,-2.3624165,8.047824,6.99614,3.855234,-5.590187,2.003034
0.656,-2.3643565,8.146384,6.9953547,3.8600087,-5.5952234,1.9655619
0.658,-2.3891075,8.246959,7.0059724,3.867652,-5.588571,1.9306021
0.66,-2.438254,8.349333,7.0275197,3.878134,-5.5698633,1.8986025
0.662,-2.5128276,8.453392,7.0592766,3.891376,-5.539111,1.8697616
0.664,-2.6134958,8.558908,7.100312,3.9072795,-5.4966774,1.8440015
0.666,-2.7404451,8.665855,7.149223,3.9257455,-5.443234,1.8210335
0.668,-2.8931203,8.773968,7.204426,3.9466743,-5.3796945,1.8003924
0.67,-3.0702417,8.882965,7.264524,3.9699883,-5.3071685,1.7815254
0.672,-3.270189,8.992601,7.328028,3.9955842,-5.2268987,1.7638923
0.674,-3.4908946,9.102484,7.393716,4.0233693,-5.140141,1.7470177
0.676,-3.7298808,9.212375,7.4603424,4.053232,-5.0481462,1.7305341
0.678,-3.9841814,9.3220005,7.52669,4.0849934,-4.952214,1.7141743
0.68,-4.250409,9.4312105,7.5916715,4.118405,-4.853703,1.6977706
0.682,-4.525061,9.539861,7.654187,4.153133,-4.7540793,1.6812122
0.684,-4.8047867,9.647917,7.7136755,4.1887894,-4.654872,1.6643807
0.686,-5.0857463,9.755192,7.769373,4.2249436,-4.557655,1.6471052
0.688,-5.364358,9.861478,7.8209033,4.2611327,-4.4639664,1.6291466
0.69,-5.6374483,9.966747,7.8680115,4.296943,-4.37518,1.610197
0.692,-5.901429,10.070847,7.910825,4.332002,-4.292389,1.5899134
0.694,-6.153185,10.173502,7.949315,4.3660374,-4.216312,1.5679748
0.696,-6.389684,10.274471,7.9836454,4.398877,-4.1472635,1.5441118
0.698,-6.6083684,10.373367,8.013799,4.430474,-4.085112,1.5181475
0.7,-6.806671,10.469992,8.039588,4.4608803,-4.0293007,1.489988
0.702,-6.982035,10.563843,8.060625,4.490204,-3.9789736,1.4596361
0.704,-7.132003,10.654383,8.076328,4.5185866,-3.9330697,1.4271777
0.706,-7.2549543,10.741145,8.086004,4.5461273,-3.890444,1.3927555
0.708,-7.3499618,10.823774,8.088969,4.572909,-3.8499935,1.3565476
0.71,-7.4163556,10.902116,8.084482,4.598939,-3.8107176,1.3187287
0.712,-7.454048,10.9759,8.072001,4.624169,-3.7718287,1.279446
0.714,-7.4634314,11.044828,8.051322,4.648497,-3.7327833,1.2387886
0.716,-7.4451704,11.108807,8.022594,4.671767,-3.6933105,1.1968058
0.718,-7.4006796,11.167517,7.986063,4.693766,-3.6533964,1.1535022
0.72,-7.331567,11.221131,7.942082,4.714285,-3.6132731,1.1088357
0.722,-7.2399592,11.269789,7.8910584,4.733103,-3.5733387,1.0627477
0.724,-7.128048,11.31394,7.833567,4.7500124,-3.5341394,1.015162
0.726,-6.9983664,11.35413,7.770495,4.764847,-3.4962845,0.9659964
0.728,-6.853523,11.391008,7.7026787,4.7774763,-3.4603636,0.915173
0.73,-6.696562,11.425274,7.6311784,4.7878394,-3.4268367,0.862641
0.732,-6.5304193,11.457644,7.557151,4.795907,-3.3960001,0.8083864
0.734,-6.3583694,11.489087,7.482025,4.801688,-3.3679736,0.7524788
0.736,-6.1837554,11.52042,7.4077272,4.8052354,-3.342637,0.69506663
0.738,-6.0103416,11.552787,7.3364205,4.8066335,-3.3196387,0.6363872
0.74,-5.8414855,11.58689,7.2703104,4.8059764,-3.298446,0.57677114
0.742,-5.680324,11.623512,7.2114286,4.8033614,-3.278365,0.51660424
0.744,-5.530038,11.66353,7.161811,4.7988625,-3.2586436,0.45632702
0.746,-5.3933797,11.707593,7.1232233,4.792538,-3.2385151,0.3963952
0.748,-5.272846,11.756369,7.097059,4.784407,-3.2172606,0.3372231
0.75,-5.170705,11.810563,7.0842285,4.774488,-3.1942391,0.2791437
0.752,-5.0880613,11.870467,7.085104,4.762815,-3.1689396,0.22236645
0.754,-5.0258856,11.936432,7.0998898,4.749422,-3.140983,0.16698305
0.756,-4.984438,12.0084505,7.128819,4.7343974,-3.110101,0.11293614
0.758,-4.963969,12.086412,7.1717405,4.7178535,-3.076183,0.060056496
0.76,-4.963898,12.1702385,7.228085,4.699935,-3.0392208,0.008087739
0.762,-4.982616,12.25903,7.2974076,4.680782,-2.999362,-0.043222994
0.764,-5.020234,12.353265,7.378165,4.660528,-2.956936,-0.09409487
0.766,-5.0748577,12.452427,7.4695873,4.639251,-2.9124475,-0.14471784
0.768,-5.145234,12.555954,7.574506,4.6169844,-2.8665419,-0.19522518
0.77,-5.2297516,12.663062,7.6926928,4.5937147,-2.8200004,-0.24569145
0.772,-5.3257704,12.772726,7.8222046,4.5693707,-2.7737682,-0.29612646
0.774,-5.429929,12.884108,7.959546,4.5438366,-2.7288947,-0.34651333
0.776,-5.538394,12.996697,8.101844,4.516948,-2.6865191,-0.39683127
0.778,-5.64746,13.110205,8.247524,4.48855,-2.64779,-0.44710287
0.78,-5.753744,13.223637,8.395953,4.458505,-2.6137595,-0.4974076
0.782,-5.853895,13.335485,8.546694,4.42671,-2.585346,-0.54788077
0.784,-5.944886,13.444101,8.700195,4.3931074,-2.563261,-0.59871006
0.786,-6.0252724,13.548914,8.856287,4.357687,-2.5479865,-0.6500782
0.788,-6.0934954,13.649555,9.013248,4.3204784,-2.539705,-0.7021761
0.79,-6.1469793,13.7454815,9.167511,4.281519,-2.5383563,-0.7551713
0.792,-6.1823087,13.8358135,9.315461,4.2408395,-2.5437212,-0.8091984
0.794,-6.196833,13.919815,9.455839,4.198528,-2.5553885,-0.8643929
0.796,-6.1900086,13.997102,9.589104,4.154556,-2.5730498,-0.92100644
0.798,-6.1611133,14.067008,9.715102,4.108808,-2.5964541,-0.9793877
0.8,-6.1091323,14.128809,9.832859,4.0612793,-2.6250188,-1.039888
0.802,-6.034104,14.182394,9.941076,4.011875,-2.6583714,-1.1029239
0.804,-5.9366345,14.228148,10.038838,3.9604802,-2.6963165,-1.1687832
0.806,-5.817833,14.266388,10.125749,3.90709,-2.7385533,-1.23773
0.808,-5.6789055,14.29741,10.201611,3.8517792,-2.7847815,-1.3101009
0.81,-5.5215425,14.321476,10.2664795,3.7946532,-2.8343868,-1.3862224
0.812,-5.3478723,14.33893,10.3207,3.73584,-2.8865027,-1.4663212
0.814,-5.160665,14.350512,10.365044,3.6754227,-2.9401457,-1.550362
0.816,-4.962645,14.357079,10.400479,3.613541,-2.9939325,-1.6380455
0.818,-4.7567596,14.35969,10.428312,3.5504155,-3.0462794,-1.7288277
0.82,-4.5461965,14.35936,10.450024,3.4863324,-3.0955381,-1.8219204
0.822,-4.334081,14.3571005,10.467092,3.4216008,-3.140265,-1.9164618
0.824,-4.1238155,14.354225,10.48095,3.3564749,-3.1793437,-2.0117426
0.826,-3.9187827,14.351797,10.493364,3.291113,-3.2118607,-2.1072407
0.828,-3.7222638,14.351188,10.505949,3.2255678,-3.23709,-2.2025084
0.83,-3.5373192,14.353472,10.520294,3.1598086,-3.2545626,-2.297132
0.832,-3.3669763,14.359776,10.538097,3.093792,-3.2640479,-2.3907704
0.834,-3.2138677,14.370879,10.5610485,3.0275197,-3.26551,-2.4832687
0.836,-3.0806289,14.387491,10.590656,2.9610033,-3.2590508,-2.5746174
0.838,-2.9693112,14.4102745,10.628359,2.894298,-3.2448392,-2.6648538
0.84,-2.8815389,14.439658,10.675225,2.8274632,-3.2230625,-2.7540526
0.842,-2.8185253,14.47601,10.732176,2.7605615,-3.194017,-2.8423147
0.844,-2.7809114,14.519479,10.799616,2.6936488,-3.158014,-2.9297457
0.846,-2.768773,14.570026,10.877519,2.6267667,-3.1153686,-3.0165112
0.848,-2.781526,14.6273575,10.965587,2.5598886,-3.06645,-3.1028352
0.85,-2.818452,14.691484,11.063465,2.493041,-3.011547,-3.1889524
0.852,-2.8785043,14.761894,11.170599,2.4262323,-2.9510403,-3.2752023
0.854,-2.9600492,14.83791,11.2862625,2.3593302,-2.885648,-3.3620276
0.856,-3.06114,14.918817,11.409327,2.2923608,-2.8158612,-3.4498343
0.858,-3.1793194,15.00362,11.538712,2.2253656,-2.7421398,-3.5390537
0.86,-3.3118095,15.091251,11.673069,2.1583986,-2.6651459,-3.629943
0.862,-3.4561486,15.180788,11.811295,2.0915956,-2.5855863,-3.7224927
0.864,-3.6094198,15.271112,11.951934,2.0251937,-2.5043645,-3.8165221
0.866,-3.7685199,15.361227,12.093149,1.9594612,-2.422362,-3.9117608
0.868,-3.9300756,15.449937,12.233313,1.8946701,-2.3403547,-4.0079527
0.87,-4.0913343,15.53588,12.37123,1.8309193,-2.2592325,-4.1048055
0.872,-4.250423,15.618536,12.505495,1.7681752,-2.1798143,-4.201975
0.874,-4.4033885,15.69596,12.635769,1.7063198,-2.1027708,-4.2991476
0.876,-4.5483427,15.767286,12.760664,1.6451743,-2.0286286,-4.3960238
0.878,-4.6826205,15.831806,12.876058,1.5845865,-1.957761,-4.4923143
0.88,-4.8042574,15.888838,12.981836,1.5244442,-1.8905567,-4.5878816
0.882,-4.912275,15.937752,13.079199,1.4646565,-1.8273466,-4.6828294
0.884,-5.006575,15.978047,13.16994,1.4051437,-1.7682402,-4.7774153
0.886,-5.0869946,16.008562,13.25452,1.3458197,-1.7130702,-4.871842
0.888,-5.1536326,16.028606,13.331898,1.286657,-1.6614192,-4.96614
0.89,-5.206085,16.037905,13.40027,1.2277373,-1.6125981,-5.0602083
0.892,-5.2446074,16.036602,13.458157,1.1692078,-1.5657538,-5.153845
0.894,-5.2692866,16.02474,13.503742,1.1113083,-1.5198721,-5.2467794
0.896,-5.279398,16.001116,13.536282,1.0543134,-1.4738244,-5.338663
0.898,-5.2754936,15.964872,13.556487,0.998497,-1.4265339,-5.4291363
0.9,-5.259602,15.915602,13.565952,0.94410384,-1.3770521,-5.517862
0.902,-5.2343955,15.853242,13.565361,0.89132005,-1.3246058,-5.604538
0.904,-5.20152,15.777413,13.552458,0.84029967,-1.2686652,-5.688945
0.906,-5.161054,15.687863,13.524364,0.7911427,-1.208968,-5.7709613
0.908,-5.11408,15.584527,13.479572,0.7439082,-1.1455367,-5.8506002
0.91,-5.0619416,15.467345,13.417913,0.6986016,-1.0786443,-5.927957
0.912,-5.005969,15.335782,13.339782,0.655231,-1.0087845,-6.0031805
0.914,-4.9470644,15.189135,13.245438,0.61378443,-0.93657327,-6.0764112
0.916,-4.8860383,15.027115,13.134811,0.57428265,-0.86266255,-6.1477714
0.918,-4.8239784,14.849766,13.008213,0.53678125,-0.787673,-6.217374
0.92,-4.761429,14.65716,12.86606,0.5013846,-0.7121148,-6.2852855
0.922,-4.6989145,14.449454,12.708572,0.46824527,-0.6363628,-6.3515344
0.924,-4.63647,14.226657,12.535952,0.43753362,-0.56064034,-6.4160857
0.926,-4.574253,13.988956,12.348774,0.40943125,-0.48503017,-6.478861
0.928,-4.5124383,13.7368145,12.147881,0.38409445,-0.4095161,-6.53975
0.93,-4.450949,13.470837,11.934607,0.36165643,-0.33404684,-6.598663
0.932,-4.389513,13.191925,11.710622,0.34218386,-0.2586124,-6.6555195
0.934,-4.327668,12.9008255,11.477688,0.32567698,-0.18326831,-6.710265
0.936,-4.264621,12.598522,11.237446,0.31209508,-0.108163595,-6.762888
0.938,-4.199548,12.286008,10.991882,0.30132926,-0.033576965,-6.813393
0.94,-4.131192,11.964466,10.742974,0.2932136,0.040066957,-6.8618784
0.942,-4.0582314,11.635172,10.492368,0.2875569,0.11220598,-6.908481
0.944,-3.9793935,11.299591,10.2413225,0.28414822,0.18211198,-6.953409
0.946,-3.893044,10.959196,9.990938,0.28278482,0.24894571,-6.9969573
0.948,-3.7977028,10.615265,9.742147,0.28326595,0.3117652,-7.03946
0.95,-3.692138,10.269168,9.495995,0.28538835,0.36955595,-7.081337
0.952,-3.5751214,9.92211,9.253211,0.2889613,0.42129636,-7.123051
0.954,-3.4453526,9.575227,9.01481,0.2937973,0.465971,-7.1650524
0.956,-3.3019001,9.229319,8.781437,0.29970604,0.502609,-7.2078066
0.958,-3.1441228,8.885187,8.553595,0.30648917,0.53035426,-7.2517133
0.96,-2.9713256,8.543304,8.331529,0.31389785,0.54848266,-7.2971106
0.962,-2.7830007,8.204189,8.115364,0.32166868,0.55648255,-7.3442297
0.964,-2.5791593,7.868388,7.905012,0.32950902,0.55405426,-7.3932037
0.966,-2.3599033,7.5363517,7.700673,0.33705992,0.5411148,-7.444063
0.968,-2.1258833,7.2084208,7.5022535,0.34394568,0.51772404,-7.49675
0.97,-1.877848,6.884943,7.3098297,0.349768,0.48409152,-7.5511613
0.972,-1.6170917,6.566196,7.1232815,0.35413477,0.4405589,-7.607189
0.974,-1.3448265,6.2523627,6.9425673,0.35669756,0.38752818,-7.664754
0.976,-1.0630406,5.9435515,6.7678475,0.35715818,0.32546806,-7.7238207
0.978,-0.77383333,5.6401734,6.5993805,0.3552956,0.25485516,-7.784434
0.98,-0.47924495,5.3424554,6.4372034,0.35096216,0.17618322,-7.846667
0.982,-0.18138123,5.050619,6.281474,0.34410834,0.08997011,-7.9106073
0.984,0.11746299,4.7651625,6.1324015,0.33474338,-0.0032327175,-7.9763484
0.986,0.41459394,4.486516,5.990218,0.32293367,-0.10283613,-8.0439415
0.988,0.70752776,4.215234,5.855517,0.30874527,-0.20822215,-8.113368
0.99,0.9939774,3.9519358,5.7292414,0.2922514,-0.31874847,-8.184515
0.992,1.2715666,3.6971924,5.6122975,0.27351713,-0.43373322,-8.25717
0.994,1.5379894,3.4516745,5.505612,0.25259423,-0.5524914,-8.33104
0.996,1.7914704,3.2160785,5.409903,0.22951663,-0.6743467,-8.405764
0.998,2.0302691,2.991014,5.325837,0.20433569,-0.79863596,-8.480967
1,2.2527885,2.7773395,5.2541895,0.17715347,-0.92471814,-8.556263
1.002,2.4580681,2.5758991,5.1957345,0.14812338,-1.0519788,-8.631312
1.004,2.6452217,2.3876166,5.1514688,0.117486715,-1.1798453,-8.705793
1.006,2.8137717,2.2134252,5.122211,0.08555591,-1.3077769,-8.779412
1.008,2.9637187,2.0542016,5.1089573,0.05272138,-1.4352617,-8.851923
1.01,3.0949717,1.9108784,5.1127396,0.019429088,-1.5618405,-8.9231
1.012,3.208302,1.7842542,5.1341796,-0.0138762,-1.6871397,-8.992777
1.014,3.3048158,1.6751914,5.1740875,-0.046743393,-1.8109126,-9.060818
1.016,3.3857129,1.5843614,5.232991,-0.07876754,-1.9330995,-9.127143
1.018,3.4530666,1.5124116,5.3113174,-0.109583855,-2.0538282,-9.191766
1.02,3.5089731,1.4600505,5.409665,-0.13888788,-2.1734834,-9.254809
1.022,3.5562887,1.4279176,5.5285897,-0.16647935,-2.2927155,-9.316512
1.024,3.5976832,1.4166609,5.668817,-0.19224286,-2.4123833,-9.377243
1.026,3.636179,1.4269274,5.8315315,-0.21616316,-2.5335803,-9.437472
1.028,3.6747642,1.4592572,6.0177712,-0.23832798,-2.6575575,-9.497779
1.03,3.7163334,1.5138351,6.2285786,-0.25892162,-2.7856793,-9.558832
1.032,3.7639785,1.5908203,6.465124,-0.27821922,-2.9193573,-9.621344
1.034,3.8206174,1.6903597,6.728404,-0.29656672,-3.0599864,-9.68603
1.036,3.8889265,1.8124602,7.019088,-0.31438565,-3.2088559,-9.753571
1.038,3.9711952,1.9570111,7.3376513,-0.33213854,-3.3671277,-9.824558
1.04,4.069768,2.1236656,7.6843195,-0.3503368,-3.5357432,-9.89949
1.042,4.1864753,2.3120997,8.059271,-0.36951852,-3.7154005,-9.9787
1.044,4.322749,2.5217829,8.462336,-0.39022684,-3.906449,-10.062358
1.046,4.479616,2.751851,8.893261,-0.41301727,-4.1088734,-10.150427
1.048,4.65777,3.0015118,9.350877,-0.43839836,-4.3222647,-10.242685
1.05,4.8577967,3.269881,9.83362,-0.46682405,-4.545881,-10.338744
1.052,5.0794635,3.5556993,10.339996,-0.4986682,-4.778622,-10.4380665
1.054,5.3227825,3.857851,10.868234,-0.5342183,-5.0191097,-10.540003
1.056,5.5874815,4.174816,11.416491,-0.57362986,-5.26569,-10.643774
1.058,5.8729434,4.504939,11.98283,-0.61696005,-5.5165024,-10.748603
1.06,6.178504,4.846516,12.564827,-0.66414356,-5.76963,-10.85371
1.062,6.5029755,5.1979837,13.159939,-0.71509457,-6.023223,-10.958332
1.064,6.8449607,5.557566,13.76512,-0.7696986,-6.2755995,-11.061739
1.066,7.2035503,5.923532,14.377459,-0.82783127,-6.525301,-11.163282
1.068,7.577498,6.293954,14.994079,-0.88939047,-6.7711477,-11.262394
1.07,7.9656534,6.666828,15.612313,-0.9543333,-7.0122395,-11.358584
1.072,8.366622,7.040368,16.22973,-1.022644,-7.247954,-11.451425
1.074,8.779128,7.4125376,16.844088,-1.0942926,-7.4778085,-11.540556
1.076,9.20187,7.78133,17.453024,-1.1692095,-7.7013674,-11.625622
1.078,9.634092,8.144722,18.054577,-1.2472811,-7.918254,-11.706244
1.08,10.0746,8.500921,18.647133,-1.3283443,-8.128061,-11.782081
1.082,10.5227785,8.847907,19.22937,-1.4121609,-8.3302765,-11.852766
1.084,10.977837,9.184025,19.800068,-1.4983692,-8.524237,-11.917965
1.086,11.439585,9.507543,20.35834,-1.5865393,-8.709191,-11.9773445
1.088,11.907897,9.816764,20.903332,-1.6761546,-8.884301,-12.030594
1.09,12.38269,10.110231,21.43422,-1.766633,-9.048784,-12.077401
1.092,12.864465,10.386353,21.950308,-1.8573532,-9.201921,-12.117476
1.094,13.353524,10.643715,22.451265,-1.9476666,-9.343189,-12.150585
1.096,13.850936,10.880741,22.93701,-2.036963,-9.472305,-12.1766
1.098,14.357815,11.095974,23.407177,-2.1246758,-9.589298,-12.1954365
1.1,14.875496,11.288039,23.861341,-2.2102818,-9.694466,-12.207074
1.102,15.40572,11.455587,24.299465,-2.2933517,-9.788343,-12.211562
1.104,15.950361,11.597342,24.721607,-2.3734913,-9.87163,-12.209038
1.106,16.511452,11.712074,25.127857,-2.4503617,-9.94517,-12.199692
1.108,17.09133,11.798837,25.51859,-2.5236049,-10.009912,-12.183794
1.11,17.69254,11.8561125,25.893923,-2.5929232,-10.066848,-12.161648
1.112,18.317917,11.882357,26.254444,-2.6579833,-10.117001,-12.133541
1.114,18.969906,11.87634,26.600735,-2.7184691,-10.1613035,-12.099737
1.116,19.650883,11.837127,26.933546,-2.7740269,-10.200669,-12.060527
1.118,20.36312,11.763685,27.25344,-2.8243165,-10.235962,-12.016117
1.12,21.108704,11.655393,27.560806,-2.869011,-10.267996,-11.966692
1.122,21.889462,11.511658,27.856422,-2.907793,-10.297557,-11.91238
1.124,22.706545,11.332146,28.141312,-2.940372,-10.325466,-11.853294
1.126,23.560799,11.116706,28.417091,-2.966491,-10.352475,-11.789491
1.128,24.452183,10.865174,28.685356,-2.9858813,-10.379209,-11.720953
1.13,25.38018,10.577762,28.94751,-2.9982648,-10.406297,-11.6476555
1.132,26.343708,10.254702,29.204815,-3.0033765,-10.434305,-11.569517
1.134,27.341122,9.8964205,29.458015,-3.0009098,-10.463696,-11.48638
1.136,28.36966,9.504259,29.707687,-2.9906023,-10.49493,-11.398073
1.138,29.426323,9.079528,29.95454,-2.9722114,-10.528461,-11.304414
1.14,30.507786,8.623921,30.199554,-2.945503,-10.564756,-11.205183
1.142,31.610119,8.1392975,30.443556,-2.9103017,-10.604299,-11.100114
1.144,32.729195,7.627431,30.687584,-2.8664722,-10.647569,-10.988943
1.146,33.860836,7.090346,30.93265,-2.8139205,-10.694951,-10.871364
1.148,35.00069,6.53024,31.179651,-2.7525609,-10.746786,-10.747091
1.15,36.144222,5.949755,31.42878,-2.6823235,-10.803318,-10.615793
1.152,37.287655,5.351317,31.679985,-2.6031704,-10.864656,-10.477163
1.154,38.427418,4.7378225,31.932865,-2.5150766,-10.930892,-10.330927
1.156,39.56057,4.112259,32.1863,-2.418048,-11.002009,-10.176846
1.158,40.684795,3.477363,32.439285,-2.312137,-11.077879,-10.014665
1.16,41.798393,2.8359723,32.690796,-2.1974115,-11.158342,-9.844233
1.162,42.90087,2.1911821,32.939438,-2.0740242,-11.243165,-9.665411
1.164,43.99229,1.5459809,33.18415,-1.9421878,-11.332137,-9.478069
1.166,45.073772,0.9035015,33.42377,-1.8021767,-11.425043,-9.282083
1.168,46.147514,0.26723385,33.657124,-1.6542902,-11.521621,-9.077357
1.17,47.21656,-0.35935497,33.88388,-1.4988472,-11.621561,-8.863713
1.172,48.284843,-0.9728098,34.103973,-1.336153,-11.724516,-8.640895
1.174,49.35704,-1.5695724,34.31825,-1.1665015,-11.82997,-8.408543
1.176,50.437534,-2.1456432,34.527935,-0.99009466,-11.937192,-8.166235
1.178,51.531506,-2.6966877,34.73467,-0.80701405,-12.045174,-7.9134297
1.18,52.644394,-3.2184982,34.94047,-0.617194,-12.152751,-7.6495724
1.182,53.78223,-3.7067928,35.147606,-0.42042965,-12.258566,-7.374074
1.184,54.950493,-4.1563253,35.358727,-0.21634334,-12.361084,-7.0863433
1.186,56.15426,-4.5610723,35.577137,-0.004335046,-12.458606,-6.785799
1.188,57.398186,-4.9147654,35.80664,0.21640176,-12.549367,-6.4718275
1.19,58.68672,-5.211193,36.051193,0.4468969,-12.631553,-6.143799
1.192,60.022964,-5.443305,36.315308,0.6883548,-12.703332,-5.8010507
1.194,61.409607,-5.6033115,36.60421,0.9420854,-12.762944,-5.442878
1.196,62.84677,-5.6810484,36.921993,1.2094345,-12.808872,-5.0685368
1.198,64.331085,-5.66255,37.27256,1.4916624,-12.839954,-4.6771894
1.2,65.86693,-5.540202,37.659554,1.7897998,-12.85555,-4.2679863
1.202,67.45591,-5.308488,38.093742,2.1045394,-12.855692,-3.8400788
1.204,69.08835,-4.950431,38.58796,2.4360986,-12.841158,-3.392756
1.206,70.75379,-4.4435406,39.149376,2.7841954,-12.813511,-2.9254842
1.208,72.44945,-3.7724247,39.780884,3.148055,-12.775016,-2.4379573
1.21,74.179375,-2.9282675,40.47999,3.5264392,-12.728468,-1.9300337
1.212,75.93354,-1.8889141,41.24185,3.917583,-12.677161,-1.4016917
1.214,77.70199,-0.62704086,42.061623,4.3193016,-12.624571,-0.85299873
1.216,79.47659,0.8826647,42.94207,4.729139,-12.574075,-0.28414702
1.218,81.24453,2.6624174,43.89135,5.144473,-12.528597,0.3046112
1.22,82.99066,4.735263,44.911266,5.562558,-12.490392,0.9131603
1.222,84.69939,7.129133,45.99585,5.980607,-12.460968,1.5415838
1.224,86.36268,9.871848,47.141502,6.395849,-12.441078,2.1901565
1.226,87.957985,12.995808,48.342957,6.8057227,-12.430706,2.8593242
1.228,89.473625,16.511795,49.596657,7.208075,-12.428914,3.549552
1.23,90.890465,20.449203,50.89508,7.6010737,-12.434087,4.2615237
1.232,92.18913,24.825207,52.24888,7.9825563,-12.444909,4.9961023
1.234,93.36975,29.61459,53.69957,8.350663,-12.459209,5.7542725
1.236,94.39891,34.813095,55.266197,8.7045555,-12.472599,6.537154
1.238,95.23198,40.456356,56.99473,9.044172,-12.479589,7.3462934
1.24,95.852646,46.51711,58.94637,9.370167,-12.473873,8.1842
1.242,96.37643,52.986755,61.056133,9.683763,-12.447669,9.05345
1.244,96.837975,59.807472,63.340008,9.986022,-12.3924885,9.956536
1.246,97.19764,66.93307,65.81912,10.276602,-12.299834,10.896567
1.248,97.446686,74.35234,68.550545,10.553316,-12.161129,11.876949
1.25,97.57173,82.02707,71.54247,10.81354,-11.966384,12.902533
1.252,97.56431,89.88771,74.776886,11.05447,-11.704741,13.979306
1.254,97.46906,97.82948,78.30907,11.272287,-11.3665085,15.112681
1.256,97.31041,105.76883,82.18303,11.462007,-10.94285,16.305918
1.258,97.11302,113.62535,86.3893,11.615707,-10.426697,17.55988
1.26,96.919495,121.28873,90.9266,11.722223,-9.815267,18.87112
1.262,96.82886,128.80399,95.748764,11.766482,-9.110855,20.232098
1.264,96.69124,136.06624,100.89636,11.7323,-8.313428,21.637257
1.266,96.853165,142.73402,106.53433,11.602171,-7.4238944,23.083427
1.268,97.17116,148.74802,112.54364,11.36371,-6.44268,24.56668
1.27,97.683,154.08931,118.8577,11.021486,-5.3541384,26.083298
1.272,98.50454,158.63208,125.39255,10.581942,-4.1391373,27.626114
1.274,99.69704,162.3204,132.04395,10.047655,-2.7962093,29.184635
1.276,101.31406,165.10408,138.71779,9.432136,-1.316783,30.760586
1.278,103.43486,166.96448,145.30841,8.756865,0.32506466,32.361755
1.28,106.08006,167.94551,151.70857,8.057791,2.1598473,33.99843
1.282,109.27097,168.09367,157.78705,7.384364,4.2196484,35.67938
1.284,113.01311,167.45886,163.38821,6.7912784,6.533985,37.408844
1.286,117.276405,166.11049,168.35497,6.335161,9.129609,39.172203
1.288,122.00497,164.13892,172.5354,6.0628915,12.030738,40.92096
1.29,127.11999,161.65063,175.78743,5.990859,15.2374935,42.589077
1.292,132.52419,158.7605,177.99042,6.109633,18.666393,44.07016
1.294,138.10132,155.5886,179.04822,6.43651,22.259775,45.248203
1.296,143.7132,152.25877,178.8876,6.9315124,25.93138,46.009197
1.298,149.20906,148.89099,177.46243,7.506531,29.54987,46.247814
1.3,154.43062,145.59311,174.76042,8.070369,32.978455,45.86902
1.302,159.21526,142.45784,170.80254,8.519453,36.07583,44.80165
1.304,163.40724,139.55795,165.64215,8.746336,38.69741,43.00715
1.306,166.8627,136.94435,159.36627,8.655608,40.713345,40.487217
1.308,169.45485,134.64528,152.09106,8.1766405,42.01779,37.286285
1.31,171.06898,132.67538,143.96025,7.2775087,42.54312,33.48384
1.312,171.62134,131.02791,135.13295,5.9682364,42.268646,29.18588
1.314,171.06807,129.6664,125.78401,4.2936354,41.21755,24.524586
1.316,169.39305,128.53847,116.1057,2.3257332,39.453743,19.654793
1.318,166.60359,127.589905,106.295044,0.15093899,37.071205,14.742817
1.32,162.73401,126.76604,96.54667,-2.1407003,34.19052,9.959838
1.322,157.86513,125.99597,87.041855,-4.469655,30.945572,5.4736185
1.324,152.10118,125.20723,77.94011,-6.776676,27.463108,1.4336319
1.326,145.56592,124.33876,69.37038,-9.007332,23.869408,-2.040298
1.328,138.4039,123.34344,61.432785,-11.113492,20.291721,-4.8718557
1.33,130.772,122.18468,54.208065,-13.066779,16.823826,-7.0443206
1.332,122.83194,120.83337,47.754803,-14.847971,13.527296,-8.587358
1.334,114.73961,119.27353,42.09965,-16.44672,10.452185,-9.567102
1.336,106.659775,117.49823,37.24424,-17.855108,7.639418,-10.0743
1.338,98.735825,115.52942,33.165028,-19.061447,5.1232,-10.212032
1.34,91.10483,113.376205,29.822542,-20.053703,2.9296045,-10.075399
1.342,83.88559,111.0666,27.146032,-20.819515,1.0746679,-9.739391
1.344,77.16156,108.66192,25.036417,-21.343855,-0.42259502,-9.27233
1.346,71.02884,106.19037,23.421618,-21.627125,-1.51686,-8.712979
1.348,65.56239,103.64421,22.209938,-21.71693,-2.2439117,-8.099117
1.35,60.784256,101.0755,21.31151,-21.620836,-2.6387987,-7.4635663
1.352,56.600307,98.50431,20.750963,-21.341238,-2.7299852,-6.8309493
1.354,53.01854,95.98135,20.45491,-20.909718,-2.5742402,-6.2168283
1.356,50.097057,93.52228,20.354744,-20.356472,-2.2371173,-5.638487
1.358,47.83114,91.103546,20.366583,-19.709343,-1.7826033,-5.118577
1.36,46.201843,88.727806,20.469877,-18.997112,-1.2766666,-4.684755
1.362,45.17122,86.415405,20.664639,-18.248764,-0.78078365,-4.364791
1.364,44.65016,84.19849,20.885454,-17.496346,-0.3530779,-4.1780863
1.366,44.579697,82.06888,21.100767,-16.76991,-0.04329872,-4.133593
1.368,44.903976,80.009705,21.332903,-16.092993,0.11620712,-4.234601
1.37,45.555267,78.02773,21.586174,-15.4836,0.108606815,-4.4799876
1.372,46.431576,76.00317,21.893755,-14.954586,-0.07024002,-4.8623652
1.374,47.650528,73.99214,22.199947,-14.513332,-0.4137411,-5.3669853
1.376,48.86974,72.21682,22.374393,-14.1622305,-0.90705824,-5.9724097
1.378,50.265343,70.57785,22.570118,-13.899936,-1.5303869,-6.6523023
1.38,51.777607,68.98653,22.83134,-13.72262,-2.2621045,-7.377137
1.382,53.289944,67.4845,23.188253,-13.6247015,-3.0811884,-8.116337
1.384,54.76075,66.05249,23.660608,-13.599141,-3.9689028,-8.841049
1.386,56.156116,64.68935,24.236416,-13.638069,-4.910162,-9.5265465
1.388,57.4211,63.386375,24.902988,-13.733405,-5.8938446,-10.15397
1.39,58.554733,62.10945,25.641283,-13.87696,-6.9120226,-10.710629
1.392,59.539173,60.860077,26.449879,-14.060453,-7.959089,-11.189389
1.394,60.35882,59.660534,27.339733,-14.275796,-9.030946,-11.587582
1.396,61.014473,58.529644,28.313053,-14.514929,-10.1238165,-11.905678
1.398,61.507484,57.479313,29.364618,-14.769419,-11.233025,-12.145811
1.4,61.837082,56.51779,30.484516,-15.030431,-12.352511,-12.31034
1.402,61.998543,55.651657,31.655275,-15.288872,-13.474782,-12.400948
1.404,61.9882,54.884827,32.857647,-15.535692,-14.591138,-12.418003
1.406,61.807926,54.216125,34.07622,-15.7622175,-15.691956,-12.360483
1.408,61.459816,53.642586,35.298897,-15.9604,-16.767065,-12.22672
1.41,60.94695,53.162632,36.512638,-16.122974,-17.806385,-12.014934
1.412,60.275288,52.77443,37.706573,-16.243727,-18.800426,-11.72377
1.414,59.44908,52.476044,38.872025,-16.317562,-19.740616,-11.352701
1.416,58.473907,52.264965,40.00113,-16.34049,-20.619476,-10.90271
1.418,57.35786,52.136726,41.086815,-16.309633,-21.430607,-10.3765545
1.42,56.111805,52.085888,42.12121,-16.223118,-22.168537,-9.778926
1.422,54.745323,52.108463,43.096733,-16.079906,-22.82842,-9.116318
1.424,53.268147,52.200577,44.0065,-15.879614,-23.405712,-8.396613
1.426,51.69148,52.357822,44.844143,-15.622398,-23.895878,-7.6286955
1.428,50.026993,52.574528,45.60395,-15.308837,-24.29412,-6.821848
1.43,48.28754,52.84366,46.28182,-14.939827,-24.595333,-5.985465
1.432,46.483963,53.157803,46.87487,-14.516481,-24.794228,-5.1286807
1.434,44.627724,53.51072,47.382538,-14.040178,-24.885565,-4.2602744
1.436,42.729774,53.894463,47.80615,-13.51258,-24.864506,-3.3885584
1.438,40.80047,54.29888,48.147987,-12.935726,-24.727005,-2.521301
1.44,38.84934,54.71358,48.41121,-12.312164,-24.470148,-1.665739
1.442,36.885475,55.128548,48.59856,-11.64501,-24.092491,-0.82855105
1.444,34.917206,55.53458,48.712364,-10.938034,-23.594372,-0.015772939
1.446,32.951775,55.92343,48.754234,-10.195746,-22.978037,0.7672084
1.448,30.995203,56.288025,48.7252,-9.423373,-22.247791,1.5156467
1.45,29.052742,56.622406,48.626072,-8.626805,-21.40997,2.2255208
1.452,27.129389,56.921364,48.457573,-7.8124757,-20.472868,2.8936734
1.454,25.230167,57.18027,48.220703,-6.9872413,-19.446632,3.5178668
1.456,23.359058,57.39529,47.917,-6.158161,-18.343025,4.097049
1.458,21.519222,57.563713,47.547726,-5.3322988,-17.175158,4.6313314
1.46,19.713024,57.683903,47.114914,-4.5166044,-15.95718,5.1219826
1.462,17.942272,57.75448,46.62119,-3.7176476,-14.703835,5.571237
1.464,16.208792,57.77462,46.06956,-2.9415507,-13.429979,5.9821568
1.466,14.513255,57.744186,45.46408,-2.1937804,-12.150009,6.3584185
1.468,12.856539,57.66365,44.807247,-1.4790955,-10.87749,6.7040095
1.47,11.239245,57.533703,44.101543,-0.8014674,-9.624757,7.0229754
1.472,9.661965,57.356148,43.34978,-0.16406012,-8.402606,7.31924
1.474,8.125524,57.13269,42.555206,0.43078947,-7.2200804,7.596459
1.476,6.6312103,56.865997,41.720623,0.9814837,-6.08435,7.8579183
1.478,5.1793594,56.559742,40.849506,1.4870886,-5.000699,8.1065445
1.48,3.7704892,56.217762,39.944756,1.9472783,-3.9726493,8.344892
1.482,2.405907,55.844635,39.008274,2.3622231,-3.0021567,8.57513
1.484,1.0867579,55.445045,38.041965,2.73251,-2.0897722,8.79902
1.486,-0.18515617,55.02316,37.047295,3.0590463,-1.2348521,9.017891
1.488,-1.4084189,54.58299,36.025253,3.343077,-0.4358458,9.232636
1.49,-2.581503,54.128036,34.976597,3.5861263,0.30941236,9.443705
1.492,-3.7027793,53.661484,33.90163,3.7899995,1.0034604,9.651056
1.494,-4.7704253,53.18626,32.800602,3.9568155,1.6490655,9.854276
1.496,-5.7827873,52.70508,31.673641,4.088872,2.2490425,10.052483
1.498,-6.7388124,52.22074,30.521246,4.188641,2.806182,10.244385
1.5,-7.637417,51.73556,29.343605,4.2587786,3.32311,10.428496
1.502,-8.478262,51.251842,28.141438,4.301948,3.8021522,10.603137
1.504,-9.261322,50.772118,26.914911,4.3208313,4.2453966,10.766593
1.506,-9.9853735,50.29819,25.665113,4.318165,4.6547713,10.917306
1.508,-10.651182,49.83267,24.391758,4.296719,5.032037,11.054024
1.51,-11.259941,49.37771,23.09572,4.2592216,5.3788066,11.175776
1.512,-11.812665,48.935345,21.777767,4.208376,5.6965885,11.281878
1.514,-12.310427,48.507053,20.438852,4.1468515,5.9869905,11.3719
1.516,-12.754673,48.09379,19.08012,4.0771823,6.251636,11.445605
1.518,-13.147753,47.696762,17.702892,4.0018015,6.4922,11.502938
1.52,-13.492275,47.31729,16.308544,3.923041,6.710457,11.543883
1.522,-13.790815,46.95566,14.897758,3.8430917,6.9083614,11.568363
1.524,-14.045706,46.612125,13.471556,3.7640026,7.0879965,11.576257
1.526,-14.259413,46.285915,12.031158,3.6876984,7.251654,11.56739
1.528,-14.434575,45.97632,10.577993,3.6159594,7.4016924,11.541515
1.53,-14.573899,45.682312,9.113779,3.5504167,7.5404735,11.498447
1.532,-14.679243,45.401962,7.6402197,3.4924726,7.67024,11.438128
1.534,-14.752228,45.133118,6.1591034,3.443308,7.7930374,11.360681
1.536,-14.794769,44.87316,4.671706,3.403842,7.910623,11.266415
1.538,-14.808478,44.619484,3.179541,3.3746295,8.02432,11.1558
1.54,-14.794621,44.369194,1.6839427,3.3559225,8.134898,11.029452
1.542,-14.753909,44.11899,0.18624449,3.3476727,8.242648,10.888157
1.544,-14.686745,43.86531,-1.3123072,3.349569,8.347433,10.732792
1.546,-14.59363,43.604748,-2.810475,3.3610044,8.448682,10.5642805
1.548,-14.474533,43.333683,-4.30693,3.3811622,8.54549,10.383604
1.55,-14.32962,43.048676,-5.800528,3.4091315,8.6367,10.191829
1.552,-14.159324,42.746796,-7.2897415,3.443916,8.7210245,9.990087
1.554,-13.964054,42.42536,-8.772717,3.484546,8.797214,9.779479
1.556,-13.744056,42.082146,-10.247539,3.5301561,8.864072,9.561118
1.558,-13.499539,41.715332,-11.712151,3.5799544,8.920287,9.336044
1.56,-13.230738,41.323643,-13.164293,3.6332345,8.964442,9.105103
1.562,-12.938667,40.906284,-14.6012,3.6893024,8.9950075,8.868945
1.564,-12.624962,40.463554,-16.019663,3.7474656,9.010212,8.628088
1.566,-12.291233,39.9962,-17.416086,3.8069854,9.007943,8.38291
1.568,-11.939463,39.505722,-18.78605,3.8669295,8.9855995,8.133654
1.57,-11.571558,38.993813,-20.124966,3.926176,8.940221,7.8803773
1.572,-11.189804,38.462795,-21.427742,3.9833007,8.868487,7.622966
1.574,-10.797251,37.915627,-22.688553,4.0366077,8.766745,7.361243
1.576,-10.396412,37.355446,-23.902174,4.08423,8.631192,7.095065
1.578,-9.990122,36.785347,-25.06124,4.1242504,8.458106,6.82436
1.58,-9.581461,36.20868,-26.158764,4.1548314,8.244001,6.5491776
1.582,-9.173447,35.629074,-27.18775,4.17438,7.9859476,6.269835
1.584,-8.768768,35.05044,-28.14148,4.1816945,7.6818156,5.986916
1.586,-8.3699875,34.47648,-29.013254,4.1761065,7.330472,5.70127
1.588,-7.9791546,33.9105,-29.796623,4.157494,6.931887,5.4140325
1.59,-7.5975304,33.35546,-30.485538,4.126355,6.4873075,5.126605
1.592,-7.2266846,32.813934,-31.074356,4.0838146,5.999256,4.8405633
1.594,-6.867977,32.288345,-31.558704,4.0315003,5.4716215,4.557491
1.596,-6.5222397,31.780937,-31.934916,3.9714622,4.909465,4.2788405
1.598,-6.189804,31.293335,-32.2,3.906077,4.318879,4.0058985
1.6,-5.8703938,30.826487,-32.352512,3.837975,3.7068093,3.7397137
1.602,-5.5638084,30.381218,-32.39246,3.769856,3.0807214,3.4810216
1.604,-5.2697144,29.9581,-32.320904,3.7043529,2.44831,3.2302754
1.606,-4.9873123,29.557074,-32.140274,3.6439261,1.8171128,2.9876797
1.608,-4.7151527,29.177631,-31.854467,3.5907006,1.1942793,2.7531996
1.61,-4.4517784,28.819334,-31.468212,3.5464478,0.58628225,2.526623
1.612,-4.1949806,28.481287,-30.987572,3.512493,-0.0013341904,2.3076136
1.614,-3.9428997,28.161903,-30.418764,3.4897027,-0.56412387,2.0957904
1.616,-3.694765,27.860023,-29.76947,3.4785175,-1.0988102,1.890765
1.618,-3.4479141,27.57368,-29.046364,3.478941,-1.6033026,1.6921855
1.62,-3.2001553,27.30111,-28.257954,3.4906087,-2.0765624,1.4997548
1.622,-2.9499397,27.040718,-27.412487,3.512814,-2.51853,1.3132467
1.624,-2.6958857,26.790966,-26.518444,3.5445702,-2.9299655,1.1325076
1.626,-2.436491,26.550419,-25.583797,3.5847106,-3.3122895,0.95747244
1.628,-2.1704311,26.317709,-24.616402,3.6319509,-3.6673024,0.78809416
1.63,-1.8965302,26.09142,-23.623528,3.6849895,-3.9969544,0.6242976
1.632,-1.6141882,25.870491,-22.61169,3.7425385,-4.3032765,0.4659555
1.634,-1.3231449,25.65392,-21.587002,3.8033907,-4.58819,0.3128624
1.636,-1.023323,25.441055,-20.555145,3.8664827,-4.853437,0.16471887
1.638,-0.71488285,25.231358,-19.521374,3.9309092,-5.1005087,0.021105766
1.64,-0.39815617,25.024466,-18.490347,3.9958925,-5.330683,-0.11847472
1.642,-0.07377148,24.820137,-17.466164,4.0607963,-5.5450573,-0.25464177
1.644,0.25709438,24.618221,-16.452225,4.1251,-5.7445693,-0.3880725
1.646,0.5932741,24.418781,-15.4510565,4.188386,-5.9300613,-0.5194831
1.648,0.9335003,24.22174,-14.465022,4.2502985,-6.102339,-0.64957595
1.65,1.2761364,24.027075,-13.495948,4.310506,-6.2622013,-0.7790184
1.652,1.6193724,23.834911,-12.54503,4.368737,-6.410453,-0.90837073
1.654,1.961544,23.645412,-11.613228,4.4247274,-6.5478897,-1.0380805
1.656,2.3006868,23.45867,-10.701265,4.4782467,-6.675312,-1.1684327
1.658,2.6347208,23.27489,-9.809487,4.529102,-6.79348,-1.2995691
1.66,2.961813,23.09417,-8.9379835,4.5771036,-6.9031205,-1.4314785
1.662,3.2797928,22.916704,-8.086545,4.622119,-7.0048885,-1.564018
1.664,3.5868711,22.74253,-7.254979,4.6640205,-7.099352,-1.6969504
1.666,3.8810816,22.571648,-6.44255,4.7027636,-7.1869864,-1.8299692
1.668,4.1607122,22.40414,-5.6484556,4.738346,-7.268139,-1.9627161
1.67,4.42416,22.239859,-4.871718,4.7708344,-7.3430724,-2.0948224
1.672,4.669984,22.078754,-4.111529,4.800351,-7.411911,-2.2259233
1.674,4.8969073,21.920506,-3.3669114,4.827066,-7.474687,-2.3556738
1.676,5.103992,21.765015,-2.6370854,4.851221,-7.5313725,-2.4837346
1.678,5.290591,21.611925,-1.921325,4.8731413,-7.581823,-2.609763
1.68,5.45626,21.460752,-1.218885,4.893168,-7.6258,-2.7334557
1.682,5.6006308,21.311178,-0.5293634,4.911663,-7.663083,-2.8545334
1.684,5.723914,21.162577,0.1474073,4.9290037,-7.693493,-2.97269
1.686,5.826352,21.0143,0.81162167,4.94557,-7.7168293,-3.0876377
1.688,5.908471,20.865608,1.4630883,4.961698,-7.732918,-3.1991317
1.69,5.9710436,20.715899,2.1015813,4.9776425,-7.7416563,-3.3069685
1.692,6.015068,20.564384,2.7265844,4.993594,-7.74298,-3.4109573
1.694,6.0417295,20.410294,3.3375022,5.0096564,-7.7368803,-3.5109348
1.696,6.052375,20.25301,3.9335523,5.025829,-7.7233715,-3.6067076
1.698,6.048805,20.091908,4.513937,5.0420027,-7.702512,-3.698124
1.7,6.0323706,19.926514,5.077736,5.0579705,-7.674367,-3.7850096
1.702,6.004748,19.756348,5.6240253,5.07345,-7.6389947,-3.8672054
1.704,5.968002,19.580992,6.151783,5.0881367,-7.5964336,-3.9445686
1.706,5.923696,19.400288,6.660129,5.101709,-7.546727,-4.0169964
1.708,5.8739543,19.21393,7.147825,5.1138573,-7.4898767,-4.0843897
1.71,5.8207483,19.02183,7.613751,5.124303,-7.425842,-4.1467047
1.712,5.7657933,18.824095,8.057168,5.132834,-7.354557,-4.203931
1.714,5.710949,18.62072,8.477031,5.1393156,-7.275935,-4.256089
1.716,5.6580834,18.411861,8.872368,5.1436653,-7.189938,-4.3032546
1.718,5.6086893,18.197826,9.242468,5.1458592,-7.0965314,-4.345551
1.72,5.56433,17.978872,9.586671,5.1459193,-6.9957285,-4.3831816
1.722,5.526325,17.755331,9.904386,5.143879,-6.88764,-4.416426
1.724,5.4960365,17.52755,10.195292,5.139775,-6.7724686,-4.445653
1.726,5.4744883,17.295755,10.459157,5.133635,-6.650562,-4.471321
1.728,5.4625616,17.060383,10.695994,5.1254516,-6.5223722,-4.493965
1.73,5.4608865,16.821768,10.905912,5.1151648,-6.3884697,-4.5142007
1.732,5.4701376,16.58026,11.089122,5.102654,-6.24956,-4.5326934
1.734,5.490555,16.33625,11.246259,5.087785,-6.106421,-4.5501256
1.736,5.52231,16.090118,11.377875,5.070389,-5.9598746,-4.567137
1.738,5.5653973,15.842183,11.484831,5.050257,-5.8107266,-4.5843153
1.74,5.619551,15.592845,11.568208,5.0271664,-5.659766,-4.6021376
1.742,5.6844144,15.342524,11.629011,5.000928,-5.507734,-4.620938
1.744,5.7593384,15.091813,11.668374,4.9713693,-5.3552265,-4.6409025
1.746,5.843713,14.841237,11.68748,4.938347,-5.202747,-4.6620774
1.748,5.936839,14.591304,11.687918,4.901786,-5.050639,-4.6843495
1.75,6.0376563,14.342833,11.670735,4.8616567,-4.8991156,-4.707471
1.752,6.14535,14.09662,11.637387,4.8179903,-4.7482543,-4.7310743
1.754,6.2591853,13.853466,11.589021,4.770907,-4.5980086,-4.7547183
1.756,6.3780375,13.61442,11.526817,4.720588,-4.4482565,-4.777921
1.758,6.5011597,13.380494,11.451678,4.6672587,-4.2987857,-4.8001885
1.76,6.6277895,13.152692,11.364725,4.611224,-4.1493387,-4.821028
1.762,6.757195,12.932015,11.266868,4.552844,-3.999682,-4.8400073
1.764,6.8885365,12.719511,11.158915,4.4925094,-3.8496447,-4.856739
1.766,7.0215707,12.516215,11.041844,4.430616,-3.6991792,-4.8709326
1.768,7.155799,12.323106,10.916299,4.3675656,-3.5483844,-4.8823776
1.77,7.2908635,12.14111,10.78321,4.3037076,-3.397527,-4.890958
1.772,7.4265513,11.970964,10.643134,4.2393208,-3.2471259,-4.8966427
1.774,7.562624,11.813341,10.497165,4.174556,-3.0979261,-4.8994493
1.776,7.69884,11.668802,10.346005,4.1094756,-2.9508743,-4.8994627
1.778,7.8350654,11.537557,10.190617,4.0439873,-2.8071053,-4.896809
1.78,7.9713397,11.419788,10.031949,3.9778805,-2.6678495,-4.8916636
1.782,8.107548,11.315327,9.871195,3.9108152,-2.534406,-4.8842387
1.784,8.243616,11.223945,9.709369,3.8423915,-2.4080572,-4.8748145
1.786,8.379318,11.145221,9.547811,3.7721364,-2.289977,-4.8637247
1.788,8.514782,11.078429,9.387632,3.6995764,-2.1811442,-4.851355
1.79,8.649985,11.022844,9.230085,3.624283,-2.0822725,-4.8381667
1.792,8.784934,10.977355,9.076464,3.5459244,-1.9937973,-4.8246713
1.794,8.919376,10.941131,8.927851,3.4642637,-1.915831,-4.81141
1.796,9.053301,10.913257,8.785216,3.379217,-1.8481549,-4.7989264
1.798,9.186742,10.892672,8.649572,3.2908618,-1.7902688,-4.7877674
1.8,9.319728,10.878333,8.521641,3.199455,-1.7414061,-4.778423
1.802,9.4522505,10.869382,8.402177,3.1053813,-1.7006236,-4.7713346
1.804,9.584194,10.865255,8.291798,3.0091712,-1.6668787,-4.766819
1.806,9.716236,10.865015,8.190757,2.9114513,-1.6390905,-4.765075
1.808,9.847815,10.868313,8.099442,2.8128958,-1.6162269,-4.7661567
1.81,9.979612,10.874648,8.017694,2.7141936,-1.5973569,-4.7699294
1.812,10.112018,10.883889,7.945467,2.6160364,-1.5817049,-4.776135
1.814,10.245501,10.895983,7.882515,2.519073,-1.5686593,-4.784389
1.816,10.380502,10.911334,7.828269,2.4238634,-1.5577999,-4.7942014
1.818,10.5176525,10.930236,7.782274,2.3308985,-1.5488713,-4.8050394
1.82,10.657354,10.953352,7.744072,2.240568,-1.5417097,-4.816368
1.822,10.800485,10.981268,7.7130527,2.153155,-1.5362402,-4.8276863
1.824,10.947594,11.014919,7.6886334,2.0688605,-1.5324228,-4.8385863
1.826,11.099401,11.055219,7.6702366,1.9877799,-1.5302007,-4.848758
1.828,11.256561,11.102988,7.657253,1.9099352,-1.529473,-4.85801
1.83,11.419672,11.159079,7.649205,1.8352857,-1.5301005,-4.8662634
1.832,11.589411,11.224391,7.645645,1.7637639,-1.5319022,-4.8735356
1.834,11.766165,11.299744,7.6460032,1.69529,-1.5346835,-4.879891
1.836,11.9504595,11.385967,7.64999,1.6297829,-1.5381992,-4.885437
1.838,12.142544,11.48366,7.657029,1.5672139,-1.5421587,-4.8902597
1.84,12.342729,11.593278,7.66691,1.5076237,-1.5463002,-4.8944335
1.842,12.550905,11.715374,7.6792464,1.4511064,-1.5504248,-4.8979836
1.844,12.76727,11.849954,7.6936593,1.3992317,-1.5547566,-4.9008813
1.846,12.991685,11.99717,7.7098765,1.3502972,-1.558543,-4.903086
1.848,13.22385,12.156719,7.7276154,1.3055296,-1.5618771,-4.904534
1.85,13.463626,12.32821,7.746384,1.2653592,-1.5645993,-4.9051533
1.852,13.710427,12.511096,7.7658877,1.2302151,-1.5664986,-4.904856
1.854,13.963839,12.704348,7.7856436,1.20049,-1.5673308,-4.9035783
1.856,14.223319,12.906946,7.805157,1.176477,-1.566784,-4.901264
1.858,14.488112,13.117577,7.823703,1.1583146,-1.5645247,-4.897879
1.86,14.757654,13.334745,7.8409424,1.1459467,-1.5602455,-4.8934293
1.862,15.0308485,13.556727,7.8563347,1.1391101,-1.5537181,-4.8879466
1.864,15.306719,13.781845,7.8692455,1.1373657,-1.5448688,-4.8815365
1.866,15.584364,14.008118,7.879076,1.1401026,-1.5338373,-4.874369
1.868,15.862522,14.233509,7.8854437,1.146628,-1.5210358,-4.8666863
1.87,16.140116,14.45607,7.8878336,1.1562183,-1.5071586,-4.85881
1.872,16.41589,14.673541,7.885767,1.1681795,-1.4931868,-4.8511105
1.874,16.688732,14.883782,7.8789587,1.181845,-1.4803436,-4.843978
1.876,16.957169,15.084565,7.8669567,1.1966151,-1.4699988,-4.8378
1.878,17.220024,15.273633,7.849699,1.2119124,-1.463555,-4.832898
1.88,17.475756,15.449038,7.826917,1.227176,-1.4623697,-4.829489
1.882,17.72329,15.608925,7.798774,1.2418106,-1.467624,-4.8276825
1.884,17.961287,15.751499,7.7651396,1.2551959,-1.4802297,-4.827435
1.886,18.188723,15.875088,7.7263684,1.2667263,-1.5008152,-4.8285685
1.888,18.404427,15.97842,7.6826963,1.2758129,-1.5297095,-4.8308053
1.89,18.607414,16.060368,7.634687,1.2819635,-1.566981,-4.833805
1.892,18.796867,16.12011,7.58271,1.2848016,-1.6124433,-4.8372216
1.894,18.972109,16.157085,7.527496,1.2841232,-1.6656723,-4.8407135
1.896,19.132753,16.170912,7.4696383,1.2799418,-1.7260373,-4.844024
1.898,19.278238,16.161697,7.4098682,1.2716271,-1.7925532,-4.8469334
1.9,19.408522,16.12955,7.3488984,1.2615781,-1.8649879,-4.8492746
1.902,19.523836,16.075094,7.287219,1.2489606,-1.9420497,-4.8509045
1.904,19.624409,15.99893,7.2255774,1.2344325,-2.0228531,-4.8516955
1.906,19.71083,15.90188,7.1645603,1.2186859,-2.1065342,-4.8515167
1.908,19.783628,15.78517,7.104507,1.2024016,-2.1922598,-4.8502035
1.91,19.84361,15.65008,7.0458937,1.1862452,-2.2792683,-4.8475814
1.912,19.891863,15.497999,6.989007,1.1708162,-2.3668897,-4.843472
1.914,19.929598,15.330272,6.933968,1.1566415,-2.4545617,-4.8377233
1.916,19.957586,15.148767,6.8809342,1.1441523,-2.541836,-4.8302226
1.918,19.977715,14.95495,6.829833,1.1336597,-2.6283844,-4.820911
1.92,19.990824,14.750592,6.780618,1.1253668,-2.7139888,-4.809789
1.922,19.998184,14.53738,6.732992,1.1193416,-2.798547,-4.796939
1.924,20.000889,14.317077,6.686902,1.1155338,-2.8820355,-4.7825327
1.926,20.000149,14.090983,6.641925,1.1137767,-2.964489,-4.7667685
1.928,19.996904,13.860593,6.5978875,1.1138123,-3.0459912,-4.7498937
1.93,19.99207,13.627068,6.554412,1.1153014,-3.1266344,-4.7321515
1.932,19.986183,13.391609,6.5110483,1.117841,-3.2065046,-4.713776
1.934,19.979727,13.155197,6.4674907,1.1210152,-3.2856522,-4.694975
1.936,19.972832,12.91866,6.4232807,1.1244221,-3.364087,-4.675898
1.938,19.965652,12.682899,6.3779173,1.1276776,-3.4417765,-4.6566777
1.94,19.95794,12.448665,6.3309507,1.1304406,-3.5186088,-4.6374164
1.942,19.949358,12.216424,6.2819524,1.1324534,-3.5944097,-4.6181693
1.944,19.93949,11.986665,6.2306085,1.1335353,-3.6689317,-4.598986
1.946,19.92772,11.75984,6.17648,1.1335931,-3.7418957,-4.5798855
1.948,19.913269,11.536061,6.1192822,1.132601,-3.8129616,-4.56089
1.95,19.895435,11.315592,6.0586004,1.1305995,-3.8817596,-4.541989
1.952,19.87334,11.09846,5.99423,1.1276882,-3.9479039,-4.523194
1.954,19.846172,10.884754,5.9259787,1.124011,-4.011003,-4.5044756
1.956,19.812855,10.674427,5.8536253,1.119735,-4.070696,-4.4858437
1.958,19.772667,10.467676,5.777081,1.115038,-4.126667,-4.467263
1.96,19.724915,10.264398,5.69649,1.1101053,-4.1786385,-4.448684
1.962,19.669086,10.064551,5.611944,1.105104,-4.226398,-4.4300323
1.964,19.604406,9.868309,5.5237617,1.1001632,-4.269837,-4.411217
1.966,19.53053,9.67554,5.432374,1.095388,-4.308939,-4.3921547
1.968,19.447287,9.486227,5.338381,1.0908159,-4.34383,-4.372775
1.97,19.35452,9.300251,5.242329,1.0864381,-4.374777,-4.353072
1.972,19.252586,9.117433,5.1450267,1.0821866,-4.402185,-4.3330846
1.974,19.141518,8.937762,5.047366,1.0779405,-4.426602,-4.3129063
1.976,19.02171,8.7611065,4.9502406,1.0735267,-4.4486704,-4.2926707
1.978,18.893734,8.587227,4.85456,1.0687293,-4.4691024,-4.272495
1.98,18.757988,8.416002,4.76125,1.0632775,-4.488638,-4.2524686
1.982,18.61537,8.247284,4.671331,1.0568721,-4.507975,-4.2326055
1.984,18.466547,8.08085,4.5856366,1.0491893,-4.5277123,-4.2128296
1.986,18.312353,7.916401,4.5049767,1.0399265,-4.5483284,-4.192961
1.988,18.15369,7.7538815,4.430126,1.0287759,-4.5701275,-4.172757
1.99,17.991583,7.592873,4.361567,1.015474,-4.5932174,-4.1519427
1.992,17.826618,7.433178,4.299693,0.99983156,-4.6174965,-4.1302347
1.994,17.659935,7.274463,4.244802,0.98174155,-4.6426787,-4.107419
1.996,17.49229,7.116456,4.197036,0.9612034,-4.6683173,-4.083352
1.998,17.324476,6.958823,4.156272,0.9383281,-4.6938334,-4.057989
2,17.157085,6.8011904,4.122332,0.9133336,-4.7185273,-4.031396
2.002,16.990845,6.643194,4.0949244,0.8865533,-4.74166,-4.0037093
2.004,16.826408,6.484497,4.0735593,0.85839534,-4.762485,-3.9751115
2.006,16.664171,6.324852,4.057575,0.82934713,-4.7802587,-3.9458122
2.008,16.50463,6.163852,4.0463476,0.79991996,-4.794284,-3.9160123
2.01,16.34805,6.001479,4.0391006,0.77064306,-4.803939,-3.885851
2.012,16.194675,5.8373647,4.035113,0.7420194,-4.808691,-3.8554392
2.014,16.044682,5.671503,4.0335464,0.7145067,-4.808116,-3.8248317
2.016,15.89809,5.503867,4.033547,0.68850976,-4.801909,-3.7940276
2.018,15.755064,5.3343296,4.034462,0.6643751,-4.789863,-3.7629962
2.02,15.615355,5.1631217,4.035421,0.6423791,-4.771848,-3.7316523
2.022,15.479017,4.9901586,4.0357413,0.62273526,-4.747792,-3.6998806
2.024,15.345779,4.8158627,4.034854,0.60560715,-4.7176843,-3.6675465
2.026,15.215549,4.640353,4.0322943,0.59109026,-4.6815624,-3.6345322
2.028,15.087966,4.4640284,4.0275564,0.5792456,-4.6394796,-3.600705
2.03,14.9627285,4.287163,4.020458,0.57008404,-4.5915146,-3.565981
2.032,14.839649,4.1100802,4.010772,0.56360686,-4.5377603,-3.5302947
2.034,14.718436,3.9331923,3.998121,0.55979913,-4.4783034,-3.4936442
2.036,14.598644,3.7570572,3.9825048,0.55864155,-4.41323,-3.4560566
2.038,14.480178,3.5821688,3.963772,0.5601167,-4.342634,-3.417593
2.04,14.362663,3.4089806,3.9419038,0.56418383,-4.266608,-3.3783545
2.042,14.246028,3.2380004,3.9170327,0.5708297,-4.1852517,-3.3384323
2.044,14.13005,3.069642,3.889155,0.5800347,-4.098675,-3.2979517
2.046,14.014428,2.904328,3.858323,0.5917841,-4.007004,-3.2570179
2.048,13.8991,2.7423058,3.8247075,0.60607326,-3.9103632,-3.2156978
2.05,13.784111,2.5837636,3.7883825,0.6228995,-3.808881,-3.1740537
2.052,13.6692,2.4290981,3.749343,0.6422533,-3.702695,-3.13211
2.054,13.554357,2.2783265,3.707651,0.66412055,-3.591938,-3.0898404
2.056,13.439585,2.1315384,3.6632469,0.68848693,-3.4767308,-3.047203
2.058,13.324951,1.9888617,3.6162024,0.7153238,-3.3571763,-3.004137
2.06,13.210287,1.8505173,3.5665245,0.7445766,-3.233384,-2.960564
2.062,13.095766,1.7164824,3.5140214,0.77617836,-3.1054616,-2.9164097
2.064,12.981342,1.5869749,3.4587383,0.8100307,-2.9735322,-2.8716218
2.066,12.867286,1.4617776,3.4006014,0.8460306,-2.8377404,-2.8261387
2.068,12.7536545,1.3411044,3.3394785,0.8840418,-2.6982794,-2.7799392
2.07,12.640533,1.2249216,3.2752697,0.9239159,-2.55537,-2.7330163
2.072,12.528129,1.1132462,3.2078648,0.96548086,-2.4092987,-2.6853573
2.074,12.4166155,1.0060529,3.1372955,1.0085559,-2.2604322,-2.6369643
2.076,12.306207,0.90345854,3.063507,1.0529549,-2.109187,-2.5878568
2.078,12.196908,0.8054021,2.9864788,1.0984819,-1.9560499,-2.5380585
2.08,12.08913,0.7119134,2.9062705,1.1449475,-1.8015542,-2.4875982
2.082,11.982815,0.6231177,2.8229895,1.19216,-1.6462651,-2.4365299
2.084,11.878325,0.53887546,2.7368834,1.2399423,-1.4907725,-2.384907
2.086,11.775906,0.4591815,2.6480906,1.2881072,-1.3356744,-2.332811
2.088,11.6756735,0.38410956,2.5570197,1.3364733,-1.1815915,-2.2803326
2.09,11.577887,0.31368142,2.464055,1.3848702,-1.0291213,-2.2275896
2.092,11.482628,0.2478993,2.369613,1.4331185,-0.8788266,-2.1747198
2.094,11.390106,0.1867845,2.274197,1.4810749,-0.7312105,-2.1218543
2.096,11.300496,0.13033235,2.178264,1.5285933,-0.5867146,-2.0691276
2.098,11.214051,0.07832712,2.0824056,1.5755429,-0.44571745,-2.016653
2.1,11.1307745,0.030943096,1.987272,1.6218004,-0.30851793,-1.964534
2.102,11.050897,-0.012078822,1.8933848,1.667267,-0.17533135,-1.9128641
2.104,10.974451,-0.050719976,1.8011959,1.7118562,-0.046305716,-1.8617127
2.106,10.901525,-0.08515626,1.7111974,1.7555084,0.0784744,-1.8111217
2.108,10.832329,-0.11550498,1.623985,1.7981534,0.19894546,-1.7611363
2.11,10.767005,-0.14196903,1.5397105,1.8397194,0.31507134,-1.7117666
2.112,10.705627,-0.16470063,1.4588044,1.880137,0.42681754,-1.6630535
2.114,10.648188,-0.18387616,1.3814201,1.9193188,0.5341478,-1.6150191
2.116,10.594925,-0.19973701,1.3077992,1.9571618,0.63701534,-1.5677112
2.118,10.54571,-0.21249485,1.2380563,1.9935526,0.7353544,-1.5211966
2.12,10.500841,-0.2225185,1.1721082,2.0283742,0.8290899,-1.4755646
2.122,10.460123,-0.2300545,1.110051,2.0615094,0.91814446,-1.4308965
2.124,10.42389,-0.23540187,1.051801,2.0928462,1.0024283,-1.3872938
2.126,10.392073,-0.2388497,0.9971413,2.1223037,1.0818645,-1.3448528
2.128,10.364592,-0.24068457,0.9458604,2.1498075,1.1563863,-1.3036592
2.13,10.341763,-0.24129361,0.8978538,2.1753101,1.2259254,-1.2637701
2.132,10.323233,-0.2406435,0.8527108,2.1987972,1.2904363,-1.2252388
2.134,10.309194,-0.23924083,0.81027836,2.220275,1.3498847,-1.1880913
2.136,10.299538,-0.23724109,0.77012527,2.239759,1.4042389,-1.1523364
2.138,10.294324,-0.2349698,0.73206025,2.2573016,1.4535019,-1.1179802
2.14,10.293542,-0.23254335,0.6957062,2.2729654,1.4977205,-1.0850115
2.142,10.296882,-0.23006153,0.6608318,2.2868354,1.5369774,-1.0534151
2.144,10.304282,-0.2278499,0.6271237,2.2990081,1.5713837,-1.0231671
2.146,10.315784,-0.22601467,0.59430873,2.3095884,1.6010666,-0.9942329
2.148,10.3311205,-0.22457984,0.5620632,2.3186855,1.6261816,-0.96659166
2.15,10.350151,-0.22362813,0.5303074,2.3264258,1.6468971,-0.94022506
2.152,10.372677,-0.22330639,0.49872506,2.3329287,1.6634034,-0.915102
2.154,10.398612,-0.22362807,0.4674008,2.3383212,1.675883,-0.8912069
2.156,10.427719,-0.22460419,0.4362348,2.3427095,1.6845131,-0.8685158
2.158,10.459786,-0.22624871,0.40515894,2.3461967,1.689451,-0.8470134
2.16,10.494457,-0.22854814,0.37420008,2.3488595,1.6908224,-0.8267008
2.162,10.531727,-0.23163024,0.3433934,2.3507817,1.688747,-0.807578
2.164,10.571383,-0.23541832,0.31276155,2.3520048,1.6833104,-0.7896626
2.166,10.613048,-0.23992434,0.28253987,2.3525543,1.6745781,-0.77294517
2.168,10.656699,-0.24520797,0.25273693,2.352447,1.6625817,-0.7574383
2.17,10.702019,-0.2513897,0.22347747,2.3516774,1.6473584,-0.74312574
2.172,10.748802,-0.2584206,0.19505844,2.3502426,1.6289304,-0.729998
2.174,10.796979,-0.2664335,0.16756465,2.34812,1.6073298,-0.7180089
2.176,10.846166,-0.27527118,0.14119303,2.345303,1.5825949,-0.7071196
2.178,10.89618,-0.28514054,0.11616857,2.3417873,1.5548023,-0.69726866
2.18,10.946918,-0.29597345,0.092602625,2.337571,1.5240558,-0.68839926
2.182,10.998113,-0.3077579,0.07069587,2.332682,1.4904785,-0.6804521
2.184,11.049703,-0.320596,0.050519638,2.3271592,1.4542174,-0.6733561
2.186,11.1014385,-0.33449626,0.032159723,2.3210542,1.4154497,-0.66704756
2.188,11.153242,-0.34931016,0.015683606,2.3144312,1.374364,-0.6614726
2.19,11.204795,-0.36509997,0.0011155717,2.3073802,1.3311604,-0.65657616
2.192,11.256239,-0.38186195,-0.011623442,2.299983,1.2860415,-0.65229875
2.194,11.307345,-0.39951646,-0.022580784,2.2923367,1.2391975,-0.6485912
2.196,11.35797,-0.41793197,-0.031719923,2.2845292,1.1908193,-0.64540535
2.198,11.408271,-0.43714678,-0.03926073,2.2766583,1.141087,-0.6426975
2.2,11.457997,-0.45703804,-0.045383357,2.268809,1.0901754,-0.64041674
2.202,11.507282,-0.47738087,-0.050225496,2.2610593,1.038229,-0.63853073
2.204,11.556085,-0.4980235,-0.054016452,2.253469,0.985388,-0.6369938
2.206,11.604429,-0.51881677,-0.05692382,2.2461004,0.9317823,-0.6357624
2.208,11.652219,-0.53941363,-0.059274144,2.2390018,0.8775247,-0.63479006
2.21,11.699751,-0.55972064,-0.061222505,2.2322235,0.82271314,-0.6340175
2.212,11.747005,-0.5792404,-0.063020386,2.2257903,0.7674456,-0.63336635
2.214,11.7940235,-0.59767354,-0.06480305,2.2197323,0.71179056,-0.6327687
2.216,11.840978,-0.61464345,-0.06692368,2.2140744,0.6558022,-0.63215005
2.218,11.887926,-0.6297529,-0.06959245,2.2088416,0.59949195,-0.63141817
2.22,11.934988,-0.6426483,-0.072843,2.2040277,0.542844,-0.63051856
2.222,11.982343,-0.65285873,-0.076926015,2.199612,0.48579407,-0.62939376
2.224,12.030142,-0.6600356,-0.08198148,2.195571,0.42823753,-0.62802875
2.226,12.07841,-0.66377896,-0.088112,2.191849,0.37003857,-0.62642133
2.228,12.1276,-0.6637143,-0.09547136,2.1883924,0.31104648,-0.6246116
2.23,12.177572,-0.6593926,-0.10403531,2.1851332,0.25109076,-0.6226612
2.232,12.22891,-0.6504656,-0.11393851,2.1819994,0.19000435,-0.6206651
2.234,12.281468,-0.63674146,-0.1251643,2.1789334,0.12763771,-0.61872756
2.236,12.335619,-0.6178959,-0.1376521,2.1759017,0.06388965,-0.616947
2.238,12.391607,-0.5936426,-0.15136491,2.1728818,-0.0012997389,-0.6154203
2.24,12.449667,-0.56386113,-0.16630563,2.1698782,-0.067977875,-0.614211
2.242,12.509988,-0.5284567,-0.18236096,2.1669288,-0.136143,-0.61336386
2.244,12.572758,-0.48725802,-0.19950968,2.1640768,-0.2057703,-0.61288893
2.246,12.638194,-0.4401782,-0.21766537,2.161379,-0.2768192,-0.61276746
2.248,12.706658,-0.38720474,-0.23681398,2.1589057,-0.34923133,-0.61295605
2.25,12.778224,-0.3283658,-0.2568589,2.1567051,-0.42295945,-0.6133933
2.252,12.853183,-0.26382393,-0.2777784,2.1548164,-0.49796164,-0.61400765
2.254,12.931811,-0.19355254,-0.29947352,2.1532683,-0.57421863,-0.61474407
2.256,13.014198,-0.117741495,-0.32186714,2.1520567,-0.6517126,-0.6155374
2.258,13.100399,-0.036708325,-0.34508166,2.1511743,-0.73047066,-0.6163647
2.26,13.190737,0.049334973,-0.36912587,2.150589,-0.8105321,-0.6172265
2.262,13.285346,0.14005528,-0.3938767,2.150249,-0.89196104,-0.6181383
2.264,13.384105,0.23516406,-0.41946155,2.1501033,-0.97484684,-0.61916184
2.266,13.48724,0.3342783,-0.4458364,2.1500952,-1.0592872,-0.6203777
2.268,13.594607,0.43690565,-0.4730341,2.1501784,-1.1453993,-0.6218983
2.27,13.706297,0.54268336,-0.5010067,2.15029,-1.2333013,-0.6238592
2.272,13.822134,0.6511811,-0.5296081,2.1504033,-1.3230896,-0.6264185
2.274,13.942105,0.7619008,-0.55888647,2.1505165,-1.4148409,-0.62971914
2.276,14.066209,0.87431175,-0.58876836,2.1506376,-1.5086014,-0.63391256
2.278,14.194137,0.9880662,-0.6190822,2.1507897,-1.6043935,-0.6391267
2.28,14.325929,1.1025172,-0.6497738,2.1510499,-1.7022026,-0.6454537
2.282,14.461393,1.2172639,-0.68069863,2.1514983,-1.8019793,-0.6529547
2.284,14.600157,1.3317767,-0.7116868,2.1522393,-1.9036216,-0.66165686
2.286,14.742291,1.4455788,-0.7425954,2.1534028,-2.007003,-0.6715503
2.288,14.887606,1.5581188,-0.77328277,2.1551108,-2.1119745,-0.6826012
2.29,15.035858,1.6691093,-0.80355304,2.1574788,-2.2183957,-0.6947603
2.292,15.187007,1.7780533,-0.83321625,2.1606271,-2.326132,-0.70796293
2.294,15.340928,1.8847795,-0.86218125,2.164657,-2.435045,-0.72214544
2.296,15.497399,1.9889824,-0.89013314,2.169644,-2.545011,-0.7372406
2.298,15.656492,2.090442,-0.91708654,2.1756406,-2.6559505,-0.7531895
2.3,15.818119,2.1890488,-0.9426956,2.182672,-2.7678075,-0.76994544
2.302,15.982007,2.284704,-0.96682596,2.1907074,-2.8805504,-0.7874547
2.304,16.148338,2.377378,-0.9894233,2.1997032,-2.9941792,-0.80566347
2.306,16.31715,2.4671063,-1.010364,2.209565,-3.1087265,-0.82450783
2.308,16.488234,2.5540826,-1.029412,2.2201662,-3.2242327,-0.8439054
2.31,16.661808,2.6383379,-1.0462946,2.2313647,-3.340753,-0.86376524
2.312,16.837646,2.7201064,-1.060861,2.243003,-3.458371,-0.8839736
2.314,17.015799,2.799571,-1.0728344,2.2549238,-3.577166,-0.9044131
2.316,17.196098,2.877236,-1.0818917,2.2669692,-3.69723,-0.9249852
2.318,17.378403,2.9533727,-1.0876628,2.2790067,-3.818644,-0.94557685
2.32,17.562567,3.0283337,-1.0898187,2.2909229,-3.941514,-0.9661317
2.322,17.74855,3.1025908,-1.0878859,2.3026233,-4.065929,-0.9866015
2.324,17.935879,3.1767166,-1.081387,2.3140519,-4.191981,-1.0069753
2.326,18.124407,3.2511752,-1.069725,2.325172,-4.3197446,-1.0272918
2.328,18.31363,3.3265018,-1.0522999,2.3359666,-4.449292,-1.0476096
2.33,18.50318,3.4033837,-1.0285087,2.3464744,-4.580626,-1.067995
2.332,18.69248,3.4823081,-0.997573,2.3567681,-4.713728,-1.0885155
2.334,18.880922,3.5639622,-0.95882463,2.3669202,-4.8485317,-1.1092314
2.336,19.067942,3.6489873,-0.91148007,2.3770535,-4.9849033,-1.130172
2.338,19.252695,3.7379954,-0.8548317,2.3873217,-5.1226425,-1.1513077
2.34,19.434498,3.8315356,-0.78804946,2.397911,-5.261452,-1.1725599
2.342,19.612469,3.9303043,-0.71046686,2.4090323,-5.4009576,-1.193806
2.344,19.785822,4.034973,-0.6213167,2.420913,-5.540682,-1.2148532
2.346,19.953606,4.146069,-0.5199208,2.4337993,-5.6800733,-1.2354786
2.348,20.114862,4.264056,-0.4057672,2.447946,-5.818499,-1.2554061
2.35,20.268627,4.389465,-0.27820063,2.4636216,-5.955272,-1.2743373
2.352,20.41396,4.5226293,-0.13676548,2.4810834,-6.0896173,-1.2919532
2.354,20.549814,4.6639295,0.018862247,2.500599,-6.220711,-1.3079216
2.356,20.675072,4.8136177,0.18908119,2.522453,-6.3477054,-1.3219138
2.358,20.788656,4.9717503,0.3739729,2.5468879,-6.4697027,-1.3335993
2.36,20.88959,5.13842,0.5736532,2.5741587,-6.58582,-1.3426685
2.362,20.976765,5.3133206,0.7880249,2.604492,-6.69518,-1.3488151
2.364,21.049026,5.4962234,1.0168943,2.638101,-6.796921,-1.351738
2.366,21.105349,5.6867485,1.2600298,2.6751595,-6.8902116,-1.3511704
2.368,21.144789,5.884391,1.5170331,2.7158198,-6.974285,-1.3468462
2.37,21.166073,6.088478,1.7874241,2.7602007,-7.048417,-1.3385292
2.372,21.168303,6.298181,2.0705214,2.8083715,-7.1119437,-1.3260143
2.374,21.150621,6.512391,2.3658843,2.8603501,-7.164264,-1.3091202
2.376,21.111984,6.730103,2.6726007,2.9161243,-7.2048626,-1.2877088
2.378,21.051615,6.950055,2.9899178,2.9756286,-7.233312,-1.261684
2.38,20.9687,7.1708317,3.3169756,3.0387497,-7.2492514,-1.2309654
2.382,20.862595,7.3909006,3.6527905,3.1053538,-7.252428,-1.1955073
2.384,20.732677,7.6088095,3.9965334,3.1752572,-7.242678,-1.1552656
2.386,20.578587,7.822899,4.347045,3.2482786,-7.2199187,-1.1102127
2.388,20.40006,8.031424,4.703301,3.3242235,-7.1841187,-1.0603288
2.39,20.196983,8.232664,5.0643144,3.402894,-7.135345,-1.0055978
2.392,19.969297,8.424892,5.4289217,3.4841096,-7.073709,-0.946012
2.394,19.717506,8.606441,5.795974,3.5676928,-6.999381,-0.88155484
2.396,19.441849,8.775619,6.164382,3.6534834,-6.9125643,-0.8122277
2.398,19.143072,8.930825,6.532977,3.7413557,-6.8134894,-0.7380388
2.4,18.822083,9.070586,6.9004555,3.8311944,-6.702434,-0.65901256
2.402,18.47982,9.193538,7.2656355,3.922906,-6.5796957,-0.57518196
2.404,18.11761,9.2984085,7.6273017,4.0164084,-6.445608,-0.48656726
2.406,17.737057,9.384256,7.9841466,4.111619,-6.3005342,-0.39316654
2.408,17.339485,9.450132,8.335167,4.2084565,-6.144865,-0.29497313
2.41,16.926674,9.495405,8.678918,4.3068233,-5.9790215,-0.19193196
2.412,16.500769,9.519637,9.0143795,4.406598,-5.8034124,-0.083949566
2.414,16.06356,9.522505,9.340468,4.507614,-5.6185007,0.029105663
2.416,15.617014,9.503898,9.655993,4.609645,-5.4247494,0.14738083
2.418,15.163353,9.464029,9.959944,4.7124033,-5.222636,0.27100635
2.42,14.704813,9.403211,10.251368,4.8155394,-5.0126185,0.40010595
2.422,14.243513,9.321933,10.529258,4.9186363,-4.795173,0.5347407
2.424,13.781609,9.220863,10.792711,5.0212054,-4.570758,0.6749239
2.426,13.321547,9.100573,11.040831,5.1227264,-4.3397737,0.82057
2.428,12.865375,8.962055,11.272786,5.222644,-4.1025906,0.9714954
2.43,12.41519,8.806297,11.487717,5.3203883,-3.859496,1.1274095
2.432,11.973175,8.633868,11.684817,5.4153986,-3.6107268,1.2879226
2.434,11.541348,8.445823,11.863405,5.5071282,-3.3564575,1.452554
2.436,11.121463,8.243309,12.022703,5.5950737,-3.0968096,1.6207528
2.438,10.715491,8.0272455,12.162137,5.6787586,-2.8318865,1.7919118
2.44,10.325047,7.7986627,12.281328,5.757781,-2.561779,1.9654188
2.442,9.951613,7.5587234,12.379749,5.831794,-2.2865965,2.1406844
2.444,9.596469,7.3084526,12.457186,5.9005175,-2.0064564,2.3171344
2.446,9.260704,7.0489225,12.513515,5.963724,-1.7215425,2.4942727
2.448,8.945301,6.7811747,12.548889,6.021265,-1.4320976,2.6716259
2.45,8.650879,6.5064006,12.563485,6.0730505,-1.1384068,2.8488145
2.452,8.377838,6.225751,12.557787,6.119031,-0.84081596,3.0255387
2.454,8.126558,5.940404,12.532446,6.159235,-0.5397141,3.2015471
2.456,7.8969636,5.651885,12.488235,6.1937265,-0.23553856,3.3766532
2.458,7.688614,5.3615966,12.426373,6.2226057,0.07124604,3.5506942
2.46,7.5007124,5.071078,12.348114,6.2460136,0.38014936,3.723505
2.462,7.3324566,4.7817163,12.255138,6.2640977,0.69065696,3.8949866
2.464,7.1826234,4.4950924,12.149186,6.277022,1.0022408,4.0650373
2.466,7.049794,4.212861,12.031928,6.284955,1.31438,4.2335663
2.468,6.932495,3.9367776,11.905262,6.2880635,1.626596,4.400516
2.47,6.8296785,3.6680472,11.770802,6.2865005,1.9384266,4.565834
2.472,6.7392683,3.4086328,11.631006,6.280383,2.249428,4.729493
2.474,6.6579533,3.160499,11.488682,6.269785,2.5591526,4.8914714
2.476,6.5828085,2.925819,11.34583,6.25474,2.8672085,5.051775
2.478,6.5120096,2.7059739,11.2041,6.2352576,3.1732354,5.210447
2.48,6.444031,2.5022373,11.064953,6.2112956,3.4769194,5.3676023
2.482,6.3766704,2.3161852,10.930152,6.1828113,3.7780352,5.52341
2.484,6.3073072,2.149176,10.801046,6.149729,4.076426,5.678069
2.486,6.2336254,2.0026093,10.67911,6.11199,4.372052,5.831813
2.488,6.153472,1.8777852,10.564752,6.0695605,4.66499,5.9849052
2.49,6.0647283,1.775877,10.458318,6.0224724,4.9554505,6.1375985
2.492,5.965817,1.698014,10.360182,5.970803,5.2438016,6.2901235
2.494,5.85448,1.6450248,10.270877,5.914699,5.530533,6.442655
2.496,5.7294827,1.6174014,10.190045,5.85445,5.816266,6.595288
2.498,5.5902753,1.6155438,10.116794,5.7904534,6.101666,6.748
2.5,5.435733,1.6398559,10.050173,5.72319,6.387295,6.900639
2.502,5.265539,1.690406,9.98922,5.653143,6.673521,7.052937
2.504,5.079444,1.7669632,9.932604,5.580863,6.9607105,7.2044067
2.506,4.8771935,1.8693937,9.878916,5.506958,7.249243,7.3543615
2.508,4.6582184,1.9978918,9.825639,5.4319696,7.5393367,7.50196
2.51,4.421796,2.152358,9.770048,5.356315,7.83081,7.646269
2.512,4.1688437,2.3324378,9.709848,5.280273,8.12312,7.7863398
2.514,3.900055,2.5375006,9.642866,5.203936,8.415516,7.921193
2.516,3.6156871,2.767005,9.566191,5.127268,8.70699,8.049854
2.518,3.3167582,3.0202458,9.4771185,5.0500593,8.996331,8.171364
2.52,3.0041578,3.2963703,9.372715,4.971925,9.282177,8.284793
2.522,2.678761,3.5944655,9.249877,4.892271,9.562922,8.389192
2.524,2.3420966,3.9134874,9.1056385,4.8103566,9.836871,8.483673
2.526,1.9955307,4.2526374,8.937078,4.725416,10.1023445,8.567473
2.528,1.6400373,4.610983,8.741223,4.6365757,10.357568,8.639899
2.53,1.2768357,4.987771,8.515274,4.5429115,10.600606,8.700355
2.532,0.90724707,5.382152,8.256951,4.443532,10.829431,8.748376
2.534,0.5326457,5.793161,7.963705,4.3375874,11.041958,8.783669
2.536,0.15374589,6.2198067,7.6330996,4.224359,11.236147,8.806143
2.538,-0.22789931,6.6606984,7.262915,4.103362,11.410222,8.815863
2.54,-0.610939,7.1145315,6.8508825,3.9742246,11.562481,8.812943
2.542,-0.9940934,7.5799274,6.3948646,3.8366513,11.691242,8.797454
2.544,-1.3757519,8.054753,5.8932037,3.6904368,11.794899,8.7693205
2.546,-1.7548096,8.536911,5.344814,3.5355165,11.871998,8.728283
2.548,-2.130326,9.023942,4.7487626,3.3718448,11.921137,8.673822
2.55,-2.5008273,9.51308,4.104656,3.199398,11.940973,8.6052
2.552,-2.8648205,10.000955,3.4128342,3.0182502,11.930245,8.521496
2.554,-3.221149,10.484192,2.6745858,2.828545,11.887795,8.421627
2.556,-3.5688336,10.95938,1.8917356,2.6305707,11.812572,8.304461
2.558,-3.906998,11.423132,1.066761,2.4246786,11.703485,8.168887
2.56,-4.23472,11.871974,0.20290148,2.2112613,11.559526,8.013926
2.562,-4.5512075,12.302487,-0.6958314,1.9907826,11.37992,7.8388515
2.564,-4.8557506,12.711432,-1.624702,1.7637773,11.164275,7.643314
2.566,-5.1478696,13.095572,-2.578215,1.5307802,10.912322,7.4275193
2.568,-5.426813,13.452118,-3.5503206,1.2923763,10.623954,7.192467
2.57,-5.6920466,13.778502,-4.5342917,1.0492975,10.299377,6.939973
2.572,-5.943386,14.072811,-5.5230455,0.80235404,9.9389,6.6726227
2.574,-6.1805115,14.33333,-6.5090284,0.5525448,9.543135,6.393667
2.576,-6.403457,14.559001,-7.4843087,0.3011272,9.113282,6.106762
2.578,-6.6122985,14.74913,-8.440931,0.049660787,8.651238,5.815755
2.58,-6.8078136,14.903781,-9.370935,-0.20019251,8.159375,5.5242796
2.582,-6.989724,15.023083,-10.267339,-0.44657543,7.640817,5.2356286
2.584,-7.1573324,15.107417,-11.123527,-0.6876129,7.0992765,4.952522
2.586,-7.3108826,15.157639,-11.932634,-0.92153335,6.5389442,4.6769924
2.588,-7.4518085,15.175719,-12.688232,-1.1467075,5.9642725,4.4103656
2.59,-7.581424,15.163854,-13.384836,-1.3618002,5.3797593,4.153295
2.592,-7.7006087,15.124033,-14.018271,-1.5657752,4.7897997,3.9059944
2.594,-7.8094654,15.058427,-14.584967,-1.7577889,4.1987367,3.6683972
2.596,-7.908903,14.969266,-15.082358,-1.9371146,3.6108344,3.4403257
2.598,-7.999797,14.858836,-15.508274,-2.103184,3.0301137,3.221643
2.6,-8.083082,14.729605,-15.861654,-2.255521,2.46028,3.0122628
2.602,-8.160065,14.583637,-16.142765,-2.3936524,1.9048768,2.8122103
2.604,-8.231419,14.423227,-16.352869,-2.5171351,1.3672844,2.6215446
2.606,-8.298748,14.2505455,-16.493374,-2.6255765,0.8506812,2.4402752
2.608,-8.363732,14.0676155,-16.56637,-2.7186537,0.35809457,2.2683294
2.61,-8.427248,13.876202,-16.574842,-2.7961879,-0.107744575,2.1054878
2.612,-8.490677,13.677934,-16.522495,-2.858214,-0.5445076,1.9513624
2.614,-8.555202,13.474459,-16.413404,-2.9049835,-0.950283,1.8053706
2.616,-8.621405,13.2669525,-16.251997,-2.936986,-1.3236358,1.6667278
2.618,-8.68957,13.056167,-16.042208,-2.9549725,-1.6637038,1.5345197
2.62,-8.760077,12.843021,-15.788469,-2.9599638,-1.9702007,1.407762
2.622,-8.83418,12.628815,-15.496169,-2.9532309,-2.2434676,1.2854879
2.624,-8.912716,12.4146185,-15.170509,-2.936235,-2.4844127,1.16688
2.626,-8.995775,12.201239,-14.816311,-2.9104588,-2.6942732,1.051382
2.628,-9.083712,11.989719,-14.43842,-2.877371,-2.8746393,0.93871254
2.63,-9.176565,11.78097,-14.04119,-2.8384364,-3.0275164,0.82886165
2.632,-9.274116,11.575837,-13.628902,-2.7950742,-3.1552322,0.7219951
2.634,-9.376232,11.375247,-13.205503,-2.7484932,-3.2600846,0.61849713
2.636,-9.482409,11.179724,-12.774662,-2.6997592,-3.3444252,0.5188411
2.638,-9.591888,10.98975,-12.339498,-2.649761,-3.4105382,0.42351437
2.64,-9.703661,10.805764,-11.902896,-2.5992308,-3.4606378,0.3329485
2.642,-9.816953,10.628257,-11.467467,-2.5487921,-3.4968133,0.24745142
2.644,-9.930827,10.457756,-11.034905,-2.4989123,-3.520968,0.1671871
2.646,-10.044042,10.29468,-10.606562,-2.4499784,-3.534824,0.092095554
2.648,-10.155741,10.139482,-10.183248,-2.402299,-3.5398872,0.021925986
2.65,-10.26508,9.992399,-9.7653675,-2.3561404,-3.5374544,-0.043777555
2.652,-10.371025,9.853726,-9.3530245,-2.311698,-3.5286455,-0.10565993
2.654,-10.4726095,9.7236395,-8.946355,-2.269113,-3.5143588,-0.16445896
2.656,-10.5687,9.602144,-8.545317,-2.2284431,-3.4953148,-0.2209683
2.658,-10.657976,9.48917,-8.14955,-2.1896694,-3.4720721,-0.275959
2.66,-10.739671,9.384573,-7.758797,-2.152674,-3.4450428,-0.3301288
2.662,-10.81331,9.2882595,-7.3725176,-2.117258,-3.414524,-0.38408294
2.664,-10.877719,9.199892,-6.990509,-2.0831084,-3.3806834,-0.43832672
2.666,-10.931798,9.118751,-6.6125093,-2.0498443,-3.3436007,-0.49324155
2.668,-10.9745035,9.043938,-6.237977,-2.0170097,-3.3032935,-0.5491235
2.67,-11.005066,8.974567,-5.866513,-1.9841038,-3.2597077,-0.60618055
2.672,-11.022704,8.909796,-5.4975877,-1.9506052,-3.2127607,-0.664535
2.674,-11.026905,8.848685,-5.1310415,-1.9159932,-3.1623418,-0.72424346
2.676,-11.016817,8.790334,-4.7666016,-1.8797764,-3.108338,-0.7853131
2.678,-10.99202,8.733946,-4.4043694,-1.8415271,-3.0506318,-0.8477093
2.68,-10.952126,8.67868,-4.0445085,-1.8008839,-2.9891346,-0.9113326
2.682,-10.896689,8.623753,-3.6871881,-1.75759,-2.9237947,-0.9760366
2.684,-10.825543,8.568462,-3.3327198,-1.7114803,-2.8546119,-1.0416358
2.686,-10.738542,8.511982,-2.9815617,-1.6624825,-2.78161,-1.1079367
2.688,-10.635701,8.45356,-2.634233,-1.610652,-2.704857,-1.1747489
2.69,-10.516948,8.392648,-2.2911751,-1.5561289,-2.624444,-1.2418957
2.692,-10.382732,8.328685,-1.952934,-1.4991355,-2.5404568,-1.3092077
2.694,-10.233409,8.261244,-1.6201658,-1.4399409,-2.4529543,-1.3765094
2.696,-10.069344,8.189921,-1.2934682,-1.3788563,-2.3619897,-1.4436431
2.698,-9.891194,8.1143675,-0.973526,-1.3162285,-2.2676413,-1.5104668
2.7,-9.706964,8.037395,-0.66610575,-1.2523998,-2.1699665,-1.5768158
2.702,-9.511964,7.9566145,-0.36764944,-1.1876838,-2.0690145,-1.642503
2.704,-9.307588,7.8721967,-0.07902861,-1.1223493,-1.9648439,-1.7073114
2.706,-9.095066,7.7843,0.19908655,-1.0566338,-1.8575071,-1.7709767
2.708,-8.875897,7.6933,0.46599877,-0.990715,-1.747087,-1.833188
2.71,-8.6515665,7.5995293,0.721069,-0.9247295,-1.6336908,-1.8936181
2.712,-8.423597,7.503649,0.9638597,-0.85875815,-1.517441,-1.951921
2.714,-8.1934185,7.406162,1.1939483,-0.792863,-1.3984969,-2.0077677
2.716,-7.9625587,7.3077917,1.4111487,-0.7270829,-1.2770712,-2.0608263
2.718,-7.732469,7.209127,1.615344,-0.6614839,-1.153429,-2.1107848
2.72,-7.504527,7.1107154,1.8065318,-0.5961238,-1.0278991,-2.1573782
2.722,-7.2798758,7.013164,1.9847995,-0.5310816,-0.9008498,-2.200392
2.724,-7.059726,6.9170427,2.1504178,-0.4664473,-0.77269274,-2.239707
2.726,-6.845124,6.8228965,2.3036504,-0.4023323,-0.64386946,-2.2752929
2.728,-6.637012,6.731203,2.4449062,-0.34093606,-0.5192131,-2.3067002
2.73,-6.435898,6.642345,2.5746956,-0.28134215,-0.39702782,-2.334421
2.732,-6.242506,6.5565357,2.6936455,-0.2239873,-0.27845338,-2.358619
2.734,-6.0571494,6.474165,2.8022375,-0.16932221,-0.16463107,-2.3795314
2.736,-5.880067,6.3954935,2.9012609,-0.11774656,-0.056625217,-2.3974292
2.738,-5.7113595,6.32062,2.9913802,-0.06959553,0.044674307,-2.412608
2.74,-5.551114,6.2496367,3.0732048,-0.025116771,0.13861454,-2.4253728
2.742,-5.3993573,6.1825266,3.14748,0.015578866,0.22481203,-2.4360297
2.744,-5.255968,6.1192393,3.214826,0.052497983,0.3031609,-2.4448726
2.746,-5.120665,6.059638,3.2759569,0.08573848,0.37379563,-2.4521794
2.748,-4.9930553,6.0036783,3.331322,0.115476966,0.43704864,-2.4582133
2.75,-4.8730674,5.951227,3.3814971,0.1419673,0.49341422,-2.4631858
