Time_s_,Acc_x_m_s_2_,Acc_y_m_s_2_,Acc_z_m_s_2_,Gyro_x_1_s_,Gyro_y_1_s_,Gyro_z_1_s_
0,0.77879065,0.06588552,-0.8165732,-0.16620326,-0.651733,0.4106403
0.002,0.73401046,0.07543278,-0.7906107,-0.16271484,-0.64910173,0.41863015
0.004,0.68571705,0.08553948,-0.7636104,-0.15955222,-0.6456679,0.42746532
0.006,0.6336473,0.09623031,-0.73572344,-0.1568688,-0.64126897,0.43725538
0.008,0.5778196,0.10748993,-0.70719904,-0.15480068,-0.6357279,0.4481266
0.01,0.5179204,0.11948651,-0.67832583,-0.15348092,-0.6288911,0.46017316
0.012,0.45392376,0.13239376,-0.64934236,-0.15301222,-0.6206212,0.4734885
0.014,0.385649,0.1462684,-0.6207218,-0.15344992,-0.61081284,0.48812544
0.016,0.3131979,0.1612297,-0.59285486,-0.15476267,-0.5993659,0.5040923
0.018,0.23650968,0.17742851,-0.56632453,-0.15685038,-0.5862147,0.52131426
0.02,0.15580422,0.19503519,-0.54159427,-0.15954119,-0.57130563,0.53964204
0.022,0.07122342,0.21405375,-0.51936245,-0.16258888,-0.5546119,0.55884296
0.024,-0.017083548,0.23461992,-0.5000918,-0.16569006,-0.5361088,0.5786345
0.026,-0.10888171,0.2567753,-0.4844477,-0.16852462,-0.5157797,0.59870553
0.028,-0.20365553,0.28039873,-0.47298703,-0.17066199,-0.49339813,0.6192362
0.03,-0.30108604,0.30542183,-0.46633822,-0.17195381,-0.4693472,0.63915795
0.032,-0.4005649,0.33171785,-0.46509773,-0.17210095,-0.44370258,0.6584099
0.034,-0.5014459,0.359105,-0.4697453,-0.17086005,-0.41668767,0.6769012
0.036,-0.60319316,0.3873457,-0.48081157,-0.16805626,-0.38866302,0.6945143
0.038,-0.7050366,0.41619647,-0.49863955,-0.16359618,-0.36007512,0.71112716
0.04,-0.8063711,0.44549423,-0.52348864,-0.15752657,-0.3314497,0.72664946
0.042,-0.90644866,0.4748984,-0.5555353,-0.1500127,-0.30336443,0.7409745
0.044,-1.0046021,0.5040829,-0.59482646,-0.14135247,-0.27644703,0.753945
0.046,-1.1001157,0.5326955,-0.6413083,-0.13193522,-0.25134563,0.7653241
0.048,-1.1922785,0.5603169,-0.69478476,-0.122216985,-0.22868298,0.7748463
0.05,-1.2805187,0.5866466,-0.75498384,-0.11267774,-0.20899643,0.78226995
0.052,-1.364192,0.6113381,-0.82134604,-0.10377264,-0.19275206,0.78742194
0.054,-1.442833,0.6340245,-0.8933465,-0.09589177,-0.18030354,0.7902137
0.056,-1.5180852,0.6554037,-0.97098136,-0.08932498,-0.17189066,0.7906694
0.058,-1.5874361,0.67366123,-1.052136,-0.0842576,-0.1676525,0.78888494
0.06,-1.6504763,0.68880993,-1.1363077,-0.08075431,-0.16764544,0.7850289
0.062,-1.7070618,0.7009829,-1.222703,-0.07878129,-0.17182189,0.7793263
0.064,-1.7573245,0.71030897,-1.3105016,-0.07819179,-0.1800239,0.7720448
0.066,-1.8011029,0.7167036,-1.3991327,-0.07877511,-0.1920037,0.76345307
0.068,-1.8383484,0.7202695,-1.4880315,-0.08027963,-0.20741774,0.7537834
0.07,-1.8691678,0.7211651,-1.5765643,-0.082438484,-0.2258488,0.7432427
0.072,-1.8934557,0.7195084,-1.6638725,-0.08495289,-0.24678381,0.73201966
0.074,-1.9115472,0.7153869,-1.7490197,-0.087517,-0.26960543,0.7202902
0.076,-1.9237857,0.7089038,-1.8312438,-0.08985986,-0.2936247,0.70821553
0.078,-1.9303198,0.70012414,-1.9098306,-0.09171267,-0.31812796,0.69596094
0.08,-1.9315343,0.6891389,-1.984152,-0.09281976,-0.3423943,0.68371606
0.082,-1.9275402,0.67606246,-2.0537863,-0.09298184,-0.36572254,0.6716858
0.084,-1.9184415,0.6609533,-2.118521,-0.09201686,-0.38749394,0.6600691
0.086,-1.904327,0.64384496,-2.1781592,-0.08977902,-0.40720695,0.6490449
0.088,-1.8852632,0.6248182,-2.2325377,-0.08616471,-0.4244855,0.63876903
0.09,-1.86149,0.6038656,-2.2816467,-0.08111603,-0.43911007,0.62934166
0.092,-1.8329408,0.58089554,-2.3253891,-0.074632525,-0.45103994,0.6208229
0.094,-1.7997208,0.555725,-2.363689,-0.06676607,-0.4603848,0.61317205
0.096,-1.7618505,0.52826893,-2.3966236,-0.057620995,-0.46739393,0.60630685
0.098,-1.7195358,0.49838924,-2.423995,-0.047333024,-0.47241312,0.6000895
0.1,-1.672907,0.46608698,-2.445828,-0.0360739,-0.47588822,0.59434277
0.102,-1.6222899,0.4313326,-2.4619048,-0.024046259,-0.4782967,0.588877
0.104,-1.5680236,0.3942337,-2.472077,-0.011479948,-0.4801431,0.58352166
0.106,-1.5104978,0.35486472,-2.476175,0.001365725,-0.48193586,0.5781316
0.108,-1.450077,0.31351423,-2.4742463,0.01423306,-0.48418045,0.5726031
0.11,-1.3872905,0.27027106,-2.465995,0.026845474,-0.48734677,0.56686753
0.112,-1.3226435,0.22543943,-2.4514408,0.03892752,-0.4918645,0.56090367
0.114,-1.256826,0.17937732,-2.4304442,0.05021637,-0.49807888,0.5547121
0.116,-1.1905069,0.13254666,-2.4030294,0.060457148,-0.50629044,0.5483067
0.118,-1.124459,0.085615516,-2.3691454,0.06941236,-0.5167489,0.5417285
0.12,-1.0594642,0.03903401,-2.3288221,0.07689614,-0.52959615,0.53501266
0.122,-0.99650717,-0.0066173077,-2.282321,0.08278282,-0.5448517,0.52822095
0.124,-0.9365739,-0.050421596,-2.2298083,0.08700374,-0.5624114,0.52140194
0.126,-0.8805926,-0.091644764,-2.1716187,0.08955631,-0.5820193,0.51463485
0.128,-0.8296213,-0.12951863,-2.1081886,0.09052881,-0.60329056,0.5080014
0.13,-0.784587,-0.1631251,-2.0399566,0.0901123,-0.62568504,0.50161755
0.132,-0.74637246,-0.19174045,-1.9673868,0.08856191,-0.6485512,0.49560553
0.134,-0.71552324,-0.21467829,-1.8911164,0.086214006,-0.6711626,0.49009648
0.136,-0.6926555,-0.23118502,-1.8116076,0.083478555,-0.69275135,0.48523661
0.138,-0.67870915,-0.24048352,-1.7294065,0.08079747,-0.7125578,0.48117515
0.14,-0.67403936,-0.24195057,-1.6450715,0.07861996,-0.7299078,0.47801477
0.142,-0.678759,-0.23522049,-1.5592811,0.07739121,-0.74424815,0.47582278
0.144,-0.69301724,-0.22005767,-1.4726646,0.07750948,-0.75517666,0.474604
0.146,-0.7164464,-0.19633079,-1.3857465,0.07929428,-0.76243144,0.47429976
0.148,-0.7489724,-0.16417897,-1.2989559,0.08297893,-0.76591027,0.47479767
0.15,-0.7898834,-0.1240232,-1.2126594,0.08869345,-0.76565045,0.4759165
0.152,-0.8382261,-0.076496124,-1.1271334,0.09646088,-0.7618148,0.47743455
0.154,-0.8934407,-0.02208823,-1.0425403,0.10623667,-0.75461245,0.47912163
0.156,-0.95452476,0.038463533,-0.9589681,0.11792818,-0.744306,0.48075998
0.158,-1.020348,0.104379654,-0.87628555,0.13143337,-0.7311374,0.48217672
0.16,-1.0896027,0.17462504,-0.7943962,0.14665693,-0.71530616,0.4832737
0.162,-1.1610115,0.24824178,-0.7133663,0.16353066,-0.6969845,0.48402542
0.164,-1.2331507,0.32418835,-0.63313097,0.18202332,-0.6763265,0.48449534
0.166,-1.304356,0.40124902,-0.5534183,0.20215894,-0.6534329,0.48481464
0.168,-1.3731458,0.4780651,-0.47389004,0.2240175,-0.6283313,0.48514146
0.17,-1.4380006,0.5533912,-0.39379865,0.2477448,-0.60096467,0.4856254
0.172,-1.4974437,0.625894,-0.31128877,0.27347824,-0.57125217,0.48640049
0.174,-1.551268,0.69494486,-0.2269395,0.3013285,-0.53913295,0.48756063
0.176,-1.5980462,0.75948787,-0.14032492,0.3313667,-0.5045809,0.48914078
0.178,-1.6365294,0.8186536,-0.04933542,0.36359477,-0.46757567,0.4911197
0.18,-1.6671714,0.87242234,0.04603958,0.3979318,-0.42814904,0.49343765
0.182,-1.6893232,0.9201987,0.14657573,0.43416995,-0.38640493,0.49604017
0.184,-1.7009878,0.9610111,0.25407788,0.47197008,-0.34255576,0.4988656
0.186,-1.7047232,0.9962109,0.3672487,0.5108839,-0.29689384,0.5018827
0.188,-1.7011222,1.0261083,0.484992,0.5503775,-0.24976367,0.5051025
0.19,-1.6889883,1.0502496,0.607551,0.58987635,-0.20151618,0.50852907
0.192,-1.6686529,1.0691351,0.7351491,0.6287719,-0.1525136,0.5121535
0.194,-1.6409955,1.0833374,0.86778235,0.6664854,-0.103078306,0.515993
0.196,-1.6071517,1.0930743,1.0050601,0.7025017,-0.053514123,0.5200423
0.198,-1.5689849,1.0986958,1.1464587,0.7363908,-0.004074484,0.5242939
0.2,-1.527773,1.1006098,1.2912052,0.7678404,0.045030028,0.52871335
0.202,-1.4854717,1.1001201,1.4378101,0.7966481,0.09364563,0.5332494
0.204,-1.4436424,1.0988345,1.5842748,0.8228118,0.14184305,0.53787816
0.206,-1.4041607,1.0984763,1.7285147,0.84643257,0.18979535,0.54258436
0.208,-1.3681886,1.1000981,1.868201,0.8676548,0.23757967,0.5473337
0.21,-1.33728,1.1046889,2.0007224,0.88685834,0.28554413,0.55206203
0.212,-1.3137846,1.1134878,2.1231012,0.9044955,0.33415762,0.55673265
0.214,-1.2984025,1.1269629,2.2330165,0.92103714,0.38387793,0.5613841
0.216,-1.2923691,1.146258,2.327249,0.9370597,0.4353438,0.5660817
0.218,-1.2973826,1.1725487,2.4024498,0.9531531,0.48928213,0.57090485
0.22,-1.3144329,1.2069206,2.454896,0.96985364,0.54625803,0.57607657
0.222,-1.3416792,1.2491632,2.4824734,0.9877811,0.60688174,0.5818589
0.224,-1.3790756,1.29955,2.4834583,1.00763,0.6718123,0.58837444
0.226,-1.4270312,1.3579965,2.4554348,1.0301216,0.7417053,0.59561116
0.228,-1.4838188,1.4234505,2.3951812,1.0559286,0.81711817,0.603497
0.23,-1.547103,1.4952023,2.3002653,1.0856801,0.89843273,0.6119245
0.232,-1.6148756,1.5726699,2.1695578,1.1199965,0.98574746,0.62069124
0.234,-1.684893,1.6548144,2.0030324,1.1594563,1.0788926,0.6293974
0.236,-1.7545825,1.740372,1.8008575,1.2045271,1.1773839,0.63748556
0.238,-1.8206495,1.8276718,1.563144,1.2554421,1.2803427,0.64430153
0.24,-1.879334,1.9146769,1.2902832,1.3120582,1.3863809,0.649205
0.242,-1.9269142,1.9996852,0.9834377,1.3738286,1.4937638,0.65172786
0.244,-1.9598312,2.080673,0.644463,1.4397743,1.6005461,0.6516785
0.246,-1.974558,2.1553705,0.276146,1.5085886,1.7047048,0.6491173
0.248,-1.9679004,2.2216568,-0.11816738,1.5786984,1.8041723,0.6442145
0.25,-1.937087,2.2774642,-0.534446,1.6483849,1.8969272,0.63722086
0.252,-1.8797716,2.3208642,-0.96822655,1.7158318,1.9808843,0.62846065
0.254,-1.793851,2.3503356,-1.4148294,1.7792878,2.0539014,0.61817664
0.256,-1.6781039,2.3645644,-1.8694034,1.837311,2.114164,0.6064327
0.258,-1.5318977,2.3625753,-2.3267841,1.8887115,2.1598845,0.59320414
0.26,-1.3550413,2.3432627,-2.782006,1.9325976,2.1893592,0.578473
0.262,-1.1479084,2.3058534,-3.230112,1.9683845,2.2011452,0.56217134
0.264,-0.9107556,2.2492886,-3.6663427,1.9955964,2.1938741,0.54421943
0.266,-0.64481074,2.1729527,-4.0856953,2.0139694,2.166609,0.524595
0.268,-0.35227948,2.0767043,-4.4832397,2.0233717,2.118919,0.503411
0.27,-0.036159575,1.9607241,-4.8540893,2.0236354,2.0506592,0.48101103
0.272,0.2999316,1.8256826,-5.19362,2.014673,1.9621686,0.4579255
0.274,0.65186,1.6727047,-5.497609,1.9965041,1.8543475,0.43470615
0.276,1.014837,1.5035135,-5.762459,1.9691503,1.728388,0.412008
0.278,1.3843167,1.3197123,-5.984833,1.9327043,1.5857402,0.3905756
0.28,1.7553103,1.1233929,-6.161964,1.8874017,1.4280735,0.37108272
0.282,2.1224725,0.9166541,-6.292238,1.83357,1.2571224,0.35405773
0.284,2.4814777,0.7013389,-6.372729,1.7715393,1.0746615,0.33984047
0.286,2.8256075,0.48054183,-6.402619,1.7015467,0.8824375,0.32863188
0.288,3.149857,0.25655597,-6.3816824,1.6237186,0.68213856,0.3205726
0.29,3.4458766,0.03427595,-6.306056,1.5381064,0.47544926,0.31570756
0.292,3.7034,-0.18195832,-6.176041,1.4447325,0.26414624,0.3140158
0.294,3.919862,-0.38893503,-6.00207,1.3436359,0.050167203,0.31537306
0.296,4.1008945,-0.586065,-5.793346,1.2348762,-0.16449338,0.31951755
0.298,4.245072,-0.7702373,-5.548667,1.1186239,-0.3776878,0.32615024
0.3,4.3399878,-0.9366138,-5.263253,0.9952127,-0.58704966,0.334989
0.302,4.379625,-1.0839087,-4.9419684,0.8652063,-0.7899958,0.3458845
0.304,4.366611,-1.2126751,-4.5991416,0.7294657,-0.98385227,0.35877433
0.306,4.30343,-1.3197231,-4.248131,0.5892319,-1.1659272,0.37358427
0.308,4.1911964,-1.4005821,-3.897622,0.44601542,-1.3337792,0.3903076
0.31,4.028774,-1.4518157,-3.5524082,0.30141923,-1.4856524,0.40897262
0.312,3.8160207,-1.4730215,-3.21624,0.15718347,-1.6202667,0.42949796
0.314,3.5541503,-1.4644934,-2.8954873,0.0151283145,-1.7368288,0.4517372
0.316,3.2459946,-1.4261792,-2.5998642,-0.12302509,-1.8352547,0.4755687
0.318,2.895307,-1.3570437,-2.339151,-0.25578445,-1.916336,0.50080824
0.32,2.5066543,-1.2563243,-2.1208727,-0.38181487,-1.9814848,0.5269394
0.322,2.0848236,-1.1242232,-1.9498739,-0.49971798,-2.0318525,0.5532592
0.324,1.6337299,-0.9617342,-1.8301959,-0.60793376,-2.068236,0.5793885
0.326,1.1592417,-0.77195764,-1.7644397,-0.704973,-2.0921042,0.60489726
0.328,0.66869,-0.558704,-1.7544678,-0.7896238,-2.1058786,0.6287996
0.33,0.16891205,-0.3259257,-1.8011423,-0.8606136,-2.110853,0.64946705
0.332,-0.3352787,-0.07703179,-1.9047877,-0.91658664,-2.1066322,0.66522515
0.334,-0.8361049,0.18293011,-2.0638142,-0.9563769,-2.0924032,0.6752734
0.336,-1.325335,0.44843245,-2.2739394,-0.97887087,-2.067376,0.67954844
0.338,-1.7966658,0.7141057,-2.5288253,-0.98281014,-2.0305352,0.6780438
0.34,-2.2440317,0.97391665,-2.8214269,-0.9671243,-1.9807808,0.6706124
0.342,-2.6606984,1.221355,-3.1446266,-0.93145186,-1.9170389,0.6573227
0.344,-3.0409498,1.4506118,-3.490626,-0.87649524,-1.8384207,0.63879454
0.346,-3.3802505,1.6566947,-3.8502693,-0.8041995,-1.7446128,0.6161806
0.348,-3.6750338,1.8354087,-4.213186,-0.7176982,-1.6363361,0.5909575
0.35,-3.923119,1.9833994,-4.5690846,-0.62106395,-1.5155089,0.5646336
0.352,-4.1232967,2.0982697,-4.9079113,-0.51895094,-1.3851205,0.5386298
0.354,-4.2754426,2.1787117,-5.220087,-0.41625497,-1.248934,0.51427674
0.356,-4.3806057,2.2245717,-5.4969034,-0.31765586,-1.1111798,0.4928028
0.358,-4.440615,2.236689,-5.730672,-0.22720602,-0.97622204,0.47525072
0.36,-4.4583244,2.2168124,-5.9149227,-0.14794482,-0.84821147,0.46234185
0.362,-4.4374685,2.1676812,-6.044252,-0.08168866,-0.7307432,0.45434928
0.364,-4.3830585,2.092792,-6.1140924,-0.029007658,-0.62656105,0.45108578
0.366,-4.3003874,1.9963903,-6.121149,0.010560498,-0.5374195,0.4519514
0.368,-4.1951585,1.8830495,-6.064107,0.0381976,-0.46404406,0.45597488
0.37,-4.0731335,1.7578361,-5.942733,0.05548448,-0.4061656,0.46197116
0.372,-3.9403117,1.6259887,-5.758255,0.06415936,-0.3626099,0.4686776
0.374,-3.8023906,1.4925117,-5.513073,0.06580633,-0.3316763,0.47498822
0.376,-3.6646276,1.3619771,-5.211071,0.061654925,-0.3116952,0.47980437
0.378,-3.5312648,1.2380943,-4.857623,0.05262464,-0.30076066,0.48189828
0.38,-3.405744,1.1240311,-4.459118,0.03960836,-0.2961467,0.4805145
0.382,-3.290597,1.0221939,-4.0226583,0.02355162,-0.29480028,0.47562873
0.384,-3.1879826,0.9343854,-3.5554163,0.005091306,-0.2952252,0.46756557
0.386,-3.099134,0.86163914,-3.064981,-0.015354415,-0.29689118,0.45637056
0.388,-3.02522,0.8048699,-2.55904,-0.03740323,-0.29869872,0.44152147
0.39,-2.9663148,0.7640865,-2.045393,-0.060979586,-0.2992097,0.42270088
0.392,-2.92178,0.7389077,-1.5313344,-0.08641992,-0.29747698,0.40043756
0.394,-2.8902035,0.7283788,-1.0233119,-0.11407049,-0.29306218,0.37574345
0.396,-2.869615,0.73092633,-0.5272616,-0.14399487,-0.28595132,0.34948364
0.398,-2.8588858,0.7455455,-0.0497427,-0.17598733,-0.2764068,0.32218337
0.4,-2.852402,0.7684429,0.40218437,-0.2097238,-0.2647528,0.29423085
0.402,-2.8456488,0.7978784,0.8253436,-0.24485797,-0.25119317,0.266097
0.404,-2.8422198,0.8335172,1.2239342,-0.28105173,-0.23592176,0.2384207
0.406,-2.846213,0.8749907,1.5999308,-0.3179543,-0.21929191,0.21181108
0.408,-2.854934,0.9205862,1.9436189,-0.3550886,-0.20184328,0.18667725
0.41,-2.8576906,0.96780694,2.2447345,-0.3918773,-0.18421797,0.163162
0.412,-2.8509858,1.0165993,2.5053601,-0.42774007,-0.16712898,0.14121638
0.414,-2.8386297,1.0675248,2.7350037,-0.46223196,-0.15127337,0.1207148
0.416,-2.8217556,1.1173408,2.938773,-0.49505302,-0.13728733,0.10150726
0.418,-2.7985697,1.162259,3.1157854,-0.5260668,-0.1256932,0.08340901
0.42,-2.7658665,1.2001579,3.2628584,-0.55528647,-0.116853565,0.06623265
0.422,-2.7217715,1.2314727,3.3785462,-0.58280075,-0.110903606,0.04986699
0.424,-2.666186,1.2566105,3.4657176,-0.6087294,-0.1076967,0.034271568
0.426,-2.6001382,1.2753589,3.5301044,-0.633212,-0.10681701,0.019485742
0.428,-2.5249798,1.2868422,3.5765595,-0.6563654,-0.1076237,0.005595818
0.43,-2.441572,1.2905345,3.6076143,-0.6782503,-0.10925636,-0.0072333664
0.432,-2.3501158,1.2864904,3.6243205,-0.6988431,-0.110718355,-0.018802851
0.434,-2.2510405,1.2755129,3.6275897,-0.7180588,-0.1109364,-0.028917134
0.436,-2.1459951,1.2590184,3.619512,-0.7357662,-0.10886948,-0.03741765
0.438,-2.0365639,1.2380297,3.602436,-0.7518216,-0.103591084,-0.044196278
0.44,-1.9242218,1.2134161,3.5785236,-0.7660942,-0.094287515,-0.04919833
0.442,-1.8101647,1.1858652,3.5492759,-0.7785116,-0.08031997,-0.05245921
0.444,-1.6958236,1.1564296,3.5155091,-0.7890319,-0.06120023,-0.054070324
0.446,-1.582416,1.1263647,3.477642,-0.7976594,-0.036549598,-0.0541375
0.448,-1.4709747,1.0967753,3.4360914,-0.8044189,-0.006108403,-0.05273004
0.45,-1.3627439,1.06898,3.390819,-0.8093462,0.03019026,-0.049917325
0.452,-1.2589554,1.0442593,3.3418694,-0.81248057,0.07228184,-0.04577738
0.454,-1.160078,1.023309,3.288834,-0.8137975,0.12005684,-0.04036002
0.456,-1.0665157,1.0067282,3.231012,-0.81326175,0.17331737,-0.033682883
0.458,-0.9786917,0.994784,3.1680632,-0.81086135,0.23174883,-0.0257435
0.46,-0.8975767,0.9880127,3.0995212,-0.8066282,0.29486096,-0.01656191
0.462,-0.8233298,0.98642415,3.0248556,-0.800666,0.3619721,-0.0062013716
0.464,-0.75593567,0.9899867,2.9430707,-0.79318005,0.43219918,0.005218804
0.466,-0.6953075,0.9989443,2.8532617,-0.784462,0.50454485,0.017528966
0.468,-0.6413653,1.0132159,2.7549071,-0.77487665,0.57786834,0.030515768
0.47,-0.59425974,1.0327151,2.6479878,-0.7648939,0.6508672,0.043905824
0.472,-0.5542448,1.0571942,2.5328262,-0.7550382,0.722104,0.057381637
0.474,-0.5208916,1.0862021,2.4094932,-0.7458085,0.79012996,0.07057868
0.476,-0.49365038,1.1190903,2.2781992,-0.7376863,0.85353386,0.08313078
0.478,-0.47202492,1.1552542,2.1395018,-0.7311057,0.91099775,0.09470044
0.48,-0.4559883,1.194374,1.9938881,-0.72641104,0.96137613,0.10499169
0.482,-0.44510007,1.2356939,1.8418815,-0.7238088,1.0038289,0.11379465
0.484,-0.43887687,1.2787111,1.6839539,-0.7233699,1.0378187,0.120993786
0.486,-0.4369262,1.3228264,1.5207258,-0.72504413,1.0631407,0.1265541
0.488,-0.43883693,1.367757,1.3532492,-0.7286365,1.0798808,0.130575
0.49,-0.44403303,1.4129337,1.1829326,-0.7338307,1.0884256,0.1332196
0.492,-0.45228487,1.4578741,1.0113238,-0.74020666,1.0894569,0.1347294
0.494,-0.46295607,1.5021127,0.8396208,-0.74730825,1.0838461,0.13537386
0.496,-0.4756738,1.5452785,0.6690094,-0.75467205,1.0726234,0.13540256
0.498,-0.4897098,1.5869079,0.5005113,-0.7618741,1.0568893,0.13500684
0.5,-0.5046313,1.6268487,0.3350918,-0.7685314,1.037733,0.13435271
0.502,-0.5200139,1.6649904,0.17374945,-0.77435017,1.0162122,0.13356197
0.504,-0.5355596,1.7011452,0.017339975,-0.7791086,0.9933662,0.13271247
0.506,-0.5506607,1.7352254,-0.13317221,-0.78263736,0.97014636,0.13186522
0.508,-0.5645116,1.7668027,-0.27667397,-0.78482866,0.9473559,0.13106039
0.51,-0.576251,1.7956588,-0.4116854,-0.7855965,0.9256412,0.13033077
0.512,-0.58648723,1.8218986,-0.5379663,-0.7848628,0.9054706,0.1296971
0.514,-0.595579,1.8459452,-0.6568769,-0.78254634,0.8871439,0.12919137
0.516,-0.6026758,1.8678126,-0.7693126,-0.7785879,0.8708069,0.12879264
0.518,-0.60686326,1.8876957,-0.8748247,-0.7729659,0.8564877,0.1284616
0.52,-0.60813236,1.9057364,-0.9718157,-0.76575136,0.8440896,0.12813628
0.522,-0.60678357,1.9220295,-1.0585932,-0.7570837,0.83346605,0.1277462
0.524,-0.6022281,1.9363053,-1.1343201,-0.7471563,0.8245016,0.12722893
0.526,-0.59373945,1.9484125,-1.1990573,-0.7362012,0.8171556,0.12656821
0.528,-0.58114564,1.9584063,-1.253556,-0.72446185,0.8114802,0.12580454
0.53,-0.56438667,1.9666855,-1.2990265,-0.7121234,0.80759895,0.12501863
0.532,-0.54340166,1.9734001,-1.3364407,-0.69927627,0.80573684,0.12436147
0.534,-0.5182282,1.9788511,-1.3662014,-0.6858838,0.80620676,0.124053985
0.536,-0.48926854,1.9832834,-1.3881302,-0.6718052,0.8093547,0.124342695
0.538,-0.45715958,1.9870439,-1.4020338,-0.65682495,0.8155276,0.12545717
0.54,-0.42271337,1.9905841,-1.4078739,-0.6406745,0.8251009,0.12760583
0.542,-0.38641235,1.9943316,-1.4063756,-0.6230645,0.83853835,0.13092355
0.544,-0.3488564,1.9988613,-1.3979903,-0.60372114,0.8563674,0.13549703
0.546,-0.31047255,2.0045023,-1.3835733,-0.58244276,0.87902397,0.14136975
0.548,-0.2718695,2.0117218,-1.3637449,-0.55907077,0.90681756,0.14855263
0.55,-0.23377013,2.0209513,-1.3394424,-0.53350997,0.9399843,0.15698057
0.552,-0.19698107,2.0326092,-1.311648,-0.5057619,0.97867215,0.16649252
0.554,-0.16207694,2.0470726,-1.2813854,-0.4759903,1.0229158,0.17689984
0.556,-0.12963964,2.0646498,-1.249614,-0.44446307,1.072576,0.18804431
0.558,-0.10039738,2.0857391,-1.217178,-0.41148785,1.127259,0.19974029
0.56,-0.07492152,2.110507,-1.1850003,-0.37738317,1.1863048,0.2117508
0.562,-0.053818494,2.1391847,-1.1545284,-0.34250867,1.2487847,0.22377142
0.564,-0.037647724,2.1720417,-1.1269573,-0.3072934,1.3135502,0.23549807
0.566,-0.026617557,2.2090676,-1.1029973,-0.27225852,1.3793123,0.24661383
0.568,-0.021140814,2.2504783,-1.0838573,-0.23805895,1.444719,0.2568046
0.57,-0.020712018,2.295778,-1.0705482,-0.20547435,1.5083995,0.26578638
0.572,-0.025092661,2.3443623,-1.0636599,-0.17538613,1.5689608,0.27324745
0.574,-0.034289718,2.3956025,-1.0633883,-0.14865565,1.6250101,0.27886137
0.576,-0.048333943,2.4486606,-1.0699174,-0.12607276,1.6752217,0.28230813
0.578,-0.06710416,2.5028484,-1.0834236,-0.10826808,1.718276,0.28325334
0.58,-0.09034178,2.557584,-1.1041293,-0.09568989,1.7528582,0.2813354
0.582,-0.117627114,2.6122677,-1.1321596,-0.08858681,1.7776625,0.2761722
0.584,-0.14866331,2.6662543,-1.1671588,-0.087035,1.7914796,0.26742515
0.586,-0.18327257,2.718855,-1.2082742,-0.09096259,1.7932355,0.2548183
0.588,-0.22106788,2.7695665,-1.2542175,-0.10021794,1.7820472,0.23815978
0.59,-0.26161018,2.8175077,-1.3034264,-0.11458266,1.7573618,0.21740943
0.592,-0.30452195,2.862245,-1.3542006,-0.13379532,1.7191057,0.19273716
0.594,-0.34923255,2.903212,-1.4048536,-0.15758526,1.667592,0.16456944
0.596,-0.39488274,2.9399014,-1.4536835,-0.1856808,1.6034764,0.13354439
0.598,-0.44071853,2.9717467,-1.4989178,-0.21773028,1.5278137,0.10042155
0.6,-0.48607892,2.998545,-1.5390726,-0.2532581,1.4420893,0.06595948
0.602,-0.53001857,3.0199068,-1.5726751,-0.29169068,1.3480098,0.030939043
0.604,-0.5717056,3.035785,-1.5982993,-0.33233884,1.2472894,-0.0038823187
0.606,-0.61019087,3.0459957,-1.6143426,-0.3744012,1.1415404,-0.037883326
0.608,-0.64466,3.0505712,-1.6194966,-0.41699392,1.0322368,-0.07070689
0.61,-0.67423296,3.0494988,-1.6123332,-0.45929432,0.920676,-0.10224825
0.612,-0.69812965,3.0429757,-1.5919069,-0.5006506,0.807978,-0.13252907
0.614,-0.71554005,3.0312784,-1.5574968,-0.54061145,0.6951127,-0.161646
0.616,-0.7262091,3.0149202,-1.5085509,-0.5788878,0.58292353,-0.18970667
0.618,-0.7298524,2.994538,-1.4450599,-0.6153488,0.4721492,-0.21679856
0.62,-0.7265798,2.9708967,-1.3673241,-0.6499566,0.36344457,-0.24292873
0.622,-0.71548814,2.944531,-1.2750332,-0.6827326,0.2574925,-0.2680017
0.624,-0.6958141,2.9158928,-1.1671685,-0.71371853,0.15504637,-0.2917953
0.626,-0.6687056,2.8860648,-1.0443698,-0.74295396,0.056988627,-0.3139626
0.628,-0.6352519,2.856154,-0.90885234,-0.77048695,-0.03568268,-0.33410317
0.63,-0.59589887,2.82727,-0.7636969,-0.7963231,-0.12190476,-0.35180235
0.632,-0.5509701,2.8005812,-0.61141944,-0.8204268,-0.20055723,-0.36667398
0.634,-0.50201654,2.7776341,-0.4537052,-0.84269327,-0.27055806,-0.37840876
0.636,-0.45056218,2.7596667,-0.29143828,-0.8629699,-0.3309489,-0.38678378
0.638,-0.39788723,2.7477353,-0.1253624,-0.88107264,-0.3810031,-0.3917129
0.64,-0.34519637,2.742621,0.043465734,-0.8968357,-0.42024073,-0.39323375
0.642,-0.2936527,2.745076,0.21319318,-0.91012263,-0.44846642,-0.39148393
0.644,-0.24457961,2.7559993,0.38122267,-0.92086464,-0.4658515,-0.38672242
0.646,-0.19876456,2.7759387,0.54480964,-0.92906725,-0.47292456,-0.37931392
0.648,-0.15709311,2.8053815,0.70154583,-0.9347911,-0.47044566,-0.3697512
0.65,-0.12042618,2.8444016,0.8496231,-0.93813884,-0.459392,-0.35854423
0.652,-0.08970773,2.8931556,0.9880314,-0.9392499,-0.44096398,-0.34622577
0.654,-0.06567526,2.9514956,1.1158967,-0.9382522,-0.41645688,-0.33330786
0.656,-0.048738837,3.0192251,1.2324699,-0.9352566,-0.38713127,-0.32031634
0.658,-0.03914547,3.0957727,1.3372478,-0.93035007,-0.3541919,-0.3077209
0.66,-0.036662698,3.1803703,1.4302223,-0.9236194,-0.3187351,-0.295909
0.662,-0.040784717,3.2720947,1.5114264,-0.9151294,-0.28167647,-0.28515303
0.664,-0.051179767,3.3699145,1.5811001,-0.9049211,-0.24373144,-0.27559966
0.666,-0.067358136,3.4727387,1.6397618,-0.89305043,-0.20538884,-0.26726794
0.668,-0.08844292,3.5793219,1.6877918,-0.87954617,-0.16694483,-0.26009083
0.67,-0.11306596,3.6882167,1.7260146,-0.8644359,-0.12855753,-0.2539387
0.672,-0.13996708,3.798248,1.7558892,-0.84774804,-0.0902805,-0.24866751
0.674,-0.16804874,3.9081502,1.7785255,-0.8295177,-0.052087426,-0.24410939
0.676,-0.19626987,4.0168285,1.7946904,-0.8097878,-0.013938636,-0.24009365
0.678,-0.22310483,4.123012,1.805273,-0.7886113,0.024275333,-0.23646672
0.68,-0.2473557,4.2257924,1.811353,-0.76604366,0.06267017,-0.23309895
0.682,-0.26803088,4.3243775,1.8134236,-0.7421394,0.10136849,-0.2298697
0.684,-0.28354013,4.4178834,1.8121622,-0.71696854,0.14045644,-0.22670051
0.686,-0.29275417,4.505594,1.8082609,-0.69060016,0.17999075,-0.22353779
0.688,-0.29437733,4.5867414,1.8021897,-0.6630971,0.22000638,-0.22031933
0.69,-0.28742075,4.6606617,1.7944633,-0.6345431,0.2605025,-0.21701911
0.692,-0.27103138,4.7269635,1.7853088,-0.6050225,0.3014449,-0.21360934
0.694,-0.24447,4.785257,1.7749273,-0.5746124,0.34272337,-0.21007776
0.696,-0.20746458,4.8354707,1.7634784,-0.54340166,0.38416916,-0.2064085
0.698,-0.15976965,4.8775296,1.7510123,-0.511471,0.42557868,-0.20258091
0.7,-0.10128534,4.9115767,1.737683,-0.47888213,0.4667058,-0.19859275
0.702,-0.032126665,4.937617,1.7237455,-0.4456976,0.50730586,-0.19442122
0.704,0.04754424,4.9558215,1.709357,-0.41196904,0.5471661,-0.1900585
0.706,0.13734567,4.966348,1.6946763,-0.37773785,0.58611387,-0.18548088
0.708,0.23687994,4.969549,1.6796423,-0.34302717,0.6240478,-0.18064317
0.71,0.34553492,4.96574,1.664437,-0.30785152,0.66090214,-0.17550394
0.712,0.46262956,4.9553833,1.6490023,-0.27224022,0.69665504,-0.17003107
0.714,0.5874834,4.9387417,1.6333562,-0.23621772,0.7313098,-0.16418892
0.716,0.7192068,4.9163637,1.6175066,-0.19987924,0.7648331,-0.15796284
0.718,0.8569268,4.88879,1.6016827,-0.16336995,0.79712003,-0.15135762
0.72,0.9995475,4.85662,1.5859301,-0.12689537,0.8279684,-0.1444204
0.722,1.1460322,4.820412,1.5704931,-0.09072128,0.85707843,-0.1372398
0.724,1.2952898,4.780863,1.5556095,-0.055151492,0.8840602,-0.12994625
0.726,1.44629,4.738529,1.5414225,-0.02053295,0.90842044,-0.12269719
0.728,1.5977962,4.694099,1.528219,0.0127732605,0.92958444,-0.115675956
0.73,1.7486744,4.6482863,1.5161364,0.044443876,0.94694895,-0.109084815
0.732,1.8976419,4.601865,1.505636,0.07419415,0.95992815,-0.103103906
0.734,2.043303,4.555591,1.4970706,0.10182147,0.9680373,-0.0978913
0.736,2.1843638,4.5102205,1.49091,0.12721112,0.9709249,-0.093569815
0.738,2.3196416,4.46649,1.4874817,0.15036613,0.9684533,-0.09019387
0.74,2.4479406,4.425289,1.4872077,0.17139997,0.96073794,-0.0877313
0.742,2.567888,4.3874063,1.4903789,0.19051756,0.94816434,-0.086096585
0.744,2.6784406,4.3535614,1.4975028,0.2080152,0.93136144,-0.085115045
0.746,2.7785547,4.324308,1.5087637,0.22424757,0.9111705,-0.0845626
0.748,2.867415,4.3000317,1.5242643,0.23961899,0.88863146,-0.08417469
0.75,2.9441812,4.28124,1.5440533,0.2545494,0.86492795,-0.08367494
0.752,3.0082664,4.2683535,1.5680866,0.26946622,0.84130466,-0.08277485
0.754,3.058941,4.2617316,1.5962012,0.2847723,0.8189893,-0.08120859
0.756,3.0958169,4.2616715,1.6280425,0.30085957,0.79910815,-0.07876083
0.758,3.1186543,4.2683234,1.663393,0.3180515,0.78262675,-0.07529062
0.76,3.1274345,4.2816634,1.7017345,0.3366438,0.7703186,-0.070717335
0.762,3.1223476,4.3013935,1.7426509,0.35685432,0.7627398,-0.06506345
0.764,3.1037412,4.327154,1.7854805,0.378851,0.76023716,-0.058410197
0.766,3.0723057,4.358435,1.8298852,0.40275052,0.7629412,-0.05087623
0.768,3.0288184,4.3945994,1.8751817,0.4285968,0.7707765,-0.04262203
0.77,2.9742055,4.4348693,1.9208002,0.4563887,0.7834822,-0.033848435
0.772,2.9094765,4.478485,1.9663957,0.48606527,0.8006523,-0.024773091
0.774,2.8357306,4.524575,2.011728,0.5175364,0.82176745,-0.015600592
0.776,2.7542949,4.5722775,2.0562813,0.5506544,0.8462161,-0.0065220296
0.778,2.6668296,4.620558,2.0997043,0.5852449,0.87331915,0.002279818
0.78,2.5748274,4.6685467,2.141731,0.62112427,0.90237725,0.010619521
0.782,2.4796796,4.715199,2.1823344,0.6580673,0.93268573,0.018312871
0.784,2.3828516,4.759761,2.2217515,0.69581175,0.9635428,0.02517277
0.786,2.2858393,4.801447,2.2602415,0.73408115,0.9942803,0.030996323
0.788,2.1899874,4.839637,2.2979503,0.7725701,1.0242996,0.035573483
0.79,2.0963893,4.8738256,2.3349204,0.8109507,1.0530813,0.03869784
0.792,2.0063713,4.9034643,2.3714247,0.8488966,1.0802138,0.04019296
0.794,1.9207488,4.9282045,2.407438,0.88610274,1.1054043,0.039903402
0.796,1.8410195,4.947588,2.4428687,0.9222926,1.128482,0.037742853
0.798,1.7678633,4.961543,2.4776545,0.9572436,1.1494119,0.033715248
0.8,1.7020369,4.970244,2.511415,0.99080163,1.1682727,0.027894914
0.802,1.6440922,4.973807,2.5440125,1.0228853,1.1852126,0.020435452
0.804,1.5943792,4.972595,2.57514,1.0535119,1.200439,0.011524737
0.806,1.5534376,4.9668627,2.6045537,1.0827637,1.2142224,0.0013791919
0.808,1.521441,4.956994,2.6320271,1.110794,1.2268269,-0.009755969
0.81,1.4982404,4.9433155,2.6572173,1.13778,1.2384608,-0.02167362
0.812,1.4837554,4.926332,2.6796565,1.1639172,1.2492692,-0.034187794
0.814,1.4776343,4.9063845,2.6990411,1.1893797,1.259331,-0.047169685
0.816,1.479572,4.8840475,2.7148848,1.2143452,1.2686694,-0.06050265
0.818,1.4891427,4.859633,2.7270808,1.2389611,1.2772529,-0.074121356
0.82,1.505816,4.833578,2.7355008,1.2633474,1.2850008,-0.087997735
0.822,1.5289137,4.8062725,2.7402186,1.2875953,1.2918011,-0.1020782
0.824,1.557579,4.7780733,2.7414193,1.3117999,1.297535,-0.11627948
0.826,1.5910978,4.749255,2.7392807,1.336029,1.3020577,-0.13051361
0.828,1.6285498,4.7200108,2.734107,1.3603088,1.3052034,-0.14471614
0.83,1.669255,4.690466,2.7262752,1.3846596,1.306817,-0.15883636
0.832,1.7123723,4.660838,2.7161975,1.4090927,1.306817,-0.17282736
0.834,1.7568552,4.631255,2.7044575,1.4336162,1.3051708,-0.18661612
0.836,1.8017905,4.6016617,2.6916366,1.4582385,1.3019404,-0.20012182
0.838,1.8461566,4.5720882,2.6783884,1.4829652,1.2972926,-0.21322829
0.84,1.8889896,4.5427246,2.6652162,1.507791,1.2914598,-0.22578561
0.842,1.9291298,4.5136023,2.6526124,1.532723,1.2847586,-0.23760468
0.844,1.9656924,4.484838,2.6410444,1.5577751,1.2775704,-0.24846643
0.846,1.9978946,4.456643,2.63084,1.582967,1.2702726,-0.25820076
0.848,2.0249875,4.428967,2.6222014,1.6083381,1.2632397,-0.26667166
0.85,2.046354,4.401613,2.6153374,1.6339424,1.2568283,-0.2738334
0.852,2.0616872,4.3745365,2.6101086,1.6598258,1.2513766,-0.2797575
0.854,2.0697992,4.3478694,2.6059725,1.6860576,1.2472234,-0.28460926
0.856,2.070636,4.321564,2.603109,1.7126961,1.2446802,-0.2886622
0.858,2.064322,4.2951612,2.6023996,1.7397897,1.243967,-0.29225695
0.86,2.0501761,4.268574,2.6044004,1.7673687,1.2452307,-0.2957734
0.862,2.027647,4.241744,2.6087744,1.7954489,1.248553,-0.29959726
0.864,1.997351,4.2142353,2.6142924,1.8240246,1.2539378,-0.30407286
0.866,1.9600227,4.185772,2.6196842,1.853079,1.261294,-0.30947316
0.868,1.916446,4.156079,2.624332,1.8826022,1.2704881,-0.31596822
0.87,1.8674306,4.1248307,2.6285186,1.9125159,1.2812064,-0.323721
0.872,1.813372,4.0915756,2.6325312,1.9426965,1.2930248,-0.33280873
0.874,1.755141,4.0559354,2.6365972,1.9730484,1.3056175,-0.34322494
0.876,1.6936138,4.0176463,2.6402926,2.0034807,1.3186991,-0.35494953
0.878,1.6295508,3.976729,2.6434093,2.033901,1.332022,-0.36788166
0.88,1.5639708,3.9332087,2.6452985,2.0642445,1.3454344,-0.38183808
0.882,1.4980162,3.8870602,2.645709,2.0944898,1.3588765,-0.39654452
0.884,1.4329169,3.8382835,2.6445346,2.1246731,1.3723754,-0.41167784
0.886,1.3694574,3.78689,2.6419463,2.1548162,1.3859335,-0.42689526
0.888,1.3083248,3.733107,2.6378684,2.1848981,1.399447,-0.4418695
0.89,1.2505155,3.6770146,2.6321168,2.2148986,1.4128456,-0.45631516
0.892,1.196976,3.61877,2.624133,2.2447631,1.4260592,-0.47009218
0.894,1.1485269,3.5587687,2.6132162,2.2743208,1.438886,-0.48314214
0.896,1.1056509,3.497346,2.5988963,2.3033042,1.4508979,-0.4955212
0.898,1.0691507,3.434796,2.5808015,2.331379,1.4614583,-0.50742435
0.9,1.0395044,3.371496,2.55858,2.358151,1.4698365,-0.51912475
0.902,1.016957,3.3079767,2.5319948,2.3832016,1.4752728,-0.5309396
0.904,1.0016598,3.2445178,2.5009384,2.4060705,1.4770195,-0.5431781
0.906,0.9933419,3.1815753,2.465388,2.4263327,1.4742894,-0.5561143
0.908,0.9919009,3.1194143,2.4254568,2.4436345,1.4663129,-0.56998944
0.91,0.9970853,3.0582385,2.3814368,2.4577868,1.4524356,-0.5850116
0.912,1.0087004,2.9981642,2.333606,2.4687753,1.4321799,-0.60134584
0.914,1.0264578,2.9394455,2.2823522,2.4767606,1.4052399,-0.61913747
0.916,1.0495087,2.8824089,2.2282135,2.4820523,1.371582,-0.63849956
0.918,1.0772773,2.8272104,2.1717558,2.4850988,1.3314979,-0.6594739
0.92,1.1091673,2.7741249,2.113802,2.4864192,1.2855904,-0.68203956
0.922,1.1443498,2.7232988,2.0551603,2.4865665,1.2347593,-0.7060829
0.924,1.1821668,2.6748755,1.9968045,2.4861858,1.1803071,-0.73135144
0.926,1.2217497,2.6289046,1.9397106,2.4859586,1.1238011,-0.75752443
0.928,1.262235,2.585298,1.884635,2.4865208,1.0668786,-0.7842308
0.93,1.3031358,2.5439706,1.8322461,2.4884918,1.0112684,-0.81102043
0.932,1.3436227,2.5048347,1.7830987,2.4924345,0.9586686,-0.83743507
0.934,1.383192,2.4676948,1.7376077,2.4988267,0.91059864,-0.86302173
0.936,1.4211705,2.4324288,1.6959466,2.5080266,0.86829484,-0.88737595
0.938,1.4571321,2.3988037,1.6582508,2.5202622,0.8326201,-0.9101395
0.94,1.4905128,2.3665543,1.6245412,2.5356228,0.80406785,-0.93103117
0.942,1.5208824,2.3352118,1.5946796,2.554072,0.78277,-0.94988453
0.944,1.548132,2.3042397,1.5683956,2.575404,0.7683605,-0.96664727
0.946,1.5721486,2.2733042,1.5453632,2.599307,0.7601384,-0.9813326
0.948,1.5925664,2.2419455,1.52527,2.6254432,0.7572347,-0.99409837
0.95,1.6092131,2.2096417,1.5078505,2.6534092,0.7586701,-1.0051847
0.952,1.6221657,2.1758525,1.4926412,2.6827886,0.76336575,-1.0148779
0.954,1.6311724,2.140366,1.4790981,2.713157,0.7701292,-1.0235093
0.956,1.636275,2.1027462,1.4669026,2.744125,0.77771664,-1.031457
0.958,1.6372571,2.0628853,1.4557663,2.7753437,0.78495586,-1.0391026
0.96,1.6342347,2.0206943,1.4453065,2.80649,0.7908362,-1.0467892
0.962,1.6271584,1.9759524,1.4355457,2.8372118,0.7944921,-1.0548093
0.964,1.6166611,1.9283158,1.4265478,2.867132,0.79516274,-1.0633839
0.966,1.602235,1.878011,1.4179384,2.8958845,0.7922169,-1.0727
0.968,1.5836201,1.825358,1.408886,2.9231453,0.7851201,-1.0828972
0.97,1.5614952,1.7703223,1.3991632,2.948628,0.77338964,-1.09411
0.972,1.5360317,1.7129525,1.3897195,2.9721072,0.75663215,-1.106471
0.974,1.5069851,1.6534712,1.381778,2.9934344,0.7345764,-1.1201057
0.976,1.4739488,1.5922171,1.376234,3.0125163,0.7070361,-1.1351414
0.978,1.4369588,1.5294124,1.3729761,3.0292892,0.6739135,-1.1516678
0.98,1.3961453,1.4655056,1.3715367,3.0437565,0.63526326,-1.1697274
0.982,1.3519858,1.4009451,1.3717396,3.0560038,0.59128785,-1.1893096
0.984,1.3046317,1.3361223,1.373712,3.0662076,0.5423449,-1.2103462
0.986,1.2542608,1.2712452,1.3780568,3.0746248,0.48895898,-1.2327036
0.988,1.201382,1.2063262,1.3852662,3.081597,0.43181682,-1.2561846
0.99,1.1463997,1.1413074,1.3958986,3.0875285,0.37175724,-1.2805228
0.992,1.0897717,1.0762631,1.4098244,3.0928342,0.30974525,-1.3054087
0.994,1.0318799,1.0111985,1.4269558,3.0979855,0.24682975,-1.3305001
0.996,0.97334665,0.9460805,1.446976,3.1034274,0.18408668,-1.3554509
0.998,0.91479063,0.88086843,1.4698415,3.10956,0.12256986,-1.3799275
1,0.85683906,0.8153703,1.4953173,3.1167169,0.06323621,-1.4036536
1.002,0.8001697,0.7493576,1.5234506,3.1251688,0.0069172084,-1.4264241
1.004,0.74553436,0.6823979,1.5542016,3.1351032,-0.045727775,-1.4481096
1.006,0.6939281,0.61402833,1.5871866,3.1466148,-0.09425312,-1.4686477
1.008,0.6459881,0.5437899,1.6222017,3.159725,-0.13845144,-1.4880539
1.01,0.60276115,0.47113687,1.6588309,3.1743686,-0.1783734,-1.5063761
1.012,0.5651295,0.39557177,1.6967622,3.1904328,-0.21427868,-1.5237089
1.014,0.5339725,0.3165282,1.7355962,3.2077339,-0.24661383,-1.5401767
1.016,0.5104026,0.23334026,1.7749658,3.2260659,-0.27598578,-1.5559137
1.018,0.4952873,0.14540958,1.8145211,3.2451804,-0.30310488,-1.5710608
1.02,0.48954943,0.05210197,1.8539973,3.2647884,-0.32877904,-1.5857644
1.022,0.4937598,-0.046954453,1.8931504,3.2845995,-0.35383868,-1.600161
1.024,0.5084413,-0.15215397,1.9320275,3.304322,-0.37908116,-1.6143795
1.026,0.5341809,-0.2637086,1.9706663,3.3236551,-0.40526855,-1.62856
1.028,0.5713995,-0.3817945,2.0093255,3.342295,-0.4330716,-1.6428466
1.03,0.6202531,-0.50655115,2.0480976,3.3599558,-0.4630369,-1.6573577
1.032,0.68095475,-0.6378878,2.0873408,3.3763707,-0.4955595,-1.6722059
1.034,0.75314265,-0.77544624,2.1274514,3.3912785,-0.5309311,-1.6874945
1.036,0.8368747,-0.9188355,2.1685796,3.4044654,-0.5692923,-1.7032965
1.038,0.9319488,-1.0673505,2.2109308,3.4157765,-0.61059725,-1.7196406
1.04,1.0377674,-1.2205125,2.2547557,3.4251423,-0.6546565,-1.7364923
1.042,1.1538507,-1.3775165,2.3002257,3.4325807,-0.7011585,-1.753766
1.044,1.279656,-1.5374868,2.3475559,3.438196,-0.74966794,-1.7713056
1.046,1.4142731,-1.6996633,2.3968983,3.4422038,-0.799626,-1.7889017
1.048,1.5568005,-1.8630672,2.448285,3.4449136,-0.850341,-1.8063011
1.05,1.7065339,-2.0268517,2.50173,3.4467342,-0.9010016,-1.8232168
1.052,1.8622631,-2.1899261,2.5572464,3.4481454,-0.9507103,-1.8393444
1.054,2.0228565,-2.3512704,2.61475,3.4496634,-0.9985211,-1.854408
1.056,2.1872654,-2.5101523,2.6740239,3.45181,-1.0434208,-1.8681483
1.058,2.354699,-2.6658015,2.7346625,3.455114,-1.0843719,-1.8803273
1.06,2.5242324,-2.8177018,2.796404,3.4600625,-1.1203871,-1.8907452
1.062,2.6948187,-2.9651794,2.8589406,3.4671025,-1.1505616,-1.8992223
1.064,2.8656075,-3.1080172,2.921803,3.4765666,-1.1741073,-1.9055992
1.066,3.0359206,-3.245965,2.9844356,3.4886723,-1.1904175,-1.9098539
1.068,3.2050276,-3.3788671,3.046228,3.503607,-1.1990476,-1.9118669
1.07,3.3722315,-3.5066862,3.1065226,3.5214849,-1.1997604,-1.9114957
1.072,3.5369473,-3.629459,3.164824,3.5423377,-1.1925342,-1.9086488
1.074,3.698739,-3.747271,3.2206204,3.5661476,-1.1775258,-1.9032618
1.076,3.8572385,-3.8605626,3.2733083,3.5928094,-1.1550658,-1.8952987
1.078,4.012354,-3.9696145,3.3225288,3.6221542,-1.1256529,-1.8847789
1.08,4.163763,-4.074803,3.3678708,3.6539667,-1.0899197,-1.871767
1.082,4.311421,-4.1764646,3.4088652,3.687991,-1.0485928,-1.856385
1.084,4.455133,-4.2750254,3.4451995,3.7239287,-1.0024735,-1.8388307
1.086,4.5949183,-4.3709617,3.4764743,3.7614517,-0.95243365,-1.819329
1.088,4.730798,-4.4644995,3.502351,3.8002174,-0.89939237,-1.7981277
1.09,4.862982,-4.5560527,3.522424,3.839874,-0.84426343,-1.7754893
1.092,4.9917383,-4.64577,3.5362082,3.8800788,-0.7879523,-1.7516818
1.094,5.117171,-4.733859,3.54344,3.9205117,-0.7313247,-1.7269607
1.096,5.239492,-4.820443,3.5439086,3.9608462,-0.67519456,-1.7015401
1.098,5.35904,-4.9056196,3.53753,4.000798,-0.6203035,-1.675619
1.1,5.475814,-4.989184,3.5242937,4.040101,-0.5673405,-1.6493734
1.102,5.589872,-5.0710535,3.504367,4.07848,-0.5169514,-1.6229596
1.104,5.7015624,-5.151059,3.4777033,4.115675,-0.46971762,-1.5965302
1.106,5.8110595,-5.229083,3.4445362,4.1514316,-0.42616913,-1.5702351
1.108,5.918689,-5.305001,3.404894,4.1855173,-0.38678485,-1.5442146
1.11,6.0245676,-5.378438,3.358942,4.2177324,-0.35201958,-1.518605
1.112,6.128917,-5.4491987,3.3065798,4.247893,-0.32225448,-1.493552
1.114,6.2319064,-5.5169377,3.247861,4.275883,-0.29777044,-1.4691598
1.116,6.3335867,-5.5813446,3.1826396,4.3016477,-0.27874354,-1.4455044
1.118,6.434106,-5.6420364,3.110742,4.3252435,-0.26519573,-1.4225974
1.12,6.5335727,-5.6987724,3.0322104,4.3468246,-0.256999,-1.4003125
1.122,6.632207,-5.7512956,2.9472508,4.3665466,-0.25385487,-1.3786036
1.124,6.7302113,-5.7995205,2.856754,4.3846436,-0.25529867,-1.3573649
1.126,6.826764,-5.8429728,2.7609253,4.4014153,-0.2607344,-1.3363961
1.128,6.921751,-5.8814,2.659134,4.4171553,-0.26950538,-1.3154761
1.13,7.015482,-5.915056,2.5496912,4.4321613,-0.2809478,-1.29439
1.132,7.108685,-5.943864,2.4318478,4.446684,-0.2944299,-1.2729373
1.134,7.200927,-5.967512,2.3054957,4.4609246,-0.30942768,-1.2509413
1.136,7.2916446,-5.985595,2.1707675,4.475037,-0.3256126,-1.2282708
1.138,7.380451,-5.9978805,2.0274189,4.4890933,-0.34285253,-1.20484
1.14,7.46704,-6.004295,1.875153,4.5031457,-0.36125898,-1.180619
1.142,7.550815,-6.0048065,1.7141782,4.51718,-0.38117194,-1.155645
1.144,7.631172,-5.9995093,1.5453355,4.5311666,-0.40315148,-1.1300162
1.146,7.7079797,-5.9889536,1.3692697,4.545021,-0.4279671,-1.1038913
1.148,7.78219,-5.974052,1.1856474,4.5586486,-0.45651507,-1.0774775
1.15,7.854315,-5.955372,0.9940457,4.571917,-0.48980674,-1.0510352
1.152,7.9231734,-5.932647,0.79478705,4.5846195,-0.5289609,-1.0248557
1.154,7.9872255,-5.9054203,0.5901365,4.596493,-0.575084,-0.9992709
1.156,8.046033,-5.8735957,0.38230118,4.607277,-0.62913626,-0.97462386
1.158,8.099227,-5.837269,0.17249578,4.6167574,-0.6918139,-0.9512086
1.16,8.14635,-5.796656,-0.0382182,4.6248016,-0.76356924,-0.92922056
1.162,8.187238,-5.7522583,-0.24908584,4.6312685,-0.8448317,-0.90882695
1.164,8.222063,-5.704918,-0.45870197,4.636112,-0.935793,-0.89023066
1.166,8.250239,-5.655101,-0.66512275,4.6394477,-1.036226,-0.87364656
1.168,8.271331,-5.6033354,-0.8659536,4.6415267,-1.1455095,-0.85926926
1.17,8.285064,-5.550161,-1.0584953,4.6427455,-1.2627122,-0.84723186
1.172,8.291664,-5.496382,-1.240175,4.6435738,-1.3867985,-0.8376077
1.174,8.292173,-5.4431934,-1.408498,4.644624,-1.5164165,-0.83041304
1.176,8.287525,-5.391925,-1.5613787,4.6466894,-1.6498458,-0.82551765
1.178,8.279104,-5.343697,-1.6971748,4.65066,-1.7851312,-0.8226494
1.18,8.268398,-5.299581,-1.8143301,4.6573873,-1.9203732,-0.82145154
1.182,8.257041,-5.2605658,-1.911732,4.667556,-2.0540006,-0.8215494
1.184,8.2469425,-5.2276807,-1.9882956,4.6816936,-2.1844487,-0.8224952
1.186,8.240286,-5.201706,-2.0432792,4.7002416,-2.3098862,-0.8236454
1.188,8.2388525,-5.1831913,-2.0766554,4.723477,-2.4282815,-0.8242016
1.19,8.244707,-5.1724224,-2.0886383,4.7515383,-2.537452,-0.82318866
1.192,8.259818,-5.169527,-2.0800538,4.784568,-2.6350486,-0.81943667
1.194,8.286086,-5.174055,-2.0520744,4.8227215,-2.718534,-0.81150156
1.196,8.325068,-5.1854773,-2.0063038,4.866272,-2.7853324,-0.79772073
1.198,8.37819,-5.2029133,-1.9445499,4.9156046,-2.8329597,-0.7763393
1.2,8.446572,-5.225105,-1.8689739,4.971225,-2.8591712,-0.745672
1.202,8.530671,-5.2507477,-1.7817719,5.033638,-2.8622377,-0.7042447
1.204,8.630702,-5.278001,-1.6854454,5.1032453,-2.8411484,-0.650946
1.206,8.746514,-5.305041,-1.5825206,5.180219,-2.7958364,-0.5851769
1.208,8.877391,-5.3299065,-1.4753776,5.2643614,-2.727342,-0.50693214
1.21,9.022435,-5.350745,-1.3664567,5.3550067,-2.6378522,-0.4168325
1.212,9.18012,-5.365694,-1.2579472,5.4509845,-2.5305884,-0.31608212
1.214,9.348387,-5.3728294,-1.1515661,5.5506983,-2.40948,-0.20632201
1.216,9.525182,-5.370474,-1.0487833,5.652286,-2.2787864,-0.08938897
1.218,9.708025,-5.3573427,-0.9505601,5.7536736,-2.1430972,0.03286773
1.22,9.894391,-5.3324437,-0.8576156,5.8527136,-2.0071297,0.15869403
1.222,10.081709,-5.2950807,-0.7701547,5.9473925,-1.8752911,0.28647178
1.224,10.267085,-5.244712,-0.68804014,6.035986,-1.7513938,0.41485077
1.226,10.447554,-5.181059,-0.61051095,6.1171737,-1.6384358,0.54277134
1.228,10.62011,-5.104269,-0.53663707,6.190002,-1.5387648,0.66948575
1.23,10.781768,-5.0145283,-0.46547568,6.2538953,-1.4540646,0.79444826
1.232,10.929696,-4.912348,-0.3963734,6.3086886,-1.3851968,0.91730195
1.234,11.061488,-4.7982483,-0.32886887,6.354616,-1.3321856,1.037853
1.236,11.17556,-4.673307,-0.26156402,6.392226,-1.2943633,1.1560295
1.238,11.27009,-4.538535,-0.19265962,6.4221907,-1.2708596,1.2717631
1.24,11.342737,-4.3944626,-0.11999583,6.4451637,-1.2608572,1.3848933
1.242,11.391522,-4.242037,-0.042933345,6.46185,-1.2633579,1.4952493
1.244,11.415874,-4.082385,0.038492322,6.4729166,-1.277185,1.6026921
1.246,11.415196,-3.9164917,0.12402487,6.47895,-1.3011304,1.7070714
1.248,11.388739,-3.7448921,0.21372771,6.480453,-1.3340498,1.80822
1.25,11.336201,-3.5679092,0.3078637,6.4778414,-1.3748676,1.9060006
1.252,11.257689,-3.3859267,0.40594625,6.471464,-1.4226531,2.0003583
1.254,11.153459,-3.1992247,0.50699544,6.461609,-1.4766212,2.0912948
1.256,11.023506,-3.007667,0.61085105,6.4485307,-1.5360649,2.178844
1.258,10.867909,-2.8110824,0.71794426,6.4324756,-1.6003283,2.2630687
1.26,10.688052,-2.609752,0.82818973,6.4136715,-1.6687523,2.344066
1.262,10.4870615,-2.4048338,0.9406724,6.392381,-1.7406865,2.4219494
1.264,10.267926,-2.1972747,1.0528512,6.3688707,-1.8155067,2.4968376
1.266,10.032874,-1.9874139,1.1631917,6.3434334,-1.8926493,2.5688252
1.268,9.783864,-1.7753956,1.271435,6.316373,-1.9716252,2.6379676
1.27,9.523385,-1.5611833,1.3774786,6.2880135,-2.0520563,2.7042904
1.272,9.2538595,-1.3447522,1.481374,6.2586617,-2.1336415,2.767785
1.274,8.977522,-1.1257973,1.5826191,6.228605,-2.2161884,2.8284206
1.276,8.69735,-0.90466154,1.6808542,6.1980743,-2.2996354,2.886167
1.278,8.416074,-0.68190277,1.7758367,6.167241,-2.384041,2.9409816
1.28,8.136394,-0.45786244,1.8670005,6.136246,-2.4695985,2.9928224
1.282,7.8604198,-0.23268539,1.9539869,6.105188,-2.556551,3.0416527
1.284,7.5896907,-0.0063238144,2.0369694,6.0741563,-2.6451483,3.0874567
1.286,7.3258986,0.22124606,2.116551,6.043274,-2.735587,3.1302252
1.288,7.0708175,0.4495684,2.193828,6.012683,-2.8278863,3.1699963
1.29,6.825674,0.67830217,2.269474,5.982588,-2.921849,3.2068193
1.292,6.5916085,0.907055,2.3439662,5.9532394,-3.0170257,3.2407613
1.294,6.3693957,1.1354843,2.4175198,5.9249244,-3.1126535,3.2719193
1.296,6.1594954,1.3633478,2.490254,5.8979316,-3.2077265,3.3004289
1.298,5.962028,1.5904683,2.5626063,5.872533,-3.301045,3.3265054
1.3,5.7769976,1.8165746,2.6348617,5.8489504,-3.3913164,3.3504453
1.302,5.6037445,2.041625,2.7073188,5.8273416,-3.4772758,3.3726041
1.304,5.441249,2.2654505,2.7801936,5.8078017,-3.5577683,3.393414
1.306,5.2884583,2.4880142,2.8536015,5.7902684,-3.6319528,3.4133234
1.308,5.144039,2.7092001,2.9273503,5.7745957,-3.6993392,3.4327774
1.31,5.006496,2.9290485,3.0012374,5.7605596,-3.7597933,3.4521475
1.312,4.874089,3.147809,3.0749722,5.7478523,-3.8135486,3.4716914
1.314,4.745086,3.365474,3.1483757,5.7361293,-3.8612008,3.4915066
1.316,4.617637,3.5823264,3.221066,5.724995,-3.9036329,3.5115213
1.318,4.4892654,3.7988653,3.292985,5.7140756,-3.9418411,3.531508
1.32,4.358195,4.0154343,3.3638136,5.703029,-3.9768326,3.5511112
1.322,4.222409,4.232447,3.4334085,5.6915803,-4.0095096,3.5699348
1.324,4.0799336,4.450362,3.5017903,5.679523,-4.0406017,3.5876122
1.326,3.928917,4.6696024,3.5689993,5.6667247,-4.0706677,3.6038744
1.328,3.767591,4.890734,3.6353245,5.6531377,-4.100007,3.6185622
1.33,3.5945268,5.114365,3.7009232,5.6387753,-4.1287284,3.6316452
1.332,3.408282,5.341147,3.766143,5.623708,-4.1567693,3.643214
1.334,3.2078485,5.571442,3.831305,5.6079974,-4.183965,3.6534896
1.336,2.9928067,5.8057013,3.8963919,5.5917335,-4.210155,3.6627452
1.338,2.7625382,6.044476,3.9613676,5.574989,-4.2352295,3.6712332
1.34,2.5170348,6.2880545,4.026306,5.5578294,-4.259155,3.679111
1.342,2.256299,6.5367208,4.0914097,5.540307,-4.2820177,3.6863818
1.344,1.9805464,6.7906604,4.1570034,5.522474,-4.3040295,3.6928787
1.346,1.6903757,7.0497513,4.22316,5.5043693,-4.3254976,3.6982641
1.348,1.386552,7.314064,4.2900057,5.486061,-4.3467493,3.7020233
1.35,1.0704045,7.5832043,4.357613,5.4676294,-4.3681145,3.7035482
1.352,0.74352646,7.8567057,4.425919,5.449174,-4.3898883,3.7021523
1.354,0.4076217,8.134038,4.4948883,5.4308367,-4.4122887,3.697187
1.356,0.06458014,8.414568,4.5647182,5.412765,-4.435419,3.6880777
1.358,-0.28362072,8.6974535,4.635599,5.395127,-4.4592843,3.6743832
1.36,-0.63515025,8.981844,4.7074904,5.3781343,-4.4837065,3.6558104
1.362,-0.98782974,9.266662,4.780469,5.3619814,-4.5084386,3.6322322
1.364,-1.3395691,9.550944,4.854839,5.346851,-4.5331907,3.603666
1.366,-1.6884909,9.833664,4.9306617,5.3329196,-4.557559,3.570281
1.368,-2.0329158,10.113789,5.008119,5.3203306,-4.581065,3.5323434
1.37,-2.3713274,10.39046,5.0873246,5.3092184,-4.6032014,3.4902205
1.372,-2.7020612,10.662759,5.168293,5.2996716,-4.623502,3.4443407
1.374,-3.0237794,10.929873,5.2513013,5.291731,-4.641532,3.3951716
1.376,-3.3353455,11.191083,5.3365345,5.285405,-4.656905,3.3431969
1.378,-3.6356835,11.445696,5.4240646,5.2806373,-4.669289,3.2888741
1.38,-3.9242668,11.693144,5.5139747,5.2773457,-4.6784315,3.2326412
1.382,-4.2004333,11.933055,5.606301,5.275401,-4.684184,3.1749234
1.384,-4.463975,12.16496,5.700905,5.274651,-4.6865,3.116085
1.386,-4.7148724,12.388978,5.797273,5.274946,-4.685444,3.056366
1.388,-4.953442,12.605297,5.8949037,5.276142,-4.6811876,2.9959078
1.39,-5.18015,12.813983,5.9939938,5.2780714,-4.6740065,2.9347353
1.392,-5.395609,13.01527,6.0957584,5.2805824,-4.664253,2.8727899
1.394,-5.601261,13.209594,6.2013884,5.283525,-4.652326,2.8099332
1.396,-5.7984896,13.397411,6.310713,5.286734,-4.6386395,2.7460074
1.398,-5.9877167,13.579204,6.423181,5.2900424,-4.6235743,2.6808307
1.4,-6.1701474,13.755584,6.5402794,5.2932935,-4.6074615,2.614236
1.402,-6.3474245,13.927109,6.663501,5.296311,-4.590527,2.5461273
1.404,-6.520536,14.094134,6.79387,5.2989416,-4.5728936,2.476426
1.406,-6.6907425,14.257002,6.9327855,5.3010383,-4.5545373,2.4051256
1.408,-6.859173,14.415979,7.0814486,5.302453,-4.535307,2.3322897
1.41,-7.027021,14.571563,7.24053,5.3030577,-4.514935,2.2580283
1.412,-7.1950126,14.724097,7.4105363,5.3027487,-4.493099,2.1825042
1.414,-7.3638673,14.873928,7.592146,5.3014193,-4.4694395,2.1059027
1.416,-7.5343914,15.021306,7.785799,5.298966,-4.4436035,2.0283823
1.418,-7.7073154,15.166359,7.991544,5.2952995,-4.41531,1.9500484
1.42,-7.882941,15.3092165,8.209011,5.290318,-4.3843026,1.8709267
1.422,-8.061579,15.449816,8.437758,5.2838626,-4.3504877,1.7909622
1.424,-8.243547,15.58816,8.677012,5.275713,-4.313953,1.7099884
1.426,-8.42893,15.723968,8.9256935,5.2656746,-4.274741,1.6278284
1.428,-8.616999,15.856732,9.18202,5.2535086,-4.233089,1.5442772
1.43,-8.8076935,15.986045,9.444522,5.238883,-4.1895127,1.4590707
1.432,-9.0004,16.111433,9.711341,5.2215176,-4.1445146,1.3719093
1.434,-9.1944,16.232311,9.980406,5.201161,-4.0986123,1.2825027
1.436,-9.389165,16.34806,10.249908,5.1775475,-4.052397,1.1906136
1.438,-9.583837,16.457912,10.517811,5.1504755,-4.006432,1.0960554
1.44,-9.777396,16.560976,10.782342,5.119854,-3.9611673,0.998724
1.442,-9.96876,16.656343,11.041382,5.0857224,-3.9169204,0.898538
1.444,-10.156724,16.743187,11.293025,5.0482416,-3.8738573,0.7954607
1.446,-10.340168,16.820726,11.535745,5.0076814,-3.831942,0.68952215
1.448,-10.517729,16.888277,11.768106,4.9643874,-3.7909229,0.5808395
1.45,-10.688216,16.945068,11.989056,4.918774,-3.7503853,0.46960902
1.452,-10.85028,16.99061,12.197444,4.871256,-3.709816,0.35611808
1.454,-11.002598,17.024424,12.3923,4.8222237,-3.6686008,0.240726
1.456,-11.143748,17.046099,12.573064,4.7720227,-3.6261196,0.123847485
1.458,-11.272717,17.055244,12.739218,4.720919,-3.5817933,0.005911112
1.46,-11.388402,17.051687,12.890375,4.669095,-3.5352108,-0.112659335
1.462,-11.489861,17.035196,13.0267315,4.61665,-3.4861577,-0.2315054
1.464,-11.576505,17.005842,13.148273,4.5635896,-3.4346755,-0.3503492
1.466,-11.647505,16.963676,13.255346,4.509824,-3.3810484,-0.46902597
1.468,-11.702457,16.908989,13.348289,4.4552045,-3.3257923,-0.58748776
1.47,-11.740687,16.842016,13.427868,4.399544,-3.2696095,-0.70576847
1.472,-11.7621355,16.763145,13.494875,4.342616,-3.2133324,-0.82395184
1.474,-11.766752,16.6727,13.549877,4.2842054,-3.157893,-0.94215465
1.476,-11.754732,16.570982,13.593767,4.2241564,-3.1041274,-1.0604591
1.478,-11.726295,16.458353,13.627356,4.1623588,-3.0527735,-1.1789105
1.48,-11.682115,16.335028,13.651662,4.098684,-3.0045853,-1.2975637
1.482,-11.62282,16.201506,13.667794,4.0330997,-2.9600186,-1.4164007
1.484,-11.549292,16.058214,13.676711,3.96564,-2.9192615,-1.5353233
1.486,-11.462328,15.90561,13.67944,3.896316,-2.882488,-1.6541803
1.488,-11.3628845,15.74412,13.677036,3.8251615,-2.8497665,-1.7728461
1.49,-11.252111,15.574219,13.670544,3.752272,-2.8209987,-1.8912238
1.492,-11.131431,15.39646,13.66144,3.6777093,-2.7960477,-2.009236
1.494,-11.002287,15.211484,13.650898,3.6014993,-2.774797,-2.1268086
1.496,-10.866011,15.019645,13.640212,3.5236886,-2.757114,-2.2438874
1.498,-10.723953,14.82157,13.63065,3.4443402,-2.7428331,-2.3604336
1.5,-10.577707,14.618036,13.623459,3.3635595,-2.7318258,-2.4764342
1.502,-10.428944,14.409856,13.619104,3.281514,-2.723924,-2.5918972
1.504,-10.278667,14.197847,13.618168,3.1984425,-2.718834,-2.7068183
1.506,-10.128134,13.982854,13.622378,3.1146579,-2.7161212,-2.8211586
1.508,-9.979594,13.765702,13.632956,3.0305393,-2.7152405,-2.9348369
1.51,-9.833983,13.547311,13.649473,2.9465113,-2.7155216,-3.0477104
1.512,-9.691961,13.328735,13.671705,2.8630261,-2.7161624,-3.1595788
1.514,-9.554956,13.111322,13.700079,2.7805305,-2.7162712,-3.2702084
1.516,-9.423801,12.89603,13.7343855,2.6994405,-2.7149262,-3.3793173
1.518,-9.298903,12.683916,13.774464,2.6201134,-2.7112389,-3.486612
1.52,-9.180954,12.475969,13.820571,2.5428371,-2.704436,-3.5918157
1.522,-9.070469,12.273162,13.872624,2.467817,-2.6939168,-3.6947024
1.524,-8.967687,12.076526,13.930128,2.3951473,-2.679241,-3.7951121
1.526,-8.872365,11.887062,13.992326,2.3248413,-2.6602216,-3.8929749
1.528,-8.784229,11.705748,14.0585,2.2568417,-2.6368937,-3.9883142
1.53,-8.702879,11.533478,14.128128,2.1910257,-2.6094944,-4.081259
1.532,-8.627406,11.370996,14.199996,2.1272306,-2.5784154,-4.171989
1.534,-8.556791,11.219032,14.273214,2.0652928,-2.544167,-4.2607393
1.536,-8.489991,11.078095,14.346891,2.0050497,-2.5072975,-4.3477936
1.538,-8.425862,10.948584,14.420202,1.9463652,-2.4683273,-4.433424
1.54,-8.363047,10.830769,14.492295,1.889105,-2.427714,-4.517908
1.542,-8.29999,10.724501,14.562563,1.8331558,-2.3858466,-4.601493
1.544,-8.23525,10.629532,14.630447,1.7784196,-2.3430152,-4.6844096
1.546,-8.167286,10.545479,14.695637,1.7248231,-2.2993772,-4.7668576
1.548,-8.094812,10.471893,14.757971,1.6722999,-2.2549968,-4.8490143
1.55,-8.016703,10.408104,14.817449,1.620773,-2.2098775,-4.931018
1.552,-7.9314456,10.353355,14.874117,1.5701678,-2.1639414,-5.012976
1.554,-7.838045,10.30691,14.927986,1.5204272,-2.117023,-5.0949697
1.556,-7.7355733,10.267808,14.979043,1.471493,-2.0688987,-5.1770372
1.558,-7.623412,10.234934,15.027595,1.4233334,-2.0192893,-5.2591558
1.56,-7.501195,10.207321,15.073603,1.3759518,-1.9678433,-5.3412437
1.562,-7.368909,10.183839,15.117247,1.3293893,-1.9141206,-5.4231396
1.564,-7.2269225,10.16345,15.1585655,1.2837214,-1.8575953,-5.50461
1.566,-7.075905,10.145327,15.197254,1.2390568,-1.7976803,-5.585327
1.568,-6.9164553,10.12862,15.2331295,1.1955194,-1.7337853,-5.664878
1.57,-6.749701,10.1125145,15.265722,1.1532128,-1.6653799,-5.742804
1.572,-6.5769143,10.096603,15.294479,1.1122191,-1.592031,-5.81864
1.574,-6.3992205,10.080062,15.31876,1.0725646,-1.513451,-5.89192
1.576,-6.218321,10.062597,15.337675,1.0342014,-1.4295797,-5.9622426
1.578,-6.0355916,10.043686,15.35033,0.9970274,-1.3406651,-6.0292916
1.58,-5.852936,10.023146,15.355759,0.9608798,-1.2471817,-6.092861
1.582,-5.672385,10.001003,15.353133,0.9255521,-1.1498756,-6.152858
1.584,-5.495562,9.977074,15.341763,0.8908267,-1.0497411,-6.2092977
1.586,-5.3239594,9.95134,15.320751,0.85646045,-0.9479952,-6.2623453
1.588,-5.1591463,9.923875,15.289518,0.82221484,-0.8459768,-6.312244
1.59,-5.002077,9.894868,15.247526,0.78786755,-0.7450665,-6.359293
1.592,-4.853502,9.8641,15.194369,0.7532103,-0.64663017,-6.403857
1.594,-4.71348,9.831485,15.129948,0.71806455,-0.5519273,-6.4462895
1.596,-4.5819087,9.796806,15.054738,0.6822696,-0.46203208,-6.4869595
1.598,-4.4585166,9.759927,14.969589,0.645676,-0.37787938,-6.526183
1.6,-4.342575,9.720699,14.875517,0.608173,-0.30023742,-6.5642815
1.602,-4.2328086,9.678761,14.773274,0.5696728,-0.22965813,-6.6015463
1.604,-4.1279263,9.633785,14.664495,0.5301094,-0.16656423,-6.6382713
1.606,-4.0263567,9.585402,14.55072,0.48944676,-0.11127162,-6.674737
1.608,-3.9261289,9.533066,14.433603,0.4476577,-0.063964605,-6.7112036
1.61,-3.8250566,9.476131,14.314763,0.40473247,-0.024762392,-6.747937
1.612,-3.7208958,9.413839,14.196159,0.3606683,0.0063347816,-6.785206
1.614,-3.6116214,9.345483,14.0796795,0.31548727,0.029461145,-6.8232183
1.616,-3.4952521,9.270508,13.967144,0.26918995,0.044860363,-6.8621416
1.618,-3.3696365,9.188335,13.860352,0.22176492,0.052821875,-6.902063
1.62,-3.233027,9.098303,13.760577,0.1732217,0.053764105,-6.943062
1.622,-3.084383,9.000079,13.668966,0.12357378,0.04825282,-6.985176
1.624,-2.922584,8.893248,13.585823,0.072868705,0.036952496,-7.0283794
1.626,-2.7467637,8.777687,13.511257,0.02114582,0.020631313,-7.0726275
1.628,-2.5567575,8.653227,13.444764,-0.03152871,0.00012207031,-7.117844
1.63,-2.3526344,8.519866,13.385443,-0.085071206,-0.023627996,-7.163899
1.632,-2.1346493,8.377641,13.332079,-0.13934624,-0.04958272,-7.2106333
1.634,-1.9036667,8.226679,13.283211,-0.1942023,-0.0766747,-7.25786
1.636,-1.6610968,8.067271,13.237108,-0.24944139,-0.103803635,-7.3053675
1.638,-1.4085674,7.8997526,13.191888,-0.30482352,-0.12988281,-7.3529315
1.64,-1.1480227,7.7244816,13.145044,-0.3600843,-0.15390635,-7.4003277
1.642,-0.88136435,7.5419846,13.094191,-0.41492712,-0.17500019,-7.447366
1.644,-0.61100435,7.352834,13.036737,-0.46904588,-0.19244385,-7.493924
1.646,-0.33935046,7.1578217,12.970331,-0.5221356,-0.20569396,-7.539917
1.648,-0.06876254,6.9576187,12.892884,-0.57390475,-0.21444201,-7.585371
1.65,0.19848418,6.7529573,12.8025,-0.62410986,-0.21865702,-7.6304035
1.652,0.46036172,6.544551,12.697356,-0.6725341,-0.2185452,-7.675269
1.654,0.7148237,6.3332653,12.575848,-0.71900356,-0.21454954,-7.720292
1.656,0.9604254,6.119794,12.4369545,-0.76336074,-0.2073214,-7.765868
1.658,1.1958393,5.9049473,12.280222,-0.8054424,-0.1976211,-7.8124037
1.66,1.4202253,5.6893325,12.105991,-0.8450956,-0.18628883,-7.860313
1.662,1.6326551,5.473611,11.915476,-0.8821532,-0.17418242,-7.9099464
1.664,1.8330187,5.2582803,11.710238,-0.9164571,-0.16213799,-7.961567
1.666,2.0210829,5.044124,11.492439,-0.94786716,-0.15096593,-8.015333
1.668,2.1975281,4.831938,11.26433,-0.97626644,-0.14138317,-8.07129
1.67,2.3630762,4.622584,11.028689,-1.0015461,-0.13397455,-8.129372
1.672,2.5189776,4.4169407,10.788515,-1.0236498,-0.12925124,-8.189484
1.674,2.6666603,4.215864,10.546893,-1.0425972,-0.12770748,-8.251438
1.676,2.8080077,4.0201864,10.307316,-1.0584738,-0.1298523,-8.315073
1.678,2.944894,3.8305476,10.073355,-1.071446,-0.13618422,-8.380249
1.68,3.0796285,3.6476078,9.848505,-1.0817362,-0.14723444,-8.446836
1.682,3.2146401,3.4717255,9.635909,-1.0896374,-0.16356754,-8.514757
1.684,3.3520858,3.303556,9.438688,-1.0955135,-0.1858058,-8.583976
1.686,3.4944544,3.143448,9.259506,-1.0997932,-0.21462679,-8.65448
1.688,3.6436574,2.9919984,9.101044,-1.102958,-0.2507348,-8.726292
1.69,3.8019962,2.8494346,8.96523,-1.1055088,-0.29487944,-8.799435
1.692,3.9718983,2.7157378,8.853573,-1.1079944,-0.3478284,-8.8739395
1.694,4.155316,2.5911531,8.767224,-1.1109799,-0.41034794,-8.949834
1.696,4.3537374,2.4756649,8.707224,-1.1150336,-0.48320913,-9.027129
1.698,4.568667,2.3691556,8.67392,-1.1207379,-0.56721306,-9.105852
1.7,4.801061,2.2713468,8.667517,-1.1286454,-0.6631012,-9.186031
1.702,5.0514784,2.182066,8.687737,-1.1392555,-0.7715349,-9.267666
1.704,5.3200955,2.101239,8.734021,-1.1529977,-0.89304733,-9.350731
1.706,5.6068783,2.0287979,8.805252,-1.1702397,-1.0280738,-9.435179
1.708,5.9118996,1.9645636,8.900409,-1.1912987,-1.1768894,-9.52091
1.71,6.2349024,1.9082267,9.018614,-1.2164247,-1.3396156,-9.607759
1.712,6.574993,1.859683,9.159113,-1.245831,-1.5162139,-9.695507
1.714,6.9312034,1.8188603,9.320848,-1.279707,-1.706492,-9.78386
1.716,7.301958,1.7857809,9.503168,-1.318231,-1.9101133,-9.872469
1.718,7.685477,1.7607169,9.705257,-1.3615552,-2.126573,-9.96094
1.72,8.079913,1.7440848,9.926327,-1.4098136,-2.3552532,-10.048866
1.722,8.483531,1.7364411,10.165449,-1.4631569,-2.5954738,-10.135837
1.724,8.894258,1.7385876,10.421967,-1.5217323,-2.8465016,-10.22146
1.726,9.310144,1.7511966,10.695557,-1.5856917,-3.1075482,-10.305391
1.728,9.728705,1.7752447,10.985855,-1.655194,-3.377821,-10.387387
1.73,10.147803,1.8117261,11.292889,-1.7304158,-3.656561,-10.467295
1.732,10.565916,1.8612154,11.616568,-1.8115113,-3.9430199,-10.545021
1.734,10.981124,1.9244041,11.957258,-1.8986006,-4.236437,-10.620513
1.736,11.391939,2.0024476,12.315134,-1.9917586,-4.5360184,-10.693778
1.738,11.797331,2.096305,12.690401,-2.090975,-4.8409157,-10.764853
1.74,12.196651,2.2067394,13.083021,-2.1961603,-5.1502256,-10.833771
1.742,12.589265,2.3344393,13.493135,-2.3071132,-5.46299,-10.900554
1.744,12.975246,2.4797196,13.92054,-2.4235263,-5.7781496,-10.965174
1.746,13.355234,2.642994,14.365053,-2.5449567,-6.0945444,-11.027532
1.748,13.730101,2.8243227,14.826185,-2.6708431,-6.4109344,-11.087481
1.75,14.101198,3.0235448,15.303333,-2.8005161,-6.726017,-11.144796
1.752,14.470449,3.2401185,15.795557,-2.933235,-7.0384455,-11.199195
1.754,14.840164,3.4733095,16.30156,-3.0682614,-7.3469014,-11.250354
1.756,15.213227,3.7218218,16.81966,-3.2048857,-7.6501617,-11.29795
1.758,15.592746,3.9841719,17.347961,-3.34243,-7.947039,-11.3416815
1.76,15.981881,4.2585974,17.884293,-3.4802854,-8.236427,-11.381322
1.762,16.383741,4.5430427,18.426397,-3.6178703,-8.517434,-11.41678
1.764,16.802034,4.834753,18.971869,-3.7547078,-8.789289,-11.447971
1.766,17.239872,5.131058,19.518068,-3.890349,-9.051319,-11.474894
1.768,17.70021,5.428877,20.062458,-4.0243597,-9.303026,-11.497628
1.77,18.185322,5.7255116,20.602386,-4.15633,-9.544025,-11.516301
1.772,18.697506,6.017798,21.13531,-4.2858453,-9.774008,-11.530973
1.774,19.238653,6.302714,21.658878,-4.4124727,-9.992725,-11.541654
1.776,19.810295,6.5770707,22.170603,-4.5357447,-10.199936,-11.548208
1.778,20.412949,6.8379216,22.667957,-4.6551714,-10.395346,-11.550336
1.78,21.046875,7.0821514,23.148945,-4.770235,-10.578653,-11.547573
1.782,21.711288,7.3072844,23.611794,-4.8804026,-10.749508,-11.539262
1.784,22.405107,7.510735,24.05538,-4.9851403,-10.907469,-11.524628
1.786,23.126575,7.690276,24.479013,-5.0839233,-11.052088,-11.502873
1.788,23.87299,7.843993,24.88213,-5.1762877,-11.182937,-11.473202
1.79,24.64175,7.970178,25.264805,-5.261781,-11.299597,-11.434843
1.792,25.429379,8.067728,25.62741,-5.339966,-11.401674,-11.387148
1.794,26.232494,8.135683,25.97077,-5.4103966,-11.488819,-11.329634
1.796,27.047714,8.173289,26.295834,-5.4726377,-11.5607605,-11.261967
1.798,27.87135,8.180343,26.603666,-5.526212,-11.617321,-11.184023
1.8,28.699818,8.157003,26.895512,-5.570625,-11.658481,-11.095879
1.802,29.529858,8.103223,27.172842,-5.605357,-11.684339,-10.997808
1.804,30.358566,8.019424,27.43718,-5.6298747,-11.695143,-10.89028
1.806,31.183199,7.906031,27.690092,-5.6436634,-11.691262,-10.773888
1.808,32.001297,7.763722,27.933308,-5.646175,-11.673153,-10.649267
1.81,32.810936,7.5932584,28.168486,-5.6369,-11.641428,-10.517028
1.812,33.61045,7.395614,28.39747,-5.615386,-11.596901,-10.37773
1.814,34.398422,7.171571,28.62176,-5.581262,-11.540522,-10.231816
1.816,35.17406,6.9222145,28.842484,-5.534243,-11.473347,-10.079591
1.818,35.9369,6.648754,29.060194,-5.4741516,-11.396578,-9.921271
1.82,36.687202,6.3524213,29.274948,-5.4009547,-11.311571,-9.756884
1.822,37.42599,6.034064,29.486668,-5.314766,-11.219847,-9.58632
1.824,38.155025,5.694434,29.694874,-5.215851,-11.123067,-9.409469
1.826,38.876556,5.3341074,29.89899,-5.104593,-11.023058,-9.226274
1.828,39.592834,4.9536653,30.098442,-4.981509,-10.921783,-9.036777
1.83,40.30617,4.5538387,30.292713,-4.847164,-10.8212185,-8.841154
1.832,41.0196,4.1349683,30.481297,-4.702104,-10.723316,-8.6397
1.834,41.73585,3.6976817,30.663517,-4.5469313,-10.629944,-8.432768
1.836,42.458035,3.242652,30.838474,-4.382184,-10.542771,-8.220769
1.838,43.18973,2.7707615,31.004875,-4.208328,-10.463143,-8.004094
1.84,43.934666,2.2828557,31.160995,-4.025769,-10.39206,-7.7830687
1.842,44.696823,1.7801285,31.30518,-3.8348489,-10.330233,-7.5579634
1.844,45.48059,1.26398,31.435907,-3.6358752,-10.278068,-7.3289247
1.846,46.29032,0.73540366,31.551973,-3.4291701,-10.235772,-7.096003
1.848,47.13037,0.1960808,31.652897,-3.2150912,-10.203485,-6.8591905
1.85,48.00511,-0.35190463,31.738743,-2.993959,-10.181284,-6.6184683
1.852,48.91922,-0.9056902,31.810406,-2.7660692,-10.169229,-6.37378
1.854,49.876915,-1.4617274,31.870026,-2.531656,-10.167434,-6.124979
1.856,50.882645,-2.0160942,31.920677,-2.290943,-10.176157,-5.871809
1.858,51.940308,-2.5637155,31.966053,-2.0441089,-10.195817,-5.61396
1.86,53.05346,-3.0987542,32.010353,-1.791329,-10.227024,-5.3511457
1.862,54.22526,-3.6138227,32.05824,-1.5327785,-10.270588,-5.0831194
1.864,55.458313,-4.1005025,32.114914,-1.2686418,-10.327388,-4.8096786
1.866,56.75453,-4.550205,32.186882,-0.9990529,-10.398221,-4.5306015
1.868,58.115833,-4.9545927,32.280193,-0.7240157,-10.483727,-4.245583
1.87,59.54308,-5.305727,32.401676,-0.4433701,-10.584292,-3.9541647
1.872,61.036354,-5.592716,32.557632,-0.15672946,-10.699913,-3.6555998
1.874,62.592773,-5.8015466,32.752937,0.13655186,-10.830072,-3.3487902
1.876,64.21303,-5.921336,32.997505,0.43733668,-10.973692,-3.032233
1.878,65.897644,-5.9415708,33.302986,0.746603,-11.129216,-2.703981
1.88,67.63806,-5.8403435,33.67591,1.0652931,-11.29474,-2.3617492
1.882,69.41824,-5.5898585,34.11608,1.3941824,-11.468165,-2.0030422
1.884,71.2428,-5.1881657,34.63123,1.7336621,-11.647496,-1.625416
1.886,73.11047,-4.6292124,35.236824,2.0836663,-11.830942,-1.2267215
1.888,75.00986,-3.8862438,35.933884,2.4437423,-12.016929,-0.80532885
1.89,76.93144,-2.9295855,36.717712,2.8130198,-12.204355,-0.3603413
1.892,78.877426,-1.7414145,37.5904,3.1903164,-12.392644,0.10830289
1.894,80.83989,-0.3015542,38.549767,3.574294,-12.581623,0.5997319
1.896,82.8091,1.4153681,39.58907,3.9635305,-12.771358,1.1122227
1.898,84.77405,3.4326582,40.706497,4.356621,-12.962091,1.6434398
1.9,86.729385,5.7620335,41.906303,4.7524724,-13.153464,2.1909115
1.902,88.66975,8.412983,43.198944,5.1502256,-13.344604,2.7523987
1.904,90.594955,11.412391,44.580917,5.5491548,-13.534315,3.3258882
1.906,92.500336,14.773636,46.028862,5.9487715,-13.720634,3.910009
1.908,94.39365,18.500431,47.54161,6.348778,-13.900429,4.50447
1.91,96.25864,22.608505,49.11778,6.7496977,-14.0687475,5.110138
1.912,98.07915,27.09325,50.787193,7.152911,-14.218997,5.7289286
1.914,99.79084,31.95714,52.58797,7.5589805,-14.345654,6.365243
1.916,101.34213,37.206863,54.54242,7.9683065,-14.442767,7.0270934
1.918,102.816765,42.79204,56.69527,8.383179,-14.50047,7.7248125
1.92,104.36451,48.683025,59.02085,8.806217,-14.5075035,8.469258
1.922,106.005,54.86213,61.523445,9.238392,-14.454283,9.272174
1.924,107.68361,61.272034,64.209595,9.679686,-14.330876,10.146357
1.926,109.40004,67.90191,67.1006,10.129818,-14.125334,11.10429
1.928,111.134796,74.69813,70.21622,10.58722,-13.824946,12.157368
1.93,112.89821,81.59211,73.58821,11.047759,-13.417775,13.316225
1.932,114.710724,88.53297,77.3049,11.505507,-12.892105,14.590996
1.934,116.599205,95.47407,81.35301,11.955504,-12.233158,15.991236
1.936,118.5909,102.35283,85.59856,12.391724,-11.426002,17.523643
1.938,120.74307,109.1883,89.98732,12.804439,-10.458847,19.190048
1.94,122.85088,115.91751,94.7531,13.181882,-9.320871,20.985407
1.942,125.28329,122.19344,99.99313,13.510946,-8.000424,22.904951
1.944,127.88414,127.90483,105.657166,13.777761,-6.482136,24.941849
1.946,130.66339,133.08444,111.58969,13.969286,-4.7495337,27.090836
1.948,133.61113,137.6445,117.714355,14.0810375,-2.790121,29.341106
1.95,136.8021,141.45468,123.949585,14.114045,-0.5984993,31.66261
1.952,140.24828,144.4506,130.24539,14.073844,1.8348341,34.024193
1.954,143.95866,146.62933,136.52187,13.968626,4.5182877,36.38108
1.956,147.93484,148.01144,142.66742,13.812176,7.4542437,38.677788
1.958,152.189,148.60817,148.547,13.623093,10.62971,40.860855
1.96,156.72322,148.43884,153.99762,13.42358,14.010521,42.88605
1.962,161.5165,147.53383,158.86684,13.238657,17.552046,44.70228
1.964,166.52983,145.94753,162.9997,13.095635,21.20905,46.24003
1.966,171.7123,143.75119,166.23642,13.014683,24.927937,47.436813
1.968,176.99313,141.03119,168.42192,13.003632,28.603455,48.24529
1.97,182.28188,137.88408,169.42229,13.091153,32.131424,48.592033
1.972,187.47795,134.41121,169.13231,13.287087,35.437553,48.444164
1.974,192.47064,130.7174,167.47931,13.562001,38.43768,47.795883
1.976,197.14113,126.90868,164.42403,13.883621,41.058075,46.630844
1.978,201.37067,123.08243,159.96451,14.214172,43.239326,44.929943
1.98,205.04074,119.32269,154.13544,14.499391,44.919754,42.682198
1.982,208.03731,115.69559,147.01181,14.677755,46.046906,39.881435
1.984,210.25253,112.25232,138.70703,14.696633,46.591854,36.52806
1.986,211.58708,109.029755,129.35815,14.522586,46.54669,32.637104
1.988,211.96945,106.04876,119.12481,14.134369,45.920006,28.239765
1.99,211.35928,103.304474,108.19854,13.522541,44.73669,23.397655
1.992,209.73376,100.77967,96.79996,12.688724,43.03898,18.21468
1.994,207.07358,98.471985,85.15207,11.63821,40.880936,12.837376
1.996,203.39706,96.36069,73.476135,10.376297,38.32331,7.4390316
1.998,198.7576,94.39909,62.00606,8.906612,35.427357,2.2080746
2,193.22743,92.539696,50.9665,7.2309065,32.25484,-2.673647
2.002,186.8871,90.748764,40.55349,5.3482018,28.867937,-7.0450993
2.004,179.84674,88.99265,30.942455,3.2656364,25.326538,-10.780246
2.006,172.23253,87.239395,22.282005,1.0034361,21.67879,-13.821163
2.008,164.18242,85.46873,14.681692,-1.4029245,17.971382,-16.16701
2.01,155.83398,83.678185,8.212039,-3.9070277,14.254931,-17.872684
2.012,147.32788,81.87077,2.9074678,-6.45365,10.587858,-19.040728
2.014,138.79797,80.03917,-1.2164307,-8.982697,7.0332246,-19.797916
2.016,130.37732,78.19623,-4.1630096,-11.435123,3.647306,-20.257227
2.018,122.17973,76.36395,-5.991396,-13.759931,0.4757433,-20.500887
2.02,114.32827,74.55267,-6.783497,-15.911891,-2.4361734,-20.597092
2.022,106.92329,72.791275,-6.665304,-17.85381,-5.01737,-20.592257
2.024,100.07942,71.09528,-5.7712326,-19.581427,-7.2329473,-20.480164
2.026,93.859314,69.473465,-4.2210026,-21.078917,-9.084646,-20.270508
2.028,88.192276,67.9749,-2.1542835,-22.315636,-10.557286,-19.962296
2.03,82.9876,66.606834,0.3528595,-23.284546,-11.644632,-19.526867
2.032,78.30017,65.35551,3.1821823,-23.9873,-12.352314,-18.941868
2.034,74.21853,64.2334,6.2160397,-24.42145,-12.685455,-18.207836
2.036,70.73807,63.198437,9.33276,-24.590576,-12.664538,-17.343147
2.038,67.85185,62.247303,12.427116,-24.514057,-12.333572,-16.382313
2.04,65.50856,61.37633,15.399805,-24.227413,-11.750881,-15.373722
2.042,63.645382,60.555496,18.128675,-23.770363,-10.982742,-14.369417
2.044,62.19671,59.75142,20.611504,-23.1852,-10.098743,-13.425459
2.046,61.101585,58.94806,22.92961,-22.517496,-9.170946,-12.598711
2.048,60.281723,58.06722,25.050535,-21.813652,-8.270478,-11.937447
2.05,59.87419,57.130787,26.719265,-21.118225,-7.4616156,-11.472234
2.052,59.48347,56.373283,27.906033,-20.470705,-6.7964025,-11.212035
2.054,59.283463,55.731182,28.728924,-19.902538,-6.3123083,-11.144962
2.056,59.228886,55.045227,29.351042,-19.435589,-6.031162,-11.24125
2.058,59.290344,54.32205,29.807146,-19.081736,-5.9596624,-11.4574585
2.06,59.36712,53.60784,30.119421,-18.84381,-6.091239,-11.742081
2.062,59.437763,52.886703,30.275124,-18.716957,-6.40863,-12.041984
2.064,59.48101,52.11473,30.292233,-18.690172,-6.88713,-12.308528
2.066,59.47922,51.2684,30.209988,-18.74822,-7.497704,-12.502567
2.068,59.403286,50.36695,30.073994,-18.873817,-8.210402,-12.597225
2.07,59.23462,49.441475,29.936626,-19.048523,-8.997626,-12.578565
2.072,58.971893,48.525955,29.823553,-19.252848,-9.833797,-12.4445715
2.074,58.61978,47.643017,29.75671,-19.467813,-10.6949415,-12.202681
2.076,58.180527,46.810886,29.760244,-19.676476,-11.561594,-11.867193
2.078,57.662575,46.04295,29.85412,-19.864231,-12.41913,-11.455928
2.08,57.076702,45.34941,30.045166,-20.0183,-13.255627,-10.986795
2.082,56.429497,44.73818,30.329176,-20.127888,-14.060549,-10.475634
2.084,55.725807,44.21242,30.69611,-20.184536,-14.824562,-9.935448
2.086,54.96962,43.77085,31.134548,-20.181938,-15.53912,-9.376004
2.088,54.16101,43.41366,31.633278,-20.115398,-16.19617,-8.804064
2.09,53.300648,43.141804,32.182137,-19.981577,-16.787998,-8.224148
2.092,52.39005,42.9554,32.770493,-19.778341,-17.307234,-7.6395397
2.094,51.433685,42.850624,33.38787,-19.504578,-17.747019,-7.053095
2.096,50.43464,42.8236,34.029552,-19.160269,-18.101479,-6.468155
2.098,49.386448,42.869484,34.694817,-18.7465,-18.36637,-5.889082
2.1,48.28281,42.983154,35.37658,-18.265387,-18.539349,-5.3213015
2.102,47.126476,43.15817,36.06024,-17.719988,-18.620163,-4.770998
2.104,45.919765,43.38685,36.730827,-17.114214,-18.610695,-4.2444143
2.106,44.662,43.66234,37.37473,-16.452827,-18.514824,-3.7471876
2.108,43.352837,43.97872,37.977783,-15.741213,-18.33797,-3.283586
2.11,41.993023,44.331738,38.527016,-14.985371,-18.086958,-2.8560543
2.112,40.586426,44.71647,39.012207,-14.191775,-17.769508,-2.4650173
2.114,39.13582,45.12701,39.42472,-13.367207,-17.393896,-2.1089058
2.116,37.64272,45.555614,39.758076,-12.518699,-16.968616,-1.7844167
2.118,36.107758,45.992596,40.00811,-11.653352,-16.50199,-1.4869776
2.12,34.531883,46.4278,40.172966,-10.778179,-16.00198,-1.2112722
2.122,32.917534,46.851315,40.25193,-9.900013,-15.475803,-0.9518056
2.124,31.268223,47.254612,40.246056,-9.025383,-14.929927,-0.70334744
2.126,29.58804,47.631104,40.15748,-8.160427,-14.369906,-0.46113038
2.128,27.881609,47.97593,39.989296,-7.3108225,-13.800433,-0.22108197
2.13,26.154284,48.285515,39.745483,-6.48168,-13.225415,0.02017355
2.132,24.41227,48.557056,39.431717,-5.67743,-12.648073,0.26543117
2.134,22.662094,48.789154,39.053986,-4.9018564,-12.071086,0.5169275
2.136,20.910631,48.98146,38.61876,-4.158066,-11.496715,0.7764685
2.138,19.164772,49.134766,38.132706,-3.4484735,-10.926801,1.0454996
2.14,17.431873,49.249855,37.602493,-2.7747865,-10.3628645,1.3251487
2.142,15.718821,49.32797,37.035156,-2.1380873,-9.806102,1.6161989
2.144,14.032011,49.37032,36.43759,-1.5388789,-9.25745,1.9190485
2.146,12.376845,49.37845,35.81689,-0.9771377,-8.717544,2.2336557
2.148,10.75804,49.353687,35.18007,-0.45245576,-8.186719,2.5595167
2.15,9.178986,49.297142,34.534313,0.035891235,-7.665047,2.8956664
2.152,7.642781,49.210373,33.886307,0.48887956,-7.1522427,3.2406862
2.154,6.1519012,49.094913,33.241753,0.9077096,-6.6477246,3.592756
2.156,4.7085805,48.952793,32.60537,1.2936997,-6.1506224,3.9497638
2.158,3.3146214,48.786095,31.980158,1.6482472,-5.659821,4.3094378
2.16,1.9724956,48.59717,31.367935,1.9728844,-5.17399,4.6695337
2.162,0.6839124,48.388855,30.77019,2.269191,-4.691608,5.028
2.164,-0.55004305,48.1644,30.186789,2.5389116,-4.2109528,5.3830705
2.166,-1.7280779,47.926548,29.616434,2.7839537,-3.7301612,5.733342
2.168,-2.8483725,47.677483,29.056833,3.0063891,-3.247291,6.077758
2.17,-3.9095001,47.418804,28.50523,3.208469,-2.7603896,6.4155807
2.172,-4.910365,47.15221,27.957615,3.3926194,-2.2674782,6.7462883
2.174,-5.849642,46.878674,27.409266,3.5613794,-1.7666168,7.0694127
2.176,-6.7264504,46.598976,26.854736,3.7173624,-1.2559545,7.384436
2.178,-7.539028,46.314117,26.287731,3.8631675,-0.73372895,7.6907234
2.18,-8.285706,46.024742,25.700691,4.001337,-0.19836295,7.98747
2.182,-8.964102,45.7312,25.085882,4.1342845,0.3515575,8.273717
2.184,-9.5717125,45.43341,24.435139,4.2643185,0.9173143,8.548385
2.186,-10.105839,45.13114,23.739763,4.3936253,1.5001041,8.8103485
2.188,-10.564176,44.8239,22.991318,4.524283,2.100941,9.058523
2.19,-10.944321,44.511127,22.181501,4.6581616,2.7204292,9.291903
2.192,-11.245087,44.192398,21.30216,4.7968025,3.3586078,9.50959
2.194,-11.465018,43.867455,20.345829,4.941373,4.015074,9.710799
2.196,-11.603172,43.53579,19.305672,5.0925465,4.6888256,9.894836
2.198,-11.6595125,43.197075,18.175716,5.250248,5.377906,10.061087
2.2,-11.634384,42.850952,16.951418,5.4135256,6.079237,10.208976
2.202,-11.529652,42.497475,15.629398,5.5805397,6.788495,10.337799
2.204,-11.347851,42.13706,14.207874,5.748534,7.5000515,10.446562
2.206,-11.092699,41.770344,12.686518,5.9138746,8.206899,10.533988
2.208,-10.768486,41.39817,11.0665,6.0722094,8.900691,10.598347
2.21,-10.380389,41.021217,9.351023,6.218759,9.572039,10.637414
2.212,-9.934915,40.640663,7.5449886,6.348725,10.210859,10.648668
2.214,-9.439221,40.25762,5.655304,6.4575863,10.806697,10.629513
2.216,-8.901083,39.873314,3.6905375,6.5415535,11.349136,10.577597
2.218,-8.329084,39.48921,1.660882,6.5978193,11.828294,10.491147
2.22,-7.731926,39.10683,-0.42190933,6.624751,12.235205,10.3692665
2.222,-7.1184835,38.727394,-2.5446396,6.621932,12.562162,10.212042
2.224,-6.4973955,38.352146,-4.6927333,6.590062,12.802964,10.020535
2.226,-5.877288,37.98224,-6.850485,6.530707,12.95296,9.796659
2.228,-5.2664347,37.618683,-9.001352,6.446057,13.009112,9.543033
2.23,-4.672411,37.26232,-11.128223,6.3386097,12.96998,9.262686
2.232,-4.102232,36.913605,-13.213358,6.210934,12.835609,8.958773
2.234,-3.5619392,36.57282,-15.239261,6.0654793,12.607429,8.634371
2.236,-3.056387,36.23991,-17.18885,5.904445,12.288064,8.292339
2.238,-2.5896263,35.914577,-19.04573,5.7296915,11.881225,7.935274
2.24,-2.1644115,35.596344,-20.794392,5.5427685,11.391549,7.56562
2.242,-1.7824135,35.284557,-22.420624,5.345084,10.824595,7.185732
2.244,-1.4442978,34.978256,-23.91142,5.138064,10.186909,6.7979555
2.246,-1.1494274,34.676414,-25.255346,4.9233217,9.485835,6.4046783
2.248,-0.8968296,34.377884,-26.443169,4.7026515,8.729259,6.0082927
2.25,-0.6845093,34.081486,-27.467592,4.4782014,7.925698,5.611152
2.252,-0.5096626,33.785976,-28.32341,4.252555,7.084459,5.2154665
2.254,-0.3687992,33.490227,-29.00748,4.0286527,6.2154255,4.8232293
2.256,-0.25766754,33.19294,-29.51925,3.8096404,5.328827,4.436215
2.258,-0.17185783,32.89334,-29.860104,3.5987906,4.4350486,4.056004
2.26,-0.10671234,32.59066,-30.033518,3.399365,3.5444145,3.6839266
2.262,-0.057624817,32.284233,-30.044617,3.214488,2.6669137,3.3212574
2.264,-0.020032883,31.973711,-29.900356,3.04699,1.8118241,2.9692583
2.266,0.010097504,31.658817,-29.608862,2.8991961,0.9874115,2.6291368
2.268,0.036561966,31.339806,-29.179497,2.7728703,0.20072043,2.3020139
2.27,0.06274605,31.017025,-28.6227,2.6691055,-0.54256535,1.9888377
2.272,0.092160225,30.69099,-27.950352,2.588387,-1.2382144,1.690413
2.274,0.12837219,30.362015,-27.17471,2.530598,-1.8834682,1.4073303
2.276,0.17403507,30.031212,-26.30851,2.4950762,-2.476976,1.1399217
2.278,0.23076248,29.700008,-25.364813,2.4807062,-3.018654,0.88825107
2.28,0.300395,29.370094,-24.3573,2.4859977,-3.5094688,0.65208113
2.282,0.38427544,29.042583,-23.298838,2.5091825,-3.9512568,0.43084884
2.284,0.48360252,28.718744,-22.201904,2.5483105,-4.346551,0.2237761
2.286,0.5991421,28.399576,-21.078098,2.6013129,-4.6983414,0.029932022
2.288,0.73052883,28.085983,-19.93795,2.6661124,-5.0099344,-0.15168881
2.29,0.8775101,27.779072,-18.790491,2.7406983,-5.2847967,-0.32207203
2.292,1.03895,27.479982,-17.644419,2.823186,-5.526445,-0.48214078
2.294,1.2138367,27.190102,-16.5069,2.9118972,-5.7383075,-0.6327722
2.296,1.4011688,26.910439,-15.384293,3.0053058,-5.923664,-0.77478194
2.298,1.5998545,26.641994,-14.281815,3.1020694,-6.0855675,-0.90889335
2.3,1.8084564,26.385612,-13.203794,3.201024,-6.226804,-1.0357573
2.302,2.0256195,26.1418,-12.153379,3.3012013,-6.349861,-1.1559727
2.304,2.2495956,25.910881,-11.133003,3.4017725,-6.4569416,-1.2701137
2.306,2.4787102,25.69324,-10.144127,3.5020483,-6.549954,-1.3787451
2.308,2.7113914,25.489006,-9.187447,3.6014636,-6.630492,-1.48242
2.31,2.9461432,25.298157,-8.263535,3.699555,-6.699867,-1.5816782
2.312,3.1815705,25.120592,-7.372451,3.7959702,-6.7591023,-1.6770325
2.314,3.4161558,24.955906,-6.513722,3.8904147,-6.8089795,-1.7689185
2.316,3.6485677,24.80373,-5.6867013,3.9826603,-6.8500643,-1.857723
2.318,3.8775053,24.663654,-4.8903904,4.0725245,-6.8827314,-1.9437301
2.32,4.1016607,24.535448,-4.12328,4.1598845,-6.9072213,-2.0271523
2.322,4.3204956,24.418472,-3.38383,4.2446413,-6.923664,-2.108058
2.324,4.5331707,24.312197,-2.6705837,4.3267317,-6.9321084,-2.1864114
2.326,4.739202,24.215979,-1.9820838,4.4061007,-6.9325857,-2.2620776
2.328,4.938384,24.129124,-1.3169265,4.482718,-6.9250975,-2.334832
2.33,5.1304264,24.050657,-0.6739056,4.556592,-6.9096584,-2.4043746
2.332,5.3155165,23.979786,-0.052008867,4.627776,-6.886273,-2.4703548
2.334,5.4938374,23.915522,0.54969,4.6963606,-6.8550024,-2.5324132
2.336,5.665867,23.856905,1.1318586,4.7624817,-6.815923,-2.590187
2.338,5.832207,23.802963,1.6952026,4.826333,-6.769167,-2.6433623
2.34,5.993513,23.752558,2.2401233,4.888119,-6.7149053,-2.691725
2.342,6.150529,23.704815,2.766899,4.948027,-6.653408,-2.7351918
2.344,6.3040266,23.658743,3.275755,5.006233,-6.5850472,-2.7738528
2.346,6.454704,23.613379,3.7670317,5.0628605,-6.510273,-2.8079336
2.348,6.6035275,23.56765,4.24072,5.1179543,-6.4296546,-2.837808
2.35,6.751389,23.52066,4.6968355,5.171483,-6.343839,-2.8639889
2.352,6.8988366,23.471666,5.135353,5.223329,-6.25356,-2.8870785
2.354,7.046784,23.419622,5.556241,5.2732844,-6.1596193,-2.9077342
2.356,7.1957965,23.363785,5.959301,5.3210473,-6.062833,-2.9265957
2.358,7.3463097,23.30354,6.344514,5.366287,-5.963976,-2.9442694
2.36,7.4986434,23.238268,6.7118263,5.408663,-5.863756,-2.9612744
2.362,7.653107,23.167524,7.0611496,5.4478226,-5.762781,-2.9780185
2.364,7.8096714,23.090893,7.392469,5.483487,-5.6615605,-2.994777
2.366,7.9683747,23.008123,7.705767,5.515441,-5.560476,-3.0117083
2.368,8.128807,22.919058,8.0011425,5.543562,-5.459773,-3.0288568
2.37,8.290714,22.823652,8.278629,5.567834,-5.3595877,-3.0461745
2.372,8.453577,22.721977,8.538263,5.5883684,-5.259943,-3.063551
2.374,8.616718,22.614155,8.78029,5.6053495,-5.160773,-3.0808449
2.376,8.779631,22.50044,9.005016,5.619021,-5.0619884,-3.0979614
2.378,8.941544,22.38097,9.212605,5.629677,-4.963475,-3.1148658
2.38,9.101648,22.256163,9.403475,5.6376,-4.8651114,-3.1316519
2.382,9.259356,22.12624,9.577904,5.643058,-4.7668147,-3.1485443
2.384,9.413688,21.991467,9.736303,5.646247,-4.66856,-3.165907
2.386,9.564118,21.852114,9.87899,5.6472955,-4.5703697,-3.1841946
2.388,9.710136,21.708548,10.006319,5.646244,-4.4723,-3.2039466
2.39,9.851256,21.56084,10.118729,5.6430244,-4.374457,-3.2257104
2.392,9.987249,21.409275,10.216549,5.6375,-4.2769747,-3.2499793
2.394,10.117859,21.25398,10.300024,5.6294584,-4.179981,-3.2771432
2.396,10.243084,21.095308,10.369567,5.618684,-4.0835657,-3.3074098
2.398,10.363236,20.933407,10.425471,5.60489,-3.9877896,-3.3408222
2.4,10.478682,20.768396,10.467989,5.587809,-3.8926718,-3.3772702
2.402,10.589848,20.600626,10.497372,5.5671916,-3.7981575,-3.4164734
2.404,10.697556,20.430283,10.513817,5.542857,-3.7041373,-3.4579988
2.406,10.802673,20.257586,10.517441,5.5146847,-3.6104379,-3.5013146
2.408,10.906031,20.082941,10.508368,5.4826636,-3.5168633,-3.5457973
2.41,11.008882,19.906675,10.486693,5.446886,-3.4232028,-3.590796
2.412,11.112334,19.729177,10.452653,5.407528,-3.3292909,-3.635657
2.414,11.217517,19.550999,10.406284,5.364832,-3.2350101,-3.6797948
2.416,11.325373,19.372644,10.347682,5.3191175,-3.1403258,-3.7226975
2.418,11.436994,19.19464,10.277052,5.2707043,-3.0452902,-3.7639647
2.42,11.553346,19.017426,10.194876,5.219903,-2.950136,-3.803321
2.422,11.675308,18.841408,10.101782,5.166991,-2.8552318,-3.8406222
2.424,11.803697,18.666946,9.998226,5.112172,-2.7611473,-3.875864
2.426,11.939047,18.494421,9.884909,5.055544,-2.668606,-3.9091864
2.428,12.081742,18.323946,9.762768,4.9971247,-2.5784554,-3.9408379
2.43,12.232,18.155746,9.632379,4.936844,-2.4916418,-3.971171
2.432,12.389677,17.989943,9.494854,4.8745394,-2.4091501,-4.0005965
2.434,12.554651,17.82649,9.351234,4.8099933,-2.331925,-4.029541
2.436,12.726435,17.665253,9.202826,4.7429533,-2.26082,-4.0584307
2.438,12.904488,17.505894,9.050788,4.6731825,-2.1965055,-4.0876646
2.44,13.088306,17.348228,8.896352,4.600483,-2.1394653,-4.117573
2.442,13.276698,17.19201,8.740806,4.5247107,-2.0899324,-4.1484156
2.444,13.468737,17.037033,8.585327,4.4458466,-2.0479085,-4.180381
2.446,13.663313,16.882961,8.4311695,4.3639526,-2.013154,-4.2135787
2.448,13.859291,16.729607,8.279334,4.2791967,-1.985244,-4.2480626
2.45,14.055368,16.576818,8.130876,4.1918344,-1.96362,-4.2838197
2.452,14.250351,16.424377,7.986614,4.1021967,-1.9476154,-4.3207736
2.454,14.443004,16.272192,7.8473635,4.0106688,-1.9365187,-4.358802
2.456,14.632173,16.12029,7.7137895,3.9176695,-1.9296364,-4.3977427
2.458,14.816656,15.968781,7.5864472,3.8236167,-1.9263108,-4.4374
2.46,14.9954605,15.817644,7.465624,3.7289245,-1.925954,-4.477563
2.462,15.167725,15.667032,7.35166,3.6339703,-1.9280834,-4.5180206
2.464,15.332383,15.517273,7.2444544,3.5391026,-1.9323294,-4.5585647
2.466,15.488773,15.368523,7.1441684,3.4446363,-1.938412,-4.599002
2.468,15.636371,15.221142,7.0506473,3.350853,-1.9461629,-4.639179
2.47,15.774651,15.075472,6.963811,3.2579486,-1.9555128,-4.678985
2.472,15.903158,14.9317665,6.8834653,3.166062,-1.9664843,-4.71838
2.474,16.02167,14.790531,6.809314,3.0752697,-1.979144,-4.757392
2.476,16.129925,14.652117,6.7410235,2.985594,-1.9936013,-4.7960973
2.478,16.228153,14.516882,6.678152,2.8970025,-2.0099516,-4.8345947
2.48,16.316076,14.385372,6.620116,2.809441,-2.028275,-4.8729663
2.482,16.3945,14.257551,6.5665703,2.7228463,-2.048614,-4.9112806
2.484,16.463367,14.1339445,6.51689,2.6371477,-2.070933,-4.9495525
2.486,16.523079,14.014782,6.470518,2.5523162,-2.0951235,-4.9877524
2.488,16.574253,13.900303,6.427145,2.4683566,-2.1209898,-5.0258017
2.49,16.617449,13.790601,6.386073,2.3853176,-2.1482356,-5.0635457
2.492,16.65334,13.685904,6.3468275,2.3032887,-2.1765022,-5.1007934
2.494,16.682756,13.586197,6.3090606,2.2223785,-2.205373,-5.13735
2.496,16.706348,13.491502,6.2723083,2.1427455,-2.2344246,-5.1730075
2.498,16.72481,13.40169,6.2361197,2.0645494,-2.2632043,-5.207576
2.5,16.739153,13.316633,6.2002754,1.9879757,-2.291301,-5.2408814
2.502,16.750076,13.235907,6.164356,1.9132092,-2.3183289,-5.2727704
2.504,16.758287,13.159213,6.1281548,1.8404249,-2.3439708,-5.3031664
2.506,16.764524,13.085879,6.091363,1.7697816,-2.3680227,-5.332045
2.508,16.769478,13.015387,6.0537825,1.7013845,-2.3903873,-5.3594313
2.51,16.773582,12.946946,6.0152225,1.6353102,-2.4111328,-5.3854094
2.512,16.777382,12.879823,5.975621,1.5715542,-2.430443,-5.4101653
2.514,16.781216,12.813215,5.934796,1.5100627,-2.448643,-5.4339447
2.516,16.785318,12.746244,5.892833,1.4507158,-2.4661486,-5.457019
2.518,16.7899,12.678075,5.8496466,1.3933084,-2.483472,-5.479688
2.52,16.79508,12.607787,5.805247,1.3375626,-2.5011988,-5.50228
2.522,16.80083,12.534546,5.7594833,1.283141,-2.519911,-5.5250916
2.524,16.807055,12.457514,5.7124043,1.2296929,-2.5401387,-5.548359
2.526,16.813576,12.375817,5.664043,1.1768236,-2.5623312,-5.572237
2.528,16.820028,12.288799,5.6143236,1.1241329,-2.5868487,-5.5968084
2.53,16.82624,12.195829,5.5632744,1.071229,-2.6139195,-5.6220365
2.532,16.831778,12.096364,5.5108604,1.0177794,-2.6436446,-5.6477985
2.534,16.83627,11.99005,5.457071,0.9635082,-2.6759963,-5.6738787
2.536,16.839428,11.876541,5.4019957,0.90820444,-2.7108128,-5.6999693
2.538,16.84069,11.755919,5.345572,0.85176146,-2.7478476,-5.7257137
2.54,16.839798,11.628062,5.2879615,0.79416883,-2.7867775,-5.7507067
2.542,16.836325,11.493071,5.2289944,0.73550594,-2.8272376,-5.774555
2.544,16.830025,11.351198,5.168916,0.6759219,-2.8688326,-5.796903
2.546,16.820726,11.202883,5.1076174,0.61563134,-2.9111476,-5.8174424
2.548,16.807941,11.048578,5.045265,0.5549102,-2.953774,-5.835942
2.55,16.791636,10.88873,4.9819846,0.49403977,-2.9963067,-5.85223
2.552,16.771767,10.72397,4.9178653,0.43332112,-3.038373,-5.866239
2.554,16.748116,10.554848,4.8530393,0.37304366,-3.0796108,-5.8779583
2.556,16.720572,10.382067,4.787428,0.31349277,-3.119683,-5.887435
2.558,16.68945,10.206127,4.7212176,0.2549367,-3.158267,-5.8947086
2.56,16.654722,10.027862,4.6543503,0.19762826,-3.1950505,-5.8998313
2.562,16.616467,9.847828,4.586752,0.1417892,-3.2297406,-5.902827
2.564,16.574846,9.666807,4.518432,0.08761382,-3.262058,-5.9037194
2.566,16.530048,9.485253,4.449106,0.035267472,-3.2917755,-5.9024825
2.568,16.482285,9.303757,4.3787537,-0.015119076,-3.3186896,-5.899078
2.57,16.431776,9.122893,4.3072324,-0.063482046,-3.3426495,-5.893504
2.572,16.378696,8.943161,4.234294,-0.109790325,-3.363544,-5.8857427
2.574,16.323303,8.764971,4.159885,-0.15406406,-3.3812819,-5.8757977
2.576,16.265816,8.58877,4.083559,-0.19637144,-3.3958166,-5.8636827
2.578,16.206627,8.4147835,4.0051126,-0.23682845,-3.4071355,-5.84945
2.58,16.145885,8.243439,3.9241226,-0.27559352,-3.4152465,-5.8331466
2.582,16.084026,8.075135,3.8403108,-0.3128457,-3.4201725,-5.814839
2.584,16.021091,7.910166,3.7533126,-0.34876597,-3.4219382,-5.79459
2.586,15.957535,7.748706,3.662962,-0.3835523,-3.4205744,-5.7724743
2.588,15.893467,7.5910425,3.5689824,-0.41738093,-3.4161077,-5.7485743
2.59,15.829236,7.4373507,3.4713366,-0.4504019,-3.4085565,-5.7229505
2.592,15.764653,7.2879653,3.3697746,-0.48273325,-3.3979268,-5.695663
2.594,15.70031,7.142791,3.2642708,-0.5144689,-3.3842037,-5.6667805
2.596,15.636196,7.0019836,3.154711,-0.5456519,-3.3673668,-5.636372
2.598,15.572401,6.865707,3.0410204,-0.57629764,-3.3473802,-5.6045036
2.6,15.50905,6.7339687,2.923469,-0.6064019,-3.3242235,-5.571263
2.602,15.446018,6.6067395,2.8021283,-0.63593984,-3.2978747,-5.5367303
2.604,15.383667,6.484116,2.6773224,-0.6648896,-3.268357,-5.500999
2.606,15.321737,6.365999,2.5494251,-0.69321537,-3.235727,-5.4641705
2.608,15.260449,6.252414,2.4189062,-0.7208873,-3.200107,-5.4263463
2.61,15.199654,6.143368,2.2861056,-0.7478782,-3.1616664,-5.387632
2.612,15.1395,6.03889,2.1516843,-0.7741663,-3.1206613,-5.3481565
2.614,15.079906,5.9388733,2.0162086,-0.79974014,-3.0773904,-5.3080344
2.616,15.020947,5.8433347,1.8803225,-0.8245858,-3.0322065,-5.267378
2.618,14.962462,5.752234,1.7446383,-0.8486945,-2.9854975,-5.2262774
2.62,14.904553,5.66564,1.6098286,-0.8720563,-2.9376419,-5.1847878
2.622,14.847355,5.583333,1.4764988,-0.8946895,-2.8890119,-5.142927
2.624,14.790627,5.505414,1.3450978,-0.91660047,-2.8399339,-5.1006317
2.626,14.734683,5.4318075,1.2161814,-0.93782073,-2.7906687,-5.057804
2.628,14.679434,5.3624043,1.09001,-0.9583872,-2.7414205,-5.0143056
2.63,14.624894,5.297172,0.9668911,-0.97837585,-2.6923,-4.9699593
2.632,14.57111,5.2360234,0.847066,-0.9978543,-2.64336,-4.9245853
2.634,14.518103,5.178921,0.7307482,-1.0169041,-2.5945764,-4.87806
2.636,14.46599,5.1258597,0.6178531,-1.0356168,-2.5458918,-4.8302946
2.638,14.414644,5.076647,0.5083032,-1.0540743,-2.4972305,-4.7812905
2.64,14.364027,5.0312467,0.40196657,-1.0723572,-2.4485207,-4.731122
2.642,14.314255,4.9895835,0.29856253,-1.0905323,-2.399715,-4.6799326
2.644,14.265175,4.9513345,0.19783801,-1.1086459,-2.350808,-4.627938
2.646,14.216633,4.9163857,0.09938812,-1.126731,-2.3018494,-4.5753794
2.648,14.168525,4.8845377,0.0028862953,-1.1447995,-2.2529535,-4.5225077
2.65,14.120613,4.855609,-0.09208572,-1.1628385,-2.2042823,-4.469572
2.652,14.072792,4.829379,-0.18587714,-1.1808178,-2.156041,-4.416785
2.654,14.024876,4.8056507,-0.27895105,-1.1986837,-2.1084409,-4.364325
2.656,13.976492,4.784114,-0.37163824,-1.2163832,-2.0616975,-4.312323
2.658,13.927672,4.764505,-0.4642831,-1.2338362,-2.0159962,-4.260874
2.66,13.877831,4.7467785,-0.55710673,-1.2509743,-1.9714785,-4.2100263
2.662,13.82679,4.730507,-0.65039945,-1.2677178,-1.9282273,-4.1597996
2.664,13.77453,4.715726,-0.7443996,-1.284003,-1.886262,-4.1101756
2.666,13.720792,4.70221,-0.8390219,-1.2997624,-1.8455333,-4.0611167
2.668,13.665001,4.689808,-0.9344963,-1.3149381,-1.8059343,-4.012588
2.67,13.607306,4.6783895,-1.030718,-1.3294799,-1.7673419,-3.9645495
2.672,13.547561,4.6679506,-1.1276486,-1.3433756,-1.7296067,-3.9169567
2.674,13.485629,4.6583133,-1.2252282,-1.3566371,-1.6926266,-3.8697767
2.676,13.421448,4.6496,-1.3233125,-1.3692905,-1.656354,-3.8229792
2.678,13.355054,4.6417966,-1.421825,-1.3814054,-1.620815,-3.7765508
2.68,13.286462,4.6349735,-1.5205196,-1.3930974,-1.5861268,-3.7304647
2.682,13.215859,4.629081,-1.6192689,-1.4045293,-1.5524921,-3.6847005
2.684,13.143348,4.6243367,-1.7177628,-1.4159113,-1.5201802,-3.6392512
2.686,13.06911,4.620713,-1.8157268,-1.4274999,-1.4895124,-3.5941045
2.688,12.993351,4.6183205,-1.9129769,-1.4395856,-1.4608256,-3.5492473
2.69,12.916299,4.6173735,-2.0092518,-1.4524764,-1.4344248,-3.5046713
2.692,12.838117,4.6178365,-2.1041856,-1.4664655,-1.4105726,-3.4603744
2.694,12.759291,4.6198606,-2.1975267,-1.4818103,-1.389442,-3.4163613
2.696,12.679954,4.623588,-2.2890935,-1.4986947,-1.3711135,-3.3726344
2.698,12.600464,4.6291122,-2.3787808,-1.5172298,-1.3555536,-3.3291812
2.7,12.521224,4.636446,-2.4664075,-1.5374202,-1.3426132,-3.2859917
2.702,12.442292,4.645844,-2.55192,-1.5591705,-1.3320578,-3.2430363
2.704,12.364091,4.6573524,-2.635207,-1.5822916,-1.3235655,-3.2002792
2.706,12.286867,4.6710525,-2.7162638,-1.6064982,-1.3167595,-3.15768
2.708,12.210896,4.686941,-2.7952013,-1.6314384,-1.3112411,-3.1151822
2.71,12.136228,4.705082,-2.872116,-1.656731,-1.3065873,-3.0727339
2.712,12.063252,4.72555,-2.9472694,-1.6819718,-1.302384,-3.0302742
2.714,11.991892,4.7483044,-3.020898,-1.7067477,-1.2982632,-2.9877567
2.716,11.922452,4.7732897,-3.0932927,-1.7306762,-1.2938881,-2.9451385
2.718,11.85495,4.8004904,-3.1647687,-1.7534084,-1.2890048,-2.9023974
2.72,11.789403,4.829747,-3.2355945,-1.7746538,-1.2834178,-2.8595243
2.722,11.725801,4.861041,-3.3061178,-1.794181,-1.2770092,-2.8165035
2.724,11.66423,4.894231,-3.3766496,-1.8118145,-1.269708,-2.7733634
2.726,11.604583,4.929161,-3.447434,-1.8274325,-1.2615203,-2.7301505
2.728,11.5469,4.9654226,-3.518704,-1.8409703,-1.2524785,-2.6869364
2.73,11.491069,5.002992,-3.5906487,-1.852432,-1.2426553,-2.6438036
2.732,11.436823,5.0416017,-3.6634443,-1.8618361,-1.2321377,-2.6008618
2.734,11.384374,5.08086,-3.7370548,-1.8692362,-1.2210169,-2.5582042
2.736,11.333311,5.1205754,-3.8115933,-1.8747077,-1.2093917,-2.5159545
2.738,11.283595,5.160345,-3.886884,-1.8783212,-1.1973326,-2.4742024
2.74,11.235151,5.1999173,-3.962771,-1.880143,-1.184897,-2.4330528
2.742,11.187715,5.2389336,-4.039158,-1.880229,-1.172131,-2.3925939
2.744,11.141341,5.276992,-4.1157994,-1.878612,-1.1590531,-2.352898
2.746,11.095703,5.3137317,-4.1925483,-1.8752965,-1.1456587,-2.3140116
2.748,11.050916,5.348892,-4.2690473,-1.8702819,-1.1319172,-2.2759664
2.75,11.00675,5.3821473,-4.345031,-1.863543,-1.1177925,-2.238772
2.752,10.96307,5.4132476,-4.420272,-1.8550348,-1.1032233,-2.202409
2.754,10.9198265,5.4420414,-4.4944596,-1.8447145,-1.088134,-2.1668198
2.756,10.876984,5.4681726,-4.5673633,-1.8325201,-1.0724361,-2.1319358
2.758,10.834499,5.491488,-4.63875,-1.8183912,-1.0560333,-2.097654
2.76,10.792207,5.511816,-4.7084627,-1.8022747,-1.0388237,-2.0638602
2.762,10.750097,5.529044,-4.776275,-1.784117,-1.0207106,-2.0304477
2.764,10.707993,5.543085,-4.8421116,-1.763875,-1.0016003,-1.997295
2.766,10.665936,5.5538864,-4.9058504,-1.7415233,-0.98142385,-1.9642912
2.768,10.623783,5.561447,-4.967387,-1.7170398,-0.9601278,-1.9313532
2.77,10.581567,5.5657644,-5.0268555,-1.6904128,-0.9376906,-1.8984272
2.772,10.539307,5.5668306,-5.0842595,-1.6616454,-0.91409314,-1.8654655
2.774,10.49678,5.5646544,-5.139586,-1.6307421,-0.8893739,-1.8324459
2.776,10.454037,5.5592566,-5.193111,-1.5977063,-0.86360294,-1.7993666
2.778,10.411288,5.550979,-5.244811,-1.5625772,-0.83685935,-1.7662363
2.78,10.368272,5.539718,-5.2950907,-1.5253818,-0.8092451,-1.7330586
2.782,10.324929,5.525722,-5.343943,-1.4861621,-0.7808757,-1.699853
2.784,10.281501,5.509057,-5.3916006,-1.4449575,-0.7518736,-1.6666597
2.786,10.237867,5.489929,-5.4382486,-1.4018414,-0.7223751,-1.6334987
2.788,10.193947,5.4684324,-5.484061,-1.3568823,-0.6925015,-1.6004189
2.79,10.149866,5.444857,-5.5291467,-1.3101605,-0.66238284,-1.5674539
2.792,10.105575,5.4193115,-5.573702,-1.261758,-0.63216156,-1.5346391
2.794,10.061156,5.3918867,-5.6179013,-1.2117785,-0.60198647,-1.502011
2.796,10.01664,5.362854,-5.661801,-1.1603123,-0.57201,-1.4695994
2.798,9.971926,5.332421,-5.705494,-1.107454,-0.54241955,-1.4374323
2.8,9.9272375,5.300581,-5.7490144,-1.0533038,-0.5134075,-1.4055504
2.802,9.882598,5.267594,-5.7924643,-0.99794406,-0.4852176,-1.3739856
2.804,9.837972,5.2335315,-5.8358364,-0.94147825,-0.45808604,-1.3427805
2.806,9.793404,5.1987233,-5.8791304,-0.88401634,-0.43228656,-1.3119754
2.808,9.748997,5.163165,-5.922202,-0.8256774,-0.40810564,-1.2816335
2.81,9.70483,5.1271577,-5.965109,-0.76659524,-0.38579273,-1.251806
2.812,9.660886,5.0907564,-6.007755,-0.7069361,-0.3655765,-1.2225493
2.814,9.617278,5.0541983,-6.0500894,-0.64686704,-0.3476479,-1.1939136
2.816,9.574111,5.0176497,-6.0920963,-0.58658403,-0.332119,-1.1659254
2.818,9.531345,4.9812584,-6.1335692,-0.5262628,-0.31905702,-1.1385984
2.82,9.489135,4.945223,-6.174436,-0.4660882,-0.30846536,-1.1119195
2.822,9.447392,4.909649,-6.2145677,-0.4062246,-0.30029458,-1.085843
2.824,9.406383,4.8747163,-6.25403,-0.34680057,-0.2944365,-1.0602994
2.826,9.366143,4.8406315,-6.292623,-0.2879126,-0.2907757,-1.0352142
2.828,9.326642,4.807555,-6.3304243,-0.22961822,-0.28918242,-1.010492
2.83,9.288035,4.775561,-6.367342,-0.17193526,-0.28951976,-0.98603505
2.832,9.250286,4.744806,-6.4033823,-0.11483511,-0.29167777,-0.961746
2.834,9.213472,4.7155356,-6.438679,-0.05827082,-0.29554164,-0.93754196
2.836,9.177757,4.6878686,-6.4733615,-0.0021656603,-0.30100998,-0.91333824
2.838,9.143058,4.662117,-6.50744,0.053564884,-0.3079847,-0.8890545
2.84,9.109351,4.638253,-6.541099,0.10903329,-0.31636262,-0.8646238
2.842,9.076775,4.6164546,-6.5743856,0.16434272,-0.32604933,-0.84000134
2.844,9.045205,4.596819,-6.6075644,0.21959752,-0.3369218,-0.8151332
2.846,9.014805,4.579462,-6.64076,0.2748857,-0.34886873,-0.789992
2.848,8.985538,4.564514,-6.674075,0.33027917,-0.3617678,-0.76455
2.85,8.957292,4.551995,-6.7076426,0.38582724,-0.37551534,-0.7388047
2.852,8.930327,4.5420017,-6.741558,0.44154775,-0.39002645,-0.71276444
2.854,8.904383,4.5345397,-6.775927,0.49744207,-0.40524882,-0.6864633
2.856,8.879677,4.5296683,-6.810588,0.553493,-0.4211541,-0.65996104
2.858,8.85604,4.527457,-6.8454995,0.6096748,-0.43775892,-0.6333411
2.86,8.833556,4.527838,-6.880601,0.6659568,-0.45509776,-0.60669494
2.862,8.812203,4.530845,-6.9157453,0.72230595,-0.47324872,-0.5801232
2.864,8.792025,4.536427,-6.9506946,0.7786935,-0.4923147,-0.55373245
2.866,8.773078,4.544771,-6.9851522,0.83511746,-0.5124071,-0.52762055
2.868,8.755305,4.555665,-7.0189037,0.89158916,-0.5336134,-0.5018515
2.87,8.738795,4.5693283,-7.051647,0.94813687,-0.556023,-0.47645858
2.872,8.723652,4.585579,-7.0831547,1.0047973,-0.57968014,-0.45144457
2.874,8.709886,4.6045756,-7.1130347,1.0616219,-0.604594,-0.42676634
2.876,8.697475,4.6262608,-7.1409583,1.1186641,-0.6307297,-0.40232897
2.878,8.686678,4.650731,-7.166816,1.1759603,-0.6580183,-0.37802902
2.88,8.677409,4.6779175,-7.190138,1.2335621,-0.68633384,-0.35372615
2.882,8.669716,4.707924,-7.210835,1.2915062,-0.71552175,-0.32928398
2.884,8.66374,4.740742,-7.228821,1.3498211,-0.7454132,-0.30457297
2.886,8.659439,4.776423,-7.243852,1.4085236,-0.77584314,-0.27949125
2.888,8.656804,4.814783,-7.255973,1.4676353,-0.8066587,-0.25397104
2.89,8.655979,4.855981,-7.2649803,1.5271647,-0.8377305,-0.22798419
2.892,8.656992,4.8999248,-7.2710233,1.5871277,-0.8689563,-0.2015387
2.894,8.659661,4.9466248,-7.274046,1.6475298,-0.9002826,-0.17469126
2.896,8.664115,4.9960127,-7.2742243,1.7083858,-0.9316849,-0.14749162
2.898,8.670301,5.0480227,-7.271596,1.7697026,-0.9631934,-0.12002568
2.9,8.678188,5.1025085,-7.2663717,1.8314875,-0.9948645,-0.09236324
2.902,8.6876955,5.159574,-7.2586207,1.8937495,-1.0267746,-0.06455891
2.904,8.698747,5.218991,-7.2484155,1.9564902,-1.0590209,-0.036661565
2.906,8.711237,5.2806726,-7.2360373,2.0197253,-1.0916841,-0.008702129
2.908,8.725121,5.344447,-7.221564,2.0834584,-1.1248366,0.019331813
2.91,8.740234,5.4102736,-7.205228,2.1476874,-1.1585298,0.04745671
2.912,8.75667,5.477971,-7.187193,2.2124228,-1.1927786,0.07569215
2.914,8.774228,5.547491,-7.1676197,2.2776704,-1.2275867,0.10407029
2.916,8.792913,5.6185284,-7.146719,2.3434405,-1.2628977,0.132631
2.918,8.812523,5.691187,-7.1245813,2.4097464,-1.2986537,0.16140012
2.92,8.83308,5.7651844,-7.101371,2.476594,-1.3347735,0.19039759
2.922,8.854607,5.8404922,-7.0772066,2.544003,-1.371185,0.21963017
2.924,8.87676,5.9169846,-7.052244,2.611983,-1.4078128,0.24909797
2.926,8.899812,5.994427,-7.0264206,2.6805558,-1.4445944,0.2787918
2.928,8.9235525,6.072816,-6.9999013,2.7497382,-1.4814987,0.30869758
2.93,8.948077,6.152071,-6.972808,2.819549,-1.5185368,0.3387941
2.932,8.97329,6.2319865,-6.945004,2.8900218,-1.5557629,0.369075
2.934,8.999049,6.3123837,-6.916529,2.961162,-1.5932631,0.39953476
2.936,9.025271,6.3932467,-6.8873315,3.0329556,-1.6311333,0.43017185
2.938,9.05194,6.4742866,-6.8572154,3.105384,-1.6695135,0.4609847
2.94,9.079022,6.5554724,-6.826263,3.1784096,-1.708529,0.49197742
2.942,9.106573,6.6366186,-6.7943196,3.2519422,-1.7482994,0.52314454
2.944,9.1344,6.717511,-6.7611566,3.325881,-1.7889054,0.55445206
2.946,9.162426,6.798003,-6.726645,3.4000964,-1.8303972,0.585873
2.948,9.190617,6.877974,-6.690659,3.474435,-1.8727752,0.61736643
2.95,9.218894,6.9572325,-6.6529937,3.5487332,-1.9159863,0.6488799
2.952,9.247111,7.0357447,-6.6135635,3.6228242,-1.9599191,0.68037003
2.954,9.27516,7.1134214,-6.572163,3.6965475,-2.0044296,0.71179384
2.956,9.302971,7.1901712,-6.5286193,3.7697692,-2.0493512,0.74311405
2.958,9.330397,7.266016,-6.482826,3.8423653,-2.0944977,0.77432454
2.96,9.35752,7.3410068,-6.4347486,3.9142504,-2.139691,0.80544335
2.962,9.384008,7.4151945,-6.3841968,3.985375,-2.1847615,0.8364935
2.964,9.409995,7.488662,-6.3311243,4.0557284,-2.2295613,0.8675361
2.966,9.435394,7.561597,-6.275505,4.1253266,-2.2739835,0.8986401
2.968,9.460181,7.634246,-6.2173076,4.194232,-2.3179283,0.9298744
2.97,9.484196,7.706915,-6.1564837,4.2625284,-2.3613377,0.9613122
2.972,9.507574,7.7798305,-6.092827,4.3303266,-2.4041874,0.99302506
2.974,9.530344,7.8535776,-6.026532,4.3977575,-2.4464478,1.0250776
2.976,9.552366,7.9282207,-5.957383,4.4649444,-2.4881,1.0575265
2.978,9.573763,8.004432,-5.885384,4.532023,-2.5291388,1.0904272
2.98,9.594687,8.082342,-5.8104496,4.5991087,-2.5695496,1.1238202
2.982,9.615043,8.16267,-5.7324514,4.666321,-2.6093044,1.157742
2.984,9.63494,8.24568,-5.651419,4.7337365,-2.6483707,1.192236
2.986,9.654509,8.332003,-5.5670776,4.801415,-2.6866984,1.2273345
2.988,9.673746,8.42188,-5.47925,4.8693905,-2.7242656,1.2630622
2.99,9.692884,8.515845,-5.387821,4.937683,-2.7610445,1.2994636
2.992,9.712103,8.614258,-5.2924895,5.006281,-2.7970047,1.336556
2.994,9.731398,8.717499,-5.1930223,5.0751443,-2.8321357,1.3743548
2.996,9.750888,8.8258705,-5.089191,5.144238,-2.866427,1.4128718
2.998,9.770736,8.939726,-4.980715,5.2135153,-2.8998778,1.4521272
3,9.790945,9.059198,-4.8673396,5.282918,-2.932494,1.4921052
3.002,9.811716,9.184548,-4.7487116,5.352421,-2.964261,1.5327907
3.004,9.833111,9.315904,-4.6245356,5.421999,-2.9951873,1.5741503
3.006,9.855033,9.453396,-4.4945035,5.4916496,-3.0252428,1.6161542
3.008,9.87751,9.597151,-4.358336,5.56139,-3.0543756,1.6587534
3.01,9.90064,9.747225,-4.215618,5.6312494,-3.0825052,1.7019196
3.012,9.924301,9.903618,-4.0659876,5.7012796,-3.1095233,1.7456197
3.014,9.948418,10.0663595,-3.9092298,5.7715445,-3.135298,1.7898209
3.016,9.972967,10.235333,-3.7447927,5.8420944,-3.1596646,1.8345159
3.018,9.997828,10.410594,-3.572378,5.9130025,-3.1824455,1.8796892
3.02,10.022741,10.59198,-3.3915563,5.984312,-3.2034278,1.925368
3.022,10.0475,10.779425,-3.2020235,6.056069,-3.2224083,1.9715827
3.024,10.071978,10.97278,-3.0034237,6.1283092,-3.2391744,2.0183847
3.026,10.095776,11.171921,-2.795293,6.201059,-3.2535174,2.065848
3.028,10.118798,11.376619,-2.5772955,6.2743397,-3.2652535,2.114061
3.03,10.140648,11.586746,-2.3491092,6.348162,-3.2742035,2.1631346
3.032,10.160996,11.802065,-2.1103668,6.422541,-3.2801957,2.213198
3.034,10.179789,12.022238,-1.8607368,6.497491,-3.2830672,2.2643886
3.036,10.196277,12.247026,-1.6000276,6.573015,-3.282655,2.3168516
3.038,10.21029,12.476193,-1.3278472,6.6491275,-3.2787647,2.3707068
3.04,10.221493,12.709244,-1.0438881,6.7258186,-3.2711968,2.426076
3.042,10.229383,12.945911,-0.747978,6.803069,-3.259693,2.483057
3.044,10.233612,13.18566,-0.43988228,6.880836,-3.2439952,2.5417325
3.046,10.233899,13.4280205,-0.11954737,6.95905,-3.2237892,2.6021812
3.048,10.229676,13.6723795,0.21310759,7.0376415,-3.1987324,2.6644616
3.05,10.2205515,13.918153,0.5581136,7.1165047,-3.1684577,2.7286136
3.052,10.206165,14.164698,0.91531515,7.19553,-3.1325836,2.7947092
3.054,10.186068,14.411114,1.284473,7.2746205,-3.0906897,2.8628328
3.056,10.15991,14.656876,1.665482,7.353669,-3.0423598,2.9330802
3.058,10.127398,14.900999,2.0578704,7.43256,-2.9871616,3.0055747
3.06,10.088233,15.142594,2.461269,7.511205,-2.9247017,3.0804696
3.062,10.042015,15.38072,2.8750167,7.589502,-2.8546016,3.1579463
3.064,9.988615,15.614347,3.298656,7.6673675,-2.7765079,3.238198
3.066,9.927668,15.842407,3.7312508,7.744707,-2.6901126,3.3214283
3.068,9.859152,16.063602,4.1720867,7.821411,-2.5951605,3.4078352
3.07,9.782786,16.276766,4.620224,7.8973594,-2.4914527,3.497607
3.072,9.698619,16.48052,5.0744967,7.9724045,-2.3788493,3.5908985
3.074,9.606548,16.673626,5.5336943,8.046379,-2.2572553,3.6878538
3.076,9.50649,16.854774,5.9967184,8.11907,-2.126638,3.7885604
3.078,9.398661,17.022467,6.462164,8.190235,-1.9870191,3.893066
3.08,9.28329,17.17531,6.92867,8.259606,-1.838447,4.001379
3.082,9.1604595,17.312054,7.394442,8.326904,-1.6810081,4.1134562
3.084,9.030239,17.431355,7.858151,8.391825,-1.514823,4.229228
3.086,8.893139,17.532156,8.318029,8.4540615,-1.3400061,4.348587
3.088,8.749454,17.613192,8.77238,8.513334,-1.1566665,4.4714055
3.09,8.599483,17.673553,9.219435,8.569374,-0.96491385,4.5975523
3.092,8.443824,17.71209,9.657449,8.62195,-0.76486564,4.7268944
3.094,8.283054,17.728142,10.084751,8.670871,-0.5566008,4.859313
3.096,8.117613,17.721125,10.499407,8.715973,-0.34022117,4.9946976
3.098,7.94795,17.690905,10.899737,8.757151,-0.115831375,5.1329513
3.1,7.7746468,17.637394,11.284048,8.7943535,0.11643386,5.273999
3.102,7.5982437,17.560822,11.650638,8.827538,0.35639024,5.4177513
3.104,7.4194584,17.461645,11.997925,8.856721,0.60378337,5.564143
3.106,7.238848,17.340618,12.324307,8.881902,0.8582995,5.713053
3.108,7.056842,17.198774,12.628488,8.903089,1.1195011,5.8643255
3.11,6.874191,17.037308,12.909084,8.92026,1.3868725,6.0177426
3.112,6.6909385,16.857819,13.165044,8.933328,1.6597764,6.173023
3.114,6.507255,16.66237,13.395351,8.94212,1.9374866,6.3298044
3.116,6.323466,16.452908,13.598923,8.946363,2.2191908,6.4876738
3.118,6.1399302,16.23157,13.774847,8.945671,2.504012,6.6461325
3.12,5.956481,16.00073,13.922395,8.939558,2.7910256,6.8046174
3.122,5.773038,15.762857,14.040932,8.927441,3.0792737,6.962531
3.124,5.5893235,15.520434,14.13044,8.908649,3.367774,7.1192427
3.126,5.405053,15.275691,14.190798,8.882432,3.6555557,7.2740774
3.128,5.219913,15.03112,14.221759,8.848023,3.9416456,7.4263124
3.13,5.033407,14.789394,14.223283,8.804638,4.2251244,7.57524
3.132,4.8449693,14.553138,14.195145,8.751521,4.505115,7.720156
3.134,4.654011,14.3249235,14.13735,8.687966,4.78077,7.8603992
3.136,4.460096,14.107433,14.049802,8.613352,5.0512905,7.9953785
3.138,4.2625313,13.903069,13.932367,8.527123,5.315929,8.124558
3.14,4.061161,13.713837,13.785154,8.428833,5.573908,8.24753
3.142,3.8552704,13.541821,13.608322,8.318162,5.8244376,8.363978
3.144,3.6447535,13.388607,13.402102,8.194968,6.0668283,8.473672
3.146,3.429498,13.255689,13.166737,8.059251,6.3003407,8.576366
3.148,3.2097,13.143638,12.902273,7.9111204,6.5241585,8.671751
3.15,2.9851704,13.053409,12.608918,7.7508173,6.737454,8.759375
3.152,2.756086,12.985564,12.286789,7.578747,6.9394827,8.838646
3.154,2.5228412,12.940437,11.935608,7.395397,7.129471,8.90876
3.156,2.2858558,12.917953,11.55526,7.201367,7.306651,8.968794
3.158,2.0459542,12.917992,11.14563,6.9973693,7.470375,9.017683
3.16,1.8037202,12.940001,10.706627,6.7842083,7.620137,9.054232
3.162,1.5598989,12.983234,10.2381115,6.5628057,7.75566,9.077198
3.164,1.3154354,13.046864,9.739876,6.334094,7.8767943,9.085366
3.166,1.0710738,13.129534,9.211951,6.09908,7.983549,9.077663
3.168,0.82750225,13.229912,8.654547,5.858719,8.075918,9.0532055
3.17,0.5853951,13.34656,8.068129,5.6139073,8.153727,9.011463
3.172,0.34549427,13.477742,7.4532547,5.365445,8.216538,8.952308
3.174,0.10831189,13.62158,6.810546,5.1140203,8.263606,8.87602
3.176,-0.12543607,13.776152,6.1412425,4.860262,8.293801,8.783236
3.178,-0.35542965,13.939355,5.4467125,4.604624,8.305595,8.674833
3.18,-0.58132267,14.108952,4.7287254,4.347484,8.297125,8.551838
3.182,-0.80298245,14.282827,3.9894826,4.089142,8.266371,8.415227
3.184,-1.020131,14.458521,3.2315135,3.8297675,8.211277,8.265724
3.186,-1.2327127,14.633603,2.4575584,3.5694096,8.129837,8.103741
3.188,-1.440709,14.805754,1.6708047,3.3080182,8.020342,7.929334
3.19,-1.6443973,14.97277,0.8747821,3.0454214,7.881514,7.7422533
3.192,-1.8440456,15.132369,0.07360804,2.7813253,7.712593,7.542076
3.194,-2.0397978,15.28235,-0.7287977,2.515369,7.5134344,7.328377
3.196,-2.232173,15.420679,-1.5279981,2.2471337,7.2844486,7.1009483
3.198,-2.4214416,15.545303,-2.3192527,1.9762115,7.026545,6.8600087
3.2,-2.608123,15.654549,-3.0979025,1.702378,6.7411985,6.606366
3.202,-2.7926748,15.746936,-3.859173,1.4256735,6.430354,6.3414764
3.204,-2.9756103,15.820997,-4.5983677,1.1464407,6.096262,6.067349
3.206,-3.1571896,15.875329,-5.3107643,0.86540174,5.7414227,5.786434
3.208,-3.3378787,15.908988,-5.9919662,0.58369374,5.3685994,5.501418
3.21,-3.5179584,15.921074,-6.6379023,0.30280566,4.9807534,5.2150016
3.212,-3.6978822,15.91104,-7.2447405,0.024493694,4.5809097,4.9297695
3.214,-3.8779523,15.878482,-7.8091183,-0.24936938,4.1721015,4.64805
3.216,-4.058469,15.823367,-8.328259,-0.51690054,3.757349,4.371743
3.218,-4.2396197,15.74577,-8.799859,-0.7763182,3.3396554,4.102269
3.22,-4.4217544,15.646066,-9.222119,-1.0260952,2.9219658,3.8405547
3.222,-4.6047363,15.5246315,-9.594052,-1.2650218,2.5071409,3.5870697
3.224,-4.7885375,15.382048,-9.915003,-1.4922035,2.0979304,3.3418956
3.226,-4.9731426,15.219025,-10.18468,-1.7071106,1.696827,3.1048336
3.228,-5.1587853,15.036619,-10.403771,-1.9095513,1.3060529,2.875522
3.23,-5.345277,14.8358345,-10.573297,-2.0995994,0.92751634,2.6535287
3.232,-5.532476,14.617823,-10.694834,-2.2774508,0.56282926,2.4384363
3.234,-5.7201996,14.383921,-10.770673,-2.4434838,0.21324667,2.2298667
3.236,-5.908495,14.13568,-10.803313,-2.598147,-0.120361745,2.027521
3.238,-6.0972056,13.874242,-10.79513,-2.7418933,-0.43741965,1.8311975
3.24,-6.2861276,13.600863,-10.748932,-2.8751798,-0.73762107,1.6407744
3.242,-6.475134,13.316768,-10.667361,-2.9984632,-1.0209601,1.4561608
3.244,-6.663921,13.023233,-10.55348,-3.1121829,-1.2876933,1.277333
3.246,-6.8525124,12.721615,-10.410244,-3.2167459,-1.538258,1.1043226
3.248,-7.0408773,12.41326,-10.240527,-3.3125286,-1.7732526,0.9371856
3.25,-7.2292314,12.09992,-10.047257,-3.3999035,-1.9933481,0.7760024
3.252,-7.417042,11.782856,-9.833311,-3.479194,-2.1992693,0.6208539
3.254,-7.6048865,11.463831,-9.6012945,-3.55074,-2.3917453,0.47182024
3.256,-7.7925363,11.14419,-9.353734,-3.61489,-2.571498,0.32898986
3.258,-7.9804177,10.825724,-9.092584,-3.6719847,-2.7392063,0.1924491
3.26,-8.16831,10.509727,-8.819893,-3.7223916,-2.895489,0.062288642
3.262,-8.356289,10.197356,-8.537253,-3.76652,-3.0409281,-0.061440706
3.264,-8.544588,9.889699,-8.245704,-3.8048089,-3.1760406,-0.17871165
3.266,-8.733353,9.587864,-7.9463553,-3.837711,-3.301265,-0.28952813
3.268,-8.922691,9.292695,-7.640255,-3.8656964,-3.4169767,-0.39392745
3.27,-9.1128025,9.005106,-7.328217,-3.8892417,-3.523486,-0.49195683
3.272,-9.303644,8.725827,-7.010957,-3.9088204,-3.62104,-0.5837033
3.274,-9.4952965,8.45552,-6.6890407,-3.9248593,-3.709808,-0.66928184
3.276,-9.687589,8.194771,-6.363167,-3.9377477,-3.7898839,-0.74883807
3.278,-9.880402,7.943966,-6.0338297,-3.9478154,-3.8612528,-0.82255423
3.28,-10.073505,7.7034426,-5.701751,-3.9552925,-3.9238236,-0.8906495
3.282,-10.266737,7.4733324,-5.3672705,-3.960352,-3.9774492,-0.9533684
3.284,-10.459804,7.253815,-5.0308642,-3.9630659,-4.021924,-1.0109823
3.286,-10.652483,7.044853,-4.693117,-3.963439,-4.057023,-1.0637852
3.288,-10.844273,6.8463707,-4.354513,-3.9613912,-4.0825353,-1.1120973
3.29,-11.034592,6.658148,-4.015514,-3.9567976,-4.0982456,-1.1562393
3.292,-11.223105,6.4798326,-3.6767232,-3.9494848,-4.1040316,-1.1965553
3.294,-11.409221,6.311042,-3.3387005,-3.9392457,-4.0998154,-1.2333994
3.296,-11.592275,6.151212,-3.0019538,-3.9258726,-4.08561,-1.2671192
3.298,-11.771996,5.999903,-2.6670992,-3.909176,-4.0615187,-1.2980499
3.3,-11.947399,5.8563614,-2.334686,-3.888965,-4.027732,-1.3265057
3.302,-12.117815,5.7198887,-2.0054135,-3.865093,-3.9845302,-1.3527552
3.304,-12.2825775,5.589878,-1.6798463,-3.8374453,-3.9322464,-1.3770244
3.306,-12.441062,5.4657145,-1.358592,-3.8059607,-3.871284,-1.3994696
3.308,-12.592802,5.3468137,-1.0423508,-3.7706199,-3.8021002,-1.4202003
3.31,-12.737011,5.232568,-0.7316232,-3.7314475,-3.7251716,-1.4393023
3.312,-12.873247,5.122382,-0.4269848,-3.6885266,-3.6409965,-1.4568181
3.314,-13.000882,5.015663,-0.1288929,-3.6419787,-3.5500872,-1.4727681
3.316,-13.119574,4.9122195,0.16212845,-3.591945,-3.45292,-1.4871387
3.318,-13.228931,4.8114405,0.44570637,-3.538597,-3.3499305,-1.4999262
3.32,-13.328433,4.7130136,0.72159195,-3.482101,-3.2415152,-1.5111208
3.322,-13.417791,4.6167583,0.9894495,-3.4226038,-3.1279817,-1.5206938
3.324,-13.496823,4.5224214,1.2488818,-3.3602364,-3.0095518,-1.5286117
3.326,-13.565211,4.4298816,1.4995799,-3.2950978,-2.8863692,-1.5348349
3.328,-13.622691,4.339085,1.7412567,-3.2272415,-2.7584946,-1.5392902
3.33,-13.669209,4.250034,1.9734969,-3.1566777,-2.6259215,-1.5419064
3.332,-13.704641,4.1628056,2.195962,-3.083383,-2.488611,-1.5425936
3.334,-13.728848,4.077378,2.4082322,-3.0073144,-2.3464608,-1.5412673
3.336,-13.74203,3.99406,2.6100044,-2.928366,-2.199358,-1.537841
3.338,-13.744199,3.9130375,2.800908,-2.8464668,-2.047208,-1.5322244
3.34,-13.735423,3.8345857,2.9803886,-2.7615235,-1.8899366,-1.5243386
3.342,-13.7156925,3.75892,3.1481152,-2.6734574,-1.7275182,-1.5141168
3.344,-13.685308,3.6864448,3.3035789,-2.5822108,-1.55999,-1.5015033
3.346,-13.644385,3.6175015,3.446447,-2.4877453,-1.3874519,-1.4864404
3.348,-13.5932255,3.5523505,3.5761802,-2.390069,-1.2100953,-1.4688996
3.35,-13.53201,3.491373,3.692511,-2.2892046,-1.0281897,-1.4488556
3.352,-13.461237,3.434964,3.795021,-2.1852078,-0.84207284,-1.426314
3.354,-13.381266,3.3833637,3.8834276,-2.0781806,-0.65216655,-1.4013126
3.356,-13.292452,3.3369217,3.9574513,-1.9682534,-0.45895052,-1.3739307
3.358,-13.195118,3.2958498,4.017022,-1.8555971,-0.26297304,-1.3442807
3.36,-13.089661,3.260459,4.061991,-1.7404073,-0.06482108,-1.312533
3.362,-12.976693,3.2310545,4.092368,-1.6229255,0.13489512,-1.2788779
3.364,-12.856393,3.2076607,4.108266,-1.5034082,0.33552927,-1.2435625
3.366,-12.729415,3.190517,4.110113,-1.3821446,0.53642,-1.2068577
3.368,-12.595922,3.1794786,4.0981083,-1.259468,0.73688006,-1.1690542
3.37,-12.456547,3.174564,4.0727315,-1.1357255,0.9362316,-1.1304617
3.372,-12.31166,3.1758738,4.0345173,-1.0112755,1.1338056,-1.0913922
3.374,-12.161804,3.1832635,3.9839377,-0.8865057,1.328992,-1.0521443
3.376,-12.007358,3.1966515,3.921657,-0.76178324,1.5212334,-1.0129906
3.378,-11.848834,3.2159815,3.8482914,-0.6374425,1.7100593,-0.97416985
3.38,-11.686415,3.2411122,3.7646487,-0.51378006,1.8951064,-0.93585056
3.382,-11.520547,3.2719326,3.6714444,-0.39104247,2.0761185,-0.89815605
3.384,-11.351671,3.3082173,3.5693817,-0.2694108,2.2529638,-0.86112887
3.386,-11.180191,3.349897,3.4591818,-0.14901084,2.425601,-0.82476795
3.388,-11.006222,3.3968406,3.3414836,-0.029900432,2.5940492,-0.78901786
3.39,-10.830111,3.448854,3.217121,0.08789706,2.7583828,-0.7537962
3.392,-10.652244,3.5059228,3.0866838,0.20440292,2.9186838,-0.7190161
3.394,-10.472821,3.5678709,2.9508438,0.31963986,3.0750248,-0.68459344
3.396,-10.292197,3.634627,2.810168,0.43362963,3.2274315,-0.6504979
3.398,-10.110482,3.7061343,2.66513,0.5463733,3.3758583,-0.6167338
3.4,-9.928016,3.7823713,2.516388,0.6578411,3.520212,-0.5833766
3.402,-9.744742,3.863277,2.3644423,0.7679777,3.6603298,-0.5505551
3.404,-9.560986,3.9488435,2.2097797,0.8766771,3.795998,-0.5184547
3.406,-9.376794,4.0390825,2.052733,0.9838034,3.926948,-0.4873098
3.408,-9.192232,4.1338744,1.8938799,1.0891817,4.0528965,-0.45735633
3.41,-9.007541,4.233266,1.7335496,1.1926291,4.1735497,-0.4288578
3.412,-8.822819,4.33727,1.5721643,1.2939512,4.288622,-0.4020722
3.414,-8.638186,4.445878,1.4102843,1.3929286,4.397843,-0.37723958
3.416,-8.4535265,4.559009,1.248188,1.4893726,4.5009756,-0.35458255
3.418,-8.268964,4.6767044,1.0864835,1.5831048,4.597849,-0.33425522
3.42,-8.084483,4.798876,0.9256141,1.6739776,4.6883373,-0.31636846
3.422,-7.9000263,4.9256253,0.766042,1.7619026,4.7723875,-0.30099654
3.424,-7.715664,5.057022,0.608227,1.8468295,4.8499904,-0.28812242
3.426,-7.5313177,5.192855,0.45269156,1.9287513,4.9211993,-0.2776829
3.428,-7.346884,5.3334436,0.29999185,2.0076935,4.986103,-0.26958048
3.43,-7.162373,5.4786606,0.15048313,2.0837092,5.0448384,-0.2637061
3.432,-6.977476,5.6284637,0.0046601295,2.156867,5.0975885,-0.2598977
3.434,-6.7920685,5.782883,-0.13702679,2.2272294,5.144538,-0.25800896
3.436,-6.605939,5.9418087,-0.2741108,2.2948673,5.185922,-0.25788248
3.438,-6.418957,6.105209,-0.4063406,2.3598318,5.2219496,-0.2593689
3.44,-6.237095,6.267593,-0.5312811,2.422181,5.252858,-0.26232922
3.442,-6.0555506,6.4328103,-0.6504811,2.4819326,5.2788563,-0.26667106
3.444,-5.874502,6.600535,-0.7638062,2.5390923,5.300122,-0.27233338
3.446,-5.6939664,6.7702246,-0.8711901,2.5936594,5.3168073,-0.27929866
3.448,-5.514101,6.941327,-0.97250116,2.6456053,5.3290186,-0.28760862
3.45,-5.3351192,7.113203,-1.0677058,2.6948757,5.336817,-0.29736757
3.452,-5.1573014,7.285237,-1.1569347,2.7413898,5.340229,-0.30874252
3.454,-4.9808545,7.456621,-1.2402136,2.7850637,5.339201,-0.32194328
3.456,-4.8061523,7.6266866,-1.3177127,2.8257723,5.3336616,-0.3372041
3.458,-4.633576,7.7947826,-1.3895302,2.8633935,5.323491,-0.35478282
3.46,-4.4635615,7.960134,-1.4559944,2.8977866,5.308543,-0.37492418
3.462,-4.296397,8.122105,-1.5172877,2.9288235,5.2886496,-0.39784813
3.464,-4.1325536,8.280156,-1.5736806,2.9563723,5.26363,-0.4237156
3.466,-3.9723272,8.43363,-1.6254501,2.980323,5.233288,-0.4526403
3.468,-3.8161108,8.582181,-1.6729329,3.0007017,5.200011,-0.4828539
3.47,-3.6642656,8.725305,-1.7163527,3.017605,5.162782,-0.51506376
3.472,-3.5170498,8.862732,-1.7560017,3.0311537,5.122183,-0.548815
3.474,-3.3747342,8.994267,-1.792219,3.041549,5.0789638,-0.5835581
3.476,-3.2374089,9.119739,-1.8253607,3.0490582,5.034,-0.61868024
3.478,-3.1054401,9.239235,-1.8556526,3.054005,4.988235,-0.6535827
3.48,-2.9787114,9.352625,-1.8832889,3.0567608,4.9425983,-0.68768644
3.482,-2.8572721,9.459911,-1.9085517,3.0577126,4.8979383,-0.7204983
3.484,-2.7410762,9.561405,-1.931633,3.0572345,4.8549623,-0.7516192
3.486,-2.6301901,9.657138,-1.9528089,3.0556703,4.814196,-0.7807894
3.488,-2.5243726,9.747379,-1.9721236,3.0533311,4.776004,-0.80785894
3.49,-2.4236987,9.832325,-1.9899217,3.0504642,4.7405534,-0.8327799
