Time_s_,Acc_x_m_s_2_,Acc_y_m_s_2_,Acc_z_m_s_2_,Gyro_x_1_s_,Gyro_y_1_s_,Gyro_z_1_s_
0,-6.1570325,0.36352366,4.003653,0.13338947,0.54538786,0.76245445
0.002,-5.8664846,0.18488547,3.8531697,0.1532321,0.6121378,0.7768303
0.004,-5.56473,0.0010102428,3.6998527,0.17433012,0.6816045,0.7927699
0.006,-5.2521234,-0.18757984,3.5444121,0.19616827,0.75213766,0.81004506
0.008,-4.929424,-0.37995768,3.3881485,0.21788543,0.8213537,0.82821256
0.01,-4.5969543,-0.5761557,3.23338,0.2382167,0.88609004,0.84656745
0.012,-4.2554655,-0.77584624,3.0825195,0.2555352,0.94246215,0.86418116
0.014,-3.9058738,-0.97897327,2.9381282,0.26788914,0.98599005,0.87988293
0.016,-3.5489225,-1.1852318,2.8029447,0.27318037,1.0119331,0.8924029
0.018,-3.185357,-1.394182,2.6797962,0.26933292,1.0157549,0.90046465
0.02,-2.8159516,-1.6052557,2.5717497,0.25454682,0.99365973,0.90285254
0.022,-2.442016,-1.8174771,2.481642,0.22755551,0.94308066,0.8985468
0.024,-2.0647793,-2.029849,2.4119914,0.18782532,0.8631952,0.8869852
0.026,-1.685362,-2.241501,2.364468,0.13583958,0.7559487,0.8685746
0.028,-1.3049549,-2.4513743,2.3399181,0.073073,0.62627316,0.84438634
0.03,-0.9243219,-2.6583598,2.3385522,0.0013717711,0.4777881,0.81555325
0.032,-0.54422224,-2.8609998,2.359752,-0.07602754,0.31901935,0.78437996
0.034,-0.1652467,-3.0575352,2.4021056,-0.15542598,0.15955916,0.7535956
0.036,0.21209349,-3.245939,2.463106,-0.23284598,0.009715974,0.7262046
0.038,0.58735275,-3.4241238,2.5390003,-0.30424142,-0.12001793,0.7052978
0.04,0.9601597,-3.5899897,2.625537,-0.36581266,-0.21994418,0.6937441
0.042,1.3300022,-3.7413392,2.717971,-0.41428918,-0.28183123,0.69391996
0.044,1.6964184,-3.8764143,2.8111682,-0.44714713,-0.2996028,0.70747364
0.046,2.0592468,-3.993505,2.8998985,-0.46273655,-0.26985776,0.7351545
0.048,2.4181178,-4.0912437,2.978875,-0.4604006,-0.19221562,0.7767057
0.05,2.7722745,-4.168512,3.0431488,-0.44051135,-0.069499105,0.8308457
0.052,3.121331,-4.2251844,3.0884786,-0.4044115,0.092543155,0.8952868
0.054,3.4647717,-4.2612762,3.111053,-0.35433432,0.28569928,0.96680737
0.056,3.8132591,-4.284604,3.1070046,-0.29320517,0.49990958,1.0413916
0.058,4.153357,-4.2861643,3.0739946,-0.22433448,0.7241247,1.1146092
0.06,4.483922,-4.2678833,3.011888,-0.15123326,0.9471818,1.1820345
0.062,4.8036776,-4.232033,2.9220526,-0.07732242,1.1586559,1.2394967
0.064,5.110926,-4.181022,2.8058033,-0.0057394505,1.3496605,1.2833982
0.066,5.405401,-4.117999,2.6652038,0.060848355,1.5134642,1.3109213
0.068,5.6838074,-4.0447273,2.5030622,0.12038833,1.6458877,1.320246
0.07,5.940281,-3.9619813,2.3248053,0.17152101,1.7453892,1.3105707
0.072,6.1765127,-3.8747778,2.137107,0.21365124,1.8129048,1.2821679
0.074,6.3961773,-3.7893882,1.9399352,0.24689794,1.8515178,1.236358
0.076,6.59612,-3.707366,1.7297763,0.2720101,1.865947,1.1753093
0.078,6.771533,-3.628409,1.509406,0.29025686,1.861868,1.1016773
0.08,6.920822,-3.5535016,1.2860005,0.3031159,1.8448372,1.0181016
0.082,7.0477242,-3.4851377,1.0644315,0.31228667,1.8207875,0.9275698
0.084,7.1503253,-3.4239202,0.84479666,0.31932688,1.7947826,0.8328638
0.086,7.226039,-3.3689826,0.6260253,0.32543546,1.7705601,0.736284
0.088,7.2731953,-3.3193274,0.40935922,0.3314497,1.750649,0.6396054
0.09,7.290078,-3.273221,0.19678366,0.33769125,1.7361572,0.54405874
0.092,7.274574,-3.22822,-0.010864973,0.34395587,1.7268684,0.450409
0.094,7.22466,-3.1816719,-0.21427089,0.34959096,1.7214816,0.35899872
0.096,7.138685,-3.1309817,-0.41539723,0.3535746,1.7177877,0.26984805
0.098,7.0149302,-3.0736842,-0.6155889,0.35465056,1.7128441,0.18266165
0.1,6.8517056,-3.0068026,-0.8151781,0.35147828,1.703209,0.09684116
0.102,6.647074,-2.9263604,-1.0135671,0.34290695,1.6860739,0.011974335
0.104,6.398763,-2.828276,-1.2100335,0.32829612,1.6598597,-0.07165271
0.106,6.104363,-2.7077048,-1.4051168,0.30760473,1.6228694,-0.1532917
0.108,5.7670527,-2.5641358,-1.5952834,0.28121018,1.5731721,-0.2323286
0.11,5.3879976,-2.3946886,-1.780804,0.24995765,1.5098376,-0.30818832
0.112,4.969554,-2.1972916,-1.9601322,0.21534985,1.4336818,-0.37975627
0.114,4.515002,-1.9705726,-2.1316652,0.1795922,1.3469472,-0.44557244
0.116,4.0291877,-1.7144016,-2.29388,0.14527346,1.2525134,-0.5040516
0.118,3.5188498,-1.4301834,-2.4456227,0.11505817,1.1537693,-0.5534183
0.12,2.991709,-1.1198918,-2.5863404,0.091545284,1.054882,-0.59159154
0.122,2.4564142,-0.7868359,-2.7156596,0.076977044,0.96048015,-0.6164979
0.124,1.9220755,-0.43528345,-2.8333569,0.0727928,0.87490636,-0.62649804
0.126,1.3980882,-0.07054353,-2.9390864,0.079353325,0.80162656,-0.620648
0.128,0.89418143,0.3011486,-3.032487,0.09576647,0.7427286,-0.5988723
0.13,0.41942942,0.67313737,-3.113829,0.11975057,0.69860834,-0.56228846
0.132,-0.017317235,1.0378973,-3.1835747,0.14784372,0.6680718,-0.51335067
0.134,-0.4079619,1.3881886,-3.242249,0.17588541,0.64858794,-0.4557221
0.136,-0.74572724,1.7169783,-3.2902439,0.1995376,0.63664407,-0.394042
0.138,-1.0251572,2.0178227,-3.3276868,0.21497616,0.62827665,-0.33346868
0.14,-1.2427747,2.285027,-3.3549824,0.21946204,0.6195489,-0.2791148
0.142,-1.39675,2.5136566,-3.3726535,0.21166524,0.60692126,-0.23544207
0.144,-1.486736,2.69975,-3.381516,0.19184577,0.5876278,-0.20586787
0.146,-1.514004,2.84056,-3.3822541,0.16176683,0.5599197,-0.19250551
0.148,-1.4811697,2.9346943,-3.375268,0.12430626,0.52303857,-0.1958725
0.15,-1.3920511,2.982413,-3.361316,0.08301456,0.47717056,-0.2149308
0.152,-1.2515194,2.9851437,-3.34128,0.041567415,0.4233756,-0.24715553
0.154,-1.0653963,2.9460623,-3.3160646,0.0032550879,0.36324558,-0.28883013
0.156,-0.8401972,2.8691158,-3.286542,-0.029437024,0.29817182,-0.33580756
0.158,-0.5819348,2.7590914,-3.2536244,-0.054999936,0.22952937,-0.3840546
0.16,-0.29639986,2.6211128,-3.218254,-0.07278524,0.1599298,-0.42955008
0.162,0.010257304,2.4612315,-3.1813731,-0.08267473,0.0924982,-0.4682979
0.164,0.33230513,2.285051,-3.1436396,-0.08512026,0.029507846,-0.49713016
0.166,0.66467774,2.0979574,-3.1057835,-0.08111143,-0.0277372,-0.51437813
0.168,1.0025172,1.9051218,-3.0685499,-0.07201601,-0.078199536,-0.5195731
0.17,1.341429,1.7116612,-3.0329044,-0.059216097,-0.120703995,-0.5132123
0.172,1.6776631,1.5221109,-2.9993699,-0.043996483,-0.15448023,-0.4968043
0.174,2.0083454,1.3403323,-2.9682198,-0.02770564,-0.17975329,-0.4727176
0.176,2.3314157,1.169542,-2.9395144,-0.011633903,-0.1974977,-0.4436444
0.178,2.6462808,1.0111867,-2.9136767,0.0031083971,-0.20907767,-0.41217348
0.18,2.9543653,0.8652982,-2.8929183,0.015589863,-0.21614072,-0.380637
0.182,3.2493167,0.7355093,-2.8791087,0.025111556,-0.22052737,-0.35098773
0.184,3.5250044,0.6245547,-2.867229,0.03127961,-0.22418937,-0.32449368
0.186,3.7829258,0.5294954,-2.851062,0.03391345,-0.22921877,-0.301689
0.188,4.0242057,0.44753364,-2.832185,0.032980874,-0.23767087,-0.2824543
0.19,4.245123,0.3787931,-2.8148565,0.028583035,-0.2514249,-0.2661549
0.192,4.438145,0.32537243,-2.7999039,0.020842046,-0.2721115,-0.25187397
0.194,4.601814,0.2870593,-2.7834632,0.009900793,-0.30099156,-0.23851758
0.196,4.735429,0.26303294,-2.7617965,-0.004042417,-0.33887047,-0.22495395
0.198,4.835595,0.2534374,-2.7337291,-0.02075541,-0.38615212,-0.21010447
0.2,4.8995543,0.2581241,-2.698249,-0.03995666,-0.4428554,-0.19300433
0.202,4.925054,0.27683088,-2.6525862,-0.06126651,-0.50853604,-0.17290814
0.204,4.910117,0.30963287,-2.5931773,-0.08422245,-0.5823692,-0.14931017
0.206,4.8530893,0.35672855,-2.5163357,-0.10831113,-0.6631564,-0.121954486
0.208,4.753687,0.41810745,-2.420116,-0.13291301,-0.74925673,-0.090831846
0.21,4.612391,0.49296305,-2.3036752,-0.1572722,-0.83873177,-0.05612439
0.212,4.4310665,0.5794783,-2.1670833,-0.18058366,-0.9294301,-0.018147796
0.214,4.2123547,0.6758963,-2.0105164,-0.20198381,-1.0190568,0.022737026
0.216,3.9581988,0.7805699,-1.8347613,-0.22061977,-1.1052113,0.06615463
0.218,3.671835,0.89176404,-1.6408372,-0.23568875,-1.1854231,0.11173099
0.22,3.3573105,1.0071754,-1.4305425,-0.24652608,-1.2572252,0.15909976
0.222,3.01935,1.1241398,-1.2065799,-0.25266904,-1.3182325,0.20789862
0.224,2.6636775,1.2397296,-0.97216916,-0.25391465,-1.3662947,0.25774974
0.226,2.2963853,1.3509161,-0.73077595,-0.25034314,-1.3996564,0.30823663
0.228,1.9231086,1.4552538,-0.48573375,-0.24231103,-1.4170825,0.35886633
0.23,1.5492582,1.5506802,-0.24070579,-0.23042537,-1.4179978,0.409084
0.232,1.1809653,1.6350704,0.0009287596,-0.21546689,-1.4025909,0.45828268
0.234,0.8243309,1.7063844,0.23590255,-0.1983021,-1.3718857,0.5058271
0.236,0.48496366,1.7627176,0.46055245,-0.17981713,-1.3277521,0.55112135
0.238,0.16781503,1.8026147,0.6713525,-0.16082746,-1.2727773,0.5936128
0.24,-0.12239736,1.8249738,0.86536026,-0.14204028,-1.2101088,0.6328262
0.242,-0.38159412,1.8293332,1.0402669,-0.1240568,-1.1432114,0.6683575
0.244,-0.6067254,1.815429,1.1940838,-0.10736789,-1.0755392,0.6998493
0.246,-0.7954517,1.7835555,1.3250923,-0.092366815,-1.0102086,0.72702354
0.248,-0.94582564,1.7342091,1.4317575,-0.079380676,-0.9497965,0.7496599
0.25,-1.0567861,1.6681676,1.5129458,-0.06870135,-0.8962259,0.76761174
0.252,-1.1277279,1.5866165,1.56816,-0.060589626,-0.85071224,0.7808377
0.254,-1.1591961,1.4909871,1.5974231,-0.055252563,-0.81374234,0.7894358
0.256,-1.1518657,1.383126,1.601013,-0.05282167,-0.7852154,0.7936598
0.258,-1.1071316,1.2649717,1.5794278,-0.053326346,-0.7645336,0.79395103
0.26,-1.0265338,1.1384189,1.5332942,-0.056673124,-0.75085014,0.7908866
0.262,-0.912208,1.0055876,1.4635732,-0.062714174,-0.7432859,0.7851368
0.264,-0.76596445,0.86804223,1.371628,-0.07125998,-0.74100876,0.7773491
0.266,-0.59092253,0.72809386,1.2591572,-0.08207768,-0.7433336,0.7681023
0.268,-0.39093515,0.58794826,1.1278899,-0.09495075,-0.7498213,0.75779366
0.27,-0.1693635,0.44985846,0.9793306,-0.109697655,-0.7603222,0.7466082
0.272,0.071281254,0.31540462,0.8153952,-0.12617053,-0.7749624,0.7345447
0.274,0.32802567,0.18581139,0.6384115,-0.14426509,-0.794075,0.72149044
0.276,0.5976553,0.062256485,0.45077968,-0.1638627,-0.8181054,0.70731676
0.278,0.8770833,-0.05421257,0.254723,-0.18483733,-0.84749466,0.69193226
0.28,1.1634885,-0.16282147,0.05279675,-0.20702337,-0.88262165,0.6753424
0.282,1.4539219,-0.26309052,-0.15239659,-0.23020211,-0.9237293,0.65771323
0.284,1.7446865,-0.35444552,-0.3582398,-0.25409147,-0.97085804,0.63940144
0.286,2.0318313,-0.4363899,-0.56185997,-0.278313,-1.0237594,0.6209566
0.288,2.3119082,-0.5083329,-0.7601229,-0.30241206,-1.0819023,0.6030828
0.29,2.5814624,-0.5698141,-0.94943357,-0.3258597,-1.1444798,0.5865854
0.292,2.8370752,-0.62050194,-1.1262997,-0.34810024,-1.210444,0.5722809
0.294,3.0756133,-0.6601204,-1.2878311,-0.36859342,-1.2785609,0.5609313
0.296,3.2940686,-0.6886186,-1.4311361,-0.38679653,-1.3474482,0.5531726
0.298,3.489925,-0.7064755,-1.5534955,-0.40217334,-1.4155194,0.5495085
0.3,3.6609955,-0.7144151,-1.6525033,-0.4142149,-1.4810977,0.5503109
0.302,3.8053463,-0.7132054,-1.7262105,-0.42246872,-1.542525,0.55578816
0.304,3.9211237,-0.7034005,-1.7732188,-0.42660254,-1.5981978,0.5659747
0.306,4.0069523,-0.68558514,-1.7924874,-0.42642894,-1.646632,0.5808118
0.308,4.0618267,-0.6601422,-1.7834709,-0.42192248,-1.6865721,0.6001258
0.31,4.0847297,-0.6275357,-1.7456895,-0.41319937,-1.7170712,0.623644
0.312,4.0750127,-0.58817226,-1.6791904,-0.40049195,-1.7375295,0.65100044
0.314,4.0321093,-0.54250634,-1.5842276,-0.38416883,-1.7477189,0.68176764
0.316,3.9559216,-0.49075186,-1.4615954,-0.36476865,-1.7478335,0.715433
0.318,3.846276,-0.43322515,-1.3123658,-0.34296322,-1.7384531,0.75140524
0.32,3.7036412,-0.3701231,-1.1383078,-0.31951523,-1.7204651,0.7890183
0.322,3.5288181,-0.30147427,-0.94153094,-0.29524183,-1.6949512,0.8275622
0.324,3.322808,-0.2277438,-0.7246145,-0.27098453,-1.6631141,0.8663329
0.326,3.0873904,-0.14930004,-0.49038726,-0.2475839,-1.626188,0.9046361
0.328,2.8245008,-0.066797495,-0.24193412,-0.2258123,-1.5853531,0.9417956
0.33,2.536173,0.019219995,0.017458498,-0.20636836,-1.5416557,0.97717226
0.332,2.2248402,0.108175516,0.28440684,-0.18979296,-1.4959489,1.0101657
0.334,1.8930252,0.19927746,0.5552452,-0.17645779,-1.4488497,1.0402243
0.336,1.5436867,0.2919313,0.8264103,-0.16656096,-1.400776,1.0668312
0.338,1.179994,0.38511434,1.0942818,-0.16013122,-1.3519448,1.0895147
0.34,0.80503184,0.4780674,1.3555398,-0.15708883,-1.3024623,1.1078994
0.342,0.4220368,0.5701025,1.6067289,-0.15726078,-1.2523477,1.1216791
0.344,0.03404641,0.6607383,1.8449128,-0.16039558,-1.2015643,1.1306438
0.346,-0.3553416,0.74921554,2.0675812,-0.16618708,-1.1501294,1.1346785
0.348,-0.7426492,0.8345534,2.2725863,-0.17429057,-1.0981582,1.1337646
0.35,-1.124374,0.9155183,2.458119,-0.18440765,-1.0459238,1.1279488
0.352,-1.4971796,0.99114615,2.6227288,-0.1962899,-0.9939483,1.1172945
0.354,-1.8578985,1.0606171,2.7654188,-0.20973217,-0.94287956,1.1018732
0.356,-2.2033954,1.1231372,2.8858266,-0.22455889,-0.89341235,1.0817791
0.358,-2.53098,1.1780527,2.9838414,-0.24064589,-0.84626126,1.0571316
0.36,-2.8376923,1.2245976,3.059771,-0.25791305,-0.80214524,1.0279824
0.362,-3.1208076,1.2619714,3.1141186,-0.27634925,-0.7616991,0.9943589
0.364,-3.3775904,1.2896134,3.1477046,-0.29605663,-0.725435,0.95626324
0.366,-3.6064825,1.3069522,3.1617818,-0.3172177,-0.6937398,0.9136929
0.368,-3.8055956,1.3138621,3.157769,-0.34004885,-0.6667846,0.86668885
0.37,-3.9738984,1.3102578,3.1372418,-0.3647438,-0.6446093,0.815318
0.372,-4.1102295,1.2962981,3.1018543,-0.39154166,-0.6272534,0.7596874
0.374,-4.2142134,1.2724158,3.0530949,-0.42059368,-0.6146041,0.6999782
0.376,-4.285152,1.238851,2.9926233,-0.4519482,-0.6064344,0.63651717
0.378,-4.3226185,1.1961402,2.9224126,-0.4855295,-0.6024153,0.5698017
0.38,-4.3274255,1.1449362,2.8445003,-0.52108735,-0.6021235,0.5005341
0.382,-4.301157,1.0865517,2.7601295,-0.55821866,-0.6050405,0.42963174
0.384,-4.2450233,1.0224805,2.6704452,-0.59637576,-0.6105428,0.35815328
0.386,-4.1603622,0.9540248,2.5763903,-0.6349087,-0.6179248,0.2872524
0.388,-4.048664,0.88231075,2.479102,-0.67308104,-0.6263374,0.21810317
0.39,-3.9122057,0.8088274,2.3791802,-0.7101029,-0.6348237,0.15183842
0.392,-3.7531955,0.7350915,2.277073,-0.7452049,-0.64240134,0.089454025
0.394,-3.57393,0.6624967,2.1730433,-0.77763665,-0.6480167,0.031745166
0.396,-3.3770351,0.59262556,2.0672262,-0.80676144,-0.6506446,-0.020715594
0.398,-3.165039,0.52681017,1.9599079,-0.83209884,-0.6493516,-0.06760025
0.4,-2.9408076,0.466554,1.8513951,-0.8533206,-0.6432625,-0.108816564
0.402,-2.7071776,0.41314447,1.7418112,-0.87024534,-0.6316023,-0.14449206
0.404,-2.4672,0.36786455,1.631445,-0.8828304,-0.6138072,-0.17486343
0.406,-2.2238455,0.33183718,1.5203148,-0.8911433,-0.5894983,-0.20023814
0.408,-1.9798573,0.30610067,1.4086077,-0.8953136,-0.55847996,-0.2209715
0.41,-1.7377795,0.29123262,1.2965204,-0.8955447,-0.52081376,-0.23740032
0.412,-1.499952,0.28758737,1.184448,-0.892029,-0.4767856,-0.24982804
0.414,-1.2685313,0.294924,1.072653,-0.8849719,-0.42687154,-0.25850782
0.416,-1.0454247,0.31323028,0.9614806,-0.87461126,-0.37178072,-0.2636912
0.418,-0.8324901,0.34225833,0.8511325,-0.8612107,-0.31241938,-0.2656312
0.42,-0.6312767,0.3815897,0.74196327,-0.8450929,-0.24987254,-0.26460677
0.422,-0.4428452,0.430521,0.63453674,-0.8266247,-0.18537118,-0.26096484
0.424,-0.26816592,0.48842886,0.5295075,-0.8062597,-0.12016544,-0.25508994
0.426,-0.107884586,0.5543369,0.4276536,-0.7844415,-0.055422783,-0.24737705
0.428,0.037593275,0.6273565,0.32996315,-0.7616769,0.007642001,-0.2382513
0.43,0.1679957,0.70662916,0.23729923,-0.73847413,0.06793085,-0.2281624
0.432,0.28335738,0.7911012,0.1504947,-0.71527517,0.12453888,-0.21755509
0.434,0.3837659,0.8801055,0.07030502,-0.69247067,0.17673013,-0.20682268
0.436,0.4693928,0.9729279,-0.0025957823,-0.67037266,0.22395611,-0.19629526
0.438,0.54071283,1.069079,-0.06767076,-0.6492164,0.2657843,-0.18618889
0.44,0.5983969,1.1679411,-0.12445378,-0.6291737,0.30188006,-0.17666225
0.442,0.6432518,1.2690151,-0.17271775,-0.61038136,0.33193958,-0.16781749
0.444,0.6763414,1.3718232,-0.21223176,-0.59295094,0.35567224,-0.15974884
0.446,0.6986327,1.475909,-0.24297172,-0.5769957,0.37276983,-0.15258022
0.448,0.7111896,1.5811529,-0.26504433,-0.56266093,0.3828756,-0.14650363
0.45,0.71522534,1.6870643,-0.27844375,-0.5500904,0.38562405,-0.14176333
0.452,0.7114666,1.7933915,-0.2831692,-0.5394344,0.38071656,-0.13869546
0.454,0.70115495,1.900044,-0.27955276,-0.5308225,0.3679272,-0.13764851
0.456,0.68507946,2.0069215,-0.26778823,-0.5243518,0.34714818,-0.13898616
0.458,0.66440725,2.1139925,-0.24795341,-0.5200589,0.3184821,-0.14306347
0.46,0.6401071,2.221315,-0.22021145,-0.51788706,0.28221905,-0.15017168
0.462,0.6135167,2.3285599,-0.18478817,-0.5176708,0.23887229,-0.16048597
0.464,0.58565676,2.4354122,-0.1416685,-0.5191065,0.18926929,-0.17403004
0.466,0.5575838,2.5415704,-0.09104478,-0.5217867,0.13446684,-0.1906422
0.468,0.5301945,2.646491,-0.032897294,-0.5252179,0.07573399,-0.2099731
0.47,0.50438946,2.7499475,0.032762825,-0.52881914,0.0145599395,-0.23149851
0.472,0.48086444,2.8516579,0.10578412,-0.5319794,-0.04738894,-0.25458378
0.474,0.46029204,2.9510388,0.18600148,-0.53409886,-0.10831575,-0.27849755
0.476,0.44384456,3.0475483,0.27312398,-0.53463256,-0.16639222,-0.30246082
0.478,0.43206513,3.140418,0.36680317,-0.5331148,-0.21983609,-0.32570016
0.48,0.4255345,3.2291312,0.46661317,-0.5292438,-0.26702818,-0.34752402
0.482,0.4247296,3.3128848,0.57202196,-0.5228756,-0.3065456,-0.36732435
0.484,0.4297374,3.391399,0.6823795,-0.51399916,-0.33729783,-0.38461936
0.486,0.4407702,3.46426,0.7969618,-0.50275826,-0.35855895,-0.39907324
0.488,0.45752132,3.5313387,0.91505516,-0.4894097,-0.36997998,-0.41048992
0.49,0.48000264,3.5926895,1.03586,-0.47428235,-0.37162662,-0.41880077
0.492,0.5077907,3.6482337,1.1586411,-0.4577389,-0.36393082,-0.42403352
0.494,0.54021406,3.6981082,1.2822084,-0.44014326,-0.3476445,-0.42630363
0.496,0.5767542,3.7423582,1.4055426,-0.42181176,-0.3237604,-0.42579824
0.498,0.6164987,3.7813883,1.5276296,-0.40298977,-0.29339594,-0.42275035
0.5,0.6585196,3.8158488,1.6476204,-0.38382405,-0.25769404,-0.4173961
0.502,0.7019061,3.8464708,1.7647752,-0.36437586,-0.21777113,-0.4099737
0.504,0.74544716,3.8742297,1.8784412,-0.34463048,-0.17466068,-0.4007334
0.506,0.78828466,3.8999963,1.9880314,-0.3245472,-0.12931556,-0.3899028
0.508,0.82916343,3.9247553,2.0929494,-0.3040789,-0.08257226,-0.37774435
0.51,0.86721766,3.94945,2.1925383,-0.2831883,-0.035127208,-0.36452737
0.512,0.9015167,3.9749532,2.2865462,-0.26184925,0.012433767,-0.35053045
0.514,0.9312587,4.002251,2.374407,-0.24008611,0.059606507,-0.33601916
0.516,0.9559171,4.032077,2.455683,-0.21795918,0.10596304,-0.32123393
0.518,0.974833,4.0650873,2.529913,-0.19553767,0.15114295,-0.30641526
0.52,0.9876375,4.1020513,2.5967348,-0.1729019,0.19492975,-0.29176104
0.522,0.99405813,4.14347,2.6556296,-0.15011528,0.2372123,-0.27742866
0.524,0.99380326,4.189974,2.7063727,-0.12721826,0.27798578,-0.26351702
0.526,0.9868448,4.2416754,2.7486537,-0.10418199,0.31733248,-0.25004026
0.528,0.9733405,4.298602,2.7822962,-0.08094161,0.3554511,-0.236935
0.53,0.9535818,4.360712,2.8068006,-0.057375774,0.3926559,-0.224052
0.532,0.9278964,4.4278297,2.8217397,-0.03330544,0.4294036,-0.21117729
0.534,0.8968382,4.4995537,2.8267183,-0.008506939,0.4662702,-0.19805491
0.536,0.8607482,4.5756598,2.8214562,0.017259624,0.5038901,-0.18444932
0.538,0.82052875,4.6554523,2.8056426,0.04423168,0.54289776,-0.17017484
0.54,0.7769228,4.738204,2.7791855,0.07262537,0.5838437,-0.15511033
0.542,0.7305043,4.823221,2.742168,0.10264396,0.62709534,-0.13923499
0.544,0.68216276,4.909624,2.6947727,0.13441816,0.6727805,-0.12260851
0.546,0.63290334,4.996448,2.6371841,0.16801253,0.720759,-0.105387196
0.548,0.5834687,5.082666,2.5700274,0.20343512,0.7705803,-0.08776033
0.55,0.53462315,5.1673737,2.4940906,0.24059464,0.8215208,-0.069946826
0.552,0.48714638,5.2497005,2.4103808,0.2792935,0.87263453,-0.05214566
0.554,0.44177127,5.329042,2.319982,0.31923765,0.92285436,-0.034519255
0.556,0.399158,5.404607,2.2241335,0.36005908,0.9710878,-0.01714012
0.558,0.360157,5.4755707,2.1243262,0.4013229,1.0163239,5.4836273e-06
0.56,0.32560253,5.5413394,2.0219834,0.44256365,1.0576798,0.016984671
0.562,0.2959633,5.6015306,1.9186876,0.4832942,1.0944366,0.03392437
0.564,0.27185392,5.655781,1.8161913,0.5230634,1.126015,0.050940692
0.566,0.25385642,5.7036433,1.716085,0.5614607,1.1520032,0.068131685
0.568,0.24248362,5.7448893,1.6198226,0.598118,1.1721065,0.08553189
0.57,0.23796272,5.779318,1.5290666,0.6327356,1.1860842,0.10308677
0.572,0.24017,5.8071175,1.4454792,0.66510844,1.1937855,0.12066853
0.574,0.2494384,5.828464,1.3704729,0.6951461,1.1950946,0.13804758
0.576,0.2659111,5.8436413,1.3055052,0.72282034,1.189941,0.15489429
0.578,0.28979778,5.8531256,1.2518377,0.7481587,1.178304,0.17081296
0.58,0.32102895,5.8574033,1.2105806,0.7711897,1.1602373,0.18532151
0.582,0.35964203,5.856884,1.1827087,0.7919955,1.1358688,0.19788611
0.584,0.40550518,5.852194,1.1690702,0.81069523,1.1054567,0.20798469
0.586,0.4583918,5.843889,1.1702673,0.8274665,1.0693882,0.21511948
0.588,0.5182477,5.832653,1.1866975,0.8425727,1.0282109,0.21886456
0.59,0.58481956,5.819109,1.2186403,0.8563223,0.9825543,0.21887255
0.592,0.6579461,5.804062,1.2658873,0.86906624,0.9331627,0.21486485
0.594,0.7375915,5.787886,1.3282723,0.88122857,0.8809159,0.20662618
0.596,0.82368934,5.77088,1.4051974,0.89329445,0.8268604,0.19405252
0.598,0.9162173,5.7533574,1.4961216,0.9057716,0.77207935,0.17716569
0.6,1.0148852,5.735598,1.6003362,0.9191433,0.71761,0.15610123
0.602,1.1195349,5.7179193,1.717177,0.93383753,0.66446924,0.13111663
0.604,1.2299404,5.700555,1.8458531,0.95022154,0.6135976,0.10258484
0.606,1.3454393,5.6839347,1.9852605,0.96858835,0.56585634,0.07098907
0.608,1.4657974,5.6679688,2.134074,0.98911834,0.5219885,0.03693366
0.61,1.5905809,5.6524844,2.2906375,1.0118861,0.48260695,0.0011081696
0.612,1.7190884,5.6373916,2.4529955,1.0368693,0.44817078,-0.035707414
0.614,1.8506048,5.622733,2.619165,1.0639669,0.41899943,-0.07262993
0.616,1.9841928,5.6087627,2.7870784,1.0930328,0.39525685,-0.10873589
0.618,2.1190236,5.595598,2.9548512,1.1238638,0.37695998,-0.14310649
0.62,2.2542355,5.5831175,3.1204605,1.1562308,0.3639335,-0.17491195
0.622,2.3882785,5.571808,3.2816303,1.1899195,0.3558542,-0.20345625
0.624,2.519599,5.5619545,3.4364142,1.2246962,0.3522312,-0.22823897
0.626,2.6466718,5.5541315,3.5828252,1.2603048,0.35240543,-0.24899158
0.628,2.7680147,5.548863,3.718858,1.296474,0.35558963,-0.26568344
0.63,2.8819962,5.54669,3.8426082,1.3329699,0.360924,-0.27850756
0.632,2.9871392,5.548144,3.952404,1.3695703,0.3674885,-0.28788614
0.634,3.082035,5.553793,4.046507,1.4060719,0.37432042,-0.29440606
0.636,3.1654725,5.564068,4.123467,1.4422954,0.38043994,-0.29877883
0.638,3.2362015,5.5793676,4.182362,1.4780667,0.38484567,-0.30178797
0.64,3.2934322,5.599797,4.222803,1.5132426,0.38658953,-0.30422896
0.642,3.336247,5.625599,4.2448664,1.5477062,0.38477963,-0.30685514
0.644,3.364223,5.6566734,4.248991,1.5813775,0.37865698,-0.3103842
0.646,3.377088,5.692624,4.2360435,1.6141889,0.3675564,-0.31546432
0.648,3.374891,5.733164,4.207364,1.6460893,0.35095203,-0.32267487
0.65,3.3581994,5.777583,4.1647673,1.677021,0.32849225,-0.33251327
0.652,3.3277612,5.8249674,4.1104846,1.7069509,0.30004048,-0.34542114
0.654,3.2844472,5.8744407,4.047236,1.7358654,0.2656741,-0.36176008
0.656,3.2292585,5.924976,3.9780307,1.7637565,0.22565025,-0.3817963
0.658,3.1637123,5.975478,3.9059384,1.7906206,0.18039341,-0.40571183
0.66,3.08943,6.024507,3.8341887,1.8164572,0.1305094,-0.43361688
0.662,3.008139,6.0707765,3.7659512,1.8412924,0.07676664,-0.46549994
0.664,2.9214587,6.1128798,3.704523,1.8651607,0.020082027,-0.50122386
0.666,2.8310595,6.1496954,3.6530733,1.8881264,-0.038479596,-0.5405069
0.668,2.7384605,6.18021,3.6143734,1.9102962,-0.09770545,-0.58291864
0.67,2.645147,6.2034636,3.5909078,1.9318062,-0.1562795,-0.6278695
0.672,2.552763,6.2187796,3.5848918,1.9528468,-0.21280247,-0.674641
0.674,2.4624808,6.225405,3.5978975,1.9736766,-0.265807,-0.7224189
0.676,2.3752048,6.223312,3.6311386,1.9945836,-0.31384772,-0.77038765
0.678,2.291619,6.2125816,3.6853352,2.0158818,-0.3555528,-0.81774974
0.68,2.2125344,6.1933928,3.7604623,2.0378854,-0.38972378,-0.86380327
0.682,2.138326,6.1661444,3.8559942,2.0608833,-0.4153506,-0.9080144
0.684,2.0691938,6.131332,3.970827,2.0851257,-0.4316677,-0.95000315
0.686,2.004859,6.089652,4.103448,2.1108112,-0.43817866,-0.989567
0.688,1.944996,6.0421495,4.2518797,2.1380868,-0.4346556,-1.0266525
0.69,1.8891804,5.9898987,4.4137664,2.167033,-0.4211086,-1.0613221
0.692,1.8366883,5.9341965,4.5864534,2.1976936,-0.39778274,-1.0937288
0.694,1.7871656,5.8761363,4.7670527,2.2300794,-0.36514974,-1.124067
0.696,1.740097,5.8169737,4.9525857,2.2641544,-0.32383627,-1.1525835
0.698,1.6950696,5.7575893,5.1401396,2.299869,-0.2746477,-1.1795245
0.7,1.651649,5.6988893,5.326962,2.337136,-0.21855137,-1.2051624
0.702,1.6094949,5.641676,5.5103097,2.375799,-0.15669793,-1.2298045
0.704,1.5683458,5.5866675,5.6877685,2.4156675,-0.09037575,-1.2537899
0.706,1.528044,5.5344296,5.8571053,2.4565096,-0.020928413,-1.2774562
0.708,1.4886656,5.4852476,6.0162635,2.498026,0.050215006,-1.301141
0.71,1.4504797,5.439048,6.1636844,2.5398476,0.12155017,-1.3252312
0.712,1.4139688,5.3956895,6.297977,2.5815628,0.19155037,-1.3500893
0.714,1.3798449,5.3547587,6.418374,2.622715,0.25874585,-1.3760165
0.716,1.3488083,5.3155575,6.5243607,2.6628237,0.32177237,-1.4033043
0.718,1.321562,5.277588,6.615646,2.7014077,0.37942117,-1.4321667
0.72,1.2989411,5.240163,6.6924367,2.738031,0.4306932,-1.4627414
0.722,1.2814167,5.2026176,6.7551746,2.7722976,0.47482818,-1.4950861
0.724,1.2698185,5.164214,6.804367,2.803913,0.5113513,-1.5291541
0.726,1.2646282,5.1241856,6.840708,2.8326712,0.54008085,-1.5648093
0.728,1.2665634,5.081721,6.8648195,2.8584728,0.5611185,-1.6018388
0.73,1.2759495,5.0363193,6.8775744,2.881336,0.57487464,-1.6399584
0.732,1.2935619,4.987275,6.8798304,2.9013867,0.5820214,-1.6788564
0.734,1.3193717,4.934402,6.8723383,2.918829,0.58342016,-1.7182063
0.736,1.3530109,4.8776064,6.8558803,2.9339545,0.58005244,-1.7576585
0.738,1.3941958,4.8169456,6.831285,2.9470859,0.5729679,-1.7968814
0.74,1.442519,4.752561,6.799182,2.958582,0.5632102,-1.8355505
0.742,1.4971445,4.6850038,6.760147,2.9688148,0.55175954,-1.8733763
0.744,1.5571878,4.614703,6.7146845,2.9781592,0.5394995,-1.9100809
0.746,1.6216469,4.5425262,6.663011,2.986994,0.52725244,-1.9454149
0.748,1.6894666,4.4692,6.605182,2.9956865,0.5157359,-1.9791691
0.75,1.7594911,4.395631,6.541114,3.0045662,0.5055224,-2.0111735
0.752,1.8307849,4.3223157,6.4706354,3.0139403,0.49712408,-2.0412996
0.754,1.9023172,4.2500896,6.3937125,3.0240679,0.49098688,-2.0694947
0.756,1.9733022,4.1795325,6.3103743,3.0351384,0.48741472,-2.0958023
0.758,2.0427966,4.1110706,6.2206907,3.0472653,0.4866345,-2.120337
0.76,2.1098154,4.0450907,6.124874,3.0604928,0.4887678,-2.1432621
0.762,2.174029,3.98166,6.023305,3.074794,0.4938056,-2.1648057
0.764,2.2350495,3.9206364,5.916398,3.090055,0.5015491,-2.1852658
0.766,2.2925942,3.8618898,5.8047757,3.1060727,0.5116304,-2.2050407
0.768,2.346488,3.8049307,5.689063,3.1225884,0.5234821,-2.2245786
0.77,2.3966799,3.7495012,5.57003,3.1393054,0.5364203,-2.2443085
0.772,2.4430387,3.6948533,5.4484854,3.1558957,0.54968226,-2.264609
0.774,2.4857893,3.6404886,5.3252497,3.1720638,0.56247526,-2.2857373
0.776,2.525096,3.585742,5.2014475,3.1875968,0.574074,-2.307797
0.778,2.5611424,3.529868,5.07817,3.2023802,0.58389366,-2.3307054
0.78,2.594041,3.4722857,4.956628,3.2164187,0.59152657,-2.3541927
0.782,2.6237347,3.4122262,4.8379297,3.229841,0.59677875,-2.3778355
0.784,2.6502025,3.3493564,4.723153,3.242895,0.599673,-2.4010997
0.786,2.6734252,3.2833164,4.6133065,3.2558975,0.6004338,-2.4234324
0.788,2.6933472,3.2136326,4.509076,3.2692018,0.59948003,-2.4442995
0.79,2.7101667,3.1400309,4.41127,3.2831497,0.59733915,-2.4632502
0.792,2.7236605,3.06251,4.3203993,3.29805,0.5945891,-2.479965
0.794,2.7333162,2.9812586,4.2368965,3.3141167,0.59179103,-2.4942615
0.796,2.7390695,2.896494,4.160964,3.3314674,0.5894302,-2.5061114
0.798,2.7407496,2.808484,4.0925703,3.3501174,0.5878569,-2.5156515
0.8,2.7383957,2.7176437,4.031603,3.3699808,0.5872466,-2.5231009
0.802,2.7320223,2.6242476,3.9777668,3.3909094,0.58763564,-2.5287488
0.804,2.7212572,2.5290618,3.930659,3.4127355,0.58895993,-2.532873
0.806,2.7059321,2.4327264,3.8899646,3.4352744,0.59103364,-2.535742
0.808,2.6858726,2.3361106,3.85531,3.458356,0.5936061,-2.5375764
0.81,2.6615663,2.2397852,3.8261874,3.481817,0.5964163,-2.538548
0.812,2.6331878,2.1442478,3.8022954,3.5055294,0.5991874,-2.5388236
0.814,2.6012278,2.050003,3.783224,3.5293753,0.60165995,-2.538538
0.816,2.5662117,1.9574559,3.7686338,3.5532877,0.6036333,-2.537785
0.818,2.5291266,1.8669591,3.75834,3.5772297,0.60495824,-2.5366104
0.82,2.4907064,1.7787946,3.7523177,3.6012,0.6054843,-2.5350664
0.822,2.4519281,1.6930221,3.750537,3.6252067,0.605071,-2.5332448
0.824,2.4138613,1.6095265,3.7529688,3.6492906,0.6035845,-2.531298
0.826,2.3776317,1.5282161,3.759833,3.6735044,0.60094285,-2.5293953
0.828,2.3440478,1.4488176,3.7715101,3.6978762,0.5970941,-2.5277495
0.83,2.314205,1.370939,3.7881832,3.7224197,0.59204787,-2.5265713
0.832,2.2892838,1.2939467,3.8102405,3.7471044,0.585868,-2.5260756
0.834,2.2700925,1.2173347,3.8378627,3.7718468,0.5786387,-2.5264707
0.836,2.257188,1.1407647,3.8713171,3.7964902,0.5704634,-2.5279603
0.838,2.2509384,1.0641872,3.9105372,3.8207824,0.5614615,-2.5307322
0.84,2.251205,0.9872378,3.9555507,3.8444202,0.55174583,-2.5349472
0.842,2.2583997,0.9096093,4.006296,3.867062,0.54140115,-2.5407453
0.844,2.2730703,0.83051765,4.0624065,3.888366,0.53046787,-2.5482001
0.846,2.29548,0.74954414,4.123412,3.9080052,0.5189544,-2.5573215
0.848,2.3253088,0.66648436,4.1887684,3.9257588,0.50687385,-2.568007
0.85,2.3622727,0.5811436,4.2579846,3.9415407,0.49426058,-2.580053
0.852,2.4059963,0.49338508,4.3303413,3.9554026,0.48124382,-2.593134
0.854,2.455853,0.40317976,4.4051285,3.9675581,0.4680291,-2.6068635
0.856,2.5111668,0.3105296,4.4817467,3.9783266,0.45486557,-2.6207805
0.858,2.5713642,0.21555698,4.559418,3.988089,0.4420636,-2.6344137
0.86,2.635843,0.118371844,4.637482,3.9972918,0.42999467,-2.647303
0.862,2.703935,0.019379258,4.71529,4.0063667,0.4190745,-2.6590183
0.864,2.775297,-0.08122611,4.7920856,4.015744,0.40971404,-2.6691797
0.866,2.8494015,-0.18317735,4.867185,4.025793,0.40225947,-2.677491
0.868,2.92619,-0.2862866,4.9399986,4.036768,0.39698938,-2.6838443
0.87,3.0056534,-0.39041567,5.009976,4.0488915,0.39411888,-2.688172
0.872,3.0878654,-0.4953283,5.07669,4.062345,0.39376107,-2.6904912
0.874,3.173047,-0.60098094,5.139753,4.0772376,0.39590847,-2.6908817
0.876,3.2615194,-0.7073874,5.1990514,4.093639,0.40045175,-2.6894734
0.878,3.353835,-0.8145219,5.2546964,4.1115623,0.4071916,-2.6864502
0.88,3.450607,-0.92274076,5.3070903,4.1309834,0.41584116,-2.6820424
0.882,3.552444,-1.032043,5.3562946,4.1518297,0.42604622,-2.6765223
0.884,3.6597419,-1.1425974,5.402671,4.1739726,0.4373454,-2.67017
0.886,3.7730753,-1.254457,5.4464645,4.1972423,0.44921762,-2.6632805
0.888,3.8928027,-1.3676099,5.4878783,4.221408,0.4610787,-2.6561449
0.89,4.0193934,-1.4822972,5.5272064,4.2461934,0.47224933,-2.6490273
0.892,4.1531687,-1.5985117,5.564598,4.271294,0.48196602,-2.642171
0.894,4.294242,-1.7162238,5.6003976,4.2963605,0.48943365,-2.6357527
0.896,4.4424057,-1.8354127,5.6348324,4.321016,0.49387932,-2.629922
0.898,4.5974617,-1.9558704,5.6682057,4.3448815,0.4946394,-2.6247568
0.9,4.7585444,-2.0773447,5.7004237,4.3676257,0.4912296,-2.6202464
0.902,4.9250884,-2.1998262,5.731361,4.3889227,0.48334694,-2.616296
0.904,5.0964174,-2.3230343,5.7609286,4.4084888,0.47093666,-2.6127532
0.906,5.27125,-2.4464512,5.788911,4.426124,0.45415992,-2.6094124
0.908,5.4482994,-2.5696726,5.8150105,4.4417214,0.4334569,-2.6060483
0.91,5.6263137,-2.6922898,5.8387847,4.455294,0.40952033,-2.6024191
0.912,5.8038254,-2.8136191,5.8596706,4.466964,0.38317376,-2.5982969
0.914,5.9796605,-2.933383,5.8769097,4.476883,0.3552537,-2.5934958
0.916,6.1527734,-3.0513153,5.8896375,4.485309,0.32662505,-2.587906
0.918,6.321841,-3.167046,5.896998,4.492552,0.29810768,-2.5815
0.92,6.4858165,-3.28015,5.8982854,4.4989395,0.27043992,-2.5742693
0.922,6.6435766,-3.3902934,5.8930616,4.504845,0.24419558,-2.5661855
0.924,6.7942815,-3.4971585,5.8808,4.5105605,0.21977693,-2.557342
0.926,6.937483,-3.6006613,5.8611984,4.5163713,0.19745511,-2.5478454
0.928,7.072501,-3.7007003,5.8341184,4.5225286,0.17737502,-2.5377903
0.93,7.199245,-3.7972434,5.7994194,4.5292435,0.15953946,-2.5272717
0.932,7.3177547,-3.8904703,5.7573457,4.5366974,0.14381665,-2.516355
0.934,7.4280977,-3.9804192,5.7081532,4.545046,0.12998307,-2.5051024
0.936,7.5307565,-4.0674124,5.652241,4.5544076,0.11774945,-2.493553
0.938,7.6264906,-4.151567,5.590284,4.5649123,0.10678542,-2.481761
0.94,7.715754,-4.2330804,5.523106,4.576667,0.096743226,-2.4697847
0.942,7.7994094,-4.3120503,5.451677,4.589792,0.08726549,-2.4576669
0.944,7.8783345,-4.3887105,5.3772206,4.604403,0.07803011,-2.4454505
0.946,7.953586,-4.463322,5.300616,4.6206036,0.068734825,-2.433173
0.948,8.025995,-4.535977,5.222682,4.638478,0.059127748,-2.420867
0.95,8.097146,-4.6067867,5.144269,4.6580963,0.04897648,-2.4085224
0.952,8.167883,-4.675791,5.0664682,4.6794896,0.038104415,-2.3961344
0.954,8.238862,-4.7426906,4.9907084,4.702641,0.026358068,-2.3836827
0.956,8.310974,-4.8074074,4.917903,4.7275066,0.013623655,-2.3711224
0.958,8.385466,-4.870094,4.8486776,4.7539845,-0.00021481514,-2.3583753
0.96,8.463199,-4.9306164,4.7836633,4.7819405,-0.015287399,-2.34535
0.962,8.545299,-4.9890094,4.7233377,4.811206,-0.03177184,-2.3319273
0.964,8.6325445,-5.0450506,4.6680737,4.841604,-0.049871385,-2.317985
0.966,8.725794,-5.098767,4.618078,4.872961,-0.069815576,-2.3033926
0.968,8.8255,-5.1499953,4.5734,4.9050937,-0.09184033,-2.2880025
0.97,8.931737,-5.1987815,4.534177,4.9377995,-0.116218925,-2.271684
0.972,9.044678,-5.2452016,4.501445,4.9708443,-0.14321354,-2.254314
0.974,9.162759,-5.2886405,4.4747124,5.0039816,-0.17305261,-2.2358322
0.976,9.285529,-5.3288355,4.4520054,5.036907,-0.20592582,-2.216179
0.978,9.41419,-5.366825,4.4327135,5.069262,-0.24201441,-2.1952987
0.98,9.547711,-5.4023643,4.416416,5.1005836,-0.2815526,-2.1731217
0.982,9.684127,-5.434696,4.402475,5.1303167,-0.32487544,-2.1496298
0.984,9.821995,-5.463724,4.390312,5.1578336,-0.37228745,-2.1248217
0.986,9.961414,-5.4905834,4.3795314,5.1825027,-0.42401695,-2.0987017
0.988,10.102725,-5.516021,4.368637,5.2037406,-0.48029444,-2.0712798
0.99,10.243116,-5.5389147,4.3563313,5.2210274,-0.54132795,-2.0425713
0.992,10.379353,-5.5585265,4.342209,5.233995,-0.6072694,-2.0125837
0.994,10.509662,-5.5745487,4.324403,5.242468,-0.6781728,-1.9813418
0.996,10.638048,-5.5893903,4.302746,5.2464566,-0.75400305,-1.9489206
0.998,10.764674,-5.603558,4.277465,5.2461705,-0.83465147,-1.9154357
1,10.880743,-5.613332,4.247414,5.2419677,-0.9199662,-1.8810358
1.002,10.983634,-5.618884,4.2144914,5.234294,-1.0098163,-1.8459249
1.004,11.0800495,-5.624586,4.180503,5.223803,-1.1037064,-1.8102431
1.006,11.169494,-5.629811,4.1438913,5.211252,-1.2009583,-1.774103
1.008,11.24548,-5.6316104,4.102366,5.1973352,-1.3010757,-1.737617
1.01,11.308018,-5.630748,4.055828,5.18271,-1.4034667,-1.7008572
1.012,11.361645,-5.6295295,4.005172,5.167997,-1.507324,-1.66394
1.014,11.405217,-5.6263366,3.9495606,5.1538005,-1.6116484,-1.6269834
1.016,11.436214,-5.6194067,3.8887646,5.1408153,-1.71499,-1.5899142
1.018,11.456826,-5.609989,3.8238156,5.129812,-1.8155917,-1.5525153
1.02,11.4690275,-5.59904,3.754375,5.121561,-1.9116848,-1.514585
1.022,11.4732,-5.585533,3.6796951,5.116937,-2.0011945,-1.475799
1.024,11.469898,-5.5688195,3.5996516,5.117006,-2.0815637,-1.4355817
1.026,11.460672,-5.548754,3.5144234,5.122983,-2.1498904,-1.3931425
1.028,11.447407,-5.5252295,3.4237564,5.135985,-2.2036128,-1.3477526
1.03,11.43133,-5.498139,3.3273594,5.1568437,-2.2408037,-1.2989547
1.032,11.413837,-5.46712,3.2248547,5.186322,-2.2592661,-1.2461618
1.034,11.396128,-5.43226,3.1161745,5.2251983,-2.2565582,-1.188395
1.036,11.379352,-5.3934393,3.0012453,5.2739115,-2.2311256,-1.1249564
1.038,11.3648815,-5.350913,2.8800507,5.332514,-2.182249,-1.0556787
1.04,11.353872,-5.30481,2.7526574,5.4008565,-2.1094387,-0.98033476
1.042,11.346943,-5.2551603,2.6192508,5.47863,-2.0125365,-0.8985112
1.044,11.344637,-5.202187,2.480408,5.565292,-1.8920908,-0.81001735
1.046,11.346958,-5.1459208,2.336973,5.6599946,-1.749097,-0.714967
1.048,11.353452,-5.0867395,2.189659,5.7617025,-1.5846618,-0.61336327
1.05,11.363411,-5.0247474,2.0397704,5.869215,-1.4001966,-0.50501204
1.052,11.375617,-4.96002,1.8887205,5.9811497,-1.1976328,-0.38978076
1.054,11.388789,-4.8925047,1.7380819,6.095983,-0.97927004,-0.2676077
1.056,11.401792,-4.8221254,1.589685,6.212162,-0.7477148,-0.13845968
1.058,11.413208,-4.748842,1.4452734,6.327992,-0.50619465,-0.0024778247
1.06,11.421117,-4.672176,1.3063283,6.4418464,-0.2582215,0.14001411
1.062,11.42403,-4.591935,1.1741703,6.552272,-0.0072667003,0.28849697
1.064,11.420486,-4.5078716,1.0498893,6.6579833,0.2430265,0.4422437
1.066,11.408794,-4.4195366,0.93514705,6.757862,0.48904014,0.6004223
1.068,11.3869915,-4.3264394,0.8317859,6.8510256,0.7275046,0.7620666
1.07,11.353508,-4.228206,0.7414861,6.9367523,0.9554733,0.92604315
1.072,11.306691,-4.1244245,0.66601944,7.014538,1.1706624,1.0912414
1.074,11.245532,-4.0150127,0.6068516,7.0841694,1.3716822,1.2568059
1.076,11.16897,-3.8998294,0.565253,7.1455517,1.5575669,1.4219899
1.078,11.07643,-3.7789102,0.5420873,7.19863,1.7275691,1.5861557
1.08,10.967673,-3.6521688,0.53777313,7.243458,1.8812678,1.7488561
1.082,10.842297,-3.5197618,0.55156493,7.2803073,2.0188372,1.909982
1.084,10.7010765,-3.3824003,0.5842469,7.3095713,2.1406517,2.0696685
1.086,10.543658,-3.240265,0.63746786,7.3314447,2.2463055,2.227792
1.088,10.368189,-3.0928695,0.7107012,7.3459635,2.3350575,2.3839405
1.09,10.175737,-2.9411647,0.80294585,7.353289,2.4067717,2.5380404
1.092,9.967654,-2.786407,0.9129076,7.3536134,2.4613733,2.690166
1.094,9.7447,-2.6290722,1.0391761,7.346973,2.4984426,2.839925
1.096,9.506218,-2.4686298,1.1796873,7.3333325,2.5177388,2.9866486
1.098,9.251943,-2.3053932,1.3330569,7.3127465,2.5194802,3.129868
1.1,8.984652,-2.1409423,1.4971489,7.2853055,2.5039756,3.2692704
1.102,8.706806,-1.9764128,1.6692834,7.2510695,2.471447,3.4043212
1.104,8.4190035,-1.812075,1.8474473,7.2100883,2.4223652,3.5344033
1.106,8.117424,-1.6459496,2.0278282,7.1624465,2.3575037,3.6591077
1.108,7.803958,-1.4786924,2.2065544,7.108265,2.2776299,3.7781088
1.11,7.487382,-1.3138293,2.3812304,7.0476704,2.1834543,3.8910933
1.112,7.168047,-1.15015,2.5470636,6.980841,2.0757165,3.9978225
1.114,6.839256,-0.9834403,2.7002084,6.9080734,1.9552195,4.098166
1.116,6.5041933,-0.8155016,2.8403764,6.8297753,1.8228701,4.1920815
1.118,6.1702676,-0.6493566,2.9669251,6.74646,1.6797131,4.2796316
1.12,5.8377476,-0.48366737,3.076753,6.6587524,1.5269462,4.3609757
1.122,5.503963,-0.31641376,3.1663713,6.567344,1.365937,4.436411
1.124,5.172826,-0.1498115,3.2343554,6.473027,1.1982327,4.506358
1.126,4.8486724,0.01486671,3.2790282,6.376659,1.0254674,4.5713353
1.128,4.531095,0.17931008,3.2982438,6.279088,0.849203,4.6318736
1.13,4.220748,0.34441686,3.291794,6.181095,0.67083716,4.688493
1.132,3.9207375,0.5088471,3.260241,6.0833445,0.49154806,4.741621
1.134,3.6336236,0.6721384,3.2037854,5.986369,0.3122176,4.791588
1.136,3.360448,0.834476,3.123174,5.890567,0.13345087,4.838628
1.138,3.1020322,0.9961208,3.0198972,5.796266,-0.044365764,4.8828754
1.14,2.860069,1.1567351,2.8967752,5.70368,-0.22101247,4.924368
1.142,2.6359932,1.3162372,2.756534,5.61295,-0.396392,4.963061
1.144,2.430131,1.4751496,2.601811,5.524173,-0.5704547,4.998858
1.146,2.2426517,1.6336151,2.4359157,5.43742,-0.74315286,5.031622
1.148,2.0732846,1.7920437,2.262453,5.3527665,-0.91440046,5.0612082
1.15,1.9215145,1.951036,2.0851355,5.270297,-1.0840222,5.08746
1.152,1.7866888,2.1111302,1.9077518,5.19011,-1.2517176,5.1102343
1.154,1.667768,2.2728543,1.7338513,5.1123486,-1.4170246,5.129428
1.156,1.5635806,2.4367645,1.566839,5.0371847,-1.5792807,5.145023
1.158,1.4725083,2.6036959,1.4101212,4.9648123,-1.7376574,5.1571083
1.16,1.3927779,2.7742639,1.2668569,4.89543,-1.8911653,5.1658697
1.162,1.322166,2.9490812,1.1397665,4.8292413,-2.0386481,5.17162
1.164,1.2577935,3.1287758,1.0315874,4.766435,-2.1788216,5.174792
1.166,1.1962211,3.3140295,0.9447039,4.7071586,-2.3103998,5.175873
1.168,1.1342075,3.5054855,0.88107586,4.6514783,-2.4321957,5.175407
1.17,1.0684813,3.7037542,0.8420129,4.5993934,-2.5432038,5.173954
1.172,0.9956846,3.9094565,0.8281146,4.550845,-2.6426852,5.172033
1.174,0.91292447,4.1230426,0.8392993,4.5057,-2.7302442,5.170048
1.176,0.81745166,4.3447685,0.87499213,4.463795,-2.805838,5.1682906
1.178,0.7069249,4.5747304,0.93383515,4.424947,-2.8697455,5.1668983
1.18,0.57910466,4.8128734,1.013978,4.3889747,-2.9225101,5.1658583
1.182,0.43213895,5.058784,1.1131243,4.3556943,-2.9648395,5.1650176
1.184,0.26405022,5.3122315,1.2287369,4.3249273,-2.9975514,5.1640825
1.186,0.07313657,5.5727215,1.3581125,4.2965136,-3.0215068,5.162661
1.188,-0.14183357,5.839738,1.4983268,4.2702765,-3.0375419,5.1603184
1.19,-0.38161016,6.112626,1.6463583,4.2460055,-3.0464604,5.1565995
1.192,-0.6463797,6.390788,1.7991817,4.2234535,-3.0490289,5.1511054
1.194,-0.93575275,6.673664,1.9534369,4.2023654,-3.0459538,5.1435122
1.196,-1.2492355,6.9607196,2.1056392,4.182501,-3.0379279,5.1336164
1.198,-1.5856676,7.251552,2.2524934,4.1636596,-3.02562,5.1213255
1.2,-1.9437417,7.545619,2.3912063,4.1457267,-3.0096848,5.106614
1.202,-2.3218899,7.8426332,2.5193982,4.1286902,-2.9907584,5.0895305
1.204,-2.7186894,8.142491,2.6350145,4.112639,-2.9694574,5.07018
1.206,-3.1320844,8.44516,2.736546,4.0977626,-2.946325,5.048695
1.208,-3.5600832,8.750967,2.8230526,4.084316,-2.921836,5.0252028
1.21,-4.000446,9.059983,2.894029,4.0726104,-2.8963463,4.9998612
1.212,-4.4509106,9.372553,2.9493332,4.0629845,-2.8700204,4.9728312
1.214,-4.9090967,9.689076,2.989261,4.055804,-2.8428273,4.9442816
1.216,-5.3725934,10.0099945,3.0142,4.051386,-2.8145711,4.914361
1.218,-5.839055,10.335969,3.024898,4.050057,-2.7848587,4.883186
1.22,-6.3055334,10.667147,3.02232,4.0521035,-2.7531166,4.850843
1.222,-6.7693443,11.003747,3.0075624,4.0577674,-2.7186787,4.817324
1.224,-7.227839,11.345624,2.982122,4.067231,-2.6808445,4.7825155
1.226,-7.679061,11.692845,2.9474845,4.0805693,-2.6389544,4.746237
1.228,-8.121,12.045268,2.90538,4.097787,-2.592402,4.708241
1.23,-8.551883,12.402427,2.8575315,4.1187496,-2.5406742,4.668216
1.232,-8.969979,12.763618,2.8055573,4.14319,-2.4834266,4.625844
1.234,-9.373148,13.127711,2.7511358,4.1707416,-2.4205139,4.580865
1.236,-9.761174,13.49381,2.6959987,4.200956,-2.3519654,4.53305
1.238,-10.132304,13.860396,2.6408098,4.233342,-2.2779446,4.4822435
1.24,-10.485552,14.22629,2.5854762,4.2673745,-2.198767,4.428351
1.242,-10.820313,14.589966,2.5303094,4.302533,-2.1148388,4.3713527
1.244,-11.136854,14.949666,2.4762263,4.3383336,-2.0266728,4.3112955
1.246,-11.434706,15.303867,2.4232724,4.374319,-1.93485,4.2482758
1.248,-11.713306,15.651177,2.3715043,4.410111,-1.8400166,4.1824307
1.25,-11.973216,15.990607,2.3209567,4.445366,-1.7428553,4.1139336
1.252,-12.215256,16.320728,2.2726161,4.479778,-1.6441157,4.042941
1.254,-12.4400835,16.640242,2.2272189,4.5130434,-1.5446019,3.969645
1.256,-12.648754,16.948284,2.1848788,4.5448594,-1.445142,3.894236
1.258,-12.8427305,17.244051,2.1460574,4.574939,-1.3466065,3.8169427
1.26,-13.023703,17.527035,2.1117938,4.603029,-1.2498442,3.7379878
1.262,-13.193735,17.79688,2.083162,4.628849,-1.1557055,3.6575174
1.264,-13.3548155,18.05372,2.0613866,4.6521053,-1.0651298,3.5755792
1.266,-13.509032,18.297771,2.047555,4.672462,-0.9791556,3.4921517
1.268,-13.658148,18.52925,2.0427167,4.689622,-0.89870626,3.4071689
1.27,-13.804136,18.748848,2.0475783,4.7033195,-0.82463545,3.3204753
1.272,-13.948944,18.957132,2.0628579,4.7132616,-0.75784814,3.2317433
1.274,-14.094022,19.154821,2.0890973,4.7191916,-0.69907886,3.1405687
1.276,-14.240969,19.342539,2.1267834,4.7209587,-0.6487578,3.0465863
1.278,-14.391378,19.520954,2.176246,4.7184467,-0.6071223,2.949447
1.28,-14.546398,19.690472,2.237626,4.711623,-0.57422125,2.848835
1.282,-14.707251,19.851358,2.3108127,4.7005596,-0.5498395,2.7445378
1.284,-14.874927,20.004166,2.3957167,4.6854706,-0.5335919,2.6364365
1.286,-15.050167,20.149073,2.491754,4.666624,-0.52503425,2.5244722
1.288,-15.233328,20.286482,2.5982964,4.6443157,-0.5237806,2.408614
1.29,-15.424282,20.416466,2.714466,4.6188564,-0.52960813,2.2888637
1.292,-15.622634,20.53912,2.8392763,4.590516,-0.5424876,2.1651845
1.294,-15.82725,20.654158,2.9717944,4.5595255,-0.5625407,2.0374546
1.296,-16.036942,20.761293,3.110897,4.5260515,-0.59005046,1.9054604
1.298,-16.250198,20.859972,3.2557473,4.4902287,-0.62536603,1.7689414
1.3,-16.465487,20.949686,3.4055,4.4521484,-0.66879445,1.6276057
1.302,-16.68099,21.029566,3.5596542,4.4119005,-0.72050685,1.4812224
1.304,-16.894972,21.09898,3.7179189,4.369615,-0.78045106,1.3296688
1.306,-17.105587,21.157234,3.880104,4.325498,-0.84826475,1.1730251
1.308,-17.31087,21.203838,4.0461965,4.2798233,-0.92325383,1.0115634
1.31,-17.508682,21.23817,4.215967,4.232967,-1.0044005,0.84573627
1.312,-17.696852,21.259762,4.3895645,4.1853614,-1.0904334,0.6761619
1.314,-17.872831,21.268044,4.5670485,4.137465,-1.1798995,0.50360054
1.316,-18.03433,21.262445,4.7484293,4.089758,-1.2712439,0.32888013
1.318,-18.179201,21.242537,4.933702,4.0426874,-1.3628638,0.15278882
1.32,-18.30529,21.208166,5.1228085,3.996651,-1.4532423,-0.023977578
1.322,-18.410862,21.159365,5.315897,3.9519005,-1.541193,-0.20092824
1.324,-18.494434,21.096212,5.5131855,3.908574,-1.6257875,-0.37770507
1.326,-18.554747,21.018763,5.7150507,3.8667307,-1.706309,-0.5540582
1.328,-18.590916,20.927305,5.921685,3.82631,-1.7823887,-0.72991544
1.33,-18.602346,20.822311,6.1328998,3.7871308,-1.8540251,-0.90533316
1.332,-18.588564,20.704231,6.3486185,3.7490137,-1.9213679,-1.080391
1.334,-18.54939,20.573866,6.5684557,3.7117155,-1.9846896,-1.255163
1.336,-18.484516,20.431875,6.792033,3.6749535,-2.0443926,-1.4296901
1.338,-18.394215,20.279133,7.018652,3.6384618,-2.1008837,-1.6039934
1.34,-18.278908,20.116596,7.2477355,3.6020396,-2.154473,-1.7780547
1.342,-18.1395,19.94534,7.478596,3.5655625,-2.2053373,-1.9518046
1.344,-17.9773,19.766731,7.7106433,3.5289896,-2.2534966,-2.1251597
1.346,-17.792473,19.581425,7.943141,3.4923792,-2.298811,-2.2979784
1.348,-17.58744,19.390823,8.176331,3.4558523,-2.3409889,-2.4700983
1.35,-17.364044,19.195635,8.410742,3.4196029,-2.3796024,-2.6413367
1.352,-17.124346,18.997139,8.6458435,3.383859,-2.4140868,-2.8114862
1.354,-16.870104,18.796627,8.880385,3.3488836,-2.4438286,-2.9802918
1.356,-16.60343,18.595076,9.113691,3.3148975,-2.4682045,-3.1474833
1.358,-16.326954,18.393368,9.344988,3.2820823,-2.4866703,-3.312803
1.36,-16.042492,18.192417,9.5729065,3.2505531,-2.498869,-3.4760227
1.362,-15.751791,17.993208,9.796103,3.2203457,-2.5046587,-3.6369634
1.364,-15.456521,17.796267,10.013792,3.1913915,-2.5041292,-3.7955146
1.366,-15.15836,17.602194,10.225469,3.16354,-2.4976087,-3.9516664
1.368,-14.858944,17.411556,10.430153,3.1365695,-2.4856646,-4.105513
1.37,-14.559507,17.224447,10.626537,3.1102166,-2.469047,-4.257209
1.372,-14.261176,17.041187,10.813358,3.0841856,-2.4486387,-4.406948
1.374,-13.96452,16.861557,10.989652,3.0581908,-2.4254057,-4.554966
1.376,-13.670024,16.685364,11.154787,3.0319521,-2.400304,-4.7014875
1.378,-13.378237,16.512257,11.308247,3.0052314,-2.374248,-4.846699
1.38,-13.08922,16.341755,11.449871,2.9778223,-2.34807,-4.990761
1.382,-12.802507,16.173399,11.579765,2.9495351,-2.3225536,-5.1337833
1.384,-12.51759,16.006426,11.697732,2.9202008,-2.2984414,-5.275879
1.386,-12.233562,15.840096,11.803921,2.8896708,-2.2764096,-5.417115
1.388,-11.949221,15.673546,11.898567,2.8578575,-2.2570984,-5.557538
1.39,-11.663472,15.505981,11.982008,2.8246737,-2.241098,-5.6971893
1.392,-11.374913,15.33643,12.05472,2.7900605,-2.2289228,-5.836046
1.394,-11.082168,15.163808,12.117172,2.7539911,-2.220989,-5.974045
1.396,-10.783749,14.987055,12.169876,2.7164588,-2.2175858,-6.111062
1.398,-10.478266,14.805005,12.21324,2.6774979,-2.218808,-6.246878
1.4,-10.164495,14.616705,12.247732,2.637187,-2.224559,-6.3812103
1.402,-9.841218,14.4211,12.273685,2.5956569,-2.23452,-6.51369
1.404,-9.50728,14.217249,12.29124,2.5530875,-2.2481494,-6.643892
1.406,-9.161694,14.004384,12.300821,2.5097058,-2.264806,-6.771366
1.408,-8.8039665,13.781817,12.302797,2.465742,-2.2837937,-6.895669
1.41,-8.433548,13.548944,12.297297,2.421445,-2.3044136,-7.0163994
1.412,-8.050162,13.30538,12.284407,2.377067,-2.326016,-7.1332226
1.414,-7.653681,13.050675,12.26406,2.332848,-2.3480399,-7.2459097
1.416,-7.244182,12.784615,12.23607,2.2889872,-2.3700697,-7.3543243
1.418,-6.8221655,12.507074,12.20023,2.2456472,-2.3918793,-7.458415
1.42,-6.3883476,12.218363,12.156437,2.2029219,-2.4134085,-7.5582037
1.422,-5.9439635,11.918695,12.104553,2.1608377,-2.4347427,-7.653772
1.424,-5.4905214,11.608955,12.044582,2.1193619,-2.4560757,-7.7452245
1.426,-5.029661,11.2897,11.977087,2.0784068,-2.477693,-7.8326864
1.428,-4.562921,10.961932,11.9018545,2.0378265,-2.499964,-7.9162807
1.43,-4.0927105,10.62707,11.819485,1.9974556,-2.5233145,-7.996138
1.432,-3.6207345,10.286291,11.730483,1.9571085,-2.5481656,-8.072376
1.434,-3.1489425,9.941167,11.635417,1.9166176,-2.5749488,-8.1451
1.436,-2.6795018,9.593424,11.534986,1.8758535,-2.6040459,-8.214422
1.438,-2.214695,9.244678,11.430433,1.8347182,-2.6357386,-8.280476
1.44,-1.7570645,8.89677,11.323237,1.7931777,-2.6702461,-8.343406
1.442,-1.3089552,8.551624,11.214478,1.7512147,-2.7077467,-8.403383
1.444,-0.87237465,8.210912,11.105521,1.7088368,-2.7484248,-8.460621
1.446,-0.4494934,7.8765745,10.997458,1.6660745,-2.7924714,-8.515385
1.448,-0.042150855,7.5504093,10.8915,1.622941,-2.8400996,-8.567974
1.45,0.3480599,7.234248,10.788761,1.579434,-2.8915682,-8.618769
1.452,0.7199545,6.9296827,10.690329,1.5355109,-2.9472187,-8.668159
1.454,1.0723822,6.638053,10.597193,1.4910831,-3.0074,-8.716541
1.456,1.4046955,6.3608656,10.51059,1.4460645,-3.072337,-8.764301
1.458,1.7166814,6.099082,10.431491,1.4003284,-3.1422873,-8.811783
1.46,2.0083914,5.853647,10.360819,1.3537148,-3.2174177,-8.859293
1.462,2.280313,5.6251774,10.299225,1.3061113,-3.297787,-8.907103
1.464,2.533349,5.4140506,10.247528,1.257371,-3.3834581,-8.95546
1.466,2.76865,5.2203927,10.20653,1.2073538,-3.4745424,-9.004631
1.468,2.9881706,5.043831,10.176981,1.1559166,-3.5712512,-9.054926
1.47,3.1936762,4.884111,10.159733,1.1029489,-3.6738913,-9.106684
1.472,3.3875058,4.7407007,10.155482,1.0483252,-3.7828844,-9.16029
1.474,3.5722082,4.61317,10.164974,0.9919371,-3.8987234,-9.216156
1.476,3.7505147,4.500899,10.188864,0.9336749,-4.0219736,-9.274704
1.478,3.9253762,4.403294,10.228018,0.8734196,-4.15322,-9.336347
1.48,4.0995965,4.3196983,10.283339,0.81102955,-4.293005,-9.401432
1.482,4.2763352,4.2492285,10.355807,0.7463545,-4.441714,-9.47021
1.484,4.4581594,4.1915703,10.446339,0.679205,-4.5995955,-9.542795
1.486,4.647739,4.146242,10.556038,0.60932446,-4.7667646,-9.6191635
1.488,4.8475523,4.1130176,10.686189,0.5363909,-4.9432626,-9.699181
1.49,5.059756,4.0917573,10.83754,0.45998788,-5.129052,-9.782578
1.492,5.2864003,4.0820045,11.011011,0.37960315,-5.324172,-9.869051
1.494,5.5290737,4.08344,11.207625,0.29464626,-5.5287695,-9.958298
1.496,5.789127,4.0963492,11.427929,0.20447731,-5.743105,-10.050079
1.498,6.067358,4.121168,11.672442,0.108463526,-5.9675417,-10.144192
1.5,6.364244,4.158245,11.941513,0.0059839487,-6.202512,-10.240526
1.502,6.680132,4.20821,12.235329,-0.103503466,-6.448405,-10.339024
1.504,7.014949,4.271634,12.553947,-0.22044516,-6.705448,-10.439636
1.506,7.3682327,4.349224,12.897156,-0.3451333,-6.973611,-10.542372
1.508,7.739739,4.4414206,13.264641,-0.47769833,-7.2525387,-10.647215
1.51,8.129129,4.5486403,13.655771,-0.6181226,-7.5416136,-10.754091
1.512,8.535681,4.671264,14.069764,-0.7662275,-7.839736,-10.862828
1.514,8.958624,4.8096313,14.505756,-0.9216981,-8.14555,-10.973177
1.516,9.397209,4.9637747,14.96245,-1.0841494,-8.457559,-11.084777
1.518,9.851221,5.133527,15.438296,-1.2531021,-8.774019,-11.197131
1.52,10.320263,5.3184214,15.931816,-1.4280372,-9.093166,-11.30966
1.522,10.803673,5.5180407,16.441042,-1.6084492,-9.413379,-11.421705
1.524,11.301432,5.731972,16.964252,-1.7938011,-9.7331295,-11.532549
1.526,11.813719,5.9589043,17.500044,-1.9835558,-10.050942,-11.641407
1.528,12.34024,6.1982164,18.046574,-2.1771393,-10.365437,-11.747479
1.53,12.880915,6.4483786,18.601952,-2.3739376,-10.675173,-11.849931
1.532,13.436655,6.707611,19.164087,-2.5732522,-10.978658,-11.947926
1.534,14.0082245,6.973873,19.730644,-2.7743335,-11.274302,-12.040637
1.536,14.596228,7.2457724,20.299011,-2.9763598,-11.56045,-12.127259
1.538,15.201543,7.521284,20.867268,-3.1784468,-11.835445,-12.207051
1.54,15.825228,7.797913,21.433138,-3.3796968,-12.097704,-12.279328
1.542,16.468094,8.073381,21.99445,-3.579217,-12.345822,-12.343469
1.544,17.13099,8.345349,22.549072,-3.7761574,-12.578722,-12.398913
1.546,17.81463,8.611678,23.095068,-3.9697576,-12.795684,-12.4451885
1.548,18.519909,8.870041,23.630405,-4.1593537,-12.996332,-12.481904
1.55,19.247185,9.118476,24.153114,-4.344387,-13.180671,-12.508725
1.552,19.99686,9.354759,24.661922,-4.5243773,-13.349084,-12.52541
1.554,20.76902,9.577033,25.15586,-4.698899,-13.502186,-12.531828
1.556,21.56404,9.783021,25.634457,-4.8674617,-13.640671,-12.527932
1.558,22.38161,9.970571,26.097248,-5.029579,-13.765259,-12.513726
1.56,23.221058,10.138056,26.543943,-5.184695,-13.876511,-12.489146
1.562,24.081745,10.284032,26.974243,-5.3321834,-13.97482,-12.454142
1.564,24.96276,10.407214,27.388111,-5.471382,-14.060411,-12.408703
1.566,25.862644,10.506654,27.785671,-5.6015606,-14.133373,-12.352846
1.568,26.77976,10.581549,28.16767,-5.721979,-14.193651,-12.286581
1.57,27.712704,10.631178,28.53521,-5.8319383,-14.241163,-12.2099285
1.572,28.65961,10.655055,28.889711,-5.9308295,-14.27593,-12.122913
1.574,29.61866,10.652844,29.232288,-6.0181465,-14.297957,-12.025563
1.576,30.587704,10.624737,29.564085,-6.0934486,-14.3072195,-11.917919
1.578,31.56498,10.57081,29.886217,-6.1564217,-14.303858,-11.80007
1.58,32.548676,10.491156,30.199358,-6.2068334,-14.288067,-11.672085
1.582,33.53692,10.385761,30.504475,-6.244479,-14.2600155,-11.534042
1.584,34.527832,10.255113,30.802366,-6.2691545,-14.219831,-11.3860235
1.586,35.5193,10.099607,31.09383,-6.280645,-14.167623,-11.228142
1.588,36.50993,9.919718,31.379232,-6.278661,-14.103355,-11.060509
1.59,37.497112,9.716266,31.659159,-6.2628307,-14.02696,-10.883294
1.592,38.481857,9.48933,31.934137,-6.232732,-13.938345,-10.696716
1.594,39.462597,9.239481,32.2042,-6.187887,-13.837488,-10.501069
1.596,40.438847,8.967482,32.468983,-6.1278424,-13.724524,-10.296716
1.598,41.410526,8.673936,32.727825,-6.052164,-13.599765,-10.08407
1.6,42.37821,8.359142,32.980656,-5.9605374,-13.463789,-9.863554
1.602,43.342316,8.024101,33.227013,-5.8527923,-13.31752,-9.635591
1.604,44.304028,7.6698074,33.466427,-5.728928,-13.162202,-9.400579
1.606,45.26472,7.296928,33.69863,-5.589139,-12.999302,-9.15886
1.608,46.226147,6.906606,33.92367,-5.4337826,-12.830514,-8.910633
1.61,47.190506,6.499919,34.141502,-5.2633867,-12.657776,-8.656076
1.612,48.160107,6.0784526,34.351967,-5.078562,-12.483099,-8.395225
1.614,49.13763,5.6440463,34.55507,-4.8800287,-12.308577,-8.128056
1.616,50.12579,5.199274,34.751247,-4.668491,-12.136224,-7.8544364
1.618,51.12703,4.747629,34.940956,-4.4446306,-11.967919,-7.574071
1.62,52.144432,4.2929807,35.124977,-4.2090993,-11.8053875,-7.2865634
1.622,53.181007,3.8402586,35.30398,-3.9624586,-11.650169,-6.9913545
1.624,54.239586,3.3942537,35.480137,-3.705193,-11.503592,-6.687805
1.626,55.32377,2.9607863,35.654377,-3.4376862,-11.366804,-6.3752074
1.628,56.43657,2.5471816,35.82818,-3.1602411,-11.240842,-6.0527945
1.63,57.580643,2.161642,36.00405,-2.8731108,-11.126616,-5.719758
1.632,58.758453,1.8135729,36.185097,-2.5764632,-11.024895,-5.375284
1.634,59.97277,1.5125666,36.374138,-2.2703917,-10.936346,-5.0185537
1.636,61.225994,1.2690449,36.574493,-1.954932,-10.861624,-4.6488223
1.638,62.52088,1.092864,36.791004,-1.6300856,-10.801293,-4.265437
1.64,63.85875,0.99731445,37.028572,-1.2957704,-10.755852,-3.8678024
1.642,65.24115,0.995883,37.291916,-0.95187736,-10.725749,-3.4554
1.644,66.66886,1.1035633,37.58567,-0.59825695,-10.711325,-3.0277114
1.646,68.13832,1.3419361,37.911884,-0.23467112,-10.712773,-2.5842428
1.648,69.64848,1.7277193,38.269363,0.13917136,-10.730061,-2.1245778
1.65,71.20191,2.2691774,38.665695,0.5235808,-10.763005,-1.6483426
1.652,72.79181,2.9852362,39.11903,0.9187311,-10.811412,-1.155344
1.654,74.41965,3.8960047,39.634018,1.324619,-10.8750105,-0.64549047
1.656,76.08186,5.032942,40.206337,1.7410257,-10.95335,-0.11859226
1.658,77.775154,6.4245586,40.837044,2.167403,-11.04601,0.42559344
1.66,79.50137,8.092379,41.53035,2.6027632,-11.152655,0.9873826
1.662,81.25705,10.068123,42.2853,3.045671,-11.272928,1.5671737
1.664,83.03403,12.376347,43.102234,3.4943533,-11.406471,2.1654518
1.666,84.81551,15.02684,43.9796,3.9467318,-11.552689,2.7830093
1.668,86.594124,18.03259,44.92666,4.4004164,-11.710887,3.4210973
1.67,88.37517,21.400677,45.961765,4.8528266,-11.880238,4.081322
1.672,90.14684,25.158522,47.077057,5.301541,-12.059212,4.7656684
1.674,91.89211,29.33678,48.25956,5.7445955,-12.245364,5.4765286
1.676,93.61961,33.93886,49.524315,6.181079,-12.43486,6.216203
1.678,95.29072,38.96958,50.90292,6.6109676,-12.622409,6.9871225
1.68,96.914314,44.40838,52.439842,7.0331655,-12.803482,7.792388
1.682,98.416756,50.264652,54.164013,7.4468102,-12.972068,8.63557
1.684,99.79256,56.502064,56.1382,7.8537993,-13.11702,9.521471
1.686,101.23036,63.082485,58.324467,8.257289,-13.224868,10.454694
1.688,102.72515,69.953896,60.7128,8.659797,-13.282112,11.438979
1.69,104.22099,77.12747,63.373466,9.062675,-13.273999,12.47858
1.692,105.72395,84.55839,66.34172,9.466837,-13.183924,13.578024
1.694,107.2203,92.21787,69.58158,9.872244,-12.994776,14.740267
1.696,108.71312,100.00166,73.120674,10.277428,-12.6896305,15.966955
1.698,110.216995,107.82029,77.03349,10.679953,-12.249488,17.260212
1.7,111.75607,115.58597,81.329926,11.073809,-11.654412,18.624113
1.702,113.35019,123.18138,85.87551,11.451227,-10.884413,20.061268
1.704,115.09649,130.71175,90.60193,11.803623,-9.921707,21.569649
1.706,116.80639,138.07747,95.74193,12.11607,-8.755209,23.144829
1.708,118.84291,144.9226,101.353294,12.369366,-7.373757,24.776949
1.71,121.04994,151.07658,107.36786,12.5394745,-5.7712545,26.456547
1.712,123.4095,156.6044,113.64844,12.607077,-3.9366126,28.174465
1.714,125.98581,161.4213,120.123474,12.5656185,-1.8465266,29.928268
1.716,128.82697,165.43015,126.710724,12.407158,0.4855709,31.698719
1.718,131.95802,168.5425,133.33281,12.132829,3.0558758,33.473106
1.72,135.45306,170.72932,139.92197,11.7427025,5.8648386,35.229847
1.722,139.28526,172.02809,146.35309,11.243902,8.905866,36.946938
1.724,143.45428,172.45816,152.4725,10.660978,12.159239,38.602905
1.726,147.95514,172.03348,158.12418,10.02734,15.5911,40.17851
1.728,152.75201,170.7862,163.15692,9.386381,19.155666,41.650467
1.73,157.79251,168.77272,167.419,8.785633,22.80857,42.97304
1.732,163.00366,166.06926,170.759,8.257554,26.49329,44.112366
1.734,168.29137,162.76788,173.03564,7.823191,30.085997,45.008667
1.736,173.54181,158.96951,174.12938,7.553262,33.519104,45.564777
1.738,178.63358,154.7784,173.94687,7.4645147,36.708473,45.703377
1.74,183.43694,150.29968,172.42715,7.5261602,39.565628,45.36495
1.742,187.8165,145.63686,169.54619,7.71149,42.028664,44.479088
1.744,191.63535,140.88863,165.31473,7.9747677,44.036587,42.97309
1.746,194.76628,136.143,159.7765,8.238486,45.515102,40.788235
1.748,197.09552,131.47379,153.01283,8.414478,46.392784,37.90206
1.75,198.5227,126.93919,145.14609,8.420876,46.617943,34.325832
1.752,198.96584,122.58382,136.33392,8.193659,46.16003,30.098167
1.754,198.36874,118.43687,126.76128,7.6903973,45.00707,25.291473
1.756,196.70645,114.511185,116.63669,6.8886824,43.17008,20.023603
1.758,193.97864,110.81433,106.18489,5.7874603,40.691704,14.459469
1.76,190.21141,107.35191,95.628296,4.4083176,37.646767,8.797104
1.762,185.46594,104.11014,85.18092,2.786768,34.129646,3.2534628
1.764,179.82104,101.06824,75.06084,0.9672241,30.252598,-1.9596186
1.766,173.38472,98.19497,65.469826,-1.0082779,26.129766,-6.653109
1.768,166.28815,95.46981,56.57539,-3.1023932,21.870325,-10.6822195
1.77,158.67438,92.8831,48.512154,-5.2667937,17.607368,-13.9424515
1.772,150.7014,90.41803,41.386364,-7.4533205,13.43934,-16.403282
1.774,142.53581,88.06899,35.266815,-9.603905,9.447726,-18.090006
1.776,134.34679,85.8445,30.187346,-11.661032,5.70991,-19.084164
1.778,126.28633,83.744316,26.137592,-13.575203,2.2986655,-19.505161
1.78,118.48625,81.768814,23.073034,-15.296059,-0.722136,-19.489475
1.782,111.080734,79.8981,20.949514,-16.77869,-3.3011026,-19.16583
1.784,104.18559,78.11491,19.697329,-17.985893,-5.408144,-18.632572
1.786,97.87137,76.42711,19.200863,-18.88451,-7.020067,-17.982769
1.788,92.23046,74.83297,19.326412,-19.463303,-8.094695,-17.264624
1.79,87.28353,73.343864,19.93701,-19.773972,-8.686241,-16.493095
1.792,83.10234,71.93368,20.923473,-19.828558,-8.84445,-15.705727
1.794,79.65851,70.61328,22.161514,-19.640139,-8.632584,-14.938129
1.796,76.76677,69.377205,23.628855,-19.265747,-8.146364,-14.200157
1.798,74.46076,68.21858,25.263,-18.762894,-7.480157,-13.499348
1.8,72.78185,67.070145,26.941479,-18.17714,-6.7201023,-12.854701
1.802,71.67963,65.92652,28.607038,-17.557648,-5.9589005,-12.300524
1.804,71.110565,64.763145,30.273844,-16.956903,-5.295917,-11.867252
1.806,71.00536,63.618244,31.893139,-16.424776,-4.8202367,-11.571091
1.808,71.28303,62.494385,33.398094,-15.999453,-4.595568,-11.41871
1.81,71.86096,61.384655,34.80429,-15.706022,-4.6605773,-11.411498
1.812,72.665794,60.30443,36.235176,-15.559759,-5.0336013,-11.543504
1.814,73.57582,59.090157,37.702297,-15.566808,-5.7115173,-11.796576
1.816,74.72326,57.825085,38.96969,-15.725296,-6.67075,-12.139544
1.818,75.73076,56.771996,40.046837,-16.025965,-7.870907,-12.531565
1.82,76.780266,55.935417,41.048832,-16.45206,-9.260149,-12.926355
1.822,77.85483,55.133118,42.097523,-16.980247,-10.780323,-13.276886
1.824,78.86177,54.391537,43.20128,-17.582514,-12.371331,-13.539696
1.826,79.745544,53.75497,44.358955,-18.22799,-13.975503,-13.678307
1.828,80.48056,53.260365,45.55003,-18.884901,-15.541202,-13.665433
1.83,81.00366,52.89996,46.74111,-19.522038,-17.024809,-13.484667
1.832,81.34946,52.63658,47.946243,-20.109413,-18.390888,-13.130975
1.834,81.50676,52.485817,49.184017,-20.620361,-19.61323,-12.610357
1.836,81.461365,52.48284,50.45517,-21.033218,-20.675167,-11.938053
1.838,81.2184,52.651115,51.746056,-21.331503,-21.568058,-11.135883
1.84,80.78265,52.998795,53.042717,-21.504005,-22.289814,-10.229624
1.842,80.162224,53.52278,54.334305,-21.544487,-22.843376,-9.246363
1.844,79.36884,54.213776,55.607864,-21.451065,-23.235252,-8.212578
1.846,78.41588,55.05851,56.846466,-21.225239,-23.473894,-7.152561
1.848,77.31138,56.041634,58.030685,-20.870693,-23.56831,-6.0876713
1.85,76.064095,57.14482,59.139282,-20.392303,-23.52666,-5.0355883
1.852,74.685524,58.346363,60.1513,-19.79563,-23.355133,-4.008998
1.854,73.18851,59.622913,61.050957,-19.086988,-23.057589,-3.0151463
1.856,71.58401,60.95292,61.828133,-18.273796,-22.636131,-2.0569773
1.858,69.88431,62.316425,62.472897,-17.364893,-22.09171,-1.1340017
1.86,68.1069,63.693893,62.971672,-16.370728,-21.42498,-0.2428999
1.862,66.27096,65.066795,63.311993,-15.303606,-20.637295,0.62139225
1.864,64.39511,66.41818,63.484447,-14.177711,-19.731602,1.4644938
1.866,62.497845,67.73209,63.481655,-13.008974,-18.713352,2.2914286
1.868,60.597443,68.995514,63.298054,-11.814648,-17.591112,3.1059427
1.87,58.71234,70.196175,62.929665,-10.612518,-16.376759,3.910181
1.872,56.860397,71.324715,62.376606,-9.420155,-15.085285,4.704354
1.874,55.057903,72.37555,61.643295,-8.254246,-13.734135,5.4867268
1.876,53.317505,73.3442,60.73893,-7.130212,-12.34269,6.253771
1.878,51.64585,74.22418,59.675373,-6.0619917,-10.931798,7.000514
1.88,50.04712,75.0094,58.465317,-5.0616355,-9.522927,7.7209597
1.882,48.524914,75.69711,57.122856,-4.1390934,-8.137317,8.408606
1.884,47.079006,76.28621,55.664017,-3.3019917,-6.7952433,9.05705
1.886,45.708054,76.77733,54.10736,-2.5555933,-5.5153875,9.660453
1.888,44.408085,77.17377,52.473938,-1.9029367,-4.3143773,10.213853
1.89,43.173145,77.480965,50.785328,-1.34502,-3.2065146,10.713324
1.892,41.99648,77.70533,49.062996,-0.8811264,-2.2036085,11.156108
1.894,40.870728,77.85305,47.329575,-0.50902605,-1.314734,11.540602
1.896,39.787292,77.9302,45.607857,-0.22519922,-0.54616606,11.866327
1.898,38.735535,77.94282,43.92015,-0.025048733,0.09860204,12.133772
1.9,37.703415,77.89646,42.286575,0.09692097,0.61880755,12.344382
1.902,36.67865,77.79554,40.72333,0.1469388,1.016398,12.500359
1.904,35.64991,77.64386,39.243176,0.13185596,1.2959094,12.604577
1.906,34.606792,77.44542,37.8565,0.05905199,1.4642756,12.660511
1.908,33.539787,77.20411,36.572014,-0.063669205,1.5305765,12.672174
1.91,32.442993,76.92296,35.396538,-0.22816658,1.5057594,12.644123
1.912,31.311687,76.6048,34.334557,-0.42615223,1.4022322,12.581373
1.914,30.142817,76.25272,33.38843,-0.64929867,1.2335134,12.489302
1.916,28.934692,75.869606,32.558105,-0.88941765,1.0138469,12.373505
1.918,27.687326,75.4587,31.841213,-1.1386557,0.7578864,12.239716
1.92,26.402466,75.022896,31.233273,-1.3895802,0.4802513,12.09362
1.922,25.083794,74.5646,30.727379,-1.6354427,0.19515872,11.94071
1.924,23.735802,74.08618,30.313858,-1.8702176,-0.08392626,11.786133
1.926,22.365164,73.589386,29.980999,-2.0887425,-0.34456283,11.63461
1.928,20.97955,73.07552,29.715366,-2.2867827,-0.575631,11.490277
1.93,19.587265,72.54568,29.50208,-2.4610431,-0.7674917,11.3566065
1.932,18.196966,72.001144,29.325418,-2.6091454,-0.9120858,11.236305
1.934,16.817913,71.443344,29.168764,-2.7295713,-1.0029966,11.131327
1.936,15.459691,70.87384,29.01483,-2.821516,-1.0354145,11.042808
1.938,14.13187,70.294266,28.846432,-2.8848174,-1.006036,10.971166
1.94,12.843536,69.706535,28.647167,-2.9198182,-0.9130155,10.916094
1.942,11.603366,69.11253,28.40112,-2.9272735,-0.7558751,10.876685
1.944,10.419622,68.51422,28.093658,-2.9083285,-0.5354135,10.851566
1.946,9.299763,67.91334,27.711329,-2.8644066,-0.25352097,10.839062
1.948,8.250054,67.31123,27.242203,-2.7972074,0.08683479,10.837305
1.95,7.275405,66.70889,26.67601,-2.708706,0.4816109,10.844359
1.952,6.37986,66.10741,26.004158,-2.6011736,0.92581713,10.858392
1.954,5.5659122,65.50782,25.219578,-2.4772213,1.4135802,10.877645
1.956,4.8351192,64.91131,24.317162,-2.339798,1.9381982,10.900435
1.958,4.1877975,64.31887,23.29338,-2.1921802,2.492216,10.9251585
1.96,3.62317,63.73128,22.146873,-2.0379186,3.0675392,10.950204
1.962,3.1390867,63.149353,20.8777,-1.8806467,3.6555986,10.973913
1.964,2.7335663,62.573174,19.48758,-1.7239901,4.247604,10.994511
1.966,2.403185,62.00284,17.979912,-1.5713475,4.834829,11.010099
1.968,2.1437435,61.438614,16.35939,-1.425753,5.4089136,11.018677
1.97,1.9508705,60.8799,14.632156,-1.2897363,5.962133,11.018147
1.972,1.8199463,60.326035,12.805559,-1.1652329,6.487622,11.006311
1.974,1.7460461,59.775818,10.888086,-1.0535394,6.979539,10.980905
1.976,1.7241764,59.227924,8.889069,-0.95529526,7.4331384,10.939662
1.978,1.7492027,58.680344,6.8188057,-0.87058914,7.8447165,10.88043
1.98,1.8158207,58.130966,4.6879272,-0.7990252,8.21149,10.801254
1.982,1.9196396,57.577187,2.5078506,-0.739854,8.531465,10.700499
1.984,2.0561066,57.016113,0.29006004,-0.6920176,8.803282,10.576941
1.986,2.2208557,56.445023,-1.9541378,-0.65423083,9.026038,10.429855
1.988,2.40979,55.86125,-4.2131424,-0.6250618,9.199231,10.259053
1.99,2.6194687,55.262047,-6.475889,-0.6029039,9.3227,10.064929
1.992,2.8465471,54.645027,-8.731436,-0.58601403,9.396679,9.848405
1.994,3.0882158,54.007782,-10.969442,-0.5725187,9.421795,9.610879
1.996,3.3418598,53.348164,-13.180014,-0.5604593,9.399061,9.35405
1.998,3.6045246,52.664803,-15.35364,-0.54786605,9.329874,9.079811
2,3.8735132,51.95642,-17.481224,-0.5328341,9.215936,8.790164
2.002,4.14649,51.222485,-19.554058,-0.51360935,9.059189,8.487165
2.004,4.4210052,50.462852,-21.564209,-0.48867017,8.861752,8.172865
2.006,4.6948223,49.677967,-23.503696,-0.45677835,8.625739,7.849238
2.008,4.965703,48.868866,-25.365122,-0.4170917,8.353162,7.5181813
2.01,5.230934,48.037205,-27.141342,-0.36914796,8.045888,7.181535
2.012,5.4880185,47.185238,-28.825602,-0.31291643,7.7055516,6.8409653
2.014,5.7343135,46.315323,-30.411419,-0.24879806,7.333591,6.497937
2.016,5.9666414,45.430264,-31.892374,-0.17743333,6.9319654,6.154019
2.018,6.1823163,44.53341,-33.262527,-0.1002025,6.5010605,5.8096566
2.02,6.3782554,43.62824,-34.515907,-0.018405795,6.042474,5.4658217
2.022,6.551488,42.718876,-35.646835,0.06636771,5.5575314,5.1230297
2.024,6.6994414,41.80946,-36.65049,0.1524579,5.0477886,4.781706
2.026,6.8196135,40.90425,-37.52281,0.23822054,4.515026,4.4422536
2.028,6.9103365,40.00696,-38.260345,0.32215083,3.9613647,4.1051846
2.03,6.9701643,39.12139,-38.86062,0.40298724,3.389303,3.7712104
2.032,6.998052,38.25138,-39.321716,0.47982654,2.8016899,3.4412827
2.034,6.993604,37.40014,-39.64218,0.5521801,2.2017114,3.1165867
2.036,6.9562993,36.57113,-39.821495,0.6200409,1.5928262,2.798576
2.038,6.886788,35.767635,-39.85979,0.68388456,0.9787572,2.4889417
2.04,6.786216,34.992527,-39.758453,0.74466527,0.36343914,2.189509
2.042,6.656666,34.248093,-39.52016,0.8037392,-0.24904978,1.9021163
2.044,6.5008345,33.53617,-39.148754,0.8628042,-0.85453594,1.628488
2.046,6.3220124,32.858265,-38.64904,0.923811,-1.4488294,1.3700907
2.048,6.1237216,32.21558,-38.0273,0.9888516,-2.0277257,1.1281031
2.05,5.909995,31.608887,-37.29064,1.0600461,-2.5870957,0.903334
2.052,5.6850805,31.038517,-36.447067,1.1394031,-3.1229992,0.69616044
2.054,5.453074,30.504677,-35.505257,1.2287105,-3.6317925,0.50654674
2.056,5.2183533,30.007133,-34.474823,1.3294544,-4.110191,0.33406603
2.058,4.985551,29.54542,-33.365643,1.4427902,-4.555336,0.17800498
2.06,4.7594194,29.11871,-32.18831,1.5694723,-4.9649,0.037430763
2.062,4.5448318,28.725897,-30.953526,1.7098632,-5.337138,-0.08868146
2.064,4.34601,28.365631,-29.671873,1.8638984,-5.67097,-0.20145917
2.066,4.167153,28.036478,-28.35366,2.0311282,-5.9659157,-0.30201173
2.068,4.011914,27.736826,-27.009155,2.210747,-6.222205,-0.3914349
2.07,3.883774,27.465115,-25.64821,2.4015353,-6.4411173,-0.47094846
2.072,3.7858582,27.219513,-24.279902,2.6023965,-6.6232452,-0.5409844
2.074,3.7202148,26.998295,-22.912523,2.8116302,-6.7711444,-0.60280085
2.076,3.6889524,26.799704,-21.553726,3.0275903,-6.887217,-0.65724397
2.078,3.6932154,26.622065,-20.210434,3.2485588,-6.9742346,-0.7051976
2.08,3.7341733,26.463852,-18.888527,3.472801,-7.0351925,-0.7475805
2.082,3.812047,26.32365,-17.59304,3.6985922,-7.073235,-0.7853317
2.084,3.9268658,26.200048,-16.32816,3.9242663,-7.0915766,-0.81945896
2.086,4.0779867,26.091906,-15.097044,4.148268,-7.0934362,-0.8510225
2.088,4.264538,25.998198,-13.902136,4.369176,-7.081986,-0.8810847
2.09,4.4851108,25.918047,-12.744564,4.5856886,-7.0602736,-0.91069865
2.092,4.737668,25.85071,-11.625401,4.796626,-7.0312576,-0.9408548
2.094,5.020034,25.795341,-10.544383,5.0009475,-6.997774,-0.97247934
2.096,5.330136,25.751057,-9.500415,5.1977305,-6.9624557,-1.0063946
2.098,5.664898,25.71717,-8.49241,5.3861747,-6.927719,-1.0432858
2.1,6.021204,25.692966,-7.5186176,5.565562,-6.8957286,-1.083694
2.102,6.395812,25.677616,-6.576874,5.7352853,-6.868406,-1.1280165
2.104,6.7853546,25.670658,-5.664813,5.894845,-6.847357,-1.176471
2.106,7.1863174,25.671463,-4.779847,6.0438576,-6.8338842,-1.2291055
2.108,7.5956,25.679312,-3.919424,6.182066,-6.8289394,-1.2858486
2.11,8.009946,25.693878,-3.080988,6.309345,-6.8331633,-1.3465357
2.112,8.426124,25.714523,-2.2621298,6.4256825,-6.846897,-1.4109371
2.114,8.841198,25.740738,-1.4605789,6.5312214,-6.8701973,-1.478807
2.116,9.252364,25.772072,-0.6741533,6.626253,-6.902854,-1.5498848
2.118,9.656991,25.808105,0.09889984,6.7112236,-6.9444075,-1.6239204
2.12,10.052584,25.848335,0.8603506,6.786681,-6.994191,-1.7006755
2.122,10.436696,25.892488,1.6115322,6.8532963,-7.0513873,-1.7799029
2.124,10.807635,25.93988,2.353651,6.9117966,-7.115051,-1.8613794
2.126,11.163571,25.990036,3.087564,6.962936,-7.1841726,-1.9448748
2.128,11.503019,26.042269,3.81393,7.007455,-7.2576885,-2.0301578
2.13,11.82477,26.09609,4.53314,7.0461044,-7.334539,-2.116955
2.132,12.127872,26.150728,5.245142,7.0795584,-7.4136353,-2.2050006
2.134,12.411497,26.205542,5.949755,7.108448,-7.4939117,-2.294025
2.136,12.675382,26.259686,6.646474,7.13333,-7.574328,-2.3837907
2.138,12.919162,26.31259,7.334547,7.154701,-7.6538124,-2.474058
2.14,13.143063,26.363329,8.012967,7.17298,-7.731273,-2.5645978
2.142,13.34726,26.411028,8.680582,7.1885343,-7.805556,-2.6552029
2.144,13.532182,26.454975,9.336236,7.201722,-7.875496,-2.7456996
2.146,13.698555,26.494186,9.978512,7.212875,-7.9398546,-2.8358874
2.148,13.847068,26.527843,10.605854,7.222314,-7.997305,-2.925534
2.15,13.978998,26.5549,11.216664,7.2303686,-8.046477,-3.0143907
2.152,14.0952425,26.574541,11.809481,7.237398,-8.085952,-3.1021326
2.154,14.197235,26.58588,12.382597,7.243804,-8.114275,-3.188378
2.156,14.286364,26.587942,12.934191,7.2500153,-8.129977,-3.2726912
2.158,14.36409,26.579918,13.462835,7.256479,-8.131672,-3.3546052
2.16,14.432094,26.56105,13.966911,7.2636204,-8.1180935,-3.4336371
2.162,14.491682,26.530691,14.445032,7.2718186,-8.088198,-3.5093162
2.164,14.544575,26.48798,14.895805,7.281398,-8.041216,-3.5812135
2.166,14.592339,26.432514,15.318209,7.292537,-7.976687,-3.648942
2.168,14.636547,26.363914,15.711193,7.3053017,-7.8945136,-3.7121823
2.17,14.678809,26.282011,16.074081,7.319559,-7.7949777,-3.7707098
2.172,14.720485,26.186607,16.40652,7.3349795,-7.6787143,-3.824357
2.174,14.763086,26.077682,16.708265,7.351077,-7.546712,-3.8730438
2.176,14.807889,25.955177,16.979279,7.367199,-7.4001713,-3.916737
2.178,14.856035,25.819447,17.219843,7.382577,-7.2405195,-3.9554675
2.18,14.908661,25.67094,17.430532,7.39635,-7.069339,-3.9893289
2.182,14.966381,25.510094,17.612019,7.407647,-6.8883314,-4.0184746
2.184,15.03001,25.337646,17.76541,7.41562,-6.699231,-4.043119
2.186,15.09992,25.154438,17.891737,7.419476,-6.5038104,-4.063594
2.188,15.176581,24.961317,17.992481,7.418519,-6.3038397,-4.0803285
2.19,15.259899,24.759237,18.068998,7.412172,-6.1010895,-4.093831
2.192,15.350031,24.549309,18.12287,7.399968,-5.8973184,-4.1046877
2.194,15.446498,24.332653,18.1557,7.3815765,-5.694239,-4.113527
2.196,15.548877,24.110445,18.169271,7.356744,-5.4934883,-4.120984
2.198,15.656455,23.883951,18.165203,7.3252926,-5.2966003,-4.1276836
2.2,15.768718,23.654177,18.145252,7.287142,-5.104968,-4.1341915
2.202,15.884666,23.42241,18.111076,7.242299,-4.919806,-4.14098
2.204,16.003393,23.189827,18.064194,7.190858,-4.7421184,-4.1483927
2.206,16.12393,22.957527,18.006187,7.1329966,-4.572692,-4.156706
2.208,16.245342,22.726553,17.93862,7.0689764,-4.4120936,-4.1660805
2.21,16.366556,22.497822,17.862835,6.999152,-4.2607274,-4.1766167
2.212,16.486494,22.272356,17.78005,6.9239564,-4.118782,-4.188339
2.214,16.60419,22.050976,17.691534,6.8438883,-3.9863033,-4.201251
2.216,16.71873,21.834387,17.598436,6.759469,-3.8631995,-4.215315
2.218,16.82904,21.623362,17.50174,6.67125,-3.7492852,-4.2304764
2.22,16.934444,21.418238,17.402334,6.579747,-3.6443386,-4.246698
2.222,17.03426,21.219625,17.301167,6.48543,-3.548107,-4.263936
2.224,17.127846,21.027847,17.19922,6.3886843,-3.460315,-4.282153
2.226,17.214596,20.843267,17.097176,6.289818,-3.380674,-4.301321
2.228,17.294088,20.666023,16.995842,6.1890306,-3.308887,-4.3214135
2.23,17.366302,20.496283,16.895725,6.086419,-3.2446518,-4.3424044
2.232,17.431246,20.333971,16.797445,5.982013,-3.1876068,-4.3642693
2.234,17.48877,20.179281,16.701332,5.8758063,-3.137353,-4.3869815
2.236,17.539139,20.032152,16.607689,5.767769,-3.0933902,-4.4105062
2.238,17.582794,19.892488,16.51669,5.6579094,-3.0551467,-4.434779
2.24,17.620157,19.760122,16.42862,5.546313,-3.0219493,-4.4596815
2.242,17.6519,19.634998,16.34356,5.4331455,-2.9929857,-4.4850674
2.244,17.678818,19.516972,16.261475,5.31868,-2.9673681,-4.5107665
2.246,17.701593,19.405863,16.182573,5.2033052,-2.944138,-4.536544
2.248,17.721352,19.30135,16.106543,5.087497,-2.9222813,-4.5621376
2.25,17.738836,19.203396,16.03358,4.971813,-2.900786,-4.5872364
2.252,17.755163,19.111721,15.963607,4.85687,-2.8786576,-4.611484
2.254,17.771229,19.02611,15.896477,4.743279,-2.8549957,-4.6344905
2.256,17.787994,18.946499,15.832147,4.6316285,-2.8290288,-4.655881
2.258,17.806484,18.872572,15.770601,4.52249,-2.8001218,-4.675282
2.26,17.82755,18.804176,15.711789,4.416328,-2.7677944,-4.692367
2.262,17.85207,18.74103,15.655575,4.3135324,-2.7317338,-4.706872
2.264,17.880653,18.68292,15.602093,4.214415,-2.691762,-4.718617
2.266,17.913874,18.629566,15.551529,4.1191792,-2.6478524,-4.7275047
2.268,17.95232,18.580542,15.503861,4.027937,-2.600109,-4.7335463
2.27,17.996311,18.535463,15.459244,3.9407327,-2.5487301,-4.7368402
2.272,18.046234,18.493856,15.417807,3.857527,-2.493982,-4.737567
2.274,18.101984,18.455183,15.379594,3.7782302,-2.43615,-4.7359886
2.276,18.163553,18.41889,15.344648,3.7027032,-2.3755484,-4.7323847
2.278,18.230618,18.384296,15.31308,3.6307797,-2.3124797,-4.7270517
2.28,18.302898,18.350693,15.284765,3.5622535,-2.24724,-4.720282
2.282,18.37992,18.317364,15.259605,3.4969077,-2.1801267,-4.7123384
2.284,18.46118,18.28349,15.23742,3.4345057,-2.1114197,-4.703457
2.286,18.545809,18.248411,15.217899,3.3747892,-2.0413947,-4.6938024
2.288,18.633108,18.2112,15.200745,3.3174987,-1.9703017,-4.6834955
2.29,18.721987,18.171093,15.185507,3.2623773,-1.8984034,-4.6726227
2.292,18.811794,18.127283,15.171563,3.2091765,-1.8259513,-4.661247
2.294,18.901485,18.078936,15.158272,3.157676,-1.7531592,-4.649422
2.296,18.990208,18.025309,15.144943,3.1077232,-1.6802083,-4.637194
2.298,19.076931,17.9657,15.130896,3.0592115,-1.6072294,-4.6246276
2.3,19.160727,17.899591,15.115498,3.012107,-1.5343186,-4.611809
2.302,19.240849,17.826359,15.098103,2.9664357,-1.4615408,-4.598825
2.304,19.31656,17.745586,15.0781975,2.922307,-1.3889294,-4.5857663
2.306,19.387037,17.656786,15.055185,2.879884,-1.3165154,-4.5727444
2.308,19.451752,17.559723,15.028673,2.839356,-1.2443393,-4.559846
2.31,19.509954,17.454222,14.998318,2.8009145,-1.1724678,-4.547129
2.312,19.561272,17.340092,14.963871,2.7647564,-1.1010169,-4.5346146
2.314,19.605396,17.21746,14.925278,2.7310534,-1.0301428,-4.5222793
2.316,19.6419,17.08641,14.8824005,2.6999063,-0.9600373,-4.5100594
2.318,19.670559,16.947075,14.8351345,2.6713471,-0.8909488,-4.4978476
2.32,19.691355,16.799755,14.783632,2.6453424,-0.8231339,-4.485486
2.322,19.704292,16.644775,14.727943,2.6217787,-0.75686455,-4.4727855
2.324,19.709415,16.482538,14.668148,2.6004772,-0.6924099,-4.459534
2.326,19.706879,16.313412,14.604409,2.5812187,-0.63002276,-4.445529
2.328,19.696808,16.137989,14.536923,2.5637524,-0.569924,-4.4305687
2.33,19.679579,15.956726,14.465834,2.5477984,-0.5123036,-4.414482
2.332,19.655384,15.770036,14.391267,2.5330772,-0.45729807,-4.397144
2.334,19.624659,15.578398,14.313301,2.5193148,-0.4050018,-4.3784895
2.336,19.587835,15.382139,14.231956,2.506251,-0.35547426,-4.3584833
2.338,19.545275,15.181797,14.147363,2.49363,-0.30873993,-4.3371387
2.34,19.497452,14.977601,14.059629,2.4812186,-0.26481608,-4.3145247
2.342,19.44452,14.770084,13.968689,2.4687834,-0.22372973,-4.2907076
2.344,19.38702,14.55933,13.874699,2.4561138,-0.18553716,-4.265802
2.346,19.325413,14.345627,13.777615,2.4429991,-0.15032089,-4.2399197
2.348,19.260086,14.129099,13.677562,2.4292238,-0.1182338,-4.213192
2.35,19.191307,13.909821,13.574362,2.414571,-0.08945131,-4.1857605
2.352,19.119598,13.687706,13.468094,2.3988483,-0.064174354,-4.157792
2.354,19.045124,13.462656,13.358787,2.381863,-0.04262513,-4.129474
2.356,18.968307,13.234808,13.246211,2.3634403,-0.02501154,-4.1009965
2.358,18.88936,13.004036,13.130526,2.3434405,-0.011512935,-4.0725603
2.36,18.808575,12.770317,13.01163,2.3217492,-0.0022547245,-4.044339
2.362,18.726086,12.533642,12.889554,2.298279,0.0027079582,-4.016492
2.364,18.64219,12.293819,12.76429,2.2729807,0.0033848882,-3.9891553
2.366,18.557087,12.050759,12.63598,2.245817,-0.00014710426,-3.962436
2.368,18.470917,11.804571,12.504668,2.216784,-0.007768452,-3.9364157
2.37,18.383497,11.555336,12.370455,2.1858702,-0.01931721,-3.9111762
2.372,18.295082,11.303146,12.233348,2.153079,-0.03460741,-3.8867915
2.374,18.205677,11.048171,12.093557,2.1183944,-0.053459764,-3.8633547
2.376,18.115372,10.790638,11.95107,2.0817895,-0.075707376,-3.8409557
2.378,18.024008,10.53096,11.8061285,2.043225,-0.10118732,-3.8197045
2.38,17.931608,10.269611,11.65889,2.0026424,-0.12976262,-3.7997012
2.382,17.838066,10.007145,11.509457,1.9599745,-0.16130689,-3.7810447
2.384,17.743279,9.744165,11.358189,1.9151535,-0.19567364,-3.7638175
2.386,17.647291,9.481224,11.205235,1.8681248,-0.23273233,-3.7480538
2.388,17.550062,9.219038,11.050793,1.8188462,-0.27232665,-3.7337685
2.39,17.451538,8.958307,10.895273,1.7672759,-0.31428498,-3.7209423
2.392,17.351683,8.699869,10.738871,1.7134138,-0.35841,-3.709524
2.394,17.25035,8.44452,10.581942,1.6572711,-0.40448478,-3.6994233
2.396,17.14786,8.19306,10.424778,1.5988934,-0.4522875,-3.6905475
2.398,17.044132,7.9462776,10.267669,1.538336,-0.5015768,-3.6827848
2.4,16.939444,7.7050056,10.110897,1.4756933,-0.5521178,-3.676034
2.402,16.83375,7.4699793,9.954897,1.4110806,-0.60368305,-3.6702092
2.404,16.727211,7.241987,9.799971,1.3446231,-0.65605605,-3.6652234
2.406,16.62002,7.021633,9.646429,1.2764871,-0.7090241,-3.6609907
2.408,16.51256,6.809422,9.494597,1.2068661,-0.76239085,-3.6574392
2.41,16.405134,6.605823,9.344655,1.1359625,-0.81595546,-3.6544988
2.412,16.297886,6.4112315,9.196844,1.0640032,-0.869547,-3.6520922
2.414,16.19131,6.2259855,9.051287,0.9912126,-0.92300236,-3.6501422
2.416,16.085781,6.0502553,8.908253,0.9178276,-0.97618747,-3.648547
2.418,15.981735,5.8841767,8.767881,0.8440772,-1.0289627,-3.6471882
2.42,15.879622,5.727712,8.630233,0.77016854,-1.0812075,-3.645925
2.422,15.779736,5.5808444,8.495406,0.6962739,-1.1328334,-3.644627
2.424,15.682716,5.443253,8.36348,0.62255347,-1.1837521,-3.6431346
2.426,15.58906,5.3147354,8.234441,0.54911095,-1.233915,-3.6413252
2.428,15.499082,5.1949806,8.10844,0.4760073,-1.2832797,-3.6390917
2.43,15.413171,5.083484,7.9853435,0.40326816,-1.3318357,-3.636369
2.432,15.331642,4.9797716,7.865148,0.33086184,-1.3796003,-3.6331217
2.434,15.254898,4.8833013,7.7476816,0.2587293,-1.4266005,-3.629345
2.436,15.183113,4.7935677,7.6327734,0.18678606,-1.4728786,-3.6250763
2.438,15.116567,4.709962,7.520303,0.11493695,-1.5184935,-3.6203725
2.44,15.055262,4.63196,7.409944,0.043068886,-1.5634762,-3.615302
2.442,14.999374,4.558897,7.3014555,-0.028914094,-1.6078368,-3.609929
2.444,14.948741,4.4902744,7.194531,-0.101074934,-1.6515685,-3.6043024
2.446,14.903379,4.4255795,7.0888653,-0.17345682,-1.6946367,-3.5984771
2.448,14.863146,4.3642554,6.983988,-0.24606714,-1.736969,-3.5925007
2.45,14.827672,4.305851,6.8795195,-0.31888166,-1.7784518,-3.5864077
2.452,14.796927,4.2498503,6.774987,-0.39182895,-1.8189362,-3.580229
2.454,14.770434,4.1960306,6.6699276,-0.46479174,-1.8582565,-3.5739996
2.456,14.747681,4.143999,6.5639443,-0.5376194,-1.8962115,-3.5677388
2.458,14.72847,4.093466,6.4566574,-0.6101303,-1.9325845,-3.5614758
2.46,14.712195,4.044254,6.347633,-0.68212056,-1.9671592,-3.5552268
2.462,14.698387,3.9962924,6.236448,-0.75335294,-1.9996958,-3.548983
2.464,14.686782,3.9495518,6.1226225,-0.82359177,-2.0299828,-3.5427227
2.466,14.67688,3.9038916,6.0058823,-0.8926039,-2.0578313,-3.5364115
2.468,14.668188,3.859377,5.8859487,-0.9601367,-2.083065,-3.5299795
2.47,14.660456,3.8160062,5.7625194,-1.02598,-2.1055503,-3.5233603
2.472,14.653268,3.7737498,5.635351,-1.089937,-2.125194,-3.5164735
2.474,14.646224,3.73294,5.5043836,-1.1518295,-2.1419444,-3.5092292
2.476,14.6390085,3.6935332,5.369397,-1.2115077,-2.1557639,-3.50153
2.478,14.631408,3.6556358,5.230392,-1.2688718,-2.1666682,-3.493306
2.48,14.623271,3.6193852,5.087422,-1.3238306,-2.1746926,-3.4844778
2.482,14.614443,3.584798,4.94056,-1.3763378,-2.1798995,-3.4749813
2.484,14.604858,3.5518625,4.7899384,-1.4263842,-2.1823797,-3.4647837
2.486,14.594451,3.520697,4.635803,-1.4739804,-2.1822577,-3.4538574
2.488,14.5832815,3.4911904,4.4783072,-1.5191811,-2.179676,-3.4422054
2.49,14.571251,3.463271,4.3177047,-1.5620675,-2.1747983,-3.429842
2.492,14.558575,3.436814,4.1543365,-1.6027508,-2.1678352,-3.4168053
2.494,14.545392,3.411774,3.9884815,-1.6413587,-2.1589954,-3.4031327
2.496,14.531623,3.388003,3.8203628,-1.6780491,-2.1485233,-3.388873
2.498,14.517582,3.3653605,3.6502888,-1.7129831,-2.1366494,-3.3741002
2.5,14.503279,3.3436654,3.4782956,-1.7463473,-2.1236172,-3.3588498
2.502,14.489018,3.3224854,3.3046582,-1.7783182,-2.1096616,-3.3431559
2.504,14.474966,3.301702,3.1294365,-1.8090706,-2.0950105,-3.3270376
2.506,14.4609375,3.2809634,2.9527402,-1.8387806,-2.0798557,-3.310497
2.508,14.447225,3.260089,2.774535,-1.8676066,-2.064376,-3.29352
2.51,14.433812,3.2387335,2.5947597,-1.8956777,-2.0486999,-3.2760937
2.512,14.420768,3.2166028,2.41314,-1.9231007,-2.032929,-3.2582016
2.514,14.408022,3.1934006,2.2293987,-1.9499613,-2.0171285,-3.239837
2.516,14.395443,3.169014,2.0431824,-1.9763155,-2.0013278,-3.220977
2.518,14.38299,3.1432755,1.8539351,-2.0021827,-1.9855356,-3.201625
2.52,14.37048,3.1159468,1.6612525,-2.0275264,-1.9697325,-3.181796
2.522,14.357607,3.0868254,1.4647111,-2.0522988,-1.9539132,-3.161518
2.524,14.344084,3.0558598,1.2636712,-2.0764105,-1.9380696,-3.1408105
2.526,14.329727,3.02291,1.057635,-2.099755,-1.9222035,-3.1197007
2.528,14.314043,2.9879162,0.84604895,-2.1221957,-1.9063282,-3.098216
2.53,14.296597,2.950842,0.6283708,-2.1435852,-1.8904929,-3.0763636
2.532,14.276964,2.9117022,0.4041301,-2.1637685,-1.87475,-3.0541482
2.534,14.254477,2.870546,0.17278868,-2.1825924,-1.8591549,-3.0315652
2.536,14.228687,2.827409,-0.06594515,-2.199898,-1.8437581,-3.008596
2.538,14.19902,2.7823205,-0.31242055,-2.2155147,-1.828588,-2.9852185
2.54,14.164909,2.7355218,-0.56684023,-2.229283,-1.8136283,-2.9613912
2.542,14.125889,2.6870394,-0.8292892,-2.2410305,-1.7988176,-2.9370391
2.544,14.081325,2.637061,-1.0997725,-2.2505765,-1.7840288,-2.9120657
2.546,14.030851,2.5857937,-1.378164,-2.2577372,-1.7690676,-2.8863544
2.548,13.974097,2.5333214,-1.664425,-2.262341,-1.7537178,-2.8597763
2.55,13.910762,2.4800217,-1.9580723,-2.2642136,-1.7376937,-2.832163
2.552,13.840587,2.4261394,-2.2588172,-2.2631986,-1.7206867,-2.8033378
2.554,13.763552,2.3719387,-2.5661004,-2.2591572,-1.7023971,-2.7731345
2.556,13.679453,2.317731,-2.8792176,-2.2519844,-1.6825318,-2.7413988
2.558,13.588677,2.2637444,-3.1973891,-2.241629,-1.6608323,-2.7079973
2.56,13.491339,2.2102923,-3.5197766,-2.228075,-1.6371133,-2.6728466
2.562,13.3878,2.15767,-3.8451238,-2.21136,-1.6112609,-2.635918
2.564,13.278567,2.1062398,-4.1723337,-2.191587,-1.5832896,-2.5972655
2.566,13.164181,2.0562143,-4.5000224,-2.1689076,-1.5533015,-2.5569823
2.568,13.045115,2.007923,-4.8266993,-2.1435304,-1.5214974,-2.5152776
2.57,12.922208,1.9615668,-5.1506333,-2.11571,-1.4881744,-2.4724362
2.572,12.796129,1.9174784,-5.469909,-2.085756,-1.4536805,-2.4287624
2.574,12.667716,1.8757972,-5.782699,-2.054016,-1.4184235,-2.3846045
2.576,12.537713,1.8368391,-6.08691,-2.020833,-1.3828073,-2.3402982
2.578,12.406952,1.8010232,-6.3804474,-1.9865361,-1.3472307,-2.2961516
2.58,12.276134,1.7686222,-6.6611814,-1.9514441,-1.3120539,-2.2524345
2.582,12.146182,1.7399633,-6.9270644,-1.9158314,-1.2776008,-2.2093284
2.584,12.017836,1.7153933,-7.1760116,-1.8798778,-1.2441325,-2.166907
2.586,11.891884,1.6953132,-7.406146,-1.8436749,-1.2118449,-2.1251225
2.588,11.768871,1.6802406,-7.615515,-1.8072147,-1.1808889,-2.0838115
2.59,11.649594,1.6705066,-7.802517,-1.7703729,-1.1513765,-2.0426793
2.592,11.534599,1.6666281,-7.9655204,-1.7329137,-1.1233858,-2.0013225
2.594,11.424408,1.669056,-8.103311,-1.6944664,-1.0969816,-1.9592654
2.596,11.319431,1.6780843,-8.214824,-1.6545641,-1.0722265,-1.9159994
2.598,11.220283,1.6939731,-8.299355,-1.6126478,-1.0491661,-1.871051
2.6,11.127265,1.7170011,-8.356471,-1.5681076,-1.0278437,-1.8239876
2.602,11.040611,1.7473899,-8.386158,-1.5202795,-1.0082945,-1.7744881
2.604,10.960741,1.7851691,-8.388758,-1.4685017,-0.99055463,-1.7223814
2.606,10.887873,1.8303348,-8.364763,-1.412145,-0.974667,-1.6676612
2.608,10.822231,1.8827959,-8.315151,-1.3506324,-0.9606585,-1.6104788
2.61,10.764147,1.942238,-8.241004,-1.2834661,-0.9485515,-1.5511363
2.612,10.7137165,2.0085855,-8.144026,-1.2102712,-0.9383423,-1.4900533
2.614,10.671274,2.0812192,-8.02593,-1.1308281,-0.9300116,-1.4277172
2.616,10.63717,2.1597142,-7.8887033,-1.0450685,-0.9234929,-1.3646412
2.618,10.611354,2.2435622,-7.7345586,-0.9530575,-0.91868293,-1.3012949
2.62,10.59419,2.3320465,-7.565786,-0.8550152,-0.91544,-1.2381014
2.622,10.585892,2.4246917,-7.384741,-0.7512889,-0.913553,-1.1753507
2.624,10.586657,2.5207927,-7.1938715,-0.64231837,-0.91278195,-1.1132187
2.626,10.596671,2.6196418,-6.995589,-0.5285941,-0.912851,-1.051746
2.628,10.615989,2.720767,-6.7923126,-0.41064507,-0.9134503,-0.99086267
2.63,10.6448965,2.8235662,-6.586396,-0.28901052,-0.9142815,-0.93042433
2.632,10.683493,2.9276695,-6.3802185,-0.16418327,-0.9150698,-0.8702252
2.634,10.731975,3.0324135,-6.1758375,-0.036592126,-0.9155749,-0.8100541
2.636,10.7902155,3.13761,-5.9752836,0.093403965,-0.9155946,-0.7497575
2.638,10.858511,3.242858,-5.7803144,0.22549972,-0.91498816,-0.68928576
2.64,10.936875,3.34806,-5.5924897,0.3594485,-0.9137056,-0.62868786
2.642,11.02506,3.4529743,-5.4131866,0.49503383,-0.91175693,-0.5681366
2.644,11.123136,3.5574188,-5.2434416,0.63205993,-0.90919536,-0.5079142
2.646,11.230778,3.661447,-5.084247,0.77030075,-0.9061361,-0.44838506
2.648,11.347761,3.7650871,-4.9362626,0.90948296,-0.9027593,-0.3899611
2.65,11.473819,3.868214,-4.7996416,1.0492855,-0.89926994,-0.33307397
2.652,11.608766,3.9710584,-4.6746087,1.1893272,-0.89593124,-0.2781358
2.654,11.752105,4.0738926,-4.561034,1.3291686,-0.8930438,-0.2255402
2.656,11.903179,4.1768465,-4.4585433,1.4682862,-0.890939,-0.17563894
2.658,12.061565,4.2798266,-4.3664575,1.6061343,-0.88999087,-0.12874278
2.66,12.226808,4.382621,-4.2842407,1.7421347,-0.8905845,-0.08508432
2.662,12.398392,4.485509,-4.2112584,1.8757132,-0.89312315,-0.044831604
2.664,12.575547,4.5886807,-4.146945,2.0063255,-0.8979943,-0.008071601
2.666,12.757541,4.6923685,-4.0905633,2.1334796,-0.90555376,0.025197268
2.668,12.943495,4.7966805,-4.0412836,2.2567515,-0.9161077,0.055061966
2.67,13.133002,4.9018416,-3.998196,2.3757896,-0.929896,0.0816946
2.672,13.325164,5.007987,-3.9607162,2.4903243,-0.947072,0.10532823
2.674,13.519172,5.115346,-3.9281323,2.6001825,-0.96768415,0.12629497
2.676,13.714378,5.2242765,-3.9000382,2.7052777,-0.9917062,0.14496335
2.678,13.9099,5.3350897,-3.8758397,2.8056054,-1.0190079,0.1617262
2.68,14.10481,5.448147,-3.8551922,2.9011931,-1.0493886,0.17700523
2.682,14.298388,5.563694,-3.837749,2.9920983,-1.0826168,0.19123444
2.684,14.489527,5.6821985,-3.8230343,3.078461,-1.1184533,0.20473489
2.686,14.67734,5.803933,-3.8108246,3.1604803,-1.1566185,0.21774131
2.688,14.860917,5.929157,-3.8006437,3.2384229,-1.1967872,0.23045436
2.69,15.039308,6.0583296,-3.7921262,3.3125908,-1.2386166,0.24304137
2.692,15.211564,6.191703,-3.7847693,3.3832977,-1.2818208,0.25559843
2.694,15.376728,6.3295116,-3.7781067,3.4508412,-1.3262086,0.26808843
2.696,15.533852,6.472078,-3.7716246,3.5155175,-1.371699,0.28034556
2.698,15.682209,6.6194425,-3.7647247,3.5775888,-1.4182715,0.29210922
2.7,15.8208685,6.7719336,-3.7567596,3.637273,-1.4659736,0.30305654
2.702,15.94922,6.9295826,-3.7472386,3.694688,-1.5149144,0.31284198
2.704,16.066668,7.0924654,-3.7354584,3.7498753,-1.5652323,0.32115856
2.706,16.172766,7.2607183,-3.7207687,3.8027594,-1.6170653,0.32775742
2.708,16.267021,7.4342604,-3.7024484,3.8531957,-1.6705472,0.33249897
2.71,16.34936,7.6130123,-3.679857,3.9009392,-1.725791,0.3353585
2.712,16.419582,7.796906,-3.6525617,3.9456453,-1.7828952,0.33646035
2.714,16.477942,7.9855175,-3.6195889,3.9869268,-1.8419375,0.33599746
2.716,16.524733,8.178591,-3.5804434,4.0243483,-1.9030268,0.33422178
2.718,16.560232,8.375749,-3.5346825,4.057472,-1.9662681,0.33141318
2.72,16.584888,8.576779,-3.4818964,4.0859222,-2.031813,0.32784894
2.722,16.599352,8.781274,-3.4217513,4.1094084,-2.0998201,0.32376873
2.724,16.60431,8.988896,-3.3541517,4.127758,-2.1704502,0.31938595
2.726,16.600513,9.199228,-3.2791157,4.140975,-2.2438545,0.3148683
2.728,16.589039,9.411744,-3.1965349,4.149227,-2.3201487,0.31038046
2.73,16.570782,9.626229,-3.106609,4.1528826,-2.3993769,0.30609614
2.732,16.54672,9.842166,-3.0094614,4.1524835,-2.4814959,0.3022572
2.734,16.517965,10.059188,-2.9055681,4.148737,-2.5663588,0.2991429
2.736,16.485594,10.276893,-2.7953897,4.142486,-2.6537218,0.29709357
2.738,16.450514,10.494951,-2.679312,4.1345806,-2.7432315,0.29655224
2.74,16.413832,10.713168,-2.5579548,4.1258674,-2.8344884,0.29798183
2.742,16.37652,10.931295,-2.4318523,4.117202,-2.9270117,0.30181062
2.744,16.33937,11.14916,-2.3015172,4.1093593,-3.0203803,0.30835766
2.746,16.303377,11.366438,-2.1675954,4.103012,-3.1140826,0.31788087
2.748,16.268908,11.58293,-2.0306168,4.0987334,-3.2075458,0.3306206
2.75,16.236876,11.798208,-1.8912308,4.0969596,-3.300229,0.3467333
2.752,16.208,12.012015,-1.7499131,4.0979815,-3.3916807,0.36624214
2.754,16.182415,12.224215,-1.6071215,4.101968,-3.4815714,0.38904074
2.756,16.160723,12.434376,-1.4632549,4.1089807,-3.5696723,0.41494137
2.758,16.143244,12.642264,-1.3186221,4.1189866,-3.6558626,0.44369859
2.76,16.129967,12.847649,-1.1736593,4.1318827,-3.7401037,0.4750757
2.762,16.120846,13.049956,-1.0284779,4.147518,-3.822424,0.5088487
2.764,16.115978,13.248559,-0.883191,4.1657314,-3.9029002,0.54482156
2.766,16.115376,13.443091,-0.738019,4.1863394,-3.9816086,0.5828287
2.768,16.11882,13.633284,-0.59297955,4.209193,-4.058582,0.6227863
2.77,16.125887,13.818835,-0.44786692,4.2341638,-4.1337676,0.66462886
2.772,16.136044,13.998961,-0.30230248,4.261138,-4.2070503,0.7083044
2.774,16.149248,14.173129,-0.15591669,4.290025,-4.278231,0.7537381
2.776,16.165163,14.340725,-0.008431673,4.3207703,-4.3470016,0.80084467
2.778,16.183048,14.501381,0.14047682,4.353357,-4.4129977,0.8495237
2.78,16.202314,14.654599,0.2910428,4.38779,-4.4758096,0.89967006
2.782,16.22248,14.800073,0.4438336,4.4241176,-4.5350122,0.9511327
2.784,16.243021,14.937378,0.59917974,4.4624,-4.5901976,1.0037808
2.786,16.263187,15.066217,0.7576616,4.502718,-4.641,1.0574634
2.788,16.282503,15.1864195,0.9195676,4.5451674,-4.687079,1.1120453
2.79,16.300417,15.297779,1.0853555,4.5898423,-4.728156,1.1674204
2.792,16.316223,15.400212,1.2552435,4.636819,-4.7640214,1.2235001
2.794,16.329592,15.49357,1.4295208,4.6861496,-4.7945175,1.2802203
2.796,16.33978,15.578108,1.6085155,4.737827,-4.819577,1.3375398
2.798,16.346481,15.653894,1.7922089,4.791861,-4.8390718,1.3954786
2.8,16.349218,15.72097,1.9807823,4.8482394,-4.852962,1.4540764
2.802,16.347536,15.779678,2.1742644,4.9068875,-4.861297,1.5133232
2.804,16.341139,15.83027,2.372631,4.9677086,-4.8641396,1.5732324
2.806,16.329796,15.872954,2.5758524,5.0306215,-4.861553,1.6338018
2.808,16.313248,15.908147,2.7838104,5.095549,-4.853575,1.6950015
2.81,16.29132,15.935999,2.9963775,5.1624393,-4.840251,1.7567736
2.812,16.263908,15.957054,3.2134233,5.2312317,-4.821644,1.8190444
2.814,16.230833,15.971602,3.4346883,5.30188,-4.7978005,1.8816906
2.816,16.192276,15.979895,3.6599982,5.374335,-4.768753,1.9446018
2.818,16.148212,15.982527,3.8889046,5.448531,-4.7345057,2.0077102
2.82,16.098568,15.979701,4.1210246,5.5244083,-4.6950545,2.0709734
2.822,16.043716,15.971674,4.356168,5.601859,-4.6503887,2.1343827
2.824,15.9836855,15.958948,4.5934305,5.680759,-4.6004596,2.1979752
2.826,15.918654,15.941699,4.8323913,5.760971,-4.5451865,2.2618322
2.828,15.8488455,15.920255,5.0724044,5.8423133,-4.484447,2.3260465
2.83,15.774744,15.894564,5.312857,5.9245825,-4.4180984,2.3907347
2.832,15.6966,15.864803,5.553142,6.0075364,-4.3459783,2.455993
2.834,15.614878,15.831074,5.792594,6.090941,-4.267909,2.5219111
2.836,15.529861,15.793359,6.030499,6.1745334,-4.1836977,2.5885913
2.838,15.441903,15.751761,6.2659698,6.2580566,-4.093137,2.6561053
2.84,15.351298,15.706174,6.498254,6.3412576,-3.9960446,2.7245562
2.842,15.258533,15.656576,6.7265387,6.423888,-3.8922806,2.7940361
2.844,15.163993,15.602896,6.9502535,6.5057006,-3.7817264,2.8646395
2.846,15.068097,15.544993,7.168779,6.586454,-3.6642957,2.9364743
2.848,14.971154,15.48266,7.381302,6.6658983,-3.5399551,3.0096233
2.85,14.873485,15.415642,7.587328,6.7438,-3.4086843,3.084171
2.852,14.7754755,15.343792,7.7862773,6.8199134,-3.270513,3.1602044
2.854,14.677549,15.266888,7.9775023,6.8939734,-3.1255143,3.2378023
2.856,14.579906,15.184706,8.160661,6.96572,-2.9737663,3.317048
2.858,14.482885,15.097188,8.33531,7.034892,-2.8153968,3.3980057
2.86,14.3866,15.004265,8.501186,7.101225,-2.6505568,3.4807458
2.862,14.291298,14.905706,8.657993,7.164456,-2.479426,3.5653317
2.864,14.197267,14.801429,8.805466,7.224335,-2.3022377,3.6518116
2.866,14.104565,14.691372,8.94351,7.2806187,-2.119244,3.7402344
2.868,14.01342,14.575623,9.071896,7.3330703,-1.9307313,3.8306417
2.87,13.923874,14.454211,9.190725,7.3814764,-1.737015,3.9230626
2.872,13.8359585,14.327613,9.30002,7.4256344,-1.5384212,4.017497
2.874,13.749931,14.196177,9.399827,7.4653587,-1.3352765,4.1139693
2.876,13.665749,14.060387,9.490346,7.500496,-1.127928,4.212488
2.878,13.583361,13.920804,9.571813,7.530898,-0.9167334,4.3130827
2.88,13.502856,13.777939,9.644452,7.556443,-0.7020149,4.415823
2.882,13.424246,13.632742,9.708624,7.57705,-0.48411036,4.5207853
2.884,13.34729,13.485946,9.764715,7.592642,-0.26338112,4.6280584
2.886,13.271837,13.338472,9.813057,7.6031537,-0.040205717,4.7377253
2.888,13.197749,13.191302,9.854166,7.6085215,0.18502462,4.8498487
2.89,13.124646,13.045441,9.888547,7.608698,0.4118687,4.964448
2.892,13.052162,12.901838,9.916602,7.603625,0.6398338,5.08148
2.894,12.979677,12.761464,9.939009,7.5932097,0.8683834,5.2008142
2.896,12.906805,12.62549,9.95616,7.5773478,1.0969381,5.3222427
2.898,12.832702,12.494972,9.968782,7.5558977,1.3248694,5.445481
2.9,12.7564945,12.371089,9.977457,7.5286846,1.5515299,5.570144
2.902,12.677307,12.254831,9.982809,7.495506,1.7762556,5.695813
2.904,12.594194,12.147379,9.985435,7.456123,1.9983988,5.822025
2.906,12.506179,12.0495,9.985697,7.41027,2.2173305,5.94829
2.908,12.412047,11.96219,9.984088,7.357685,2.4325,6.074127
2.91,12.310566,11.886432,9.980841,7.298086,2.6433773,6.1991096
2.912,12.200727,11.822921,9.976122,7.231227,2.8495297,6.3228574
2.914,12.081244,11.772403,9.970073,7.1568775,3.0506043,6.445046
2.916,11.9509,11.735523,9.96266,7.0748606,3.2463164,6.5654
2.918,11.80834,11.712967,9.9533615,6.9850516,3.4364564,6.683707
2.92,11.652337,11.705373,9.941992,6.887388,3.6208935,6.79978
2.922,11.481579,11.713033,9.928009,6.7818766,3.7995825,6.913473
2.924,11.295129,11.736455,9.910544,6.668599,3.9725285,7.024625
2.926,11.092151,11.77589,9.888613,6.5477076,4.1398115,7.133052
2.928,10.871661,11.831428,9.861206,6.4193754,4.30153,7.2384987
2.93,10.633021,11.903224,9.827187,6.2838497,4.4578524,7.3406763
2.932,10.375961,11.991125,9.785019,6.1413913,4.60898,7.439253
2.934,10.100093,12.094971,9.733404,5.992279,4.7550983,7.5338364
2.936,9.805661,12.214332,9.67088,5.836786,4.896408,7.6240425
2.938,9.492925,12.348747,9.59593,5.6752048,5.03307,7.7094803
2.94,9.162186,12.497731,9.507215,5.5078416,5.1652126,7.789775
2.942,8.814488,12.660324,9.4033165,5.3349757,5.292857,7.864583
2.944,8.450744,12.8355055,9.282963,5.156889,5.4158897,7.933607
2.946,8.07239,13.022101,9.144829,4.973858,5.534069,7.9966197
2.948,7.6805034,13.218997,8.987993,4.7861657,5.646982,8.053453
2.95,7.277072,13.42469,8.811219,4.5940914,5.7540197,8.103947
2.952,6.8638864,13.637798,8.613553,4.3978996,5.854419,8.147947
2.954,6.4427333,13.856668,8.394215,4.19783,5.947222,8.185287
2.956,6.015551,14.079753,8.152642,3.9940715,6.0312953,8.215759
2.958,5.584561,14.305433,7.888218,3.7867699,6.105357,8.239111
2.96,5.1517797,14.532372,7.60033,3.576037,6.1680865,8.255053
2.962,4.718597,14.759106,7.289015,3.361918,6.2181406,8.26323
2.964,4.2867613,14.984329,6.954425,3.1444063,6.2542024,8.263228
2.966,3.85816,15.206808,6.59659,2.9234169,6.2750106,8.254581
2.968,3.434434,15.425027,6.2158017,2.6988668,6.2794843,8.236822
2.97,3.0168676,15.637899,5.8127666,2.4706495,6.26674,8.209465
2.972,2.6065285,15.844482,5.388089,2.2386715,6.236067,8.172001
2.974,2.2045465,16.04362,4.942768,2.0028489,6.18692,8.123946
2.976,1.811774,16.234398,4.477898,1.7631378,6.1188755,8.064831
2.978,1.4286304,16.415842,3.99484,1.5195165,6.031682,7.9942303
2.98,1.0554303,16.587437,3.4950373,1.2720482,5.9251595,7.9117427
2.982,0.69245166,16.748266,2.9801884,1.020889,5.7992086,7.8170443
2.984,0.3395469,16.897854,2.4522312,0.76627874,5.6538157,7.709876
2.986,-0.0033055842,17.03568,1.9132107,0.50857973,5.4890914,7.590103
2.988,-0.3363906,17.161327,1.3653271,0.24830794,5.305315,7.457757
2.99,-0.6600471,17.274466,0.8108499,-0.013830423,5.1029825,7.3131123
2.992,-0.974573,17.374601,0.25237328,-0.27698708,4.8828444,7.156651
2.994,-1.2804527,17.461542,-0.30749285,-0.54021573,4.645856,6.989091
2.996,-1.5780787,17.53503,-0.86603016,-0.80243325,4.393217,6.8114314
2.998,-1.8679051,17.59487,-1.4206223,-1.0624444,4.1263037,6.624926
3,-2.1502836,17.640882,-1.9683584,-1.3190143,3.8466437,6.431076
3.002,-2.425349,17.672895,-2.506375,-1.5709009,3.555834,6.2315235
3.004,-2.693334,17.69069,-3.0320067,-1.816932,3.2554593,6.0280237
3.006,-2.9546115,17.6941,-3.5426352,-2.056078,2.9470196,5.822292
3.008,-3.2091737,17.683086,-4.036153,-2.287443,2.6319525,5.6159134
3.01,-3.4570687,17.657516,-4.510211,-2.5103347,2.3116062,5.4102516
3.012,-3.6985915,17.61753,-4.962608,-2.7243268,1.9872262,5.206373
3.014,-3.9337442,17.56308,-5.3914895,-2.929271,1.6598824,5.0050316
3.016,-4.1627216,17.494308,-5.7950196,-3.1252203,1.3306001,4.8066664
3.018,-4.385601,17.411411,-6.171601,-3.3124266,1.0003737,4.611474
3.02,-4.602421,17.31444,-6.519801,-3.4912221,0.67017114,4.419488
3.022,-4.813541,17.20395,-6.8385177,-3.6620333,0.34093067,4.230649
3.024,-5.018954,17.080437,-7.12703,-3.8252397,0.013636559,4.0449142
3.026,-5.219044,16.944332,-7.384554,-3.9811263,-0.3106994,3.862371
3.028,-5.413863,16.7962,-7.610628,-4.129832,-0.63104177,3.6832347
3.03,-5.6038537,16.636702,-7.805338,-4.2713184,-0.9463155,3.507865
3.032,-5.7893486,16.466845,-7.968609,-4.4053617,-1.255428,3.33678
3.034,-5.970917,16.28759,-8.100458,-4.5315733,-1.5572438,3.1706395
3.036,-6.149483,16.1001,-8.201017,-4.6494207,-1.8505805,3.0101545
3.038,-6.3254695,15.905398,-8.270936,-4.758314,-2.1342921,2.8559947
3.04,-6.499446,15.7046585,-8.310985,-4.857648,-2.4072702,2.7087276
3.042,-6.6723647,15.499289,-8.321722,-4.946869,-2.6683846,2.5687907
3.044,-6.8447623,15.290857,-8.304144,-5.0255604,-2.9165611,2.4364479
3.046,-7.017364,15.080997,-8.259456,-5.093446,-3.1507988,2.311851
3.048,-7.1906214,14.871192,-8.188755,-5.150369,-3.370135,2.195025
3.05,-7.3649645,14.663027,-8.093478,-5.1964073,-3.5737312,2.0858378
3.052,-7.541071,14.458191,-7.9750404,-5.231822,-3.7608888,1.9840121
3.054,-7.7193623,14.258079,-7.835043,-5.2570114,-3.9310813,1.8891739
3.056,-7.9001656,14.064118,-7.674947,-5.2725115,-4.083964,1.8008741
3.058,-8.0833,13.87729,-7.496516,-5.2789097,-4.2193456,1.7186114
3.06,-8.269239,13.69882,-7.301442,-5.276822,-4.3371887,1.6418192
3.062,-8.458173,13.529671,-7.09143,-5.2669225,-4.4376435,1.5699134
3.064,-8.6497345,13.370873,-6.8684664,-5.249876,-4.521013,1.5022784
3.066,-8.843826,13.223056,-6.6344566,-5.226287,-4.5876813,1.4382603
3.068,-9.04024,13.086809,-6.39119,-5.1967697,-4.6380935,1.3771894
3.07,-9.238921,12.96224,-6.140446,-5.1619196,-4.67281,1.3184254
3.072,-9.438997,12.849463,-5.8845267,-5.122259,-4.692445,1.2614026
3.074,-9.64038,12.748653,-5.6254015,-5.078245,-4.6976323,1.2056363
3.076,-9.84245,12.659501,-5.3649187,-5.0302505,-4.6890335,1.1507237
3.078,-10.045258,12.582219,-5.1049194,-4.9785585,-4.667332,1.0963471
3.08,-10.243747,12.516314,-4.85061,-4.9233646,-4.633152,1.0422876
3.082,-10.440902,12.461404,-4.600717,-4.8647857,-4.5871,0.98846793
3.084,-10.636276,12.417153,-4.35689,-4.8028717,-4.529766,0.9349544
3.086,-10.829253,12.38301,-4.1204844,-4.7376127,-4.4617453,0.8819344
3.088,-11.019065,12.358388,-3.8928308,-4.6689734,-4.383631,0.8296566
3.09,-11.205005,12.342489,-3.6750112,-4.5969048,-4.296044,0.77842116
3.092,-11.386557,12.334667,-3.4679375,-4.5213284,-4.199615,0.7285292
3.094,-11.563158,12.334112,-3.2723165,-4.4421916,-4.0950046,0.6801896
3.096,-11.734297,12.339975,-3.0886462,-4.359511,-3.9829571,0.63343644
3.098,-11.899466,12.351508,-2.917248,-4.273329,-3.8642411,0.588125
3.1,-12.058257,12.3679,-2.7581635,-4.183794,-3.739658,0.5439093
3.102,-12.210384,12.388395,-2.6114824,-4.0911493,-3.610027,0.5002742
3.104,-12.355538,12.412212,-2.4770167,-3.9957194,-3.47617,0.45659614
3.106,-12.493534,12.438687,-2.354363,-3.8979354,-3.3389008,0.41222167
3.108,-12.624237,12.467108,-2.2430742,-3.8017862,-3.2040677,0.36874712
3.11,-12.747657,12.496902,-2.142693,-3.7061486,-3.0699873,0.32467365
3.112,-12.864057,12.52763,-2.0526896,-3.6122055,-2.9382248,0.28003967
3.114,-12.973432,12.55886,-1.9723496,-3.521163,-2.8103476,0.23510599
3.116,-13.075896,12.590091,-1.9008718,-3.4341507,-2.687826,0.19028354
3.118,-13.171818,12.6208515,-1.8373187,-3.3521414,-2.5719252,0.14610147
3.12,-13.2613325,12.650937,-1.7810955,-3.2758925,-2.4636672,0.1031456
3.122,-13.34461,12.679964,-1.7316213,-3.2058594,-2.3637295,0.061958313
3.124,-13.422198,12.707851,-1.68818,-3.1422355,-2.2724252,0.022972226
3.126,-13.494182,12.734437,-1.6501987,-3.0849752,-2.1897414,-0.013540983
3.128,-13.561037,12.759648,-1.6172802,-3.03384,-2.115385,-0.04744184
3.13,-13.623155,12.783555,-1.5888782,-2.9884224,-2.0488517,-0.078684926
