Time_s_,Acc_x_m_s_2_,Acc_y_m_s_2_,Acc_z_m_s_2_,Gyro_x_1_s_,Gyro_y_1_s_,Gyro_z_1_s_
0,0.5486075,-0.06423095,-0.45976302,0.009644963,0.42183813,-0.14209181
0.002,0.5414872,-0.056119464,-0.4499225,0.012079209,0.4244675,-0.1406776
0.004,0.53371435,-0.04709534,-0.4397528,0.014705688,0.42707014,-0.1391851
0.006,0.52528363,-0.03723206,-0.42949018,0.017530628,0.42957115,-0.13762724
0.008,0.51645803,-0.02653908,-0.41919777,0.020548627,0.431872,-0.13601638
0.01,0.5072874,-0.0150759,-0.40904722,0.023747012,0.43386507,-0.13437521
0.012,0.49763542,-0.002647616,-0.39913023,0.027099371,0.43543875,-0.13271154
0.014,0.4876206,0.010683607,-0.38946903,0.0305724,0.436468,-0.13104713
0.016,0.47741854,0.024864156,-0.38015497,0.03411384,0.43682614,-0.1293856
0.018,0.467326,0.039969087,-0.37122786,0.03766241,0.4363901,-0.12772882
0.02,0.45756775,0.055993248,-0.363167,0.041149452,0.4350402,-0.12607923
0.022,0.44842914,0.07280461,-0.35606742,0.04450915,0.43266636,-0.12443973
0.024,0.44001675,0.09033434,-0.35014603,0.047687218,0.42915648,-0.12281784
0.026,0.4326417,0.108424276,-0.34543127,0.05062852,0.42438164,-0.12122147
0.028,0.4265089,0.12704255,-0.34190804,0.053383887,0.41825986,-0.119604126
0.03,0.42210683,0.14595515,-0.33974332,0.055749483,0.41050476,-0.118110105
0.032,0.41982114,0.16502628,-0.33901745,0.057704523,0.4009914,-0.11678494
0.034,0.42000967,0.1840981,-0.33974266,0.05923497,0.38960597,-0.11568462
0.036,0.4231488,0.20288724,-0.34179965,0.060337357,0.37625608,-0.114874296
0.038,0.42953354,0.22118689,-0.34504133,0.061011612,0.3608786,-0.114395
0.04,0.43928653,0.23875257,-0.34915292,0.061284926,0.34348992,-0.114282586
0.042,0.4527793,0.25511974,-0.353811,0.061193384,0.32417113,-0.11455738
0.044,0.47011954,0.2701729,-0.35859692,0.060826138,0.3031026,-0.11520759
0.046,0.4914249,0.2836702,-0.36315888,0.06027875,0.2805549,-0.11618648
0.048,0.51668394,0.29548696,-0.3670375,0.0596809,0.2568699,-0.11741892
0.05,0.54572934,0.30549973,-0.3698558,0.059155785,0.23248383,-0.11880325
0.052,0.578324,0.31368804,-0.37108552,0.05885808,0.20790699,-0.12024249
0.054,0.6141476,0.32000363,-0.37034792,0.05894587,0.18371874,-0.12160976
0.056,0.652917,0.32487524,-0.36728042,0.05958539,0.16053222,-0.12275987
0.058,0.693997,0.32777017,-0.36156273,0.06093525,0.13901883,-0.123551965
0.06,0.73681664,0.32886773,-0.35295546,0.06313209,0.11984745,-0.123806
0.062,0.7807474,0.32847068,-0.3414369,0.06629781,0.10365465,-0.123348534
0.064,0.8249482,0.32673737,-0.32692632,0.07053206,0.091010615,-0.12198723
0.066,0.8688679,0.32412884,-0.30959043,0.07588622,0.08236711,-0.119575724
0.068,0.91163343,0.32099667,-0.289576,0.082374126,0.0780576,-0.11598286
0.07,0.95247674,0.31765997,-0.26711944,0.08995369,0.07824609,-0.11112321
0.072,0.9908275,0.3144087,-0.24253777,0.0985221,0.0829136,-0.10494442
0.074,1.0258918,0.3115449,-0.2163212,0.10792911,0.09184672,-0.09743479
0.076,1.057219,0.30925947,-0.18894061,0.11796606,0.10465186,-0.088635884
0.078,1.0843784,0.30788967,-0.16094914,0.12840086,0.12075628,-0.07864259
0.08,1.1069275,0.3076568,-0.13295507,0.13898852,0.13947731,-0.06759621
0.082,1.124443,0.308685,-0.10558885,0.14949144,0.1600391,-0.055678844
0.084,1.1368284,0.3110504,-0.07933667,0.1596865,0.1816192,-0.043090314
0.086,1.1438371,0.31483465,-0.05463022,0.169377,0.2034089,-0.03003294
0.088,1.1454926,0.3200804,-0.032031476,0.17842379,0.22465065,-0.01672145
0.09,1.1417365,0.32673955,-0.0119172335,0.18672802,0.2446754,-0.0033296496
0.092,1.1328677,0.334717,0.005358577,0.19424728,0.26291353,0.009985328
0.094,1.1192377,0.3439613,0.019440591,0.20097455,0.2789108,0.023091078
0.096,1.1010537,0.35427326,0.030184567,0.20694627,0.29234177,0.03588669
0.098,1.0787659,0.36538854,0.0374586,0.21222544,0.3029857,0.048276052
0.1,1.0528523,0.37705794,0.04134655,0.2169122,0.31072232,0.060185507
0.102,1.0235778,0.38924128,0.04199943,0.22111192,0.31549963,0.07154384
0.104,0.9916685,0.401549,0.039643258,0.2249291,0.31732982,0.08229034
0.106,0.95737636,0.41388774,0.03452313,0.2284583,0.31626543,0.09236602
0.108,0.9213072,0.42587474,0.026950896,0.23178045,0.31239745,0.10170713
0.11,0.88406193,0.43718588,0.017243415,0.23496985,0.30586776,0.11025445
0.112,0.8460063,0.4477817,0.005922258,0.23808375,0.29682672,0.117953986
0.114,0.8076043,0.457345,-0.0065664947,0.2411899,0.28546992,0.12475261
0.116,0.7694683,0.4657589,-0.01974389,0.24434936,0.27204892,0.13062058
0.118,0.7317147,0.47294635,-0.033174455,0.24762307,0.25685894,0.13554808
0.12,0.6947621,0.47889516,-0.046368092,0.25108248,0.24024528,0.139559
0.122,0.65908444,0.48343214,-0.059072584,0.25479046,0.22259226,0.14268988
0.124,0.62485945,0.4865527,-0.07106978,0.25882572,0.2043027,0.14500457
0.126,0.5923369,0.48833293,-0.0821524,0.26325092,0.1857875,0.14658521
0.128,0.56153435,0.48865473,-0.092127085,0.2681141,0.1674674,0.14753893
0.13,0.5325695,0.4876083,-0.100687444,0.27346468,0.1497034,0.14797828
0.132,0.5056168,0.48532414,-0.107924104,0.27931556,0.13283888,0.14803725
0.134,0.48057395,0.4819393,-0.11388415,0.2856752,0.11713863,0.1478421
0.136,0.45746088,0.4776523,-0.118745446,0.29253352,0.1027863,0.14751622
0.138,0.43627405,0.47260618,-0.12271856,0.29984373,0.08990527,0.14715877
0.14,0.41678208,0.46696544,-0.1260461,0.30756545,0.07852452,0.14683661
0.142,0.39893734,0.46087003,-0.12892956,0.31562,0.068603426,0.14661065
0.144,0.3826732,0.45440364,-0.13159116,0.32394454,0.06005785,0.1464979
0.146,0.3677529,0.4478064,-0.13444789,0.33245626,0.05275546,0.14651908
0.148,0.354018,0.44118473,-0.13773517,0.34108183,0.04651621,0.14668784
0.15,0.34157887,0.43464875,-0.1418446,0.34974888,0.041155785,0.14700979
0.152,0.3304016,0.42844385,-0.14705592,0.3583975,0.036465928,0.14748621
0.154,0.32049078,0.4224009,-0.15374693,0.3669656,0.032249853,0.14810392
0.156,0.31181064,0.4166062,-0.16209488,0.3754173,0.028338894,0.14884776
0.158,0.30441493,0.41099495,-0.17215243,0.38373515,0.024597347,0.1496861
0.16,0.29842332,0.4055799,-0.1841095,0.39190438,0.020928547,0.15059564
0.162,0.29398602,0.40015215,-0.19814116,0.39992696,0.017289743,0.15154569
0.164,0.29117274,0.3946458,-0.21434091,0.40781415,0.013655245,0.15252584
0.166,0.29006544,0.38905615,-0.23269346,0.4155907,0.010032579,0.15352038
0.168,0.29080454,0.3833117,-0.25320983,0.42325717,0.006458372,0.1545077
0.17,0.29341942,0.3772916,-0.2759335,0.43082172,0.002945304,0.1554638
0.172,0.29814824,0.370796,-0.30079654,0.43828818,-0.00048528612,0.15635702
0.174,0.30514807,0.3637274,-0.32784015,0.44566727,-0.0038336217,0.15718305
0.176,0.31431794,0.35597798,-0.35684937,0.4529574,-0.0071378797,0.15793583
0.178,0.3258614,0.34749964,-0.3877291,0.4601516,-0.010449007,0.1586063
0.18,0.33975175,0.33831713,-0.42052555,0.467256,-0.0138310045,0.15918717
0.182,0.3559764,0.32857352,-0.45505282,0.47427332,-0.017374039,0.15968606
0.184,0.37450016,0.31825218,-0.49105105,0.48121306,-0.021139845,0.1601279
0.186,0.39519078,0.3074452,-0.52853286,0.48808417,-0.025197223,0.16053085
0.188,0.41798028,0.29623854,-0.56722695,0.49490535,-0.029612944,0.16091266
0.19,0.44261178,0.28469902,-0.6069664,0.5016899,-0.034422338,0.161292
0.192,0.4690518,0.272996,-0.64750314,0.5084586,-0.039653465,0.1616695
0.194,0.49700236,0.26117253,-0.68881166,0.51520675,-0.045313075,0.16203898
0.196,0.5263325,0.24938256,-0.7307495,0.5219451,-0.051401734,0.1623796
0.198,0.5568531,0.2377503,-0.7731568,0.5286644,-0.05791904,0.16269238
0.2,0.58824384,0.2265597,-0.8159622,0.53536606,-0.0648624,0.16296937
0.202,0.62029624,0.21583666,-0.8588408,0.5420486,-0.072230875,0.16320096
0.204,0.6526507,0.20577876,-0.90147144,0.5487049,-0.08002958,0.16337425
0.206,0.6852798,0.19638593,-0.9437464,0.5553277,-0.088252366,0.16348866
0.208,0.7178008,0.1876571,-0.98526454,0.5619151,-0.09689112,0.16354473
0.21,0.74992985,0.17978945,-1.0257041,0.568459,-0.10592857,0.1635365
0.212,0.78158987,0.17260937,-1.0648277,0.5749525,-0.11535174,0.16345935
0.214,0.8123459,0.1663428,-1.1023844,0.5813938,-0.12510642,0.16330063
0.216,0.8421425,0.16090123,-1.1381102,0.5878013,-0.1351308,0.16303648
0.218,0.87068254,0.15627488,-1.1720269,0.5941842,-0.14530988,0.16265032
0.22,0.897872,0.15252578,-1.20412,0.60056484,-0.15549031,0.16215745
0.222,0.9235623,0.14946978,-1.2343343,0.606989,-0.16550207,0.16159084
0.224,0.94762254,0.14721952,-1.2626029,0.6134979,-0.1751253,0.16100736
0.226,0.9699332,0.14569582,-1.2888337,0.6201301,-0.18414135,0.1604931
0.228,0.99044484,0.14483207,-1.3129731,0.62692,-0.19233145,0.16012247
0.23,1.0092812,0.14442448,-1.3350755,0.63389385,-0.19949594,0.15999264
0.232,1.0264976,0.14446706,-1.3551058,0.6410653,-0.20548442,0.16019072
0.234,1.0422027,0.14494926,-1.3731364,0.6484214,-0.21021502,0.1608045
0.236,1.0563163,0.14574753,-1.3892536,0.6559315,-0.21370779,0.16189158
0.238,1.0691711,0.14689127,-1.4036969,0.6635207,-0.21609429,0.1634728
0.24,1.0809065,0.14830914,-1.4165461,0.6711049,-0.21761942,0.1655314
0.242,1.0916102,0.14999364,-1.4278626,0.6785717,-0.21864691,0.16801512
0.244,1.1018674,0.15183173,-1.4379065,0.68580234,-0.21963911,0.17081028
0.246,1.1117877,0.15374118,-1.4468534,0.6926741,-0.22112158,0.17379478
0.248,1.1217855,0.15571499,-1.4547442,0.69907033,-0.22366397,0.17680871
0.25,1.1318866,0.15789586,-1.4613559,0.70488787,-0.2278084,0.17968436
0.252,1.1422575,0.1601918,-1.4666559,0.71007645,-0.23403925,0.18225479
0.254,1.1532488,0.16265109,-1.4705434,0.7146047,-0.24272323,0.18438148
0.256,1.1652519,0.16516668,-1.4727757,0.718482,-0.25409752,0.18596372
0.258,1.1786562,0.16759977,-1.4732084,0.72176886,-0.2682492,0.18694338
0.26,1.1934875,0.17001054,-1.4716272,0.7245449,-0.2851187,0.18728834
0.262,1.2098737,0.17225578,-1.4676249,0.72690773,-0.30451614,0.18701762
0.264,1.2281874,0.17452072,-1.4610001,0.7289447,-0.32616228,0.1861726
0.266,1.2486192,0.17670782,-1.4514983,0.7307589,-0.34971017,0.18481238
0.268,1.2711856,0.17886047,-1.4390182,0.73245114,-0.3748009,0.18301126
0.27,1.2959852,0.18091103,-1.4232907,0.7340971,-0.40107453,0.1808441
0.272,1.3231069,0.18284373,-1.4041624,0.73576975,-0.42820194,0.17836782
0.274,1.3526297,0.1845327,-1.3813103,0.73752946,-0.45588237,0.17563042
0.276,1.3845536,0.18587604,-1.3546046,0.73943526,-0.4838323,0.17267986
0.278,1.4186488,0.18695855,-1.3238717,0.7415229,-0.51181144,0.1695562
0.28,1.4549494,0.18770766,-1.2889013,0.74381155,-0.53962946,0.16629341
0.282,1.4932802,0.18807015,-1.2496212,0.74626935,-0.5671114,0.16294079
0.284,1.5334337,0.18799514,-1.2058951,0.74883497,-0.5941216,0.15951738
0.286,1.575072,0.18759385,-1.1577266,0.7514095,-0.6205643,0.15603605
0.288,1.6176555,0.18686709,-1.1049122,0.7538766,-0.6463843,0.15251535
0.29,1.660661,0.18591034,-1.0472934,0.7561106,-0.67153883,0.14898528
0.292,1.7035098,0.1847749,-0.98498034,0.7580223,-0.6959975,0.14548528
0.294,1.7457081,0.18368563,-0.9181528,0.7595462,-0.71966654,0.14206685
0.296,1.7866243,0.18285072,-0.846998,0.7606895,-0.74235713,0.13881001
0.298,1.8255075,0.1824075,-0.7718508,0.7615581,-0.7637479,0.13584542
0.3,1.8615499,0.18278694,-0.69299686,0.76235014,-0.78334683,0.13334925
0.302,1.8939013,0.18404329,-0.6108967,0.76335335,-0.8005076,0.13157347
0.304,1.9217827,0.18653494,-0.52586186,0.76489425,-0.8144519,0.13081414
0.306,1.9442208,0.19046515,-0.43844905,0.76730573,-0.8243562,0.1313916
0.308,1.9605997,0.19602197,-0.34926778,0.7708977,-0.82944834,0.13362253
0.31,1.9703534,0.20345008,-0.2588057,0.77589077,-0.8290624,0.13778494
0.312,1.97255,0.21309716,-0.16788447,0.78237903,-0.8227683,0.144068
0.314,1.9667485,0.22507268,-0.07725835,0.7903437,-0.81045014,0.152547
0.316,1.9525688,0.2394945,0.012495518,0.79961014,-0.7923624,0.16317004
0.318,1.9296112,0.2564711,0.10071266,0.80987936,-0.7690985,0.17575283
0.32,1.8977054,0.27589482,0.18665174,0.8207494,-0.74154127,0.18998599
0.322,1.856772,0.29775846,0.27008376,0.8317565,-0.7108321,0.2054803
0.324,1.8069848,0.32191014,0.35055944,0.84241974,-0.67825747,0.22179368
0.326,1.7482646,0.34826022,0.42794064,0.8522917,-0.6451705,0.2384555
0.328,1.6808753,0.37657797,0.5022789,0.8609742,-0.6129005,0.2550028
0.33,1.6051114,0.40665793,0.5735799,0.8681432,-0.58263606,0.27099362
0.332,1.5214064,0.4382264,0.64179224,0.8735973,-0.55537117,0.28604162
0.334,1.4301922,0.47088504,0.7070532,0.87722105,-0.53185767,0.2998386
0.336,1.3319122,0.5043937,0.7695253,0.87901604,-0.51258737,0.3121526
0.338,1.2272356,0.53840363,0.82945716,0.87902576,-0.49782276,0.32280815
0.34,1.1166869,0.57248783,0.88724804,0.87734246,-0.4876036,0.3316883
0.342,1.0008178,0.6062139,0.94326544,0.8741016,-0.48173046,0.33870468
0.344,0.8802149,0.63921857,0.9979881,0.8694537,-0.4798276,0.3438058
0.346,0.75562966,0.6711205,1.0518224,0.8635285,-0.481435,0.34699684
0.348,0.6275902,0.70152867,1.1052631,0.856426,-0.4860682,0.34831414
0.35,0.49684903,0.730036,1.1586608,0.8482396,-0.49317575,0.3478136
0.352,0.3639565,0.7561824,1.2123587,0.8390169,-0.50223815,0.3455712
0.354,0.22951478,0.77950144,1.2667931,0.82875144,-0.51284224,0.34165928
0.356,0.09425962,0.7996183,1.3221501,0.81739336,-0.5246358,0.33616358
0.358,-0.041200697,0.81602246,1.3786854,0.804857,-0.5373535,0.32918155
0.36,-0.17598802,0.82818604,1.4364841,0.79104,-0.5508064,0.32082713
0.362,-0.30944854,0.8357825,1.4957137,0.7758242,-0.5648719,0.311229
0.364,-0.4409775,0.8383029,1.556531,0.7591148,-0.57950574,0.30051988
0.366,-0.570007,0.8354218,1.6189947,0.7408484,-0.5946692,0.28885126
0.368,-0.69578385,0.8269485,1.6832235,0.7210057,-0.6103242,0.27637875
0.37,-0.81744784,0.8124392,1.7492197,0.69964796,-0.62640667,0.26326904
0.372,-0.93443966,0.7917135,1.8167694,0.6768754,-0.642842,0.2496923
0.374,-1.0460968,0.7644439,1.8860345,0.6528446,-0.6595444,0.23582901
0.376,-1.1518192,0.73035216,1.9568214,0.6277504,-0.6763687,0.22184283
0.378,-1.2509886,0.6894429,2.029086,0.60181,-0.693138,0.2079161
0.38,-1.3431435,0.6417254,2.1026623,0.5752337,-0.70963013,0.19422227
0.382,-1.4280773,0.5874531,2.1772888,0.5482238,-0.72558534,0.18092826
0.384,-1.5054166,0.5268264,2.2524598,0.5209517,-0.74071074,0.16819657
0.386,-1.575035,0.4601166,2.3276293,0.49355367,-0.7546805,0.15617506
0.388,-1.6366928,0.3876172,2.4021392,0.46616164,-0.76715416,0.14496768
0.39,-1.690521,0.3098547,2.4752083,0.4388824,-0.7777886,0.13465412
0.392,-1.7366122,0.22727332,2.546136,0.411835,-0.7861873,0.12530996
0.394,-1.7751601,0.14057137,2.6139712,0.38513067,-0.7919743,0.11697973
0.396,-1.8063155,0.050241053,2.6779127,0.35887164,-0.7948295,0.10968744
0.398,-1.8304492,-0.042873442,2.7368748,0.3331618,-0.7944766,0.103451185
0.4,-1.8478056,-0.13816297,2.7898738,0.30811256,-0.7906551,0.09823755
0.402,-1.8586143,-0.23487705,2.836112,0.28382647,-0.78318346,0.094000034
0.404,-1.8633763,-0.3323015,2.8747115,0.26034677,-0.7720108,0.09067351
0.406,-1.86267,-0.42971873,2.9051032,0.23770967,-0.75715095,0.08817724
0.408,-1.8567973,-0.526316,2.926534,0.21593377,-0.73865926,0.08641952
0.41,-1.8460124,-0.6216765,2.9384234,0.19502343,-0.7167014,0.08530096
0.412,-1.8309486,-0.7149678,2.9402578,0.17494963,-0.6915488,0.08473326
0.414,-1.8121054,-0.8055561,2.9317122,0.15564159,-0.6635504,0.0846322
0.416,-1.7897708,-0.89294314,2.9125025,0.13703722,-0.63313955,0.08490758
0.418,-1.7643687,-0.9764787,2.8824828,0.119044855,-0.60080576,0.08547812
0.42,-1.7363677,-1.0557741,2.8415997,0.101549506,-0.56711864,0.08626064
0.422,-1.7059348,-1.13041,2.7901132,0.08443852,-0.53265613,0.08717401
0.424,-1.6736007,-1.199975,2.728437,0.067610025,-0.49800077,0.08814189
0.426,-1.6396255,-1.2640946,2.6568322,0.050975308,-0.46366638,0.08909568
0.428,-1.6040261,-1.3226478,2.5757935,0.034454912,-0.43009147,0.08998216
0.43,-1.5669632,-1.3755965,2.4858937,0.018004969,-0.39760658,0.09076932
0.432,-1.5286502,-1.4226663,2.3876798,0.0015954971,-0.36642104,0.0914482
0.434,-1.4893154,-1.4638143,2.2820146,-0.0147770345,-0.3366573,0.09203597
0.436,-1.4490974,-1.4989362,2.1694744,-0.031106792,-0.3083366,0.092561185
0.438,-1.4081545,-1.5280676,2.050757,-0.047368757,-0.28144705,0.093056336
0.44,-1.366678,-1.5511098,1.9266138,-0.06354006,-0.2559474,0.09355796
0.442,-1.324595,-1.5681825,1.7976758,-0.079620495,-0.2317958,0.09410821
0.444,-1.2819494,-1.5792971,1.6645751,-0.09561932,-0.20900029,0.094739795
0.446,-1.2387369,-1.5846983,1.5278556,-0.11156072,-0.18766513,0.095455065
0.448,-1.1949401,-1.5845116,1.3881809,-0.12748294,-0.16792989,0.09622073
0.45,-1.1506983,-1.5786734,1.2461089,-0.1434489,-0.14999968,0.09699224
0.452,-1.1060822,-1.5674505,1.1023934,-0.15953341,-0.13410786,0.09769604
0.454,-1.0609509,-1.5511165,0.95752335,-0.17582394,-0.12051474,0.09826563
0.456,-1.01531,-1.5298326,0.8122556,-0.19240056,-0.109463364,0.098610185
0.458,-0.96926904,-1.5039483,0.6672443,-0.20934209,-0.10116476,0.09863892
0.46,-0.92294836,-1.4737189,0.52321726,-0.22672907,-0.09580348,0.09825843
0.462,-0.8763431,-1.439346,0.38095182,-0.244618,-0.09350284,0.09739563
0.464,-0.8297143,-1.4010308,0.24128395,-0.26305306,-0.09433784,0.09597577
0.466,-0.78321743,-1.3592119,0.1049774,-0.28203988,-0.09832573,0.09392577
0.468,-0.73704517,-1.3141465,-0.027299494,-0.30155548,-0.10541409,0.091193184
0.47,-0.6912207,-1.2662077,-0.15482146,-0.3215563,-0.11550267,0.08773343
0.472,-0.6458783,-1.2157073,-0.27695197,-0.3419758,-0.1284188,0.08352298
0.474,-0.6013157,-1.1629219,-0.39308038,-0.36270255,-0.14391162,0.07853925
0.476,-0.5577536,-1.1082119,-0.5022794,-0.38361436,-0.16164497,0.07280105
0.478,-0.5156876,-1.0518146,-0.60379565,-0.40455806,-0.18118522,0.066346586
0.48,-0.4754943,-0.9940389,-0.69673777,-0.42534584,-0.20202719,0.05925609
0.482,-0.43743628,-0.935005,-0.78032136,-0.44578984,-0.22357653,0.05165793
0.484,-0.4019208,-0.8750412,-0.8539397,-0.46569616,-0.24519046,0.0437209
0.486,-0.3692773,-0.8140211,-0.916973,-0.48485637,-0.26620662,0.03563875
0.488,-0.3398689,-0.7521665,-0.9689859,-0.5030834,-0.28595862,0.027646348
0.49,-0.31404316,-0.68950355,-1.009476,-0.52022445,-0.30385035,0.02000831
0.492,-0.29189438,-0.6262601,-1.0381827,-0.5361624,-0.3193686,0.012970373
0.494,-0.27395707,-0.56234515,-1.0548427,-0.55082715,-0.33210403,0.006745398
0.496,-0.26033115,-0.49790585,-1.0593045,-0.56419903,-0.34177232,0.0015142262
0.498,-0.25120842,-0.43289807,-1.0513387,-0.5762947,-0.34819716,-0.0025990456
0.5,-0.24691245,-0.36734304,-1.031065,-0.58718294,-0.35130206,-0.005509451
0.502,-0.24802396,-0.3010356,-0.9994667,-0.5969691,-0.35110712,-0.007166609
0.504,-0.25375926,-0.23433983,-0.95712835,-0.60575527,-0.34769094,-0.007592216
0.506,-0.2639032,-0.16755132,-0.9041411,-0.61365855,-0.34119612,-0.006830603
0.508,-0.27889842,-0.10042022,-0.8405869,-0.62080115,-0.33177507,-0.0049542636
0.51,-0.29919702,-0.032780886,-0.76707065,-0.6272991,-0.3195991,-0.0020422488
0.512,-0.32478637,0.035374284,-0.68462926,-0.63326347,-0.3048523,0.0018023103
0.514,-0.35533005,0.104186505,-0.59441644,-0.6387944,-0.28774297,0.0064844936
0.516,-0.39036846,0.17357704,-0.4972254,-0.6439851,-0.2685194,0.011880189
0.518,-0.43001753,0.24374102,-0.3936581,-0.64893055,-0.24744265,0.017882213
0.52,-0.4740471,0.31473738,-0.28455767,-0.6536943,-0.22481604,0.024377942
0.522,-0.52230465,0.38647902,-0.17079856,-0.6583302,-0.20097692,0.03124483
0.524,-0.5743199,0.4588705,-0.05341916,-0.66287565,-0.17625323,0.038404316
0.526,-0.6300071,0.53188056,0.06681206,-0.66733724,-0.15097162,0.045794696
0.528,-0.68923557,0.6053753,0.18913966,-0.6717096,-0.12542349,0.053396
0.53,-0.75162137,0.6792789,0.3128033,-0.67597425,-0.09982416,0.061209545
0.532,-0.8168309,0.75354004,0.437207,-0.68009174,-0.07425144,0.06927605
0.534,-0.8845023,0.8281076,0.56168044,-0.68407494,-0.04877299,0.077671885
0.536,-0.954545,0.90298855,0.6858122,-0.6879486,-0.023429483,0.08648692
0.538,-1.0265696,0.978199,0.8090291,-0.69172883,0.0018209815,0.09577425
0.54,-1.1004736,1.0539033,0.9309267,-0.69545245,0.027053058,0.105574206
0.542,-1.1757251,1.1300877,1.0508876,-0.6991668,0.052372813,0.1159123
0.544,-1.2518417,1.2067862,1.16836,-0.702953,0.077795,0.12676144
0.546,-1.32828,1.2841852,1.2829674,-0.70692515,0.103220195,0.13800803
0.548,-1.4047171,1.3625448,1.3942782,-0.7111914,0.12851031,0.1494688
0.55,-1.4803241,1.441761,1.5019265,-0.7158356,0.15350641,0.16087985
0.552,-1.5544578,1.5219637,1.6056125,-0.7209472,0.17802784,0.17197622
0.554,-1.6266108,1.6030699,1.7049718,-0.726555,0.20188798,0.18249778
0.556,-1.696743,1.685394,1.7999,-0.7326306,0.22493064,0.1922137
0.558,-1.7642914,1.7690002,1.8899804,-0.7391015,0.24705882,0.20098546
0.56,-1.8287517,1.8540652,1.9748945,-0.74583006,0.2682682,0.20875649
0.562,-1.8892891,1.9408811,2.0541167,-0.7526375,0.28864408,0.21558133
0.564,-1.9453747,2.0297108,2.1273694,-0.7593439,0.30839974,0.22160998
0.566,-1.9961054,2.1205225,2.194157,-0.76576304,0.3278667,0.22706524
0.568,-2.0403666,2.2133398,2.2540076,-0.7717368,0.34748995,0.23219861
0.57,-2.0773666,2.3081913,2.3064187,-0.7771412,0.3677892,0.2372945
0.572,-2.1064374,2.4048746,2.3507504,-0.78186953,0.38930306,0.24259713
0.574,-2.1268106,2.5032897,2.3862348,-0.7858443,0.41258064,0.24831432
0.576,-2.13762,2.6033154,2.4122853,-0.7890066,0.43808052,0.25457802
0.578,-2.1378517,2.7047608,2.4285183,-0.7912919,0.46613598,0.2614168
0.58,-2.1267228,2.8073816,2.4346979,-0.7926182,0.49695542,0.26878577
0.582,-2.1034768,2.9109116,2.4306564,-0.7929034,0.530562,0.27660084
0.584,-2.0669,3.0148647,2.4164019,-0.79208857,0.56669617,0.28472167
0.586,-2.0158968,3.1183712,2.391717,-0.79017144,0.6048081,0.29298136
0.588,-1.9492712,3.2205048,2.356839,-0.7871642,0.64413834,0.3011846
0.59,-1.8664291,3.3204014,2.312045,-0.783194,0.683672,0.3090804
0.592,-1.7670298,3.4170623,2.2580667,-0.7784892,0.7221595,0.31638706
0.594,-1.650785,3.5096893,2.1957917,-0.773332,0.758252,0.32273743
0.596,-1.5173687,3.59719,2.1264067,-0.7680273,0.79060096,0.32770625
0.598,-1.366635,3.678585,2.0512989,-0.7628479,0.8180471,0.3308876
0.6,-1.1987811,3.7529333,1.97193,-0.7580053,0.839702,0.3319872
0.602,-1.0144095,3.8195267,1.890059,-0.75363356,0.8549483,0.33083367
0.604,-0.8141695,3.8775728,1.8073462,-0.74977726,0.86350614,0.3274182
0.606,-0.599216,3.9266357,1.7255108,-0.7463739,0.8654866,0.3218789
0.608,-0.37106156,3.96621,1.6459789,-0.74332494,0.8613633,0.31451702
0.61,-0.13107276,3.9961224,1.5705094,-0.7405161,0.8518604,0.3057626
0.612,0.11889577,4.0163393,1.5012031,-0.737885,0.83784974,0.29611054
0.614,0.37560678,4.0274563,1.439421,-0.73545676,0.820269,0.2860791
0.616,0.6362214,4.030358,1.3858167,-0.73334295,0.8000659,0.2761836
0.618,0.8985028,4.025679,1.3409382,-0.7317629,0.778097,0.26689774
0.62,1.1597664,4.0142865,1.3055773,-0.7310406,0.7550493,0.25865304
0.622,1.4166789,3.997672,1.2804725,-0.73153913,0.73143744,0.2518184
0.624,1.6657653,3.9773502,1.2658845,-0.7336327,0.70762193,0.24667796
0.626,1.9038165,3.9549987,1.2611578,-0.73763186,0.6838679,0.24343489
0.628,2.127971,3.932099,1.2653177,-0.74373806,0.660379,0.24220696
0.63,2.3354282,3.9104924,1.2773728,-0.7519996,0.63736296,0.24302812
0.632,2.5235815,3.8917549,1.296227,-0.7623013,0.6150754,0.24588485
0.634,2.689918,3.8774154,1.3205595,-0.7743668,0.59382886,0.25068563
0.636,2.8325052,3.8686366,1.3489386,-0.7877425,0.5740578,0.25729102
0.638,2.9498606,3.8664324,1.379707,-0.8018489,0.55635333,0.2655515
0.64,3.0407157,3.871323,1.4112356,-0.8160155,0.5414049,0.27532718
0.642,3.1041677,3.8838298,1.4417751,-0.8295639,0.52995515,0.2865206
0.644,3.139925,3.9040575,1.4698994,-0.8418366,0.5226948,0.29908547
0.646,3.147979,3.9317973,1.4943228,-0.8522893,0.52019507,0.31301096
0.648,3.128911,3.96651,1.5140445,-0.8604883,0.5228523,0.32825264
0.65,3.0836678,4.007377,1.5281042,-0.8661491,0.530822,0.34470558
0.652,3.0134146,4.053415,1.535721,-0.86913675,0.5439816,0.36215153
0.654,2.9198809,4.103484,1.5365031,-0.8694688,0.56193554,0.38024893
0.656,2.8050742,4.1561713,1.5301282,-0.86727023,0.58406967,0.398548
0.658,2.6712987,4.2101097,1.5165548,-0.8627364,0.60961616,0.416531
0.66,2.5206547,4.264052,1.4958239,-0.8561012,0.63768315,0.43367156
0.662,2.35546,4.3167024,1.4685161,-0.8476087,0.66731936,0.44949046
0.664,2.1787686,4.366923,1.4352319,-0.8375022,0.6976207,0.46355546
0.666,1.9935267,4.4134016,1.3967663,-0.82595706,0.72778505,0.47550464
0.668,1.8023406,4.455017,1.354132,-0.8131544,0.7570903,0.48504075
0.67,1.6078086,4.4908204,1.3083837,-0.7992974,0.7848869,0.49189222
0.672,1.4124373,4.5197096,1.260694,-0.7845758,0.8106297,0.49582484
0.674,1.2185493,4.5410004,1.2123299,-0.76917166,0.83389795,0.49661365
0.676,1.0282013,4.554246,1.1645333,-0.75331163,0.85433567,0.49403343
0.678,0.8433366,4.559187,1.1185449,-0.73721284,0.8716214,0.48788828
0.68,0.6657796,4.5556464,1.0756415,-0.7211107,0.88544816,0.47802904
0.682,0.49747133,4.5437202,1.0370703,-0.7052164,0.8955117,0.46435678
0.684,0.33993948,4.523379,1.0040274,-0.6897095,0.901554,0.44684494
0.686,0.19399095,4.494935,0.977613,-0.67472386,0.9033892,0.42553717
0.688,0.060479403,4.4586725,0.9585409,-0.6603393,0.90091616,0.40058213
0.69,-0.06013441,4.41517,0.9474362,-0.64659107,0.894132,0.3721979
0.692,-0.16737807,4.3647623,0.9449552,-0.6334636,0.8831232,0.34067
0.694,-0.26138544,4.3083262,0.95141983,-0.62093514,0.86809206,0.30631304
0.696,-0.3425057,4.247057,0.9671258,-0.60893965,0.8493609,0.26945624
0.698,-0.4112506,4.1817026,0.9922426,-0.5974196,0.827364,0.23043337
0.7,-0.46787393,4.1134596,1.0268047,-0.5863232,0.802598,0.18957594
0.702,-0.51290333,4.0432887,1.0705639,-0.5756138,0.7756159,0.14723015
0.704,-0.5469277,3.972137,1.1232157,-0.5652322,0.7470253,0.10376154
0.706,-0.5708977,3.9010067,1.1842319,-0.55511636,0.7174854,0.059566826
0.708,-0.58580685,3.8308096,1.2530048,-0.5451818,0.68763435,0.015056247
0.71,-0.5926384,3.7624536,1.3287822,-0.5353002,0.6581155,-0.029323626
0.712,-0.59228826,3.6967287,1.4106923,-0.5253058,0.62955374,-0.07311109
0.714,-0.5857997,3.63441,1.4980054,-0.5149791,0.6025795,-0.115864076
0.716,-0.5739043,3.5761313,1.5898621,-0.50405586,0.5777759,-0.15716481
0.718,-0.5575696,3.522626,1.685463,-0.49227312,0.55565614,-0.19661935
0.72,-0.53746116,3.4742653,1.7837812,-0.4793868,0.5366354,-0.23390542
0.722,-0.51412714,3.431508,1.8836975,-0.46515715,0.521066,-0.26878488
0.724,-0.4880538,3.3945584,1.9842536,-0.44938925,0.50920564,-0.30109906
0.726,-0.4595952,3.363426,2.084463,-0.4319756,0.5011835,-0.33077604
0.728,-0.42900884,3.3378448,2.183452,-0.41286618,0.49702007,-0.35778636
0.73,-0.39669454,3.3178039,2.2805014,-0.3920786,0.4966281,-0.3821601
0.732,-0.36297226,3.302971,2.3749063,-0.36969033,0.49983683,-0.4039592
0.734,-0.3280027,3.292961,2.4662492,-0.34579602,0.5064396,-0.42326847
0.736,-0.29201734,3.2875035,2.5542014,-0.32050762,0.516223,-0.44019875
0.738,-0.2552874,3.28618,2.6385882,-0.29390812,0.5289858,-0.45486477
0.74,-0.2175231,3.288343,2.7193859,-0.26607046,0.5445224,-0.46737275
0.742,-0.17880082,3.2935505,2.7962003,-0.23703481,0.5626932,-0.47781596
0.744,-0.13905287,3.3013737,2.8686714,-0.20679784,0.5834086,-0.48628947
0.746,-0.098290205,3.3114123,2.9367247,-0.17531428,0.6066326,-0.4928903
0.748,-0.0568316,3.323357,3.0008535,-0.14253521,0.63233054,-0.497751
0.75,-0.015048742,3.337087,3.0614738,-0.10840945,0.66046774,-0.5010336
0.752,0.026913881,3.3522232,3.1190372,-0.07289227,0.6909864,-0.50292414
0.754,0.068902254,3.3685255,3.1737614,-0.035935566,0.7238175,-0.5036395
0.756,0.110850096,3.3859231,3.2258234,0.0024738014,0.7588515,-0.50340736
0.758,0.1521728,3.4042847,3.2754683,0.042315856,0.7959468,-0.502455
0.76,0.19277716,3.423598,3.322803,0.08358933,0.83494866,-0.50094986
0.762,0.23228121,3.4439557,3.368169,0.12629354,0.8757498,-0.4989944
0.764,0.27041936,3.4655948,3.41153,0.17045346,0.9182497,-0.49660915
0.766,0.3068211,3.48882,3.453137,0.21612448,0.9624504,-0.49369425
0.768,0.34097075,3.5140164,3.4932156,0.26339284,1.0084486,-0.49004328
0.77,0.37273717,3.5414393,3.5318317,0.3123766,1.0564749,-0.48538342
0.772,0.40209103,3.5714033,3.5688977,0.36325702,1.1069183,-0.47937065
0.774,0.42865562,3.6042712,3.6043804,0.41626826,1.1603222,-0.47163114
0.776,0.4523573,3.6405,3.6379786,0.47165602,1.2172639,-0.46181262
0.778,0.4730978,3.680567,3.6697483,0.52966976,1.2783089,-0.4496023
0.78,0.491071,3.7249477,3.6996179,0.5905386,1.3440306,-0.4347651
0.782,0.50640965,3.7742758,3.7273207,0.6544459,1.4149187,-0.41717023
0.784,0.5196235,3.8288512,3.7525332,0.72153914,1.491312,-0.39677614
0.786,0.5308771,3.8890586,3.7750843,0.7918602,1.573333,-0.3736468
0.788,0.54042506,3.9551964,3.7949758,0.8653593,1.6607827,-0.3479327
0.79,0.5487206,4.027507,3.8120787,0.9418451,1.7531385,-0.31987315
0.792,0.55576706,4.106415,3.8258667,1.020957,1.8495193,-0.28981256
0.794,0.56171393,4.1923337,3.8372772,1.1021858,1.9487388,-0.25821435
0.796,0.5673001,4.285167,3.8477364,1.184845,2.0493112,-0.22566527
0.798,0.57275367,4.3851767,3.8574634,1.2680925,2.1495924,-0.19286215
0.8,0.57920575,4.491929,3.8666353,1.3509573,2.2477942,-0.16054213
0.802,0.58699036,4.6049757,3.8756347,1.432406,2.342067,-0.12941849
0.804,0.59672475,4.723532,3.8858237,1.5113192,2.4305482,-0.10017681
0.806,0.6088357,4.846876,3.8982074,1.586571,2.511429,-0.07346904
0.808,0.6238096,4.974512,3.9132392,1.6570444,2.5829842,-0.049827933
0.81,0.6420858,5.1054435,3.931459,1.7217028,2.6436849,-0.029696345
0.812,0.6641097,5.238745,3.9537091,1.7795779,2.6922386,-0.013416052
0.814,0.6898887,5.373447,3.9807487,1.8297924,2.7275982,-0.0012301207
0.816,0.7191279,5.508713,4.013381,1.8716359,2.7490425,0.006746292
0.818,0.7515764,5.643702,4.051709,1.9046015,2.756278,0.0104807615
0.82,0.7875068,5.77734,4.095245,1.928447,2.7494535,0.010026336
0.822,0.8272338,5.9085093,4.143854,1.9432257,2.7292318,0.0055195093
0.824,0.8710506,6.0358753,4.1975822,1.9492279,2.6965265,-0.0028927326
0.826,0.91888285,6.157739,4.2572474,1.946949,2.6524322,-0.015048981
0.828,0.9712243,6.2722187,4.3237634,1.9371964,2.5985672,-0.030676007
0.83,1.0278683,6.377912,4.3967166,1.9210649,2.536849,-0.049449086
0.832,1.0889671,6.4731913,4.476368,1.8997104,2.4689894,-0.07105243
0.834,1.1541631,6.5566545,4.5631003,1.8742933,2.3964403,-0.095155835
0.836,1.2252722,6.6263633,4.656175,1.8459008,2.3205543,-0.12135148
0.838,1.3032827,6.6807866,4.7546024,1.8155011,2.2425592,-0.14923918
0.84,1.3884249,6.718789,4.857507,1.7838823,2.1635199,-0.17844677
0.842,1.480551,6.7391787,4.96431,1.7516574,2.084436,-0.20864224
0.844,1.57992,6.740941,5.074264,1.7193555,2.0063457,-0.2394898
0.846,1.686791,6.7234983,5.1860657,1.6874691,1.9304103,-0.27066088
0.848,1.8014355,6.686316,5.2981734,1.6565351,1.858014,-0.30174685
0.85,1.9232671,6.6296706,5.409129,1.6272116,1.7907555,-0.33228165
0.852,2.0520558,6.5538607,5.5180006,1.6002399,1.7302074,-0.36174703
0.854,2.1874769,6.459061,5.623834,1.5764723,1.6779011,-0.38969988
0.856,2.3281305,6.346286,5.7256966,1.5567787,1.6351293,-0.41573948
0.858,2.4738135,6.2158947,5.821077,1.5419188,1.6027526,-0.4394669
0.86,2.6249282,6.068377,5.906469,1.5324328,1.5810599,-0.4605363
0.862,2.781172,5.9045033,5.9807615,1.5285418,1.5694878,-0.47882038
0.864,2.9400606,5.7259707,6.0443397,1.5300798,1.5665909,-0.49435472
0.866,3.099802,5.534272,6.097181,1.5365528,1.5702125,-0.5073701
0.868,3.2601604,5.330137,6.138663,1.5471103,1.5774943,-0.518386
0.87,3.4204903,5.114129,6.1688757,1.5606241,1.5851761,-0.528286
0.872,3.5799062,4.887441,6.1883183,1.5758632,1.589978,-0.53812957
0.874,3.7371225,4.6515265,6.1981144,1.5916483,1.5889847,-0.5489282
0.876,3.8908517,4.407802,6.1998754,1.6069663,1.5799605,-0.5614621
0.878,4.0401735,4.1572084,6.1956015,1.621137,1.5617251,-0.57615507
0.88,4.1838417,3.9005156,6.1872883,1.6337991,1.5341038,-0.5931331
0.882,4.3207936,3.6383278,6.1761875,1.6447704,1.4976773,-0.6123087
0.884,4.4505115,3.371284,6.163419,1.6540242,1.453932,-0.63332427
0.886,4.5726604,3.100134,6.149932,1.6616888,1.4052666,-0.65564775
0.888,4.686523,2.8256884,6.136514,1.6680157,1.3546863,-0.6785665
0.89,4.791239,2.5485058,6.123745,1.6732111,1.3051236,-0.70135087
0.892,4.8862343,2.269069,6.111784,1.6773363,1.2590284,-0.72342575
0.894,4.971111,1.9880445,6.1004963,1.6804712,1.2186286,-0.7444914
0.896,5.0456915,1.7062719,6.0892205,1.6827607,1.185924,-0.76450115
0.898,5.110032,1.4244404,6.0765715,1.6844262,1.1625098,-0.7834646
0.9,5.164134,1.1435137,6.060855,1.6858988,1.1495054,-0.80139595
0.902,5.20825,0.86440516,6.040432,1.6878381,1.147529,-0.81837803
0.904,5.242401,0.5881591,6.0122585,1.6911162,1.1568444,-0.83449113
0.906,5.266363,0.31635714,5.973098,1.6967547,1.1774856,-0.84979284
0.908,5.2801003,0.050236702,5.92125,1.7057831,1.2091426,-0.8642086
0.91,5.2833157,-0.2084136,5.8551745,1.7191727,1.2511718,-0.87757033
0.912,5.2767086,-0.45784307,5.7731485,1.7377692,1.3025846,-0.88956976
0.914,5.260745,-0.69660187,5.673172,1.7621498,1.3620253,-0.89976215
0.916,5.236269,-0.92358446,5.553936,1.7925462,1.4279134,-0.90766096
0.918,5.2038937,-1.1380777,5.4148216,1.8288164,1.4984484,-0.91291976
0.92,5.163964,-1.3391984,5.2562046,1.8704287,1.5716705,-0.91542035
0.922,5.116669,-1.5261436,5.0789766,1.916568,1.6457163,-0.9152287
0.924,5.0623393,-1.698262,4.8843203,1.96618,1.7187688,-0.9126304
0.926,5.001929,-1.8553808,4.673579,2.0180016,1.7890706,-0.9083303
0.928,4.9363985,-1.9976559,4.4486322,2.070643,1.8549732,-0.90352
0.93,4.866167,-2.1251354,4.2119145,2.122662,1.9149468,-0.89978975
0.932,4.7912784,-2.2379422,3.9651642,2.1726131,1.9675964,-0.89891005
0.934,4.7117443,-2.3361402,3.709936,2.219173,2.011675,-0.90261143
0.936,4.62757,-2.4194946,3.4477158,2.2611656,2.0460303,-0.91242194
0.938,4.5387945,-2.488021,3.1805613,2.297668,2.0695996,-0.9295487
0.94,4.44548,-2.54201,2.9117813,2.3280087,2.0814643,-0.95476574
0.942,4.3478017,-2.5817027,2.6434045,2.351739,2.0807853,-0.98843
0.944,4.246198,-2.6074991,2.3775673,2.368734,2.067162,-1.0303695
0.946,4.139202,-2.6191027,2.1176798,2.3792381,2.040824,-1.0797331
0.948,4.026492,-2.6167088,1.866838,2.3837173,2.0021937,-1.1351118
0.95,3.9087763,-2.600694,1.6273886,2.3828142,1.951828,-1.1947653
0.952,3.7869458,-2.5713634,1.4009843,2.377355,1.8906564,-1.2568834
0.954,3.6610067,-2.5289342,1.1891427,2.3682551,1.820061,-1.3196471
0.956,3.5310438,-2.473844,0.99344623,2.3564398,1.741675,-1.3812444
0.958,3.3970695,-2.406247,0.8152673,2.3427918,1.6571243,-1.4400039
0.96,3.2592332,-2.3268497,0.6557294,2.3281205,1.5680021,-1.4945561
0.962,3.1178162,-2.2363622,0.5155729,2.3130918,1.4757755,-1.5439712
0.964,2.972705,-2.1352768,0.39529964,2.2981756,1.3817439,-1.5877898
0.966,2.8246405,-2.0247025,0.2951827,2.2836652,1.2870648,-1.6260118
0.968,2.6730072,-1.9051989,0.21656324,2.2697475,1.1928864,-1.6589524
0.97,2.5170968,-1.7774909,0.16091132,2.256616,1.1004379,-1.687062
0.972,2.3569512,-1.6430101,0.12681995,2.2445223,1.0109961,-1.7108613
0.974,2.194592,-1.5039352,0.111793265,2.233822,0.92583025,-1.7308725
0.976,2.0310206,-1.3624296,0.11410213,2.2249923,0.84623134,-1.7475972
0.978,1.8660048,-1.2199947,0.1324411,2.2186155,0.77353,-1.7614086
0.98,1.7002691,-1.078612,0.16471073,2.215353,0.7090039,-1.7725084
0.982,1.5350372,-0.9411,0.20825875,2.2158425,0.653747,-1.7809091
0.984,1.3716767,-0.81041205,0.26009005,2.220614,0.6086052,-1.7864493
0.986,1.211588,-0.68913,0.31701097,2.230014,0.5741223,-1.7889017
0.988,1.0559775,-0.5791132,0.37575528,2.244113,0.55043405,-1.7880626
0.99,0.90658885,-0.48196036,0.43362838,2.2627263,0.53730446,-1.7838585
0.992,0.76555455,-0.39944908,0.48837078,2.2854075,0.5341825,-1.7763915
0.994,0.63476515,-0.3332513,0.5380284,2.3115335,0.5402223,-1.7659496
0.996,0.5153509,-0.2847274,0.5807073,2.3403165,0.5542763,-1.7530165
0.998,0.40932828,-0.25513658,0.6145781,2.3709042,0.57494783,-1.7382593
1,0.3186849,-0.245254,0.6379114,2.4024515,0.6006046,-1.7225726
1.002,0.24525124,-0.25521165,0.6496703,2.434174,0.6294589,-1.7069998
1.004,0.19068941,-0.28529125,0.64880383,2.4653854,0.6596653,-1.6926955
1.006,0.1561862,-0.3352784,0.63489217,2.4954767,0.68923646,-1.6807997
1.008,0.14254247,-0.40437424,0.60829014,2.523883,0.71607095,-1.6723676
1.01,0.15034285,-0.49172488,0.56975347,2.550063,0.73815644,-1.6683373
1.012,0.17977443,-0.5959516,0.5202584,2.5735056,0.7536831,-1.6694471
1.014,0.23080331,-0.71538585,0.46111858,2.5937145,0.76109624,-1.6761504
1.016,0.30308676,-0.84821236,0.3940608,2.6102214,0.75918984,-1.6886109
1.018,0.39587134,-0.99227256,0.32095015,2.6226249,0.7471667,-1.7066873
1.02,0.5081658,-1.1453068,0.24350965,2.6306167,0.7246453,-1.7299724
1.022,0.638469,-1.3048751,0.16370401,2.634016,0.69163245,-1.7578583
1.024,0.78511393,-1.4685585,0.08347586,2.6327436,0.64842004,-1.7896049
1.026,0.94600546,-1.6337402,0.0048632324,2.6268702,0.5955318,-1.824447
1.028,1.1190194,-1.7979388,-0.07005206,2.6166084,0.53375536,-1.8616015
1.03,1.3020625,-1.9589028,-0.13999021,2.6023219,0.46404994,-1.9002826
1.032,1.49308,-2.1145954,-0.2037414,2.584485,0.38741305,-1.9397866
1.034,1.6897897,-2.26312,-0.25957736,2.5636547,0.30486238,-1.9795208
1.036,1.8893182,-2.4024005,-0.30571783,2.5404816,0.21752635,-2.018998
1.038,2.088684,-2.5305846,-0.340239,2.5157151,0.1266288,-2.0577917
1.04,2.2851717,-2.6463697,-0.36167067,2.4901724,0.033562407,-2.0954742
1.042,2.47665,-2.7491407,-0.36882097,2.464753,-0.060023077,-2.131559
1.044,2.6613498,-2.8385534,-0.36120903,2.4404614,-0.15223205,-2.1654224
1.046,2.837643,-2.9147782,-0.33890986,2.4183536,-0.24091268,-2.1963184
1.048,3.003848,-2.9782245,-0.30254197,2.3995223,-0.32373044,-2.223381
1.05,3.158832,-3.0298343,-0.2525521,2.3850508,-0.39813408,-2.2456045
1.052,3.3010545,-3.0705276,-0.18930066,2.3759735,-0.46152478,-2.2619023
1.054,3.4291427,-3.1009924,-0.11371517,2.3731842,-0.51134264,-2.2711773
1.056,3.5420768,-3.1222863,-0.027182877,2.377384,-0.54525125,-2.2724454
1.058,3.639083,-3.1353922,0.06867474,2.3890529,-0.56131554,-2.2649295
1.06,3.7195644,-3.1416516,0.17227903,2.4084053,-0.55812335,-2.2481525
1.062,3.783068,-3.142261,0.28189757,2.4353786,-0.53486705,-2.2219596
1.064,3.8296883,-3.1384711,0.39529154,2.469643,-0.4914898,-2.186564
1.066,3.8595562,-3.1314616,0.5102099,2.5105815,-0.4286823,-2.1425257
1.068,3.8730662,-3.1221747,0.62409115,2.5573454,-0.34791142,-2.0907516
1.07,3.8707807,-3.1114402,0.7340666,2.6089003,-0.25134662,-2.0324101
1.072,3.8531961,-3.0998833,0.8376362,2.6640918,-0.141763,-1.968839
1.074,3.8208153,-3.0878263,0.93242323,2.7216685,-0.022477046,-1.9014546
1.076,3.7745697,-3.0755577,1.016159,2.7803488,0.10280341,-1.831686
1.078,3.7152984,-3.06316,1.0871351,2.8389032,0.23022959,-1.7609286
1.08,3.6440597,-3.0508187,1.144325,2.8961992,0.3560248,-1.6904597
1.082,3.5620732,-3.0382311,1.1871917,2.951242,0.47654513,-1.6215404
1.084,3.4705443,-3.0252647,1.2156669,3.0031567,0.5884343,-1.5554144
1.086,3.370925,-3.0117364,1.2299864,3.051249,0.68887764,-1.4932715
1.088,3.2646513,-2.9973712,1.230641,3.0950396,0.7757232,-1.4361854
1.09,3.153222,-2.9820251,1.2184409,3.134253,0.84746695,-1.3851228
1.092,3.0385158,-2.965551,1.1945955,3.168837,0.90331215,-1.3408742
1.094,2.9228804,-2.9479804,1.1605604,3.1989756,0.94316053,-1.3039818
1.096,2.8086433,-2.929548,1.1179032,3.225094,0.9675907,-1.2746828
1.098,2.698238,-2.9107516,1.0686244,3.247793,0.9777576,-1.2528933
1.1,2.593647,-2.8922539,1.01491,3.2678342,0.97528166,-1.2382021
1.102,2.496836,-2.874686,0.9589238,3.2860627,0.9621502,-1.2298968
1.104,2.410019,-2.8589454,0.902696,3.3033788,0.9405811,-1.2270377
1.106,2.3362439,-2.8462615,0.84800625,3.3206363,0.91290593,-1.2285291
1.108,2.278043,-2.837627,0.7967016,3.338593,0.8813841,-1.2332083
1.11,2.2376676,-2.8342476,0.7507397,3.3578496,0.8480681,-1.2399616
1.112,2.2173069,-2.837448,0.7118096,3.378792,0.8146641,-1.2478281
1.114,2.2189145,-2.8484466,0.6816549,3.4015868,0.7824724,-1.2560772
1.116,2.2444239,-2.868546,0.661531,3.4262004,0.7522853,-1.2642146
1.118,2.295184,-2.8989453,0.65259063,3.4524329,0.7243898,-1.2719402
1.12,2.3722355,-2.9405677,0.65573233,3.479932,0.69859254,-1.2791429
1.122,2.476248,-2.994402,0.67179364,3.5082622,0.67430484,-1.2858485
1.124,2.6065397,-3.0604844,0.7010448,3.5369284,0.6506692,-1.2921844
1.126,2.7625575,-3.1388595,0.7437075,3.5654304,0.6266948,-1.2983799
1.128,2.9433665,-3.2295802,0.799987,3.5933244,0.6014732,-1.3046626
1.13,3.1468148,-3.33185,0.86916053,3.620232,0.57433045,-1.3112186
1.132,3.370657,-3.4445922,0.9501291,3.6458714,0.54488486,-1.3181477
1.134,3.6127083,-3.5667446,1.041964,3.6700358,0.51307094,-1.325466
1.136,3.87002,-3.6968732,1.1435231,3.692622,0.47916603,-1.3330563
1.138,4.1392074,-3.832934,1.2533681,3.7136414,0.4437225,-1.3406816
1.14,4.416674,-3.9729257,1.3702177,3.7331707,0.4074103,-1.3479931
1.142,4.6988516,-4.114949,1.492218,3.7513452,0.37097582,-1.3545943
1.144,4.982057,-4.256941,1.6172158,3.7683434,0.33518615,-1.3600754
1.146,5.2630863,-4.3970413,1.7430365,3.7843776,0.30073228,-1.3640752
1.148,5.5388165,-4.533386,1.8673846,3.7996702,0.26812616,-1.366297
1.15,5.8063145,-4.66412,1.9881228,3.8144283,0.23768482,-1.3665105
1.152,6.062979,-4.787263,2.103109,3.8288946,0.20961711,-1.3645444
1.154,6.306467,-4.9013205,2.2105265,3.8433096,0.18401289,-1.3602921
1.156,6.5351596,-5.005011,2.3084686,3.8578796,0.16080353,-1.3537495
1.158,6.7480936,-5.0973463,2.3950362,3.872813,0.13987228,-1.3449415
1.16,6.9447627,-5.1777315,2.468401,3.8883274,0.12117231,-1.3339009
1.162,7.125342,-5.2460127,2.526951,3.9046474,0.10467258,-1.320709
1.164,7.2907214,-5.302692,2.569294,3.9219525,0.09037262,-1.3054386
1.166,7.442098,-5.348356,2.5943327,3.9404676,0.07835406,-1.2881112
1.168,7.5809526,-5.3838773,2.6014156,3.960384,0.06864792,-1.2687521
1.17,7.7092085,-5.410004,2.5900855,3.9818516,0.061269373,-1.2473937
1.172,7.8287163,-5.4277163,2.5600324,4.004989,0.056220114,-1.2240641
1.174,7.94167,-5.438195,2.5114498,4.0298877,0.05339989,-1.1988312
1.176,8.050167,-5.4427586,2.4445329,4.0565844,0.052595675,-1.1717962
1.178,8.156803,-5.442807,2.3595831,4.085111,0.05343783,-1.1430975
1.18,8.263816,-5.4395704,2.2569373,4.1154366,0.0553551,-1.1129403
1.182,8.373621,-5.4342575,2.1367826,4.1474776,0.05759278,-1.0816311
1.184,8.488536,-5.428175,1.9993827,4.1811056,0.05925992,-1.0495492
1.186,8.610269,-5.422221,1.8451188,4.216162,0.059411377,-1.0171336
1.188,8.740547,-5.4172306,1.6742178,4.252485,0.057109803,-0.98485005
1.19,8.880278,-5.413679,1.487165,4.289899,0.05148819,-0.9531766
1.192,9.030169,-5.4119506,1.2846725,4.3282614,0.041816056,-0.9225413
1.194,9.190634,-5.412013,1.0677438,4.3674617,0.027480751,-0.8933103
1.196,9.361922,-5.413791,0.8378227,4.407412,0.008006692,-0.86572635
1.198,9.543948,-5.417193,0.59650147,4.4480557,-0.016973317,-0.8399225
1.2,9.736507,-5.421831,0.3452928,4.4893575,-0.04773307,-0.8159246
1.202,9.938943,-5.4273887,0.08593595,4.5313163,-0.084435925,-0.79366696
1.204,10.15026,-5.433216,-0.17986143,4.5739727,-0.12716945,-0.7730032
1.206,10.369597,-5.438759,-0.4503833,4.617361,-0.17596003,-0.7537243
1.208,10.595415,-5.4431796,-0.724015,4.661549,-0.230726,-0.7355469
1.21,10.826186,-5.4454556,-0.9993261,4.7066407,-0.29123706,-0.7181384
1.212,11.060643,-5.4448,-1.274282,4.752739,-0.3570901,-0.701177
1.214,11.297229,-5.4405003,-1.5469718,4.7999525,-0.4276876,-0.6842938
1.216,11.533965,-5.4315586,-1.8158287,4.84843,-0.5021174,-0.66705173
1.218,11.769166,-5.4171,-2.0799818,4.898349,-0.57923937,-0.6490035
1.22,12.001878,-5.3965545,-2.3381329,4.9498234,-0.65779996,-0.62969077
1.222,12.230604,-5.369365,-2.589532,5.002966,-0.7364714,-0.60861623
1.224,12.453805,-5.334726,-2.8339725,5.057824,-0.814042,-0.5853328
1.226,12.670381,-5.2922683,-3.0702639,5.1143546,-0.8895502,-0.55950594
1.228,12.879033,-5.2417555,-3.2973275,5.172436,-0.9623288,-0.530836
1.23,13.07854,-5.1827035,-3.5150733,5.2318654,-1.0321653,-0.4991326
1.232,13.268198,-5.1147795,-3.7224078,5.2923126,-1.09934,-0.46436712
1.234,13.446281,-5.0375786,-3.9182544,5.353412,-1.1645846,-0.42665526
1.236,13.612765,-4.951674,-4.1022744,5.414726,-1.2290816,-0.38628766
1.238,13.767776,-4.8572416,-4.274188,5.475756,-1.2943532,-0.3437086
1.24,13.910646,-4.754343,-4.432188,5.5359917,-1.3621209,-0.299488
1.242,14.04043,-4.643379,-4.573998,5.594881,-1.4341936,-0.2542737
1.244,14.156148,-4.5246706,-4.6979103,5.6518865,-1.5122774,-0.2087146
1.246,14.257432,-4.3987985,-4.8019085,5.7065334,-1.5978487,-0.16343868
1.248,14.344144,-4.2668166,-4.883189,5.7584014,-1.6920278,-0.11900008
1.25,14.416988,-4.130294,-4.939395,5.807127,-1.7956063,-0.07584733
1.252,14.475841,-3.9896193,-4.9695296,5.852467,-1.9089096,-0.034271598
1.254,14.520248,-3.8447914,-4.9723167,5.894239,-2.0318499,0.0055677295
1.256,14.549805,-3.6963282,-4.9451303,5.9322505,-2.1641433,0.04357159
1.258,14.5644865,-3.5445666,-4.885092,5.966366,-2.3051598,0.079756856
1.26,14.5641,-3.389876,-4.789759,5.99656,-2.453955,0.114236
1.262,14.548272,-3.2327275,-4.6565633,6.022782,-2.6096318,0.14708507
1.264,14.517136,-3.0740888,-4.482832,6.045076,-2.7711563,0.17839038
1.266,14.471275,-2.9149528,-4.2670584,6.06361,-2.937264,0.20832098
1.268,14.410836,-2.7559223,-4.008481,6.0786004,-3.1067238,0.2370913
1.27,14.336368,-2.5976043,-3.7062678,6.0902696,-3.2783432,0.26482713
1.272,14.2489195,-2.441136,-3.3597019,6.0989203,-3.4507866,0.29165316
1.274,14.149739,-2.2876282,-2.9692645,6.10495,-3.6225348,0.31778455
1.276,14.039677,-2.1378927,-2.5360694,6.108756,-3.7920187,0.343521
1.278,13.919458,-1.992525,-2.0615492,6.1107473,-3.9575796,0.36929405
1.28,13.789867,-1.8519253,-1.5475564,6.111475,-4.11712,0.3958285
1.282,13.652182,-1.7163733,-0.99638927,6.111469,-4.2682714,0.42399883
1.284,13.50766,-1.5860492,-0.41128683,6.1111274,-4.4087524,0.45468783
1.286,13.357177,-1.4608188,0.20360744,6.1107373,-4.5362105,0.48888278
1.288,13.201157,-1.3402938,0.84315586,6.1105156,-4.648203,0.527684
1.29,13.04029,-1.2235355,1.5018678,6.110609,-4.74235,0.5721748
1.292,12.874404,-1.1090596,2.173822,6.1110644,-4.8166075,0.62325215
1.294,12.703526,-0.99556375,2.8534145,6.1119013,-4.869223,0.6816757
1.296,12.527897,-0.88207483,3.535123,6.113214,-4.8988495,0.74801517
1.298,12.347292,-0.76752996,4.2133865,6.1151004,-4.9049306,0.82247066
1.3,12.16124,-0.65107656,4.882635,6.1176867,-4.887807,0.9047854
1.302,11.969094,-0.5318732,5.5376797,6.1212025,-4.848539,0.9943409
1.304,11.77002,-0.40931153,6.173632,6.1259127,-4.788903,1.0901687
1.306,11.562882,-0.28249884,6.7858887,6.1319838,-4.711494,1.1909881
1.308,11.346726,-0.15061998,7.370517,6.1394606,-4.6195173,1.2954438
1.31,11.120347,-0.013301849,7.9241066,6.1483035,-4.5162582,1.40201
1.312,10.882705,0.12989569,8.443603,6.158211,-4.4051914,1.5093846
1.314,10.632908,0.2789774,8.92664,6.1686344,-4.289508,1.6164374
1.316,10.369816,0.43405724,9.37152,6.178903,-4.1717587,1.7224147
1.318,10.092993,0.59507036,9.776821,6.1881475,-4.0538845,1.8269404
1.32,9.801889,0.7618003,10.14172,6.1954556,-3.9371028,1.9299854
1.322,9.495897,0.9340601,10.465176,6.200083,-3.8216443,2.0318446
1.324,9.175303,1.1114964,10.746311,6.2015157,-3.7068393,2.1331224
1.326,8.840875,1.2936287,10.98501,6.1995277,-3.5913403,2.2345543
1.328,8.49321,1.4800935,11.181552,6.194171,-3.4733589,2.3367982
1.33,8.132562,1.6708655,11.335891,6.1858087,-3.3508406,2.4404035
1.332,7.760125,1.8658862,11.448569,6.175015,-3.2218547,2.5457096
1.334,7.377511,2.0649252,11.520433,6.162392,-3.0851912,2.6527052
1.336,6.986329,2.2678375,11.55177,6.148572,-2.940353,2.7611148
1.338,6.588788,2.4745975,11.543188,6.13418,-2.7875195,2.8704915
1.34,6.1868496,2.6850076,11.496593,6.1196175,-2.6279874,2.9800353
1.342,5.782281,2.899128,11.413333,6.104936,-2.4641879,3.0886483
1.344,5.378419,3.1163735,11.295502,6.089903,-2.2993202,3.1951032
1.346,4.976324,3.3372254,11.146163,6.074104,-2.1369715,3.2982016
1.348,4.5773277,3.5614543,10.968595,6.056949,-1.9808835,3.396736
1.35,4.1843114,3.7881138,10.765542,6.0378156,-1.8344946,3.4896533
1.352,3.7999017,4.0165567,10.539781,6.0161705,-1.7004664,3.5762608
1.354,3.4259763,4.2463913,10.294548,5.9916325,-1.5805691,3.6562593
1.356,3.0644922,4.4768076,10.033225,5.9640036,-1.4757662,3.7296362
1.358,2.716852,4.707125,9.759009,5.9332933,-1.3861748,3.7966323
1.36,2.3833828,4.937143,9.47575,5.899708,-1.3111124,3.857735
1.362,2.064867,5.165461,9.188763,5.8636103,-1.2493035,3.9135175
1.364,1.7620516,5.3905525,8.902386,5.82539,-1.1993046,3.9647543
1.366,1.4751072,5.611762,8.619219,5.7854586,-1.159496,4.0120516
1.368,1.2035569,5.828369,8.34136,5.744214,-1.1283623,4.0560665
1.37,0.94716775,6.0398607,8.071078,5.701951,-1.1045713,4.0973845
1.372,0.70524216,6.2459784,7.809951,5.6588917,-1.0870862,4.1364613
1.374,0.47649485,6.447101,7.558857,5.6151347,-1.0751883,4.17358
1.376,0.2588895,6.643532,7.319403,5.5706973,-1.0683948,4.208921
1.378,0.05088401,6.8351145,7.0930276,5.5255246,-1.066492,4.2425613
1.38,-0.14929134,7.0221477,6.8797455,5.4795375,-1.0695149,4.274424
1.382,-0.34384543,7.2051287,6.6791234,5.4326963,-1.0775605,4.3043566
1.384,-0.534926,7.384716,6.4908857,5.385027,-1.0907425,4.332134
1.386,-0.7240655,7.561017,6.314457,5.3366437,-1.1091427,4.357533
1.388,-0.91267294,7.7342687,6.148898,5.287708,-1.1327525,4.380335
1.39,-1.1023848,7.904486,5.992932,5.238463,-1.1614627,4.400421
1.392,-1.2947319,8.071831,5.8453283,5.189164,-1.195065,4.417774
1.394,-1.4913374,8.23638,5.7052,5.1400585,-1.2332418,4.4324923
1.396,-1.6925998,8.398059,5.5718675,5.091367,-1.2756315,4.444742
1.398,-1.8994279,8.556853,5.444689,5.0432444,-1.3218445,4.4547653
1.4,-2.1122274,8.712505,5.32267,4.995764,-1.3715124,4.462815
1.402,-2.3306725,8.86463,5.204361,4.948908,-1.42438,4.469113
1.404,-2.5548391,9.013441,5.0880256,4.9025726,-1.4803838,4.473802
1.406,-2.784873,9.159395,4.9719725,4.856598,-1.5396404,4.4769096
1.408,-3.0206654,9.30283,4.8549523,4.810787,-1.602445,4.4783425
1.41,-3.2614121,9.444162,4.7358966,4.7649074,-1.6692635,4.4778724
1.412,-3.5064116,9.583414,4.6139765,4.7187138,-1.7406443,4.475176
1.414,-3.7545214,9.720553,4.4883924,4.6720085,-1.8171505,4.4698777
1.416,-4.004538,9.855541,4.35846,4.624652,-1.8992699,4.4615912
1.418,-4.254942,9.988071,4.2238793,4.5765653,-1.9873679,4.4499593
1.42,-4.504416,10.118071,4.0847087,4.52775,-2.081612,4.4346504
1.422,-4.751296,10.245307,3.9413176,4.4782877,-2.1818938,4.4153895
1.424,-4.9942193,10.369595,3.7944086,4.4284077,-2.2877407,4.3919516
1.426,-5.231897,10.490779,3.645054,4.3784223,-2.3984025,4.3641763
1.428,-5.463235,10.60868,3.4946065,4.3287134,-2.5129309,4.3319955
1.43,-5.6869574,10.723097,3.344676,4.279704,-2.6301847,4.2953997
1.432,-5.901954,10.833957,3.197045,4.231874,-2.7488728,4.254463
1.434,-6.107452,10.941263,3.0537891,4.185721,-2.8676271,4.2093554
1.436,-6.302547,11.044775,2.916937,4.141743,-2.9850616,4.1603656
1.438,-6.486423,11.144095,2.788448,4.1004205,-3.0997858,4.1079254
1.44,-6.658129,11.238785,2.6702704,4.0622,-3.2104077,4.052603
1.442,-6.8171024,11.328432,2.5641556,4.027483,-3.3155587,3.9950848
1.444,-6.963361,11.412902,2.4716759,3.9966068,-3.4139018,3.9361396
1.446,-7.0971255,11.492221,2.3942976,3.9698153,-3.5041883,3.8765504
1.448,-7.2189584,11.566434,2.333438,3.947287,-3.58527,3.8170662
1.45,-7.32934,11.635471,2.2902513,3.9291096,-3.6560829,3.7583463
1.452,-7.4290676,11.699237,2.2654386,3.9152946,-3.7157176,3.7009392
1.454,-7.5190783,11.757776,2.2593596,3.905786,-3.763459,3.6452675
1.456,-7.6006303,11.811418,2.2719133,3.9004812,-3.798806,3.5916474
1.458,-7.6750064,11.860652,2.3028188,3.899204,-3.8214824,3.540279
1.46,-7.7438474,11.906071,2.3515112,3.9017177,-3.83153,3.49128
1.462,-7.809012,11.94827,2.4172602,3.9077237,-3.8293138,3.4446752
1.464,-7.87201,11.987702,2.4991262,3.9168472,-3.8155189,3.4003992
1.466,-7.934872,12.025009,2.5959067,3.9286673,-3.7911394,3.358273
1.468,-7.9996123,12.060947,2.706151,3.942689,-3.7573848,3.317975
1.47,-8.068137,12.096071,2.8282878,3.9584112,-3.7155907,3.2790523
1.472,-8.142096,12.131185,2.9604282,3.9753633,-3.6671014,3.2409391
1.474,-8.2233,12.1669,3.1010213,3.993119,-3.6131954,3.2029855
1.476,-8.313355,12.203866,3.2484052,4.0113325,-3.5550382,3.1645138
1.478,-8.413782,12.242747,3.4011073,4.029751,-3.493598,3.1248481
1.48,-8.525877,12.283997,3.5571332,4.048206,-3.4295871,3.0833457
1.482,-8.6503105,12.328021,3.7146783,4.0666122,-3.3634636,3.0394254
1.484,-8.78806,12.375107,3.872314,4.0849133,-3.2954853,2.992666
1.486,-8.939565,12.425479,4.028503,4.1030817,-3.2257617,2.942811
1.488,-9.1051035,12.479398,4.1818643,4.1210833,-3.1542892,2.8897781
1.49,-9.28439,12.536725,4.3311667,4.138889,-3.081007,2.8336282
1.492,-9.476916,12.597292,4.475195,4.156444,-3.0058434,2.774544
1.494,-9.68185,12.660777,4.6129184,4.1736903,-2.9287775,2.7127905
1.496,-9.898054,12.726948,4.743444,4.1905904,-2.8498333,2.6486883
1.498,-10.123904,12.795209,4.8656683,4.2071085,-2.7690835,2.5825963
1.5,-10.357703,12.865115,4.978664,4.2232547,-2.6866422,2.5149007
1.502,-10.597455,12.936153,5.081629,4.239057,-2.6026967,2.445984
1.504,-10.840978,13.007854,5.173654,4.2545424,-2.5175278,2.3761947
1.506,-11.086137,13.079712,5.2541647,4.2696958,-2.4315114,2.3058178
1.508,-11.330515,13.151152,5.3229175,4.2844596,-2.345123,2.2350678
1.51,-11.57163,13.221526,5.3797545,4.298708,-2.2589176,2.164069
1.512,-11.807187,13.290308,5.424885,4.3122864,-2.1735504,2.0928588
1.514,-12.034601,13.357044,5.4585376,4.325,-2.0897298,2.0213792
1.516,-12.251581,13.42134,5.4811325,4.3366323,-2.0081825,1.9495178
1.518,-12.455545,13.482905,5.493343,4.3469763,-1.9295921,1.8771192
1.52,-12.644806,13.541525,5.495938,4.355857,-1.8545594,1.804036
1.522,-12.8177185,13.597328,5.4899373,4.363146,-1.783576,1.7301049
1.524,-12.973257,13.650355,5.476708,4.368762,-1.7169598,1.6551846
1.526,-13.110612,13.700614,5.4576807,4.372684,-1.6548319,1.5791606
1.528,-13.229261,13.748197,5.434314,4.3749633,-1.5971057,1.5019468
1.53,-13.328942,13.793343,5.4080653,4.3756943,-1.543496,1.4234585
1.532,-13.410157,13.836469,5.380161,4.374996,-1.4935944,1.343637
1.534,-13.473244,13.877776,5.3523645,4.3730345,-1.4468832,1.26242
1.536,-13.518896,13.917547,5.326322,4.3699675,-1.4027803,1.1797423
1.538,-13.548268,13.956182,5.3027186,4.3659635,-1.3606884,1.095519
1.54,-13.562477,13.99416,5.282209,4.3611546,-1.3200332,1.0096706
1.542,-13.56319,14.0319605,5.2661157,4.35565,-1.2803277,0.9221605
1.544,-13.552521,14.070233,5.255621,4.3494887,-1.2411976,0.8329946
1.546,-13.532616,14.109521,5.2517347,4.3426695,-1.2024454,0.7422209
1.548,-13.505478,14.150232,5.2551208,4.3351097,-1.1640525,0.64990175
1.55,-13.473421,14.192922,5.2662296,4.3266644,-1.1261992,0.5561137
1.552,-13.438726,14.238099,5.2855725,4.317137,-1.0892749,0.46090436
1.554,-13.40334,14.286089,5.3138223,4.306278,-1.0538658,0.36428607
1.556,-13.36933,14.337212,5.3510127,4.293828,-1.0207462,0.26622272
1.558,-13.338224,14.391758,5.3968143,4.2795153,-0.990816,0.16662073
1.56,-13.311662,14.449868,5.4510465,4.263122,-0.96503353,0.06534791
1.562,-13.2908325,14.512046,5.513346,4.244488,-0.94436574,-0.037810087
1.564,-13.276974,14.578597,5.5832143,4.223485,-0.92973727,-0.14309287
1.566,-13.270922,14.649878,5.6602626,4.2000256,-0.92189884,-0.25073433
1.568,-13.273295,14.725813,5.744975,4.1741047,-0.9213686,-0.3609619
1.57,-13.28466,14.806591,5.8373237,4.145737,-0.92854357,-0.47399974
1.572,-13.304986,14.891943,5.9363866,4.1149926,-0.9436543,-0.590026
1.574,-13.333799,14.981814,6.0410647,4.081967,-0.96672344,-0.7092525
1.576,-13.370196,15.076094,6.1505957,4.046771,-0.99760914,-0.83187205
1.578,-13.413271,15.174559,6.26479,4.009554,-1.0360157,-0.9580248
1.58,-13.461744,15.276773,6.3832803,3.9705048,-1.0815068,-1.087764
1.582,-13.514431,15.382217,6.5055676,3.9298732,-1.1335455,-1.2210808
1.584,-13.569858,15.490283,6.63099,3.8879676,-1.1914611,-1.3579068
1.586,-13.6270275,15.6005125,6.7596345,3.8451288,-1.2544782,-1.4981253
1.588,-13.685037,15.712612,6.891304,3.8017073,-1.3217403,-1.6415694
1.59,-13.742723,15.826102,7.0255737,3.7580655,-1.3923298,-1.7880492
1.592,-13.79878,15.940355,7.16181,3.7145486,-1.4652586,-1.9373597
1.594,-13.85155,16.054731,7.2991743,3.6714778,-1.5394845,-2.0893404
1.596,-13.899942,16.168756,7.4371076,3.6290977,-1.6139858,-2.2438707
1.598,-13.942907,16.281847,7.5753355,3.587593,-1.6877794,-2.4008603
1.6,-13.97946,16.393682,7.7144184,3.5471094,-1.7598171,-2.5602055
1.602,-14.009033,16.503937,7.8545294,3.507759,-1.8290862,-2.721771
1.604,-14.031485,16.612284,7.9957995,3.469601,-1.8946922,-2.8853626
1.606,-14.047025,16.718334,8.137466,3.4326704,-1.9558631,-3.050734
1.608,-14.054356,16.821785,8.278972,3.39699,-2.011919,-3.2176182
1.61,-14.054121,16.922707,8.419554,3.3625605,-2.0622401,-3.3857226
1.612,-14.046086,17.020998,8.558902,3.3293755,-2.1063352,-3.554733
1.614,-14.030107,17.116499,8.697116,3.2973754,-2.143921,-3.724334
1.616,-14.006322,17.209103,8.8341675,3.2664871,-2.1749098,-3.8942327
1.618,-13.974641,17.29863,8.969879,3.2366521,-2.1993256,-4.064208
1.62,-13.935332,17.38509,9.103703,3.207777,-2.2173548,-4.2341557
1.622,-13.888128,17.468386,9.234896,3.179739,-2.2293806,-4.404029
1.624,-13.832756,17.548168,9.362648,3.152404,-2.2358668,-4.5738225
1.626,-13.768779,17.624271,9.486462,3.1255965,-2.2373962,-4.7435875
1.628,-13.695738,17.69613,9.605946,3.0991087,-2.2347016,-4.913403
1.63,-13.612796,17.763304,9.720822,3.0727654,-2.2285385,-5.083379
1.632,-13.519033,17.824978,9.830892,3.0463777,-2.219669,-5.2537003
1.634,-13.413179,17.880362,9.936123,3.019826,-2.208773,-5.424619
1.636,-13.294169,17.928429,10.036795,2.993043,-2.1964488,-5.5963326
1.638,-13.16099,17.96823,10.13324,2.9660635,-2.1832962,-5.768985
1.64,-13.012264,17.998497,10.225731,2.9390411,-2.169929,-5.942729
1.642,-12.84661,18.018028,10.314442,2.9122272,-2.1569216,-6.117712
1.644,-12.662874,18.025846,10.399054,2.8859415,-2.1448076,-6.294073
1.646,-12.459841,18.02075,10.479453,2.8605218,-2.1341038,-6.4719257
1.648,-12.236238,18.001492,10.556179,2.8362606,-2.1252828,-6.6512957
1.65,-11.991546,17.967072,10.629214,2.8133996,-2.1187353,-6.8321366
1.652,-11.724632,17.916374,10.697628,2.7920563,-2.1148725,-7.014351
1.654,-11.434675,17.848408,10.760418,2.772167,-2.1142178,-7.1978064
1.656,-11.121083,17.762417,10.816443,2.7534811,-2.1172996,-7.3823376
1.658,-10.783699,17.658194,10.864581,2.7355843,-2.1246362,-7.5677915
1.66,-10.42234,17.53537,10.903582,2.7179518,-2.1367674,-7.753962
1.662,-10.036932,17.393654,10.932058,2.6999803,-2.1543365,-7.940626
1.664,-9.627845,17.232985,10.948374,2.6810312,-2.1781082,-8.127569
1.666,-9.19565,17.053783,10.951258,2.6605134,-2.2088819,-8.314621
1.668,-8.74172,16.856655,10.939604,2.637901,-2.2474203,-8.501648
1.67,-8.267057,16.64241,10.912407,2.6127236,-2.294466,-8.688561
1.672,-7.773413,16.411919,10.869213,2.5845683,-2.3507934,-8.875265
1.674,-7.2623115,16.166292,10.809734,2.553066,-2.4171095,-9.061697
1.676,-6.73532,15.906497,10.733913,2.5178714,-2.493971,-9.247804
1.678,-6.194315,15.634131,10.641214,2.4786928,-2.5817235,-9.43357
1.68,-5.6410384,15.350533,10.53232,2.4352486,-2.6804879,-9.618925
1.682,-5.0774035,15.057583,10.408785,2.3872817,-2.7901113,-9.803755
1.684,-4.505752,14.756945,10.272629,2.334587,-2.910093,-9.987867
1.686,-3.9283085,14.450313,10.125685,2.2770238,-3.039574,-10.170948
1.688,-3.3467975,14.139386,9.969486,2.2145576,-3.1773179,-10.352583
1.69,-2.7629375,13.826035,9.806383,2.1472669,-3.3217268,-10.5322895
1.692,-2.178339,13.511764,9.639357,2.0753443,-3.470882,-10.709496
1.694,-1.5942762,13.198146,9.471402,1.9990735,-3.6227245,-10.88352
1.696,-1.0117977,12.886484,9.305377,1.9187999,-3.7752614,-11.0536585
1.698,-0.43156362,12.577724,9.144551,1.8349017,-3.9267156,-11.219211
1.7,0.14531517,12.273156,8.9927,1.7477608,-4.075683,-11.379557
1.702,0.71792173,11.973914,8.85328,1.6577234,-4.221197,-11.534239
1.704,1.2856828,11.680969,8.729273,1.5650249,-4.362761,-11.682953
1.706,1.848391,11.39501,8.62316,1.4698317,-4.5003057,-11.825511
1.708,2.4059546,11.11652,8.536941,1.3722178,-4.634164,-11.961861
1.71,2.9582047,10.845904,8.471912,1.2722226,-4.7649345,-12.092052
1.712,3.505494,10.583593,8.429791,1.1698459,-4.893379,-12.216191
1.714,4.0483117,10.329922,8.41218,1.0650176,-5.020321,-12.334467
1.716,4.5870934,10.085078,8.421458,0.9576962,-5.1464157,-12.447071
1.718,5.1210184,9.849155,8.459263,0.8478585,-5.2721157,-12.55419
1.72,5.6512976,9.621809,8.526398,0.73552513,-5.3975725,-12.65597
1.722,6.178025,9.402884,8.622803,0.6207882,-5.522678,-12.752532
1.724,6.7016044,9.192308,8.748003,0.5038266,-5.6470804,-12.843933
1.726,7.222698,8.990217,8.901241,0.38489276,-5.7702227,-12.930214
1.728,7.741568,8.797046,9.08169,0.2643632,-5.8914604,-13.011393
1.73,8.258661,8.612769,9.288746,0.14268515,-6.0101643,-13.087496
1.732,8.774132,8.437528,9.521794,0.02035755,-6.1258116,-13.158561
1.734,9.287902,8.272104,9.779583,-0.102101505,-6.238079,-13.224682
1.736,9.800199,8.117164,10.060286,-0.22418809,-6.346838,-13.286007
1.738,10.311071,7.9735446,10.361942,-0.34539902,-6.4521637,-13.342728
1.74,10.820658,7.8420267,10.682535,-0.46531093,-6.5543327,-13.395084
1.742,11.328827,7.7237515,11.020129,-0.5835836,-6.653816,-13.443297
1.744,11.835649,7.6199074,11.372932,-0.69998205,-6.7512517,-13.487609
1.746,12.341407,7.531663,11.738993,-0.81439805,-6.847374,-13.528238
1.748,12.846379,7.459952,12.116447,-0.9268544,-6.94302,-13.565427
1.75,13.350716,7.4059467,12.503719,-1.0374811,-7.0390344,-13.599434
1.752,13.85482,7.3705025,12.899754,-1.1465337,-7.1362514,-13.630566
1.754,14.358902,7.354402,13.303362,-1.2543564,-7.235527,-13.65914
1.756,14.86298,7.3582287,13.713343,-1.3613639,-7.3376136,-13.685429
1.758,15.367598,7.3823447,14.128666,-1.4679079,-7.443177,-13.709818
1.76,15.872837,7.4270744,14.548538,-1.5743542,-7.5527477,-13.732777
1.762,16.37919,7.4923735,14.972172,-1.6810219,-7.6666207,-13.754671
1.764,16.887554,7.5777,15.39897,-1.7881918,-7.7848644,-13.775771
1.766,17.398455,7.682721,15.82873,-1.8960314,-7.9073052,-13.796253
1.768,17.912481,7.8066845,16.261381,-2.0046382,-8.03361,-13.8161335
1.77,18.43045,7.948638,16.69681,-2.1140647,-8.163317,-13.835251
1.772,18.95335,8.1071415,17.134651,-2.224297,-8.295943,-13.853306
1.774,19.481987,8.280466,17.57457,-2.3353105,-8.431027,-13.869883
1.776,20.017391,8.466505,18.01653,-2.4470568,-8.568225,-13.884482
1.778,20.56078,8.663176,18.460516,-2.5595036,-8.707332,-13.896594
1.78,21.11304,8.8683605,18.906456,-2.6726398,-8.848331,-13.905722
1.782,21.67535,9.079747,19.354187,-2.7864704,-8.991372,-13.911415
1.784,22.24889,9.294985,19.803562,-2.9009914,-9.136671,-13.913289
1.786,22.83428,9.511923,20.254486,-3.0161724,-9.284451,-13.911023
1.788,23.432632,9.728079,20.707003,-3.13195,-9.434885,-13.904331
1.79,24.04451,9.941261,21.161114,-3.2482023,-9.588017,-13.892958
1.792,24.670288,10.149116,21.616817,-3.364706,-9.743674,-13.876644
1.794,25.310467,10.349569,22.074045,-3.4811234,-9.901421,-13.855087
1.796,25.965393,10.540477,22.532467,-3.5970235,-10.060579,-13.827933
1.798,26.635008,10.719862,22.99151,-3.711863,-10.220213,-13.794792
1.8,27.31918,10.885899,23.450317,-3.8250027,-10.37922,-13.755247
1.802,28.017773,11.037133,23.907879,-3.9357548,-10.53644,-13.708836
1.804,28.730236,11.172037,24.363388,-4.0434413,-10.690792,-13.655089
1.806,29.4558,11.28916,24.815908,-4.1473827,-10.841325,-13.593544
1.808,30.193249,11.387425,25.264397,-4.2469597,-10.987278,-13.523834
1.81,30.941689,11.465532,25.70771,-4.341604,-11.12811,-13.445751
1.812,31.700089,11.522525,26.144543,-4.4308476,-11.26345,-13.359128
1.814,32.467083,11.557394,26.573812,-4.5142484,-11.393091,-13.263957
1.816,33.241245,11.569378,26.994438,-4.591408,-11.516922,-13.160407
1.818,34.02151,11.558016,27.405327,-4.6619277,-11.634878,-13.048748
1.82,34.80679,11.522602,27.805237,-4.725417,-11.746773,-12.929226
1.822,35.59619,11.462378,28.193209,-4.78144,-11.85228,-12.8020735
1.824,36.38879,11.376875,28.568592,-4.829487,-11.950924,-12.6674595
1.826,37.18379,11.265646,28.930855,-4.869039,-12.042109,-12.525471
1.828,37.980606,11.128456,29.280132,-4.8995185,-12.125209,-12.376081
1.83,38.778618,10.964996,29.617245,-4.9203253,-12.199637,-12.219168
1.832,39.577408,10.775097,29.94314,-4.9308453,-12.264924,-12.054565
1.834,40.37712,10.55858,30.258526,-4.930423,-12.320765,-11.882098
1.836,41.177956,10.314827,30.56443,-4.9184647,-12.367076,-11.701636
1.838,41.980293,10.04339,30.862202,-4.8943825,-12.404021,-11.513129
1.84,42.784462,9.744398,31.153519,-4.8576155,-12.43195,-11.316565
1.842,43.590885,9.418146,31.43991,-4.807609,-12.451396,-11.112013
1.844,44.40035,9.06477,31.723259,-4.743861,-12.463048,-10.899582
1.846,45.213562,8.684563,32.00558,-4.665901,-12.467707,-10.6794195
1.848,46.03119,8.2783375,32.28826,-4.573307,-12.466213,-10.451657
1.85,46.85458,7.8468084,32.572323,-4.465745,-12.459496,-10.216396
1.852,47.684956,7.391083,32.858116,-4.342948,-12.448584,-9.973663
1.854,48.523674,6.9125395,33.145245,-4.2047524,-12.434553,-9.72341
1.856,49.372776,6.4126196,33.433163,-4.051081,-12.418509,-9.465476
1.858,50.234478,5.8930554,33.720856,-3.8819344,-12.401633,-9.199683
1.86,51.11121,5.355701,34.00713,-3.6974814,-12.385128,-8.925768
1.862,52.005363,4.8032427,34.29031,-3.4979744,-12.370205,-8.643402
1.864,52.91969,4.239067,34.56895,-3.283774,-12.358115,-8.352252
1.866,53.857048,3.6673558,34.841995,-3.0553274,-12.350071,-8.052025
1.868,54.82044,3.0932178,35.108547,-2.8131018,-12.347195,-7.7425284
1.87,55.81368,2.522095,35.367573,-2.55756,-12.350515,-7.4236794
1.872,56.8407,1.9603069,35.618195,-2.2891579,-12.360903,-7.0954943
1.874,57.906265,1.4145763,35.859062,-2.0083141,-12.379035,-6.758175
1.876,59.016148,0.89204717,36.0891,-1.7154106,-12.405389,-6.4119816
1.878,60.176094,0.40168524,36.308193,-1.4107947,-12.440272,-6.057248
1.88,61.392002,-0.046283722,36.517197,-1.094783,-12.48388,-5.6943107
1.882,62.67106,-0.44044852,36.71936,-0.76771164,-12.536331,-5.323481
1.884,64.0186,-0.7676122,36.91902,-0.42991173,-12.59778,-4.945102
1.886,65.441666,-1.0147829,37.121876,-0.081694365,-12.668316,-4.5594125
1.888,66.946594,-1.167439,37.336258,0.276662,-12.748051,-4.1665254
1.89,68.5379,-1.2094865,37.569298,0.6448866,-12.837228,-3.7664404
1.892,70.22142,-1.1260805,37.829308,1.0226681,-12.936339,-3.3591158
1.894,72.001564,-0.9022374,38.125835,1.40963,-13.046119,-2.9445634
1.896,73.882,-0.518816,38.470013,1.8053304,-13.167479,-2.5229073
1.898,75.86524,0.047876835,38.875237,2.2092648,-13.301486,-2.094542
1.9,77.94269,0.83133554,39.350273,2.6208313,-13.449212,-1.6601723
1.902,80.11642,1.847353,39.909534,3.0394285,-13.611544,-1.2208474
1.904,82.38382,3.1023607,40.582436,3.4645252,-13.7891,-0.7779889
1.906,84.73509,4.6249666,41.38253,3.8957624,-13.982124,-0.33311018
1.908,87.15872,6.4564514,42.30994,4.3328676,-14.190403,0.11246425
1.91,89.650665,8.624517,43.373703,4.7755423,-14.413174,0.5576987
1.912,92.19746,11.15338,44.58927,5.223441,-14.649166,1.0021569
1.914,94.77158,14.051542,45.952133,5.676147,-14.896717,1.446144
1.916,97.34107,17.337492,47.47451,6.1331873,-15.153715,1.8907669
1.918,99.89321,21.0198,49.171127,6.5939255,-15.4174,2.3384457
1.92,102.397514,25.109642,51.05457,7.0577497,-15.684549,2.7924187
1.922,104.81159,29.612335,53.145287,7.524104,-15.951566,3.2568698
1.924,107.08574,34.5187,55.483032,7.9923306,-16.214731,3.737115
1.926,109.212685,39.797928,58.113567,8.46199,-16.46969,4.2395086
1.928,111.1639,45.45063,61.03298,8.933384,-16.710629,4.771188
1.93,113.03329,51.45948,64.198425,9.407696,-16.930447,5.338851
1.932,114.894325,57.773167,67.622765,9.8854065,-17.122707,5.949194
1.934,116.61263,64.39403,71.32158,10.366647,-17.280077,6.6103425
1.936,118.168465,71.282425,75.313736,10.854773,-17.389751,7.331541
1.938,119.56662,78.38281,79.62213,11.354721,-17.436224,8.120595
1.94,120.84123,85.69978,84.148575,11.870149,-17.404802,8.984013
1.942,121.996765,93.09897,89.019066,12.403217,-17.278648,9.928984
1.944,123.05146,100.45241,94.32388,12.955766,-17.037148,10.962449
1.946,124.05447,107.69575,100.082664,13.528413,-16.657246,12.090874
1.948,125.05255,114.718155,106.28393,14.119978,-16.113794,13.322238
1.95,126.0844,121.34802,112.775024,14.726958,-15.378299,14.665754
1.952,127.24538,127.57817,119.39951,15.344187,-14.41434,16.130882
1.954,128.61053,133.31276,126.32231,15.96574,-13.174871,17.730658
1.956,130.25752,138.45627,133.54655,16.573444,-11.641443,19.465569
1.958,132.12209,143.02718,141.1218,17.150928,-9.791298,21.33831
1.96,134.39827,146.78416,148.92595,17.685001,-7.6011667,23.348751
1.962,137.18173,149.52872,156.81024,18.161077,-5.0589657,25.497288
1.964,140.41638,151.26848,164.80136,18.550552,-2.2221508,27.737757
1.966,144.15732,152.00906,172.75941,18.80933,0.7857313,29.96236
1.968,148.4541,151.71869,180.52628,19.004667,4.1753817,32.265938
1.97,153.31459,150.39642,187.94266,19.10632,7.7633915,34.509228
1.972,158.70648,148.07335,194.82938,19.125614,11.470512,36.601875
1.974,164.58086,144.79523,201.00156,19.092745,15.202827,38.44531
1.976,170.86783,140.64642,206.25192,19.042984,18.872688,39.93003
1.978,177.49034,135.73041,210.415,19.014637,22.401363,40.9625
1.98,184.38312,130.13303,213.35773,19.056665,25.715921,41.495686
1.982,191.40375,123.95769,214.95364,19.23705,28.749622,41.487724
1.984,198.4085,117.318375,215.06482,19.649857,31.539799,40.88057
1.986,205.25691,110.339,213.57298,20.378302,34.162,39.677288
1.988,211.80188,103.14717,210.39847,21.45788,36.675148,37.9132
1.99,217.8888,95.86671,205.51231,22.85079,39.09069,35.653996
1.992,223.36603,88.61248,198.93037,24.500168,41.377728,33.01585
1.994,228.09201,81.493835,190.70972,26.35934,43.52776,30.131918
1.996,231.94887,74.60916,180.94388,28.365805,45.48996,27.115046
1.998,234.83757,68.049446,169.763,30.435442,47.15305,24.044422
2,236.67593,61.89599,157.3424,32.473404,48.38658,20.960457
2.002,237.41177,56.21942,143.89104,34.385044,49.06737,17.86343
2.004,237.02531,51.067566,129.63545,36.076996,49.09047,14.723294
2.006,235.52386,46.46216,114.82349,37.4552,48.381786,11.49967
2.008,232.93184,42.416927,99.705505,38.42817,46.912327,8.157818
2.01,229.3021,38.93602,84.543564,38.92132,44.72505,4.6967297
2.012,224.69618,36.035614,69.60126,38.872547,41.888885,1.1472664
2.014,219.20222,33.726273,55.119118,38.242615,38.498558,-2.4129581
2.016,212.92746,31.99128,41.33239,37.027054,34.67052,-5.8707504
2.018,205.98846,30.8032,28.457909,35.265945,30.55833,-9.067488
2.02,198.50781,30.147215,16.666397,33.034676,26.302298,-11.842936
2.022,190.62408,30.009327,6.089119,30.35746,21.77594,-14.234309
2.024,182.48642,30.385624,-3.157074,27.396599,17.26009,-16.078094
2.026,174.23933,31.253382,-11.006081,24.26342,12.816241,-17.377537
2.028,165.99652,32.593468,-17.42192,21.055672,8.495205,-18.188992
2.03,157.88004,34.37177,-22.39542,17.860727,4.3286877,-18.602615
2.032,150.00652,36.550198,-25.954292,14.745316,0.34523344,-18.739122
2.034,142.4769,39.093784,-28.163666,11.745874,-3.4218206,-18.73071
2.036,135.33714,41.970013,-29.106937,8.86783,-6.940633,-18.655918
2.038,128.64578,45.102535,-28.84,6.0943966,-10.245385,-18.53723
2.04,122.35281,48.428146,-27.419895,3.4265919,-13.343256,-18.415817
2.042,116.45926,51.902596,-24.98518,0.89197206,-16.198711,-18.307148
2.044,111.13935,55.421234,-21.684383,-1.4674177,-18.757137,-18.208393
2.046,106.40154,58.923225,-17.673721,-3.647671,-20.979671,-18.124735
2.048,102.218605,62.35614,-13.1095085,-5.673167,-22.886923,-18.050674
2.05,98.53941,65.61667,-8.049477,-7.5491247,-24.47484,-17.966343
2.052,95.34342,68.73434,-2.7676353,-9.258982,-25.710865,-17.854385
2.054,92.591675,71.70054,2.550827,-10.776987,-26.57116,-17.711231
2.056,90.22029,74.441216,7.807171,-12.07694,-27.042685,-17.54681
2.058,88.1773,76.93631,12.9254875,-13.131439,-27.11396,-17.378895
2.06,86.42328,79.21045,17.92698,-13.913784,-26.778374,-17.227148
2.062,84.87584,81.14188,22.77253,-14.404924,-26.041424,-17.103626
2.064,83.48955,82.73474,27.135147,-14.599176,-24.920938,-17.008312
2.066,82.22507,84.00275,30.920208,-14.507737,-23.449024,-16.931751
2.068,81.15592,84.882935,34.019306,-14.155172,-21.669987,-16.858164
2.07,80.1023,85.56647,36.496296,-13.577518,-19.638584,-16.76611
2.072,79.02748,86.14319,38.40051,-12.8214855,-17.418985,-16.631819
2.074,78.01854,86.51332,39.618553,-11.942091,-15.084508,-16.435434
2.076,77.020775,86.63918,40.223328,-10.998634,-12.716469,-16.166674
2.078,75.991035,86.55281,40.28451,-10.05066,-10.400048,-15.828151
2.08,74.923294,86.271324,39.861008,-9.152957,-8.217267,-15.435569
2.082,73.82141,85.812744,39.022865,-8.351873,-6.2403345,-15.015674
2.084,72.69233,85.191124,37.840668,-7.6827917,-4.527669,-14.601671
2.086,71.53196,84.41157,36.400528,-7.1703444,-3.1233802,-14.229204
2.088,70.32585,83.48299,34.753784,-6.8294272,-2.0549855,-13.932412
2.09,69.03967,82.44515,32.944855,-6.664928,-1.3315191,-13.738592
2.092,67.7024,81.32246,31.039816,-6.673293,-0.94536304,-13.662829
2.094,66.320435,80.13167,29.135628,-6.84551,-0.8751221,-13.705294
2.096,64.88633,78.88251,27.321339,-7.1676626,-1.0896497,-13.853355
2.098,63.39745,77.58127,25.664436,-7.622056,-1.5510812,-14.084959
2.1,61.85876,76.23717,24.207767,-8.189309,-2.2154212,-14.369456
2.102,60.27511,74.86328,22.980997,-8.849492,-3.0341907,-14.670102
2.104,58.651817,73.47014,22.007572,-9.582132,-3.957087,-14.948981
2.106,56.985085,72.07068,21.305683,-10.366097,-4.933538,-15.170856
2.108,55.276184,70.67444,20.884615,-11.179567,-5.9141912,-15.305252
2.11,53.534157,69.29086,20.73666,-12.001351,-6.8545713,-15.328956
2.112,51.76244,67.93346,20.844559,-12.810692,-7.7157516,-15.228418
2.114,49.963036,66.62489,21.19048,-13.586846,-8.464868,-14.999256
2.116,48.142635,65.39364,21.745214,-14.310247,-9.076959,-14.644882
2.118,46.317844,64.257,22.480267,-14.962697,-9.535001,-14.173825
2.12,44.507324,63.224716,23.357595,-15.528307,-9.829876,-13.597779
2.122,42.72678,62.30464,24.327305,-15.994312,-9.960064,-12.930564
2.124,40.987514,61.50431,25.344404,-16.351795,-9.930827,-12.187174
2.126,39.299767,60.82733,26.371965,-16.596064,-9.75318,-11.383056
2.128,37.673878,60.27443,27.37705,-16.726849,-9.442726,-10.533997
2.13,36.112503,59.845074,28.331007,-16.74824,-9.01809,-9.656412
2.132,34.616535,59.533768,29.207504,-16.668081,-8.499716,-8.76712
2.134,33.186886,59.33062,29.980175,-16.497156,-7.9091086,-7.882647
2.136,31.823553,59.22409,30.624851,-16.248438,-7.267865,-7.018367
2.138,30.530529,59.200462,31.12032,-15.936134,-6.5965157,-6.1877685
2.14,29.309488,59.24945,31.451933,-15.574711,-5.9136076,-5.402001
2.142,28.160542,59.360405,31.613667,-15.178115,-5.2351837,-4.6696715
2.144,27.083538,59.52114,31.604504,-14.759266,-4.574627,-3.9965868
2.146,26.077263,59.72016,31.428791,-14.3296585,-3.9426355,-3.3857121
2.148,25.139297,59.9469,31.095114,-13.899184,-3.3470187,-2.8371494
2.15,24.266722,60.19117,30.61528,-13.476015,-2.7927403,-2.3485975
2.152,23.456823,60.4433,30.001932,-13.066576,-2.2821655,-1.9160124
2.154,22.704763,60.696075,29.270456,-12.675699,-1.8156352,-1.5342784
2.156,22.004314,60.942444,28.43816,-12.3067875,-1.3919797,-1.1980548
2.158,21.350523,61.174393,27.519943,-11.961834,-1.0087428,-0.9023652
2.16,20.737307,61.383583,26.528297,-11.641596,-0.6626668,-0.6428571
2.162,20.15859,61.561123,25.476559,-11.346092,-0.3505249,-0.41625166
2.164,19.608528,61.698875,24.379473,-11.074144,-0.06840372,-0.21988463
2.166,19.081812,61.790375,23.252182,-10.824675,0.18620586,-0.051350832
2.168,18.574081,61.831234,22.107712,-10.597054,0.41432142,0.09072757
2.17,18.080938,61.820152,20.957384,-10.390163,0.6172526,0.20745826
2.172,17.59817,61.757706,19.811214,-10.203175,0.7956526,0.29993463
2.174,17.123888,61.644463,18.678305,-10.035431,0.9494767,0.36928344
2.176,16.655636,61.481796,17.566301,-9.886368,1.078371,0.4168439
2.178,16.192286,61.271317,16.48072,-9.755369,1.1819758,0.44416642
2.18,15.733217,61.01464,15.426035,-9.641687,1.2601054,0.45296335
2.182,15.27721,60.71457,14.405797,-9.544411,1.3129272,0.4451127
2.184,14.82312,60.373558,13.422376,-9.462386,1.3411078,0.42264366
2.186,14.370728,59.99332,12.476515,-9.394194,1.3459582,0.3877473
2.188,13.91889,59.57603,11.5682125,-9.338182,1.3294592,0.34269738
2.19,13.466667,59.124012,10.695228,-9.292517,1.2941251,0.28983116
2.192,13.020222,58.631546,9.856318,-9.255245,1.2427607,0.23135972
2.194,12.572958,58.10723,9.050398,-9.224395,1.1784573,0.16938019
2.196,12.128077,57.552532,8.277627,-9.197992,1.1043901,0.1057508
2.198,11.686662,56.969864,7.5353227,-9.174145,1.0236886,0.041974783
2.2,11.250442,56.361423,6.8207045,-9.151085,0.9393053,-0.0208745
2.202,10.819808,55.730255,6.130993,-9.127245,0.85379887,-0.08223367
2.204,10.3965435,55.078342,5.463171,-9.101282,0.7692685,-0.14202929
2.206,9.982001,54.4071,4.8136396,-9.072087,0.68737507,-0.20051622
2.208,9.577108,53.718037,4.1787586,-9.038698,0.60935855,-0.25825596
2.21,9.182696,53.012074,3.555563,-9.00033,0.5361104,-0.315912
2.212,8.799203,52.290012,2.9414816,-8.956268,0.46822047,-0.3741634
2.214,8.427513,51.552185,2.3339758,-8.905842,0.40616345,-0.4336431
2.216,8.067875,50.7992,1.7303495,-8.848408,0.35034347,-0.494766
2.218,7.7205687,50.031704,1.1278734,-8.7833805,0.3010006,-0.5576639
2.22,7.386057,49.250263,0.52416277,-8.710288,0.2581811,-0.62208676
2.222,7.0653973,48.455154,-0.08300066,-8.628798,0.22177577,-0.6873069
2.224,6.7589097,47.64722,-0.6955061,-8.538725,0.19163358,-0.75230193
2.226,6.4672775,46.827168,-1.3150887,-8.439973,0.16758299,-0.81600237
2.228,6.190967,45.995945,-1.9434099,-8.332701,0.1492058,-0.877249
2.23,5.930112,45.154324,-2.581911,-8.217384,0.13583386,-0.93474364
2.232,5.6853247,44.302933,-3.2313957,-8.09473,0.12669683,-0.9871621
2.234,5.456691,43.442623,-3.8927116,-7.9656453,0.12099218,-1.0330715
2.236,5.2452645,42.573803,-4.5662704,-7.8311996,0.1179502,-1.0710464
2.238,5.0502806,41.697662,-5.2516203,-7.692507,0.11697924,-1.0997949
2.24,4.8722124,40.81526,-5.948344,-7.5506144,0.11779857,-1.1183279
2.242,4.7110186,39.9275,-6.6556296,-7.4063807,0.12046814,-1.1261647
2.244,4.566644,39.0351,-7.3722696,-7.260435,0.12544334,-1.1235285
2.246,4.4389153,38.13902,-8.096919,-7.113146,0.13340086,-1.1114793
2.248,4.327204,37.240482,-8.8277235,-6.964636,0.14508522,-1.0918984
2.25,4.231518,36.340214,-9.562376,-6.814808,0.16109574,-1.0673211
2.252,4.1512127,35.43891,-10.29851,-6.6634703,0.18165976,-1.0407467
2.254,4.0854607,34.537224,-11.033405,-6.5104527,0.20639968,-1.0152986
2.256,4.0333447,33.635677,-11.764025,-6.3556576,0.23425573,-0.9938388
2.258,3.993854,32.73475,-12.487174,-6.1991177,0.26345813,-0.9786298
2.26,3.965703,31.834948,-13.199704,-6.041009,0.29163018,-0.97111297
2.262,3.9474845,30.937088,-13.898283,-5.8816657,0.31595093,-0.97176766
2.264,3.9379191,30.041702,-14.579802,-5.72151,0.3333856,-0.9801347
2.266,3.9358292,29.149504,-15.240968,-5.5609813,0.34098026,-0.99495935
2.268,3.940024,28.261318,-15.87869,-5.4004655,0.33612597,-1.0144529
2.27,3.9491048,27.378098,-16.48977,-5.240204,0.3167385,-1.0365627
2.272,3.9618444,26.501034,-17.071154,-5.080272,0.28140622,-1.0591812
2.274,3.9770288,25.63148,-17.61984,-4.92055,0.22942553,-1.0804548
2.276,3.993668,24.770699,-18.133026,-4.76078,0.16066794,-1.0988734
2.278,4.010747,23.920397,-18.607859,-4.600625,0.07546358,-1.113153
2.28,4.027215,23.08219,-19.041832,-4.439696,-0.025395878,-1.1221483
2.282,4.0423174,22.257809,-19.432747,-4.2775035,-0.14057553,-1.1250154
2.284,4.0551524,21.44933,-19.778576,-4.1135015,-0.26842093,-1.1212863
2.286,4.065324,20.658672,-20.077658,-3.947196,-0.40717432,-1.110714
2.288,4.072298,19.887667,-20.328478,-3.7781472,-0.5550016,-1.0933244
2.29,4.075786,19.138054,-20.530193,-3.6059952,-0.7100135,-1.069363
2.292,4.0755033,18.411644,-20.682163,-3.4304957,-0.87036103,-1.0392694
2.294,4.0713644,17.71007,-20.783916,-3.2515512,-1.0343086,-1.0036216
2.296,4.0631647,17.035088,-20.835262,-3.0692182,-1.200298,-0.96311355
2.298,4.050823,16.388147,-20.836226,-2.8836536,-1.3669432,-0.918528
2.3,4.034093,15.771283,-20.786911,-2.6950965,-1.533003,-0.87068003
2.302,4.013954,15.185795,-20.687866,-2.5038478,-1.6974063,-0.820406
2.304,3.991084,14.631431,-20.540398,-2.310241,-1.8592461,-0.7685222
2.306,3.9657936,14.107714,-20.345695,-2.114594,-2.017748,-0.7157043
2.308,3.9376392,13.615407,-20.104542,-1.9171723,-2.1722414,-0.6624517
2.31,3.9073153,13.1549,-19.818195,-1.7182062,-2.3221576,-0.6090886
2.312,3.8753037,12.725852,-19.487797,-1.5178629,-2.467,-0.5557411
2.314,3.841755,12.32868,-19.114723,-1.3162594,-2.6063287,-0.50236523
2.316,3.8073115,11.96349,-18.700283,-1.113406,-2.7397127,-0.44880465
2.318,3.7731943,11.629678,-18.24602,-0.9092458,-2.866719,-0.39481258
2.32,3.7401838,11.32679,-17.753996,-0.7036727,-2.986963,-0.34013325
2.322,3.709371,11.054005,-17.226357,-0.4965352,-3.100078,-0.2845125
2.324,3.6816134,10.810411,-16.665419,-0.2876476,-3.2056892,-0.22775507
2.326,3.657896,10.594955,-16.0735,-0.07680826,-3.3034017,-0.1698024
2.328,3.6392074,10.406532,-15.453031,0.13620746,-3.3928435,-0.11066771
2.33,3.6265993,10.243729,-14.806576,0.3515879,-3.4736707,-0.050485045
2.332,3.6208806,10.10529,-14.13695,0.5694379,-3.5456116,0.010532647
2.334,3.6230345,9.98967,-13.446866,0.7897872,-3.608483,0.07206322
2.336,3.6341143,9.895378,-12.73926,1.0125729,-3.6621554,0.1337116
2.338,3.6548903,9.821001,-12.0169525,1.2376075,-3.7065756,0.19504184
2.34,3.6862628,9.765058,-11.282856,1.4645896,-3.7417843,0.25560588
2.342,3.728789,9.72616,-10.540108,1.693109,-3.7679212,0.3149987
2.344,3.7830672,9.702883,-9.791495,1.9227185,-3.7852058,0.37289834
2.346,3.8497162,9.693876,-9.039991,2.1529202,-3.7939517,0.4290647
2.348,3.9293478,9.697945,-8.288589,2.3832192,-3.7945285,0.4834478
2.35,4.0219774,9.713941,-7.5399604,2.6131604,-3.7873654,0.5361532
2.352,4.1280274,9.740878,-6.7968283,2.8423176,-3.7729704,0.58739537
2.354,4.2477264,9.778079,-6.061764,3.0703175,-3.7519321,0.63749325
2.356,4.3812113,9.824985,-5.3370695,3.2968526,-3.724904,0.68685544
2.358,4.528499,9.880998,-4.624872,3.521628,-3.6925948,0.7359021
2.36,4.689205,9.945915,-3.9270535,3.7443566,-3.6558,0.78504467
2.362,4.863201,10.019786,-3.2451022,3.9647498,-3.6153648,0.83464706
2.364,5.0502105,10.102662,-2.5803616,4.1824903,-3.5721815,0.8849995
2.366,5.249737,10.194976,-1.933943,4.39721,-3.5271568,0.9362912
2.368,5.4613833,10.297135,-1.3068511,4.608516,-3.4811928,0.98862684
2.37,5.68476,10.409698,-0.6997471,4.81599,-3.4351778,1.042012
2.372,5.9191084,10.533305,-0.11299586,5.0192,-3.3899438,1.0963854
2.374,6.163905,10.66868,0.45329344,5.217716,-3.346264,1.1515976
2.376,6.418329,10.816508,0.99925566,5.4111266,-3.3048396,1.2074405
2.378,6.6814485,10.977627,1.5253325,5.599043,-3.2663093,1.2636766
2.38,6.9527974,11.1526785,2.0321307,5.7811146,-3.2312355,1.3200357
2.382,7.2314296,11.342405,2.520483,5.957014,-3.2000854,1.3762076
2.384,7.516525,11.547489,2.9913583,6.126447,-3.1732996,1.4318553
2.386,7.8072596,11.768579,3.4459324,6.2891684,-3.1512637,1.4866107
2.388,8.10269,12.006235,3.8854446,6.4449368,-3.1343384,1.5401331
2.39,8.40225,12.260877,4.311413,6.593518,-3.122847,1.592105
2.392,8.704919,12.532698,4.7254453,6.734723,-3.1170642,1.6422541
2.394,9.009924,12.821761,5.1291924,6.868345,-3.117228,1.6903884
2.396,9.31659,13.128161,5.5242434,6.9942064,-3.12351,1.7363695
2.398,9.623961,13.451878,5.912147,7.1121416,-3.1360164,1.7801484
2.4,9.9314575,13.792653,6.294571,7.2220316,-3.1547742,1.8217832
2.402,10.238076,14.150016,6.67301,7.3238015,-3.1797292,1.8613262
2.404,10.54328,14.523725,7.048893,7.417432,-3.2107737,1.8989019
2.406,10.846312,14.91306,7.4235926,7.502945,-3.2477446,1.934696
2.408,11.1465225,15.317522,7.7983923,7.5804257,-3.2904282,1.96892
2.41,11.443322,15.7363825,8.1744375,7.6500077,-3.3385391,2.0017664
2.412,11.735846,16.168894,8.552744,7.7119107,-3.3917632,2.0334177
2.414,12.023632,16.614082,8.934192,7.7663956,-3.449729,2.0640078
2.416,12.3058815,17.071083,9.319479,7.813797,-3.5120175,2.0936294
2.418,12.582098,17.538984,9.709136,7.8544993,-3.5781875,2.1223407
2.42,12.851512,18.01674,10.10371,7.8889747,-3.647752,2.1501794
2.422,13.113433,18.503403,10.503314,7.9177337,-3.720162,2.17716
2.424,13.367395,18.997938,10.908215,7.9413342,-3.7948265,2.2033114
2.426,13.612846,19.499376,11.31825,7.960388,-3.8711615,2.228633
2.428,13.849022,20.00675,11.733298,7.975519,-3.9485407,2.2531412
2.43,14.075565,20.518972,12.153162,7.987357,-4.0263596,2.2768705
2.432,14.292107,21.034973,12.57751,7.996525,-4.104012,2.2998638
2.434,14.498238,21.55362,13.006096,8.003609,-4.1809106,2.3221943
2.436,14.6937275,22.07383,13.438573,8.009128,-4.256507,2.3439515
2.438,14.87845,22.594387,13.874498,8.013547,-4.330264,2.365262
2.44,15.052141,23.114094,14.313494,8.017229,-4.401694,2.3862581
2.442,15.214569,23.631674,14.755308,8.020464,-4.4703298,2.4070802
2.444,15.365819,24.145681,15.199496,8.023496,-4.535772,2.4278746
2.446,15.505602,24.654675,15.6460085,8.026442,-4.5976577,2.4487987
2.448,15.633953,25.157196,16.094496,8.029405,-4.655631,2.4700053
2.45,15.751039,25.651493,16.54462,8.032428,-4.709367,2.491676
2.452,15.85692,26.135769,16.99624,8.035499,-4.7585573,2.5139978
2.454,15.951569,26.60836,17.449337,8.038586,-4.802878,2.5371487
2.456,16.034718,27.067322,17.903791,8.041633,-4.8420033,2.5612917
2.458,16.106129,27.510778,18.359446,8.04456,-4.8755784,2.5865517
2.46,16.165915,27.936798,18.816336,8.047308,-4.9032197,2.6129956
2.462,16.213924,28.343266,19.274227,8.049784,-4.924527,2.6406245
2.464,16.249916,28.728252,19.732798,8.051881,-4.9390798,2.669376
2.466,16.273632,29.089653,20.191664,8.053517,-4.9464207,2.69912
2.468,16.2847,29.425804,20.650307,8.054618,-4.9460535,2.7296567
2.47,16.283096,29.734852,21.108084,8.05514,-4.9374733,2.7607055
2.472,16.268333,30.015171,21.564163,8.055068,-4.9201565,2.7919245
2.474,16.24037,30.265158,22.017681,8.054424,-4.8935776,2.8229623
2.476,16.199183,30.483345,22.467491,8.053316,-4.8572693,2.8534446
2.478,16.144651,30.668707,22.912308,8.051871,-4.8107486,2.882997
2.48,16.076778,30.820242,23.35054,8.050321,-4.7535286,2.9113011
2.482,15.995789,30.93734,23.780422,8.048912,-4.6851873,2.938058
2.484,15.901859,31.019741,24.200146,8.047898,-4.6053643,2.963017
2.486,15.7953615,31.067543,24.60748,8.047602,-4.5137496,2.9860287
2.488,15.677056,31.080854,25.000175,8.048341,-4.4100623,3.0070348
2.49,15.547639,31.060204,25.375847,8.050451,-4.2940707,3.0260956
2.492,15.408309,31.006367,25.7319,8.054265,-4.1656127,3.0433679
2.494,15.260245,30.920355,26.065695,8.060047,-4.024614,3.0590858
2.496,15.104715,30.80368,26.374388,8.067981,-3.8711545,3.0735164
2.498,14.943331,30.657923,26.655277,8.078138,-3.7054844,3.086954
2.5,14.777645,30.48519,26.90548,8.090458,-3.52804,3.0996914
2.502,14.609407,30.287693,27.122334,8.104722,-3.339513,3.1119952
2.504,14.440626,30.067448,27.303284,8.120509,-3.14087,3.124079
2.506,14.272827,29.827084,27.446083,8.137214,-2.9333668,3.136068
2.508,14.108178,29.569092,27.548763,8.154,-2.7185686,3.1479523
2.51,13.948128,29.29633,27.609642,8.16989,-2.4983077,3.1595802
2.512,13.79496,29.011375,27.627579,8.183739,-2.274682,3.1706593
2.514,13.649933,28.71669,27.60157,8.194271,-2.0499954,3.1807513
2.516,13.514769,28.414978,27.531298,8.200192,-1.8267133,3.189257
2.518,13.390756,28.108517,27.4169,8.200178,-1.6074,3.1954236
2.52,13.278941,27.79957,27.25898,8.192974,-1.3946209,3.1983628
2.522,13.180521,27.490063,27.058605,8.1774435,-1.1908767,3.1971278
2.524,13.096083,27.181915,26.817429,8.152613,-0.9984772,3.1907275
2.526,13.02619,26.876678,26.537617,8.117746,-0.8195065,3.1781778
2.528,12.970876,26.575796,26.221695,8.0723295,-0.6557416,3.1585135
2.53,12.930187,26.28022,25.872456,8.016098,-0.5085876,3.1308737
2.532,12.90378,25.99097,25.493174,7.949033,-0.37907958,3.0945253
2.534,12.891123,25.70856,25.087362,7.8713417,-0.26786983,3.0489209
2.536,12.891504,25.43329,24.65883,7.7834296,-0.17518842,2.9937334
2.538,12.904209,25.165422,24.211311,7.685873,-0.10090399,2.9288304
2.54,12.928058,24.90507,23.748446,7.5793567,-0.044546247,2.8542519
2.542,12.961571,24.65198,23.27406,7.46464,-0.005398631,2.7702148
2.544,13.003582,24.405994,22.791775,7.342512,0.017474055,2.677137
2.546,13.052523,24.166885,22.305166,7.2137804,0.025133371,2.5755746
2.548,13.106871,23.934437,21.817608,7.079237,0.018744111,2.4662557
2.55,13.165089,23.708372,21.332355,6.939635,-0.0005146265,2.3500128
2.552,13.225967,23.488457,20.85226,6.795655,-0.031492114,2.2277486
2.554,13.287873,23.274544,20.379862,6.6479006,-0.07312322,2.1003983
2.556,13.349649,23.066332,19.9175,6.4968843,-0.124430895,1.9688776
2.558,13.410053,22.863605,19.467258,6.343064,-0.18454182,1.8340571
2.56,13.467711,22.666458,19.031124,6.1868205,-0.2526815,1.6967514
2.562,13.521679,22.474854,18.61052,6.0284777,-0.3281808,1.5577226
2.564,13.571232,22.28877,18.206594,5.868268,-0.4104886,1.4176499
2.566,13.616056,22.108337,17.820463,5.706409,-0.49913192,1.2771074
2.568,13.655539,21.933601,17.45303,5.543103,-0.59372616,1.1365802
2.57,13.689539,21.76458,17.104866,5.378511,-0.69395906,0.99645805
2.572,13.71768,21.601458,16.776566,5.2127967,-0.79954755,0.85706526
2.574,13.740028,21.4441,16.468464,5.0461245,-0.9102881,0.71864957
2.576,13.756648,21.292793,16.18065,4.8786507,-1.0260115,0.5814011
2.578,13.768046,21.147238,15.913194,4.7105427,-1.1466022,0.44542375
2.58,13.774345,21.007404,15.66586,4.541977,-1.2719613,0.31074983
2.582,13.776161,20.87306,15.438419,4.373146,-1.4019852,0.17732887
2.584,13.773819,20.744019,15.230464,4.2042766,-1.5365629,0.045054562
2.586,13.767725,20.619904,15.041481,4.035613,-1.6755614,-0.08623357
2.588,13.758331,20.500097,14.87086,3.8674133,-1.8188071,-0.2167231
2.59,13.746187,20.384344,14.718046,3.6999695,-1.9660394,-0.34661037
2.592,13.731773,20.271809,14.582422,3.533572,-2.1169434,-0.47604853
2.594,13.71551,20.16175,14.463073,3.368502,-2.271175,-0.60517526
2.596,13.697844,20.053408,14.359302,3.2050223,-2.4282978,-0.73410034
2.598,13.679022,19.946096,14.270194,3.043389,-2.5877833,-0.8629471
2.6,13.659166,19.839132,14.194863,2.8838115,-2.749044,-0.99179494
2.602,13.638489,19.731718,14.132487,2.7264605,-2.911468,-1.1207455
2.604,13.617245,19.623144,14.082184,2.5714536,-3.0744228,-1.2499075
2.606,13.595502,19.512537,14.043207,2.418871,-3.2372565,-1.3793564
2.608,13.573566,19.399286,14.014724,2.2687552,-3.3993375,-1.5091515
2.61,13.551397,19.282574,13.995926,2.1211433,-3.5600584,-1.6392927
2.612,13.52932,19.161846,13.986034,1.9760501,-3.7188516,-1.7696706
2.614,13.507162,19.036926,13.984268,1.8334932,-3.8752253,-1.9001012
2.616,13.485175,18.907232,13.989835,1.6935041,-4.028724,-2.030315
2.618,13.463511,18.772322,14.001983,1.5561321,-4.1789465,-2.159965
2.62,13.442286,18.631804,14.020016,1.421445,-4.3255467,-2.2886548
2.622,13.421235,18.485792,14.043201,1.2895037,-4.4682026,-2.415935
2.624,13.4007435,18.334091,14.071014,1.1603829,-4.6066294,-2.5413446
2.626,13.381151,18.176497,14.102872,1.0341642,-4.740596,-2.6644552
2.628,13.3623085,18.013163,14.13842,0.9109203,-4.8698626,-2.7849312
2.63,13.344352,17.844158,14.177113,0.79075575,-4.9941854,-2.9025226
2.632,13.327232,17.669693,14.218637,0.67376,-5.1133556,-3.0170314
2.634,13.311224,17.489817,14.262316,0.5600489,-5.2271743,-3.1283538
2.636,13.296335,17.304928,14.30767,0.44973812,-5.335464,-3.236443
2.638,13.282845,17.115046,14.354279,0.342937,-5.4380693,-3.3413181
2.64,13.270722,16.920595,14.401724,0.2397542,-5.5348673,-3.4430356
2.642,13.260196,16.721785,14.449564,0.14031297,-5.625769,-3.5416827
2.644,13.2510605,16.518847,14.497246,0.044706434,-5.710719,-3.6373436
2.646,13.243495,16.312138,14.544365,-0.04696101,-5.789666,-3.7300894
2.648,13.237288,16.101868,14.590565,-0.13461208,-5.8625717,-3.8199291
2.65,13.232516,15.888264,14.635418,-0.2181856,-5.929436,-3.9068549
2.652,13.229352,15.671799,14.678489,-0.29762584,-5.9902387,-3.9907978
2.654,13.227553,15.452755,14.719248,-0.37288076,-6.044915,-4.0716805
2.656,13.227015,15.231386,14.757185,-0.44395342,-6.0934315,-4.1493864
2.658,13.227746,15.007969,14.791776,-0.51086384,-6.135786,-4.223801
2.66,13.2295885,14.782884,14.822554,-0.5736308,-6.171959,-4.2948046
2.662,13.232286,14.556404,14.848961,-0.63229555,-6.201899,-4.362258
2.664,13.235782,14.329155,14.870583,-0.68691623,-6.2255607,-4.42604
2.666,13.239848,14.101637,14.886846,-0.7375446,-6.2428875,-4.4860454
2.668,13.244261,13.874131,14.897255,-0.78425,-6.25382,-4.5421877
2.67,13.248847,13.647095,14.901367,-0.8271152,-6.258342,-4.5943804
2.672,13.253226,13.421108,14.898883,-0.8662442,-6.25646,-4.6425796
2.674,13.257135,13.1964445,14.889245,-0.9017627,-6.2482033,-4.6867695
2.676,13.260264,12.973574,14.872104,-0.93380684,-6.2336435,-4.7269583
2.678,13.262221,12.752893,14.847056,-0.9625476,-6.212864,-4.763191
2.68,13.26256,12.534946,14.813929,-0.9881892,-6.1859493,-4.7955585
2.682,13.261307,12.319911,14.772348,-1.0109432,-6.153015,-4.8241606
2.684,13.257853,12.108324,14.721986,-1.0310472,-6.1141453,-4.8491206
2.686,13.252126,11.900534,14.662779,-1.0487182,-6.069416,-4.870607
2.688,13.24372,11.696983,14.594466,-1.064153,-6.0189285,-4.8887844
2.69,13.232436,11.498064,14.517004,-1.0775132,-5.962803,-4.9038205
2.692,13.218037,11.304058,14.430403,-1.0889323,-5.901182,-4.915883
2.694,13.200384,11.115181,14.33455,-1.0985227,-5.8342733,-4.9251137
2.696,13.179299,10.931658,14.229701,-1.1064084,-5.76233,-4.9316506
2.698,13.154823,10.753748,14.115952,-1.112709,-5.6856766,-4.935611
2.7,13.126871,10.581449,13.993484,-1.1175708,-5.6046968,-4.937113
2.702,13.09524,10.414943,13.862663,-1.1211704,-5.5198355,-4.936294
2.704,13.060119,10.254398,13.723812,-1.1237123,-5.431595,-4.9332967
2.706,13.0214205,10.099756,13.577431,-1.1254563,-5.340549,-4.928319
2.708,12.979348,9.950932,13.424009,-1.1266791,-5.2473154,-4.9216137
2.71,12.933935,9.807959,13.264061,-1.1276482,-5.1524878,-4.9134355
2.712,12.885376,9.670816,13.098204,-1.1286409,-5.056651,-4.9040723
2.714,12.833744,9.539392,12.927005,-1.1299636,-4.9604044,-4.893863
2.716,12.77926,9.413709,12.751111,-1.1318918,-4.8642673,-4.883101
2.718,12.7220745,9.29354,12.571101,-1.1346512,-4.7686443,-4.8720484
2.72,12.662478,9.179003,12.387777,-1.1384461,-4.6738043,-4.860874
2.722,12.6005745,9.070093,12.201602,-1.1434147,-4.579877,-4.8496213
2.724,12.536753,8.966634,12.013249,-1.1496625,-4.486849,-4.838232
2.726,12.47102,8.868756,11.823363,-1.1572452,-4.3946104,-4.826505
2.728,12.403757,8.776464,11.632583,-1.1661575,-4.3030066,-4.8141546
2.73,12.335107,8.68985,11.441423,-1.1763726,-4.2118473,-4.800869
2.732,12.265404,8.608866,11.250389,-1.1878144,-4.120986,-4.7862906
2.734,12.194675,8.5336,11.060029,-1.2003758,-4.030323,-4.7700953
2.736,12.122851,8.464297,10.870771,-1.2139422,-3.9398258,-4.752065
2.738,12.050501,8.400894,10.682802,-1.2283996,-3.8495517,-4.7320786
2.74,11.977789,8.343271,10.496687,-1.2436537,-3.7596185,-4.710151
2.742,11.904714,8.291468,10.312569,-1.2596173,-3.6701946,-4.6864476
2.744,11.831524,8.245567,10.131039,-1.2762153,-3.5814605,-4.6612396
2.746,11.758272,8.205271,9.952286,-1.2933841,-3.4936223,-4.634871
2.748,11.684982,8.170713,9.77642,-1.3110969,-3.4068675,-4.6077075
2.75,11.61177,8.141738,9.603641,-1.3293087,-3.3213868,-4.580111
2.752,11.538787,8.11816,9.434017,-1.3480119,-3.2373464,-4.5524163
2.754,11.466077,8.099866,9.267641,-1.3672192,-3.1548917,-4.5248895
2.756,11.393646,8.086707,9.104395,-1.3869264,-3.074151,-4.4977255
2.758,11.32141,8.07853,8.944337,-1.4071596,-2.9952312,-4.471036
2.76,11.249673,8.075009,8.78751,-1.4279543,-2.91823,-4.4448338
2.762,11.178351,8.075867,8.633866,-1.4493465,-2.8432336,-4.4190626
2.764,11.107461,8.080885,8.483425,-1.4713743,-2.7703204,-4.393641
2.766,11.037185,8.0898485,8.336152,-1.4941022,-2.6995718,-4.3684325
2.768,10.9672575,8.102503,8.191985,-1.5175867,-2.6310859,-4.3432703
2.77,10.897863,8.118622,8.050809,-1.5418915,-2.564969,-4.3180103
2.772,10.829044,8.137939,7.9127126,-1.5670983,-2.5013459,-4.292522
2.774,10.760882,8.160143,7.777684,-1.5932863,-2.440342,-4.266715
2.776,10.693179,8.185079,7.64576,-1.6205343,-2.382065,-4.240565
2.778,10.626195,8.212592,7.5170426,-1.6489077,-2.3266306,-4.214082
2.78,10.559851,8.242508,7.391485,-1.6784602,-2.2741342,-4.1873546
2.782,10.494292,8.274651,7.268979,-1.7092376,-2.22465,-4.160495
2.784,10.429554,8.308947,7.1496916,-1.7412605,-2.1782415,-4.133623
2.786,10.365656,8.345126,7.0336046,-1.7745415,-2.1349354,-4.106873
2.788,10.302872,8.383131,6.920743,-1.8090713,-2.0947428,-4.0803566
2.79,10.240903,8.422842,6.8110843,-1.8448412,-2.0576522,-4.0541387
2.792,10.179891,8.464167,6.7048244,-1.8818198,-2.0236273,-4.028268
2.794,10.119997,8.506849,6.60215,-1.9199607,-1.9926033,-4.00273
2.796,10.061157,8.550721,6.503076,-1.9592279,-1.9644756,-3.9774864
2.798,10.003445,8.595592,6.4077015,-1.9995661,-1.9391454,-3.9524803
2.8,9.946803,8.641337,6.3161197,-2.0409272,-1.9164709,-3.9276538
2.802,9.891336,8.687828,6.228341,-2.083241,-1.8962874,-3.9029534
2.804,9.837027,8.73503,6.144495,-2.1264372,-1.8784266,-3.8783252
2.806,9.783884,8.782763,6.064675,-2.1704178,-1.8626955,-3.8537545
2.808,9.731874,8.830889,5.989051,-2.2150862,-1.84889,-3.8292365
2.81,9.680963,8.879316,5.917726,-2.2603304,-1.8368039,-3.8048143
2.812,9.631334,8.927965,5.850726,-2.3060346,-1.8262373,-3.7805314
2.814,9.582902,8.976542,5.78819,-2.352061,-1.8169962,-3.7564478
2.816,9.535713,9.025093,5.7301555,-2.3982987,-1.8089225,-3.7326086
2.818,9.489811,9.073534,5.6766477,-2.4446447,-1.8018572,-3.7090464
2.82,9.445101,9.121726,5.6277843,-2.4910016,-1.7956831,-3.6857495
2.822,9.401746,9.169558,5.58356,-2.5372994,-1.7903115,-3.6626973
2.824,9.359795,9.217091,5.544079,-2.583496,-1.7856529,-3.6398268
2.826,9.319215,9.2641735,5.509316,-2.6295702,-1.7816437,-3.6170237
2.828,9.280104,9.310897,5.479379,-2.6755269,-1.7782559,-3.5941544
2.83,9.242348,9.357138,5.45424,-2.7213886,-1.7754716,-3.5710688
2.832,9.206124,9.402819,5.4339447,-2.767204,-1.773285,-3.5476155
2.834,9.171325,9.4478855,5.4184895,-2.8130243,-1.7717056,-3.5236554
2.836,9.138156,9.492354,5.407777,-2.858914,-1.7707431,-3.4990883
2.838,9.106494,9.536219,5.4017177,-2.9049318,-1.7704082,-3.4738657
2.84,9.076551,9.579362,5.400269,-2.9511287,-1.7707143,-3.4479854
2.842,9.048229,9.621854,5.4033794,-2.99755,-1.7716551,-3.421486
2.844,9.021497,9.663776,5.410972,-3.0442188,-1.7732081,-3.394436
2.846,8.996414,9.705121,5.423004,-3.0911381,-1.7753115,-3.3669193
2.848,8.972745,9.746075,5.4391503,-3.1382854,-1.7778764,-3.339028
2.85,8.9506445,9.786759,5.4592257,-3.1855986,-1.7807643,-3.3108156
2.852,8.930131,9.827332,5.483001,-3.2329884,-1.7837902,-3.2823088
2.854,8.910977,9.867798,5.5101223,-3.2803078,-1.7867423,-3.2534893
2.856,8.893258,9.908457,5.540318,-3.3273754,-1.7893642,-3.224276
2.858,8.876899,9.949355,5.5733967,-3.3739705,-1.7913691,-3.194542
2.86,8.861799,9.990729,5.6089687,-3.4198415,-1.7924529,-3.1641045
2.862,8.847777,10.032764,5.646766,-3.4646747,-1.7923391,-3.1327722
2.864,8.834828,10.07559,5.686508,-3.508165,-1.790758,-3.1003208
2.866,8.822852,10.119274,5.727951,-3.5499904,-1.7874756,-3.0665438
2.868,8.811774,10.163898,5.7709126,-3.5898433,-1.7822994,-3.0312552
2.87,8.801309,10.209649,5.8150735,-3.6274192,-1.7750819,-2.9943223
2.872,8.791409,10.256627,5.860267,-3.6624742,-1.7657667,-2.955685
2.874,8.781955,10.304812,5.9063063,-3.6948118,-1.7543255,-2.9153593
2.876,8.772751,10.354291,5.953062,-3.7243137,-1.7407732,-2.8734312
2.878,8.763802,10.405074,6.000389,-3.7509284,-1.7251515,-2.8300629
2.88,8.754856,10.457159,6.0482693,-3.7746828,-1.7075053,-2.7854388
2.882,8.745917,10.510538,6.096444,-3.7956755,-1.6878786,-2.7397618
2.884,8.736764,10.565082,6.1447663,-3.8140543,-1.6663134,-2.6931877
2.886,8.727386,10.620834,6.193144,-3.8300235,-1.6428294,-2.6458516
2.888,8.717585,10.677746,6.241398,-3.8438272,-1.61743,-2.597804
2.89,8.707332,10.735627,6.289509,-3.8557084,-1.5900992,-2.5490232
2.892,8.696554,10.794442,6.3372803,-3.8659306,-1.5608218,-2.4994173
2.894,8.685248,10.854175,6.3845887,-3.8747628,-1.5295756,-2.4488823
2.896,8.673401,10.914721,6.431139,-3.882454,-1.4963529,-2.3972864
2.898,8.661034,10.976013,6.476546,-3.889224,-1.4611588,-2.3445253
2.9,8.648285,11.038046,6.5204363,-3.895259,-1.4240235,-2.2905328
2.902,8.6350765,11.100781,6.562217,-3.900704,-1.385004,-2.2352967
2.904,8.621648,11.1643095,6.601294,-3.9056401,-1.3441646,-2.1788645
2.906,8.607962,11.228501,6.6368933,-3.9100695,-1.3015823,-2.121336
2.908,8.594147,11.2934475,6.6682997,-3.9139628,-1.2573315,-2.0628474
2.91,8.580414,11.359013,6.6945705,-3.9172227,-1.211468,-2.0035486
2.912,8.566567,11.425177,6.714795,-3.9197059,-1.1640286,-1.9435978
2.914,8.552738,11.491829,6.727903,-3.9212394,-1.1150045,-1.8831409
2.916,8.539085,11.558865,6.732643,-3.921627,-1.0643289,-1.8222992
2.918,8.525442,11.626155,6.7277794,-3.9206595,-1.0118916,-1.761178
2.92,8.511894,11.693428,6.7119484,-3.9181385,-0.9575706,-1.6998625
2.922,8.498195,11.760513,6.6838474,-3.9138837,-0.9011906,-1.6383994
2.924,8.484453,11.827134,6.642052,-3.9077315,-0.84257376,-1.5768387
2.926,8.470392,11.892882,6.5851502,-3.8995337,-0.781543,-1.515195
2.928,8.455881,11.957355,6.5117226,-3.8891716,-0.71794677,-1.453502
2.93,8.441059,12.020162,6.420438,-3.8765473,-0.6516849,-1.3918016
2.932,8.425317,12.080788,6.3101187,-3.861559,-0.582713,-1.3301483
2.934,8.408575,12.138653,6.1795783,-3.8441448,-0.51104766,-1.268622
2.936,8.390707,12.193288,6.0277753,-3.8242588,-0.43675542,-1.207309
2.938,8.371289,12.244066,5.8539047,-3.8018727,-0.35998994,-1.1462935
2.94,8.35043,12.290277,5.657181,-3.776959,-0.2809673,-1.0856539
2.942,8.328052,12.33091,5.437669,-3.7495227,-0.19996738,-1.025464
2.944,8.302389,12.365528,5.1956263,-3.719592,-0.11732876,-0.9658215
2.946,8.273273,12.392918,4.9311504,-3.6872027,-0.033429146,-0.90682817
2.948,8.240238,12.412412,4.6445866,-3.6524072,0.051320493,-0.8485931
2.95,8.203135,12.423598,4.3363748,-3.6152914,0.1364817,-0.79126513
2.952,8.1621,12.425644,4.007589,-3.575955,0.22160494,-0.7350297
2.954,8.116574,12.417966,3.6600146,-3.5345225,0.3062495,-0.6801001
2.956,8.065864,12.399909,3.2954433,-3.4911091,0.3899749,-0.6267173
2.958,8.009387,12.370981,2.9161308,-3.4458325,0.47235602,-0.5751363
2.96,7.946601,12.3307905,2.5243754,-3.3988047,0.5529932,-0.52559245
2.962,7.87704,12.278966,2.122762,-3.3500865,0.63149834,-0.47830808
2.964,7.8001175,12.21544,1.7143046,-3.2997272,0.7075005,-0.43347275
2.966,7.715312,12.139903,1.3020616,-3.2477324,0.7806229,-0.39123535
2.968,7.6221743,12.052576,0.8891686,-3.1941297,0.8504715,-0.35176623
2.97,7.5203476,11.953718,0.47879088,-3.1389523,0.91659915,-0.31523013
2.972,7.4093494,11.843948,0.07419908,-3.0822706,0.97846556,-0.28174973
2.974,7.288893,11.724041,-0.3213371,-3.0241504,1.0357924,-0.25144863
2.976,7.1587696,11.595056,-0.70468307,-2.964542,1.0885046,-0.2242539
2.978,7.019083,11.458205,-1.0729265,-2.9034343,1.1364512,-0.19995677
2.98,6.8698096,11.314914,-1.423039,-2.8408778,1.1794589,-0.17837608
2.982,6.7113414,11.166754,-1.752557,-2.7769756,1.2174226,-0.15927732
2.984,6.5442276,11.015618,-2.0589192,-2.711813,1.2504616,-0.14226842
2.986,6.3689837,10.863238,-2.3402123,-2.6454277,1.2790065,-0.12669599
2.988,6.1865034,10.711686,-2.5946677,-2.5777586,1.3037709,-0.11164141
2.99,5.9979615,10.562934,-2.8210158,-2.5086303,1.3256695,-0.09591949
2.992,5.8044295,10.419174,-3.0182042,-2.4377222,1.3457818,-0.07811999
2.994,5.6075764,10.282383,-3.1855319,-2.3645365,1.3652725,-0.056686282
2.996,5.4088426,10.15457,-3.3228233,-2.2884188,1.385264,-0.030039191
2.998,5.20999,10.037776,-3.4300642,-2.2086008,1.4067081,0.0033113956
3,5.0128026,9.9338455,-3.5076795,-2.1242955,1.430279,0.04457879
3.002,4.8192644,9.844608,-3.5568242,-2.0347705,1.4562953,0.0945999
3.004,4.631568,9.771591,-3.5787957,-1.939423,1.4847133,0.1537745
3.006,4.4514494,9.716274,-3.5748024,-1.8378582,1.5151743,0.22205818
3.008,4.280761,9.679575,-3.5460057,-1.7298869,1.5470915,0.2990467
3.01,4.1212974,9.66211,-3.494163,-1.6155314,1.5797305,0.38408536
3.012,3.9746711,9.664251,-3.4209838,-1.4950037,1.6122962,0.476396
3.014,3.8424573,9.6859455,-3.3283186,-1.3686525,1.643996,0.5752137
3.016,3.7261379,9.727026,-3.2178743,-1.2369418,1.6740483,0.6798581
3.018,3.6268735,9.786942,-3.0914268,-1.1003971,1.7016306,0.78977543
3.02,3.5453534,9.864931,-2.9504414,-0.9596157,1.72589,0.90453243
3.022,3.4822383,9.959792,-2.7965534,-0.8152024,1.7458591,1.0237811
3.024,3.437892,10.070012,-2.6311312,-0.66784984,1.7604554,1.1471373
3.026,3.412342,10.193972,-2.4554195,-0.5183142,1.768476,1.2740779
3.028,3.4058824,10.32994,-2.2704802,-0.36746526,1.7684119,1.4039447
3.03,3.417934,10.475996,-2.0771189,-0.21629941,1.7587585,1.5358427
3.032,3.448185,10.630054,-1.876046,-0.065736115,1.7383755,1.6688695
3.034,3.4954667,10.790141,-1.6676788,0.083393216,1.7062908,1.8022026
3.036,3.5590527,10.95415,-1.4523938,0.2303468,1.6617055,1.9350806
3.038,3.6377392,11.120027,-1.2303531,0.3744704,1.6040518,2.0667644
3.04,3.7299356,11.285781,-1.0016646,0.51524234,1.5330672,2.19661
3.042,3.8345432,11.449649,-0.7662931,0.6523168,1.4488816,2.324111
3.044,3.9499283,11.609921,-0.5241931,0.7855329,1.3520077,2.448931
3.046,4.0746546,11.765007,-0.27517214,0.914884,1.2432652,2.5708208
3.048,4.2071757,11.91351,-0.019257933,1.0405031,1.1237367,2.6895406
3.05,4.345883,12.054531,0.24373063,1.1626306,0.9947167,2.804828
3.052,4.4892316,12.187394,0.5136087,1.2815975,0.85768116,2.9163594
3.054,4.637042,12.311241,0.7899843,1.3978084,0.71420765,3.023729
3.056,4.7870574,12.426194,1.073068,1.511665,0.5659212,3.1264536
3.058,4.937916,12.532047,1.362726,1.6235639,0.4144377,3.224003
3.06,5.0879545,12.628356,1.6588693,1.7338862,0.26137376,3.3158875
3.062,5.2357264,12.7156515,1.9605926,1.8429735,0.10834439,3.401752
3.064,5.380802,12.794497,2.2666297,1.951139,-0.043057118,3.4814892
3.066,5.522351,12.865934,2.5759547,2.0586646,-0.19128385,3.555283
3.068,5.6597114,12.931199,2.8876019,2.1658225,-0.33486065,3.6236808
3.07,5.7920837,12.991759,3.2003796,2.2728574,-0.47240072,3.6876009
3.072,5.9188876,13.049146,3.5131457,2.380012,-0.6026431,3.7482615
3.074,6.039824,13.104926,3.8245223,2.487484,-0.72453296,3.8070881
3.076,6.1545215,13.161087,4.1331487,2.5954058,-0.83725435,3.8655856
3.078,6.262932,13.219372,4.4377594,2.703859,-0.9402709,3.9252024
3.08,6.3650565,13.281626,4.7372127,2.8128164,-1.0333513,3.987198
3.082,6.4608884,13.349635,5.0300236,2.9220762,-1.1166285,4.052561
3.084,6.5504174,13.425232,5.31498,3.0312755,-1.1906031,4.12191
3.086,6.633588,13.51012,5.591008,3.1399267,-1.2560797,4.1954246
3.088,6.7106256,13.605888,5.8571277,3.2474682,-1.3140161,4.2729316
3.09,6.7819004,13.713925,6.1123195,3.3532782,-1.3654877,4.3539634
3.092,6.8476396,13.835514,6.3558087,3.4566994,-1.4116831,4.4378448
3.094,6.908246,13.971567,6.586673,3.5570319,-1.4538354,4.5237217
3.096,6.9644413,14.1229725,6.804318,3.6535866,-1.4931438,4.610662
3.098,7.016644,14.290211,7.0080824,3.7457032,-1.5306796,4.6976447
3.1,7.0653896,14.47356,7.197463,3.8327422,-1.5673993,4.7836647
3.102,7.111294,14.673064,7.3720217,3.9140985,-1.6041534,4.8677735
3.104,7.155142,14.888294,7.53121,3.9892063,-1.6416111,4.94907
3.106,7.197814,15.118724,7.6747546,4.057533,-1.6803154,5.0267596
3.108,7.2400036,15.363348,7.8022738,4.1186,-1.7206177,5.100186
3.11,7.2826405,15.621029,7.913473,4.172007,-1.7627108,5.1688504
3.112,7.3266263,15.890314,8.008608,4.2174296,-1.8066455,5.2324457
3.114,7.372648,16.169592,8.0876255,4.254636,-1.8523893,5.2908196
3.116,7.421932,16.457302,8.150421,4.283499,-1.8998868,5.3439355
3.118,7.4754643,16.751804,8.196802,4.3039885,-1.9490511,5.391835
3.12,7.534485,17.051361,8.227133,4.316192,-1.999819,5.4346437
3.122,7.599939,17.354221,8.241764,4.320294,-2.0521452,5.472503
3.124,7.672677,17.658638,8.241291,4.3165784,-2.1060119,5.5055947
3.126,7.753782,17.962627,8.226273,4.3053837,-2.1614232,5.534108
3.128,7.844129,18.264385,8.197435,4.287113,-2.2184124,5.5582848
3.13,7.9448295,18.5622,8.155695,4.262225,-2.2769842,5.5784144
3.132,8.056791,18.854496,8.102131,4.2312055,-2.3370967,5.594822
3.134,8.180529,19.139938,8.037929,4.1945686,-2.3986492,5.607888
3.136,8.3167515,19.417107,7.9645624,4.152894,-2.4614437,5.6180415
3.138,8.465567,19.684736,7.8834343,4.106762,-2.5251677,5.6257424
3.14,8.627461,19.942013,7.7960463,4.056743,-2.589449,5.631542
3.142,8.802563,20.188099,7.703962,4.0033894,-2.6538765,5.6360097
3.144,8.991075,20.422287,7.6088142,3.9472637,-2.7180033,5.6396947
3.146,9.19272,20.644135,7.5121613,3.8889635,-2.7813182,5.643156
3.148,9.407116,20.853462,7.415699,3.8291185,-2.8432431,5.64697
3.15,9.634174,21.05009,7.320764,3.7683477,-2.9031444,5.6517587
3.152,9.872955,21.234196,7.2287474,3.7072725,-2.9603972,5.658179
3.154,10.122811,21.40602,7.14106,3.6464953,-3.0143843,5.6668854
3.156,10.382652,21.565964,7.0586405,3.5865946,-3.0645165,5.6784697
3.158,10.651731,21.714535,6.9825325,3.5280967,-3.1102717,5.693455
3.16,10.928751,21.852356,6.9135013,3.4714625,-3.1511474,5.712263
3.162,11.212542,21.980232,6.8519983,3.4170995,-3.186727,5.735195
3.164,11.502045,22.098862,6.7984924,3.3652792,-3.216658,5.762431
3.166,11.79615,22.209019,6.7530627,3.3161619,-3.240695,5.7940097
3.168,12.093305,22.311752,6.7158346,3.269751,-3.2587094,5.829828
3.17,12.392341,22.408207,6.686381,3.2258987,-3.2706714,5.8696914
3.172,12.691839,22.499363,6.6646085,3.1843107,-3.2766829,5.9132934
3.174,12.990466,22.58611,6.650063,3.1445456,-3.2769814,5.960247
3.176,13.287155,22.669346,6.6422825,3.1060343,-3.2719498,6.010114
3.178,13.580771,22.749804,6.640581,3.0681257,-3.2621157,6.0624313
3.18,13.870255,22.828331,6.6442237,3.030117,-3.2480898,6.1167207
3.182,14.154459,22.90583,6.6525216,2.991294,-3.2305856,6.1725082
3.184,14.432166,22.98322,6.664695,2.9509501,-3.2103994,6.2293243
3.186,14.702658,23.061123,6.6801033,2.9084399,-3.1884022,6.2867227
3.188,14.964735,23.1401,6.698148,2.8632088,-3.1654801,6.344254
3.19,15.217428,23.220802,6.718361,2.8147979,-3.1425529,6.4014983
3.192,15.4601555,23.30379,6.7404494,2.762897,-3.1205294,6.4580526
3.194,15.69228,23.389406,6.7640862,2.7073257,-3.100295,6.5135217
3.196,15.913059,23.478195,6.7890725,2.648027,-3.0827024,6.567583
3.198,16.121748,23.570564,6.8153305,2.5850496,-3.0685408,6.61995
3.2,16.317669,23.666924,6.842995,2.5185266,-3.0585432,6.670403
3.202,16.50019,23.767635,6.872113,2.448663,-3.0533774,6.7187977
3.204,16.668875,23.872976,6.9030576,2.3756886,-3.0536425,6.765077
3.206,16.822926,23.983213,6.9362392,2.2998376,-3.0598807,6.809218
3.208,16.961802,24.098566,6.972109,2.2213519,-3.0725496,6.851244
3.21,17.085054,24.21912,7.0112233,2.1404383,-3.0920243,6.8911967
3.212,17.192097,24.344795,7.0541806,2.0572906,-3.118598,6.9291053
3.214,17.282246,24.475664,7.101704,1.9720777,-3.1524694,6.9649725
3.216,17.35494,24.61131,7.15447,1.8849599,-3.193693,6.9987926
3.218,17.409618,24.751585,7.2133517,1.7961112,-3.242208,7.03051
3.22,17.445618,24.896122,7.279124,1.7057272,-3.2978048,7.0600133
3.222,17.46221,25.044247,7.352623,1.6140465,-3.3601143,7.087175
3.224,17.458803,25.195478,7.43462,1.5213705,-3.428632,7.111842
3.226,17.434874,25.348772,7.5258713,1.4280561,-3.502674,7.1338587
3.228,17.389936,25.503195,7.6271696,1.334536,-3.5814066,7.153084
3.23,17.323334,25.65755,7.739114,1.2413124,-3.6638393,7.1694427
3.232,17.234577,25.81056,7.862338,1.1489366,-3.7488475,7.1828856
3.234,17.123549,25.960754,7.997239,1.0580211,-3.8351932,7.1935015
3.236,16.989851,26.10665,8.144264,0.96921575,-3.9215086,7.201447
3.238,16.843052,26.249357,8.295776,0.8832136,-4.0063543,7.2070003
3.24,16.67629,26.386282,8.457588,0.8007104,-4.0882277,7.2105384
3.242,16.490307,26.516249,8.62943,0.7224062,-4.165571,7.2125454
3.244,16.286154,26.638102,8.810779,0.6489792,-4.236793,7.213589
3.246,16.064846,26.7509,9.000795,0.5810634,-4.30033,7.214293
3.248,15.827911,26.853737,9.198693,0.519243,-4.3546433,7.215322
3.25,15.576952,26.945784,9.403411,0.46404415,-4.398247,7.217351
3.252,15.313663,27.026546,9.613829,0.41592452,-4.4297347,7.221071
3.254,15.039937,27.095768,9.828693,0.37526786,-4.447755,7.2270975
3.256,14.757864,27.153275,10.046749,0.34237438,-4.451086,7.235982
3.258,14.469538,27.199108,10.266663,0.31747934,-4.4386024,7.2481904
3.26,14.176857,27.233532,10.487184,0.30074298,-4.4092865,7.264095
3.262,13.882026,27.25685,10.707032,0.29226267,-4.3622494,7.283952
3.264,13.586955,27.269642,10.924976,0.29207975,-4.296734,7.3078856
3.266,13.293558,27.272545,11.140025,0.2981006,-4.219603,7.3343105
3.268,13.003338,27.26637,11.351207,0.3108239,-4.1280327,7.3637486
3.27,12.717942,27.251833,11.557574,0.32950997,-4.0238414,7.3956013
3.272,12.438658,27.229752,11.758377,0.3532705,-3.9093738,7.4291224
3.274,12.166586,27.201006,11.9530735,0.3810876,-3.7874036,7.463512
3.276,11.902765,27.16644,12.141211,0.4118762,-3.6609058,7.49795
3.278,11.647942,27.126722,12.322365,0.44455826,-3.5328407,7.5316563
3.28,11.402595,27.082743,12.496536,0.47813204,-3.4059434,7.564009
3.282,11.167162,27.035154,12.663435,0.5117137,-3.282538,7.5945053
3.284,10.94171,26.984686,12.82313,0.5445858,-3.1644294,7.6228127
3.286,10.726387,26.931854,12.97546,0.57622683,-3.052879,7.6487637
3.288,10.52112,26.87727,13.120661,0.60627145,-2.9486217,7.6723228
