Time_s_,Acc_x_m_s_2_,Acc_y_m_s_2_,Acc_z_m_s_2_,Gyro_x_1_s_,Gyro_y_1_s_,Gyro_z_1_s_
0,0.2115873,0.21181324,0.4340701,-0.0788672,0.8642244,-0.75071484
0.002,0.20344922,0.21287873,0.43829906,-0.075270236,0.8639037,-0.75481457
0.004,0.19476725,0.21465585,0.4426846,-0.07116616,0.86365813,-0.75921535
0.006,0.1853717,0.21701065,0.44730985,-0.06649715,0.86353034,-0.76390624
0.008,0.1753233,0.2199584,0.4522817,-0.06120348,0.86354846,-0.76886594
0.01,0.16449048,0.22361282,0.4576538,-0.055237114,0.8637512,-0.77405536
0.012,0.15293665,0.22787935,0.46342894,-0.048563242,0.8641632,-0.7794217
0.014,0.14084297,0.23290367,0.46968734,-0.041182637,0.864782,-0.7849152
0.016,0.12811716,0.23864016,0.47667006,-0.033112884,0.8655841,-0.7904779
0.018,0.11472596,0.2450808,0.48453814,-0.024400651,0.8664999,-0.79607004
0.02,0.10085584,0.25220516,0.49318403,-0.0151283145,0.86742145,-0.8016757
0.022,0.086541735,0.26001504,0.502921,-0.0054033995,0.8681951,-0.807275
0.024,0.07184094,0.26848185,0.5136901,0.004666686,0.86862767,-0.81286
0.026,0.056976624,0.27745423,0.5256821,0.014968276,0.8685342,-0.81844616
0.028,0.04221271,0.2867117,0.5387745,0.025605023,0.8677678,-0.8242692
0.03,0.027822807,0.29618776,0.5529113,0.03623855,0.8661983,-0.83006763
0.032,0.013953482,0.30570078,0.5679537,0.046866834,0.86380863,-0.83586943
0.034,0.0008489769,0.31510195,0.5838112,0.057536423,0.86072147,-0.84170127
0.036,-0.011140259,0.3242127,0.6003062,0.068344414,0.8571539,-0.84755886
0.038,-0.021622546,0.33291936,0.6172586,0.07941273,0.8534772,-0.8534158
0.04,-0.030440552,0.34089026,0.63441086,0.09091389,0.85018075,-0.8592236
0.042,-0.03719099,0.34804642,0.65152717,0.103051454,0.8478278,-0.86493504
0.044,-0.041489437,0.3540103,0.66830575,0.11604202,0.8469916,-0.8705059
0.046,-0.043002665,0.35863703,0.6842924,0.13008356,0.84818816,-0.8759153
0.048,-0.041440338,0.3617946,0.6990919,0.14535514,0.85182416,-0.8811295
0.05,-0.036468845,0.3633561,0.7121753,0.16199774,0.8581394,-0.88615155
0.052,-0.027747763,0.36322156,0.7231227,0.18009496,0.8671848,-0.891002
0.054,-0.01514806,0.36127228,0.73140955,0.19966567,0.8788423,-0.89569366
0.056,0.0011538728,0.3575429,0.7368635,0.22067672,0.89283097,-0.9002551
0.058,0.02163035,0.3520628,0.7388607,0.24304792,0.90874803,-0.9047042
0.06,0.0462754,0.34490982,0.73699874,0.26666126,0.92612857,-0.9090394
0.062,0.0745787,0.33628628,0.7309546,0.29136583,0.9444976,-0.91324955
0.064,0.10644938,0.32633314,0.72045505,0.3170148,0.96342707,-0.9173323
0.066,0.14165778,0.31530762,0.70536286,0.34346986,0.98258144,-0.9212867
0.068,0.17975427,0.3035639,0.68556327,0.3706242,1.0017396,-0.92511666
0.07,0.22017652,0.29128405,0.6610924,0.39838192,1.020774,-0.9288274
0.072,0.26235405,0.2789173,0.63231176,0.4266749,1.0396475,-0.932425
0.074,0.3057433,0.2668643,0.5993056,0.45546177,1.0583984,-0.9358876
0.076,0.34967223,0.25533056,0.5625212,0.4847185,1.0770802,-0.9392113
0.078,0.39363405,0.24483714,0.5223293,0.51442254,1.0957559,-0.942342
0.08,0.43686372,0.23571303,0.479124,0.54456997,1.1144788,-0.9451838
0.082,0.47863343,0.2284165,0.43354094,0.57516533,1.1332259,-0.94759345
0.084,0.5182758,0.22326438,0.38624355,0.606174,1.1519825,-0.9494418
0.086,0.5550206,0.22072145,0.3378995,0.6375803,1.1706882,-0.9505688
0.088,0.5883522,0.22086215,0.28918338,0.6693574,1.1892543,-0.95079017
0.09,0.61782324,0.22394256,0.2406983,0.7014658,1.2075992,-0.94995654
0.092,0.6428226,0.23018247,0.1930416,0.7338645,1.2256517,-0.9479362
0.094,0.6632279,0.23957369,0.147297,0.7665031,1.2433339,-0.9446431
0.096,0.6789446,0.2518153,0.1038453,0.799324,1.2605802,-0.9400421
0.098,0.69005215,0.2669428,0.06231785,0.83227587,1.277336,-0.9341371
0.1,0.6967311,0.28483593,0.023175642,0.8653185,1.293539,-0.9269906
0.102,0.69872415,0.3052913,-0.011481985,0.8984186,1.3091165,-0.9187362
0.104,0.69598186,0.3277458,-0.03950222,0.93153703,1.323972,-0.9095446
0.106,0.6892059,0.35131204,-0.06279895,0.9646447,1.3379776,-0.8995964
0.108,0.6794448,0.3762461,-0.08523813,0.99770975,1.3509306,-0.88912034
0.11,0.6664485,0.40241003,-0.1054609,1.0306733,1.3625864,-0.8783324
0.112,0.6493523,0.42965987,-0.12105343,1.0634668,1.3726577,-0.86744535
0.114,0.6298597,0.45772746,-0.13222684,1.0960096,1.3807871,-0.85666585
0.116,0.60944426,0.48598588,-0.1392957,1.1281958,1.3865695,-0.8461723
0.118,0.5882175,0.51381063,-0.14274864,1.1598932,1.3895551,-0.8361082
0.12,0.5670102,0.5406799,-0.14412603,1.1909492,1.3892283,-0.8265983
0.122,0.54701805,0.56611407,-0.14424339,1.2211777,1.3849934,-0.8177628
0.124,0.5283416,0.5900061,-0.14270487,1.2503747,1.3762466,-0.8097419
0.126,0.5113436,0.6126059,-0.13974518,1.2783891,1.3625789,-0.8026226
0.128,0.4972254,0.6335548,-0.13609645,1.3050866,1.3436054,-0.796524
0.13,0.48697034,0.65231514,-0.13198389,1.3302653,1.3188182,-0.79158944
0.132,0.4810405,0.66858715,-0.12791519,1.3536448,1.2876115,-0.7880449
0.134,0.48035398,0.68200696,-0.12457061,1.3750408,1.2497802,-0.7860382
0.136,0.48544234,0.6926203,-0.12317389,1.3946011,1.2060949,-0.7855474
0.138,0.49668995,0.70069957,-0.12405513,1.4124317,1.1569512,-0.78663886
0.14,0.5138722,0.70652395,-0.12722555,1.4284623,1.1022297,-0.7895135
0.142,0.537281,0.7102556,-0.13259429,1.4428401,1.0424528,-0.7942035
0.144,0.56706256,0.7121827,-0.14032722,1.4558651,0.97863394,-0.8006586
0.146,0.6030625,0.7125078,-0.15045232,1.467799,0.91170794,-0.8088534
0.148,0.6449196,0.7113941,-0.16272476,1.4790123,0.842803,-0.8186828
0.15,0.692324,0.70930165,-0.17685582,1.4900017,0.7732236,-0.8299151
0.152,0.7448165,0.7064282,-0.19272748,1.5012019,0.7040005,-0.8422806
0.154,0.80167925,0.7033044,-0.20955522,1.512997,0.6360142,-0.85552377
0.156,0.86242914,0.69979995,-0.22591546,1.5257437,0.5701448,-0.8694244
0.158,0.92704505,0.6957998,-0.24174353,1.5396881,0.5070754,-0.88383865
0.16,0.9949928,0.6915082,-0.25690126,1.5548824,0.44718373,-0.8987092
0.162,1.0649534,0.68704844,-0.27021804,1.5712368,0.39068633,-0.9139745
0.164,1.1367935,0.6822289,-0.27895817,1.5885799,0.33774173,-0.92956287
0.166,1.210043,0.67629516,-0.2813537,1.6066358,0.288406,-0.94539416
0.168,1.2846892,0.66884977,-0.2782509,1.625068,0.24262023,-0.96142244
0.17,1.3604869,0.65983236,-0.27044144,1.6435623,0.20039904,-0.97755635
0.172,1.4363356,0.6491282,-0.25726545,1.6618779,0.16187239,-0.9936566
0.174,1.5114503,0.6367459,-0.23781219,1.679889,0.12730372,-1.0095087
0.176,1.5855283,0.62255186,-0.21064252,1.6975894,0.097023666,-1.0248133
0.178,1.6587104,0.6057192,-0.1735841,1.7150812,0.071329,-1.0392463
0.18,1.7296827,0.5860533,-0.12726054,1.7325454,0.0504601,-1.0524826
0.182,1.7972438,0.5639766,-0.0756951,1.7502708,0.034703612,-1.0641758
0.184,1.8645896,0.5384359,-0.019917369,1.7686017,0.024357319,-1.0740445
0.186,1.9307977,0.50967735,0.044017732,1.7879126,0.01970613,-1.0818455
0.188,1.992833,0.47862178,0.11879033,1.8084701,0.020671964,-1.0874975
0.19,2.0517223,0.44514042,0.20352316,1.8302404,0.026520252,-1.0911801
0.192,2.1088836,0.40799505,0.29630083,1.8532931,0.037076473,-1.0930555
0.194,2.1644287,0.36681163,0.39545012,1.8776827,0.052316427,-1.09332
0.196,2.2189329,0.32142115,0.50095814,1.9032059,0.07161665,-1.092322
0.198,2.2722685,0.2718243,0.61383283,1.9296074,0.09434116,-1.0903637
0.2,2.3243225,0.21815902,0.73471034,1.9565977,0.1198498,-1.0877185
0.202,2.3755765,0.16046607,0.86312383,1.9837728,0.14736736,-1.08464
0.204,2.4262092,0.09870988,0.997519,2.0107284,0.17628574,-1.0812666
0.206,2.476636,0.033105433,1.1365204,2.037147,0.20629704,-1.0776162
0.208,2.5279114,-0.03671205,1.2799464,2.0627563,0.23728812,-1.0735488
0.21,2.580585,-0.1106047,1.4264619,2.0874817,0.26957488,-1.0687503
0.212,2.635567,-0.18825573,1.5734091,2.1115563,0.30401564,-1.0627289
0.214,2.6935935,-0.2692034,1.718657,2.1352987,0.34125197,-1.0549753
0.216,2.754976,-0.35301176,1.8636832,2.158949,0.38142037,-1.0451596
0.218,2.819763,-0.43989623,2.0097241,2.1829882,0.4253,-1.0330396
0.22,2.8893604,-0.52948713,2.152496,2.2080317,0.47407866,-1.0184221
0.222,2.96527,-0.62123144,2.2878022,2.2346277,0.52867854,-1.001029
0.224,3.0465553,-0.71460754,2.414636,2.263337,0.5896338,-0.9806319
0.226,3.133184,-0.8086111,2.5317745,2.294617,0.65691066,-0.9571479
0.228,3.2264922,-0.9024998,2.638127,2.3287766,0.73016953,-0.93060386
0.23,3.3266568,-0.9957749,2.7335293,2.3659537,0.80890614,-0.90116864
0.232,3.4334435,-1.087747,2.8169746,2.4060636,0.8924495,-0.86910284
0.234,3.5475893,-1.1784108,2.886425,2.4488053,0.9798645,-0.8347492
0.236,3.6695125,-1.2675862,2.9411073,2.4937205,1.0701135,-0.7984555
0.238,3.7984664,-1.3545702,2.9808764,2.5402799,1.1621314,-0.7605083
0.24,3.9340332,-1.4386222,3.0053537,2.587903,1.2548177,-0.7211829
0.242,4.0763063,-1.5193717,3.0142117,2.636024,1.3472277,-0.68075377
0.244,4.224548,-1.5964322,3.0078588,2.6842456,1.4388354,-0.6393759
0.246,4.3783436,-1.6697726,2.9869852,2.7323313,1.5294057,-0.59710264
0.248,4.5370936,-1.7394271,2.9518135,2.7802205,1.6188178,-0.5539479
0.25,4.700437,-1.8054366,2.902338,2.8278737,1.7067981,-0.5099921
0.252,4.86735,-1.8675262,2.8389509,2.8753333,1.793134,-0.46528375
0.254,5.036618,-1.9256258,2.7624495,2.9228249,1.878008,-0.41979504
0.256,5.2071624,-1.9795855,2.6737683,2.9705486,1.9614693,-0.37354374
0.258,5.377838,-2.0292418,2.5738626,3.0186443,2.0432475,-0.32666373
0.26,5.5473776,-2.074577,2.4639554,3.0672188,2.1229734,-0.27931547
0.262,5.714314,-2.1155174,2.3455372,3.1162784,2.2000468,-0.23172235
0.264,5.8772326,-2.1520002,2.219813,3.165625,2.2735949,-0.18421304
0.266,6.034729,-2.1837656,2.0877104,3.214971,2.3428187,-0.1371808
0.268,6.1849117,-2.2106607,1.9514859,3.2641292,2.4075751,-0.09094763
0.27,6.3265576,-2.2327754,1.8130462,3.312985,2.4680018,-0.045720816
0.272,6.4590454,-2.250454,1.6732275,3.36117,2.5235167,-0.0017262697
0.274,6.5806904,-2.2634459,1.531723,3.408361,2.5736306,0.040806413
0.276,6.6902337,-2.2714517,1.3899157,3.4543672,2.6184657,0.08162856
0.278,6.7864885,-2.2748156,1.2511322,3.498957,2.6583796,0.12058461
0.28,6.868611,-2.2740247,1.1177127,3.5419798,2.6939266,0.15769935
0.282,6.936769,-2.2695913,0.98980564,3.583354,2.725556,0.19306672
0.284,6.99053,-2.2620163,0.86753035,3.6230688,2.753566,0.2268939
0.286,7.0293465,-2.251656,0.7503036,3.6611836,2.778161,0.2594118
0.288,7.052787,-2.2383807,0.63745964,3.6977816,2.7995265,0.29084122
0.29,7.0618553,-2.2227547,0.5306448,3.7329457,2.8177876,0.32134616
0.292,7.057334,-2.205687,0.43340933,3.76676,2.8329644,0.3510325
0.294,7.0364366,-2.1867983,0.3451121,3.7992706,2.8448706,0.37997317
0.296,7.0014315,-2.166916,0.2607789,3.8304796,2.85311,0.40818822
0.298,6.9557085,-2.147136,0.17847252,3.8603656,2.8571565,0.4356284
0.3,6.898681,-2.1274047,0.09991038,3.8888755,2.856388,0.46214938
0.302,6.830131,-2.1068573,0.026543498,3.9159153,2.8501313,0.48758543
0.304,6.751889,-2.0858722,-0.041154385,3.9413822,2.8377275,0.5117681
0.306,6.6655073,-2.064935,-0.104733706,3.9651809,2.8185587,0.5345309
0.308,6.573057,-2.0445673,-0.16630924,3.987218,2.792093,0.555732
0.31,6.4766164,-2.0252838,-0.2267766,4.0074387,2.757923,0.5752466
0.312,6.377445,-2.0073667,-0.28610742,4.0257707,2.7157629,0.5929884
0.314,6.277191,-1.9907753,-0.3438301,4.042171,2.6654606,0.6089021
0.316,6.1772337,-1.975353,-0.39938915,4.0566225,2.6069956,0.62294626
0.318,6.0785136,-1.9609076,-0.45335293,4.069127,2.5404527,0.6351061
0.32,5.98247,-1.9474481,-0.50598705,4.0796943,2.4660351,0.6453934
0.322,5.890238,-1.9349544,-0.5574112,4.088352,2.384037,0.65383327
0.324,5.8027434,-1.9230733,-0.6073954,4.095142,2.2948086,0.6604928
0.326,5.7206507,-1.9114162,-0.6554353,4.1001196,2.1987722,0.66548634
0.328,5.6444254,-1.899772,-0.7009375,4.103318,2.096423,0.6689602
0.33,5.5747538,-1.8877603,-0.7435,4.1047893,1.9883227,0.67106986
0.332,5.511698,-1.8750266,-0.78281975,4.10458,1.8750516,0.67198133
0.334,5.4553676,-1.8610938,-0.81838524,4.102722,1.7572305,0.67188966
0.336,5.405457,-1.8455704,-0.84955215,4.099238,1.6354686,0.67099524
0.338,5.3614283,-1.8281924,-0.87555575,4.094125,1.5103716,0.66947055
0.34,5.322873,-1.8086194,-0.89567626,4.087373,1.3825312,0.6674664
0.342,5.289089,-1.7867362,-0.9093008,4.07895,1.2524973,0.66510284
0.344,5.2591195,-1.7622515,-0.91543174,4.068829,1.1207559,0.66247
0.346,5.231844,-1.7351667,-0.91348004,4.056972,0.9877235,0.65963113
0.348,5.2064347,-1.7054472,-0.9026536,4.0433564,0.8537662,0.65659785
0.35,5.181608,-1.6730633,-0.8822073,4.027998,0.71921784,0.6533835
0.352,5.1562777,-1.6380553,-0.8513868,4.0109143,0.5843733,0.649969
0.354,5.1293077,-1.6005256,-0.8096546,3.9921799,0.44952178,0.6463307
0.356,5.099416,-1.5604796,-0.7566948,3.9718976,0.31499153,0.6424333
0.358,5.0656786,-1.5182163,-0.69237256,3.9502277,0.18112236,0.63826823
0.36,5.0271435,-1.4738169,-0.61656344,3.9273505,0.048291445,0.6338242
0.362,4.98277,-1.4275184,-0.52933323,3.9035041,-0.08308756,0.6291294
0.364,4.931867,-1.3795658,-0.43083537,3.878972,-0.21256733,0.62422764
0.366,4.873675,-1.3299937,-0.3213092,3.8540635,-0.33967924,0.6191492
0.368,4.8077326,-1.27914,-0.20117462,3.8291056,-0.46395385,0.61396337
0.37,4.733813,-1.2272097,-0.07117617,3.804406,-0.5849653,0.60873055
0.372,4.6516447,-1.1744951,0.06793833,3.7802358,-0.70236236,0.6035149
0.374,4.561197,-1.1212887,0.21521115,3.7568264,-0.8159017,0.598348
0.376,4.462497,-1.0678272,0.36974108,3.734322,-0.925481,0.5932292
0.378,4.355754,-1.0143936,0.5308275,3.712779,-1.0311885,0.5881107
0.38,4.2414618,-0.9612738,0.69768095,3.6921604,-1.1333497,0.58287394
0.382,4.1201987,-0.9085671,0.86945033,3.6723337,-1.2325263,0.5773619
0.384,3.9928796,-0.8567462,1.0454706,3.6530964,-1.329468,0.5713685
0.386,3.8603742,-0.80588573,1.2246606,3.6341815,-1.4250656,0.5646491
0.388,3.723341,-0.7560576,1.4063628,3.615311,-1.5203085,0.5569198
0.39,3.5829458,-0.70748043,1.589757,3.596202,-1.6161717,0.5479345
0.392,3.4402418,-0.6600758,1.7742392,3.5766103,-1.7135433,0.5374834
0.394,3.296349,-0.6139692,1.9590504,3.556354,-1.8131338,0.5254343
0.396,3.1523545,-0.5690061,2.1439807,3.5353296,-1.9154488,0.5117418
0.398,3.0093555,-0.52518153,2.3285508,3.5135171,-2.0207086,0.49645185
0.4,2.8685012,-0.48240158,2.5126266,3.4909866,-2.128883,0.4796731
0.402,2.7309844,-0.44064674,2.6960478,3.4678483,-2.2397056,0.4616015
0.404,2.5978656,-0.39985436,2.8790188,3.4442742,-2.3527722,0.44244587
0.406,2.4698834,-0.3597824,3.0619516,3.4204507,-2.4675684,0.4224378
0.408,2.3478284,-0.3204573,3.2452679,3.396538,-2.5835214,0.40179414
0.41,2.2321067,-0.28154972,3.4293017,3.3726816,-2.7000804,0.38069427
0.412,2.1233683,-0.24299006,3.614666,3.3489676,-2.816738,0.35927564
0.414,2.0218942,-0.20458561,3.801785,3.3254242,-2.9330494,0.33764803
0.416,1.9277178,-0.16621673,3.9913077,3.3019865,-3.0486426,0.31587332
0.418,1.8408498,-0.12779817,4.1836762,3.2785645,-3.1631932,0.2939738
0.42,1.7611933,-0.08943629,4.3792267,3.2550433,-3.2764118,0.2719773
0.422,1.6886269,-0.051009774,4.5783076,3.2313075,-3.38799,0.24988163
0.424,1.6226048,-0.012710094,4.781167,3.2072535,-3.497584,0.2276867
0.426,1.5625709,0.025167108,4.987919,3.182832,-3.604781,0.20537299
0.428,1.5077316,0.06258321,5.198596,3.1580317,-3.7090933,0.18294713
0.43,1.4573848,0.0993194,5.413006,3.1328986,-3.809969,0.16043016
0.432,1.4105556,0.13511705,5.630644,3.1075099,-3.9067745,0.13785928
0.434,1.3663414,0.16972315,5.850812,3.0819726,-3.9988482,0.1152727
0.436,1.323564,0.20289123,6.072731,3.0563881,-4.0855603,0.09269473
0.438,1.2812216,0.23438561,6.295767,3.030825,-4.166383,0.07013133
0.44,1.2381134,0.26392412,6.5191035,3.0053337,-4.2408934,0.04757577
0.442,1.1932592,0.29134572,6.74212,2.9798942,-4.3088593,0.02499497
0.444,1.1454661,0.3164233,6.9638677,2.9544642,-4.37024,0.0023376644
0.446,1.0939975,0.3390025,7.183153,2.9289713,-4.425162,-0.020457506
0.448,1.0381098,0.3590443,7.3986936,2.903355,-4.4738936,-0.043426067
0.45,0.9772942,0.3764578,7.6091876,2.8775942,-4.5167727,-0.06657201
0.452,0.91101336,0.39122808,7.813336,2.851726,-4.554153,-0.08982062
0.454,0.8389449,0.40333843,8.009995,2.8258505,-4.586333,-0.113034666
0.456,0.76086426,0.41287434,8.198267,2.800164,-4.6135225,-0.13601163
0.458,0.67643213,0.4199431,8.377463,2.7749035,-4.6358027,-0.15848178
0.46,0.58594155,0.4246229,8.546943,2.7503548,-4.653158,-0.18014929
0.462,0.4895208,0.42709863,8.706144,2.7268085,-4.6655273,-0.20071399
0.464,0.3879094,0.42729223,8.854639,2.7045403,-4.672809,-0.21988174
0.466,0.28208852,0.4251864,8.991856,2.683768,-4.6749864,-0.237412
0.468,0.1725452,0.4211105,9.117345,2.6646566,-4.6721435,-0.25314304
0.47,0.060465574,0.41510367,9.2309265,2.6473067,-4.664509,-0.2670077
0.472,-0.053103685,0.40724063,9.332757,2.6317236,-4.652474,-0.27904588
0.474,-0.16706514,0.3976661,9.422727,2.6178546,-4.6365466,-0.28939158
0.476,-0.28027916,0.38634634,9.500832,2.6055777,-4.617351,-0.2982615
0.478,-0.3915968,0.37345243,9.567312,2.594752,-4.595563,-0.30588552
0.48,-0.4996884,0.35912788,9.62231,2.5852084,-4.571858,-0.3125139
0.482,-0.6031902,0.34338963,9.665954,2.5767999,-4.546861,-0.31837475
0.484,-0.7008445,0.32634473,9.698362,2.5693715,-4.5211062,-0.3236633
0.486,-0.7916577,0.30816054,9.719765,2.5627968,-4.494981,-0.32852188
0.488,-0.87466407,0.28898776,9.730106,2.5569677,-4.4687233,-0.3329983
0.49,-0.9492564,0.26896524,9.729513,2.551818,-4.4424124,-0.33708036
0.492,-1.0147514,0.24837124,9.718214,2.547306,-4.416006,-0.34073043
0.494,-1.070775,0.22747123,9.69648,2.5433943,-4.389371,-0.343878
0.496,-1.1171085,0.20643508,9.66472,2.5400658,-4.362284,-0.34639522
0.498,-1.1536198,0.18544841,9.623155,2.5373466,-4.3344827,-0.34822503
0.5,-1.1803304,0.16479921,9.572086,2.535268,-4.3057284,-0.34933838
0.502,-1.1975746,0.1446619,9.511902,2.533844,-4.275825,-0.349707
0.504,-1.2056855,0.1254021,9.442989,2.5331075,-4.2446103,-0.34932977
0.506,-1.2052672,0.107288,9.365835,2.5330732,-4.211981,-0.34820855
0.508,-1.1972578,0.09067178,9.280858,2.5337663,-4.177887,-0.34635302
0.51,-1.1825203,0.07592517,9.18861,2.5351822,-4.142316,-0.343781
0.512,-1.1624036,0.06337541,9.089389,2.5373201,-4.105297,-0.34051287
0.514,-1.1378968,0.053321004,8.983497,2.5401592,-4.0668836,-0.33655572
0.516,-1.1099646,0.045990646,8.871371,2.5436687,-4.0271688,-0.3319208
0.518,-1.0800126,0.041766226,8.753502,2.5477862,-3.9862838,-0.32663602
0.52,-1.0492139,0.04095024,8.630503,2.5524652,-3.9443579,-0.32072154
0.522,-1.0188935,0.043901503,8.503004,2.557636,-3.901569,-0.3142176
0.524,-0.99054706,0.050965548,8.371654,2.5632076,-3.8581457,-0.3071747
0.526,-0.9653277,0.06247163,8.237158,2.5690908,-3.8143466,-0.29965094
0.528,-0.9446869,0.07875395,8.100303,2.575186,-3.7704523,-0.2917362
0.53,-0.92977107,0.100116074,7.961739,2.5814037,-3.7267466,-0.2834878
0.532,-0.92186844,0.12687221,7.822117,2.5876644,-3.6834722,-0.2749926
0.534,-0.9217998,0.15924421,7.681926,2.593896,-3.6408432,-0.26632306
0.536,-0.9304645,0.1975151,7.541683,2.6000602,-3.5990067,-0.257572
0.538,-0.94840145,0.24177852,7.401744,2.6061513,-3.5580387,-0.24880746
0.54,-0.97592175,0.2921221,7.262268,2.6121888,-3.5179498,-0.24009255
0.542,-1.0129497,0.34855294,7.123505,2.6182363,-3.4786682,-0.23147982
0.544,-1.0594964,0.41094387,6.985641,2.624384,-3.440086,-0.22298896
0.546,-1.1153377,0.4791792,6.8487124,2.6307545,-3.4020896,-0.21462458
0.548,-1.1801068,0.5530679,6.712736,2.6374855,-3.3645682,-0.20640278
0.55,-1.2533163,0.63229275,6.577855,2.644707,-3.3274856,-0.19837314
0.552,-1.3341408,0.7163863,6.444021,2.6525037,-3.290888,-0.19052991
0.554,-1.4213555,0.80495936,6.3110514,2.6609502,-3.2549024,-0.18290788
0.556,-1.5137835,0.8974656,6.1788406,2.670095,-3.2197554,-0.17561394
0.558,-1.6100336,0.99332327,6.0472608,2.6799316,-3.1857843,-0.16878802
0.56,-1.7087094,1.0918939,5.916094,2.6904259,-3.153405,-0.16260219
0.562,-1.8079288,1.192423,5.7852807,2.7015166,-3.123093,-0.15723354
0.564,-1.9059364,1.2942572,5.654624,2.7131202,-3.095336,-0.15287125
0.566,-2.001176,1.3967311,5.523957,2.7251518,-3.0705857,-0.14968124
0.568,-2.0918403,1.4991128,5.3931766,2.7375407,-3.049236,-0.14782545
0.57,-2.176439,1.6007284,5.262231,2.7502315,-3.03158,-0.14742547
0.572,-2.2535162,1.7009225,5.1310563,2.7631986,-3.0177784,-0.14854228
0.574,-2.3218193,1.7993162,4.999717,2.7764351,-3.0078733,-0.15119717
0.576,-2.3805122,1.8954637,4.868595,2.7899623,-3.0017421,-0.1553632
0.578,-2.4283915,1.9887754,4.737963,2.8038223,-2.9991324,-0.16095987
0.58,-2.465039,2.078901,4.607979,2.818063,-2.9997253,-0.16786024
0.582,-2.4897606,2.1656728,4.4786716,2.8327193,-3.0030773,-0.17591006
0.584,-2.5024,2.2489266,4.350491,2.8478127,-3.0087183,-0.18496013
0.586,-2.5029857,2.3286197,4.223795,2.8633502,-3.016155,-0.19483835
0.588,-2.4916093,2.404668,4.098724,2.879325,-3.0248966,-0.20538124
0.59,-2.4690733,2.477042,3.9757056,2.8957248,-3.0344796,-0.21643478
0.592,-2.4359946,2.5460377,3.8550107,2.9125435,-3.044455,-0.22786802
0.594,-2.3931658,2.6118362,3.7368035,2.9297855,-3.0544097,-0.23958322
0.596,-2.341597,2.6746502,3.6212325,2.9474442,-3.063974,-0.2515148
0.598,-2.2821875,2.7348824,3.5083919,2.9655166,-3.0728192,-0.2636168
0.6,-2.2161155,2.7927532,3.3983343,2.9839885,-3.0806653,-0.2758282
0.602,-2.144925,2.8487816,3.29115,3.00283,-3.0873287,-0.28811586
0.604,-2.070228,2.9033911,3.1868865,3.0219848,-3.0927186,-0.3004409
0.606,-1.993355,2.9571455,3.0856621,3.0413544,-3.0968635,-0.31277737
0.608,-1.9158123,3.0105634,2.987756,3.0608149,-3.0999124,-0.32509968
0.61,-1.8392129,3.0641575,2.8934245,3.0802207,-3.1021175,-0.33740652
0.612,-1.7648358,3.1184387,2.8029695,3.0994139,-3.103828,-0.34972772
0.614,-1.6940608,3.1738899,2.7169306,3.1182508,-3.1054294,-0.36213422
0.616,-1.6279616,3.2308586,2.6353524,3.136599,-3.107325,-0.37472534
0.618,-1.567392,3.2898178,2.5586183,3.1543682,-3.1099102,-0.38763082
0.62,-1.5132093,3.351074,2.4868047,3.171504,-3.1135166,-0.40100124
0.622,-1.4657712,3.4150286,2.4202309,3.1880052,-3.1184192,-0.41494575
0.624,-1.4258693,3.4819648,2.3592,3.2038977,-3.1248283,-0.429579
0.626,-1.3940023,3.5520854,2.304056,3.219236,-3.1329117,-0.44498128
0.628,-1.3703012,3.6254406,2.2551208,3.2340877,-3.1427689,-0.46117485
0.63,-1.3547931,3.7020943,2.212844,3.248525,-3.1544695,-0.4781457
0.632,-1.3475078,3.7820737,2.177651,3.2625892,-3.1680808,-0.49584833
0.634,-1.3479344,3.86524,2.149949,3.2763033,-3.1836653,-0.5142348
0.636,-1.3556471,3.9513674,2.1299667,3.2896512,-3.2013454,-0.5332607
0.638,-1.3700178,4.040496,2.1180267,3.302595,-3.2212574,-0.5529263
0.64,-1.3906126,4.1325164,2.1144567,3.315061,-3.243549,-0.5732881
0.642,-1.4164462,4.227028,2.1193912,3.3269625,-3.2683794,-0.5944631
0.644,-1.4467232,4.3239484,2.1329079,3.3381937,-3.2959135,-0.61660624
0.646,-1.480566,4.422956,2.1548393,3.3486512,-3.3262756,-0.63989997
0.648,-1.5170933,4.523702,2.1849108,3.3582678,-3.3595245,-0.664513
0.65,-1.5553129,4.6259065,2.2229357,3.3670385,-3.3955898,-0.6905779
0.652,-1.59411,4.729232,2.26857,3.3750067,-3.4342704,-0.7181746
0.654,-1.6324292,4.833269,2.3213677,3.382274,-3.4752228,-0.7473059
0.656,-1.6689236,4.9376364,2.3808885,3.3890035,-3.5179543,-0.77788174
0.658,-1.7025964,5.0419664,2.4467995,3.3953846,-3.561881,-0.80976474
0.66,-1.73241,5.145762,2.5184822,3.401604,-3.6063533,-0.8427632
0.662,-1.7576928,5.2488046,2.5954907,3.4078195,-3.650749,-0.8766912
0.664,-1.7777513,5.350732,2.6775124,3.4141414,-3.6945024,-0.91139317
0.666,-1.79199,5.4512796,2.7643375,3.4206147,-3.7371967,-0.9467768
0.668,-1.799973,5.5501947,2.8557062,3.4271858,-3.7785923,-0.98283905
0.67,-1.8012314,5.6472883,2.9514217,3.4337487,-3.8186245,-1.0196602
0.672,-1.7957557,5.74252,3.0512934,3.440129,-3.8573833,-1.0573757
0.674,-1.783385,5.835674,3.155215,3.4461184,-3.8950624,-1.0961612
0.676,-1.7640359,5.926708,3.2633908,3.4515224,-3.9318728,-1.136188
0.678,-1.7382046,6.0157623,3.375923,3.4561672,-3.9679825,-1.1775262
0.68,-1.7062303,6.1028986,3.4932501,3.459932,-4.0034065,-1.2201641
0.682,-1.6687459,6.188278,3.6158786,3.4627373,-4.038011,-1.2639663
0.684,-1.6268303,6.2722826,3.7440996,3.464585,-4.0714574,-1.3086606
0.686,-1.5812329,6.3552103,3.8784666,3.4655092,-4.1032047,-1.3538996
0.688,-1.5331197,6.4375963,4.0194263,3.4655683,-4.1325636,-1.3992774
0.69,-1.4837278,6.5199556,4.167586,3.4648273,-4.158748,-1.4443796
0.692,-1.4344761,6.6028385,4.323613,3.4633372,-4.1809764,-1.4888154
0.694,-1.3869574,6.686886,4.4882174,3.461136,-4.1985383,-1.5322758
0.696,-1.342598,6.7728086,4.6618752,3.4582229,-4.2108755,-1.5745718
0.698,-1.3031611,6.861328,4.845322,3.4545836,-4.217579,-1.6156484
0.7,-1.2698996,6.9531384,5.0390077,3.450187,-4.2184196,-1.6555701
0.702,-1.2444148,7.0488605,5.243312,3.4449868,-4.213311,-1.6944847
0.704,-1.2280753,7.1490574,5.4587116,3.4389236,-4.2023168,-1.7326156
0.706,-1.2221448,7.254303,5.685337,3.4319594,-4.1855707,-1.7702091
0.708,-1.2279944,7.3648577,5.923275,3.4240644,-4.1632586,-1.8075224
0.71,-1.2464142,7.481106,6.172487,3.415203,-4.1355762,-1.8447747
0.712,-1.2781401,7.602971,6.4326653,3.405345,-4.1027336,-1.8821712
0.714,-1.3237488,7.7304955,6.703508,3.3944356,-4.0649805,-1.9198592
0.716,-1.383641,7.8632936,6.9845233,3.3823857,-4.0225854,-1.9579452
0.718,-1.4579461,8.000859,7.2750077,3.3690684,-3.9758675,-1.9964997
0.72,-1.5465713,8.142543,7.5738153,3.3543217,-3.9251788,-2.0355997
0.722,-1.6493938,8.287531,7.8797326,3.3379552,-3.8709133,-2.0753183
0.724,-1.7658496,8.434881,8.191167,3.3197677,-3.813479,-2.115758
0.726,-1.8953152,8.5835,8.506628,3.2995715,-3.7532597,-2.1570485
0.728,-2.0367022,8.732172,8.824253,3.2772188,-3.6905918,-2.1993349
0.73,-2.1889186,8.879483,9.142052,3.2526262,-3.6257367,-2.242782
0.732,-2.3507524,9.023865,9.45776,3.2257862,-3.5588632,-2.2875826
0.734,-2.5205898,9.163854,9.768787,3.1967938,-3.4900537,-2.3339016
0.736,-2.6966467,9.297704,10.072234,3.1658387,-3.4192915,-2.3818603
0.738,-2.8769913,9.42395,10.365131,3.1331935,-3.346489,-2.4315252
0.74,-3.0600362,9.540916,10.64444,3.0992222,-3.27154,-2.4828873
0.742,-3.2437224,9.646957,10.907123,3.0643163,-3.194356,-2.5358577
0.744,-3.4262328,9.740688,11.150408,3.028885,-3.114925,-2.590304
0.746,-3.6057053,9.820708,11.37177,2.993288,-3.0333815,-2.6460576
0.748,-3.7801542,9.885493,11.56889,2.9578304,-2.950016,-2.7029343
0.75,-3.9478936,9.933916,11.739803,2.922713,-2.86529,-2.7607312
0.752,-4.1073914,9.965136,11.883119,2.888055,-2.779913,-2.8192697
0.754,-4.257482,9.978498,11.998009,2.8538427,-2.694786,-2.8783727
0.756,-4.3967686,9.973548,12.08403,2.819972,-2.6109319,-2.9378939
0.758,-4.5243225,9.950222,12.141009,2.7862675,-2.5294256,-2.9977083
0.76,-4.6394987,9.908638,12.1690035,2.7525022,-2.4513087,-3.057697
0.762,-4.741784,9.849014,12.168604,2.7184358,-2.3775005,-3.11772
0.764,-4.83087,9.771959,12.140813,2.6838446,-2.3087192,-3.1776228
0.766,-4.9067125,9.678288,12.086973,2.6485438,-2.2453868,-3.2371774
0.768,-4.969296,9.568983,12.00882,2.6124284,-2.1876028,-3.2961376
0.77,-5.018935,9.445316,11.90866,2.5754695,-2.1351485,-3.354219
0.772,-5.0560412,9.308506,11.788879,2.5377216,-2.0875077,-3.4110935
0.774,-5.0815134,9.160223,11.652044,2.499319,-2.0439343,-3.4664106
0.776,-5.096233,9.002101,11.500626,2.4604654,-2.00352,-3.519861
0.778,-5.101068,8.835809,11.337051,2.4214149,-1.9652727,-3.5711584
0.78,-5.097291,8.663265,11.163714,2.3824577,-1.928211,-3.6200829
0.782,-5.085857,8.486156,10.98277,2.3438785,-1.8914514,-3.6664875
0.784,-5.067886,8.306327,10.796185,2.3059363,-1.8542397,-3.7103086
0.786,-5.044351,8.125414,10.605668,2.2688816,-1.815997,-3.7515492
0.788,-5.016082,7.944989,10.412944,2.2328866,-1.7763202,-3.7903128
0.79,-4.9841027,7.766584,10.219464,2.1981049,-1.7349846,-3.8267612
0.792,-4.9490743,7.5916033,10.026456,2.1646469,-1.6919194,-3.8611102
0.794,-4.9115705,7.4211664,9.835146,2.1326058,-1.6471398,-3.8935938
0.796,-4.872125,7.2563505,9.646304,2.1020648,-1.6007462,-3.924459
0.798,-4.831237,7.0980206,9.46072,2.0731108,-1.5528544,-3.9539306
0.8,-4.789038,6.9467554,9.278908,2.0458317,-1.5036063,-3.982225
0.802,-4.7458787,6.8032293,9.101131,2.0202863,-1.4531934,-4.009534
0.804,-4.701557,6.667865,8.927738,1.9964924,-1.4018621,-4.0360365
0.806,-4.6561337,6.540878,8.759283,1.9744049,-1.3499354,-4.06192
0.808,-4.609539,6.4224195,8.596003,1.953917,-1.2978418,-4.0873814
0.81,-4.5616875,6.312617,8.438177,1.9348433,-1.2461301,-4.1126
0.812,-4.5124493,6.2113285,8.286036,1.9169278,-1.1954341,-4.13774
0.814,-4.461815,6.1185427,8.139522,1.8998457,-1.1464627,-4.162966
0.816,-4.4096775,6.0340714,7.998827,1.8832573,-1.0998802,-4.188429
0.818,-4.3559628,5.9577074,7.864263,1.8668138,-1.0562847,-4.214255
0.82,-4.300865,5.889372,7.7359743,1.850205,-1.0161216,-4.240527
0.822,-4.2444525,5.8288345,7.6140885,1.8331549,-0.97964156,-4.2672887
0.824,-4.187084,5.7759504,7.498682,1.8154627,-0.9468682,-4.294528
0.826,-4.129094,5.7305837,7.389777,1.7970095,-0.91761374,-4.322204
0.828,-4.071143,5.692823,7.2873287,1.7777379,-0.8915031,-4.3502216
0.83,-4.013771,5.6625156,7.1914043,1.7576637,-0.868045,-4.3784523
0.832,-3.9575014,5.6396885,7.1019163,1.7368517,-0.84667873,-4.406744
0.834,-3.9030416,5.6241884,7.0188675,1.7154137,-0.82682395,-4.434933
0.836,-3.851169,5.6160874,6.942163,1.6934948,-0.80791104,-4.4628563
0.838,-3.8028474,5.6153564,6.8717556,1.671257,-0.7893882,-4.4903517
0.84,-3.7585716,5.6221275,6.8074665,1.6488643,-0.7707436,-4.5172644
0.842,-3.7189708,5.6363506,6.749251,1.6265154,-0.75152063,-4.5434675
0.844,-3.6848516,5.6581426,6.6970663,1.6043886,-0.7312534,-4.568859
0.846,-3.6568294,5.687587,6.650793,1.5826769,-0.7095076,-4.5933604
0.848,-3.6355433,5.724572,6.6104727,1.5615667,-0.68586874,-4.6169424
0.85,-3.6211767,5.768923,6.5757627,1.5412683,-0.6599475,-4.639618
0.852,-3.613996,5.820556,6.5463552,1.5219606,-0.63139725,-4.6614466
0.854,-3.6139407,5.879012,6.5219917,1.5038102,-0.5999557,-4.6825247
0.856,-3.6209073,5.94407,6.502208,1.486958,-0.56545246,-4.7029867
0.858,-3.6347334,6.015397,6.4865503,1.471512,-0.52783537,-4.72301
0.86,-3.6548972,6.0924945,6.4746723,1.45752,-0.4871509,-4.742756
0.862,-3.6808324,6.1747,6.4659348,1.4450015,-0.44355214,-4.762396
0.864,-3.711592,6.2612896,6.4597573,1.4339362,-0.39729238,-4.7821035
0.866,-3.74643,6.3513975,6.455489,1.4242826,-0.34866428,-4.8020177
0.868,-3.7844472,6.444027,6.452632,1.4159938,-0.29797792,-4.8222313
0.87,-3.8245218,6.5381527,6.4506006,1.4090266,-0.24557686,-4.8427935
0.872,-3.8659444,6.633011,6.4486876,1.4033352,-0.19180489,-4.86372
0.874,-3.9077916,6.7275133,6.4462376,1.3988801,-0.1369996,-4.885016
0.876,-3.9491506,6.8207245,6.4424953,1.3956163,-0.08147335,-4.906676
0.878,-3.9892135,6.911809,6.436491,1.3934811,-0.025572896,-4.928689
0.88,-4.027095,7.000019,6.4274254,1.3923893,0.030341506,-4.951047
0.882,-4.0619435,7.084641,6.4144754,1.3922567,0.08587289,-4.973775
0.884,-4.093166,7.1649323,6.397004,1.3929708,0.14062953,-4.9969006
0.886,-4.120296,7.2403164,6.374547,1.3944149,0.19423997,-5.0204654
0.888,-4.143138,7.3103504,6.346841,1.3964531,0.24633884,-5.0445166
0.89,-4.161395,7.3746285,6.313584,1.3989564,0.29662848,-5.069081
0.892,-4.175216,7.4330773,6.274556,1.4017988,0.34488034,-5.094194
0.894,-4.184802,7.485655,6.229553,1.4048414,0.39094925,-5.119888
0.896,-4.1903715,7.5323486,6.17834,1.4079409,0.4347911,-5.1461926
0.898,-4.192264,7.5733643,6.120849,1.4109623,0.47640598,-5.173148
0.9,-4.191047,7.6090717,6.057294,1.4137753,0.51586664,-5.2008147
0.902,-4.1872334,7.6397066,5.987996,1.416256,0.5532625,-5.2292566
0.904,-4.1814284,7.6658335,5.9132977,1.418294,0.5886791,-5.2585564
0.906,-4.1743155,7.68802,5.8338556,1.4198301,0.6221744,-5.2888103
0.908,-4.166687,7.7069426,5.750413,1.4208097,0.6537907,-5.32013
0.91,-4.1593366,7.72323,5.6637416,1.4211993,0.6835152,-5.352641
0.912,-4.1529083,7.7376666,5.57487,1.4209685,0.71126807,-5.3864784
0.914,-4.1481066,7.7507024,5.484623,1.4200675,0.73687077,-5.421779
0.916,-4.1452475,7.7630463,5.393821,1.4184062,0.7600913,-5.4586735
0.918,-4.1447406,7.7752185,5.303434,1.4158554,0.7806463,-5.497257
0.92,-4.1468062,7.7876534,5.214567,1.4122455,0.7982259,-5.5375915
0.922,-4.151496,7.8008466,5.12808,1.4073938,0.8125417,-5.579716
0.924,-4.1584473,7.8149767,5.0449305,1.4011211,0.82339907,-5.6236334
0.926,-4.1673307,7.830207,4.9656568,1.3932962,0.8307309,-5.669323
0.928,-4.1776905,7.846678,4.8907266,1.3838717,0.83459306,-5.7167454
0.93,-4.188731,7.8642087,4.8204675,1.37292,0.8352169,-5.7658486
0.932,-4.199596,7.882848,4.755062,1.3606417,0.83304834,-5.8166013
0.934,-4.208782,7.9019566,4.694749,1.3473711,0.82875836,-5.86901
0.936,-4.2150373,7.921213,4.639605,1.3335559,0.82309127,-5.9230795
0.938,-4.216856,7.939964,4.5898495,1.3197126,0.81684256,-5.97885
0.94,-4.2125673,7.957611,4.5457096,1.3064028,0.8107687,-6.036346
0.942,-4.200589,7.9732914,4.507259,1.2942059,0.8055669,-6.0956116
0.944,-4.1792045,7.98629,4.4742885,1.2836337,0.8017086,-6.1567006
0.946,-4.146682,7.995556,4.4464207,1.2750922,0.7994082,-6.219623
0.948,-4.101308,8.000251,4.4231453,1.2688818,0.7986151,-6.284387
0.95,-4.041905,7.999594,4.4040227,1.2651478,0.7990215,-6.3510046
0.952,-3.9671235,7.9928455,4.3885474,1.2639142,0.8001205,-6.419483
0.954,-3.8755198,7.9790683,4.376274,1.2650882,0.80125654,-6.4898486
0.956,-3.7660468,7.9574313,4.3668766,1.2685041,0.80169725,-6.5621266
0.958,-3.637886,7.9272547,4.35995,1.2739516,0.800688,-6.636326
0.96,-3.4906588,7.8880725,4.3553953,1.2812212,0.7974962,-6.7124615
0.962,-3.3241966,7.839408,4.352829,1.290118,0.7914797,-6.7905416
0.964,-3.1385465,7.7808514,4.3518004,1.3005075,0.7820356,-6.870553
0.966,-2.934043,7.711953,4.3517838,1.3122255,0.76857626,-6.952466
0.968,-2.7112563,7.632552,4.3522205,1.3251221,0.75049233,-7.0362515
0.97,-2.4711647,7.5425034,4.352292,1.3389907,0.72708964,-7.121902
0.972,-2.215086,7.4420085,4.351425,1.3535559,0.697597,-7.2094154
0.974,-1.9448438,7.3313055,4.3490176,1.3684411,0.66111636,-7.2987957
0.976,-1.6623493,7.210935,4.3444986,1.3831625,0.6166601,-7.390035
0.978,-1.3697213,7.0814905,4.3372183,1.397159,0.56320834,-7.4831033
0.98,-1.0694087,6.9436836,4.326551,1.4098269,0.4997933,-7.577952
0.982,-0.7637005,6.7981405,4.311854,1.4205587,0.4255929,-7.6744967
0.984,-0.45522523,6.6458826,4.292342,1.4288002,0.340024,-7.7725887
0.986,-0.1465509,6.487773,4.2673407,1.4340843,0.24282384,-7.871998
0.988,0.15982533,6.3247995,4.2364326,1.4360744,0.13408804,-7.9724107
0.99,0.46134472,6.1579123,4.1991615,1.4345807,0.014354229,-8.073459
0.992,0.7553818,5.9884224,4.1554356,1.4295672,-0.11545706,-8.174689
0.994,1.0402014,5.8175983,4.1054006,1.42116,-0.2541213,-8.275618
0.996,1.3138392,5.6467476,4.0493226,1.4096067,-0.40017056,-8.37571
0.998,1.5749755,5.4771414,3.9876423,1.3953154,-0.55196214,-8.4744005
1,1.8229334,5.310117,3.9208808,1.3788207,-0.7078116,-8.5711565
1.002,2.057182,5.147014,3.8497255,1.3607703,-0.8660927,-8.665475
1.004,2.2777603,4.989296,3.775186,1.3418965,-1.0252523,-8.756899
1.006,2.4851456,4.838329,3.6983676,1.3229935,-1.1839027,-8.845065
1.008,2.6804667,4.6951313,3.6203456,1.3048742,-1.3408595,-8.929745
1.01,2.865436,4.560672,3.5423927,1.288316,-1.4951546,-9.010828
1.012,3.0419512,4.4359436,3.4660678,1.2740128,-1.6461034,-9.088364
1.014,3.212368,4.321638,3.3929691,1.2625358,-1.7933074,-9.162557
1.016,3.3792453,4.2184772,3.3245964,1.2543142,-1.9367428,-9.233698
1.018,3.54582,4.126757,3.2625062,1.2495654,-2.0766673,-9.302199
1.02,3.7151322,4.0470757,3.2081966,1.2483928,-2.2136548,-9.368515
1.022,3.8899202,3.979485,3.16328,1.2506912,-2.348538,-9.433109
1.024,4.0730553,3.924215,3.1292052,1.2562325,-2.4823933,-9.496388
1.026,4.267242,3.8810337,3.1075299,1.264679,-2.616381,-9.558677
1.028,4.4750495,3.8498285,3.0997338,1.2756324,-2.7515829,-9.620202
1.03,4.698485,3.8301668,3.1070867,1.2886422,-2.8889189,-9.681053
1.032,4.9394803,3.8214526,3.1311128,1.3032341,-3.0291157,-9.741219
1.034,5.1992884,3.8231902,3.1731365,1.3189211,-3.172625,-9.800587
1.036,5.478813,3.8347347,3.234668,1.3352344,-3.3195684,-9.858939
1.038,5.7783775,3.855421,3.3167355,1.351726,-3.4697838,-9.916046
1.04,6.097735,3.8845906,3.4203463,1.3679824,-3.6229272,-9.971618
1.042,6.436294,3.9214375,3.545976,1.3836222,-3.778459,-10.025305
1.044,6.7927675,3.9657252,3.694119,1.3983424,-3.9356954,-10.076731
1.046,7.165791,4.017374,3.8648229,1.411871,-4.0938826,-10.12555
1.048,7.5536203,4.076064,4.057889,1.4239969,-4.252253,-10.171409
1.05,7.954136,4.141322,4.273485,1.4345613,-4.410103,-10.213985
1.052,8.36511,4.212987,4.511633,1.4434581,-4.566823,-10.253033
1.054,8.784177,4.2910395,4.7721047,1.4534855,-4.722717,-10.288379
1.056,9.209288,4.375349,5.0547013,1.4607811,-4.8762465,-10.319908
1.058,9.637981,4.465928,5.3592567,1.4672961,-5.0277576,-10.347617
1.06,10.068028,4.5627093,5.6854534,1.4733739,-5.177244,-10.371584
1.062,10.497106,4.666033,6.032585,1.4793305,-5.3247986,-10.391986
1.064,10.922953,4.7760515,6.399707,1.4854493,-5.4706035,-10.409093
1.066,11.343479,4.893079,6.7858276,1.4918509,-5.614896,-10.423238
1.068,11.757128,5.0172257,7.1898565,1.4984555,-5.757883,-10.434833
1.07,12.162919,5.148541,7.6104913,1.5049491,-5.899742,-10.444332
1.072,12.559585,5.287186,8.046839,1.5107841,-6.040618,-10.452203
1.074,12.946392,5.432971,8.497993,1.5152159,-6.180494,-10.458827
1.076,13.322874,5.5856423,8.963268,1.5174565,-6.31927,-10.46461
1.078,13.688765,5.744773,9.441611,1.5168176,-6.4568906,-10.469986
1.08,14.044379,5.909936,9.932054,1.5128102,-6.5932965,-10.475273
1.082,14.390415,6.080526,10.433351,1.5052419,-6.728427,-10.480633
1.084,14.728154,6.2556934,10.943888,1.4942751,-6.8622227,-10.486127
1.086,15.058926,6.4346714,11.462276,1.4803958,-6.994663,-10.491692
1.088,15.384559,6.616389,11.9872265,1.4642715,-7.1257763,-10.497183
1.09,15.707119,6.799732,12.51727,1.4466457,-7.255703,-10.502415
1.092,16.02898,6.9834747,13.051001,1.4282007,-7.384642,-10.5072155
1.094,16.352657,7.1663632,13.587088,1.4094391,-7.5128465,-10.5114765
1.096,16.680906,7.3470087,14.12422,1.3906684,-7.640654,-10.515167
1.098,17.016607,7.5238824,14.661258,1.3719859,-7.7684593,-10.518328
1.1,17.363014,7.6954384,15.196993,1.3533697,-7.896647,-10.521049
1.102,17.72374,7.8599415,15.730251,1.3346996,-8.025559,-10.523455
1.104,18.101934,8.015861,16.259764,1.3158793,-8.155431,-10.525669
1.106,18.501146,8.161573,16.784548,1.2968612,-8.286351,-10.527737
1.108,18.92455,8.295514,17.303682,1.275959,-8.417861,-10.529657
1.11,19.375128,8.415877,17.816858,1.2573128,-8.551048,-10.531345
1.112,19.856405,8.521221,18.323923,1.2383399,-8.684888,-10.532637
1.114,20.37133,8.60989,18.825066,1.2193046,-8.819177,-10.533313
1.116,20.922462,8.680575,19.32088,1.2004795,-8.953683,-10.533112
1.118,21.512087,8.732104,19.812172,1.1820946,-9.088151,-10.53174
1.12,22.142008,8.76325,20.29992,1.1643963,-9.222328,-10.528873
1.122,22.814098,8.77299,20.785183,1.1476212,-9.355967,-10.524134
1.124,23.529459,8.76042,21.269245,1.1320152,-9.488851,-10.517149
1.126,24.288872,8.724594,21.753647,1.1178553,-9.620739,-10.507515
1.128,25.09236,8.665195,22.240034,1.1054311,-9.751468,-10.494865
1.13,25.939571,8.581918,22.730461,1.0950203,-9.880875,-10.478704
1.132,26.830564,8.474386,23.22644,1.0868769,-10.008774,-10.458525
1.134,27.764122,8.342726,23.72977,1.0812387,-10.135158,-10.433974
1.136,28.738747,8.187152,24.241873,1.0783408,-10.260184,-10.4047985
1.138,29.75241,8.008133,24.764006,1.0783896,-10.384083,-10.370745
1.14,30.802462,7.8062487,25.297443,1.0816002,-10.507122,-10.331608
1.142,31.885847,7.582515,25.842787,1.0881951,-10.629596,-10.287223
1.144,32.99881,7.3379745,26.400478,1.0984108,-10.751753,-10.237477
1.146,34.137924,7.073651,26.970268,1.1125364,-10.873787,-10.18226
1.148,35.299683,6.7907863,27.551208,1.1308665,-10.995779,-10.121454
1.15,36.480145,6.490761,28.141842,1.1537302,-11.117713,-10.054915
1.152,37.675766,6.1752205,28.74049,1.1814191,-11.239448,-9.982412
1.154,38.88309,5.845492,29.344822,1.2142599,-11.360752,-9.903647
1.156,40.098873,5.502701,29.951742,1.2525687,-11.481269,-9.818224
1.158,41.320614,5.1486907,30.557938,1.2966189,-11.600571,-9.725706
1.16,42.545364,4.7857647,31.15913,1.3467337,-11.71809,-9.625618
1.162,43.771057,4.415971,31.750935,1.403295,-11.833064,-9.517449
1.164,44.995735,4.0413384,32.32918,1.4667344,-11.944601,-9.400684
1.166,46.218037,3.6643357,32.889652,1.5375262,-12.05167,-9.274794
1.168,47.437378,3.2874436,33.42842,1.61623,-12.153024,-9.139227
1.17,48.653625,2.9131823,33.941742,1.7034525,-12.24735,-8.993441
1.172,49.867386,2.5438585,34.426422,1.7997936,-12.333302,-8.836873
1.174,51.079468,2.1824179,34.87956,1.9059011,-12.40945,-8.668902
1.176,52.290386,1.8325095,35.298737,2.0223825,-12.474325,-8.488815
1.178,53.500546,1.498343,35.68205,2.1498125,-12.526585,-8.295755
1.18,54.7104,1.183888,36.028355,2.2886477,-12.565063,-8.088749
1.182,55.92094,0.89296913,36.33668,2.4393268,-12.588696,-7.8666973
1.184,57.132103,0.6310406,36.60729,2.602178,-12.596579,-7.6283674
1.186,58.343628,0.40378094,36.841114,2.7773886,-12.5880165,-7.3724065
1.188,59.555775,0.21675968,37.04052,2.964974,-12.562571,-7.097391
1.19,60.767223,0.076955795,37.20888,3.1647654,-12.520149,-6.801981
1.192,61.976006,-0.00881958,37.350166,3.3763702,-12.461091,-6.484999
1.194,63.18189,-0.035063744,37.469227,3.5991893,-12.386248,-6.1454525
1.196,64.38175,0.006468773,37.572083,3.8323758,-12.297103,-5.782601
1.198,65.57163,0.124165535,37.664635,4.0748577,-12.195834,-5.3959885
1.2,66.74808,0.32581997,37.753075,4.3253803,-12.085271,-4.985484
1.202,67.9054,0.62112236,37.843163,4.5825853,-11.968872,-4.5512156
1.204,69.039215,1.0198798,37.94116,4.84496,-11.850652,-4.0935273
1.206,70.14836,1.530797,38.049587,5.110922,-11.735065,-3.6130176
1.208,71.22605,2.1644177,38.17281,5.378797,-11.626838,-3.1105342
1.21,72.2713,2.9247193,38.321655,5.6469398,-11.530628,-2.5870097
1.212,73.27441,3.8239913,38.507652,5.9137635,-11.450793,-2.0432086
1.214,74.23752,4.87355,38.734932,6.177762,-11.391196,-1.4797587
1.216,75.165,6.0808177,39.001537,6.4376216,-11.354876,-0.89712
1.218,76.05376,7.4603186,39.309982,6.6922383,-11.343809,-0.2953651
1.22,76.90262,9.02421,39.664856,6.94079,-11.358932,0.32569194
1.222,77.71513,10.779701,40.0713,7.182754,-11.399943,0.9664583
1.224,78.492386,12.740778,40.532845,7.417838,-11.465523,1.627739
1.226,79.23175,14.928294,41.054207,7.6460953,-11.553302,2.31043
1.228,79.93743,17.355917,41.6368,7.8679233,-11.65999,3.0153522
1.23,80.61819,20.028948,42.289993,8.084005,-11.781497,3.7432637
1.232,81.28383,22.951405,43.023537,8.295323,-11.912921,4.4946213
1.234,81.92619,26.161024,43.839916,8.503281,-12.048432,5.2694674
1.236,82.56352,29.654356,44.741405,8.709751,-12.181367,6.06761
1.238,83.20088,33.433754,45.74274,8.916677,-12.3044405,6.8883977
1.24,83.8443,37.498795,46.873726,9.1255245,-12.410539,7.7311945
1.242,84.49445,41.845997,48.171947,9.337981,-12.491223,8.595558
1.244,85.11777,46.487762,49.663944,9.556897,-12.536124,9.481492
1.246,85.738976,51.415836,51.37906,9.78522,-12.534711,10.389674
1.248,86.40116,56.613724,53.34671,10.024999,-12.477015,11.321087
1.25,87.17261,62.0759,55.56074,10.277536,-12.35315,12.277424
1.252,88.08453,67.77675,58.03694,10.542926,-12.153351,13.261833
1.254,89.1347,73.70162,60.800823,10.819901,-11.868546,14.278281
1.256,90.334946,79.84338,63.881256,11.105959,-11.490382,15.330568
1.258,91.67413,86.173645,67.30477,11.397697,-11.011313,16.422949
1.26,93.168625,92.632034,71.11648,11.689741,-10.425252,17.5601
1.262,94.83464,99.14207,75.32315,11.974869,-9.726298,18.747305
1.264,96.707245,105.67253,79.874466,12.245758,-8.906437,19.988422
1.266,98.81951,112.16817,84.75841,12.493082,-7.9577274,21.285854
1.268,101.21759,118.607475,89.97445,12.704655,-6.8725557,22.639889
1.27,103.82626,124.89017,95.55884,12.866808,-5.64155,24.04772
1.272,106.7508,130.83238,101.48133,12.965478,-4.2525234,25.507278
1.274,109.9802,136.40097,107.681335,12.989576,-2.6876535,27.017143
1.276,113.53543,141.53967,114.11033,12.930821,-0.9298668,28.576656
1.278,117.45929,146.17334,120.70639,12.781387,1.0269117,30.175999
1.28,121.76613,150.26079,127.38872,12.5414,3.1999493,31.810055
1.282,126.4684,153.75377,134.04443,12.215202,5.6035166,33.475643
1.284,131.56975,156.61122,140.53711,11.81443,8.248187,35.164627
1.286,137.06012,158.80582,146.7319,11.358907,11.136163,36.86259
1.288,142.91115,160.33487,152.49628,10.874778,14.253456,38.55343
1.29,149.0792,161.21628,157.69122,10.391966,17.572235,40.20971
1.292,155.50902,161.47456,162.18185,9.94647,21.050053,41.79018
1.294,162.13138,161.14041,165.83711,9.583382,24.63153,43.23751
1.296,168.85944,160.25629,168.53458,9.3493185,28.25151,44.481697
1.298,175.58751,158.87787,170.16321,9.28811,31.807262,45.421635
1.3,182.1971,157.0697,170.62988,9.448263,35.227386,45.958347
1.302,188.55945,154.9019,169.86932,9.855437,38.444317,45.997307
1.304,194.53906,152.44905,167.84607,10.5133,41.39712,45.450043
1.306,200.00652,149.77737,164.55432,11.404464,44.040516,44.23973
1.308,204.83409,146.94849,160.0101,12.481121,46.3378,42.315353
1.31,208.90552,144.01538,154.25403,13.665768,48.255806,39.661064
1.312,212.11505,141.02359,147.36818,14.859045,49.759834,36.301224
1.314,214.36917,138.01428,139.46745,15.950426,50.80875,32.30314
1.316,215.59041,135.01996,130.69624,16.829908,51.35339,27.7767
1.318,215.7316,132.06128,121.21711,17.399584,51.340378,22.869225
1.32,214.76506,129.15585,111.20182,17.587257,50.723663,17.751764
1.322,212.69788,126.304924,100.83339,17.353191,49.473248,12.604003
1.324,209.54759,123.50537,90.30812,16.690367,47.581776,7.5989523
1.326,205.35513,120.752205,79.82435,15.62161,45.070953,2.8855371
1.328,200.19142,118.02937,69.56392,14.19199,41.992226,-1.4213514
1.33,194.14273,115.32347,59.692795,12.462138,38.42869,-5.246937
1.332,187.30725,112.62602,50.35906,10.500885,34.490597,-8.552094
1.334,179.7978,109.924255,41.691685,8.371176,30.284296,-11.344666
1.336,171.73824,107.20486,33.795803,6.13019,25.919954,-13.665218
1.338,163.24953,104.46759,26.75465,3.8257742,21.502172,-15.571583
1.34,154.45155,101.72135,20.619864,1.4983253,17.12703,-17.130203
1.342,145.46358,98.97585,15.42126,-0.8175776,12.879963,-18.41162
1.344,136.41563,96.215096,11.172829,-3.0900455,8.829969,-19.475271
1.346,127.404236,93.46933,7.8653255,-5.2891364,5.03528,-20.367085
1.348,118.53374,90.75868,5.458891,-7.3864784,1.5474243,-21.118563
1.35,109.89638,88.10409,3.8891087,-9.350053,-1.5883915,-21.749699
1.352,101.57695,85.52617,3.081276,-11.146838,-4.3142643,-22.25719
1.354,93.67287,83.02906,2.9673748,-12.752879,-6.6180387,-22.645878
1.356,86.20941,80.63572,3.4714317,-14.136198,-8.488067,-22.916517
1.358,79.1991,78.368454,4.514189,-15.274469,-9.921438,-23.060946
1.36,72.64219,76.2323,6.041729,-16.16038,-10.933339,-23.06475
1.362,66.57993,74.244995,7.9684715,-16.794462,-11.550377,-22.916271
1.364,61.07159,72.40526,10.200753,-17.18608,-11.809282,-22.609192
1.366,56.142677,70.702774,12.648014,-17.35439,-11.754472,-22.144432
1.368,51.82345,69.14392,15.228836,-17.325191,-11.433417,-21.531507
1.37,48.103016,67.751656,17.853384,-17.128035,-10.894072,-20.789787
1.372,44.964043,66.54237,20.47527,-16.793003,-10.183153,-19.946701
1.374,42.369698,65.47886,23.088022,-16.348782,-9.344545,-19.034184
1.376,40.28689,64.54874,25.632814,-15.820634,-8.417646,-18.086437
1.378,38.67182,63.71017,28.042038,-15.229652,-7.437121,-17.138342
1.38,37.57754,62.99472,30.229082,-14.593259,-6.4337087,-16.22342
1.382,36.869698,62.476776,32.183388,-13.926104,-5.434865,-15.371351
1.384,36.54046,62.067795,33.91146,-13.2409935,-4.4652424,-14.606105
1.386,36.536293,61.725803,35.397255,-12.549812,-3.547472,-13.944984
1.388,36.784737,61.436974,36.634487,-11.864351,-2.7022371,-13.397535
1.39,37.241806,61.16604,37.62994,-11.196543,-1.9471803,-12.965803
1.392,37.85898,60.90099,38.41001,-10.559368,-1.2973795,-12.645729
1.394,38.590885,60.633728,39.006886,-9.96608,-0.76460505,-12.42873
1.396,39.39751,60.35524,39.43755,-9.427129,-0.3546996,-12.302911
1.398,40.24578,60.04901,39.711433,-8.950405,-0.06825733,-12.254032
1.4,41.104248,59.700176,39.84504,-8.542793,0.096877575,-12.266794
1.402,41.940495,59.30616,39.85383,-8.209891,0.14479399,-12.326275
1.404,42.726303,58.871048,39.75698,-7.9552217,0.08207655,-12.418681
1.406,43.44059,58.398106,39.575897,-7.779937,-0.08247614,-12.531887
1.408,44.07012,57.88723,39.33451,-7.6831484,-0.33924103,-12.655607
1.41,44.605858,57.337795,39.05598,-7.6625185,-0.67923546,-12.781446
1.412,45.04196,56.750393,38.757668,-7.714684,-1.0944896,-12.902885
1.414,45.374615,56.125893,38.45369,-7.8356085,-1.5781302,-13.014923
1.416,45.598198,55.47046,38.15787,-8.020898,-2.1244879,-13.113592
1.418,45.712494,54.79125,37.890938,-8.266155,-2.7289891,-13.195349
1.42,45.716553,54.0968,37.67414,-8.567085,-3.3880057,-13.256685
1.422,45.615788,53.392387,37.512955,-8.919413,-4.098356,-13.293779
1.424,45.418987,52.679768,37.40782,-9.318722,-4.856839,-13.30237
1.426,45.135193,51.96231,37.358353,-9.760254,-5.6597433,-13.27792
1.428,44.771034,51.245346,37.364716,-10.23866,-6.5024242,-13.215769
1.43,44.332386,50.534374,37.428116,-10.747699,-7.3788176,-13.111322
1.432,43.82408,49.835434,37.549286,-11.279923,-8.281051,-12.960232
1.434,43.25344,49.154896,37.72613,-11.826623,-9.199316,-12.758567
1.436,42.62838,48.50042,37.955383,-12.377959,-10.121915,-12.50314
1.438,41.955532,47.879803,38.234013,-12.9232,-11.035515,-12.191908
1.44,41.240505,47.30012,38.558075,-13.450967,-11.925522,-11.8242035
1.442,40.48772,46.766426,38.92207,-13.949716,-12.776609,-11.400923
1.444,39.701736,46.282578,39.31852,-14.408157,-13.57337,-10.924524
1.446,38.885826,45.851097,39.7382,-14.8157215,-14.300877,-10.398889
1.448,38.043003,45.47412,40.17079,-15.162962,-14.9453,-9.829105
1.45,37.17573,45.15332,40.604637,-15.441946,-15.494411,-9.221208
1.452,36.286068,44.890068,41.027275,-15.646534,-15.938031,-8.581893
1.454,35.376225,44.684517,41.425873,-15.772582,-16.268333,-7.9182396
1.456,34.4485,44.535313,41.788048,-15.817947,-16.480017,-7.237301
1.458,33.504745,44.43968,42.102272,-15.782392,-16.57037,-6.545868
1.46,32.54721,44.393448,42.35784,-15.667461,-16.539213,-5.8502064
1.462,31.578117,44.392086,42.54502,-15.476368,-16.388872,-5.155943
1.464,30.60012,44.430717,42.655876,-15.21377,-16.123936,-4.467984
1.466,29.616627,44.504074,42.683517,-14.885593,-15.751098,-3.7905035
1.468,28.631405,44.606354,42.62234,-14.498823,-15.27894,-3.1269789
1.47,27.648434,44.73127,42.46828,-14.061321,-14.717658,-2.480317
1.472,26.67175,44.872467,42.218582,-13.581571,-14.078783,-1.8529897
1.474,25.70508,45.02378,41.871876,-13.068422,-13.374786,-1.2471123
1.476,24.752302,45.17928,41.428253,-12.530817,-12.618674,-0.664526
1.478,23.81752,45.333466,40.889286,-11.977502,-11.823599,-0.10671425
1.48,22.904408,45.48101,40.258045,-11.416754,-11.002409,0.42516422
1.482,22.016338,45.617,39.538685,-10.856131,-10.167327,0.93037367
1.484,21.155928,45.737183,38.736492,-10.302294,-9.329614,1.4085999
1.486,20.325233,45.83762,37.857346,-9.760847,-8.499204,1.8600535
1.488,19.526173,45.91527,36.907825,-9.236254,-7.684539,2.2854517
1.49,18.759594,45.967976,35.895287,-8.731817,-6.8925004,2.6859858
1.492,18.02605,45.993908,34.826965,-8.249753,-6.128419,3.0632043
1.494,17.325596,45.99169,33.710346,-7.791246,-5.396077,3.418871
1.496,16.657867,45.961094,32.55278,-7.3566303,-4.6978884,3.7548385
1.498,16.021946,45.9027,31.361057,-6.945538,-4.035076,4.0728316
1.5,15.417038,45.81734,30.141531,-6.557087,-3.4079087,4.374317
1.502,14.841823,45.706474,28.900265,-6.1900454,-2.8159015,4.6604323
1.504,14.294582,45.571953,27.64293,-5.842983,-2.2580562,4.9319663
1.506,13.773944,45.41601,26.374386,-5.5144114,-1.7330122,5.1894484
1.508,13.278391,45.240833,25.099342,-5.2028556,-1.2392253,5.433156
1.51,12.806411,45.04878,23.8216,-4.907027,-0.7751391,5.6631446
1.512,12.356676,44.842335,22.544436,-4.62585,-0.33936027,5.8793707
1.514,11.927401,44.624065,21.270386,-4.3584666,0.06937135,6.08181
1.516,11.516912,44.396317,20.0013,-4.104213,0.4522093,6.270543
1.518,11.123607,44.16141,18.738762,-3.8626084,0.81016064,6.445739
1.52,10.745699,43.921253,17.484182,-3.633328,1.1440585,6.607648
1.522,10.381638,43.677574,16.238756,-3.4161801,1.454592,6.7565446
1.524,10.029612,43.43172,15.003839,-3.2110705,1.7422945,6.892685
1.526,9.68797,43.18482,13.780598,-3.0179994,2.0075366,7.0162954
1.528,9.354967,42.93764,12.570281,-2.837023,2.2504964,7.127483
1.53,9.028358,42.690807,11.373708,-2.6681786,2.4712026,7.226283
1.532,8.706346,42.44469,10.19174,-2.5114834,2.6696234,7.312607
1.534,8.387404,42.199463,9.025019,-2.3668222,2.8457725,7.386331
1.536,8.070448,41.954884,7.873852,-2.2339191,2.9997768,7.4473286
1.538,7.7546697,41.71057,6.738147,-2.1123207,3.1319942,7.4955487
1.54,7.4393044,41.46602,5.61795,-2.0013602,3.2430873,7.5310063
1.542,7.1240478,41.220757,4.513339,-1.9001145,3.334125,7.5538483
1.544,6.8091307,40.97422,3.4241755,-1.8074372,3.406637,7.5643916
1.546,6.4951954,40.725723,2.3502455,-1.7219682,3.462543,7.5631723
1.548,6.183018,40.47471,1.2910872,-1.6421888,3.504097,7.5508957
1.55,5.87447,40.220085,0.2460804,-1.5664761,3.5337582,7.52841
1.552,5.571403,39.961117,-0.78532743,-1.493196,3.5540414,7.4967117
1.554,5.2757335,39.696804,-1.8036919,-1.4208102,3.5673552,7.456842
1.556,4.9897456,39.426384,-2.8097653,-1.3479707,3.5758429,7.4098215
1.558,4.715677,39.14898,-3.804309,-1.2736082,3.5812778,7.3566346
1.56,4.455947,38.864037,-4.7881775,-1.1970165,3.5848746,7.298128
1.562,4.2130733,38.571056,-5.7622323,-1.117868,3.5872602,7.2350035
1.564,3.9894958,38.26979,-6.727025,-1.0361736,3.5885296,7.167862
1.566,3.7874875,37.960175,-7.6830883,-0.95225716,3.588305,7.0971346
1.568,3.6091652,37.642365,-8.630602,-0.86672854,3.5856788,7.0230722
1.57,3.456399,37.31652,-9.569648,-0.78042006,3.5792613,6.9457254
1.572,3.3305044,36.982773,-10.499846,-0.6942699,3.5674143,6.864998
1.574,3.232337,36.64163,-11.421022,-0.6092117,3.5483527,6.7806463
1.576,3.161992,36.293793,-12.332685,-0.5260987,3.5202851,6.6922483
1.578,3.1191597,35.940018,-13.233852,-0.4456097,3.4815044,6.5992002
1.58,3.103119,35.58114,-14.123334,-0.3682015,3.4305224,6.500761
1.582,3.1126127,35.21795,-14.999544,-0.29408848,3.3660865,6.396054
1.584,3.1460505,34.851067,-15.860651,-0.22327018,3.2872243,6.2840877
1.586,3.2012272,34.481445,-16.704731,-0.15551305,3.1932356,6.1638308
1.588,3.275362,34.109818,-17.529413,-0.09045315,3.0836396,6.034297
1.59,3.3653011,33.737114,-18.331879,-0.027649641,2.9581466,5.8946104
1.592,3.4681444,33.36432,-19.10947,0.03335929,2.8165417,5.744069
1.594,3.5808306,32.99224,-19.85929,0.09296203,2.658627,5.582233
1.596,3.7001915,32.621666,-20.578176,0.1514144,2.484172,5.408998
1.598,3.822836,32.253174,-21.262861,0.20883632,2.2928648,5.2246037
1.6,3.945406,31.887287,-21.910069,0.2652043,2.0843577,5.0296526
1.602,4.0649023,31.52468,-22.516335,0.32035208,1.8582774,4.8251076
1.604,4.178562,31.16583,-23.07842,0.37403083,1.6142944,4.6122913
1.606,4.283762,30.811087,-23.592789,0.42594743,1.3521789,4.392811
1.608,4.37854,30.460762,-24.056143,0.47584856,1.0719378,4.168482
1.61,4.4611397,30.115133,-24.465473,0.5235445,0.77385986,3.9412465
1.612,4.530283,29.774595,-24.817776,0.5689475,0.45860052,3.7130923
1.614,4.5850124,29.439604,-25.110697,0.6121176,0.12722456,3.4860036
1.616,4.6247587,29.110445,-25.341957,0.6532523,-0.2187959,3.2618718
1.618,4.649188,28.787697,-25.509932,0.6926732,-0.57765925,3.0423942
1.62,4.658183,28.471792,-25.613348,0.7307944,-0.94728696,2.8290339
1.622,4.6523304,28.163357,-25.651371,0.7681266,-1.3253956,2.6229787
1.624,4.6325407,27.86288,-25.62355,0.80526936,-1.7095599,2.425139
1.626,4.5998173,27.570984,-25.530104,0.8428736,-2.097335,2.2361276
1.628,4.5554304,27.288147,-25.371536,0.881586,-2.486353,2.0562603
1.63,4.500844,27.01491,-25.149132,0.9220393,-2.8743963,1.8855875
1.632,4.4374743,26.751736,-24.86459,0.96482193,-3.2594466,1.7239116
1.634,4.366873,26.499275,-24.52005,1.0104796,-3.6396952,1.5708116
1.636,4.2908688,26.257942,-24.118038,1.0595148,-4.013527,1.4257196
1.638,4.2109165,26.028103,-23.66135,1.1123614,-4.3795238,1.28799
1.64,4.128645,25.81017,-23.152908,1.1694132,-4.736435,1.1569183
1.642,4.045533,25.604294,-22.596048,1.2310278,-5.0830936,1.0317668
1.644,3.9627304,25.410793,-21.994104,1.2975345,-5.418416,0.91184354
1.646,3.8815985,25.229988,-21.35074,1.3692017,-5.741356,0.7964983
1.648,3.8031454,25.062088,-20.669628,1.4462471,-6.0509467,0.68515825
1.65,3.7285414,24.90721,-19.95466,1.5288125,-6.3462596,0.5773177
1.652,3.6587439,24.765152,-19.209845,1.616962,-6.6264143,0.47255754
1.654,3.5944405,24.635983,-18.438927,1.7106534,-6.890677,0.3705504
1.656,3.536128,24.519619,-17.645466,1.8097539,-7.138442,0.27102327
1.658,3.4842405,24.415848,-16.83302,1.9140188,-7.369269,0.17376137
1.66,3.4387255,24.32428,-16.004953,2.0231087,-7.582879,0.07861543
1.662,3.399701,24.244602,-15.164517,2.1365829,-7.7792253,-0.014493942
1.664,3.3670979,24.176332,-14.314825,2.253909,-7.9584684,-0.10561752
1.666,3.3408532,24.118965,-13.458751,2.3744988,-8.12095,-0.1947825
1.668,3.320858,24.071941,-12.5991125,2.4977088,-8.267197,-0.28202462
1.67,3.306652,24.034634,-11.73855,2.6228771,-8.397869,-0.3673885
1.672,3.2981882,24.006222,-10.879372,2.7493324,-8.513744,-0.45090842
1.674,3.295113,23.98593,-10.023769,2.876444,-8.615675,-0.53264904
1.676,3.2970428,23.97316,-9.173601,3.003621,-8.704563,-0.6126566
1.678,3.3034902,23.967186,-8.330723,3.1303403,-8.781326,-0.6910062
1.68,3.314237,23.967184,-7.4966817,3.2561378,-8.846855,-0.76775575
1.682,3.3288631,23.972513,-6.6729217,3.3806372,-8.9020195,-0.8429527
1.684,3.3471413,23.982512,-5.8605123,3.5035381,-8.947598,-0.91660523
1.686,3.368937,23.99644,-5.060425,3.6245885,-8.984299,-0.9887011
1.688,3.3938303,24.013721,-4.273281,3.7435648,-9.012749,-1.0591893
1.69,3.4217129,24.033785,-3.4997416,3.8602738,-9.033501,-1.1279786
1.692,3.4525924,24.05602,-2.7403193,3.9745302,-9.047066,-1.1949568
1.694,3.4863243,24.079916,-1.9952722,4.0861344,-9.053929,-1.2599833
1.696,3.5228143,24.104984,-1.2648292,4.194888,-9.05456,-1.3229117
1.698,3.5621278,24.130846,-0.54923844,4.3005586,-9.049436,-1.3835969
1.7,3.6041586,24.157053,0.15136075,4.402901,-9.039057,-1.4419367
1.702,3.648937,24.18313,0.83704543,4.5016327,-9.023964,-1.4978781
1.704,3.6965318,24.208733,1.5077748,4.596444,-9.004743,-1.551445
1.706,3.7468915,24.233486,2.1635506,4.686996,-8.981998,-1.6027246
1.708,3.8003168,24.257053,2.8045652,4.7729316,-8.956357,-1.6519101
1.71,3.8569624,24.278843,3.4309125,4.8538704,-8.928452,-1.6992669
1.712,3.9168057,24.298454,4.0425787,4.929438,-8.898898,-1.7451422
1.714,3.979835,24.31554,4.6400304,4.9992905,-8.868284,-1.7899129
1.716,4.046636,24.329483,5.2233505,5.0631294,-8.837113,-1.8339901
1.718,4.1170707,24.340313,5.7927413,5.120718,-8.805779,-1.8777509
1.72,4.191186,24.34774,6.348478,5.171915,-8.774546,-1.921535
1.722,4.269373,24.351347,6.890487,5.2166724,-8.74353,-1.9655664
1.724,4.352067,24.350782,7.4190135,5.255054,-8.712704,-2.0099597
1.726,4.4395046,24.345943,7.934145,5.2872233,-8.681878,-2.054723
1.728,4.5320473,24.33665,8.435791,5.313442,-8.650729,-2.099765
1.73,4.6302733,24.322727,8.923879,5.334061,-8.618817,-2.1449304
1.732,4.73456,24.30404,9.398365,5.349489,-8.5856,-2.1899765
1.734,4.845314,24.280401,9.858833,5.3601694,-8.550465,-2.23463
1.736,4.9633555,24.25165,10.30514,5.3665843,-8.512755,-2.2786493
1.738,5.089202,24.217793,10.736693,5.3692217,-8.471786,-2.3218975
1.74,5.22352,24.178629,11.15316,5.368548,-8.426841,-2.364337
1.742,5.3669415,24.134071,11.55403,5.3650274,-8.377182,-2.406034
1.744,5.5201645,24.084036,11.938602,5.359108,-8.3221035,-2.4471617
1.746,5.683794,24.0283,12.306378,5.3511825,-8.261042,-2.4879875
1.748,5.8583927,23.96657,12.656584,5.3416348,-8.193441,-2.5288887
1.75,6.044609,23.898655,12.988415,5.330825,-8.11882,-2.5703614
1.752,6.2427673,23.824282,13.301389,5.3190618,-8.036885,-2.612978
1.754,6.4534163,23.743183,13.594658,5.3065777,-7.947535,-2.6573157
1.756,6.676582,23.654963,13.867794,5.2935467,-7.8508177,-2.7039342
1.758,6.912627,23.559147,14.120227,5.280052,-7.746922,-2.753325
1.76,7.161425,23.455462,14.351622,5.266087,-7.636141,-2.8059227
1.762,7.422774,23.343527,14.561659,5.2515335,-7.5188236,-2.861998
1.764,7.6964808,23.222883,14.750003,5.236191,-7.3953595,-2.9217038
1.766,7.982032,23.09327,14.916403,5.2197614,-7.2661605,-2.985065
1.768,8.278832,22.95431,15.060635,5.201872,-7.131574,-3.0519786
1.77,8.586124,22.806026,15.182823,5.182123,-6.9919176,-3.122232
1.772,8.902941,22.64804,15.282833,5.1600995,-6.8474784,-3.1955578
1.774,9.228304,22.480207,15.360862,5.135402,-6.698509,-3.2716467
1.776,9.5608835,22.30243,15.417069,5.107717,-6.5452147,-3.3501806
1.778,9.899186,22.11479,15.451742,5.076832,-6.3877363,-3.4308383
1.78,10.241898,21.917202,15.465343,5.0426874,-6.2261734,-3.5132735
1.782,10.587282,21.709805,15.458375,5.005421,-6.0605636,-3.5971112
1.784,10.933542,21.492785,15.431387,4.965333,-5.890903,-3.6819463
1.786,11.278865,21.26641,15.3850765,4.922916,-5.717134,-3.767352
1.788,11.621855,21.030668,15.320264,4.8788185,-5.5391617,-3.8528733
1.79,11.960659,20.785767,15.238141,4.8337545,-5.3568697,-3.9380045
1.792,12.293499,20.531977,15.139858,4.788477,-5.1701927,-4.0222306
1.794,12.618471,20.269691,15.026683,4.743698,-4.979189,-4.1050787
1.796,12.933781,19.999557,14.899935,4.699975,-4.784084,-4.186149
1.798,13.237971,19.722214,14.760838,4.6576605,-4.5852933,-4.2651134
1.8,13.52938,19.438398,14.610821,4.6169147,-4.3834233,-4.3417034
1.802,13.8064995,19.148994,14.451573,4.577589,-4.1794024,-4.4156785
1.804,14.068159,18.855125,14.284656,4.539272,-3.9744258,-4.486795
1.806,14.313451,18.557686,14.111812,4.5013576,-3.7697606,-4.554842
1.808,14.541307,18.25787,13.9348955,4.4631104,-3.5667496,-4.6195927
1.81,14.751082,17.957123,13.755613,4.42368,-3.3668077,-4.6808233
1.812,14.942366,17.656754,13.575523,4.3822083,-3.1713402,-4.738291
1.814,15.114805,17.357967,13.39626,4.337943,-2.9816341,-4.791743
1.816,15.268742,17.061901,13.21926,4.2902985,-2.7987719,-4.8410187
1.818,15.404012,16.769947,13.045894,4.2388453,-2.6236873,-4.886036
1.82,15.521259,16.483356,12.877273,4.1833653,-2.457166,-4.9268303
1.822,15.621288,16.203161,12.714534,4.1238623,-2.2998662,-4.963598
1.824,15.704698,15.930361,12.558307,4.060554,-2.1522768,-4.996675
1.826,15.7724695,15.665846,12.4092655,3.9938486,-2.0147297,-5.026563
1.828,15.825778,15.409866,12.267855,3.9242876,-1.8874617,-5.0539117
1.83,15.865925,15.16293,12.134415,3.8524652,-1.7706435,-5.079462
1.832,15.893817,14.925386,12.009238,3.778988,-1.664398,-5.1039863
1.834,15.910847,14.697386,11.8921175,3.7044082,-1.5688081,-5.128246
1.836,15.918238,14.478754,11.782934,3.629177,-1.483926,-5.1529417
1.838,15.91728,14.269186,11.681405,3.5536332,-1.4097939,-5.178656
1.84,15.909161,14.068356,11.587254,3.4779932,-1.3464158,-5.2058535
1.842,15.895024,13.875765,11.499747,3.4023485,-1.2937566,-5.234839
1.844,15.875888,13.690937,11.418525,3.326694,-1.2517251,-5.265784
1.846,15.852718,13.513157,11.3429365,3.2509851,-1.2201496,-5.298722
1.848,15.826272,13.341841,11.272331,3.175175,-1.1987336,-5.333595
1.85,15.797311,13.176316,11.20606,3.099262,-1.187056,-5.3702884
1.852,15.766532,13.015862,11.143534,3.023306,-1.184591,-5.408655
1.854,15.734444,12.859819,11.084234,2.9474244,-1.1907161,-5.4485083
1.856,15.701448,12.707676,11.027587,2.871827,-1.2047405,-5.4896398
1.858,15.667833,12.558964,10.973213,2.7967627,-1.2259115,-5.5318217
1.86,15.634053,12.413192,10.920775,2.7225068,-1.2534533,-5.5747805
1.862,15.600304,12.270117,10.869833,2.6493008,-1.2865663,-5.618238
1.864,15.566626,12.129432,10.820027,2.5773773,-1.3244611,-5.661865
1.866,15.533262,11.990908,10.771073,2.506938,-1.3663186,-5.7052712
1.868,15.500342,11.8543625,10.722588,2.4381182,-1.41135,-5.7480364
1.87,15.4679365,11.719574,10.674329,2.3709855,-1.4587965,-5.7897043
1.872,15.436235,11.586371,10.626177,2.3056161,-1.5078785,-5.8298225
1.874,15.405176,11.454718,10.577993,2.2420466,-1.5578222,-5.8679447
1.876,15.3748865,11.324451,10.52972,2.1802602,-1.6079581,-5.903688
1.878,15.3453665,11.195562,10.48135,2.1202173,-1.6577187,-5.936715
1.88,15.316712,11.067977,10.432701,2.0618546,-1.7066491,-5.966747
1.882,15.289069,10.941596,10.38377,2.0051181,-1.7543862,-5.9935436
1.884,15.26239,10.816432,10.334325,1.9499705,-1.800658,-6.016983
1.886,15.236785,10.692573,10.28437,1.896369,-1.8452511,-6.0370064
1.888,15.212406,10.570007,10.233788,1.8443042,-1.8880348,-6.053638
1.89,15.189314,10.448786,10.182599,1.7937545,-1.9289037,-6.0669665
1.892,15.167549,10.329079,10.130816,1.7447073,-1.9677789,-6.0771465
1.894,15.147377,10.21106,10.078359,1.6971536,-2.0046155,-6.0843525
1.896,15.128927,10.094788,10.025177,1.6510851,-2.0393856,-6.088786
1.898,15.111842,9.980835,9.971313,1.6064937,-2.072051,-6.090647
1.9,15.096457,9.869641,9.916518,1.5633487,-2.102593,-6.0901175
1.902,15.082916,9.761455,9.860865,1.5216262,-2.1310215,-6.087352
1.904,15.071526,9.6566,9.804415,1.4812939,-2.1573508,-6.0824504
1.906,15.062427,9.555239,9.747427,1.4423091,-2.1816103,-6.075484
1.908,15.055624,9.457701,9.689977,1.4046434,-2.203863,-6.066511
1.91,15.051263,9.364398,9.63231,1.3682549,-2.2242017,-6.0555615
1.912,15.049696,9.275619,9.574421,1.3330898,-2.2427297,-6.04268
1.914,15.05094,9.1916895,9.516408,1.2990786,-2.259576,-6.027922
1.916,15.055057,9.112995,9.458215,1.2661433,-2.2749052,-6.011351
1.918,15.062312,9.039663,9.399864,1.2341709,-2.2888575,-5.9930696
1.92,15.07285,8.971916,9.3414,1.2030303,-2.301615,-5.9732065
1.922,15.086757,8.909897,9.283039,1.1725824,-2.3133516,-5.9518995
1.924,15.104137,8.853676,9.224777,1.1427151,-2.3242245,-5.9293036
1.926,15.124986,8.803404,9.16655,1.1133215,-2.3343723,-5.9055915
1.928,15.1495495,8.7588215,9.108577,1.0843213,-2.343916,-5.880933
1.93,15.177828,8.719698,9.050856,1.055659,-2.3529267,-5.85547
1.932,15.209679,8.685811,8.993418,1.0272981,-2.361456,-5.829345
1.934,15.245375,8.656639,8.936217,0.9992306,-2.3694944,-5.8026752
1.936,15.284695,8.63175,8.879132,0.9714645,-2.376993,-5.775555
1.938,15.327615,8.610647,8.822077,0.944006,-2.383839,-5.7480564
1.94,15.3741665,8.592578,8.764853,0.9168749,-2.3898985,-5.7202263
1.942,15.424223,8.576882,8.707241,0.8900728,-2.394993,-5.692099
1.944,15.477394,8.562896,8.64912,0.8635999,-2.3989322,-5.6637063
1.946,15.533798,8.549893,8.590124,0.8374401,-2.4015179,-5.6350718
1.948,15.593138,8.537103,8.530092,0.8115443,-2.402557,-5.6062407
1.95,15.655221,8.523771,8.468625,0.7858287,-2.401873,-5.5772514
1.952,15.719749,8.509143,8.405574,0.76019084,-2.3993397,-5.548156
1.954,15.786652,8.492455,8.340712,0.73447347,-2.3948855,-5.5190053
1.956,15.855447,8.473187,8.273726,0.708489,-2.388501,-5.489861
1.958,15.925926,8.450642,8.204522,0.6819964,-2.380247,-5.4607534
1.96,15.997868,8.424356,8.133003,0.6547278,-2.37026,-5.4317126
1.962,16.070868,8.394011,8.059036,0.6263929,-2.35874,-5.40276
1.964,16.144665,8.359212,7.982685,0.596678,-2.345956,-5.3738966
1.966,16.21904,8.319788,7.9040384,0.5652829,-2.332233,-5.3451343
1.968,16.293766,8.275583,7.823228,0.53194255,-2.3179336,-5.31649
1.97,16.368454,8.22659,7.740539,0.49642813,-2.3034284,-5.287977
1.972,16.442924,8.172869,7.6562824,0.45858324,-2.2890851,-5.2596245
1.974,16.51694,8.114643,7.5708323,0.41831785,-2.275227,-5.231471
1.976,16.590311,8.052195,7.484577,0.37562984,-2.2621176,-5.203548
1.978,16.662712,7.9858875,7.39804,0.33059537,-2.249946,-5.175859
1.98,16.73409,7.9161077,7.3117933,0.28337473,-2.2388043,-5.148402
1.982,16.804121,7.8434324,7.226263,0.23421016,-2.228685,-5.1211443
1.984,16.872684,7.7682047,7.141879,0.18338607,-2.2194695,-5.0940113
1.986,16.939665,7.6910453,7.059189,0.13122696,-2.2109766,-5.0669217
1.988,17.004955,7.6124344,6.9785485,0.07805606,-2.20296,-5.039765
1.99,17.06844,7.532773,6.9003134,0.024210654,-2.1951427,-5.012446
1.992,17.129944,7.4527836,6.8247976,-0.029995438,-2.1872401,-4.98485
1.994,17.18939,7.372959,6.752222,-0.08428178,-2.1789691,-4.956909
1.996,17.246618,7.2936926,6.682661,-0.13840649,-2.170077,-4.928546
1.998,17.301527,7.215521,6.616104,-0.19217855,-2.16036,-4.899728
2,17.353958,7.138822,6.552395,-0.24546152,-2.1496608,-4.87045
2.002,17.403896,7.063925,6.4913416,-0.29815188,-2.1378922,-4.840725
2.004,17.451149,6.991063,6.4327726,-0.3502158,-2.1250322,-4.8105903
2.006,17.49567,6.920558,6.376399,-0.40163743,-2.111092,-4.7800903
2.008,17.537361,6.8526077,6.3218145,-0.45243263,-2.0961485,-4.7492743
2.01,17.575996,6.7873487,6.268592,-0.5026534,-2.0803325,-4.718193
2.012,17.611576,6.7249713,6.216237,-0.55236804,-2.0638177,-4.686905
2.014,17.64402,6.665601,6.1643167,-0.60165656,-2.046809,-4.655456
2.016,17.673199,6.609459,6.112316,-0.6506183,-2.0295265,-4.623898
2.018,17.699194,6.556531,6.0598555,-0.69934916,-2.0122344,-4.5922837
2.02,17.721962,6.5069656,6.0064154,-0.74794567,-1.9951819,-4.5606484
2.022,17.741383,6.4607983,5.9516354,-0.7965088,-1.9785957,-4.5290346
2.024,17.75749,6.417965,5.8951454,-0.84513384,-1.9627049,-4.497489
2.026,17.770449,6.3784432,5.836628,-0.8939039,-1.9477093,-4.466034
2.028,17.780247,6.342286,5.7757664,-0.9428856,-1.9337857,-4.434692
2.03,17.78696,6.309412,5.7123094,-0.99213296,-1.921067,-4.403469
2.032,17.790602,6.279945,5.645892,-1.041686,-1.9096429,-4.3723717
2.034,17.791368,6.253927,5.5763683,-1.0915698,-1.8995845,-4.341385
2.036,17.789276,6.2311745,5.503636,-1.1417868,-1.890919,-4.3104944
2.038,17.784414,6.2117777,5.427318,-1.1923035,-1.8836569,-4.279686
2.04,17.776941,6.195804,5.347499,-1.2430804,-1.8777735,-4.2489176
2.042,17.767143,6.1831307,5.264012,-1.294046,-1.8732271,-4.218152
2.044,17.754974,6.1738205,5.1767864,-1.3451291,-1.8699813,-4.187341
2.046,17.740503,6.1677904,5.0858393,-1.3962345,-1.8679752,-4.156436
2.048,17.724121,6.1648326,4.9912014,-1.447281,-1.8671719,-4.12538
2.05,17.705694,6.164938,4.89278,-1.4981841,-1.8675389,-4.0941434
2.052,17.68553,6.1680136,4.790575,-1.548856,-1.8690609,-4.0626907
2.054,17.663664,6.173707,4.684603,-1.5992393,-1.871744,-4.031003
2.056,17.640167,6.1819615,4.574874,-1.6492871,-1.8756086,-3.9990954
2.058,17.615114,6.192583,4.4614024,-1.6989701,-1.8807175,-3.9669914
2.06,17.588612,6.2053213,4.344316,-1.7483166,-1.887152,-3.9347527
2.062,17.560713,6.219948,4.2236295,-1.7973748,-1.8950057,-3.9024525
2.064,17.531326,6.2362347,4.099344,-1.8462424,-1.9044174,-3.8701746
2.066,17.500557,6.2538953,3.9717453,-1.89505,-1.915524,-3.8380086
2.068,17.468596,6.2726555,3.8409,-1.9439634,-1.9285002,-3.806038
2.07,17.435204,6.2922535,3.7069097,-1.9931875,-1.9435247,-3.77434
2.072,17.40045,6.3124094,3.5699477,-2.0429606,-1.9607654,-3.7429647
2.074,17.36432,6.333098,3.430315,-2.0935233,-1.9804227,-3.7119362
2.076,17.32678,6.353996,3.2882128,-2.1451104,-2.0027077,-3.6812456
2.078,17.287872,6.375058,3.1438885,-2.1979437,-2.0278053,-3.6508534
2.08,17.247442,6.3962345,2.997729,-2.252226,-2.055915,-3.6207037
2.082,17.205523,6.4173503,2.849999,-2.308118,-2.0872054,-3.590708
2.084,17.16219,6.438362,2.7012076,-2.3657353,-2.121853,-3.5607836
2.086,17.117369,6.459344,2.5516293,-2.425148,-2.160004,-3.5308216
2.088,17.07109,6.480301,2.4017568,-2.4863825,-2.2017486,-3.5007324
2.09,17.023386,6.5012054,2.2519443,-2.5494263,-2.2471712,-3.470437
2.092,16.9742,6.5222273,2.102688,-2.6142366,-2.2962945,-3.4398618
2.094,16.923733,6.543391,1.9545536,-2.6807206,-2.3490767,-3.408931
2.096,16.871817,6.5647163,1.8078218,-2.748768,-2.4054108,-3.3776054
2.098,16.818579,6.586291,1.6629584,-2.8182337,-2.46512,-3.3458178
2.1,16.764061,6.6083374,1.5203972,-2.8889492,-2.5279827,-3.313515
2.102,16.708252,6.630727,1.380338,-2.9607155,-2.593693,-3.2806554
2.104,16.651293,6.6536484,1.2430711,-3.0333164,-2.661899,-3.2471774
2.106,16.593246,6.677123,1.1088256,-3.106504,-2.7321873,-3.2130282
2.108,16.534067,6.7011776,0.97783476,-3.1800313,-2.804114,-3.1781635
2.11,16.473917,6.725842,0.85013014,-3.2536297,-2.8772044,-3.1425347
2.112,16.412855,6.7511487,0.72582793,-3.3270125,-2.950943,-3.1060824
2.114,16.350864,6.7771683,0.60495174,-3.3998666,-3.0248308,-3.0687153
2.116,16.28798,6.8038125,0.48751554,-3.4719005,-3.0983622,-3.0303435
2.118,16.224318,6.8309784,0.3733102,-3.5428007,-3.1710424,-2.990858
2.12,16.159843,6.8587437,0.26226178,-3.6122718,-3.2424169,-2.9501476
2.122,16.094698,6.887052,0.15421665,-3.6800306,-3.3120513,-2.9080737
2.124,16.02876,6.9157505,0.04895827,-3.7458029,-3.379581,-2.8645144
2.126,15.962252,6.9447823,-0.053604424,-3.8093252,-3.4446917,-2.8193672
2.128,15.895031,6.974098,-0.15373671,-3.8703754,-3.507113,-2.7725568
2.13,15.827213,7.0035114,-0.251567,-3.9287543,-3.566636,-2.7240343
2.132,15.758841,7.0330305,-0.34717208,-3.9842749,-3.623112,-2.6738005
2.134,15.689958,7.0624695,-0.44072363,-4.0367785,-3.676417,-2.621887
2.136,15.620449,7.091746,-0.5322965,-4.086134,-3.7264886,-2.568365
2.138,15.550467,7.1206207,-0.62195814,-4.132226,-3.7732687,-2.5133054
2.14,15.480101,7.148964,-0.70980465,-4.174959,-3.8167138,-2.4568036
2.142,15.409332,7.1764297,-0.7957327,-4.214239,-3.856782,-2.3989427
2.144,15.338134,7.2028255,-0.87979317,-4.249989,-3.8934178,-2.339796
2.146,15.266586,7.227959,-0.9619723,-4.282135,-3.9265687,-2.2794251
2.148,15.194745,7.2515945,-1.0421844,-4.3105993,-3.956162,-2.2178733
2.15,15.122535,7.2733345,-1.1204568,-4.335299,-3.9821057,-2.1551414
2.152,15.049869,7.2929945,-1.1967257,-4.3561516,-4.004301,-2.0912583
2.154,14.976861,7.3103027,-1.2708224,-4.373062,-4.022639,-2.026235
2.156,14.903474,7.3250074,-1.3426753,-4.3859444,-4.037,-1.9600794
2.158,14.8296,7.3368845,-1.4121859,-4.394706,-4.0472927,-1.8928123
2.16,14.755315,7.3456635,-1.4793034,-4.39928,-4.0534215,-1.8244777
2.162,14.680481,7.3510504,-1.5438812,-4.399566,-4.055313,-1.7551284
2.164,14.605222,7.3529606,-1.6058528,-4.3954997,-4.0529027,-1.6848134
2.166,14.529313,7.351138,-1.6651009,-4.3870296,-4.046168,-1.6136117
2.168,14.452861,7.345372,-1.7215748,-4.374113,-4.0350895,-1.5415945
2.17,14.375665,7.335653,-1.7753632,-4.3567257,-4.019678,-1.4688259
2.172,14.297538,7.321929,-1.8265327,-4.3348675,-3.9999597,-1.395354
2.174,14.218611,7.304144,-1.8749794,-4.308546,-3.9759827,-1.3212239
2.176,14.138692,7.282322,-1.920868,-4.2777953,-3.9478145,-1.246459
2.178,14.057549,7.2566433,-1.9642131,-4.2426653,-3.9155235,-1.1710912
2.18,13.975173,7.227272,-2.0050433,-4.203235,-3.8791924,-1.09512
2.182,13.891493,7.194389,-2.0433996,-4.159581,-3.8389192,-1.0185387
2.184,13.8062725,7.1581793,-2.0795155,-4.111802,-3.794814,-0.9413403
2.186,13.7195215,7.118996,-2.1134026,-4.060015,-3.7470007,-0.86350834
2.188,13.630964,7.0771217,-2.1451347,-4.0043454,-3.695625,-0.78501123
2.19,13.54068,7.0329885,-2.174966,-3.9449143,-3.640829,-0.70584786
2.192,13.448358,6.987038,-2.2029736,-3.8818545,-3.5827866,-0.6260041
2.194,13.353974,6.939653,-2.2294478,-3.815301,-3.5216799,-0.5454893
2.196,13.257279,6.8913217,-2.2544923,-3.7453685,-3.4577012,-0.4643056
2.198,13.158406,6.842476,-2.2783918,-3.6721852,-3.3910308,-0.38245732
2.2,13.056946,6.793664,-2.3014462,-3.5958555,-3.3218262,-0.2999501
2.202,12.95293,6.74524,-2.323835,-3.5164645,-3.2502537,-0.21680158
2.204,12.846155,6.6975737,-2.3458583,-3.434084,-3.1764224,-0.13302854
2.206,12.7368145,6.651128,-2.3677418,-3.3487587,-3.1003933,-0.048618674
2.208,12.624763,6.6062274,-2.3898895,-3.2605133,-3.0222044,0.036433816
2.21,12.509679,6.563123,-2.412657,-3.1693714,-2.9418359,0.122127354
2.212,12.391252,6.522269,-2.436308,-3.0753605,-2.8592272,0.20845711
2.214,12.269156,6.4838114,-2.4611857,-2.9785016,-2.7743,0.2954254
2.216,12.1432295,6.4480624,-2.4877183,-2.878856,-2.6869655,0.3830265
2.218,12.013207,6.415125,-2.5161483,-2.776516,-2.5971415,0.47124156
2.22,11.878377,6.3852615,-2.5466952,-2.671609,-2.5047808,0.5600581
2.222,11.738405,6.3585443,-2.5795894,-2.5642986,-2.4098701,0.64946353
2.224,11.592674,6.3350673,-2.6150157,-2.4547942,-2.31246,0.73943245
2.226,11.440368,6.3149285,-2.6530917,-2.343346,-2.212675,0.82995176
2.228,11.280774,6.298207,-2.6937408,-2.2302423,-2.1106873,0.92099917
2.23,11.113178,6.2848344,-2.73692,-2.1157796,-2.0067015,1.0125414
2.232,10.936402,6.2750864,-2.7823994,-2.000267,-1.9009575,1.1045575
2.234,10.749456,6.2690325,-2.8299093,-1.8840164,-1.7936995,1.1970007
2.236,10.551428,6.266618,-2.8790486,-1.767347,-1.6851406,1.2898202
2.238,10.341485,6.2678757,-2.9292612,-1.6505334,-1.575402,1.3829901
2.24,10.118469,6.272878,-2.9799004,-1.5338207,-1.4644957,1.4764748
2.242,9.88146,6.2816772,-3.0304394,-1.4173867,-1.352294,1.5702472
2.244,9.62977,6.2943745,-3.080112,-1.3013525,-1.2385193,1.6643314
2.246,9.362792,6.3109565,-3.1280448,-1.185765,-1.1227293,1.7587671
2.248,9.080008,6.3314905,-3.1734931,-1.0705765,-1.004357,1.8536229
2.25,8.781302,6.355862,-3.21558,-0.95569193,-0.88266534,1.9489895
2.252,8.466861,6.3840694,-3.253631,-0.84092814,-0.756801,2.0449595
2.254,8.13705,6.41585,-3.2866817,-0.72605276,-0.625817,2.1416578
2.256,7.7924953,6.451173,-3.3141477,-0.6107993,-0.48866785,2.2392306
2.258,7.434499,6.489588,-3.3354416,-0.49488032,-0.3443011,2.3378038
2.26,7.0644503,6.5309057,-3.3500519,-0.3780021,-0.19167757,2.437522
2.262,6.6843443,6.5743985,-3.3575091,-0.25989902,-0.029800534,2.538517
2.264,6.2962375,6.619669,-3.3576102,-0.14031246,0.14221871,2.640898
2.266,5.902769,6.666214,-3.350397,-0.019042403,0.32512736,2.7447493
2.268,5.5067525,6.7134485,-3.3361769,0.104050726,0.5194801,2.85015
2.27,5.1113844,6.7602625,-3.3150253,0.22902808,0.7256318,2.9571898
2.272,4.719962,6.806037,-3.287469,0.3558834,0.94373,3.0659482
2.274,4.336187,6.8500166,-3.2537951,0.48453572,1.1737132,3.1764874
2.276,3.9634206,6.8911505,-3.2145228,0.6147914,1.4153365,3.2888675
2.278,3.605989,6.928065,-3.1708467,0.7464151,1.6681854,3.4031322
2.28,3.2675526,6.959817,-3.1231518,0.8790937,1.9316763,3.519297
2.282,2.9519632,6.9856215,-3.071988,1.0124781,2.2050762,3.6373355
2.284,2.662861,7.004485,-3.0184724,1.1461872,2.487517,3.7571678
2.286,2.4039528,7.0156226,-2.9632783,1.2798216,2.777999,3.8786304
2.288,2.178481,7.0184,-2.9070277,1.412979,3.075391,4.001481
2.29,1.989207,7.012285,-2.8504066,1.5452744,3.3783607,4.1254077
2.292,1.83839,6.996816,-2.7940278,1.6763277,3.6853957,4.2500296
2.294,1.7284267,6.971505,-2.7382503,1.8057795,3.994833,4.3749237
2.296,1.6608269,6.9363003,-2.6836743,1.9332763,4.304872,4.4995604
2.298,1.6363858,6.8913565,-2.630525,2.0585084,4.613573,4.623392
2.3,1.6559488,6.8368444,-2.5792108,2.1811793,4.9189305,4.745861
2.302,1.7195972,6.7731705,-2.5300035,2.3010213,5.2189255,4.866404
2.304,1.826791,6.7009134,-2.4831228,2.417824,5.511563,4.9845004
2.306,1.9766572,6.620681,-2.4389644,2.5313668,5.795011,5.0995693
2.308,2.167574,6.533329,-2.3978868,2.6413522,6.0675383,5.21098
2.31,2.3976903,6.439874,-2.3603396,2.7474756,6.3275423,5.3181734
2.312,2.6645167,6.341527,-2.3268857,2.8493974,6.5737057,5.420581
2.314,2.9651725,6.239548,-2.2982635,2.9467094,6.8049355,5.5176163
2.316,3.2962077,6.135151,-2.275322,3.03895,7.020297,5.608798
2.318,3.6544354,6.0296426,-2.2588983,3.1256328,7.2190747,5.6937723
2.32,4.036293,5.9244337,-2.250142,3.2062628,7.400756,5.7722855
2.322,4.4380164,5.8209085,-2.2501602,3.280343,7.56496,5.844243
2.324,4.855849,5.7203674,-2.2603087,3.3474665,7.7113914,5.909811
2.326,5.285738,5.6242914,-2.281887,3.407353,7.83988,5.969431
2.328,5.724034,5.533964,-2.3164515,3.4599392,7.950342,6.0238223
2.33,6.16734,5.450376,-2.3654342,3.5054018,8.042773,6.073825
2.332,6.612127,5.3747215,-2.4303575,3.544147,8.117279,6.120433
2.334,7.055518,5.3077645,-2.5126832,3.5768864,8.17411,6.1646748
2.336,7.49473,5.2503266,-2.6137319,3.604534,8.213628,6.2075086
2.338,7.9272146,5.203016,-2.7348247,3.6281652,8.236242,6.2497206
2.34,8.350868,5.1660805,-2.8769743,3.6489205,8.242441,6.291847
2.342,8.764106,5.139653,-3.0411186,3.6678946,8.232707,6.3340855
2.344,9.165627,5.1237154,-3.2277844,3.6859908,8.207472,6.376273
2.346,9.55435,5.1179924,-3.437251,3.7037919,8.166957,6.417881
2.348,9.929717,5.121895,-3.6693902,3.721463,8.111094,6.4580507
2.35,10.291512,5.134609,-3.9237146,3.7386901,8.039502,6.495676
2.352,10.639837,5.155143,-4.1992397,3.754667,7.9514875,6.5293703
2.354,10.974902,5.182487,-4.494537,3.768131,7.8460064,6.55762
2.356,11.297199,5.2155294,-4.807863,3.7774398,7.721754,6.5788274
2.358,11.607503,5.2530174,-5.1370726,3.7807133,7.5772877,6.5914383
2.36,11.906343,5.293787,-5.4795036,3.7760177,7.411102,6.594081
2.362,12.194617,5.336716,-5.832184,3.7615438,7.221948,6.58564
2.364,12.473338,5.3808017,-6.191828,3.7356975,7.008875,6.5652623
2.366,12.74342,5.424955,-6.554806,3.6972754,6.771295,6.5325336
2.368,13.005531,5.4684663,-6.917429,3.6455975,6.509203,6.487507
2.37,13.260789,5.5106387,-7.2757397,3.580524,6.223223,6.4306526
2.372,13.509783,5.551242,-7.62585,3.50248,5.9145536,6.362898
2.374,13.753298,5.589936,-7.963892,3.4124188,5.5849843,6.285578
2.376,13.99184,5.6266613,-8.285875,3.3117454,5.236841,6.2002983
2.378,14.225985,5.661602,-8.588157,3.2021546,4.8728824,6.108831
2.38,14.456101,5.6955233,-8.867455,3.0855055,4.496119,6.0130315
2.382,14.682446,5.728798,-9.120783,2.9636807,4.10971,5.914743
2.384,14.904973,5.762125,-9.345776,2.8385503,3.7168593,5.815715
2.386,15.124302,5.796562,-9.540266,2.7118332,3.320647,5.7174563
2.388,15.339685,5.8334637,-9.702126,2.5849926,2.9239388,5.6212077
2.39,15.551357,5.8737164,-9.830428,2.459262,2.5293164,5.5279245
2.392,15.758974,5.918057,-9.924588,2.3355813,2.1390324,5.4383087
2.394,15.96211,5.9678416,-9.984143,2.2146344,1.7549478,5.352808
2.396,16.160295,6.0239277,-10.00936,2.0968294,1.3785565,5.2717123
2.398,16.353188,6.0872803,-10.001144,1.9823738,1.0110211,5.195156
2.4,16.540545,6.158688,-9.96045,1.8713024,0.65318173,5.1232114
2.402,16.721977,6.2390995,-9.888665,1.7635264,0.30560863,5.055887
2.404,16.89699,6.3294516,-9.787495,1.6588668,-0.031375647,4.9932094
2.406,17.065012,6.43027,-9.658487,1.5570992,-0.3576624,4.9351616
2.408,17.225924,6.5418773,-9.503917,1.4579775,-0.67330647,4.8817186
2.41,17.37869,6.6647463,-9.325679,1.3612742,-0.97850096,4.8328223
2.412,17.523052,6.799137,-9.126113,1.2667782,-1.2735816,4.788357
2.414,17.658363,6.945236,-8.907398,1.1743139,-1.558939,4.748136
2.416,17.784355,7.103236,-8.671684,1.0837351,-1.8350618,4.7118454
2.418,17.900444,7.273181,-8.421021,0.9949295,-2.1024797,4.679064
2.42,18.00648,7.455038,-8.157435,0.9077958,-2.3617346,4.649252
2.422,18.102047,7.6487465,-7.882967,0.8222674,-2.6134145,4.621783
2.424,18.186756,7.8542566,-7.5993905,0.7382939,-2.8581388,4.595951
2.426,18.260561,8.0714445,-7.308286,0.6558608,-3.0965152,4.570985
2.428,18.32306,8.300186,-7.0112333,0.5750053,-3.3291821,4.5461364
2.43,18.37423,8.540317,-6.70955,0.49578273,-3.556763,4.520698
2.432,18.414051,8.791662,-6.4044333,0.4183154,-3.7798662,4.4940186
2.434,18.442192,9.054302,-6.096856,0.34272504,-3.9990976,4.4655156
2.436,18.458767,9.32794,-5.787596,0.26916444,-4.2150154,4.434713
2.438,18.46358,9.612585,-5.47726,0.19778252,-4.428151,4.401263
2.44,18.456652,9.90826,-5.16633,0.12873018,-4.6389866,4.364898
2.442,18.438095,10.214796,-4.8550615,0.062174797,-4.8479185,4.3254623
2.444,18.4078,10.532306,-4.5436554,-0.0017375946,-5.0552797,4.282885
2.446,18.365902,10.8605385,-4.23199,-0.06287074,-5.2613077,4.237143
2.448,18.312393,11.199366,-3.9198427,-0.121121645,-5.466155,4.188281
2.45,18.247162,11.548895,-3.6069486,-0.17638302,-5.669884,4.1363344
2.452,18.170345,11.908682,-3.2929537,-0.22856188,-5.872422,4.081363
2.454,18.08189,12.278507,-2.9772954,-0.27757835,-6.07359,4.0234246
2.456,17.98166,12.658185,-2.6594808,-0.32333875,-6.273082,3.9626238
2.458,17.86958,13.047479,-2.338882,-0.36571503,-6.4704714,3.8990834
2.46,17.745516,13.445931,-2.0147848,-0.40454555,-6.665236,3.832984
2.462,17.609291,13.853016,-1.6865902,-0.43959308,-6.856768,3.764574
2.464,17.46082,14.268081,-1.3535166,-0.47054982,-7.04439,3.6941943
2.466,17.29993,14.690205,-1.0147967,-0.49700952,-7.2273674,3.6222675
2.468,17.126514,15.118571,-0.669646,-0.5184932,-7.4049845,3.549344
2.47,16.940578,15.552078,-0.31744504,-0.53444743,-7.5765405,3.4760609
2.472,16.741842,15.989435,0.04248047,-0.54425144,-7.741366,3.40314
2.474,16.530268,16.429287,0.4106865,-0.54723644,-7.8988724,3.3313756
2.476,16.305794,16.870203,0.7877135,-0.5427122,-8.048491,3.2615933
2.478,16.068466,17.31061,1.1740081,-0.52997875,-8.189703,3.1946216
2.48,15.818136,17.74889,1.5695462,-0.50834274,-8.3220215,3.1312807
2.482,15.554984,18.18321,1.9745846,-0.47716737,-8.444977,3.0723386
2.484,15.2792225,18.6116,2.3890014,-0.43585396,-8.558073,3.0185072
2.486,14.991133,19.032097,2.8123293,-0.38390207,-8.660801,2.970439
2.488,14.691281,19.442482,3.2440062,-0.3209114,-8.752619,2.9287019
2.49,14.380076,19.840584,3.6834416,-0.24662971,-8.832966,2.8938017
2.492,14.058111,20.224358,4.129815,-0.1609497,-8.901253,2.8661685
2.494,13.726261,20.591438,4.581937,-0.063930035,-8.95689,2.846151
2.496,13.385309,20.939663,5.0382824,0.04418993,-8.999326,2.8340116
2.498,13.036341,21.266733,5.497362,0.1630044,-9.028047,2.8299417
2.5,12.680552,21.570543,5.957345,0.29195738,-9.042578,2.8340836
2.502,12.31924,21.849026,6.416315,0.43034315,-9.042513,2.8465257
2.504,11.953804,22.100014,6.8722477,0.5773382,-9.027534,2.8673072
2.506,11.585727,22.321716,7.3229694,0.73204803,-8.997399,2.8964112
2.508,11.216633,22.512455,7.766277,0.8935056,-8.951918,2.9337406
2.51,10.848072,22.670612,8.199879,1.0607147,-8.890994,2.9790742
2.512,10.48176,22.79483,8.621457,1.2326546,-8.814575,3.032068
2.514,10.119329,22.884068,9.028698,1.4083264,-8.722619,3.0922725
2.516,9.762564,22.937387,9.419392,1.5867627,-8.61511,3.1590967
2.518,9.413143,22.954445,9.791599,1.7670271,-8.4921255,3.2318525
2.52,9.072821,22.93475,10.143488,1.9482293,-8.353804,3.3097444
2.522,8.742943,22.878435,10.473467,2.1295402,-8.200321,3.391863
2.524,8.42502,22.785648,10.780062,2.3101897,-8.031963,3.477253
2.526,8.120267,22.656994,11.062158,2.4894676,-7.8491693,3.5649104
2.528,7.8299036,22.493286,11.318655,2.6667378,-7.6525097,3.6538029
2.53,7.5548973,22.295277,11.548988,2.8414595,-7.442707,3.7429175
2.532,7.2959795,22.064114,11.752832,3.0131814,-7.2206335,3.8313043
2.534,7.053721,21.801361,11.929965,3.1815777,-6.987252,3.918112
2.536,6.828382,21.508755,12.080666,3.346421,-6.7436295,4.002563
2.538,6.61989,21.188164,12.205263,3.5075881,-6.4908752,4.0840044
2.54,6.4280567,20.841463,12.3043785,3.6650324,-6.23011,4.1618614
2.542,6.252494,20.470762,12.37878,3.8187468,-5.9624434,4.235669
2.544,6.092787,20.078026,12.429569,3.968746,-5.6889467,4.3050346
2.546,5.947829,19.665468,12.457846,4.1150074,-5.4106603,4.369609
2.548,5.816638,19.235184,12.464863,4.2574687,-5.1285458,4.429097
2.55,5.6980553,18.78934,12.452155,4.3960166,-4.8435173,4.4832554
2.552,5.5905924,18.330036,12.421221,4.5304365,-4.556397,4.5318837
2.554,5.4929256,17.859264,12.373814,4.6604404,-4.26795,4.574868
2.556,5.40334,17.379145,12.311533,4.7856755,-3.9788766,4.6121836
2.558,5.320281,16.891726,12.236035,4.905694,-3.6897779,4.643923
2.56,5.241974,16.398983,12.148861,5.0200167,-3.4011464,4.6703053
2.562,5.166683,15.903272,12.051643,5.1281347,-3.1133945,4.691771
2.564,5.0927877,15.406609,11.945606,5.229493,-2.826851,4.708967
2.566,5.0184574,14.91095,11.83212,5.323561,-2.541763,4.7227173
2.568,4.9422016,14.418296,11.712354,5.4098015,-2.258291,4.733987
2.57,4.862644,13.930648,11.587218,5.487709,-1.9765246,4.74388
2.572,4.7784534,13.449809,11.457621,5.556809,-1.6964347,4.7535715
2.574,4.6884627,12.977675,11.324119,5.6167083,-1.4179401,4.764337
2.576,4.591698,12.516152,11.187101,5.6670685,-1.1409343,4.7774324
2.578,4.487299,12.066916,11.046714,5.707646,-0.8652264,4.79403
2.58,4.374705,11.63167,10.902884,5.738282,-0.590575,4.8151517
2.582,4.2536216,11.212064,10.755327,5.758898,-0.31671405,4.8415966
2.584,4.1237683,10.80955,10.603535,5.7695,-0.043400206,4.8738346
2.586,3.9851828,10.425364,10.446808,5.770184,0.22958224,4.911968
2.588,3.8381338,10.060642,10.284161,5.7610917,0.50240415,4.955734
2.59,3.6829603,9.716238,10.114678,5.7424197,0.77516323,5.0044703
2.592,3.5202913,9.392858,9.936981,5.714384,1.0478297,5.057143
2.594,3.3507109,9.091075,9.749949,5.6772385,1.3201818,5.1124067
2.596,3.1750612,8.811014,9.552295,5.6312413,1.5918022,5.1686983
2.598,2.9939756,8.552768,9.342858,5.5766506,1.8619779,5.2243667
2.6,2.8087344,8.315956,9.120108,5.5136967,2.1296682,5.277773
2.602,2.6203513,8.099868,8.883001,5.442621,2.3934557,5.3273926
2.604,2.4297132,7.9037166,8.630725,5.3636546,2.651575,5.3718553
2.606,2.2378516,7.726368,8.362731,5.277036,2.9019034,5.409966
2.608,2.0457678,7.566633,8.078661,5.182995,3.1420584,5.440719
2.61,1.8545072,7.423031,7.778318,5.081753,3.3694727,5.4632573
2.612,1.665037,7.2940016,7.462006,4.973509,3.58148,5.4768486
2.614,1.4781159,7.1780276,7.1301403,4.8584247,3.7754514,5.4808135
2.616,1.2947326,7.0733438,6.7837677,4.7366495,3.9489393,5.474532
2.618,1.1154284,6.978256,6.4241457,4.60831,4.0997853,5.4574666
2.62,0.9410814,6.891161,6.0527987,4.473466,4.226161,5.429223
2.622,0.7721802,6.81031,5.6716275,4.3322053,4.3266582,5.3895717
2.624,0.609148,6.7340612,5.282631,4.18463,4.4003487,5.3384914
2.626,0.45246148,6.6610103,4.8882275,4.030868,4.4467607,5.2761536
2.628,0.30259037,6.589708,4.4907947,3.8710918,4.4658685,5.202942
2.63,0.15982056,6.519033,4.092802,3.705533,4.4580483,5.119449
2.632,0.024374962,6.448013,3.6969185,3.534482,4.4240165,5.026416
2.634,-0.10381949,6.375884,3.3059175,3.3582811,4.364749,4.9246635
2.636,-0.22451198,6.3018546,2.9226043,3.1773653,4.2814713,4.8150654
2.638,-0.33776474,6.22516,2.5495014,2.9922364,4.1756,4.698487
2.64,-0.44347912,6.1454434,2.1889534,2.8034432,4.048671,4.575725
2.642,-0.5417371,6.062419,1.8432117,2.611611,3.9022765,4.4475026
2.644,-0.6326003,5.9756937,1.5143563,2.4174051,3.7380655,4.314504
2.646,-0.71627116,5.8851504,1.2040011,2.221555,3.5577502,4.1773906
2.648,-0.79283583,5.790838,0.91398025,2.0248117,3.3630805,4.036812
2.65,-0.86254907,5.6927514,0.645547,1.8279551,3.1557913,3.8933961
2.652,-0.92579,5.591008,0.39971086,1.6317647,2.9376307,3.747776
2.654,-0.98309326,5.485892,0.17732537,1.4370234,2.7103639,3.6005895
2.656,-1.0346661,5.3776193,-0.021147668,1.2444853,2.4757643,3.4524555
2.658,-1.0810165,5.2663646,-0.19542372,1.0548866,2.2355783,3.3039722
2.66,-1.1225504,5.1523685,-0.34559542,0.8689214,1.9915202,3.1557038
2.662,-1.1598284,5.0358424,-0.47190964,0.68725467,1.7452482,3.008116
2.664,-1.1932491,4.917037,-0.57507384,0.5104991,1.498374,2.8615665
2.666,-1.2232149,4.7960267,-0.65595526,0.33919394,1.252411,2.716293
2.668,-1.2503507,4.673044,-0.7155979,0.17378426,1.008733,2.5724366
2.67,-1.2749307,4.5481267,-0.7551858,0.014626265,0.7686093,2.430043
2.672,-1.2976514,4.421118,-0.77618366,-0.13800704,0.53316116,2.2891135
2.674,-1.3188777,4.292305,-0.7800577,-0.28392875,0.30336845,2.1495793
2.676,-1.3387494,4.161625,-0.7686015,-0.42306882,0.08003029,2.0113595
2.678,-1.3579135,4.029063,-0.7435757,-0.55544204,-0.1361934,1.8743505
2.68,-1.3767431,3.8948069,-0.70670587,-0.6811396,-0.34479922,1.7384778
2.682,-1.395493,3.758917,-0.65993243,-0.8003191,-0.54542416,1.6037011
2.684,-1.414551,3.6214564,-0.6049931,-0.91318166,-0.73785657,1.4700494
2.686,-1.4342018,3.4824226,-0.5434874,-1.0199821,-0.922009,1.3376087
2.688,-1.4547195,3.3419962,-0.4769765,-1.1210105,-1.0979208,1.2065283
2.69,-1.4763451,3.2002416,-0.40675473,-1.216594,-1.265791,1.0770284
2.692,-1.4992124,3.0571623,-0.3340329,-1.3070884,-1.4259284,0.9493704
2.694,-1.5236646,2.9129736,-0.2599057,-1.3928406,-1.578703,0.82385457
2.696,-1.5497656,2.7677643,-0.18517083,-1.474201,-1.7245433,0.7007782
2.698,-1.5777738,2.6217163,-0.11039305,-1.5514961,-1.863895,0.58040583
2.7,-1.6080108,2.4751184,-0.03614247,-1.6250415,-1.9971902,0.46295446
2.702,-1.6405908,2.328164,0.037236154,-1.6951158,-2.1247818,0.34859288
2.704,-1.6756532,2.1811311,0.109438896,-1.7619315,-2.2469113,0.23743945
2.706,-1.7133969,2.0342581,0.18046635,-1.8256667,-2.3637183,0.12959158
2.708,-1.7539595,1.8879766,0.2502482,-1.886446,-2.4752486,0.025129914
2.71,-1.7975242,1.7425184,0.3189875,-1.9443407,-2.5814443,-0.075850844
2.712,-1.8440859,1.5982873,0.38679504,-1.9993974,-2.682191,-0.17325401
2.714,-1.8938917,1.4556204,0.45373672,-2.051628,-2.777356,-0.2669927
2.716,-1.9468871,1.3148831,0.52005285,-2.1010106,-2.866801,-0.35696757
2.718,-2.0030944,1.1762543,0.58581287,-2.1475124,-2.9504533,-0.44310594
2.72,-2.0625086,1.0398774,0.65129614,-2.1910791,-3.0283036,-0.5253731
2.722,-2.1250858,0.9060617,0.7165922,-2.2316456,-3.1004267,-0.60378134
2.724,-2.1905293,0.7748078,0.781901,-2.2691913,-3.1670039,-0.67840487
2.726,-2.2589083,0.6462569,0.84727526,-2.303716,-3.2283018,-0.7493412
2.728,-2.3299737,0.5203185,0.9127771,-2.3352606,-3.2846763,-0.8167093
2.73,-2.4035692,0.39719516,0.978496,-2.363904,-3.3364925,-0.8806304
2.732,-2.4795003,0.2768816,1.0444821,-2.3897443,-3.3841774,-0.94123805
2.734,-2.557336,0.1593506,1.1108768,-2.4129384,-3.4281528,-0.9986782
2.736,-2.63687,0.04451914,1.1776636,-2.4336793,-3.4688296,-1.0531331
2.738,-2.717795,-0.0677219,1.2450148,-2.452193,-3.506594,-1.1048199
2.74,-2.7998424,-0.17751743,1.3131129,-2.4687133,-3.5418038,-1.1539655
2.742,-2.8825903,-0.2851115,1.382052,-2.4834852,-3.5747623,-1.2008106
2.744,-2.9656281,-0.39068472,1.4518553,-2.496743,-3.6057284,-1.2456084
2.746,-3.0488935,-0.49435872,1.5225121,-2.5086799,-3.6349077,-1.288593
2.748,-3.1319547,-0.59601885,1.594435,-2.5194623,-3.6624744,-1.3299539
2.75,-3.2146688,-0.6958442,1.667989,-2.529189,-3.6885319,-1.3698223
2.752,-3.2967508,-0.79405856,1.7433612,-2.5379,-3.7131422,-1.408242
2.754,-3.3778207,-0.8907887,1.8208491,-2.5455713,-3.7363045,-1.4451716
2.756,-3.457677,-0.986223,1.9006209,-2.5521169,-3.7579646,-1.4804997
2.758,-3.534855,-1.0781816,1.979427,-2.5574074,-3.7780175,-1.5140694
2.76,-3.610219,-1.1684831,2.0600383,-2.5612562,-3.796255,-1.545693
2.762,-3.6835327,-1.2571347,2.1424425,-2.5634623,-3.8124115,-1.5751631
2.764,-3.754518,-1.3441043,2.2265234,-2.5638242,-3.8261638,-1.6023011
2.766,-3.8230467,-1.4292961,2.3122225,-2.562127,-3.8371027,-1.6269541
2.768,-3.8889453,-1.5125349,2.3994052,-2.5581772,-3.8447528,-1.649019
2.77,-3.952177,-1.5937399,2.4877982,-2.5518298,-3.848613,-1.6684618
2.772,-4.0125484,-1.6727548,2.5771284,-2.542951,-3.8481524,-1.6852791
2.774,-4.070128,-1.7494622,2.6671574,-2.531445,-3.842837,-1.6995263
2.776,-4.1248384,-1.8236924,2.757546,-2.5172431,-3.8321414,-1.7112879
2.778,-4.1765776,-1.8954972,2.8479886,-2.5002928,-3.815587,-1.7206502
2.78,-4.225481,-1.964715,2.9380894,-2.480555,-3.7927237,-1.7277222
2.782,-4.271412,-2.031204,3.027512,-2.458,-3.763167,-1.7325845
2.784,-4.3145666,-2.0950522,3.1159282,-2.4325984,-3.7266243,-1.7353162
2.786,-4.3551216,-2.156001,3.2030432,-2.4060318,-3.6860282,-1.7364194
2.788,-4.392993,-2.2140663,3.288509,-2.37764,-3.640136,-1.7358572
2.79,-4.4282618,-2.2693136,3.3720016,-2.3478103,-3.5897171,-1.7338066
2.792,-4.4611588,-2.3217273,3.4533753,-2.3170059,-3.5357623,-1.730473
2.794,-4.491707,-2.371399,3.5323792,-2.2857347,-3.4794335,-1.72608
2.796,-4.5201015,-2.4183066,3.608729,-2.25452,-3.4219716,-1.7208624
2.798,-4.546414,-2.4626296,3.6823437,-2.2238631,-3.3645859,-1.715047
2.8,-4.570792,-2.5044549,3.7530625,-2.1942139,-3.3083835,-1.7088462
2.802,-4.593484,-2.543753,3.8207388,-2.1659243,-3.2542748,-1.7024553
2.804,-4.6143956,-2.580762,3.8854759,-2.1392598,-3.2029505,-1.6960317
2.806,-4.6338687,-2.6154752,3.9471717,-2.114385,-3.1548688,-1.689706
2.808,-4.652014,-2.648035,4.005926,-2.0913603,-3.1102688,-1.6835859
