Time_s_,Acc_x_m_s_2_,Acc_y_m_s_2_,Acc_z_m_s_2_,Gyro_x_1_s_,Gyro_y_1_s_,Gyro_z_1_s_
0,-2.6683261,0.62489915,0.08766542,0.0702707,0.36797142,-0.01708664
0.002,-2.5903397,0.63466334,0.012566782,0.07241842,0.36231554,-0.027381584
0.004,-2.505912,0.6424353,-0.060540825,0.07522687,0.35517275,-0.038743533
0.006,-2.4145281,0.64774,-0.131278,0.07875548,0.34628475,-0.051297747
0.008,-2.3154426,0.6498061,-0.19933423,0.08301284,0.3353451,-0.06508743
0.01,-2.2075927,0.64802504,-0.26421845,0.08798604,0.32203472,-0.08000615
0.012,-2.089338,0.6414422,-0.32528168,0.093602575,0.30608156,-0.09582538
0.014,-1.9605658,0.63007236,-0.382577,0.09973135,0.28727266,-0.11220967
0.016,-1.8212789,0.6137491,-0.43593156,0.10621236,0.2654784,-0.1287198
0.018,-1.6710438,0.5921585,-0.48477966,0.112839386,0.24064861,-0.14479542
0.02,-1.5097606,0.5651788,-0.5284505,0.11939083,0.21278411,-0.15980373
0.022,-1.3371572,0.5325068,-0.5666898,0.12565538,0.18193406,-0.17310527
0.024,-1.1531403,0.49365243,-0.599064,0.13146262,0.14821881,-0.18413638
0.026,-0.95807654,0.44846523,-0.62568766,0.1367144,0.11177382,-0.19251755
0.028,-0.75285894,0.39696193,-0.6468476,0.14144522,0.07213883,-0.19854617
0.03,-0.53813654,0.3392353,-0.66268605,0.14560445,0.029930778,-0.201604
0.032,-0.3148447,0.27560693,-0.67350936,0.14925529,-0.014903206,-0.20208065
0.034,-0.083841346,0.20641214,-0.67977905,0.15249959,-0.062457997,-0.200574
0.036,0.15374564,0.13181914,-0.6817566,0.15540595,-0.112923846,-0.19781448
0.038,0.39669737,0.051932886,-0.67959964,0.1579729,-0.166603,-0.19461566
0.04,0.6438154,-0.03313808,-0.6729595,0.16012189,-0.22381812,-0.19175869
0.042,0.8931017,-0.12298876,-0.6613387,0.16167784,-0.28490463,-0.18994632
0.044,1.1424538,-0.216692,-0.6450849,0.16233855,-0.3502972,-0.18978584
0.046,1.3899969,-0.31362945,-0.6243012,0.1616819,-0.4204837,-0.19173822
0.048,1.6342696,-0.4130166,-0.59946954,0.15918045,-0.49588925,-0.19609903
0.05,1.8736577,-0.51400554,-0.57118493,0.15426618,-0.5767161,-0.2029727
0.052,2.1067522,-0.61571443,-0.5398949,0.14646234,-0.6628044,-0.21229202
0.054,2.3321092,-0.7173314,-0.5060358,0.13545367,-0.75356376,-0.22380938
0.056,2.5536397,-0.81898534,-0.47263923,0.121121615,-0.84803504,-0.23712778
0.058,2.7634156,-0.9188472,-0.43626085,0.10353801,-0.94507766,-0.25168362
0.06,2.9603736,-1.0161407,-0.39717618,0.082995534,-1.0434152,-0.26677904
0.062,3.143778,-1.1102232,-0.35584974,0.060000926,-1.1416382,-0.28174362
0.064,3.3128939,-1.200458,-0.3124863,0.03521985,-1.2383424,-0.29602194
0.066,3.4666321,-1.2860309,-0.2678406,0.009386584,-1.3323035,-0.3091852
0.068,3.6047914,-1.3664209,-0.22303507,-0.016786583,-1.4226153,-0.32089794
0.07,3.7275136,-1.4412346,-0.17944436,-0.04272192,-1.5087409,-0.33096266
0.072,3.8345811,-1.509773,-0.13838282,-0.06796677,-1.5904682,-0.33935392
0.074,3.9257731,-1.5714877,-0.10075213,-0.09225224,-1.6678852,-0.34618443
0.076,4.0006943,-1.6258374,-0.06713572,-0.1154885,-1.7413784,-0.35168177
0.078,4.0596113,-1.6725253,-0.037793577,-0.13771363,-1.8115791,-0.3561269
0.08,4.1022234,-1.7113116,-0.013218522,-0.15907034,-1.8792193,-0.35985726
0.082,4.127766,-1.7416592,0.0056032985,-0.17973346,-1.9449968,-0.3632444
0.084,4.1377945,-1.7645699,0.018127397,-0.19988209,-2.0095725,-0.36667818
0.086,4.1333747,-1.7809132,0.024447024,-0.2196813,-2.0735397,-0.37049878
0.088,4.115853,-1.7914895,0.024495788,-0.23923981,-2.1373088,-0.37492973
0.09,4.0861907,-1.7973287,0.018379062,-0.25858116,-2.201041,-0.38006347
0.092,4.0458574,-1.7995697,0.0064662024,-0.2776276,-2.2646818,-0.38586682
0.094,3.996219,-1.7995057,-0.010385856,-0.29622832,-2.328056,-0.39220452
0.096,3.9387097,-1.7982111,-0.030983992,-0.31419718,-2.390933,-0.39886492
0.098,3.8745608,-1.7966697,-0.0539141,-0.3312973,-2.4530485,-0.40557057
0.1,3.8053477,-1.7961049,-0.07770939,-0.34728158,-2.5141788,-0.41204226
0.102,3.7325706,-1.7974793,-0.1008815,-0.3619781,-2.5742464,-0.41807652
0.104,3.657486,-1.801931,-0.121939525,-0.37529802,-2.6333356,-0.42357725
0.106,3.5819182,-1.8108065,-0.13903397,-0.3872735,-2.691559,-0.42851478
0.108,3.507463,-1.8252199,-0.15047589,-0.39802903,-2.7490356,-0.43294674
0.11,3.4349246,-1.8459377,-0.15506098,-0.40778553,-2.8057752,-0.43698502
0.112,3.3651533,-1.8736136,-0.15162885,-0.41678762,-2.8615913,-0.44075227
0.114,3.2985332,-1.9084965,-0.13860506,-0.42527688,-2.9160788,-0.4443034
0.116,3.2354176,-1.9506773,-0.1147107,-0.43346095,-2.968653,-0.4475813
0.118,3.1765246,-2.0001097,-0.07841587,-0.44150215,-3.0185583,-0.4503628
0.12,3.122903,-2.0572298,-0.028615296,-0.44943255,-3.0648625,-0.45229757
0.122,3.0727012,-2.1207361,0.033845857,-0.45719177,-3.1064777,-0.4529724
0.124,3.0245564,-2.189915,0.10883867,-0.46461225,-3.1422598,-0.45192122
0.126,2.9784443,-2.2642832,0.19669878,-0.47147858,-3.1711228,-0.4486401
0.128,2.9345531,-2.3432343,0.29699692,-0.4775564,-3.1920712,-0.4426185
0.13,2.892299,-2.4254696,0.40810895,-0.48260784,-3.2042074,-0.43333912
0.132,2.8504987,-2.5097184,0.5287738,-0.48643696,-3.2068,-0.42031908
0.134,2.8096611,-2.595405,0.6571269,-0.48888278,-3.1993246,-0.40309155
0.136,2.771396,-2.6821246,0.7910105,-0.48982346,-3.1814575,-0.3812542
0.138,2.734558,-2.7675476,0.9277159,-0.48916256,-3.1530747,-0.3544799
0.14,2.6953027,-2.8481033,1.0637088,-0.48683152,-3.1142423,-0.32251763
0.142,2.6514513,-2.9204352,1.1954768,-0.48283052,-3.0652156,-0.28518045
0.144,2.6015065,-2.981039,1.3205953,-0.4772042,-3.006372,-0.24237692
0.146,2.541557,-3.0253115,1.4352747,-0.47005448,-2.9381633,-0.19411981
0.148,2.4684947,-3.0496352,1.5354114,-0.4615038,-2.8610117,-0.14051259
0.15,2.3840055,-3.0532055,1.6189357,-0.45164877,-2.7752402,-0.08173597
0.152,2.2904751,-3.0358934,1.6842244,-0.4405498,-2.6811862,-0.018113494
0.154,2.1888714,-2.9974284,1.7291548,-0.42825893,-2.5793877,0.04988581
0.156,2.0782008,-2.936403,1.7510068,-0.41474235,-2.4703667,0.12180686
0.158,1.9573685,-2.8516676,1.7476072,-0.3998766,-2.3545284,0.19724756
0.16,1.8249323,-2.7410467,1.716322,-0.38348833,-2.2323174,0.27559763
0.162,1.6804277,-2.602052,1.6555288,-0.36542302,-2.104268,0.3560353
0.164,1.5232601,-2.4316988,1.5648415,-0.34553844,-1.9708506,0.43776062
0.166,1.351984,-2.2269049,1.4437535,-0.3237539,-1.8325512,0.5200414
0.168,1.1661274,-1.9853904,1.2919729,-0.30013084,-1.6901705,0.6020404
0.17,0.96444833,-1.7059093,1.1094532,-0.27481765,-1.5448177,0.6828617
0.172,0.74624,-1.3881036,0.89744925,-0.24798995,-1.3977625,0.76168936
0.174,0.5111584,-1.0328281,0.65853274,-0.21987206,-1.2505885,0.8377749
0.176,0.25897992,-0.6417705,0.39659423,-0.19062147,-1.1051986,0.9102496
0.178,-0.011997532,-0.21679583,0.11693603,-0.16034225,-0.9638444,0.97808063
0.18,-0.30255678,0.23882222,-0.17526016,-0.12922926,-0.82932705,1.040255
0.182,-0.61110586,0.72059256,-0.47606283,-0.09751946,-0.70486915,1.0957092
0.184,-0.93805206,1.2247989,-0.77745795,-0.06541023,-0.59398186,1.1430773
0.186,-1.2798928,1.7437085,-1.0745935,-0.03315708,-0.5005284,1.1806588
0.188,-1.6329535,2.2706242,-1.36228,-0.0011603534,-0.4286112,1.2066941
0.19,-1.9925265,2.7980282,-1.6336205,0.030040324,-0.38211402,1.2196045
0.192,-2.3542006,3.3178053,-1.8807607,0.05969286,-0.36447906,1.2179905
0.194,-2.7142909,3.8216884,-2.0964115,0.08676541,-0.378236,1.2007641
0.196,-3.0671372,4.301241,-2.275228,0.11013888,-0.42417076,1.1673828
0.198,-3.407002,4.748383,-2.4129057,0.12868097,-0.50107795,1.1181955
0.2,-3.726873,5.1555133,-2.5056927,0.14142051,-0.6056603,1.0547189
0.202,-4.0207634,5.515927,-2.5511072,0.14777912,-0.7326603,0.9797933
0.204,-4.2821393,5.823779,-2.5474522,0.14772753,-0.87514406,0.8975471
0.206,-4.505292,6.074088,-2.4938166,0.14191987,-1.0249048,0.8131416
0.208,-4.6847024,6.2626944,-2.3897884,0.13171813,-1.1732049,0.7321502
0.21,-4.8156257,6.3868337,-2.2364159,0.11907956,-1.3116537,0.659984
0.212,-4.8935995,6.444601,-2.0358691,0.10634118,-1.4328363,0.60135466
0.214,-4.9160433,6.435176,-1.7921553,0.0959251,-1.5311189,0.5596587
0.216,-4.8800573,6.3587584,-1.5105194,0.09025301,-1.6023432,0.5367033
0.218,-4.784184,6.216664,-1.1972888,0.09131533,-1.644219,0.5323341
0.22,-4.628665,6.011212,-0.8591264,0.1003666,-1.6565409,0.5444196
0.222,-4.415084,5.745859,-0.50319415,0.117950484,-1.6403402,0.56927806
0.224,-4.145962,5.424347,-0.13673976,0.14397328,-1.5975118,0.60233605
0.226,-3.8247528,5.051266,0.23326364,0.1777118,-1.5308357,0.63881314
0.228,-3.4562387,4.631652,0.59953076,0.21797505,-1.4436224,0.6744338
0.23,-3.0461464,4.1712933,0.95514214,0.26333418,-1.3394523,0.70598876
0.232,-2.5983906,3.6749656,1.2954834,0.31237042,-1.2220057,0.7314316
0.234,-2.117373,3.1480393,1.6161809,0.36382678,-1.0949724,0.74969566
0.236,-1.6098348,2.5968387,1.9131601,0.4164315,-0.96225864,0.7607953
0.238,-1.0833268,2.0278182,2.183481,0.4687705,-0.82794,0.76584244
0.24,-0.5444429,1.4467328,2.425914,0.51927644,-0.69609576,0.76663303
0.242,0.00032699108,0.85991436,2.6396952,0.5662027,-0.5707452,0.7650883
0.244,0.54306895,0.27428055,2.8246446,0.6076455,-0.45582095,0.76310825
0.246,1.0763974,-0.30379736,2.981351,0.64168006,-0.35486162,0.7625618
0.248,1.5962412,-0.86981845,3.1107807,0.66656417,-0.27090174,0.76515895
0.25,2.1001709,-1.4199653,3.2142944,0.68080074,-0.20643958,0.7723384
0.252,2.5840006,-1.9497863,3.293173,0.68339926,-0.16288623,0.78506964
0.254,3.0430622,-2.4545748,3.347709,0.6740148,-0.14030015,0.8037952
0.256,3.4753354,-2.9305182,3.3792796,0.65299976,-0.13730317,0.82844603
0.258,3.87768,-3.3727388,3.389231,0.6214248,-0.1511654,0.8585544
0.26,4.243118,-3.7748485,3.3769426,0.5809397,-0.17818177,0.8934246
0.262,4.566704,-4.132084,3.342504,0.5335725,-0.21392697,0.93231225
0.264,4.846216,-4.441727,3.2879677,0.48145276,-0.2537854,0.9743044
0.266,5.081902,-4.7031612,3.2154164,0.42657015,-0.29344606,1.0183853
0.268,5.2743716,-4.9168134,3.1262589,0.37059504,-0.32902566,1.0635931
0.27,5.4251947,-5.0849237,3.021847,0.31457287,-0.35809442,1.1087936
0.272,5.535017,-5.210387,2.902021,0.25908452,-0.3795711,1.1527833
0.274,5.6053243,-5.296401,2.7657948,0.20431146,-0.39347452,1.1945028
0.276,5.6383038,-5.346338,2.6130235,0.15008828,-0.40125206,1.2329984
0.278,5.635491,-5.362944,2.4440846,0.09594965,-0.40549234,1.2672062
0.28,5.5993543,-5.348891,2.2596507,0.041457295,-0.4091531,1.2959385
0.282,5.531828,-5.306588,2.0601797,-0.013598025,-0.41501677,1.3180903
0.284,5.433227,-5.237723,1.8466353,-0.06917825,-0.42535377,1.3327932
0.286,5.305575,-5.145007,1.6202608,-0.12491709,-0.4416063,1.3395633
0.288,5.1540275,-5.0323024,1.3797295,-0.18002385,-0.46415746,1.338294
0.29,4.983551,-4.9029694,1.1245925,-0.23331568,-0.492359,1.3291231
0.292,4.7955794,-4.7597094,0.85824007,-0.2833808,-0.52480316,1.3124143
0.294,4.5919847,-4.6053967,0.58183897,-0.3287208,-0.55960083,1.2887442
0.296,4.3721356,-4.440472,0.29998147,-0.3679416,-0.5947469,1.2589355
0.298,4.137586,-4.267596,0.014790595,-0.39999,-0.62854135,1.223851
0.3,3.8898354,-4.088434,-0.2753018,-0.4242759,-0.65982616,1.1844307
0.302,3.6312978,-3.9040034,-0.5705775,-0.4407612,-0.6882093,1.1416335
0.304,3.3649495,-3.7150137,-0.8667326,-0.4499951,-0.7141543,1.096306
0.306,3.0915189,-3.5220418,-1.1561772,-0.45309305,-0.7388848,1.0491272
0.308,2.812443,-3.3261452,-1.4320413,-0.45163447,-0.76412326,1.0005563
0.31,2.529102,-3.1284666,-1.6904464,-0.44749177,-0.79179686,0.9508421
0.312,2.2442634,-2.9304473,-1.9290404,-0.44266108,-0.82374895,0.9000177
0.314,1.9598275,-2.733019,-2.1466029,-0.43898538,-0.86136323,0.84793985
0.316,1.6766052,-2.5361423,-2.3428235,-0.437917,-0.9052583,0.79442364
0.318,1.3937255,-2.339222,-2.5172668,-0.44031668,-0.95514363,0.73949873
0.32,1.1103121,-2.1419086,-2.66933,-0.44645157,-1.0100983,0.6833579
0.322,0.82567596,-1.9442356,-2.7982912,-0.4560475,-1.0687927,0.62615687
0.324,0.5400989,-1.7462748,-2.9022317,-0.46830213,-1.1293944,0.5678838
0.326,0.2523166,-1.5480254,-2.9784708,-0.48201114,-1.1896378,0.50852174
0.328,-0.0387609,-1.3495706,-3.0242543,-0.49564523,-1.2470444,0.4482157
0.33,-0.33303833,-1.1511786,-3.0381486,-0.50752616,-1.2992219,0.3872385
0.332,-0.630156,-0.9534521,-3.0199144,-0.5159865,-1.3443143,0.32584956
0.334,-0.92934126,-0.7571262,-2.9699183,-0.5196216,-1.3810112,0.26424804
0.336,-1.2295377,-0.5630849,-2.8889115,-0.5173859,-1.4082403,0.20264038
0.338,-1.5292828,-0.37263644,-2.7777853,-0.5086845,-1.4251187,0.14136845
0.34,-1.8274173,-0.18698621,-2.6383352,-0.49347025,-1.4311013,0.08098972
0.342,-2.1223962,-0.007424593,-2.4735312,-0.47231036,-1.4261035,0.022272825
0.344,-2.4120307,0.16465044,-2.2869694,-0.4463027,-1.4104496,-0.033845186
0.346,-2.693368,0.32784188,-2.082971,-0.4170071,-1.3847513,-0.086426616
0.348,-2.9628136,0.4809746,-1.865451,-0.38635707,-1.3497928,-0.13458574
0.35,-3.2162147,0.6225379,-1.6386021,-0.35654432,-1.3063205,-0.17758
0.352,-3.4490342,0.7508187,-1.4068788,-0.32976985,-1.2548609,-0.21476734
0.354,-3.6565928,0.86437124,-1.1750242,-0.30800202,-1.1956887,-0.24573162
0.356,-3.8346667,0.96166,-0.94815475,-0.29272,-1.1288387,-0.27036226
0.358,-3.9787865,1.0414011,-0.73149407,-0.2847172,-1.0541289,-0.288824
0.36,-4.08492,1.1024654,-0.53020513,-0.28396422,-0.9713433,-0.301498
0.362,-4.149949,1.1440853,-0.3495208,-0.28959203,-0.88058233,-0.30900633
0.364,-4.170995,1.1653724,-0.19433534,-0.3000954,-0.7826159,-0.3121993
0.366,-4.145262,1.1657507,-0.068877935,-0.31357363,-0.679127,-0.31215894
0.368,-4.070423,1.1447289,0.022949338,-0.32811478,-0.5728586,-0.3100283
0.37,-3.9443612,1.101857,0.078556895,-0.34216967,-0.46766627,-0.30697465
0.372,-3.765863,1.0371767,0.09590864,-0.35481706,-0.36823308,-0.304119
0.374,-3.5339222,0.95062613,0.07312989,-0.36579484,-0.2793388,-0.30224794
0.376,-3.2477152,0.84212685,0.010330081,-0.37550944,-0.20548055,-0.30170292
0.378,-2.9080193,0.71180636,-0.090456665,-0.38502723,-0.15078391,-0.3025288
0.38,-2.5172536,0.56076086,-0.22791958,-0.39583898,-0.118495606,-0.3046632
0.382,-2.0772035,0.38954964,-0.3994918,-0.4095758,-0.110627145,-0.30803487
0.384,-1.591721,0.19906151,-0.60069233,-0.42773855,-0.12776932,-0.31236988
0.386,-1.0653455,-0.00976485,-0.82550836,-0.45143154,-0.16902174,-0.3171516
0.388,-0.5037712,-0.2354603,-1.0667651,-0.48119608,-0.232541,-0.32171285
0.39,0.08686012,-0.4761531,-1.3166609,-0.51709974,-0.3160923,-0.32545906
0.392,0.70056,-0.7301251,-1.5679228,-0.5587868,-0.4171309,-0.32800144
0.394,1.3322873,-0.99609184,-1.8142347,-0.605563,-0.5327658,-0.32913756
0.396,1.9742846,-1.2715111,-2.050073,-0.6565102,-0.65984637,-0.3287162
0.398,2.6171262,-1.553692,-2.2680109,-0.71062064,-0.7951484,-0.32660407
0.4,3.2510085,-1.8399018,-2.461615,-0.7668767,-0.9355476,-0.3226965
0.402,3.867771,-2.1274912,-2.6268532,-0.8242212,-1.0779707,-0.31691277
0.404,4.4598837,-2.4138932,-2.7602656,-0.88152105,-1.219371,-0.3091889
0.406,5.017897,-2.694615,-2.8578498,-0.9377266,-1.3569875,-0.29954994
0.408,5.531191,-2.9646192,-2.9143314,-0.99187505,-1.4882386,-0.28796214
0.41,5.990183,-3.2193236,-2.924475,-1.0430083,-1.6105106,-0.27424163
0.412,6.3860183,-3.454672,-2.8866622,-1.090281,-1.7216303,-0.25809968
0.414,6.711261,-3.6669664,-2.8030272,-1.1330857,-1.8200256,-0.23922104
0.416,6.9592047,-3.8527746,-2.6763105,-1.1709974,-1.9045336,-0.21716624
0.418,7.1238513,-4.00865,-2.5077531,-1.2037542,-1.9743252,-0.19140136
0.42,7.20049,-4.1318107,-2.2966437,-1.231273,-2.0289032,-0.16132212
0.422,7.1849227,-4.2192955,-2.0421686,-1.2536166,-2.0679872,-0.1264506
0.424,7.075106,-4.2695546,-1.7442609,-1.270967,-2.0914764,-0.086483836
0.426,6.8713474,-4.281327,-1.4062673,-1.2835994,-2.0993443,-0.041347504
0.428,6.5773478,-4.254939,-1.0318499,-1.2918155,-2.0915701,0.008840919
0.43,6.197377,-4.191206,-0.6267102,-1.295898,-2.0679774,0.0638755
0.432,5.737722,-4.0911226,-0.19776762,-1.2960918,-2.0281603,0.12351841
0.434,5.205169,-3.956694,0.24720085,-1.2926579,-1.9715301,0.18745464
0.436,4.6073947,-3.7907073,0.69927776,-1.2858773,-1.8971865,0.25525123
0.438,3.9543962,-3.5967834,1.1483421,-1.2760385,-1.8040073,0.32629114
0.44,3.2569513,-3.3787642,1.5856866,-1.2634369,-1.6908213,0.39979416
0.442,2.5264695,-3.1411252,2.0044065,-1.2483814,-1.5566887,0.474773
0.444,1.7738919,-2.888215,2.3983402,-1.2312229,-1.4013519,0.5499769
0.446,1.0111845,-2.6246204,2.7616682,-1.2123637,-1.2255515,0.6238917
0.448,0.25228512,-2.3557944,3.088976,-1.1922779,-1.031303,0.6947419
0.45,-0.48898232,-2.0875607,3.3759773,-1.1715256,-0.82204247,0.76050913
0.452,-1.2019184,-1.8246908,3.617549,-1.1507945,-0.6026916,0.81897414
0.454,-1.8751302,-1.5719649,3.8102007,-1.1309133,-0.37929374,0.8679095
0.456,-2.4975557,-1.3339707,3.9531257,-1.112821,-0.1584629,0.90523523
0.458,-3.0592086,-1.1148517,4.0462546,-1.0977043,0.0527588,0.92904913
0.46,-3.5514314,-0.91799635,4.0907197,-1.0867652,0.2480453,0.9379451
0.462,-3.9672935,-0.74630004,4.0885625,-1.0812099,0.42220002,0.9311237
0.464,-4.301057,-0.60211635,4.0433016,-1.082337,0.5711091,0.9083241
0.466,-4.54819,-0.48690566,3.9593146,-1.0912329,0.69251376,0.87008476
0.468,-4.706102,-0.40120155,3.8419962,-1.1085417,0.78611696,0.81785774
0.47,-4.774212,-0.34474906,3.696836,-1.1344486,0.8531178,0.753789
0.472,-4.7533827,-0.31634808,3.5295024,-1.1686674,0.89582586,0.68055433
0.474,-4.6458387,-0.3141962,3.3457499,-1.2104051,0.91737276,0.6012074
0.476,-4.4559817,-0.33539644,3.150786,-1.2583915,0.921493,0.51908916
0.478,-4.1889777,-0.37668157,2.949766,-1.3109738,0.9123076,0.43756473
0.48,-3.851563,-0.4339337,2.7469428,-1.3662453,0.8939832,0.35980093
0.482,-3.450614,-0.5033205,2.546784,-1.4221759,0.8705166,0.288544
0.484,-2.994571,-0.58049124,2.3536408,-1.4767733,0.84548604,0.22613975
0.486,-2.4931438,-0.6608386,2.1701179,-1.5281813,0.8220619,0.17443198
0.488,-1.9555099,-0.7400852,1.9977713,-1.5747834,0.80299026,0.13464347
0.49,-1.3874576,-0.8154186,1.8378426,-1.6153212,0.7905223,0.10743636
0.492,-0.80057204,-0.88200444,1.6926754,-1.6489626,0.7865359,0.093031645
0.494,-0.20016217,-0.938106,1.5613303,-1.6752998,0.792507,0.09128207
0.496,0.4074428,-0.98156065,1.4421855,-1.6943033,0.8095256,0.10172212
0.498,1.0155135,-1.0107267,1.3333386,-1.7062452,0.83827984,0.123600364
0.5,1.6176758,-1.0246217,1.2327261,-1.7116029,0.8790317,0.15591782
0.502,2.2079222,-1.0222539,1.1383185,-1.7109975,0.93161345,0.19753152
0.504,2.7809403,-1.0029507,1.0485141,-1.7050922,0.9954786,0.24730158
0.506,3.3327794,-0.96693194,0.96277213,-1.6945264,1.0697862,0.30425814
0.508,3.8601313,-0.91490763,0.88059473,-1.6798719,1.1533313,0.36754516
0.51,4.3607697,-0.8482113,0.8014256,-1.6616902,1.2445632,0.43643114
0.512,4.833188,-0.7689562,0.7241993,-1.6404407,1.3419406,0.5104086
0.514,5.2771187,-0.6798527,0.6474929,-1.6166621,1.4436373,0.5890234
0.516,5.6910505,-0.58304256,0.56967664,-1.5909457,1.5476605,0.67185575
0.518,6.074742,-0.4808073,0.48962212,-1.5638665,1.6521323,0.7585858
0.52,6.427183,-0.37508243,0.40780544,-1.5362134,1.7544805,0.8487249
0.522,6.7465887,-0.26638883,0.3245046,-1.5088263,1.8519393,0.9414662
0.524,7.030713,-0.15461898,0.2400744,-1.4825749,1.9417591,1.0358541
0.526,7.277715,-0.039435327,0.15469241,-1.4583491,2.021009,1.1308056
0.528,7.4879894,0.07883859,0.06885767,-1.4369774,2.0867686,1.2250223
0.53,7.6564307,0.20198798,-0.015747547,-1.4191515,2.1363366,1.3170899
0.532,7.782937,0.32980204,-0.098483086,-1.405343,2.1674175,1.4056493
0.534,7.8664675,0.4625569,-0.17749739,-1.3957753,2.1783676,1.4894049
0.536,7.906911,0.60010177,-0.24997354,-1.3903762,2.1683528,1.5672042
0.538,7.902349,0.7438798,-0.31505704,-1.388738,2.1374688,1.638038
0.54,7.8518505,0.8951497,-0.37047315,-1.3901427,2.0866416,1.7012012
0.542,7.754326,1.0545957,-0.4141953,-1.3936462,2.0174322,1.7563727
0.544,7.610754,1.2229759,-0.44518185,-1.3981507,1.9318625,1.8035154
0.546,7.422875,1.4006416,-0.46242976,-1.4024277,1.8323483,1.8427075
0.548,7.19269,1.587512,-0.46392035,-1.4053228,1.7213604,1.8740335
0.55,6.9228077,1.7827569,-0.44836998,-1.4059075,1.6011564,1.897538
0.552,6.6167026,1.9854306,-0.41540718,-1.4035271,1.4737532,1.9131567
0.554,6.2795014,2.193733,-0.36512423,-1.397858,1.3407631,1.9206681
0.556,5.916463,2.405304,-0.29719663,-1.3888605,1.2034837,1.9197338
0.558,5.5316696,2.618218,-0.21120906,-1.3769119,1.0625372,1.9099412
0.56,5.130726,2.8298903,-0.106453896,-1.3626773,0.91820496,1.8908134
0.562,4.7215385,3.0365844,0.019125462,-1.3469987,0.77083194,1.8619347
0.564,4.310078,3.2347,0.16612673,-1.3310019,0.62046045,1.823019
0.566,3.9017916,3.420755,0.33358717,-1.3157997,0.4673263,1.7740208
0.568,3.5020742,3.5911005,0.52117753,-1.3023489,0.3119189,1.7151543
0.57,3.1161876,3.7427058,0.7288176,-1.2915258,0.15479292,1.646832
0.572,2.7491522,3.8727314,0.95691323,-1.2840934,-0.003331814,1.5697501
0.574,2.4052768,3.9786866,1.2054064,-1.2805183,-0.16113347,1.4849017
0.576,2.0881758,4.0585155,1.4742935,-1.2811248,-0.31735706,1.393506
0.578,1.8009709,4.110334,1.7629962,-1.2859547,-0.4706976,1.2969228
0.58,1.5464804,4.1332126,2.0708892,-1.2947046,-0.6195307,1.1966673
0.582,1.3268218,4.1265244,2.3972974,-1.3068641,-0.7621504,1.0944111
0.584,1.1430209,4.090774,2.741144,-1.3217301,-0.89678824,0.99179846
0.586,0.995578,4.026869,3.1012204,-1.3384141,-1.0214826,0.8904205
0.588,0.8839251,3.9367037,3.475837,-1.3558657,-1.134121,0.79181916
0.59,0.8071296,3.822656,3.862758,-1.3729757,-1.2326372,0.69734824
0.592,0.7632344,3.6883626,4.25941,-1.3886333,-1.3151392,0.6080731
0.594,0.7501614,3.537959,4.663435,-1.4018368,-1.3800266,0.52471566
0.596,0.7656138,3.3759046,5.072978,-1.4117438,-1.4260635,0.44767743
0.598,0.80676734,3.2069964,5.4860277,-1.4177628,-1.452484,0.3770943
0.6,0.86802053,3.0366013,5.901291,-1.4196101,-1.4591588,0.31292984
0.602,0.94843554,2.8683162,6.314756,-1.4171914,-1.4463907,0.25507674
0.604,1.0418427,2.7078128,6.723973,-1.4105241,-1.4148825,0.20343661
0.606,1.1441915,2.5597148,7.125798,-1.3997524,-1.3658441,0.1579336
0.608,1.2518861,2.428079,7.517333,-1.3851149,-1.3008759,0.11852002
0.61,1.3607509,2.3169045,7.897082,-1.3669128,-1.2219094,0.08509135
0.612,1.4665146,2.2293634,8.264283,-1.3453797,-1.1308174,0.05747986
0.614,1.5649872,2.1683538,8.617891,-1.32077,-1.0296427,0.03548658
0.616,1.6521342,2.1366227,8.956378,-1.2933719,-0.92063683,0.018811226
0.618,1.7243774,2.1364124,9.278078,-1.2633598,-0.80575067,0.0069956183
0.62,1.7787552,2.1691687,9.581831,-1.2310582,-0.68698627,-0.00058466196
0.622,1.8125627,2.2355947,9.866259,-1.1968863,-0.56626,-0.0045989156
0.624,1.8233023,2.335521,10.130024,-1.1611977,-0.44510832,-0.0056868196
0.626,1.8108101,2.467071,10.372211,-1.1243042,-0.3248193,-0.0044896603
0.628,1.7734494,2.6285603,10.591676,-1.0865202,-0.20638923,-0.0015386939
0.63,1.7106543,2.817989,10.78632,-1.0481392,-0.090485826,0.0028508902
0.632,1.6233361,3.0323424,10.954731,-1.0094143,0.02255745,0.008566409
0.634,1.5129528,3.2680283,11.095367,-0.9704881,0.1326718,0.015697598
0.636,1.3815422,3.5216691,11.206675,-0.9313463,0.23997451,0.024493039
0.638,1.2300458,3.7897458,11.286802,-0.89183533,0.3446334,0.03528267
0.64,1.0648909,4.0665145,11.333403,-0.8517082,0.44684353,0.0483689
0.642,0.8875232,4.3479586,11.345284,-0.81062794,0.5468407,0.06401825
0.644,0.70107794,4.6303616,11.320169,-0.768239,0.6448818,0.08239135
0.646,0.5083251,4.9096885,11.257544,-0.7242141,0.7410664,0.1034621
0.648,0.3132925,5.1814995,11.15728,-0.6782583,0.8352992,0.12701389
0.65,0.11987257,5.4417048,11.0190735,-0.6301522,0.92715234,0.15260395
0.652,-0.06869888,5.686887,10.843309,-0.57976264,1.015876,0.17956693
0.654,-0.2492156,5.91364,10.631135,-0.5270672,1.1003287,0.20709272
0.656,-0.41864777,6.1189966,10.384462,-0.4721787,1.1788876,0.23423363
0.658,-0.5744562,6.300665,10.105543,-0.41534325,1.2495865,0.2599414
0.66,-0.71448135,6.456956,9.797268,-0.3569226,1.310255,0.28312752
0.662,-0.83674407,6.5867834,9.463339,-0.29741114,1.3586769,0.3026808
0.664,-0.93993926,6.689534,9.108201,-0.23742351,1.3928351,0.31753358
0.666,-1.0230203,6.764988,8.737016,-0.17773166,1.4110068,0.3266675
0.668,-1.0849664,6.8130984,8.355625,-0.119235225,1.411949,0.32916647
0.67,-1.1251149,6.8340893,7.9699874,-0.062885754,1.395072,0.32434675
0.672,-1.143089,6.828284,7.586189,-0.009711295,1.360355,0.3117104
0.674,-1.139116,6.796441,7.2101774,0.039219588,1.3081615,0.29091406
0.676,-1.1133506,6.7396183,6.8476954,0.08286975,1.2392315,0.26176116
0.678,-1.0663157,6.6592107,6.504058,0.12029072,1.1545988,0.22423574
0.68,-0.9984703,6.556719,6.1841526,0.15074956,1.055537,0.17854905
0.682,-0.9107089,6.4338765,5.892124,0.17380765,0.9435203,0.12513167
0.684,-0.80392957,6.292669,5.631679,0.18939929,0.82031757,0.06471725
0.686,-0.6792271,6.1351237,5.405595,0.1978946,0.68811226,-0.0016504154
0.688,-0.5379214,5.963749,5.2158012,0.20013978,0.5496388,-0.072570875
0.69,-0.38124204,5.7807765,5.0635176,0.19742699,0.4082101,-0.14629067
0.692,-0.21052265,5.588966,4.949059,0.19141199,0.26767245,-0.22075042
0.694,-0.027005434,5.390954,4.8719172,0.18407091,0.13228677,-0.29364628
0.696,0.16784823,5.189305,4.8310175,0.17759508,0.0065589333,-0.36260906
0.698,0.37246823,4.986652,4.824252,0.17423938,-0.10503016,-0.42531413
0.7,0.5852262,4.785532,4.84879,0.17614138,-0.19823952,-0.47960722
0.702,0.8047706,4.588265,4.9006968,0.18517524,-0.2694101,-0.52369225
0.704,1.0295532,4.396852,4.975455,0.20285513,-0.3156789,-0.5562066
0.706,1.2579801,4.2136207,5.067951,0.23025699,-0.33521113,-0.5763127
0.708,1.4883777,4.040629,5.173206,0.26800662,-0.32728875,-0.583781
0.71,1.7191565,3.8797047,5.286784,0.31626993,-0.29225963,-0.5788841
0.712,1.9482388,3.7327862,5.4045205,0.3747912,-0.23151527,-0.5623498
0.714,2.1734252,3.6013308,5.5223637,0.4429397,-0.14732471,-0.5352539
0.716,2.3923085,3.486198,5.636744,0.51979166,-0.042634994,-0.4989249
0.718,2.6027143,3.3879204,5.7442,0.604179,0.07907653,-0.4548307
0.72,2.802276,3.3068717,5.84088,0.69478905,0.21406624,-0.40445468
0.722,2.9882684,3.2431211,5.9236193,0.7902134,0.3583872,-0.34924325
0.724,3.1584356,3.19621,5.990168,0.8889973,0.5080069,-0.29059994
0.726,3.3102064,3.165404,6.0389104,0.9897733,0.6590325,-0.2297666
0.728,3.4414518,3.149886,6.0691853,1.091303,0.8078368,-0.1677846
0.73,3.549321,3.1487973,6.080649,1.1924276,0.95095664,-0.10552639
0.732,3.6317022,3.1611114,6.073995,1.292119,1.0850724,-0.043750048
0.734,3.6866472,3.1858287,6.050806,1.3894339,1.2070735,0.016859472
0.736,3.7121065,3.2218697,6.0131035,1.483521,1.3141018,0.07567108
0.738,3.706925,3.2677722,5.9631987,1.5735825,1.4036157,0.1320138
0.74,3.6702135,3.3220737,5.903751,1.6588601,1.4734281,0.18519634
0.742,3.6012383,3.383115,5.837782,1.7386067,1.5217592,0.23450333
0.744,3.5000153,3.4493332,5.76816,1.8121595,1.5473516,0.27924174
0.746,3.3670645,3.5189373,5.698163,1.8789715,1.5495204,0.3187809
0.748,3.2032142,3.5907128,5.631058,1.9386315,1.5281789,0.35256004
0.75,3.0097084,3.6634755,5.5698104,1.9908893,1.4838481,0.38014966
0.752,2.7890868,3.73558,5.516878,2.0357258,1.4176885,0.4012701
0.754,2.5442848,3.8051045,5.473903,2.0733683,1.3314772,0.41582024
0.756,2.2792237,3.8703356,5.4427476,2.104287,1.2275748,0.42390704
0.758,1.9972734,3.9298081,5.426016,2.129173,1.1088898,0.4258173
0.76,1.7015892,3.9824476,5.4262304,2.1489468,0.9787986,0.42200983
0.762,1.3960757,4.027163,5.4451776,2.16471,0.84103984,0.41313368
0.764,1.0846705,4.062946,5.4835443,2.1776793,0.6995904,0.39995825
0.766,0.77176976,4.088949,5.5412107,2.1891274,0.5585038,0.38333565
0.768,0.4611802,4.1045184,5.617708,2.2002842,0.4217442,0.36412996
0.77,0.1571424,4.108792,5.7126517,2.2122886,0.29302275,0.34320986
0.772,-0.13689208,4.1011577,5.825532,2.2261803,0.17566217,0.32144588
0.774,-0.4173863,4.0812125,5.955863,2.2428555,0.0724914,0.2997018
0.776,-0.68154764,4.0488334,6.1023154,2.2630405,-0.0142553,0.27882165
0.778,-0.92674065,4.0042467,6.262835,2.2872415,-0.08299673,0.25955087
0.78,-1.1503639,3.9475288,6.435246,2.3157618,-0.13272098,0.24253786
0.782,-1.3505864,3.8793843,6.6171513,2.3486907,-0.16292256,0.22829086
0.784,-1.5256059,3.8003182,6.8066344,2.3859355,-0.17363141,0.21714401
0.786,-1.6746643,3.7106981,7.0016694,2.4271622,-0.1654385,0.20921683
0.788,-1.7969422,3.6111355,7.200054,2.47184,-0.13936791,0.20443165
0.79,-1.8926971,3.5024867,7.3994985,2.5192885,-0.09673176,0.202551
0.792,-1.9620299,3.3858721,7.5977926,2.56876,-0.03910271,0.20323777
0.794,-2.0055268,3.2624483,7.792967,2.6194196,0.03168294,0.20608318
0.796,-2.0243363,3.133817,7.9827194,2.6704218,0.113562,0.21062827
0.798,-2.0191884,3.0014622,8.164507,2.7209337,0.2043065,0.21643293
0.8,-1.991219,2.8669453,8.335653,2.770176,0.3016442,0.22309649
0.802,-1.9417925,2.7318609,8.493898,2.8174314,0.40340906,0.23029757
0.804,-1.8727376,2.5978465,8.637106,2.862065,0.50768083,0.23782611
0.806,-1.7857976,2.4666486,8.763021,2.9035788,0.61290514,0.2455908
0.808,-1.6825526,2.3398829,8.86953,2.9416413,0.7179199,0.25361085
0.81,-1.5648973,2.2195241,8.954472,2.9760654,0.8218513,0.26196063
0.812,-1.4347136,2.1073623,9.016054,3.006796,0.92399013,0.27069938
0.814,-1.2939548,2.0052142,9.052697,3.033885,1.023754,0.27981365
0.816,-1.1446576,1.914576,9.063015,3.0574882,1.1207047,0.28922153
0.818,-0.98860884,1.8368617,9.046048,3.0778809,1.2144408,0.29879165
0.82,-0.8275509,1.7731009,9.0007,3.0953472,1.3044661,0.30834043
0.822,-0.6629963,1.7241222,8.926467,3.1101546,1.3901424,0.31765115
0.824,-0.49634933,1.6907107,8.823309,3.1225295,1.4707757,0.32647276
0.826,-0.32921696,1.6734456,8.691683,3.1326396,1.5456753,0.33452904
0.828,-0.16315556,1.6721201,8.532441,3.140609,1.6141465,0.34156418
0.83,0.0006210804,1.6859045,8.347107,3.1465483,1.6755913,0.34738696
0.832,0.16100383,1.7138039,8.137775,3.15063,1.729558,0.35194838
0.834,0.3164351,1.7546799,7.906846,3.1530747,1.7757239,0.35531068
0.836,0.46587563,1.8071887,7.6571145,3.154187,1.8139564,0.35768437
0.838,0.60800695,1.8697292,7.391487,3.1543646,1.844384,0.35942638
0.84,0.7423563,1.9402446,7.1131773,3.1540844,1.867353,0.3610164
0.842,0.8683188,2.0167134,6.8257236,3.1538622,1.883276,0.3629309
0.844,0.9851904,2.0968256,6.532439,3.1542106,1.8925829,0.36558747
0.846,1.0926716,2.1779664,6.2366447,3.155572,1.8957175,0.36929452
0.848,1.1902715,2.2579575,5.9417896,3.1583447,1.8931823,0.37420857
0.85,1.2777711,2.3342125,5.6513414,3.1628428,1.8854873,0.38032842
0.852,1.3549333,2.40442,5.3687396,3.169251,1.8730671,0.38744223
0.854,1.4214618,2.466466,5.097417,3.1776223,1.8561534,0.39510226
0.856,1.4772075,2.5183802,4.8401723,3.1878867,1.8347151,0.40265536
0.858,1.5224206,2.5580177,4.5998797,3.199862,1.808473,0.40933073
0.86,1.5577685,2.5836308,4.379034,3.213242,1.7768552,0.4142871
0.862,1.5840034,2.5937717,4.180394,3.2275577,1.7390413,0.41667926
0.864,1.6015915,2.587215,4.006532,3.2422698,1.6941009,0.41573095
0.866,1.6109256,2.563082,3.8587475,3.2567515,1.6410849,0.4107417
0.868,1.6128321,2.5210805,3.7372072,3.270269,1.5789366,0.40106714
0.87,1.6084373,2.4608865,3.642352,3.282022,1.5065877,0.38609803
0.872,1.5986643,2.382719,3.574771,3.291234,1.4232743,0.3653289
0.874,1.5843413,2.2872508,3.5352864,3.2972946,1.3287683,0.3384565
0.876,1.5658774,2.1755095,3.5242007,3.2998228,1.223449,0.305452
0.878,1.5441715,2.048746,3.5411017,3.2987084,1.1082942,0.26657283
0.88,1.519558,1.9087363,3.584556,3.2941542,0.9849269,0.22238779
0.882,1.4930359,1.75733,3.6522374,3.2866995,0.8556497,0.17377317
0.884,1.4654619,1.5966917,3.7414305,3.277173,0.7232576,0.12182701
0.886,1.4379036,1.4290502,3.8495398,3.266619,0.59080833,0.06775737
0.888,1.4109684,1.2567104,3.9740567,3.2561975,0.4614454,0.012803197
0.89,1.3850629,1.0822258,4.1122117,3.247035,0.33815438,-0.04190743
0.892,1.3609802,0.9077766,4.2609744,3.2401574,0.2236149,-0.095416784
0.894,1.3393141,0.7359648,4.4167523,3.2364259,0.12012228,-0.14698815
0.896,1.3208168,0.56942433,4.5761967,3.236496,0.029494226,-0.19607377
0.898,1.3063135,0.41040146,4.7360473,3.240769,-0.04704407,-0.24234796
0.9,1.2966571,0.26082146,4.893032,3.2494779,-0.10880959,-0.28567797
0.902,1.2927005,0.12218273,5.0441628,3.2627015,-0.1555416,-0.32601708
0.904,1.2952747,-0.0043194294,5.1865087,3.2804174,-0.18735367,-0.36338997
0.906,1.3051884,-0.11771834,5.31795,3.3025393,-0.20471913,-0.39785808
0.908,1.322832,-0.21723437,5.436819,3.3289325,-0.20835426,-0.42945492
0.91,1.3489467,-0.30236065,5.541801,3.3593957,-0.19924325,-0.45824236
0.912,1.3840634,-0.3731897,5.6315393,3.3936133,-0.17862663,-0.48432523
0.914,1.4290493,-0.43002582,5.704972,3.431202,-0.14789775,-0.50784296
0.916,1.4845169,-0.47345114,5.7615666,3.4717412,-0.10851896,-0.52898914
0.918,1.5504922,-0.50432086,5.8013268,3.5147355,-0.061978042,-0.54796416
0.92,1.6271715,-0.52387404,5.824751,3.5596774,-0.009731948,-0.56493956
0.922,1.7139966,-0.5334308,5.83239,3.6060896,0.046893,-0.58002055
0.924,1.8106136,-0.5342984,5.824734,3.6535296,0.10669091,-0.59326345
0.926,1.9162744,-0.52791977,5.8024216,3.7015834,0.16854292,-0.6047049
0.928,2.0298817,-0.51587987,5.7659583,3.7498667,0.231426,-0.6143601
0.93,2.1498778,-0.49922752,5.7163086,3.798002,0.29438025,-0.6222565
0.932,2.2748086,-0.4793923,5.6540384,3.845621,0.3565067,-0.6283999
0.934,2.4029374,-0.45763183,5.5800533,3.8923464,0.41687948,-0.63278854
0.936,2.5327036,-0.43529153,5.4950166,3.9378011,0.4745232,-0.6354886
0.938,2.6622865,-0.4131391,5.3996806,3.9816132,0.5284546,-0.63662755
0.94,2.7894917,-0.39156842,5.2947054,4.0234375,0.5777307,-0.6363908
0.942,2.9119382,-0.37107515,5.180515,4.062949,0.62148774,-0.63506114
0.944,3.027823,-0.35222888,5.057701,4.0999417,0.6590428,-0.632987
0.946,3.1353345,-0.33549976,4.9270487,4.134312,0.68993396,-0.6305556
0.948,3.232513,-0.3211155,4.789649,4.1660895,0.71393496,-0.6281619
0.95,3.3175268,-0.30885935,4.646734,4.1954303,0.73110145,-0.6261784
0.952,3.3888068,-0.29873633,4.499403,4.2226343,0.7418408,-0.62490773
0.954,3.4452477,-0.29074907,4.3491874,4.2480807,0.74678254,-0.62456155
0.956,3.4861326,-0.28477716,4.197815,4.272192,0.7466749,-0.6253091
0.958,3.5111957,-0.2809496,4.046925,4.295422,0.74235505,-0.6272441
0.96,3.5204268,-0.279145,3.8981657,4.318218,0.7347425,-0.63037205
0.962,3.5144625,-0.27954602,3.753202,4.340979,0.72467995,-0.6346626
0.964,3.494162,-0.28245997,3.6137843,4.3640556,0.7129271,-0.6400355
0.966,3.4607089,-0.28840184,3.4818413,4.387751,0.70011526,-0.6463938
0.968,3.4154353,-0.2977667,3.3590145,4.4122505,0.68671346,-0.6536294
0.97,3.3601098,-0.31144392,3.2472143,4.4376307,0.672996,-0.6616323
0.972,3.2963817,-0.33005083,3.1481638,4.4638515,0.659002,-0.6703061
0.974,3.2265778,-0.3546263,3.063568,4.4907527,0.6445743,-0.67953444
0.976,3.152852,-0.38620675,2.9949038,4.51808,0.62941086,-0.68918383
0.978,3.0774832,-0.42588532,2.943552,4.5454826,0.6130601,-0.6990988
0.98,3.002616,-0.47453284,2.9103246,4.572527,0.5949099,-0.7091007
0.982,2.93026,-0.5331254,2.895577,4.5987005,0.57430005,-0.7189959
0.984,2.8627422,-0.60274744,2.8992624,4.6234684,0.55058086,-0.72857666
0.986,2.8020706,-0.68418956,2.9210546,4.6462684,0.5231571,-0.737656
0.988,2.7499685,-0.777985,2.9602356,4.6665697,0.49153554,-0.74609566
0.99,2.7078717,-0.88437164,3.0160372,4.683922,0.45539105,-0.7537651
0.992,2.6766977,-1.0033509,3.0874574,4.697992,0.41464114,-0.76058507
0.994,2.6568148,-1.1345111,3.1730177,4.7086105,0.36946112,-0.76653993
0.996,2.6485336,-1.2772771,3.2708976,4.715822,0.32024646,-0.7716473
0.998,2.6520863,-1.4307897,3.3789034,4.7198133,0.2676161,-0.7759529
1,2.6674194,-1.5939791,3.4941947,4.720946,0.21236563,-0.7795199
1.002,2.694318,-1.7655673,3.6138191,4.719703,0.15546024,-0.7824002
1.004,2.7322266,-1.9442296,3.7346811,4.716679,0.09795976,-0.7846419
1.006,2.7806897,-2.1284518,3.853712,4.7125044,0.040881038,-0.78629726
1.008,2.8388534,-2.316687,3.9679751,4.7077837,-0.014842331,-0.7874152
1.01,2.9062247,-2.5074077,4.0749393,4.703065,-0.06843138,-0.78804386
1.012,2.9818776,-2.698851,4.1718597,4.6988044,-0.11932248,-0.7882234
1.014,3.06493,-2.8892932,4.256559,4.6953845,-0.16717684,-0.7879975
1.016,3.1546538,-3.07732,4.3271627,4.6930914,-0.21186566,-0.7874375
1.018,3.2504172,-3.261553,4.382143,4.692124,-0.2534861,-0.7866752
1.02,3.3515902,-3.4406953,4.4204397,4.6925983,-0.29232597,-0.78586197
1.022,3.4578168,-3.6136622,4.441409,4.694598,-0.3288228,-0.78516465
1.024,3.568447,-3.7794476,4.444941,4.69815,-0.36352062,-0.78472453
1.026,3.6833577,-3.937374,4.431541,4.703261,-0.39697856,-0.78469306
1.028,3.8023584,-4.086978,4.4019585,4.7099257,-0.42973286,-0.78522176
1.03,3.925347,-4.227926,4.3572288,4.7181234,-0.46227604,-0.78643847
1.032,4.0522137,-4.3600273,4.2987547,4.727865,-0.49498975,-0.788417
1.034,4.1828284,-4.4833016,4.228037,4.7392054,-0.528065,-0.79115903
1.036,4.3173294,-4.5979586,4.146705,4.7522216,-0.5614936,-0.7946011
1.038,4.4558125,-4.704143,4.056407,4.767032,-0.59505063,-0.7986336
1.04,4.598368,-4.8024344,3.958973,4.7837467,-0.62831384,-0.8030834
1.042,4.744567,-4.8929033,3.8565192,4.8024487,-0.66073185,-0.8077147
1.044,4.894143,-4.9758554,3.7508945,4.8231487,-0.6917274,-0.81226325
1.046,5.0465984,-5.051422,3.6439364,4.8457785,-0.72082865,-0.8164411
1.048,5.2014933,-5.119802,3.5372357,4.8701587,-0.7477275,-0.8200067
1.05,5.358697,-5.181675,3.4321437,4.8960094,-0.7723493,-0.82276654
1.052,5.5180683,-5.2376404,3.3299716,4.922962,-0.7949483,-0.82459795
1.054,5.678929,-5.2881584,3.2317004,4.9505754,-0.81609195,-0.82543254
1.056,5.840294,-5.333667,3.1380832,4.978389,-0.83664644,-0.8253079
1.058,6.001374,-5.3745317,3.0498772,5.005965,-0.8576369,-0.8243284
1.06,6.16104,-5.411137,2.9677563,5.0329475,-0.8800983,-0.8226476
1.062,6.318346,-5.443942,2.8923986,5.059107,-0.9049581,-0.82047546
1.064,6.4721417,-5.473298,2.8245947,5.084345,-0.9329454,-0.81807816
1.066,6.6208878,-5.499534,2.7650256,5.1086774,-0.964501,-0.81575835
1.068,6.7631125,-5.523058,2.714705,5.132229,-0.99978757,-0.8138249
1.07,6.897365,-5.544433,2.6745448,5.155231,-1.0386479,-0.812575
1.072,7.022184,-5.564001,2.6455474,5.1779957,-1.0806344,-0.81223035
1.074,7.1362824,-5.582583,2.6287355,5.200877,-1.1250815,-0.81297463
1.076,7.2385683,-5.6010213,2.6250172,5.2241783,-1.171239,-0.81493706
1.078,7.327797,-5.620016,2.6351743,5.248181,-1.2183075,-0.81818974
1.08,7.4025736,-5.6400614,2.6601353,5.2730722,-1.2655581,-0.82272583
1.082,7.46196,-5.662065,2.7007155,5.2989073,-1.3123715,-0.828513
1.084,7.504886,-5.6866302,2.757635,5.3256707,-1.3582625,-0.83546674
1.086,7.5306177,-5.714404,2.8313897,5.3532276,-1.4029226,-0.8434644
1.088,7.5384817,-5.745926,2.922099,5.3813486,-1.4462357,-0.85238844
1.09,7.5285325,-5.7817574,3.0298307,5.409741,-1.4882597,-0.86214155
1.092,7.5007873,-5.8221884,3.1543047,5.4380302,-1.5292227,-0.87259173
1.094,7.455154,-5.867343,3.2949486,5.465775,-1.5695328,-0.8836467
1.096,7.392306,-5.917443,3.450918,5.492482,-1.609717,-0.8952336
1.098,7.3128786,-5.9726143,3.6208365,5.51761,-1.6503993,-0.907299
1.1,7.217797,-6.032591,3.802964,5.540605,-1.6923202,-0.91982883
1.102,7.108305,-6.097069,3.9953606,5.5609,-1.7363439,-0.93284565
1.104,6.9857855,-6.1655984,4.1960797,5.577983,-1.7833476,-0.94639397
1.106,6.851659,-6.237505,4.403086,5.5914383,-1.8341321,-0.96054417
1.108,6.7074747,-6.3120155,4.614289,5.6009674,-1.8894304,-0.9753846
1.11,6.555286,-6.3885865,4.8273473,5.6064224,-1.9498625,-0.9909841
1.112,6.3972516,-6.466526,5.039752,5.6078224,-2.0158286,-1.0074135
1.114,6.2355447,-6.5454063,5.249,5.605371,-2.087427,-1.0247117
1.116,6.0722857,-6.62477,5.452738,5.599429,-2.164423,-1.0428594
1.118,5.9095993,-6.7042418,5.648732,5.590495,-2.2462237,-1.0618029
1.12,5.749389,-6.7831707,5.834947,5.5791993,-2.3319266,-1.081449
1.122,5.5938377,-6.86125,6.009563,5.5662227,-2.4203115,-1.1016948
1.124,5.4447594,-6.9384356,6.171015,5.5522785,-2.509954,-1.1224079
1.126,5.3042703,-7.0149937,6.318073,5.538044,-2.5993257,-1.1434711
1.128,5.1737485,-7.0912066,6.4497232,5.5241766,-2.68683,-1.1647758
1.13,5.054417,-7.1673245,6.565353,5.511257,-2.77093,-1.186229
1.132,4.9472446,-7.2438517,6.664731,5.49975,-2.8503292,-1.2077922
1.134,4.853035,-7.3213387,6.748023,5.489959,-2.9240613,-1.2294616
1.136,4.772027,-7.4003615,6.8153734,5.4820204,-2.9915433,-1.2512921
1.138,4.704183,-7.4811625,6.867602,5.4758587,-3.05261,-1.2734592
1.14,4.648716,-7.5638804,6.905647,5.471202,-3.1074853,-1.2962315
1.142,4.6049595,-7.648405,6.930458,5.467604,-3.1567466,-1.3199427
1.144,4.571552,-7.7344513,6.9431696,5.464491,-3.2012653,-1.3449565
1.146,4.5468216,-7.8212476,6.944996,5.461213,-3.2420454,-1.3716695
1.148,4.5289097,-7.907879,6.937346,5.4571314,-3.2800615,-1.4004064
1.15,4.516162,-7.993246,6.92167,5.4516735,-3.3161926,-1.4314303
1.152,4.5068145,-8.07607,6.8995185,5.4444056,-3.351066,-1.4648753
1.154,4.4989023,-8.155052,6.872121,5.435082,-3.3849387,-1.5007184
1.156,4.490493,-8.228954,6.840473,5.423673,-3.4176412,-1.5387774
1.158,4.4798145,-8.296425,6.805706,5.410326,-3.448652,-1.5787431
1.16,4.4649544,-8.355797,6.7692018,5.3953767,-3.4771214,-1.6202006
1.162,4.444239,-8.405497,6.732269,5.3793197,-3.5018604,-1.6626294
1.164,4.416278,-8.444169,6.695986,5.3627596,-3.5214744,-1.7054373
1.166,4.380382,-8.471003,6.661419,5.346355,-3.5345275,-1.747967
1.168,4.336319,-8.485835,6.629219,5.330778,-3.53963,-1.78954
1.17,4.284173,-8.488939,6.600152,5.3166776,-3.5355039,-1.8294647
1.172,4.2240233,-8.480759,6.574958,5.3046303,-3.521064,-1.8670373
1.174,4.1564693,-8.462227,6.554475,5.2951326,-3.4954455,-1.9015533
1.176,4.082588,-8.434877,6.5399,5.2886,-3.4580338,-1.9323292
1.178,4.0036745,-8.400865,6.532021,5.28539,-3.4085007,-1.9586948
1.18,3.9212894,-8.362317,6.5316434,5.285813,-3.3467884,-1.9800143
1.182,3.8368344,-8.322146,6.539607,5.290082,-3.2731092,-1.9957204
1.184,3.752083,-8.2832775,6.556561,5.298322,-3.1878963,-2.0053592
1.186,3.6686625,-8.248533,6.5826416,5.3105383,-3.091783,-2.008583
1.188,3.5884743,-8.221171,6.6180973,5.3266077,-2.9856763,-2.0051723
1.19,3.5134578,-8.204327,6.662711,5.346255,-2.8708098,-1.995051
1.192,3.4450696,-8.201056,6.7159953,5.3690486,-2.748744,-1.9782915
1.194,3.3846364,-8.213891,6.7770243,5.394358,-2.621431,-1.955122
1.196,3.333037,-8.245107,6.8448143,5.4213095,-2.4912171,-1.925933
1.198,3.2909174,-8.296517,6.9179754,5.448767,-2.3607903,-1.8912814
1.2,3.2583914,-8.369165,6.9944763,5.475355,-2.233144,-1.8518245
1.202,3.2355533,-8.463867,7.071907,5.4995055,-2.1114845,-1.8082887
1.204,3.2226722,-8.580856,7.147338,5.5195374,-1.9990685,-1.7614219
1.206,3.2200885,-8.720075,7.2176313,5.5337796,-1.8990209,-1.7119675
1.208,3.2267752,-8.880245,7.279776,5.5406775,-1.8141302,-1.6606226
1.21,3.2403917,-9.059254,7.3280973,5.538894,-1.7468346,-1.6080337
1.212,3.2617009,-9.255259,7.3571386,5.5274315,-1.6989456,-1.5547223
1.214,3.2903466,-9.466387,7.3654075,5.5057874,-1.671426,-1.5010601
1.216,3.323792,-9.689432,7.3514795,5.473909,-1.6645764,-1.447333
1.218,3.3613305,-9.921253,7.311022,5.4321475,-1.6780274,-1.393749
1.22,3.4022303,-10.158089,7.2395215,5.381249,-1.7107114,-1.3404514
1.222,3.4453144,-10.396226,7.133901,5.322258,-1.7610558,-1.2875458
1.224,3.4902148,-10.631701,6.992015,5.2563896,-1.827157,-1.2351012
1.226,3.5370965,-10.861481,6.812682,5.1849365,-1.9069082,-1.1831788
1.228,3.58536,-11.082358,6.5968614,5.109151,-1.9981601,-1.1318727
1.23,3.627654,-11.288932,6.3459764,5.030194,-2.0988503,-1.0812849
1.232,3.6679769,-11.481635,6.0653615,4.949101,-2.207047,-1.0315559
1.234,3.705108,-11.658527,5.755042,4.8667607,-2.3210773,-0.98284805
1.236,3.7454185,-11.819632,5.415744,4.783961,-2.4395647,-0.9353731
1.238,3.788956,-11.961672,5.048131,4.701461,-2.5613472,-0.88938165
1.24,3.832509,-12.081207,4.6590986,4.620154,-2.6851387,-0.8450516
1.242,3.8750703,-12.177252,4.25751,4.540902,-2.8099189,-0.80258626
1.244,3.924779,-12.25285,3.8485174,4.4644165,-2.9351816,-0.7622305
1.246,3.981529,-12.307203,3.432954,4.391523,-3.0600505,-0.72414863
1.248,4.043157,-12.339149,3.015364,4.3231106,-3.1833458,-0.68841004
1.25,4.112432,-12.35088,2.6047215,4.2599344,-3.3040576,-0.6550144
1.252,4.1958623,-12.346314,2.2088118,4.2027035,-3.4212139,-0.62383854
1.254,4.3007965,-12.329102,1.8322315,4.152086,-3.5337076,-0.5946599
1.256,4.41894,-12.295214,1.4756384,4.108607,-3.6404257,-0.5671866
1.258,4.5454226,-12.243368,1.1411448,4.072503,-3.7405086,-0.54106724
1.26,4.6841187,-12.1749935,0.8321285,4.043629,-3.8335092,-0.51592183
1.262,4.839085,-12.091725,0.5518522,4.0217285,-3.918941,-0.49105167
1.264,5.0082464,-11.9931135,0.3023305,4.00686,-3.9955642,-0.46524298
1.266,5.193979,-11.882241,0.08798313,3.9992337,-4.0617394,-0.43716717
1.268,5.398273,-11.762297,-0.08885479,3.9989202,-4.116332,-0.40569556
1.27,5.6227126,-11.634853,-0.22976685,4.0057845,-4.1587095,-0.36987865
1.272,5.871424,-11.502758,-0.33854628,4.0201383,-4.1872396,-0.32827878
1.274,6.1484914,-11.367617,-0.4205494,4.0430436,-4.198748,-0.27883577
1.276,6.4532228,-11.227646,-0.48200703,4.07584,-4.189352,-0.21942091
1.278,6.7851596,-11.081219,-0.5283513,4.120201,-4.1546135,-0.14796019
1.28,7.145048,-10.927002,-0.56396437,4.1784444,-4.0887995,-0.0619061
1.282,7.531749,-10.762817,-0.5934911,4.253366,-3.9848657,0.041757107
1.284,7.9434967,-10.586725,-0.6232996,4.347609,-3.8352923,0.16594148
1.286,8.378716,-10.397081,-0.66043854,4.462681,-3.634328,0.3127079
1.288,8.835227,-10.191669,-0.7111907,4.59895,-3.3781257,0.48366904
1.29,9.309819,-9.968266,-0.78051376,4.755809,-3.0646362,0.68014956
1.292,9.79821,-9.724426,-0.8715105,4.9309707,-2.6953447,0.9022608
1.294,10.294602,-9.458017,-0.9856701,5.120192,-2.2759929,1.148424
1.296,10.792517,-9.1678295,-1.1226683,5.3178744,-1.8156726,1.4157498
1.298,11.284923,-8.853091,-1.2807298,5.5176105,-1.3262801,1.7004223
1.3,11.7642765,-8.513268,-1.4563589,5.712294,-0.8228937,1.9975204
1.302,12.222694,-8.147869,-1.6446075,5.8947363,-0.32246315,2.3013415
1.304,12.652366,-7.7572308,-1.839443,6.058323,0.15786624,2.605847
1.306,13.046134,-7.342311,-2.0340605,6.197243,0.6014546,2.9047267
1.308,13.397579,-6.904465,-2.2211728,6.306736,0.9932773,3.1920705
1.31,13.700711,-6.445552,-2.3932514,6.3833885,1.3212562,3.4630237
1.312,13.950452,-5.9674034,-2.5428681,6.4252925,1.5772636,3.714113
1.314,14.142688,-5.472128,-2.6629577,6.431956,1.7574842,3.943502
1.316,14.274418,-4.9619637,-2.747485,6.403913,1.861902,4.1509237
1.318,14.344952,-4.439603,-2.7914197,6.3424807,1.8937135,4.3376245
1.32,14.355366,-3.9078267,-2.7891655,6.2499285,1.8591899,4.5062895
1.322,14.304548,-3.3683352,-2.73773,6.129549,1.7673512,4.660508
1.324,14.194032,-2.8224394,-2.6395009,5.9853787,1.6285223,4.8039465
1.326,14.028067,-2.272267,-2.4971228,5.8213477,1.4518331,4.9392767
1.328,13.809551,-1.7191088,-2.3111668,5.641137,1.2446842,5.0681148
1.33,13.54213,-1.1641622,-2.083373,5.448646,1.0134512,5.191439
1.332,13.230827,-0.6083062,-1.8181403,5.247594,0.76301074,5.3094163
1.334,12.880863,-0.052636445,-1.5211291,5.0410833,0.49594712,5.4210505
1.336,12.497476,0.5025568,-1.1987354,4.8317227,0.2130723,5.524681
1.338,12.086796,1.0567777,-0.8583137,4.6219387,-0.08546424,5.618775
1.34,11.659766,1.6071796,-0.50560343,4.4142118,-0.39873803,5.7023478
1.342,11.215249,2.156407,-0.14808941,4.2104597,-0.7258781,5.774319
1.344,10.758864,2.7030377,0.21363091,4.0118527,-1.0662252,5.8336554
1.346,10.290549,3.2465541,0.5783118,3.8195534,-1.4178332,5.8801847
1.348,9.817358,3.7828927,0.9447406,3.6348257,-1.7775136,5.9145174
1.35,9.347895,4.308453,1.306971,3.4588325,-2.1413689,5.937518
1.352,8.886867,4.822238,1.6606969,3.292615,-2.5048923,5.950145
1.354,8.430844,5.3257537,2.0074081,3.137284,-2.8628063,5.9537964
1.356,7.986049,5.8157644,2.352259,2.9940338,-3.2093034,5.9502206
1.358,7.5586677,6.288962,2.6959074,2.8639872,-3.5386448,5.9414287
1.36,7.1493506,6.7452426,3.035641,2.7481253,-3.8454132,5.929753
1.362,6.755996,7.1851597,3.3713484,2.647169,-4.1250052,5.9173794
1.364,6.377811,7.608193,3.7054462,2.561471,-4.3739185,5.906124
1.366,6.0272317,8.007558,4.042552,2.4908972,-4.5899525,5.897386
1.368,5.708299,8.381829,4.3835635,2.4349077,-4.772147,5.892072
1.37,5.4154496,8.732747,4.727196,2.3926308,-4.920538,5.890521
1.372,5.1441436,9.062113,5.071717,2.3629353,-5.0359974,5.8926125
1.374,4.8959255,9.370283,5.416076,2.3445566,-5.1200514,5.8979993
1.376,4.666856,9.661107,5.756797,2.3361619,-5.1747847,5.9062347
1.378,4.4533744,9.937956,6.092531,2.3364296,-5.202661,5.9167776
1.38,4.2523656,10.201878,6.424227,2.3441272,-5.2062426,5.9290533
1.382,4.05878,10.455088,6.752921,2.3581865,-5.1879954,5.9425235
1.384,3.8680625,10.698263,7.0791416,2.3776958,-5.1501565,5.9567447
1.386,3.679544,10.930173,7.402092,2.4018974,-5.0946636,5.9713984
1.388,3.4904845,11.151249,7.7195635,2.430183,-5.0230904,5.9863076
1.39,3.2965522,11.362662,8.02832,2.462109,-4.9366317,6.001391
1.392,3.0945835,11.565237,8.32596,2.4973447,-4.8361306,6.016619
1.394,2.8811727,11.760309,8.611324,2.535637,-4.722148,6.0320177
1.396,2.6524382,11.949541,8.883514,2.5767963,-4.595108,6.0476494
1.398,2.4047997,12.134195,9.141195,2.620634,-4.455392,6.063517
1.4,2.1356149,12.315151,9.382231,2.6669407,-4.3033876,6.079535
1.402,1.8431158,12.493204,9.603792,2.7154737,-4.1394815,6.095584
1.404,1.5264368,12.669191,9.803074,2.7659366,-3.9641924,6.1115513
1.406,1.185215,12.843721,9.97757,2.817924,-3.778219,6.1273584
1.408,0.81999063,13.017259,10.124478,2.8709853,-3.5824308,6.142943
1.41,0.43164158,13.189939,10.241167,2.924616,-3.3779202,6.158213
1.412,0.021903217,13.361518,10.325245,2.9782553,-3.1659393,6.1731124
1.414,-0.40714973,13.532171,10.37473,3.0313075,-2.9479153,6.187635
1.416,-0.8533195,13.7019825,10.3878765,3.083138,-2.7254577,6.2018127
1.418,-1.3137565,13.870957,10.363247,3.1331089,-2.5004153,6.2156343
1.42,-1.7848148,14.038967,10.299604,3.1805964,-2.2748022,6.2290497
1.422,-2.262411,14.205751,10.195914,3.224996,-2.0507088,6.2419224
1.424,-2.7424657,14.371458,10.051472,3.265746,-1.8303512,6.254056
1.426,-3.2211673,14.536516,9.866186,3.302355,-1.6160078,6.2651324
1.428,-3.6940613,14.701277,9.640419,3.334434,-1.4099085,6.2747087
1.43,-4.1565905,14.865949,9.375101,3.3617496,-1.214149,6.282283
1.432,-4.604054,15.030662,9.071568,3.3842208,-1.0306067,6.2873225
1.434,-5.0322323,15.1959,8.731642,3.401906,-0.86089796,6.289284
1.436,-5.437639,15.362494,8.357585,3.414913,-0.7063803,6.287683
1.438,-5.8170114,15.5311165,7.952116,3.4234166,-0.5681616,6.282162
1.44,-6.167771,15.702797,7.518238,3.427629,-0.44706798,6.2724557
1.442,-6.48806,15.878517,7.059658,3.4277792,-0.3436488,6.258442
1.444,-6.77695,16.059656,6.580467,3.4240894,-0.25823188,6.2400794
1.446,-7.0338407,16.247107,6.085225,3.4167755,-0.19097197,6.2173758
1.448,-7.2587366,16.441525,5.5786037,3.4060168,-0.14184666,6.190377
1.45,-7.451919,16.64367,5.065115,3.391985,-0.11067301,6.1591463
1.452,-7.6146874,16.854065,4.5497494,3.3748329,-0.09717494,6.12377
1.454,-7.7489467,17.073467,4.037314,3.3546846,-0.101070106,6.084325
1.456,-7.8578963,17.302391,3.5326595,3.331658,-0.12205678,6.0407796
1.458,-7.944514,17.541105,3.0411353,3.3058949,-0.15972412,5.99304
1.46,-8.012708,17.789677,2.5676978,3.2775831,-0.2135067,5.94093
1.462,-8.066488,18.048115,2.1165483,3.2469084,-0.28272313,5.8842955
1.464,-8.110123,18.31631,1.6914719,3.21406,-0.36651325,5.8230104
1.466,-8.148665,18.593924,1.2959162,3.17931,-0.46380234,5.75692
1.468,-8.186084,18.880524,0.93260455,3.1430025,-0.5732742,5.6858873
1.47,-8.227563,19.175486,0.60426354,3.1055727,-0.69331664,5.609825
1.472,-8.277962,19.478256,0.31348705,3.067475,-0.8220512,5.5287156
1.474,-8.34168,19.787876,0.062405825,3.029216,-0.95741516,5.4426403
1.476,-8.422896,20.103298,-0.14783287,2.991274,-1.0972562,5.3517885
1.478,-8.525409,20.423277,-0.31646204,2.9540985,-1.2393773,5.2564383
1.48,-8.6524725,20.746614,-0.443815,2.918062,-1.3816241,5.156963
1.482,-8.806695,21.072136,-0.53054976,2.8834631,-1.5219681,5.053794
1.484,-8.990441,21.398563,-0.57752824,2.8505292,-1.6585605,4.9473844
1.486,-9.20515,21.72449,-0.5864086,2.8194528,-1.7897214,4.8381906
1.488,-9.451717,22.048157,-0.5595033,2.7904246,-1.913944,4.726602
1.49,-9.7303705,22.368114,-0.49927115,2.7636917,-2.0298605,4.6128926
1.492,-10.041053,22.68306,-0.4085765,2.7395632,-2.1361732,4.4972243
1.494,-10.382627,22.99165,-0.2905817,2.718422,-2.2316422,4.3797135
1.496,-10.753462,23.292206,-0.14859772,2.7006834,-2.315114,4.2604012
1.498,-11.151102,23.58341,0.0135986805,2.686795,-2.3855069,4.1393437
1.5,-11.572908,23.864037,0.19169176,2.677152,-2.4419403,4.016626
1.502,-12.015472,24.1329,0.3815409,2.6721032,-2.4836943,3.892375
1.504,-12.475813,24.389418,0.5796777,2.671909,-2.510248,3.7667363
1.506,-12.950706,24.63282,0.7827208,2.6766987,-2.5214007,3.6398754
1.508,-13.436827,24.862577,0.9873352,2.6865315,-2.5172174,3.511973
1.51,-13.931069,25.07838,1.1901717,2.701366,-2.49804,3.3832197
1.512,-14.430511,25.280407,1.3880646,2.7210557,-2.4645555,3.2537377
1.514,-14.932512,25.469254,1.5781277,2.745396,-2.4177222,3.1235797
1.516,-15.4350395,25.646229,1.7576927,2.7741528,-2.358686,2.992731
1.518,-15.93694,25.812693,1.9247252,2.807042,-2.2887688,2.8611083
1.52,-16.437021,25.96997,2.0776362,2.843715,-2.2094295,2.7285829
1.522,-16.934725,26.119589,2.215371,2.8837469,-2.1222498,2.5950005
1.524,-17.429811,26.263264,2.3373775,2.926632,-2.0288568,2.4601915
1.526,-17.92245,26.403076,2.4435117,2.9718144,-1.9308634,2.3240166
1.528,-18.41348,26.541126,2.5346043,3.0186803,-1.8298004,2.1862879
1.53,-18.904087,26.67995,2.6118112,3.0666125,-1.7270868,2.0467927
1.532,-19.395746,26.821978,2.676755,3.115015,-1.6240392,1.9052575
1.534,-19.88938,26.96931,2.731083,3.163352,-1.5218811,1.7613186
1.536,-20.385868,27.123892,2.7767482,3.2111926,-1.421744,1.6145217
1.538,-20.88616,27.287561,2.8157897,3.2582297,-1.3246939,1.4643172
1.54,-21.390905,27.461617,2.8506727,3.304285,-1.2317827,1.3100505
1.542,-21.901491,27.648348,2.8838205,3.3492997,-1.1440723,1.1509969
1.544,-22.418,27.84922,2.9197903,3.3932748,-1.0626495,0.98638415
1.546,-22.939468,28.06445,2.9618087,3.43625,-0.9886655,0.8154246
1.548,-23.464685,28.293697,3.0128112,3.4782841,-0.9233162,0.6373276
1.55,-23.992119,28.53659,3.0759418,3.519401,-0.867811,0.45136988
1.552,-24.519827,28.792658,3.1540058,3.559557,-0.82335484,0.2569263
1.554,-25.045002,29.060646,3.249545,3.598647,-0.7910066,0.053505063
1.556,-25.564476,29.339392,3.364801,3.636469,-0.77181005,-0.15923268
1.558,-26.074863,29.6273,3.5017052,3.6727135,-0.76671845,-0.38148388
1.56,-26.57266,29.922655,3.661864,3.7070265,-0.77649915,-0.61330354
1.562,-27.053625,30.223354,3.8464184,3.73898,-0.8017882,-0.8546588
1.564,-27.514,30.527138,4.056155,3.768135,-0.84312135,-1.1054282
1.566,-27.949972,30.831575,4.291562,3.7940958,-0.90081936,-1.3654256
1.568,-28.357443,31.133732,4.552433,3.8165028,-0.9750585,-1.6344564
1.57,-28.732399,31.430746,4.838578,3.8350532,-1.0658529,-1.9122777
1.572,-29.071249,31.71959,5.1496487,3.8494601,-1.1731584,-2.1986382
1.574,-29.370897,31.997387,5.4850607,3.859542,-1.296668,-2.4934022
1.576,-29.62836,32.261204,5.8442435,3.8651922,-1.435687,-2.7964008
1.578,-29.84173,32.508373,6.2264023,3.8662987,-1.589464,-3.107352
1.58,-30.00856,32.73645,6.630307,3.8627543,-1.7570304,-3.4258947
1.582,-30.12703,32.942833,7.0543633,3.8544421,-1.9371982,-3.7516038
1.584,-30.196075,33.12528,7.497318,3.8412051,-2.1286209,-4.084009
1.586,-30.214647,33.281593,7.9575477,3.8228762,-2.3298032,-4.422559
1.588,-30.182386,33.409904,8.433195,3.799271,-2.5391243,-4.766654
1.59,-30.099112,33.508408,8.922823,3.7702131,-2.7548888,-5.115665
1.592,-29.964882,33.575485,9.425086,3.7355537,-2.9753036,-5.4689455
1.594,-29.780136,33.609566,9.938459,3.6951761,-3.1985269,-5.8258185
1.596,-29.545732,33.609367,10.461342,3.6490207,-3.42263,-6.1855645
1.598,-29.262392,33.573795,10.992281,3.597085,-3.6456542,-6.547408
1.6,-28.931229,33.502052,11.529567,3.5393977,-3.8655994,-6.91051
1.602,-28.553474,33.39343,12.071328,3.476006,-4.080472,-7.2739325
1.604,-28.130777,33.247536,12.615584,3.40697,-4.2883253,-7.636716
1.606,-27.66465,33.06423,13.16025,3.3323512,-4.4873137,-7.997888
1.608,-27.157034,32.84328,13.702964,3.252217,-4.6757736,-8.3564825
1.61,-26.609478,32.585003,14.241628,3.1666386,-4.8522053,-8.71159
1.612,-26.023884,32.289864,14.774215,3.0757582,-5.0153136,-9.062362
1.614,-25.40171,31.958298,15.298768,2.9797878,-5.164038,-9.408029
1.616,-24.744604,31.591257,15.813444,2.8790143,-5.297526,-9.747891
1.618,-24.053934,31.189774,16.31661,2.7738194,-5.4150944,-10.081301
1.62,-23.330696,30.755232,16.807041,2.6646595,-5.5162587,-10.407633
1.622,-22.576061,30.289337,17.28385,2.5520804,-5.6007233,-10.726257
1.624,-21.791279,29.794064,17.746605,2.436659,-5.6683855,-11.036595
1.626,-20.977255,29.271763,18.194954,2.3190374,-5.7192807,-11.338033
1.628,-20.134617,28.725098,18.628904,2.199779,-5.7538366,-11.6299
1.63,-19.264057,28.15725,19.048683,2.079408,-5.772835,-11.911697
1.632,-18.365694,27.571308,19.455002,1.9584677,-5.7771606,-12.183121
1.634,-17.439436,26.970615,19.848848,1.8374016,-5.768073,-12.444006
1.636,-16.484947,26.358538,20.231457,1.7165978,-5.74716,-12.694305
1.638,-15.501789,25.738691,20.604057,1.5963581,-5.7162223,-12.934091
1.64,-14.489798,25.114971,20.968693,1.4769204,-5.677232,-13.163639
1.642,-13.448205,24.491325,21.3273,1.3584616,-5.632279,-13.383357
1.644,-12.376831,23.87194,21.682144,1.2410731,-5.583457,-13.59378
1.646,-11.275417,23.261272,22.035316,1.1247892,-5.532816,-13.795544
1.648,-10.143953,22.663437,22.388887,1.0095544,-5.4822855,-13.989351
1.65,-8.9823475,22.082916,22.74425,0.8952236,-5.4336796,-14.1759815
1.652,-7.790008,21.523,23.102598,0.78156114,-5.3886843,-14.356275
1.654,-6.566855,20.986767,23.46327,0.6682477,-5.3488545,-14.531141
1.656,-5.314124,20.478045,23.826878,0.55489874,-5.315628,-14.701536
1.658,-4.033346,20.000435,24.193913,0.44103527,-5.2904205,-14.868408
1.66,-2.7259707,19.556356,24.564533,0.3261032,-5.2746267,-15.032705
1.662,-1.394382,19.147882,24.938608,0.20948291,-5.269644,-15.195322
1.664,-0.041374683,18.776932,25.315956,0.0904994,-5.276869,-15.357104
1.666,1.3294969,18.444822,25.696571,-0.031579256,-5.297697,-15.518746
1.668,2.7145448,18.152676,26.080414,-0.15750861,-5.3334503,-15.680795
1.67,4.111124,17.900751,26.467388,-0.28800178,-5.3854036,-15.843651
1.672,5.5151725,17.689417,26.857384,-0.423728,-5.454667,-16.007523
1.674,6.9229355,17.518696,27.250135,-0.5652844,-5.5422206,-16.172443
1.676,8.331008,17.388283,27.645355,-0.713169,-5.6488686,-16.338345
1.678,9.735908,17.298012,28.043356,-0.8677851,-5.7752047,-16.505032
1.68,11.134426,17.247412,28.444103,-1.0294312,-5.921561,-16.672188
1.682,12.523876,17.235964,28.847788,-1.1982852,-6.088024,-16.839401
1.684,13.902637,17.262602,29.254517,-1.3744459,-6.2744627,-17.00611
1.686,15.269776,17.32593,29.664433,-1.5579271,-6.4804397,-17.17161
1.688,16.624855,17.42425,30.077694,-1.7486651,-6.7052584,-17.335032
1.69,17.968502,17.555214,30.494658,-1.9465415,-6.9479933,-17.495352
1.692,19.302135,17.716267,30.91549,-2.15131,-7.2075157,-17.651413
1.694,20.627897,17.90414,31.340256,-2.362653,-7.4825687,-17.801912
1.696,21.948553,18.115059,31.768795,-2.5801454,-7.7718935,-17.945484
1.698,23.268177,18.3446,32.200607,-2.80323,-8.074305,-18.080832
1.7,24.591215,18.587492,32.63546,-3.0312767,-8.388779,-18.206749
1.702,25.922453,18.83771,33.073093,-3.2635748,-8.714487,-18.322275
1.704,27.2669,19.088524,33.51284,-3.4993477,-9.050811,-18.426579
1.706,28.629677,19.332943,33.954155,-3.7377994,-9.397332,-18.518969
1.708,30.01555,19.563255,34.39618,-3.9781733,-9.753738,-18.598835
1.71,31.428415,19.772018,34.838627,-4.219754,-10.119634,-18.665594
1.712,32.87213,19.950974,35.28118,-4.4618287,-10.494334,-18.71856
1.714,34.34918,20.091585,35.723904,-4.703736,-10.876833,-18.756851
1.716,35.86178,20.185272,36.16681,-4.944842,-11.265707,-18.779263
1.718,37.410378,20.223713,36.6106,-5.1845098,-11.659156,-18.784279
1.72,38.99404,20.199265,37.056778,-5.422074,-12.055011,-18.770096
1.722,40.61023,20.104977,37.50731,-5.656799,-12.450916,-18.734673
1.724,42.25525,19.934845,37.96475,-5.88793,-12.844427,-18.675867
1.726,43.924015,19.684023,38.43167,-6.1145897,-13.233126,-18.591568
1.728,45.611183,19.348684,38.910297,-6.3357577,-13.614789,-18.479794
1.73,47.310402,18.926289,39.403404,-6.550299,-13.987437,-18.338839
1.732,49.014484,18.415644,39.914337,-6.7569075,-14.349323,-18.167414
1.734,50.716145,17.816626,40.44639,-6.9540234,-14.698752,-17.964651
1.736,52.407795,17.13112,41.003273,-7.1398892,-15.034086,-17.73013
1.738,54.081432,16.362926,41.588093,-7.3124876,-15.353655,-17.463825
1.74,55.730553,15.516743,42.20384,-7.469595,-15.655718,-17.166122
1.742,57.348778,14.599316,42.853065,-7.6087565,-15.93849,-16.837736
1.744,58.92981,13.6187935,43.538124,-7.727319,-16.200018,-16.479664
1.746,60.469,12.584566,44.26058,-7.8225107,-16.438364,-16.09306
1.748,61.963055,11.507385,45.02053,-7.8915577,-16.651814,-15.679143
1.75,63.410164,10.398867,45.81732,-7.9317703,-16.83898,-15.239111
1.752,64.809364,9.27156,46.64988,-7.940643,-16.99896,-14.774137
1.754,66.16125,8.139224,47.5167,-7.915918,-17.13145,-14.285431
1.756,67.467995,7.0156326,48.41532,-7.855632,-17.236746,-13.7742405
1.758,68.73296,5.915333,49.34278,-7.7582865,-17.31594,-13.241903
1.76,69.96027,4.8545885,50.296593,-7.6228204,-17.371017,-12.689957
1.762,71.15689,3.8495407,51.274803,-7.4486465,-17.40468,-12.120119
1.764,72.33027,2.9167318,52.27489,-7.2356424,-17.420202,-11.5341835
1.766,73.48849,2.074133,53.295002,-6.984171,-17.421286,-10.934019
1.768,74.63956,1.340662,54.333073,-6.6949606,-17.411703,-10.321534
1.77,75.79787,0.72890854,55.3881,-6.369028,-17.395042,-9.698511
1.772,76.97327,0.258564,56.458477,-6.0076523,-17.374647,-9.0665245
1.774,78.17676,-0.047771454,57.543022,-5.61223,-17.353298,-8.426895
1.776,79.41884,-0.1654377,58.63698,-5.18408,-17.332905,-7.7804756
1.778,80.71501,-0.074775696,59.739647,-4.724355,-17.314493,-7.127592
1.78,82.078636,0.24737549,60.861774,-4.234029,-17.298368,-6.4681344
1.782,83.513855,0.83976364,62.020367,-3.7138286,-17.284025,-5.801485
1.784,85.0453,1.7214584,63.220406,-3.164264,-17.270285,-5.1265764
1.786,86.681274,2.91815,64.45729,-2.5856917,-17.255568,-4.4419575
1.788,88.415924,4.450922,65.70987,-1.978461,-17.238152,-3.745769
1.79,90.259,6.3476753,66.9759,-1.3430581,-17.216267,-3.0358484
1.792,92.20285,8.641172,68.253006,-0.6802087,-17.188223,-2.309644
1.794,94.22574,11.361747,69.54828,0.008948803,-17.152643,-1.5643543
1.796,96.3162,14.528117,70.88011,0.72259045,-17.108683,-0.7969558
1.798,98.441376,18.165718,72.26223,1.4581032,-17.056108,-0.004550457
1.8,100.57365,22.312944,73.67931,2.2120116,-16.995262,0.8160271
1.802,102.689735,26.995657,75.12733,2.9800692,-16.926558,1.6683265
1.804,104.79838,32.199272,76.64439,3.75771,-16.849695,2.5558047
1.806,106.84215,37.91442,78.28231,4.540134,-16.763685,3.481956
1.808,108.67086,44.1308,80.12777,5.3217773,-16.667412,4.4500995
1.81,110.39603,50.833755,82.134796,6.095667,-16.559223,5.4636574
1.812,112.12051,57.99256,84.274124,6.85497,-16.43315,6.526863
1.814,113.86374,65.561646,86.56613,7.593658,-16.279196,7.6463776
1.816,115.431946,73.54657,89.03525,8.306202,-16.084766,8.829168
1.818,116.78811,81.894104,91.71058,8.9878845,-15.834662,10.080293
1.82,117.92183,90.5657,94.55391,9.63353,-15.511127,11.40378
1.822,118.81589,99.46036,97.601715,10.236977,-15.094215,12.802477
1.824,119.467926,108.47578,100.97402,10.790307,-14.563315,14.27647
1.826,119.89305,117.51792,104.64617,11.2844715,-13.895444,15.826021
1.828,120.103676,126.42224,108.44411,11.710636,-13.065115,17.453094
1.83,120.18965,135.22798,112.3241,12.061085,-12.045841,19.15432
1.832,119.80236,144.00148,116.50763,12.321413,-10.821472,20.919632
1.834,119.67265,152.17827,121.15555,12.470491,-9.383015,22.737976
1.836,119.53374,159.64589,126.14045,12.488373,-7.7211123,24.605722
1.838,119.48777,166.43762,131.29895,12.369045,-5.815921,26.52541
1.84,119.52113,172.53477,136.57999,12.118301,-3.6606498,28.479416
1.842,119.75871,177.74942,141.98776,11.735393,-1.269835,30.432188
1.844,120.29941,181.932,147.47005,11.21586,1.3486695,32.371696
1.846,121.25127,185.03381,153.00461,10.560791,4.1865096,34.28245
1.848,122.66542,187.11606,158.49423,9.798961,7.2330594,36.13872
1.85,124.5766,188.20764,163.78203,8.972265,10.470285,37.918774
1.852,127.05374,188.31236,168.70065,8.132331,13.869993,39.60764
1.854,130.11513,187.44005,173.11311,7.345295,17.411488,41.160667
1.856,133.7356,185.65482,176.88898,6.6744165,21.085804,42.4998
1.858,137.86038,183.0521,179.9051,6.155143,24.853779,43.590084
1.86,142.404,179.75336,182.04915,5.775267,28.550903,44.344772
1.862,147.2418,175.8842,183.19493,5.617872,32.182217,44.637676
1.864,152.25777,171.54945,183.21867,5.699955,35.677143,44.386337
1.866,157.33243,166.86406,182.0211,5.9397717,38.911465,43.540424
1.868,162.3095,161.9567,179.55841,6.2556286,41.77586,42.049072
1.87,167.0182,156.95294,175.8243,6.5694566,44.147182,39.888172
1.872,171.3023,151.96097,170.84792,6.786023,45.892204,37.05137
1.874,175.02715,147.06776,164.70572,6.81502,46.89083,33.5611
1.876,178.05246,142.35706,157.51808,6.5919313,47.059074,29.462973
1.878,180.26863,137.89255,149.43651,6.0843363,46.357117,24.80863
1.88,181.58676,133.71513,140.64847,5.2902403,44.78763,19.658722
1.882,181.95012,129.83592,131.36304,4.22759,42.390903,14.10282
1.884,181.33719,126.257195,121.79227,2.9204936,39.244663,8.277791
1.886,179.75441,122.96848,112.15663,1.396203,35.466583,2.3661976
1.888,177.25781,119.95535,102.67232,-0.32205963,31.195404,-3.4183607
1.89,173.93622,117.21166,93.53807,-2.220314,26.572674,-8.85043
1.892,169.89563,114.71051,84.93011,-4.28986,21.737919,-13.706913
1.894,165.25331,112.43949,77.009605,-6.5157394,16.84766,-17.772795
1.896,160.16176,110.374344,69.91044,-8.859593,12.056769,-20.881882
1.898,154.78464,108.49468,63.738174,-11.262053,7.492298,-22.966389
1.9,149.26508,106.77426,58.534813,-13.649043,3.2771049,-24.026928
1.902,143.75404,105.18306,54.304955,-15.946243,-0.47110677,-24.131927
1.904,138.39767,103.6952,51.009148,-18.065073,-3.6466289,-23.4221
1.906,133.30945,102.29472,48.57389,-19.914406,-6.164874,-22.088848
1.908,128.59883,100.95793,46.91481,-21.417828,-7.9844246,-20.322872
1.91,124.339966,99.6535,45.958252,-22.512974,-9.108725,-18.306427
1.912,120.57714,98.36672,45.601704,-23.155499,-9.5578,-16.250515
1.914,117.30684,97.113716,45.704636,-23.330605,-9.335791,-14.284619
1.916,114.56708,95.88825,46.13578,-23.154572,-8.6718,-12.495655
1.918,112.428955,94.675,46.763878,-22.689472,-7.714364,-10.990815
1.92,110.696075,93.45632,47.597553,-21.97065,-6.6063304,-9.853229
1.922,109.23895,92.2224,48.61197,-21.10316,-5.531153,-9.112194
1.924,108.03264,90.96741,49.740715,-20.213917,-4.649266,-8.776449
1.926,107.21139,89.63903,50.93596,-19.406889,-4.0903873,-8.826803
1.928,106.70012,88.24926,52.167076,-18.77122,-3.9569802,-9.229283
1.93,106.40433,86.79258,53.472958,-18.381865,-4.3195066,-9.925814
1.932,106.24908,85.3175,54.821983,-18.28851,-5.20242,-10.824537
1.934,106.159645,83.85541,56.13846,-18.509262,-6.578912,-11.816566
1.936,106.0639,82.42115,57.50392,-19.027271,-8.375803,-12.795902
1.938,105.91481,81.082886,59.084507,-19.793367,-10.489714,-13.6665945
1.94,105.620995,79.72749,60.858818,-20.736845,-12.80208,-14.344439
1.942,105.46807,78.290596,62.59043,-21.777521,-15.188944,-14.760991
1.944,104.76917,77.252075,64.18794,-22.83465,-17.529081,-14.869568
1.946,103.933685,76.532265,65.825554,-23.833399,-19.715862,-14.650594
1.948,102.9206,75.97029,67.61518,-24.70237,-21.66155,-14.113728
1.95,101.80203,75.52899,69.499954,-25.37734,-23.29322,-13.2942095
1.952,100.5113,75.33919,71.36751,-25.811245,-24.561811,-12.245258
1.954,99.03098,75.45837,73.16659,-25.976913,-25.449047,-11.029077
1.956,97.34563,75.8461,74.816956,-25.865067,-25.960548,-9.707401
1.958,95.49138,76.40087,76.309906,-25.482014,-26.118752,-8.334103
1.96,93.497795,77.1035,77.66711,-24.848166,-25.960907,-6.950404
1.962,91.34868,77.976776,78.889244,-23.996395,-25.53498,-5.5864315
1.964,89.067856,79.03885,79.93636,-22.967587,-24.893513,-4.263607
1.966,86.69357,80.26145,80.770996,-21.805138,-24.089691,-2.9955387
1.968,84.260796,81.60426,81.36659,-20.550972,-23.172564,-1.7892876
1.97,81.80116,83.02205,81.70806,-19.242914,-22.18323,-0.6477709
1.972,79.350655,84.48299,81.816284,-17.913528,-21.154037,0.42896748
1.974,76.91112,85.97904,81.72476,-16.590004,-20.108292,1.4450006
1.976,74.47859,87.48811,81.461716,-15.293427,-19.062462,2.4046435
1.978,72.07676,88.97327,81.02998,-14.038714,-18.026464,3.3107672
1.98,69.732635,90.40014,80.43562,-12.8356695,-17.00493,4.165512
1.982,67.454414,91.74819,79.69086,-11.690419,-15.99921,4.9705687
1.984,65.24083,93.0068,78.80262,-10.606277,-15.009216,5.727518
1.986,63.111313,94.15579,77.77733,-9.58451,-14.034587,6.437699
1.988,61.071945,95.18356,76.6278,-8.625128,-13.075383,7.101785
1.99,59.126797,96.09306,75.36312,-7.7274756,-12.132529,7.7194595
1.992,57.280815,96.88988,73.99734,-6.890916,-11.208246,8.289588
1.994,55.53121,97.57142,72.55399,-6.115393,-10.306475,8.810619
1.996,53.876957,98.13635,71.051926,-5.401366,-9.432634,9.281096
1.998,52.296726,98.5836,69.50455,-4.749566,-8.593076,9.699817
2,50.77362,98.89807,67.92182,-4.160954,-7.7950606,10.0656
2.002,49.30876,99.076,66.31595,-3.6366632,-7.0465794,10.377168
2.004,47.890446,99.12147,64.70114,-3.1777258,-6.355997,10.633262
2.006,46.506474,99.04142,63.090996,-2.784831,-5.731634,10.832815
2.008,45.151016,98.842354,61.497894,-2.458026,-5.1814175,10.97514
2.01,43.81951,98.530685,59.93381,-2.1965337,-4.7124963,11.060095
2.012,42.507362,98.11478,58.410103,-1.998538,-4.330746,11.088375
2.014,41.207348,97.6036,56.938385,-1.8610959,-4.040329,11.061526
2.016,39.91185,97.005035,55.527313,-1.7800822,-3.8432577,10.982138
2.018,38.612724,96.325035,54.181847,-1.7502623,-3.7390146,10.85396
2.02,37.30195,95.56754,52.904106,-1.7653732,-3.72429,10.681808
2.022,35.97258,94.735634,51.69565,-1.8182287,-3.7929332,10.47143
2.024,34.61903,93.832726,50.557632,-1.9011188,-3.9361615,10.229391
2.026,33.237843,92.864204,49.48907,-2.0060315,-4.142834,9.962794
2.028,31.827534,91.83604,48.487995,-2.124997,-4.399967,9.678955
2.03,30.387959,90.75389,47.551716,-2.2504368,-4.693457,9.38517
2.032,28.919384,89.62395,46.677155,-2.3754985,-5.008906,9.0883
2.034,27.422808,88.45266,45.86067,-2.4943876,-5.3324575,8.794536
2.036,25.899479,87.24551,45.098335,-2.6025872,-5.6515703,8.509211
2.038,24.3502,86.00759,44.385956,-2.6969755,-5.955612,8.236668
2.04,22.77659,84.74375,43.719044,-2.7758353,-6.236319,7.980246
2.042,21.180202,83.458305,43.09256,-2.838737,-6.4880605,7.742305
2.044,19.562477,82.15569,42.50135,-2.8863583,-6.707838,7.5241947
2.046,17.924793,80.84045,41.940647,-2.9201806,-6.895014,7.3264685
2.048,16.268333,79.51721,41.40622,-2.9421284,-7.0508127,7.1490602
2.05,14.594695,78.19062,40.893963,-2.9542925,-7.1778564,6.9915133
2.052,12.90608,76.86499,40.4003,-2.9586513,-7.279484,6.853156
2.054,11.20392,75.54426,39.921715,-2.9567742,-7.3591504,6.733306
2.056,9.48937,74.23199,39.455406,-2.9497075,-7.4198594,6.631428
2.058,7.7635565,72.93172,38.999207,-2.9379196,-7.4637938,6.547259
2.06,6.027693,71.64642,38.551304,-2.9213803,-7.4920907,6.480878
2.062,4.283613,70.379326,38.109215,-2.8996024,-7.50465,6.4327025
2.064,2.534174,69.13335,37.67011,-2.871791,-7.5000772,6.4033904
2.066,0.78310776,67.91056,37.23127,-2.8369942,-7.4758444,6.393754
2.068,-0.96554184,66.71304,36.789055,-2.794206,-7.4284844,6.4047017
2.07,-2.7077827,65.543144,36.340187,-2.7424626,-7.3537126,6.4370227
2.072,-4.4385357,64.40266,35.879738,-2.6808605,-7.2466927,6.4912596
2.074,-6.151434,63.293175,35.40135,-2.6086016,-7.10227,6.567674
2.076,-7.8386726,62.21562,34.89805,-2.5250068,-6.9151726,6.6662207
2.078,-9.492271,61.17037,34.362083,-2.4293976,-6.6802278,6.7865257
2.08,-11.103819,60.157707,33.784695,-2.3210964,-6.392579,6.927886
2.082,-12.664645,59.177315,33.15658,-2.1995296,-6.0479693,7.089282
2.084,-14.165369,58.228355,32.467915,-2.064211,-5.6429768,7.269317
2.086,-15.596633,57.309944,31.708324,-1.9148049,-5.175241,7.466326
2.088,-16.949211,56.42049,30.86884,-1.7511249,-4.6436253,7.678397
2.09,-18.214329,55.558662,29.939762,-1.573308,-4.048337,7.9032855
2.092,-19.38276,54.722763,28.910885,-1.3818088,-3.390985,8.138338
2.094,-20.445614,53.91069,27.772184,-1.1773734,-2.6745143,8.3805895
2.096,-21.39493,53.120483,26.514389,-0.96105087,-1.9032488,8.626746
2.098,-22.223536,52.349407,25.12947,-0.7341169,-1.0827887,8.873284
2.1,-22.925713,51.593937,23.61186,-0.4979502,-0.21976507,9.116619
2.102,-23.496937,50.851364,21.957874,-0.2539935,0.67827487,9.353135
2.104,-23.934267,50.12006,20.166016,-0.0036352873,1.6030602,9.5793295
2.106,-24.235565,49.397835,18.235302,0.2518522,2.5458572,9.791795
2.108,-24.400269,48.683266,16.165756,0.5113557,3.497694,9.987341
2.11,-24.428722,47.97486,13.959145,0.77400774,4.449456,10.163093
2.112,-24.323235,47.271385,11.61902,1.039151,5.3920794,10.316557
2.114,-24.087765,46.572044,9.1504,1.3063124,6.316642,10.445616
2.116,-23.728151,45.876427,6.5604134,1.5750704,7.2142754,10.548452
2.118,-23.252155,45.184334,3.858716,1.8448535,8.076128,10.623513
2.12,-22.669146,44.49564,1.0575123,2.1148717,8.893382,10.6693325
2.122,-21.990276,43.810886,-1.8284435,2.3840613,9.656998,10.68453
2.124,-21.227772,43.13097,-4.7818165,2.650939,10.357362,10.667692
2.126,-20.395554,42.457153,-7.7823944,2.9133852,10.984196,10.617166
2.128,-19.508259,41.790672,-10.8080635,3.1685624,11.52664,10.531004
2.13,-18.581146,41.132618,-13.834146,3.4128504,11.973282,10.407074
2.132,-17.63002,40.484257,-16.834362,3.6420608,12.312435,10.243272
2.134,-16.670723,39.847286,-19.780811,3.8517604,12.532637,10.037734
2.136,-15.718679,39.222973,-22.644447,4.0373497,12.62327,9.788859
2.138,-14.789148,38.61255,-25.39587,4.194065,12.575039,9.495475
2.14,-13.896243,38.017242,-28.005758,4.317248,12.380472,9.15708
2.142,-13.052662,37.437897,-30.445545,4.402714,12.034692,8.77413
2.144,-12.269358,36.87484,-32.68832,4.447379,11.5361805,8.3483715
2.146,-11.555592,36.3285,-34.709633,4.4496846,10.887564,7.8829975
2.148,-10.918413,35.79899,-36.487972,4.410103,10.0962105,7.382692
2.15,-10.362981,35.286255,-38.005737,4.331538,9.174789,6.8536034
2.152,-9.892117,34.790222,-39.249153,4.2194233,8.141249,6.3030624
2.154,-9.506354,34.31034,-40.209007,4.081596,7.0183535,5.7392464
2.156,-9.204106,33.846107,-40.88106,3.9279292,5.832944,5.170765
2.158,-8.981759,33.39666,-41.26606,3.769555,4.614588,4.6061416
2.16,-8.833948,32.9612,-41.369465,3.6179886,3.393826,4.0534015
2.162,-8.753689,32.538906,-41.201084,3.4841688,2.2003365,3.5195055
2.164,-8.732319,32.12889,-40.774727,3.3774989,1.0611788,3.0099988
2.166,-8.759696,31.730341,-40.1082,3.3052163,-0.0008032322,2.5288978
2.168,-8.825298,31.342285,-39.222317,3.2719882,-0.96812534,2.0786753
2.17,-8.918472,30.963913,-38.140686,3.2798436,-1.8291711,1.6604562
2.172,-9.028269,30.594355,-36.88784,3.3284912,-2.5782015,1.2742796
2.174,-9.144308,30.233223,-35.489674,3.4155908,-3.2149024,0.9193268
2.176,-9.25672,29.880566,-33.972603,3.5372994,-3.7433722,0.59408414
2.178,-9.355725,29.536846,-32.362244,3.6888947,-4.1709104,0.296638
2.18,-9.432105,29.202232,-30.683681,3.8653755,-4.506945,0.024885297
2.182,-9.478495,28.877512,-28.959213,4.0618176,-4.762092,-0.22336483
2.184,-9.488658,28.563126,-27.209173,4.273643,-4.9472084,-0.45045757
2.186,-9.458051,28.260103,-25.451984,4.496583,-5.072796,-0.6588867
2.188,-9.382728,27.969872,-23.703821,4.7267475,-5.148653,-0.8511238
2.19,-9.259422,27.693829,-21.978115,4.9608808,-5.1835823,-1.0294149
2.192,-9.085751,27.433273,-20.286518,5.1964664,-5.1850986,-1.1957583
2.194,-8.860931,27.189596,-18.638224,5.4315667,-5.159487,-1.351994
2.196,-8.584951,26.963938,-17.040085,5.6646557,-5.11205,-1.499765
2.198,-8.258191,26.757765,-15.498002,5.8945,-5.0473275,-1.6405311
2.2,-7.8821797,26.572235,-14.014967,6.120058,-4.969288,-1.7755089
2.202,-7.45928,26.408112,-12.591906,6.3404255,-4.8814507,-1.9057032
2.204,-6.9929147,26.266285,-11.22839,6.554803,-4.786974,-2.0318916
2.206,-6.4863567,26.147472,-9.923896,6.7624774,-4.6887264,-2.154605
2.208,-5.9432697,26.053217,-8.677031,6.9628,-4.589278,-2.27418
2.21,-5.3673587,25.984425,-7.48734,7.155209,-4.4909,-2.3907797
2.212,-4.7624593,25.941385,-6.353881,7.339272,-4.3955135,-2.504413
2.214,-4.132503,25.923603,-5.2749796,7.514678,-4.304688,-2.6149611
2.216,-3.4818444,25.930756,-4.247411,7.6812453,-4.2196426,-2.722196
2.218,-2.814761,25.962269,-3.2670279,7.838928,-4.1412582,-2.8258247
2.22,-2.1357443,26.017872,-2.3296108,7.9878325,-4.0701375,-2.9255
2.222,-1.4488089,26.097042,-1.4306269,8.128189,-4.006592,-3.0208642
2.224,-0.7574022,26.199055,-0.56536674,8.260289,-3.9508033,-3.1115994
2.226,-0.064594984,26.323153,0.27059078,8.384447,-3.902864,-3.1974454
2.228,0.6266904,26.468504,1.080966,8.500994,-3.8628178,-3.2782214
2.23,1.3138673,26.634247,1.8689995,8.610226,-3.8306983,-3.3538432
2.232,1.9945383,26.81948,2.6376514,8.712397,-3.8066046,-3.4243453
2.234,2.6664996,27.023151,3.3894176,8.807694,-3.790678,-3.4898326
2.236,3.3282802,27.243935,4.126173,8.896246,-3.783094,-3.5505216
2.238,3.9779859,27.480728,4.849574,8.978158,-3.784048,-3.6066964
2.24,4.614474,27.732334,5.560672,9.053456,-3.7937362,-3.6587005
2.242,5.2366676,27.99749,6.2607975,9.122139,-3.8123326,-3.7069125
2.244,5.8439007,28.274765,6.9507713,9.184214,-3.839974,-3.7517319
2.246,6.4356284,28.562716,7.6313596,9.23967,-3.8767278,-3.7935724
2.248,7.0118685,28.860092,8.303196,9.28852,-3.922527,-3.8327937
2.25,7.5726285,29.16545,8.966788,9.330815,-3.977191,-3.8697596
2.252,8.11827,29.477484,9.622492,9.36664,-4.040445,-3.90479
2.254,8.649142,29.794697,10.27062,9.396092,-4.111861,-3.9381566
2.256,9.165803,30.115543,10.911318,9.419325,-4.1908917,-3.970055
2.258,9.669198,30.438488,11.54459,9.43646,-4.276891,-4.0006094
2.26,10.160211,30.761887,12.170344,9.447629,-4.3691206,-4.0298915
2.262,10.639918,31.083971,12.788385,9.452934,-4.4667807,-4.057906
2.264,11.109515,31.402948,13.398106,9.452435,-4.5690455,-4.084613
2.266,11.570398,31.716873,13.998751,9.4461,-4.675072,-4.1099567
2.268,12.023905,32.023876,14.589222,9.433848,-4.784027,-4.1338944
2.27,12.471699,32.3218,15.168683,9.415502,-4.895114,-4.156425
2.272,12.91529,32.60866,15.73579,9.390811,-5.0075645,-4.177586
2.274,13.356257,32.882168,16.289318,9.3594885,-5.1206336,-4.197489
2.276,13.796122,33.14006,16.827602,9.321208,-5.233618,-4.216288
2.278,14.236231,33.38011,17.349155,9.275665,-5.3458633,-4.234211
2.28,14.678048,33.600006,17.852362,9.222555,-5.4567814,-4.251546
2.282,15.122416,33.797394,18.335438,9.16163,-5.5657916,-4.268648
2.284,15.570495,33.97002,18.79666,9.092716,-5.6723633,-4.285956
2.286,16.022974,34.115753,19.234022,9.015716,-5.775972,-4.3039865
2.288,16.480453,34.232384,19.645618,8.930633,-5.876154,-4.323359
2.29,16.943323,34.31802,20.029583,8.837492,-5.9724813,-4.3448114
2.292,17.411758,34.370724,20.383945,8.73638,-6.0646048,-4.3692164
2.294,17.885376,34.3891,20.706985,8.627411,-6.15227,-4.397552
2.296,18.363583,34.371864,20.997128,8.510677,-6.235363,-4.4309263
2.298,18.845543,34.318134,21.252968,8.386276,-6.3138776,-4.470528
2.3,19.32996,34.227367,21.473347,8.254302,-6.387934,-4.517583
2.302,19.815079,34.09938,21.65754,8.11485,-6.457761,-4.5732703
2.304,20.299057,33.934273,21.805202,7.968,-6.5236564,-4.6386185
2.306,20.779541,33.732628,21.916084,7.8138127,-6.5859327,-4.714432
2.308,21.253891,33.49524,21.99047,7.652342,-6.644887,-4.801257
2.31,21.719296,33.22325,22.028908,7.48361,-6.7007427,-4.899351
2.312,22.172668,32.91818,22.032171,7.3076344,-6.753591,-5.008625
2.314,22.611057,32.581657,22.001083,7.124456,-6.803324,-5.1286716
2.316,23.031109,32.21569,21.93727,6.934138,-6.849596,-5.2587867
2.318,23.429739,31.822294,21.842052,6.736852,-6.891816,-5.397976
2.32,23.803944,31.403917,21.717194,6.532856,-6.9291897,-5.5450563
2.322,24.150606,30.963114,21.564548,6.322524,-6.960758,-5.698635
2.324,24.46733,30.502382,21.385822,6.106379,-6.9854383,-5.8571844
2.326,24.751684,30.024368,21.182877,5.885069,-7.0021076,-6.0190372
2.328,25.001799,29.531536,20.957443,5.659353,-7.0097003,-6.182434
2.33,25.216267,29.026436,20.711414,5.4300365,-7.0072784,-6.34555
2.332,25.394056,28.511566,20.446552,5.197978,-6.9940925,-6.5064893
2.334,25.5349,27.989388,20.164654,4.9640102,-6.969628,-6.6633177
2.336,25.638773,27.462349,19.867298,4.7288637,-6.933704,-6.8140926
2.338,25.706484,26.932686,19.556253,4.493163,-6.886437,-6.956915
2.34,25.739235,26.402496,19.233194,4.2573795,-6.828303,-7.09002
2.342,25.738585,25.873695,18.899769,4.021864,-6.76007,-7.2118015
2.344,25.706856,25.34814,18.557362,3.7868392,-6.6828017,-7.3208904
2.346,25.64632,24.827581,18.207432,3.5524168,-6.5978146,-7.4162292
2.348,25.559967,24.313316,17.851328,3.3186362,-6.50661,-7.4971285
2.35,25.45068,23.806702,17.490688,3.0855393,-6.410771,-7.563244
2.352,25.321798,23.308807,17.126755,2.853169,-6.311909,-7.614626
2.354,25.176414,22.820656,16.761086,2.6216378,-6.211549,-7.6516447
2.356,25.017853,22.34312,16.395123,2.391167,-6.1110525,-7.6749964
2.358,24.849285,21.876804,16.030258,2.1621299,-6.0115156,-7.6855526
2.36,24.674007,21.422218,15.667667,1.935087,-5.913721,-7.6843348
2.362,24.494755,20.979792,15.308571,1.7107661,-5.818108,-7.6723814
2.364,24.314253,20.549824,14.954131,1.4900494,-5.7247944,-7.6506767
2.366,24.135027,20.13242,14.605259,1.273922,-5.6336136,-7.6201515
2.368,23.959154,19.727638,14.262623,1.0634089,-5.544216,-7.5815806
2.37,23.788292,19.335331,13.927125,0.8595295,-5.4561214,-7.5356426
2.372,23.623966,18.955208,13.599397,0.6632228,-5.368777,-7.4829125
2.374,23.467121,18.586899,13.280247,0.47533894,-5.281596,-7.4238296
2.376,23.318352,18.22987,12.970463,0.29659224,-5.194039,-7.3587866
2.378,23.17804,17.883362,12.670654,0.12750673,-5.1056232,-7.288098
2.38,23.046,17.546862,12.381113,-0.03154421,-5.015949,-7.212062
2.382,22.921738,17.219498,12.102323,-0.18034363,-4.924639,-7.130965
2.384,22.80471,16.900707,11.834321,-0.318753,-4.831327,-7.045043
2.386,22.693962,16.589764,11.577538,-0.44673252,-4.7356734,-6.9545784
2.388,22.588772,16.28583,11.331882,-0.5642843,-4.6373067,-6.859871
2.39,22.48772,15.988316,11.097322,-0.6714089,-4.535813,-6.7612305
2.392,22.389805,15.696421,10.873785,-0.76810837,-4.4307337,-6.6590233
2.394,22.293615,15.409472,10.660993,-0.8543525,-4.321544,-6.553609
2.396,22.1979,15.126627,10.458861,-0.93008447,-4.207652,-6.4453745
2.398,22.101112,14.847296,10.2670145,-0.9952271,-4.0884714,-6.3347015
2.4,22.001795,14.570838,10.085184,-1.049706,-3.9634285,-6.2219973
2.402,21.898472,14.2967825,9.912927,-1.0934491,-3.8319979,-6.1076803
2.404,21.790264,14.024393,9.749828,-1.1264105,-3.6937442,-5.992135
2.406,21.675888,13.75329,9.595336,-1.1485837,-3.5483284,-5.875719
2.408,21.554245,13.483001,9.448944,-1.1600239,-3.395545,-5.7587595
2.41,21.42481,13.213108,9.30985,-1.1608529,-3.2353454,-5.641535
2.412,21.286913,12.9433,9.177479,-1.1512755,-3.0678444,-5.5242934
2.414,21.140179,12.673392,9.051063,-1.131598,-2.8933606,-5.4072733
2.416,20.984312,12.403387,8.930079,-1.1022198,-2.7123675,-5.2907076
2.418,20.81921,12.133245,8.813696,-1.0636241,-2.5255184,-5.174817
2.42,20.64511,11.8629265,8.7013855,-1.016385,-2.3336012,-5.059823
2.422,20.46258,11.592465,8.592585,-0.96114326,-2.1375327,-4.9459324
2.424,20.271976,11.321945,8.486641,-0.89860713,-1.9382733,-4.833334
2.426,20.073921,11.051682,8.382573,-0.82951903,-1.7367891,-4.7221637
2.428,19.869226,10.781971,8.279591,-0.7546451,-1.5340014,-4.6124873
2.43,19.658745,10.513232,8.176687,-0.6747415,-1.3307306,-4.5043025
2.432,19.443632,10.245896,8.072763,-0.59054,-1.1276741,-4.3975363
2.434,19.224815,9.980686,7.966713,-0.50273424,-0.92539674,-4.292076
2.436,19.00362,9.717976,7.8573704,-0.4119829,-0.7243611,-4.1877666
2.438,18.781214,9.458441,7.74349,-0.31890154,-0.5249409,-4.0844827
2.44,18.558773,9.202701,7.623653,-0.22406447,-0.32747364,-3.9821572
2.442,18.337791,8.951286,7.4964333,-0.12801033,-0.1323185,-3.8808336
2.444,18.119278,8.704733,7.360358,-0.031265855,0.06008804,-3.7806716
2.446,17.90467,8.463502,7.213995,0.06564826,0.2491799,-3.6819527
2.448,17.695065,8.227971,7.0559025,0.1621775,0.43421936,-3.5851164
2.45,17.49168,7.9985394,6.884864,0.25774062,0.61428976,-3.4906776
2.452,17.295567,7.7755203,6.699725,0.35169935,0.78833073,-3.399205
2.454,17.107475,7.559104,6.4996724,0.44337448,0.95509815,-3.311258
2.456,16.928238,7.3494883,6.284102,0.5320121,1.1132128,-3.2273815
2.458,16.758408,7.146761,6.0528326,0.6168266,1.2612064,-3.1481144
2.46,16.598507,6.9509974,5.805781,0.697028,1.3975909,-3.073941
2.462,16.448694,6.7621536,5.543478,0.77186835,1.520963,-3.0052903
2.464,16.309193,6.580121,5.266705,0.84064627,1.6300635,-2.9424703
2.466,16.18012,6.404818,4.9768643,0.9027492,1.7238013,-2.885645
2.468,16.06116,6.23594,4.675508,0.9576611,1.8013334,-2.834791
2.47,15.952157,6.073384,4.3649726,1.0050015,1.8620608,-2.7896914
2.472,15.852791,5.916691,4.047624,1.0444865,1.9056423,-2.7499597
2.474,15.762472,5.7657967,3.726296,1.0759423,1.9319508,-2.7150962
2.476,15.680494,5.620482,3.4041913,1.0992622,1.9410353,-2.6845207
2.478,15.606342,5.4805055,3.0846732,1.1144321,1.9330722,-2.6576471
2.48,15.539379,5.3456597,2.771055,1.1214573,1.9083315,-2.633976
2.482,15.478784,5.215907,2.4666827,1.1203983,1.8671823,-2.6131234
2.484,15.424025,5.0910616,2.1746337,1.111324,1.8100772,-2.5948372
2.486,15.374336,4.9710636,1.8980198,1.094343,1.7375896,-2.5790093
2.488,15.328886,4.855916,1.6396353,1.0695763,1.6504283,-2.5656369
2.49,15.287024,4.745464,1.4019601,1.0372021,1.5494955,-2.5548043
2.492,15.248253,4.6397734,1.1871758,0.99746263,1.4359113,-2.5465856
2.494,15.211912,4.538647,0.9968114,0.95068145,1.3110592,-2.541022
2.496,15.177378,4.4422336,0.8319123,0.89726746,1.1765453,-2.538077
2.498,15.144119,4.3505383,0.6932397,0.8377589,1.0341915,-2.5376248
2.5,15.111743,4.263447,0.58082414,0.7728107,0.8859599,-2.5394385
2.502,15.079575,4.181079,0.49434662,0.70319885,0.7339205,-2.5431988
2.504,15.047416,4.103443,0.4330914,0.6298059,0.5801319,-2.5485425
2.506,15.01476,4.0306005,0.39572763,0.5536068,0.4265595,-2.555078
2.508,14.981307,3.9625406,0.38047075,0.47563314,0.2750462,-2.5624118
2.51,14.946837,3.899269,0.38536978,0.3969393,0.12721092,-2.570166
2.512,14.911151,3.8408647,0.4081304,0.31853324,-0.015593946,-2.5779653
2.514,14.87376,3.7873685,0.44626617,0.24137107,-0.15228552,-2.5854654
2.516,14.834882,3.7386985,0.49712777,0.16630375,-0.28207046,-2.5923588
2.518,14.794223,3.6948748,0.55797625,0.094062895,-0.40438563,-2.5983598
2.52,14.751653,3.6557436,0.62624764,0.025242686,-0.5188527,-2.6032233
2.522,14.707007,3.6213453,0.69906473,-0.039702594,-0.62528574,-2.6067116
2.524,14.66024,3.591652,0.7740178,-0.10049367,-0.72364193,-2.6086097
2.526,14.611309,3.5664454,0.8486893,-0.15697736,-0.81397665,-2.6087499
2.528,14.560217,3.5456514,0.9209144,-0.20912987,-0.8963782,-2.6069984
2.53,14.507105,3.5292048,0.9888475,-0.25703478,-0.97096074,-2.6032782
2.532,14.451828,3.5169525,1.0507281,-0.3008682,-1.037852,-2.5975635
2.534,14.394696,3.5087745,1.105336,-0.3408789,-1.0971853,-2.589885
2.536,14.335862,3.5042346,1.1516864,-0.37738353,-1.1490993,-2.5803506
2.538,14.275579,3.5029864,1.189115,-0.41072196,-1.1937791,-2.5691347
2.54,14.214027,3.504734,1.2171199,-0.4412632,-1.231456,-2.5564826
2.542,14.151423,3.5090694,1.2354558,-0.46935874,-1.2624266,-2.5427108
2.544,14.088169,3.5155945,1.2441223,-0.49534065,-1.2870655,-2.5281863
2.546,14.024419,3.5239964,1.2431223,-0.51951283,-1.3058362,-2.5133228
2.548,13.960613,3.5339637,1.2328763,-0.5421152,-1.31928,-2.4985428
2.55,13.89694,3.5451655,1.2137272,-0.56333935,-1.3279967,-2.4842396
2.552,13.833623,3.5573168,1.1861787,-0.58334565,-1.332615,-2.4707747
2.554,13.771061,3.5700727,1.1508477,-0.60225576,-1.3337774,-2.4584188
2.556,13.709486,3.5831268,1.1083798,-0.6201605,-1.3321269,-2.4473627
2.558,13.649144,3.5963418,1.0594449,-0.6371448,-1.3282557,-2.437664
2.56,13.590185,3.6094804,1.0046148,-0.65330225,-1.322685,-2.4292734
2.562,13.532901,3.6223187,0.9444647,-0.66872174,-1.3158996,-2.4220388
2.564,13.4773035,3.6348739,0.87950253,-0.68350697,-1.3083028,-2.4157119
2.566,13.42361,3.6469722,0.8102803,-0.69775355,-1.3002679,-2.4100137
2.568,13.371887,3.658766,0.73705864,-0.71155083,-1.292109,-2.4046526
2.57,13.321946,3.6703575,0.660259,-0.7249794,-1.2840996,-2.3993478
2.572,13.273871,3.6819737,0.5800543,-0.7380979,-1.2765193,-2.3938859
2.574,13.227621,3.693852,0.49669123,-0.7509419,-1.269654,-2.3880882
2.576,13.182932,3.7062166,0.4102404,-0.763531,-1.2637739,-2.381847
2.578,13.139824,3.7193158,0.32083678,-0.77587205,-1.25915,-2.3750777
2.58,13.098074,3.7334235,0.22837305,-0.7879647,-1.2560526,-2.3677113
2.582,13.057421,3.7489057,0.1330154,-0.7998104,-1.2547634,-2.3597288
2.584,13.017565,3.765882,0.034650087,-0.8114411,-1.2555422,-2.3511338
2.586,12.978576,3.7846265,-0.06671119,-0.8228766,-1.2586083,-2.341946
2.588,12.939919,3.8053012,-0.17103744,-0.8341478,-1.264132,-2.3321838
2.59,12.901557,3.828169,-0.27822518,-0.8452821,-1.2722138,-2.3218696
2.592,12.863197,3.8533297,-0.38801455,-0.85631454,-1.2828703,-2.3110194
2.594,12.82451,3.8810372,-0.4999714,-0.8672928,-1.2960825,-2.299643
2.596,12.785317,3.9114118,-0.613688,-0.8782548,-1.3117435,-2.2877204
2.598,12.745474,3.9444644,-0.7285402,-0.8892453,-1.3296874,-2.275209
2.6,12.704794,3.9802895,-0.84386873,-0.9002826,-1.3497174,-2.2620494
2.602,12.663064,4.018752,-0.9587555,-0.91137254,-1.3715844,-2.248178
2.604,12.620172,4.0598483,-1.0720909,-0.9225231,-1.3950102,-2.2335172
2.606,12.576089,4.1032267,-1.1828177,-0.9337018,-1.419714,-2.217963
2.608,12.530607,4.1489425,-1.289875,-0.94487286,-1.4453919,-2.201399
2.61,12.48372,4.1968,-1.3920465,-0.9559997,-1.4717427,-2.1836796
2.612,12.435605,4.246544,-1.4883614,-0.96704626,-1.4984757,-2.1646817
2.614,12.386109,4.297995,-1.5776539,-0.97798765,-1.5253214,-2.1443233
2.616,12.335565,4.350912,-1.659023,-0.9888087,-1.5519979,-2.1225858
2.618,12.283989,4.4050155,-1.731483,-0.9994982,-1.5782237,-2.0995526
2.62,12.231672,4.4599376,-1.7944591,-1.0100696,-1.6036912,-2.075414
2.622,12.1789055,4.5153217,-1.8474927,-1.0205252,-1.6281006,-2.050434
2.624,12.126,4.570799,-1.8903039,-1.0308632,-1.6511106,-2.0249782
2.626,12.073199,4.6258936,-1.9229324,-1.0410621,-1.6723495,-1.9994419
2.628,12.021104,4.6801906,-1.9455633,-1.0510731,-1.6914295,-1.974224
2.63,11.969731,4.7334003,-1.9587312,-1.0608037,-1.7079767,-1.9496543
2.632,11.919639,4.7850013,-1.9632263,-1.0701109,-1.7216554,-1.9259962
2.634,11.871267,4.8346515,-1.9599833,-1.0788083,-1.7321815,-1.903378
2.636,11.824973,4.8817897,-1.9502184,-1.0866714,-1.7393633,-1.8818035
2.638,11.781096,4.926194,-1.9352946,-1.0934379,-1.7431076,-1.8611771
2.64,11.739883,4.967379,-1.9169507,-1.0988253,-1.7434518,-1.8413404
2.642,11.701606,5.0051727,-1.8968372,-1.1025422,-1.7405636,-1.8221087
2.644,11.6664505,5.0392513,-1.8766885,-1.1043088,-1.7347304,-1.8032942
2.646,11.634786,5.069463,-1.8583329,-1.103864,-1.7263285,-1.7847459
2.648,11.606575,5.09552,-1.8434837,-1.1009812,-1.7157803,-1.7663574
2.65,11.581982,5.1173677,-1.8337004,-1.0954988,-1.7035819,-1.7480913
2.652,11.560964,5.1349964,-1.8304455,-1.087316,-1.6902542,-1.7299548
2.654,11.543463,5.148326,-1.8350604,-1.0764215,-1.6762681,-1.7119882
2.656,11.52948,5.1574535,-1.848506,-1.0628749,-1.6620868,-1.6942451
2.658,11.518654,5.162516,-1.8717782,-1.046808,-1.6481273,-1.6767962
2.66,11.510935,5.163593,-1.9053068,-1.0284296,-1.634746,-1.6597362
2.662,11.505905,5.160973,-1.9494629,-1.0080082,-1.6222534,-1.6431749
2.664,11.503159,5.154961,-2.0042772,-0.9858378,-1.6108837,-1.6272261
2.666,11.502165,5.146057,-2.0693815,-0.9622389,-1.6008117,-1.6119754
2.668,11.502486,5.1346693,-2.1443877,-0.93753475,-1.5921289,-1.5974662
2.67,11.503595,5.121295,-2.2283814,-0.91201997,-1.5848761,-1.5836964
2.672,11.504997,5.1066074,-2.3203254,-0.88596153,-1.5790341,-1.5706248
2.674,11.506201,5.091012,-2.41909,-0.8595837,-1.5745491,-1.5581632
2.676,11.506618,5.0752125,-2.5233297,-0.8330662,-1.5713351,-1.5461833
2.678,11.505722,5.059763,-2.6315203,-0.80652916,-1.5692954,-1.5345185
2.68,11.503204,5.0451474,-2.7420955,-0.7800487,-1.568305,-1.5229589
2.682,11.498452,5.0318375,-2.8534212,-0.75363207,-1.5681999,-1.5113058
2.684,11.491049,5.0203457,-2.96383,-0.7272513,-1.5688021,-1.4993826
2.686,11.480471,5.011262,-3.0716662,-0.7008275,-1.5698992,-1.4870315
2.688,11.466448,5.0050473,-3.1753554,-0.67425835,-1.571274,-1.4741669
2.69,11.448577,5.002101,-3.2733638,-0.6474115,-1.5727032,-1.460768
2.692,11.426913,5.002646,-3.3644395,-0.62016344,-1.5739899,-1.4469104
2.694,11.401189,5.0068645,-3.447349,-0.59242064,-1.5749689,-1.4327532
2.696,11.371211,5.014853,-3.5211015,-0.56412387,-1.5755339,-1.4185236
2.698,11.337104,5.026623,-3.5850058,-0.5352567,-1.5756428,-1.4045179
2.7,11.298921,5.041918,-3.638502,-0.5058412,-1.5753398,-1.3910503
2.702,11.256773,5.060581,-3.681439,-0.4759476,-1.5747397,-1.3784299
2.704,11.210718,5.0823345,-3.7136664,-0.44566023,-1.5739999,-1.3669074
2.706,11.161053,5.1068125,-3.7355099,-0.4150654,-1.5733297,-1.3566525
2.708,11.108065,5.1336026,-3.7473755,-0.38422126,-1.5729597,-1.3477253
2.71,11.052076,5.162269,-3.7498515,-0.35314345,-1.573123,-1.3400741
2.712,10.993493,5.1923585,-3.7440212,-0.32178512,-1.5740123,-1.3335371
2.714,10.932462,5.223495,-3.7307458,-0.2900467,-1.5757983,-1.3278482
2.716,10.869327,5.2551765,-3.7110276,-0.25776115,-1.5786126,-1.3227003
2.718,10.804568,5.2867765,-3.6859717,-0.22473,-1.582549,-1.3177726
2.72,10.738498,5.3177257,-3.656816,-0.19070062,-1.5876482,-1.3127682
2.722,10.671448,5.3476734,-3.624712,-0.15542723,-1.593933,-1.3074572
2.724,10.60371,5.37617,-3.5909405,-0.118665785,-1.6013522,-1.3016722
2.726,10.535535,5.4027967,-3.5566158,-0.080180764,-1.609796,-1.2953138
2.728,10.467323,5.427174,-3.5228481,-0.039769202,-1.6190891,-1.2883455
2.73,10.399142,5.4490027,-3.490656,0.0027496219,-1.629,-1.2808022
2.732,10.331219,5.468038,-3.4607968,0.047492012,-1.6392264,-1.2727659
2.734,10.263669,5.4841933,-3.4341226,0.09453501,-1.6494398,-1.2643702
2.736,10.196766,5.4973106,-3.4111676,0.14389224,-1.6592793,-1.2557689
2.738,10.130474,5.507255,-3.392641,0.1955435,-1.6683545,-1.2471198
2.74,10.065059,5.514027,-3.378974,0.24939737,-1.6762744,-1.238589
2.742,10.000516,5.5175653,-3.3705046,0.30532777,-1.6826625,-1.2303059
2.744,9.936723,5.5179687,-3.367517,0.36316,-1.6871767,-1.2223614
2.746,9.873743,5.515489,-3.369993,0.42268056,-1.6895542,-1.2148025
2.748,9.811406,5.5102086,-3.3777115,0.48362276,-1.6895983,-1.2076169
2.75,9.749529,5.502389,-3.3903236,0.5456859,-1.6872182,-1.2007536
2.752,9.688126,5.4922094,-3.4072733,0.60854095,-1.6824322,-1.1941128
2.754,9.627013,5.479936,-3.4279866,0.6718271,-1.6753618,-1.1875432
2.756,9.565801,5.4658656,-3.451603,0.7351862,-1.6662359,-1.1808844
2.758,9.5043745,5.4505258,-3.4772336,0.7982559,-1.6554112,-1.1739699
2.76,9.442318,5.434243,-3.5038857,0.8606787,-1.6433156,-1.1666572
2.762,9.379405,5.417449,-3.5304956,0.92212427,-1.6304785,-1.1588253
2.764,9.315405,5.4005585,-3.5559072,0.9822748,-1.6174438,-1.1504214
2.766,9.2498665,5.3840795,-3.5791001,1.0408608,-1.6047713,-1.1414514
2.768,9.182648,5.3683925,-3.598942,1.0976526,-1.5929813,-1.1319605
2.77,9.113414,5.353961,-3.6144257,1.152465,-1.5825235,-1.122012
2.772,9.042203,5.341048,-3.624691,1.2051722,-1.5737635,-1.1116794
2.774,8.968703,5.3300743,-3.6290755,1.2556803,-1.5669513,-1.1010425
2.776,8.892896,5.3211784,-3.6271088,1.303976,-1.562218,-1.0901732
2.778,8.814822,5.3145514,-3.618258,1.3500991,-1.5595844,-1.0791312
2.78,8.734331,5.3103685,-3.602466,1.3941534,-1.558971,-1.0679598
2.782,8.651349,5.308671,-3.5796998,1.4362857,-1.5601882,-1.0567044
2.784,8.566033,5.309466,-3.5500388,1.4766593,-1.5630085,-1.0453998
2.786,8.478591,5.3126197,-3.5138211,1.5154915,-1.5671842,-1.0340779
2.788,8.38929,5.317995,-3.4717708,1.5529842,-1.5724771,-1.0227615
2.79,8.298172,5.325593,-3.4245644,1.5893321,-1.578669,-1.0114647
2.792,8.20546,5.3353662,-3.3731327,1.6247033,-1.5856047,-1.000202
2.794,8.111468,5.347063,-3.3185887,1.6592534,-1.593182,-0.9889495
2.796,8.016617,5.360611,-3.2620323,1.6930907,-1.6013486,-0.97766334
2.798,7.9211526,5.3758583,-3.2046883,1.7263132,-1.6101147,-0.9662733
2.8,7.8255234,5.392639,-3.1475525,1.7589567,-1.6194996,-0.9546655
2.802,7.7299256,5.410903,-3.0917306,1.7910607,-1.6295756,-0.9426979
2.804,7.634921,5.43066,-3.038186,1.822609,-1.6404186,-0.9302173
2.806,7.540666,5.451846,-2.9877195,1.8535433,-1.6521087,-0.91707087
2.808,7.447468,5.4744735,-2.9409256,1.8837806,-1.6647311,-0.9031348
2.81,7.3555026,5.4987383,-2.8982363,1.9131904,-1.6783811,-0.8883114
2.812,7.2651258,5.524622,-2.8598123,1.9416077,-1.6931374,-0.87253934
2.814,7.1767607,5.5521817,-2.8256295,1.9688357,-1.7090943,-0.8558115
2.816,7.0903225,5.581624,-2.7953382,1.9946481,-1.7263627,-0.8381862
2.818,7.005822,5.6132493,-2.7683508,2.0188231,-1.7450908,-0.8197599
2.82,6.9235306,5.64698,-2.7438304,2.0411317,-1.7654223,-0.8007109
2.822,6.8432517,5.6830506,-2.7206793,2.0613694,-1.7875057,-0.7812887
2.824,6.7650476,5.7215395,-2.6977844,2.0793755,-1.8114744,-0.7617885
2.826,6.688858,5.7626696,-2.673852,2.095024,-1.8374258,-0.7425397
2.828,6.614376,5.806553,-2.6475854,2.1082554,-1.8653941,-0.7238511
2.83,6.5413218,5.8533874,-2.6174386,2.119054,-1.8953251,-0.7059837
2.832,6.469477,5.903229,-2.581997,2.1274574,-1.9270844,-0.68913645
2.834,6.398518,5.9562173,-2.539957,2.1335437,-1.9604244,-0.67343163
2.836,6.3281627,6.0124106,-2.4901743,2.1374495,-1.9949981,-0.65888715
2.838,6.258366,6.0716524,-2.4315991,2.1393468,-2.0303633,-0.645439
2.84,6.1887603,6.133898,-2.3634827,2.139431,-2.0660186,-0.63294995
2.842,6.1191754,6.198872,-2.2854395,2.1379256,-2.1014295,-0.62124
2.844,6.049391,6.2663116,-2.1971192,2.1350899,-2.136076,-0.6100916
2.846,5.979045,6.3361526,-2.098557,2.1312215,-2.1694806,-0.5992931
2.848,5.908013,6.4081874,-1.9899955,2.1266274,-2.2012577,-0.5886748
2.85,5.836268,6.482114,-1.8720232,2.1216218,-2.2311013,-0.5780952
2.852,5.7637053,6.557631,-1.7454783,2.1165195,-2.258817,-0.56745183
2.854,5.69022,6.634398,-1.6114428,2.1116557,-2.2843266,-0.55668414
2.856,5.615768,6.712037,-1.4710929,2.1073227,-2.3076181,-0.54576284
2.858,5.540418,6.7900944,-1.3256903,2.1038115,-2.3287466,-0.53465533
2.86,5.4642606,6.8682775,-1.1766498,2.101344,-2.3478217,-0.52334
2.862,5.3874254,6.946155,-1.0254886,2.1001048,-2.3649683,-0.51178014
2.864,5.3100443,7.0234747,-0.8736172,2.1002257,-2.3803177,-0.49995697
2.866,5.2322674,7.0998836,-0.72255147,2.1018062,-2.3939805,-0.48785242
2.868,5.154337,7.1751146,-0.57382166,2.1048923,-2.4060102,-0.4754459
2.87,5.0765367,7.248856,-0.42883432,2.1094983,-2.4164257,-0.4627147
2.872,4.999071,7.32087,-0.28896248,2.1156027,-2.425197,-0.44965172
2.874,4.9221506,7.3911204,-0.15541601,2.1231563,-2.4322486,-0.43625814
2.876,4.846201,7.459335,-0.02920425,2.1321135,-2.4374352,-0.42254287
2.878,4.771473,7.5253296,0.08867204,2.1424093,-2.4405751,-0.40855333
2.88,4.6982203,7.589016,0.19735575,2.1539729,-2.441434,-0.39435127
2.882,4.626543,7.650327,0.29629707,2.1667182,-2.4397607,-0.38004038
2.884,4.5566545,7.7091646,0.38497412,2.1805406,-2.4353302,-0.36573964
2.886,4.4886627,7.765445,0.4632342,2.195302,-2.4279463,-0.35155544
2.888,4.4225025,7.8192463,0.5309379,2.2108386,-2.4174597,-0.33758548
2.89,4.3582873,7.870545,0.58833575,2.2269354,-2.4038098,-0.32390097
2.892,4.295974,7.9194465,0.63574064,2.2433035,-2.3870282,-0.3105598
2.894,4.235371,7.9659805,0.67375654,2.2595792,-2.3672786,-0.29760072
2.896,4.1761703,8.010279,0.7031327,2.2753367,-2.3448482,-0.28505933
2.898,4.1179514,8.052358,0.72505957,2.2900662,-2.320178,-0.27298838
2.9,4.060587,8.092148,0.74064326,2.3032274,-2.2938237,-0.26147595
2.902,4.003642,8.129781,0.751218,2.3142872,-2.266415,-0.25062704
2.904,3.946487,8.1654215,0.7583543,2.3227348,-2.2386372,-0.24059421
2.906,3.8885667,8.198934,0.7635379,2.3281267,-2.211178,-0.2315446
2.908,3.8294983,8.2304945,0.76827115,2.3301005,-2.1846604,-0.2236501
2.91,3.76866,8.260019,0.7739258,2.3283985,-2.1596155,-0.21706058
2.912,3.7054372,8.287673,0.78179866,2.3228946,-2.1364372,-0.21188799
2.914,3.6394348,8.313348,0.79301476,2.3136022,-2.1153703,-0.2081767
2.916,3.570219,8.336899,0.80847305,2.3006544,-2.0965116,-0.2059222
2.918,3.4973314,8.358384,0.8289891,2.2842846,-2.0798345,-0.20501974
2.92,3.4202971,8.377577,0.8548865,2.2648146,-2.065254,-0.20532957
2.922,3.3386517,8.3946,0.8864813,2.2426374,-2.0526485,-0.20666742
2.924,3.252237,8.409229,0.9237311,2.2181916,-2.0418768,-0.20883521
2.926,3.1610086,8.421392,0.96636826,2.1919105,-2.0328302,-0.21159267
2.928,3.0649889,8.430838,1.0139252,2.1642354,-2.0254824,-0.21467917
2.93,2.9639666,8.437721,1.0656582,2.1355689,-2.019866,-0.21782193
2.932,2.8582377,8.441827,1.1207362,2.1062744,-2.0160818,-0.22071172
2.934,2.7481797,8.443053,1.1782643,2.0766616,-2.0142858,-0.2230328
2.936,2.633842,8.44138,1.237118,2.046986,-2.014665,-0.22445488
2.938,2.5155954,8.436904,1.2963144,2.0174556,-2.0173705,-0.22467698
2.94,2.3939934,8.429431,1.3548119,1.9882224,-2.022541,-0.22344144
2.942,2.2693524,8.419114,1.4115431,1.9593885,-2.030255,-0.2205463
2.944,2.1422362,8.406047,1.4655975,1.931033,-2.0404902,-0.21584971
2.946,2.013054,8.390397,1.5161071,1.9032232,-2.0531127,-0.20928612
2.948,1.8821305,8.372641,1.5622098,1.8760312,-2.0678506,-0.20086569
2.95,1.7502272,8.353037,1.60315,1.8494956,-2.084333,-0.19066088
2.952,1.6179638,8.332053,1.6382713,1.8236713,-2.102063,-0.17881094
2.954,1.4860392,8.31005,1.6670207,1.7985783,-2.1204414,-0.16548102
2.956,1.3550551,8.287371,1.6888252,1.7742313,-2.1388328,-0.15086779
2.958,1.2257588,8.264498,1.7034254,1.7506366,-2.1565707,-0.13517173
2.96,1.0986296,8.241942,1.7105649,1.7277652,-2.1729953,-0.118589155
2.962,0.97438234,8.220121,1.7100288,1.7055764,-2.1875017,-0.10128523
2.964,0.8536906,8.199464,1.7016035,1.6840154,-2.199563,-0.08339923
2.966,0.73719466,8.180432,1.6851082,1.6629975,-2.2087734,-0.06504777
2.968,0.6253984,8.163407,1.660374,1.6424253,-2.2148564,-0.046320833
2.97,0.5189349,8.148626,1.6275774,1.62218,-2.2177086,-0.027269915
2.972,0.41801846,8.136314,1.5869024,1.6021212,-2.2173858,-0.007956535
2.974,0.32322496,8.126476,1.5384637,1.5820934,-2.2140934,0.0115504265
2.976,0.23489958,8.119213,1.4827181,1.5619345,-2.2081842,0.03113322
2.978,0.15336472,8.1143055,1.4202875,1.5414572,-2.2001119,0.050619707
2.98,0.078666866,8.111646,1.3516704,1.5204855,-2.1904101,0.06973897
2.982,0.0110887885,8.111035,1.2777034,1.4988294,-2.1796417,0.08814603
2.984,-0.049393237,8.112059,1.1990967,1.4763137,-2.1683712,0.10542354
2.986,-0.1028505,8.11436,1.1166174,1.4527755,-2.157131,0.12109496
2.988,-0.14939034,8.117557,1.0311074,1.4280844,-2.1463983,0.13468352
2.99,-0.1892345,8.121257,0.9435171,1.4021417,-2.1365893,0.14574859
2.992,-0.2226271,8.124886,0.8547301,1.3748963,-2.1280584,0.15390997
2.994,-0.24973312,8.127908,0.7656531,1.3463413,-2.1210947,0.15891236
2.996,-0.27100164,8.129858,0.6769476,1.3165207,-2.1159503,0.1606265
2.998,-0.28680852,8.130211,0.5895405,1.2855194,-2.1128507,0.1590462
3,-0.29757023,8.128463,0.5039843,1.25348,-2.1119828,0.15431343
3.002,-0.30390176,8.124147,0.42103267,1.2205813,-2.1135256,0.14666866
3.004,-0.30637965,8.116938,0.34118652,1.1870434,-2.1176207,0.13643579
3.006,-0.30557272,8.106465,0.26484144,1.1531119,-2.1243844,0.12398493
3.008,-0.30200994,8.092554,0.19241387,1.1190679,-2.1339118,0.10969934
3.01,-0.29638326,8.074952,0.12417054,1.0852025,-2.1462305,0.09395915
3.012,-0.2892701,8.053544,0.06037438,1.0518222,-2.1613233,0.0771219
3.014,-0.2813228,8.028218,0.0009752512,1.0192232,-2.1791067,0.059506774
3.016,-0.27314815,7.999065,-0.05391538,0.98770815,-2.1994388,0.04137914
3.018,-0.26558113,7.966028,-0.104375005,0.9575314,-2.2221267,0.022953361
3.02,-0.25909445,7.929229,-0.1505605,0.9289261,-2.2469003,0.0044146776
3.022,-0.25422138,7.888733,-0.19248396,0.90210634,-2.2734244,-0.014094293
3.024,-0.2515407,7.844723,-0.23044878,0.8772336,-2.3013117,-0.03249395
3.026,-0.25158706,7.7974305,-0.2647308,0.8544422,-2.33012,-0.05072257
3.028,-0.25475553,7.7469487,-0.29576743,0.8338365,-2.3594003,-0.068737745
3.03,-0.26133424,7.6934485,-0.32384515,0.8154728,-2.3886743,-0.086509705
3.032,-0.27157217,7.6370735,-0.34945577,0.7993944,-2.4174747,-0.10401875
3.034,-0.28606424,7.5780725,-0.3730986,0.78560793,-2.4453387,-0.12123653
3.036,-0.3048622,7.5166206,-0.39520943,0.7740916,-2.4718356,-0.13811901
3.038,-0.32802293,7.4527817,-0.41635543,0.76480687,-2.4965918,-0.15459979
3.04,-0.35568509,7.386681,-0.43701482,0.7576975,-2.5192833,-0.17059737
3.042,-0.38773295,7.3185196,-0.4576,0.75268275,-2.5396535,-0.18600792
3.044,-0.42407537,7.2484455,-0.47865248,0.74967563,-2.5575058,-0.2007204
3.046,-0.4644311,7.1765895,-0.5005092,0.74858207,-2.5727122,-0.214602
3.048,-0.50848687,7.1030483,-0.5235171,0.74930286,-2.5851924,-0.22753364
3.05,-0.55602163,7.028166,-0.54793185,0.75173396,-2.5949128,-0.23940358
3.052,-0.60671866,6.9520144,-0.5739074,0.7557636,-2.6018884,-0.25012404
3.054,-0.6601311,6.874681,-0.60157156,0.7612696,-2.6061683,-0.25965923
3.056,-0.71592337,6.796456,-0.6308672,0.7681181,-2.607803,-0.26801997
3.058,-0.7735852,6.717505,-0.6617762,0.77617365,-2.6068692,-0.2752732
3.06,-0.8328539,6.6380377,-0.6940984,0.78527224,-2.6034572,-0.28153205
3.062,-0.89331126,6.5582805,-0.727702,0.7952584,-2.597636,-0.28695244
3.064,-0.9545656,6.4784927,-0.7623994,0.80596745,-2.5894823,-0.29171923
3.066,-1.0162473,6.3987856,-0.79788154,0.8172261,-2.5790594,-0.29601556
3.068,-1.0780842,6.3193827,-0.83391774,0.8288875,-2.566435,-0.30001953
3.07,-1.1397909,6.2406154,-0.87027633,0.8408122,-2.5516734,-0.3038784
3.072,-1.2010751,6.1627584,-0.90671,0.8528815,-2.5348332,-0.30769733
3.074,-1.2615272,6.086063,-0.94295365,0.86499286,-2.5160255,-0.31154045
3.076,-1.3210069,6.010707,-0.97893524,0.8770522,-2.4953914,-0.315437
3.078,-1.3792353,5.9370036,-1.0145222,0.88899404,-2.4730928,-0.31935188
3.08,-1.436043,5.865067,-1.0497482,0.90076315,-2.4493575,-0.32326
3.082,-1.4911466,5.7950354,-1.0845883,0.91230357,-2.4244452,-0.32711077
3.084,-1.5443646,5.72705,-1.1190443,0.9235848,-2.3986804,-0.33083907
3.086,-1.5953571,5.6610503,-1.153266,0.93457174,-2.372437,-0.3343862
3.088,-1.6440476,5.597096,-1.187287,0.9452541,-2.3461127,-0.33772245
3.09,-1.6901116,5.5351434,-1.2212565,0.9556345,-2.3201191,-0.34081662
3.092,-1.7335266,5.4750996,-1.2555053,0.9657246,-2.294852,-0.34366575
3.094,-1.7739987,5.4169374,-1.2901714,0.97554475,-2.270686,-0.34627584
3.096,-1.811331,5.360377,-1.3253709,0.9851265,-2.2479527,-0.3486584
3.098,-1.8452891,5.3052664,-1.3613002,0.9944899,-2.2269232,-0.3508294
3.1,-1.8756676,5.251193,-1.3982073,1.0036577,-2.2078116,-0.35280713
3.102,-1.9022701,5.197984,-1.4362509,1.0126569,-2.1907542,-0.35462937
3.104,-1.9251435,5.1453075,-1.4756287,1.0214932,-2.1758177,-0.35631412
3.106,-1.944217,5.092861,-1.5162015,1.0301601,-2.1629825,-0.35789338
3.108,-1.9595449,5.0402017,-1.558087,1.0386437,-2.152188,-0.35940298
3.11,-1.9714075,4.9871054,-1.6011705,1.0469261,-2.143313,-0.36092025
3.112,-1.9798661,4.9333687,-1.6452045,1.0549835,-2.1361988,-0.36252877
3.114,-1.9852867,4.8786345,-1.6899669,1.0627714,-2.1306796,-0.36433923
3.116,-1.9880552,4.8227863,-1.7349944,1.070227,-2.1265805,-0.36649793
3.118,-1.988671,4.7655797,-1.7798696,1.0772889,-2.1237378,-0.36917257
3.12,-1.9876295,4.70693,-1.8239846,1.0838876,-2.1219862,-0.3725638
3.122,-1.9856364,4.646717,-1.8668168,1.0899409,-2.1211762,-0.3768936
3.124,-1.9834089,4.585024,-1.9077027,1.095378,-2.1211712,-0.38238204
3.126,-1.9817119,4.522056,-1.9459715,1.1001217,-2.1218414,-0.38925344
3.128,-1.9811418,4.4577813,-1.9809434,1.1041045,-2.1230536,-0.39768577
3.13,-1.9826838,4.39252,-2.0119734,1.1072754,-2.1246948,-0.40780437
3.132,-1.9870306,4.326467,-2.0383542,1.1096059,-2.1266751,-0.4196524
3.134,-1.9950155,4.259876,-2.059595,1.1110678,-2.1289065,-0.43316036
3.136,-2.0071716,4.193075,-2.0750873,1.1116588,-2.1313298,-0.44818324
3.138,-2.024236,4.1263847,-2.084455,1.111406,-2.133928,-0.46449667
3.14,-2.0468752,4.0604215,-2.0874605,1.1103513,-2.1366863,-0.48180014
3.142,-2.0755405,3.9954486,-2.0839722,1.1085566,-2.1396449,-0.49974507
3.144,-2.110417,3.9317899,-2.0738356,1.1061097,-2.142876,-0.51798475
3.146,-2.1518948,3.8698223,-2.057086,1.1031277,-2.146473,-0.5361817
3.148,-2.2002652,3.8099082,-2.0338368,1.0997593,-2.1505208,-0.55404854
3.15,-2.2552335,3.7520928,-2.0043368,1.0961666,-2.1551082,-0.57137585
3.152,-2.3166242,3.6966236,-1.9690735,1.0925277,-2.1602845,-0.5880036
3.154,-2.3842404,3.6436813,-1.9284484,1.0890367,-2.166063,-0.6038362
3.156,-2.457593,3.5933318,-1.8831325,1.0858879,-2.1724143,-0.6188235
3.158,-2.536115,3.5455961,-1.8337884,1.0832871,-2.1792536,-0.632982
3.16,-2.6191149,3.500405,-1.7813218,1.0814229,-2.1864228,-0.64634824
3.162,-2.7057235,3.4576607,-1.7264173,1.0804828,-2.1936836,-0.65897477
3.164,-2.795263,3.4172533,-1.6700101,1.0806246,-2.2007236,-0.67090285
3.166,-2.8868332,3.378944,-1.6129158,1.0819981,-2.2071478,-0.68217844
3.168,-2.9793959,3.342464,-1.5560254,1.0847282,-2.2124786,-0.6928171
3.17,-3.072051,3.3077075,-1.5001285,1.0889022,-2.2162018,-0.7028002
3.172,-3.163981,3.2743502,-1.4458756,1.0945636,-2.217783,-0.71208155
3.174,-3.2543168,3.242147,-1.3939869,1.1017214,-2.2167044,-0.7206059
3.176,-3.3421347,3.2109082,-1.3450317,1.1103363,-2.2124634,-0.7282673
3.178,-3.426677,3.180326,-1.2994416,1.1203297,-2.2046208,-0.73495275
3.18,-3.5071225,3.1499698,-1.2575376,1.1315718,-2.192853,-0.740533
3.182,-3.583033,3.1196756,-1.2195137,1.143871,-2.1769738,-0.7449266
3.184,-3.6538856,3.0891228,-1.1854193,1.1569864,-2.1569629,-0.7481156
3.186,-3.719236,3.0580773,-1.1551116,1.170656,-2.1329842,-0.7501724
3.188,-3.7787435,3.0263877,-1.1283262,1.1845757,-2.10539,-0.7512664
3.19,-3.8321736,2.993878,-1.1048026,1.198405,-2.0747156,-0.75166154
3.192,-3.879392,2.960361,-1.084127,1.211777,-2.041632,-0.7517128
3.194,-3.9203894,2.9256687,-1.0656967,1.2243295,-2.0069437,-0.7518222
3.196,-3.9553218,2.8897226,-1.049082,1.2357094,-1.9714952,-0.7524057
3.198,-3.984266,2.852362,-1.033707,1.245571,-1.9361296,-0.7538717
3.2,-4.007395,2.8132942,-1.0188172,1.2536205,-1.9016442,-0.75656635
3.202,-4.0248375,2.7723475,-1.0038159,1.2596126,-1.8687476,-0.76072204
3.204,-4.0370502,2.729369,-0.98809797,1.2633791,-1.8380232,-0.76647836
3.206,-4.0443134,2.6842432,-0.9711739,1.2648269,-1.8099298,-0.7738605
3.208,-4.0471196,2.636825,-0.9525072,1.2639443,-1.7847768,-0.7827875
3.21,-4.0456977,2.5870552,-0.9317646,1.2607877,-1.762766,-0.79308313
3.212,-4.040575,2.5348196,-0.90852493,1.2554959,-1.7439876,-0.8045044
3.214,-4.032114,2.4799595,-0.8825423,1.2482556,-1.7284883,-0.81677693
3.216,-4.020572,2.4225278,-0.8538173,1.2393011,-1.7162517,-0.8296196
3.218,-4.0063,2.362441,-0.82216316,1.2289175,-1.7072235,-0.8427673
3.22,-3.9896724,2.2996955,-0.7876352,1.2174022,-1.701323,-0.85599047
3.222,-3.9711483,2.2342293,-0.75050026,1.2050636,-1.6984341,-0.86908704
3.224,-3.9510407,2.1662712,-0.7107865,1.1922045,-1.6983976,-0.8818748
3.226,-3.9296134,2.0957737,-0.6687848,1.1791185,-1.7010074,-0.89420086
3.228,-3.9072917,2.0229375,-0.62479943,1.166074,-1.7060091,-0.90591675
3.23,-3.8843894,1.9479438,-0.5792018,1.1533159,-1.7131003,-0.91691726
3.232,-3.8610606,1.8710063,-0.53222376,1.1410651,-1.7219238,-0.92711896
3.234,-3.8375337,1.7923784,-0.48417816,1.129525,-1.7320403,-0.9364608
3.236,-3.8140461,1.7122676,-0.43543682,1.118883,-1.7429769,-0.9448838
3.238,-3.7909234,1.6311764,-0.38618705,1.1092829,-1.7542222,-0.95232064
3.24,-3.7682145,1.5492978,-0.33671764,1.1008234,-1.765263,-0.958738
3.242,-3.74608,1.4670602,-0.2874643,1.0935993,-1.775583,-0.96410024
3.244,-3.7245836,1.3848245,-0.23836285,1.0876805,-1.7846981,-0.968386
3.246,-3.704018,1.3030124,-0.18972129,1.0831046,-1.7921762,-0.9715779
3.248,-3.6841967,1.2219958,-0.14156961,1.0798777,-1.7976425,-0.973658
3.25,-3.6652408,1.1421076,-0.09400678,1.0779852,-1.8008149,-0.9746027
3.252,-3.6470418,1.0637479,-0.04712689,1.0774026,-1.8014808,-0.9743608
3.254,-3.6296096,0.9873866,-0.0010963082,1.0780742,-1.799525,-0.97288156
3.256,-3.6128905,0.91333294,0.044044495,1.0799342,-1.7949079,-0.97009575
3.258,-3.5967228,0.84203124,0.08823693,1.0828971,-1.7876505,-0.96593595
3.26,-3.581038,0.773952,0.13152325,1.0868589,-1.7778494,-0.9603378
3.262,-3.565777,0.70915234,0.17396098,1.0917087,-1.7656457,-0.95324975
3.264,-3.550837,0.6479238,0.21550936,1.0973415,-1.7511935,-0.9446486
3.266,-3.536087,0.590489,0.25634748,1.1036354,-1.7346773,-0.93454146
3.268,-3.521382,0.5368871,0.29653263,1.1104821,-1.7162709,-0.922953
3.27,-3.506585,0.48730206,0.33629772,1.1177746,-1.6961453,-0.90993196
3.272,-3.491566,0.44176686,0.375619,1.1254077,-1.6744585,-0.8955483
3.274,-3.4760723,0.40019637,0.41460702,1.1333022,-1.6513252,-0.8798608
3.276,-3.4600697,0.36256325,0.4532204,1.1414049,-1.6268554,-0.8629404
3.278,-3.4436083,0.32868963,0.49163112,1.1496842,-1.6011198,-0.8448496
3.28,-3.4264224,0.29835996,0.5296997,1.158135,-1.5741628,-0.8256312
3.282,-3.408351,0.27139837,0.5672852,1.1667624,-1.5460047,-0.80532855
3.284,-3.3893235,0.24752423,0.6042966,1.1755791,-1.5166585,-0.7839839
3.286,-3.3694336,0.22654408,0.64047444,1.1846094,-1.48614,-0.7616205
3.288,-3.3485708,0.20807701,0.6756129,1.1938848,-1.4544656,-0.73828614
3.29,-3.3266644,0.19179404,0.7093595,1.2034185,-1.4216435,-0.714038
3.292,-3.3037727,0.1774503,0.7414297,1.2132285,-1.387703,-0.6889319
3.294,-3.279867,0.16454074,0.7715014,1.2233346,-1.3526795,-0.6630391
3.296,-3.2549028,0.1528784,0.79925656,1.2337253,-1.3166429,-0.6364345
3.298,-3.22899,0.14194086,0.8242962,1.2443795,-1.2796701,-0.60919493
3.3,-3.202176,0.13150239,0.84640586,1.2552687,-1.2418591,-0.58137965
3.302,-3.1745253,0.121298105,0.8652526,1.2663864,-1.2033,-0.55303943
3.304,-3.146187,0.11096218,0.8805739,1.277712,-1.1640912,-0.52420604
3.306,-3.1171718,0.100192636,0.8922835,1.289212,-1.1243426,-0.49488935
3.308,-3.0876572,0.0888257,0.9002883,1.3008645,-1.0841378,-0.46506277
3.31,-3.0577552,0.07675436,0.90437007,1.3126497,-1.0435513,-0.43470913
3.312,-3.0277703,0.06383598,0.9047291,1.3245429,-1.0026412,-0.40379164
3.314,-2.9977221,0.049969822,0.9012561,1.3365451,-0.9614326,-0.37228847
3.316,-2.9678195,0.03514424,0.89405435,1.3486325,-0.9199326,-0.34015846
3.318,-2.9381702,0.01912266,0.8833343,1.3607725,-0.8781398,-0.3073937
3.32,-2.9091544,0.0020372272,0.869293,1.3729244,-0.83602417,-0.2739765
3.322,-2.8808057,-0.016109228,0.85206735,1.3850389,-0.7935545,-0.23992798
3.324,-2.8533275,-0.035251677,0.8320064,1.3970373,-0.75069094,-0.20528564
3.326,-2.8268845,-0.05543968,0.809363,1.4088303,-0.7074019,-0.17010525
3.328,-2.8018496,-0.07652837,0.78439075,1.4203094,-0.66368186,-0.13449219
3.33,-2.778168,-0.09847653,0.75747466,1.4313471,-0.6195457,-0.098573744
3.332,-2.756093,-0.12119016,0.7289183,1.4418079,-0.57504374,-0.062498897
3.334,-2.7358162,-0.1445648,0.69904006,1.4515707,-0.5302485,-0.026444137
3.336,-2.7175143,-0.16844645,0.66811854,1.4605185,-0.48527685,0.009418875
3.338,-2.7012837,-0.19282556,0.6365685,1.4685456,-0.44026348,0.044916004
3.34,-2.687205,-0.21757862,0.6046293,1.4755632,-0.39533484,0.07986498
3.342,-2.6750088,-0.24199748,0.5734211,1.4815042,-0.3506226,0.11411476
3.344,-2.6650307,-0.26662502,0.54263544,1.4863325,-0.30623737,0.14754748
3.346,-2.6572626,-0.29139608,0.5125689,1.4900328,-0.2622651,0.180067
3.348,-2.651658,-0.31626266,0.48340213,1.4925874,-0.21875626,0.21164167
3.35,-2.648206,-0.34110343,0.4554008,1.4940069,-0.17570782,0.24226382
3.352,-2.646845,-0.36593944,0.4287667,1.4943213,-0.1330919,0.2719751
3.354,-2.6475136,-0.3906376,0.4035283,1.4935654,-0.09082985,0.3008421
3.356,-2.6499677,-0.41520095,0.37983924,1.4917717,-0.048818678,0.3289574
3.358,-2.6541555,-0.43958983,0.35771757,1.4889807,-0.0069198012,0.3564362
3.36,-2.659833,-0.4638042,0.33724838,1.4852551,0.035047174,0.3834046
3.362,-2.6669216,-0.48769352,0.3184301,1.48066,0.07727498,0.40999055
3.364,-2.6752808,-0.5112231,0.30123675,1.4752728,0.11997625,0.43635175
3.366,-2.6846483,-0.53432995,0.28559124,1.4691724,0.16337335,0.46263224
3.368,-2.6948295,-0.5569533,0.27143997,1.4624356,0.20769829,0.48896244
3.37,-2.705791,-0.57909214,0.25866646,1.4555006,0.25121236,0.51439893
3.372,-2.7173645,-0.60055,0.24715923,1.4483309,0.29496846,0.5395786
3.374,-2.7292242,-0.62140703,0.23682886,1.44109,0.33871427,0.56440526
3.376,-2.7412825,-0.6416312,0.2275499,1.4339278,0.3820953,0.5887437
3.378,-2.753475,-0.6610572,0.21921855,1.4269828,0.42467135,0.61242217
3.38,-2.765719,-0.67974055,0.21160167,1.4203689,0.4659702,0.6352439
3.382,-2.7779016,-0.6977084,0.20466971,1.414167,0.50553334,0.6570241
3.384,-2.7899485,-0.71480286,0.19831412,1.408432,0.5429706,0.6776043
3.386,-2.801728,-0.73108333,0.19245793,1.4031808,0.57797384,0.6968516
3.388,-2.8132,-0.74650896,0.18688609,1.3984026,0.6103465,0.71469057
3.39,-2.8243902,-0.761154,0.1816063,1.3940818,0.64001787,0.73108256
3.392,-2.8353121,-0.77498317,0.17655644,1.3901916,0.667027,0.7460356
