Time_s_,Acc_x_m_s_2_,Acc_y_m_s_2_,Acc_z_m_s_2_,Gyro_x_1_s_,Gyro_y_1_s_,Gyro_z_1_s_
0,-0.8567402,0.4456916,-1.6545477,0.057229966,-0.7615583,0.27433968
0.002,-0.7674886,0.35012645,-1.3802136,0.057633787,-0.8069352,0.28433752
0.004,-0.68153816,0.25796944,-1.0839778,0.05701965,-0.8587841,0.2959375
0.006,-0.5991051,0.1700086,-0.7656162,0.05510667,-0.9171756,0.30932355
0.008,-0.5207301,0.08705534,-0.42489573,0.051665574,-0.9818231,0.32466248
0.01,-0.4470842,0.0098879635,-0.06190276,0.0465613,-1.0519496,0.342133
0.012,-0.37895846,-0.060778514,0.32306862,0.03981769,-1.126213,0.3619042
0.014,-0.31662875,-0.12426254,0.7294085,0.031672418,-1.2026699,0.3841024
0.016,-0.26066494,-0.17971669,1.156048,0.0225901,-1.2788386,0.40882617
0.018,-0.21134165,-0.22648579,1.6016772,0.013243198,-1.3519071,0.43614542
0.02,-0.16931209,-0.2637426,2.0645528,0.0044490695,-1.4189756,0.46603948
0.022,-0.1346879,-0.29110217,2.542537,-0.0028820634,-1.477302,0.4983159
0.024,-0.10761738,-0.30804473,3.0330367,-0.007902384,-1.5245157,0.5326076
0.026,-0.08816916,-0.31430727,3.5328555,-0.009919345,-1.5588219,0.56839705
0.028,-0.076411545,-0.30967408,4.0384207,-0.008534312,-1.5806247,0.60571367
0.03,-0.07209897,-0.29420912,4.545576,-0.0035545826,-1.5876458,0.64289594
0.032,-0.07485628,-0.268162,5.049974,0.0049101114,-1.5798547,0.67952126
0.034,-0.084285855,-0.23189569,5.5471945,0.016482174,-1.5578561,0.7151041
0.036,-0.10000253,-0.18588316,6.032634,0.030722022,-1.522586,0.74895555
0.038,-0.12172401,-0.1308111,6.501635,0.047190964,-1.4750948,0.78060836
0.04,-0.14903057,-0.06722593,6.9499235,0.06539744,-1.4165494,0.81011045
0.042,-0.18162835,0.004158139,7.37349,0.08484495,-1.3481715,0.8378302
0.044,-0.21935797,0.08252907,7.768817,0.10513449,-1.2711431,0.8641733
0.046,-0.2622546,0.16719222,8.132972,0.12593639,-1.1866975,0.8894497
0.048,-0.3104211,0.25743675,8.463799,0.1468454,-1.0963337,0.9139155
0.05,-0.36420047,0.35266566,8.759647,0.16739756,-1.0017624,0.9378681
0.052,-0.42417908,0.45228326,9.019523,0.18713623,-0.904846,0.96160865
0.054,-0.49082112,0.55567074,9.243292,0.20564905,-0.8076306,0.98531294
0.056,-0.5609145,0.6586913,9.438879,0.22257471,-0.71233004,1.0089943
0.058,-0.6414082,0.7664491,9.601101,0.2376202,-0.62123805,1.0324768
0.06,-0.7310724,0.87816536,9.729382,0.25053498,-0.53666127,1.0554559
0.062,-0.8312845,0.99333775,9.825833,0.2611351,-0.46073252,1.0775713
0.064,-0.94366145,1.1110035,9.893418,0.2692973,-0.39532295,1.0984002
0.066,-1.0687227,1.2301217,9.934619,0.27494568,-0.34195334,1.1175175
0.068,-1.2060513,1.349793,9.952394,0.2780361,-0.30173826,1.1345104
0.07,-1.3552928,1.4696851,9.950307,0.27855536,-0.27534324,1.1489732
0.072,-1.5161932,1.5893791,9.931833,0.276509,-0.26291633,1.1604908
0.074,-1.689142,1.7083457,9.900412,0.27195382,-0.26407605,1.1686846
0.076,-1.8739116,1.8254888,9.859609,0.26498017,-0.27799755,1.1732373
0.078,-2.069884,1.9395373,9.812553,0.25575668,-0.30349588,1.1738708
0.08,-2.2756834,2.0492551,9.761458,0.24453765,-0.33905286,1.1703378
0.082,-2.4902318,2.1537561,9.707981,0.23170206,-0.38287014,1.1624584
0.084,-2.7121792,2.2522361,9.653271,0.21772671,-0.4329902,1.1501694
0.086,-2.940108,2.3439562,9.598396,0.20319831,-0.4873327,1.133534
0.088,-3.1727383,2.4283228,9.544556,0.18879935,-0.5438082,1.1127706
0.09,-3.4085133,2.5048046,9.492337,0.1752468,-0.6003648,1.0882277
0.092,-3.6456523,2.572888,9.441978,0.16327742,-0.6550259,1.0603853
0.094,-3.8819187,2.6317697,9.393272,0.15362874,-0.70590186,1.0298005
0.096,-4.1152177,2.6809793,9.34576,0.14699295,-0.7512237,0.9970881
0.098,-4.3442354,2.720449,9.298759,0.1440134,-0.78937244,0.9628703
0.1,-4.567693,2.7501903,9.251392,0.14521497,-0.81897473,0.92779815
0.102,-4.784074,2.7703588,9.202907,0.15097076,-0.83891857,0.89252675
0.104,-4.9925294,2.7815747,9.152851,0.1615603,-0.84838,0.8576204
0.106,-5.1919527,2.7844613,9.101096,0.1771234,-0.8468989,0.8235274
0.108,-5.38164,2.7798944,9.047592,0.19762269,-0.8343965,0.79059744
0.11,-5.5607457,2.768588,8.992273,0.2228494,-0.8111897,0.7590577
0.112,-5.7287555,2.7512846,8.935476,0.2524574,-0.77794194,0.72901314
0.114,-5.8855314,2.7289057,8.877561,0.28596452,-0.7355747,0.7004373
0.116,-6.031248,2.7023525,8.819306,0.32274088,-0.6852748,0.6731666
0.118,-6.1658473,2.6727245,8.7614975,0.36206123,-0.62837946,0.64696336
0.12,-6.289269,2.641058,8.705234,0.40314722,-0.56626284,0.62153846
0.122,-6.401217,2.6082568,8.651564,0.44516957,-0.50032383,0.5965953
0.124,-6.50207,2.5751235,8.60136,0.48732656,-0.43187672,0.57185936
0.126,-6.5917244,2.5421379,8.555658,0.5288735,-0.3621364,0.54712623
0.128,-6.6702147,2.5096645,8.515143,0.5691269,-0.29227108,0.5222496
0.13,-6.73726,2.477781,8.48046,0.6074734,-0.22340852,0.4971698
0.132,-6.793022,2.4468865,8.45212,0.6434221,-0.15657465,0.4719097
0.134,-6.8374166,2.4168816,8.430662,0.67657816,-0.092728436,0.44656998
0.136,-6.8703694,2.3876078,8.416569,0.7066534,-0.032713145,0.42129213
0.138,-6.891755,2.3588848,8.410272,0.7334496,0.022759944,0.39625034
0.14,-6.9015713,2.3303747,8.412035,0.7568599,0.073140085,0.3716346
0.142,-6.8998346,2.3017926,8.421875,0.77688223,0.11811048,0.3476486
0.144,-6.886351,2.272637,8.439544,0.79360974,0.15756479,0.32449675
0.146,-6.861111,2.2424958,8.464661,0.8071781,0.19154951,0.30237696
0.148,-6.823748,2.210736,8.496656,0.8177732,0.22022355,0.28145224
0.15,-6.7742367,2.1768322,8.534534,0.8256345,0.24379405,0.26181763
0.152,-6.712686,2.140367,8.5772505,0.8309866,0.26245934,0.24350512
0.154,-6.6390514,2.1010964,8.623634,0.83407176,0.27641416,0.22646049
0.156,-6.5534697,2.0587385,8.672613,0.83513445,0.28578815,0.21053523
0.158,-6.4562454,2.013356,8.7229,0.8343264,0.2906192,0.1955952
0.16,-6.347654,1.9648519,8.773702,0.83178395,0.29092985,0.18148991
0.162,-6.2281857,1.913419,8.824219,0.82764775,0.2867329,0.16804135
0.164,-6.098614,1.8592949,8.873764,0.8220186,0.27809012,0.15507364
0.166,-5.9597635,1.8028057,8.921584,0.8149617,0.26512325,0.14246547
0.168,-5.812682,1.744498,8.9673195,0.8065488,0.24804154,0.13014463
0.17,-5.6581564,1.6848164,9.010425,0.796844,0.227165,0.11812171
0.172,-5.4972534,1.6243913,9.050328,0.78589207,0.20283245,0.1064533
0.174,-5.3310304,1.5635657,9.086415,0.77370167,0.17537384,0.09522635
0.176,-5.1607227,1.5030842,9.118302,0.76028943,0.14511709,0.08456771
0.178,-4.9876537,1.4437225,9.145906,0.74561006,0.1123167,0.07462007
0.18,-4.813134,1.3861785,9.169056,0.7296077,0.07714924,0.06554259
0.182,-4.6385517,1.330992,9.187752,0.7122139,0.03975542,0.057499006
0.184,-4.4651527,1.2785296,9.202056,0.693367,0.0002426207,0.05065827
0.186,-4.294447,1.2294035,9.212251,0.6730075,-0.04132946,0.045172468
0.188,-4.127679,1.1841161,9.218474,0.65111744,-0.084867835,0.04117064
0.19,-3.9660788,1.1429462,9.221329,0.6276919,-0.13024567,0.03874947
0.192,-3.811038,1.1062515,9.221375,0.60275084,-0.17728624,0.03799291
0.194,-3.6640234,1.0743086,9.219156,0.57633156,-0.22575015,0.038949817
0.196,-3.5260863,1.047133,9.214933,0.5484816,-0.27535856,0.041616
0.198,-3.397766,1.0246723,9.208596,0.5192786,-0.32579684,0.045928493
0.2,-3.2799783,1.0069478,9.200283,0.48884666,-0.3766781,0.05178184
0.202,-3.1729567,0.99367905,9.190139,0.45736074,-0.42758155,0.05904594
0.204,-3.0774503,0.98491,9.178467,0.4250272,-0.47810683,0.067561865
0.206,-2.993843,0.980458,9.165716,0.39211714,-0.5278318,0.07714449
0.208,-2.9220533,0.98004675,9.152288,0.35895848,-0.5762735,0.087580696
0.21,-2.8623447,0.9834628,9.138712,0.3259301,-0.62285566,0.098626316
0.212,-2.8146496,0.9903004,9.125003,0.29344767,-0.666888,0.109997325
0.214,-2.778831,1.0002048,9.111325,0.26194143,-0.70755994,0.12142513
0.216,-2.7544143,1.0127747,9.097571,0.2318553,-0.74396694,0.13269024
0.218,-2.7409146,1.0276861,9.083716,0.20363595,-0.7751485,0.14361474
0.22,-2.7378325,1.0448189,9.06968,0.1777265,-0.80015606,0.154069
0.222,-2.7445605,1.0638583,9.055215,0.15452331,-0.8180932,0.16397518
0.224,-2.7599788,1.0845695,9.040049,0.13437289,-0.8281941,0.17329505
0.226,-2.7830439,1.1066971,9.023804,0.11754835,-0.8298829,0.18206371
0.228,-2.812696,1.129941,9.006089,0.10424885,-0.8228029,0.19037247
0.23,-2.8478603,1.1539981,8.986547,0.094561696,-0.8068825,0.19833584
0.232,-2.8876483,1.1787119,8.964825,0.08847955,-0.7823624,0.2060718
0.234,-2.9308252,1.2038481,8.941027,0.08586675,-0.74977064,0.21367903
0.236,-2.9764686,1.229274,8.915076,0.08646646,-0.70992124,0.22123802
0.238,-3.0234349,1.2548642,8.887119,0.08991665,-0.6638571,0.22876525
0.24,-3.0706763,1.2804644,8.857212,0.09573871,-0.6128651,0.2362401
0.242,-3.1171222,1.3057072,8.825408,0.10336152,-0.5584574,0.24360505
0.244,-3.1618237,1.3305528,8.79179,0.11214341,-0.50227684,0.25076193
0.246,-3.203857,1.3548152,8.756628,0.12143879,-0.44603744,0.25754136
0.248,-3.242437,1.378258,8.720193,0.1306168,-0.39144474,0.26374054
0.25,-3.276759,1.4008415,8.682846,0.13909742,-0.3401043,0.2691373
0.252,-3.3063436,1.4225655,8.645042,0.14638427,-0.2934425,0.2735173
0.254,-3.330874,1.4434102,8.607054,0.15208578,-0.25264326,0.27669454
0.256,-3.3497288,1.463417,8.569422,0.15591645,-0.21855527,0.2785166
0.258,-3.3629823,1.4828475,8.53254,0.15773854,-0.19161159,0.27889985
0.26,-3.3703148,1.501827,8.4969,0.15755495,-0.17184646,0.27782696
0.262,-3.371476,1.5205407,8.462673,0.15548947,-0.1589419,0.27537444
0.264,-3.366407,1.5390818,8.430027,0.1517365,-0.15227656,0.2716973
0.266,-3.3549628,1.557544,8.398869,0.14656524,-0.15101953,0.26701358
0.268,-3.3371146,1.5759773,8.369285,0.1402902,-0.15418455,0.261581
0.27,-3.3129168,1.5946612,8.341007,0.13323504,-0.16073073,0.2556568
0.272,-3.2824235,1.6137333,8.314145,0.12570816,-0.16969337,0.24948967
0.274,-3.245707,1.6333585,8.288435,0.117958434,-0.18027519,0.24328558
0.276,-3.2027495,1.6534503,8.264021,0.11019847,-0.1919237,0.23719059
0.278,-3.1535032,1.6740403,8.240849,0.10258762,-0.20429966,0.23126513
0.28,-3.098319,1.6950605,8.219188,0.09523273,-0.2172862,0.22548977
0.282,-3.0374079,1.7162993,8.199446,0.088176444,-0.23099825,0.21976908
0.284,-2.9706607,1.7376194,8.182027,0.08141155,-0.24569653,0.21396652
0.286,-2.8983078,1.7586257,8.167296,0.07491003,-0.261735,0.20792964
0.288,-2.8203597,1.7790248,8.155599,0.068636656,-0.2795037,0.20148379
0.29,-2.737125,1.7984354,8.147518,0.06257723,-0.29934132,0.19445479
0.292,-2.6488876,1.8165753,8.143633,0.056734443,-0.32148525,0.18668558
0.294,-2.5562387,1.8333063,8.144695,0.051164985,-0.34597704,0.17804472
0.296,-2.459578,1.8482685,8.151579,0.045964777,-0.3726186,0.16845256
0.298,-2.3594346,1.8613615,8.16509,0.041289285,-0.40096763,0.15789631
0.3,-2.2565985,1.872546,8.185827,0.037319615,-0.43032253,0.1464316
0.302,-2.151624,1.8818946,8.214313,0.03426376,-0.4597572,0.13415253
0.304,-2.0452292,1.8895144,8.251019,0.03236322,-0.48814106,0.121203035
0.306,-1.9383335,1.8956945,8.296153,0.031881228,-0.5142127,0.107765675
0.308,-1.8317587,1.9007444,8.349907,0.033079565,-0.5366668,0.09402183
0.31,-1.7265922,1.9049699,8.41221,0.03621508,-0.5542277,0.0801997
0.312,-1.6242014,1.9089961,8.482891,0.04151152,-0.5657401,0.066526115
0.314,-1.5256817,1.913317,8.56159,0.049167752,-0.57021147,0.053242773
0.316,-1.43211,1.918478,8.647637,0.0593217,-0.56686807,0.040596314
0.318,-1.3447788,1.9250112,8.740112,0.07209189,-0.55517536,0.028831929
0.32,-1.264446,1.9333749,8.837987,0.0875165,-0.53482807,0.0181823
0.322,-1.1921848,1.944299,8.94016,0.10556497,-0.5058062,0.008875407
0.324,-1.1288594,1.958276,9.045439,0.12614012,-0.46832448,0.0011115596
0.326,-1.0753611,1.9758439,9.1525135,0.14907917,-0.42278525,-0.0049423575
0.328,-1.03246,1.9975052,9.2601595,0.17418858,-0.3697227,-0.00915106
0.33,-1.0009474,2.0235841,9.36704,0.20121126,-0.30980095,-0.011450782
0.332,-0.9813194,2.0544708,9.471808,0.22986971,-0.243789,-0.0118514765
0.334,-0.97410774,2.0901716,9.573296,0.2598796,-0.1725061,-0.010431588
0.336,-0.9794352,2.1307375,9.670253,0.29092914,-0.096809745,-0.0073031113
0.338,-0.9974346,2.17597,9.761501,0.32273492,-0.017569013,-0.0026309714
0.34,-1.0281792,2.2257552,9.845822,0.35500455,0.06431976,0.003380075
0.342,-1.0713661,2.2797272,9.922308,0.38745886,0.14794677,0.010522127
0.344,-1.1266828,2.3374038,9.989864,0.4198282,0.23243044,0.018592969
0.346,-1.1933558,2.3982627,10.047642,0.45186567,0.31691286,0.027403131
0.348,-1.2709973,2.4617162,10.094916,0.48332772,0.4005483,0.03677535
0.35,-1.3586519,2.5269935,10.131203,0.51399624,0.48252136,0.046556294
0.352,-1.4555074,2.5933626,10.156034,0.54367864,0.5620762,0.056621432
0.354,-1.5605847,2.6600494,10.169042,0.5722116,0.63851416,0.06685096
0.356,-1.6727383,2.7262666,10.169867,0.5994621,0.71119475,0.07713997
0.358,-1.7907586,2.7911665,10.158251,0.6253586,0.7795605,0.087371826
0.36,-1.9135238,2.8540666,10.134077,0.64988923,0.8431668,0.097399
0.362,-2.0395923,2.914294,10.097241,0.67310435,0.9016623,0.107075006
0.364,-2.1677206,2.971503,10.047966,0.69510925,0.9548336,0.11623317
0.366,-2.2965758,3.0251975,9.986572,0.7160519,1.0025781,0.12472448
0.368,-2.4248524,3.0752513,9.913583,0.73609656,1.044869,0.13242376
0.37,-2.551417,3.121473,9.829519,0.7554575,1.0817919,0.1392475
0.372,-2.6750774,3.1639757,9.73526,0.77432805,1.1134847,0.14517203
0.374,-2.7946987,3.2030528,9.631578,0.7929272,1.1401331,0.15024102
0.376,-2.9091673,3.2390862,9.519609,0.8114506,1.1619651,0.15455008
0.378,-3.0176082,3.272513,9.4005375,0.8300854,1.1791928,0.15824538
0.38,-3.1191087,3.3038018,9.275583,0.8489953,1.1920255,0.16146964
0.382,-3.2128873,3.3335166,9.145932,0.8682816,1.2006099,0.16435462
0.384,-3.29849,3.362484,9.013046,0.8880156,1.2050805,0.16699821
0.386,-3.3753278,3.3912113,8.878292,0.9082297,1.2055607,0.16946703
0.388,-3.443276,3.4204044,8.7433405,0.9289093,1.2022235,0.17177099
0.39,-3.5020056,3.4507072,8.609866,0.95003057,1.1952803,0.1738658
0.392,-3.5515742,3.4827788,8.479532,0.9715394,1.1850355,0.1756602
0.394,-3.592239,3.5171015,8.354229,0.9933824,1.1719325,0.17705697
0.396,-3.624125,3.554025,8.235746,1.0155532,1.156551,0.1779496
0.398,-3.647638,3.593935,8.1255665,1.0380816,1.1395969,0.17824078
0.4,-3.6632042,3.6371279,8.024879,1.0610566,1.1219342,0.17788017
0.402,-3.671235,3.683739,7.9347563,1.0846236,1.1045637,0.17686522
0.404,-3.6719255,3.7336607,7.8559117,1.1089768,1.0885603,0.17524838
0.406,-3.6658764,3.7867951,7.788821,1.1343402,1.0749984,0.17314225
0.408,-3.6536868,3.8425498,7.7339077,1.1609459,1.0649469,0.17072189
0.41,-3.635593,3.900452,7.691352,1.1889912,1.0593414,0.16819274
0.412,-3.612651,3.9602268,7.660475,1.2185789,1.0589308,0.16575593
0.414,-3.5850463,4.021309,7.640206,1.2497075,1.0642009,0.16359723
0.416,-3.5532422,4.083209,7.630047,1.282263,1.0754067,0.16183197
0.418,-3.5175996,4.1452303,7.6292505,1.3160261,1.0924939,0.16049844
0.42,-3.4782796,4.206702,7.637039,1.350673,1.115111,0.15952587
0.422,-3.4355762,4.2669773,7.6521497,1.3858013,1.1426518,0.15875924
0.424,-3.389449,4.3254776,7.6731772,1.4209465,1.1742293,0.15797722
0.426,-3.3401742,4.381797,7.698533,1.4556317,1.2087337,0.1569106
0.428,-3.2876496,4.4354153,7.7267046,1.489356,1.2448819,0.1552738
0.43,-3.2320538,4.4860106,7.7563243,1.5216603,1.2812343,0.15279931
0.432,-3.17313,4.5329933,7.78626,1.5520912,1.3162782,0.14925593
0.434,-3.110865,4.576056,7.8155155,1.5802145,1.3484414,0.14449179
0.436,-3.045491,4.615012,7.8433385,1.6056286,1.3762379,0.13841355
0.438,-2.9767349,4.649515,7.868735,1.6279444,1.3982754,0.1310175
0.44,-2.9048927,4.679713,7.8911085,1.6467874,1.4133791,0.122360885
0.442,-2.830078,4.705785,7.9097824,1.6618445,1.420648,0.11253244
0.444,-2.752531,4.7281137,7.924455,1.6728263,1.4194239,0.10160923
0.446,-2.6724517,4.7469654,7.935233,1.679507,1.4092419,0.08962214
0.448,-2.5902424,4.762878,7.942509,1.6817589,1.3898737,0.07654321
0.45,-2.5061772,4.776242,7.946695,1.6795232,1.3613378,0.06231618
0.452,-2.4208689,4.7876964,7.948127,1.6728538,1.3238182,0.046866238
0.454,-2.3347507,4.7979007,7.947257,1.6618927,1.2776464,0.030106843
0.456,-2.248708,4.807338,7.9446535,1.646914,1.2233061,0.011988401
0.458,-2.1632178,4.8165092,7.9408317,1.6283131,1.1614399,-0.0074537396
0.46,-2.0793343,4.826184,7.9365473,1.6065902,1.0928149,-0.028053045
0.462,-1.9977086,4.8368397,7.9324775,1.5823059,1.0183213,-0.04950142
0.464,-1.9193575,4.849197,7.9292884,1.5560966,0.9390412,-0.07135528
0.466,-1.8452165,4.863849,7.9277906,1.5286152,0.8561897,-0.09306097
0.468,-1.7759733,4.8812566,7.928543,1.5005207,0.7711084,-0.114002585
0.47,-1.7124727,4.901755,7.932128,1.4724579,0.68521136,-0.13355553
0.472,-1.6554337,4.9255466,7.9390087,1.44504,0.5999715,-0.1511665
0.474,-1.6057513,4.9530406,7.9495487,1.4188352,0.51687104,-0.16636184
0.476,-1.5642354,4.984501,7.963944,1.3943515,0.4372781,-0.17882216
0.478,-1.5313857,5.0199957,7.982456,1.3720257,0.3624259,-0.18836856
0.48,-1.5079312,5.0597343,8.005328,1.352206,0.29340369,-0.1949712
0.482,-1.4944234,5.1036434,8.032585,1.3351927,0.23110807,-0.19870704
0.484,-1.4913397,5.151743,8.064159,1.3211997,0.17626834,-0.1997396
0.486,-1.4990456,5.203949,8.0996685,1.3104184,0.1294164,-0.19826633
0.488,-1.5173333,5.259847,8.138673,1.3029819,0.090907216,-0.19450808
0.49,-1.5463009,5.319221,8.180771,1.2989752,0.060905755,-0.18868613
0.492,-1.5857081,5.381769,8.2256565,1.298425,0.03940001,-0.18103892
0.494,-1.6353326,5.446993,8.272896,1.3012902,0.026179463,-0.17181766
0.496,-1.6949899,5.5147157,8.322178,1.3074553,0.020857662,-0.1612646
0.498,-1.7639678,5.584253,8.372923,1.3167775,0.022969961,-0.14961466
0.5,-1.8417876,5.6552515,8.424504,1.3290519,0.03195268,-0.13709325
0.502,-1.9276443,5.7271886,8.47622,1.3440158,0.047041267,-0.12394896
0.504,-2.0208035,5.7996416,8.527332,1.3613474,0.06728834,-0.11046463
0.506,-2.1202717,5.872012,8.577558,1.3806787,0.09162694,-0.09694454
0.508,-2.2251022,5.9436255,8.626577,1.4015888,0.118891746,-0.08367646
0.51,-2.3342679,6.013962,8.67426,1.4236165,0.14787036,-0.07093698
0.512,-2.446467,6.08235,8.720336,1.4462541,0.17731643,-0.0589934
0.514,-2.5607526,6.1484385,8.764636,1.4689809,0.2060068,-0.048097312
0.516,-2.6758833,6.2118387,8.8068905,1.4912981,0.23274678,-0.038465977
0.518,-2.790416,6.272323,8.84677,1.5127213,0.25643033,-0.030267
0.52,-2.9034214,6.3295927,8.884027,1.5328171,0.27608737,-0.023611903
0.522,-3.0130117,6.3829255,8.918933,1.5511678,0.29084867,-0.01859945
0.524,-3.1184962,6.4322743,8.951688,1.5673652,0.2999509,-0.015319586
0.526,-3.2186666,6.4773064,8.981646,1.5810136,0.3027351,-0.013849974
0.528,-3.3124568,6.5179687,9.008422,1.5917488,0.29867804,-0.014251769
0.53,-3.3989422,6.5543337,9.031522,1.5992606,0.287409,-0.01658088
0.532,-3.477118,6.5860643,9.05101,1.6032925,0.26869577,-0.02090156
0.534,-3.546293,6.613,9.067049,1.6036873,0.24243748,-0.027243555
0.536,-3.605724,6.634934,9.079921,1.6004013,0.20872772,-0.0356009
0.538,-3.6552403,6.652067,9.089935,1.593545,0.16788852,-0.04588723
0.54,-3.6943674,6.6644235,9.097145,1.5833759,0.12049493,-0.05794561
0.542,-3.7229497,6.6720395,9.101626,1.5703381,0.06738356,-0.07155132
0.544,-3.7407415,6.6749334,9.103362,1.5550265,0.009634316,-0.08640033
0.546,-3.7475157,6.673076,9.10243,1.5381788,-0.051440805,-0.102151304
0.548,-3.7434728,6.666586,9.098956,1.5206099,-0.11438534,-0.118445426
0.55,-3.728625,6.6554146,9.093135,1.5031627,-0.17765659,-0.13493854
0.552,-3.7033427,6.639583,9.085277,1.4866292,-0.23970836,-0.15130603
0.554,-3.6680315,6.61913,9.075231,1.4717331,-0.29904702,-0.16726369
0.556,-3.6234562,6.594256,9.062876,1.4591119,-0.35427904,-0.18255356
0.558,-3.5703292,6.5650477,9.047851,1.4492948,-0.40417013,-0.19694877
0.56,-3.5093846,6.531784,9.030134,1.4426587,-0.44774684,-0.21027198
0.562,-3.4415452,6.4948215,9.009725,1.4394798,-0.4842637,-0.22233635
0.564,-3.3679216,6.4544163,8.986793,1.4399197,-0.5131923,-0.2329382
0.566,-3.2892153,6.4108696,8.96125,1.4440475,-0.5342456,-0.24188787
0.568,-3.2065725,6.3648033,8.9331255,1.451828,-0.54741037,-0.24904966
0.57,-3.1209576,6.3164644,8.902053,1.4631358,-0.55289423,-0.254321
0.572,-3.0335636,6.2665396,8.867845,1.4777949,-0.55109465,-0.25765914
0.574,-2.9453175,6.215278,8.830287,1.4955808,-0.54258114,-0.25906673
0.576,-2.8572934,6.1632233,8.789151,1.5162644,-0.5280325,-0.25858325
0.578,-2.770862,6.1110005,8.744688,1.5396075,-0.50821686,-0.25625485
0.58,-2.6871128,6.0591636,8.697165,1.5653634,-0.48393622,-0.25214416
0.582,-2.607266,6.008307,8.646992,1.5933013,-0.455986,-0.24633452
0.584,-2.5321488,5.958725,8.594732,1.6231772,-0.42512107,-0.23889393
0.586,-2.4627638,5.910882,8.540824,1.6547756,-0.39200777,-0.2298609
0.588,-2.4002545,5.865258,8.485715,1.6878779,-0.35723275,-0.2192697
0.59,-2.3453057,5.822287,8.429872,1.7222772,-0.32129183,-0.20716512
0.592,-2.298514,5.7822824,8.373952,1.7577856,-0.2845662,-0.19362289
0.594,-2.260521,5.7454004,8.318697,1.7942514,-0.24732977,-0.17871922
0.596,-2.2319024,5.7118187,8.264879,1.8315386,-0.20977527,-0.16253275
0.598,-2.213385,5.6817775,8.213426,1.8695494,-0.17200196,-0.14516604
0.6,-2.2052224,5.655281,8.165106,1.9081955,-0.134063,-0.12672544
0.602,-2.2076004,5.632255,8.12057,1.947401,-0.09596968,-0.10732734
0.604,-2.2203274,5.6125503,8.0805855,1.9870858,-0.057745636,-0.08710289
0.606,-2.243094,5.5958347,8.045605,2.0271635,-0.019452155,-0.066191375
0.608,-2.2757504,5.5819583,8.0160265,2.0674849,0.018747866,-0.0447343
0.61,-2.3176343,5.570519,7.9923153,2.1078467,0.056607127,-0.022907794
0.612,-2.3681893,5.5611973,7.974659,2.1480196,0.093779355,-0.00087851286
0.614,-2.4265795,5.553425,7.963195,2.1877432,0.12986049,0.021185875
0.616,-2.4919157,5.5467176,7.9577,2.226714,0.16434997,0.043070674
0.618,-2.5631895,5.540569,7.9581723,2.2646005,0.19664422,0.06454182
0.62,-2.6393704,5.5342646,7.9644136,2.3011124,0.22614917,0.08538473
0.622,-2.7195714,5.527462,7.976145,2.3360143,0.25235394,0.10542333
0.624,-2.8025541,5.519316,7.9927416,2.3691473,0.2748222,0.12448692
0.626,-2.8871002,5.5092535,8.013638,2.400392,0.29317412,0.14245093
0.628,-2.9720724,5.49671,8.038122,2.4296975,0.30716926,0.15923715
0.63,-3.056229,5.4812527,8.065467,2.4570658,0.31669092,0.17481649
0.632,-3.1384697,5.462367,8.095041,2.4825625,0.3217375,0.18917012
0.634,-3.2175977,5.4392505,8.1260395,2.5062814,0.32238048,0.20232856
0.636,-3.2927756,5.4115925,8.157889,2.5283191,0.31872788,0.21433794
0.638,-3.363171,5.379035,8.189776,2.5487757,0.31091008,0.2252717
0.64,-3.4281034,5.341225,8.221346,2.5677195,0.29900578,0.235196
0.642,-3.4869032,5.2980976,8.252025,2.5852056,0.28306544,0.24416602
0.644,-3.538918,5.2495813,8.281284,2.601276,0.26311567,0.25224185
0.646,-3.5838017,5.1955347,8.308844,2.6159773,0.23914587,0.25948584
0.648,-3.6211152,5.1359763,8.334425,2.6293383,0.21115309,0.26594627
0.65,-3.650823,5.070984,8.357828,2.6414208,0.17917103,0.27165282
0.652,-3.6727448,5.0007687,8.378907,2.6522968,0.14328519,0.27665007
0.654,-3.6868443,4.925693,8.397684,2.6620874,0.1036883,0.280998
0.656,-3.6935124,4.8460836,8.414134,2.6709468,0.060685515,0.28475034
0.658,-3.6929152,4.7623816,8.428579,2.6790442,0.0146537125,0.2879895
0.66,-3.6851873,4.674996,8.441313,2.6865604,-0.033960313,0.29079723
0.662,-3.670697,4.5843744,8.452732,2.6937075,-0.08462626,0.29328406
0.664,-3.6497097,4.491023,8.463355,2.7007208,-0.13674122,0.2955947
0.666,-3.622511,4.3953896,8.473574,2.7078083,-0.18971866,0.29788458
0.668,-3.5894895,4.2978516,8.4839115,2.7151554,-0.2430338,0.30032325
0.67,-3.5513163,4.198904,8.494731,2.7229168,-0.2962356,0.3030404
0.672,-3.508367,4.0989347,8.506504,2.7312346,-0.34891257,0.30615926
0.674,-3.4612274,3.9985077,8.519444,2.7402086,-0.4007223,0.30976272
0.676,-3.4105406,3.8981388,8.533957,2.7498975,-0.45143864,0.313905
0.678,-3.3568983,3.7982886,8.550489,2.760334,-0.50092745,0.31861758
0.68,-3.3008392,3.699585,8.569246,2.771544,-0.5490736,0.3238784
0.682,-3.2428212,3.6022487,8.590444,2.7835646,-0.595742,0.32965302
0.684,-3.1834998,3.5067532,8.614054,2.796453,-0.6407531,0.3359071
0.686,-3.1233506,3.4134278,8.63998,2.810264,-0.6839067,0.34261847
0.688,-3.0629349,3.322672,8.668009,2.8250704,-0.7249514,0.34975636
0.69,-3.0027318,3.2348366,8.697933,2.840934,-0.7635864,0.35731733
0.692,-2.9433365,3.150124,8.729428,2.8579235,-0.7995018,0.365296
0.694,-2.8851266,3.06884,8.762191,2.8760576,-0.8323871,0.37370956
0.696,-2.8286245,2.9911418,8.796116,2.8953311,-0.86201555,0.3825699
0.698,-2.7742388,2.9171462,8.8311,2.9156768,-0.8883052,0.39188206
0.7,-2.7223554,2.8468575,8.866917,2.9369636,-0.9113283,0.40164077
0.702,-2.6736336,2.7804356,8.903322,2.9590359,-0.93132484,0.41183162
0.704,-2.628574,2.7179706,8.940144,2.9816904,-0.9487188,0.42244613
0.706,-2.5874724,2.6595545,8.977085,3.0046911,-0.96407056,0.43345225
0.708,-2.5505915,2.6050844,9.013847,3.0277712,-0.97803485,0.44482255
0.71,-2.5181568,2.5541706,9.050219,3.0506623,-0.99128497,0.4565227
0.712,-2.490591,2.5066273,9.086034,3.0731163,-1.0044688,0.46850538
0.714,-2.4684238,2.462233,9.121279,3.0948906,-1.0181413,0.48074234
0.716,-2.4521387,2.4208946,9.156074,3.1157618,-1.0327746,0.4931922
0.718,-2.4419527,2.3824196,9.190525,3.1354918,-1.048758,0.5058228
0.72,-2.438031,2.3464098,9.224621,3.1538935,-1.0662992,0.5185963
0.722,-2.4405482,2.3125844,9.25855,3.1707997,-1.0854517,0.5314696
0.724,-2.4497058,2.2808971,9.292149,3.1860797,-1.1061423,0.54440165
0.726,-2.4657202,2.2512846,9.325249,3.1996164,-1.1282121,0.55732083
0.728,-2.4886231,2.2235034,9.357544,3.2113438,-1.1514189,0.57016337
0.73,-2.5182047,2.197355,9.3887825,3.221233,-1.1754609,0.5828383
0.732,-2.5541768,2.1725132,9.418707,3.2293065,-1.2000128,0.59525585
0.734,-2.5965064,2.148917,9.447199,3.2356358,-1.2247539,0.60734403
0.736,-2.644943,2.1263118,9.473996,3.240332,-1.2493876,0.61900413
0.738,-2.6992805,2.104577,9.498789,3.243543,-1.2736045,0.63015544
0.74,-2.758637,2.0834203,9.520945,3.2454433,-1.2970815,0.64073014
0.742,-2.8225396,2.0627306,9.539838,3.2462294,-1.3195608,0.65068614
0.744,-2.8903222,2.042601,9.554808,3.2460923,-1.3408184,0.6599691
0.746,-2.9610395,2.0226822,9.565233,3.2451968,-1.3606818,0.6685401
0.748,-3.0336351,2.0025852,9.570698,3.2436924,-1.3790435,0.67631626
0.75,-3.1070266,1.982079,9.57058,3.2416997,-1.395843,0.6832367
0.752,-3.180192,1.9608948,9.564381,3.239316,-1.4110789,0.6892133
0.754,-3.2522554,1.9388744,9.5516205,3.2366219,-1.4247962,0.69416904
0.756,-3.3217578,1.9158409,9.531797,3.2336874,-1.4370624,0.69802356
0.758,-3.3874812,1.8913169,9.504537,3.2305946,-1.4479498,0.7007053
0.76,-3.4482098,1.8649194,9.469708,3.2274532,-1.4575088,0.70215774
0.762,-3.5030518,1.8363743,9.427179,3.2244217,-1.4657358,0.7023566
0.764,-3.5508864,1.805321,9.376874,3.221653,-1.4725956,0.70132935
0.766,-3.5904706,1.771561,9.3188925,3.2193165,-1.4779861,0.69913363
0.768,-3.6207714,1.7349222,9.253141,3.2176056,-1.4817642,0.6958585
0.77,-3.6407588,1.6950561,9.179668,3.2167044,-1.4837568,0.6916206
0.772,-3.6495893,1.6518807,9.098416,3.2167847,-1.4837852,0.6865574
0.774,-3.646769,1.6051912,9.009561,3.2179842,-1.4817418,0.6808326
0.776,-3.63163,1.5548985,8.913301,3.2204158,-1.4775721,0.6746249
0.778,-3.6035988,1.5010746,8.809824,3.224161,-1.4712932,0.66813755
0.78,-3.5621257,1.4437394,8.699202,3.229249,-1.4630235,0.6615715
0.782,-3.5069475,1.3829026,8.581502,3.2356865,-1.4529428,0.65512097
0.784,-3.4377377,1.3187355,8.457062,3.2434478,-1.4412755,0.64899874
0.786,-3.354683,1.2513659,8.326084,3.2524698,-1.4282863,0.64340365
0.788,-3.257766,1.1809894,8.1886015,3.262691,-1.414284,0.6385578
0.79,-3.146895,1.107839,8.044546,3.2740183,-1.3996264,0.6346967
0.792,-3.0234852,1.0330461,7.8952026,3.2863297,-1.3847291,0.63203204
0.794,-2.8883042,0.9569419,7.7418394,3.2994838,-1.3700593,0.630741
0.796,-2.741459,0.87997305,7.584401,3.3133216,-1.356114,0.63097227
0.798,-2.5835745,0.80271643,7.422884,3.327672,-1.3434596,0.63281417
0.8,-2.4155977,0.72579193,7.2575727,3.342321,-1.3327346,0.63629794
0.802,-2.2381322,0.65002936,7.088802,3.3570213,-1.3246381,0.64139235
0.804,-2.0522451,0.5763748,6.9170117,3.371458,-1.319917,0.64797795
0.806,-1.8591659,0.5057356,6.7430816,3.3852978,-1.3193233,0.65586877
0.808,-1.6600394,0.43901545,6.5678024,3.3981838,-1.3236117,0.6648264
0.81,-1.4560828,0.37706208,6.391938,3.4097571,-1.3335067,0.67461777
0.812,-1.2481177,0.3206663,6.2164464,3.419653,-1.3496811,0.6850089
0.814,-1.0375185,0.27067816,6.042486,3.427539,-1.3727406,0.6957841
0.816,-0.8253603,0.22763968,5.8713703,3.4331217,-1.4031968,0.7067393
0.818,-0.61260986,0.19222516,5.7052937,3.4362073,-1.4413713,0.7177167
0.82,-0.4037397,0.16637087,5.545271,3.436672,-1.4874685,0.7285987
0.822,-0.1966567,0.14896566,5.3917274,3.4343379,-1.5418552,0.73920643
0.824,0.006539583,0.14087111,5.244073,3.4291844,-1.6046195,0.74943185
0.826,0.20402837,0.1429069,5.099661,3.4212937,-1.675643,0.7592076
0.828,0.40045524,0.1525926,4.961862,3.410729,-1.754923,0.76838124
0.83,0.59341335,0.16966015,4.837403,3.3976002,-1.8423913,0.7767849
0.832,0.7784095,0.19535768,4.728697,3.3820705,-1.9378781,0.7842746
0.834,0.9552152,0.22906953,4.6362,3.3643212,-2.0411737,0.79067695
0.836,1.124284,0.27015173,4.558955,3.3445125,-2.1519468,0.7958363
0.838,1.2856694,0.3190276,4.496257,3.3228188,-2.2696886,0.7996483
0.84,1.438184,0.37548572,4.4497976,3.2994266,-2.3936858,0.8020768
0.842,1.5792962,0.43874246,4.4204006,3.274485,-2.5230732,0.80316305
0.844,1.709138,0.50762504,4.406984,3.2481732,-2.6568274,0.80301106
0.846,1.8284549,0.5807638,4.40891,3.2206593,-2.793796,0.8018042
0.848,1.9368345,0.657299,4.4257135,3.192041,-2.9328861,0.79972446
0.85,2.0337882,0.73678577,4.456995,3.1624515,-3.07292,0.79697394
0.852,2.119401,0.8187385,4.5021505,3.132122,-3.2125432,0.79386187
0.854,2.1935637,0.9028466,4.560695,3.1013508,-3.3505409,0.7906945
0.856,2.256226,0.9888481,4.6315084,3.0705361,-3.485613,0.7877135
0.858,2.3081813,1.0763636,4.712656,3.0400481,-3.6168127,0.7850883
0.86,2.350381,1.1650808,4.800875,3.0103788,-3.743115,0.7829671
0.862,2.3846126,1.2548451,4.8914423,2.982159,-3.8629658,0.7814778
0.864,2.4128485,1.3459764,4.980024,2.9561138,-3.9745975,0.7809584
0.866,2.4359202,1.4389927,5.0648327,2.9332156,-4.075848,0.7820723
0.868,2.4551945,1.5337708,5.1452255,2.9145389,-4.164472,0.78548896
0.87,2.4724977,1.6302034,5.218786,2.901198,-4.238221,0.7917317
0.872,2.4898071,1.7278835,5.2824373,2.8943331,-4.294599,0.80143034
0.874,2.509355,1.8261471,5.3329196,2.8949864,-4.330988,0.81540096
0.876,2.5335016,1.9249254,5.36672,2.9039602,-4.344979,0.8344978
0.878,2.564125,2.0245275,5.3813734,2.9216206,-4.334946,0.8593626
0.88,2.6029284,2.1250222,5.3749638,2.9479487,-4.2999687,0.8904464
0.882,2.6515055,2.2264037,5.346069,2.9825988,-4.2398605,0.9281148
0.884,2.711036,2.3288443,5.293603,3.0248451,-4.1555076,0.97249174
0.886,2.782013,2.4325023,5.2172313,3.0736847,-4.048826,1.0234222
0.888,2.8646145,2.5378132,5.11731,3.127993,-3.9225354,1.0805538
0.89,2.9588387,2.645378,4.994749,3.1866133,-3.780079,1.1433172
0.892,3.0645862,2.755809,4.8510513,3.2484426,-3.6252866,1.2109735
0.894,3.1813288,2.869607,4.6884413,3.3123655,-3.4622862,1.2826092
0.896,3.3082592,2.987391,4.5095825,3.3772724,-3.2952065,1.3571357
0.898,3.4438214,3.1097984,4.3177576,3.4422088,-3.1274085,1.4335383
0.9,3.58621,3.237352,4.117202,3.5063908,-2.9612477,1.5109234
0.902,3.7344308,3.3699002,3.9112172,3.5690958,-2.7982159,1.5885566
0.904,3.8865628,3.5080311,3.7038112,3.6296217,-2.6390524,1.6659982
0.906,4.039715,3.6520965,3.5004454,3.687281,-2.4839654,1.7430409
0.908,4.191735,3.8020542,3.3059123,3.7415,-2.3327246,1.8196194
0.91,4.3406515,3.9575667,3.1244287,3.7917902,-2.185054,1.8958594
0.912,4.484116,4.11815,2.9597557,3.8378263,-2.040476,1.972034
0.914,4.6200314,4.2830167,2.8149247,3.8792055,-1.8990364,2.048471
0.916,4.746913,4.4514356,2.692165,3.915482,-1.7614594,2.1255252
0.918,4.863222,4.6224003,2.5932477,3.9462013,-1.6286297,2.2034385
0.92,4.9675055,4.794964,2.519308,3.970775,-1.5017004,2.2823546
0.922,5.0584183,4.9681025,2.4706125,3.9886072,-1.3817828,2.3625863
0.924,5.135513,5.140608,2.4465864,3.9991179,-1.27007,2.4444854
0.926,5.1981435,5.3114824,2.4461098,4.001691,-1.168129,2.5280578
0.928,5.245898,5.479808,2.4669611,3.995776,-1.0776899,2.6129174
0.93,5.281288,5.6436443,2.50775,3.980986,-1.0004023,2.6984737
0.932,5.30087,5.803878,2.5669734,3.957033,-0.9379635,2.7839265
0.934,5.305976,5.9592586,2.6431916,3.923784,-0.89209473,2.868253
0.936,5.2973804,6.108956,2.735739,3.8812804,-0.86437476,2.950246
0.938,5.2707806,6.25504,2.837728,3.829756,-0.85614634,3.0286458
0.94,5.2297735,6.3971305,2.941062,3.7696192,-0.8683928,3.1022758
0.942,5.178669,6.5338087,3.0435195,3.7014747,-0.90156436,3.1701837
0.944,5.1169815,6.665752,3.1446207,3.626109,-0.95545673,3.2317417
0.946,5.0444236,6.7934694,3.2443104,3.5444493,-1.0291865,3.2866926
0.948,4.961344,6.9168625,3.3414056,3.4576657,-1.1209912,3.3352518
0.95,4.8692193,7.0366864,3.4324126,3.367035,-1.2284255,3.3780627
0.952,4.770202,7.1541033,3.5154893,3.2737384,-1.3489766,3.4159617
0.954,4.663509,7.269887,3.591567,3.178902,-1.4799378,3.449933
0.956,4.5495644,7.3855505,3.6583323,3.0836463,-1.618264,3.481071
0.958,4.428762,7.5012035,3.714793,2.9889753,-1.7609167,3.5103493
0.96,4.302468,7.616526,3.7603657,2.8957787,-1.904956,3.5386152
0.962,4.171876,7.7307396,3.794115,2.8047922,-2.0476227,3.5666952
0.964,4.0388894,7.843201,3.8146558,2.7166278,-2.1866477,3.5952086
0.966,3.9052114,7.9533267,3.8214865,2.631775,-2.320281,3.6244996
0.968,3.771651,8.061199,3.8151422,2.5506592,-2.4472222,3.6547112
0.97,3.6393986,8.166462,3.7970567,2.4736097,-2.5666993,3.6858118
0.972,3.5095296,8.268492,3.769043,2.4008722,-2.6783936,3.7176445
0.974,3.383545,8.366164,3.731632,2.3326426,-2.7822926,3.750001
0.976,3.2639217,8.458776,3.6829066,2.2691138,-2.8785906,3.782693
0.978,3.152482,8.546267,3.6209745,2.2104309,-2.9675932,3.815568
0.98,3.0508387,8.628728,3.5465782,2.1567125,-3.0496728,3.8485157
0.982,2.9603121,8.706446,3.461177,2.1080544,-3.1252277,3.8814998
0.984,2.881704,8.779847,3.3661954,2.0645313,-3.194559,3.9145765
0.986,2.8157897,8.848708,3.263336,2.0260875,-3.257845,3.9475672
0.988,2.7631884,8.912902,3.153492,1.9926653,-3.315288,3.9803185
0.99,2.7242455,8.972803,3.0375936,1.9641057,-3.3671086,4.0125628
0.992,2.6989167,9.028809,2.9169168,1.9402889,-3.4132814,4.043918
0.994,2.686887,9.081501,2.792841,1.921095,-3.453702,4.0739946
0.996,2.6874337,9.131325,2.666443,1.9063808,-3.488265,4.102396
0.998,2.6992164,9.178921,2.5387487,1.8959932,-3.5167284,4.128734
1,2.720389,9.224864,2.410848,1.8898039,-3.5386376,4.152681
1.002,2.7486339,9.27002,2.2837474,1.8876563,-3.5533795,4.1740394
1.004,2.7813969,9.315149,2.158224,1.8893839,-3.5602462,4.192836
1.006,2.8162112,9.361124,2.0351927,1.8947513,-3.5585253,4.2093225
1.008,2.8505774,9.408659,1.9150648,1.9034752,-3.5475688,4.2239766
1.01,2.8815708,9.458567,1.7978373,1.9152073,-3.526883,4.2374086
1.012,2.906567,9.511625,1.6833518,1.9295292,-3.4961925,4.250306
1.014,2.9227388,9.568339,1.5716138,1.9459807,-3.4555125,4.2633424
1.016,2.9271703,9.629387,1.4624977,1.9641043,-3.4051697,4.277112
1.018,2.917778,9.694572,1.3558931,1.9834725,-3.3458104,4.292048
1.02,2.8937955,9.764431,1.2507381,2.0036983,-3.2783852,4.308412
1.022,2.8519228,9.839035,1.1471629,2.0244765,-3.204054,4.3262696
1.024,2.7921534,9.918018,1.0445142,2.0455666,-3.124064,4.345489
1.026,2.713815,10.001149,0.94259644,2.066796,-3.0397542,4.365804
1.028,2.616217,10.088392,0.84099674,2.088032,-2.9525313,4.3868303
1.03,2.4998052,10.179155,0.7392006,2.1091502,-2.863832,4.408092
1.032,2.3653333,10.272572,0.6369095,2.1300676,-2.7750385,4.429065
1.034,2.2136672,10.367924,0.5341511,2.1507251,-2.6873932,4.4492
1.036,2.045923,10.464651,0.43086147,2.171082,-2.6020095,4.467933
1.038,1.8639622,10.561763,0.32715368,2.191114,-2.5199165,4.4847217
1.04,1.6699224,10.658375,0.22342348,2.2108667,-2.4420443,4.4992466
1.042,1.4661803,10.753405,0.11998367,2.230342,-2.3690891,4.511111
1.044,1.2554238,10.84585,0.017266273,2.2495804,-2.3015614,4.5200024
1.046,1.0401409,10.93473,-0.084118366,2.2685235,-2.2400212,4.525718
1.048,0.82278043,11.019007,-0.18336487,2.2871432,-2.1848016,4.5281467
1.05,0.60563505,11.097957,-0.2795825,2.3053997,-2.1360066,4.5272083
1.052,0.3910997,11.170801,-0.37206697,2.3232384,-2.0936909,4.522941
1.054,0.18125403,11.236988,-0.46016932,2.3405836,-2.057887,4.51555
1.056,-0.021996975,11.295992,-0.5432739,2.3573444,-2.0285811,4.505215
1.058,-0.21655464,11.347209,-0.62096214,2.3734465,-2.005567,4.492063
1.06,-0.40059757,11.390305,-0.69320536,2.388835,-1.9885422,4.4762106
1.062,-0.5725355,11.424929,-0.7604041,2.4034228,-1.9771563,4.4577885
1.064,-0.7309637,11.45149,-0.8237376,2.4171388,-1.9709817,4.436968
1.066,-0.876003,11.469635,-0.8820939,2.429916,-1.9696084,4.4139175
1.068,-1.0062943,11.479836,-0.9360852,2.4416707,-1.972626,4.3888197
1.07,-1.121974,11.482756,-0.98650646,2.4523232,-1.9795883,4.361876
1.072,-1.2232647,11.479509,-1.0334845,2.4618006,-1.990084,4.3332815
1.074,-1.3106604,11.4706545,-1.0768337,2.470066,-2.0037708,4.3032093
1.076,-1.384541,11.456839,-1.116755,2.4770772,-2.020382,4.271813
1.078,-1.4452996,11.438363,-1.1539073,2.4828308,-2.0397148,4.2392187
1.08,-1.4935396,11.416065,-1.1887984,2.487369,-2.061585,4.205493
1.082,-1.5301871,11.390772,-1.2218552,2.4907594,-2.0858128,4.1706595
1.084,-1.5563316,11.363676,-1.253262,2.493124,-2.1121988,4.134719
1.086,-1.5731165,11.335466,-1.2830088,2.4946067,-2.1405063,4.09767
1.088,-1.5815904,11.307144,-1.3109772,2.495388,-2.1704407,4.059527
1.09,-1.5834186,11.279448,-1.3369138,2.495677,-2.201567,4.020328
1.092,-1.5800314,11.252932,-1.3600109,2.495741,-2.233297,3.9801066
1.094,-1.5728331,11.228155,-1.3792396,2.4958954,-2.264861,3.9389143
1.096,-1.5634243,11.205336,-1.3936963,2.4965072,-2.295308,3.8968134
1.098,-1.5529985,11.18469,-1.402637,2.4980097,-2.3235598,3.8538795
1.1,-1.5430875,11.166521,-1.4053147,2.5008593,-2.3484068,3.8102224
1.102,-1.5350211,11.15103,-1.4012308,2.5054874,-2.3685968,3.765948
1.104,-1.5303156,11.138262,-1.3898141,2.5123124,-2.3829038,3.7212927
1.106,-1.5302422,11.128355,-1.3705199,2.5216722,-2.3901446,3.676532
1.108,-1.5359044,11.120941,-1.3428862,2.5337944,-2.3892703,3.6319354
1.11,-1.5485573,11.115833,-1.306808,2.5488038,-2.3793883,3.5878894
1.112,-1.5691712,11.112534,-1.2626097,2.5667064,-2.3599029,3.5448337
1.114,-1.598609,11.110752,-1.2110395,2.5874152,-2.3304124,3.5031843
1.116,-1.6379569,11.110157,-1.1531026,2.6107717,-2.2907593,3.4633045
1.118,-1.6875553,11.110296,-1.0898049,2.6365273,-2.2410727,3.425508
1.12,-1.7475626,11.110828,-1.0226367,2.6643934,-2.1816936,3.3900442
1.122,-1.8181453,11.111412,-0.9533193,2.694043,-2.1132078,3.3570752
1.124,-1.8990123,11.111735,-0.8838899,2.7251081,-2.0364227,3.326621
1.126,-1.989243,11.111169,-0.8165667,2.7571788,-1.9523612,3.298634
1.128,-2.0883806,11.109978,-0.75350356,2.7898006,-1.8622543,3.27299
1.13,-2.1963959,11.107595,-0.696228,2.8225112,-1.7675588,3.2494645
1.132,-2.3100286,11.103784,-0.64748573,2.854829,-1.6698989,3.2277815
1.134,-2.4290185,11.0987,-0.6090379,2.8862624,-1.5710442,3.2075944
1.136,-2.5513527,11.092124,-0.5829747,2.9163713,-1.4728678,3.1885273
1.138,-2.6745853,11.083872,-0.57077885,2.9447482,-1.3772581,3.1701348
1.14,-2.796892,11.074022,-0.5735347,2.9710734,-1.2860266,3.1519644
1.142,-2.9161243,11.063066,-0.5923841,2.9951053,-1.2008481,3.1335845
1.144,-3.0299957,11.051035,-0.62816405,3.0166774,-1.1232067,3.1146085
1.146,-3.136332,11.038084,-0.68098545,3.0357225,-1.0542835,3.0947008
1.148,-3.2331998,11.024641,-0.75073385,3.0522435,-0.9948913,3.0735765
1.15,-3.3189812,11.011172,-0.83696234,3.0663044,-0.94552386,3.050991
1.152,-3.3923001,10.998151,-0.93864655,3.0780404,-0.9062865,3.0267422
1.154,-3.4520028,10.986208,-1.0544926,3.087625,-0.876938,3.000686
1.156,-3.497411,10.975953,-1.1829048,3.0953012,-0.85688543,2.972723
1.158,-3.5280068,10.968045,-1.3220805,3.1013353,-0.8452389,2.9428227
1.16,-3.5440161,10.962979,-1.4702415,3.10602,-0.84085417,2.9110296
1.162,-3.5461552,10.961454,-1.6255194,3.10966,-0.84235156,2.87749
1.164,-3.5357773,10.964415,-1.7860366,3.1125593,-0.8482007,2.842437
1.166,-3.5145395,10.9728775,-1.9503331,3.1149898,-0.85678566,2.8061872
1.168,-3.4843729,10.987928,-2.1169012,3.1171727,-0.86646736,2.769127
1.17,-3.4475923,11.010384,-2.284083,3.119297,-0.87564504,2.7316794
1.172,-3.4068592,11.041251,-2.450233,3.1214912,-0.8828647,2.694272
1.174,-3.3650305,11.081326,-2.613844,3.1238017,-0.8869035,2.6572995
1.176,-3.325098,11.13137,-2.7738466,3.1261957,-0.8868661,2.621064
1.178,-3.2906046,11.192274,-2.929318,3.1285772,-0.88218,2.5857687
1.18,-3.264611,11.264727,-3.079671,3.1307812,-0.8726207,2.5514576
1.182,-3.250135,11.349242,-3.22462,3.1326127,-0.8583096,2.5180202
1.184,-3.2500534,11.446445,-3.3639941,3.1338398,-0.83968997,2.4852216
1.186,-3.26711,11.556703,-3.4976666,3.1342542,-0.81750643,2.452693
1.188,-3.3033555,11.6802,-3.625379,3.1336994,-0.79266965,2.4199975
1.19,-3.3608673,11.816922,-3.746915,3.1320853,-0.76618004,2.386628
1.192,-3.441028,11.966787,-3.8620286,3.129418,-0.7390293,2.3520734
1.194,-3.5448763,12.129334,-3.9706259,3.1258278,-0.71213424,2.3158357
1.196,-3.6729412,12.304067,-4.0727983,3.1215754,-0.68620646,2.2774339
1.198,-3.8254144,12.490397,-4.1687403,3.1170115,-0.66174126,2.2364504
1.2,-4.001992,12.687794,-4.258674,3.1125817,-0.6389928,2.1925306
1.202,-4.2017694,12.8954735,-4.342887,3.1087942,-0.61794734,2.1454034
1.204,-4.423565,13.112516,-4.4217424,3.1062055,-0.5982783,2.0948749
1.206,-4.665539,13.338039,-4.4954753,3.1053596,-0.5795417,2.0408201
1.208,-4.9256196,13.570951,-4.564125,3.1067648,-0.5611893,1.9831474
1.21,-5.2013493,13.809972,-4.6277685,3.11085,-0.54263866,1.9218316
1.212,-5.490103,14.053953,-4.6862473,3.1179914,-0.5233455,1.8568653
1.214,-5.7891903,14.301763,-4.739498,3.1284685,-0.5029255,1.7882557
1.216,-6.0959377,14.552292,-4.787468,3.142474,-0.48117912,1.716009
1.218,-6.4076643,14.804457,-4.8303556,3.1601014,-0.4580934,1.6401296
1.22,-6.721534,15.057156,-4.8684893,3.1813862,-0.4338361,1.5605989
1.222,-7.034656,15.309444,-4.9023128,3.2062864,-0.40877807,1.4773552
1.224,-7.3444753,15.560457,-4.932148,3.2347012,-0.38342285,1.3903226
1.226,-7.6481233,15.809305,-4.9583645,3.266476,-0.35836303,1.2993927
1.228,-7.9436436,16.055275,-4.981029,3.3014007,-0.33426917,1.2044303
1.23,-8.229183,16.297657,-5.000241,3.3392172,-0.3118297,1.1053041
1.232,-8.503088,16.535896,-5.016124,3.3796196,-0.29176867,1.0018663
1.234,-8.764227,16.769537,-5.029167,3.422317,-0.2747507,0.8939947
1.236,-9.011913,16.99824,-5.0397296,3.467004,-0.2613727,0.7815957
1.238,-9.24554,17.221525,-5.0483108,3.5133924,-0.25215268,0.6645927
1.24,-9.464907,17.439102,-5.055582,3.5612192,-0.24753189,0.54294586
1.242,-9.670126,17.65074,-5.062095,3.6102495,-0.2478584,0.4166237
1.244,-9.861223,17.855955,-5.0684466,3.6603003,-0.25340426,0.28559893
1.246,-10.038826,18.054426,-5.0751386,3.711238,-0.26435375,0.14986776
1.248,-10.203415,18.245811,-5.082208,3.762962,-0.2808683,0.009402961
1.25,-10.355934,18.429893,-5.089668,3.815402,-0.30309498,-0.13580088
1.252,-10.497294,18.606133,-5.097767,3.8685288,-0.33118856,-0.28575075
1.254,-10.628516,18.77435,-5.106677,3.922297,-0.365386,-0.44044185
1.256,-10.750515,18.933922,-5.1167593,3.9766614,-0.40602422,-0.59989023
1.258,-10.864393,19.084265,-5.1279006,4.031581,-0.45354545,-0.7640953
1.26,-10.970987,19.224724,-5.139949,4.086998,-0.50838435,-0.93306655
1.262,-11.071121,19.354614,-5.1526146,4.1428366,-0.57102776,-1.1067874
1.264,-11.165515,19.473213,-5.1653447,4.198987,-0.64202154,-1.2852361
1.266,-11.254766,19.579891,-5.177689,4.255276,-0.72195184,-1.4683421
1.268,-11.339514,19.67411,-5.1890645,4.3114767,-0.81140804,-1.656019
1.27,-11.419856,19.755257,-5.198626,4.367307,-0.91100407,-1.8481624
1.272,-11.495932,19.82262,-5.205449,4.4224253,-1.0213592,-2.0446396
1.274,-11.56783,19.87554,-5.2083654,4.4764485,-1.1430466,-2.2452726
1.276,-11.635532,19.913345,-5.206036,4.5289755,-1.2765663,-2.4498641
1.278,-11.699165,19.935427,-5.1970444,4.579592,-1.4222921,-2.6581807
1.28,-11.758424,19.941353,-5.1801686,4.6279116,-1.5804033,-2.8699768
1.282,-11.812949,19.930836,-5.1544976,4.6735945,-1.7508141,-3.084979
1.284,-11.861862,19.903301,-5.119186,4.716337,-1.9332538,-3.3029137
1.286,-11.904175,19.858406,-5.0733232,4.755892,-2.127233,-3.5235224
1.288,-11.9387245,19.79578,-5.0160394,4.792041,-2.3320837,-3.7465792
1.29,-11.964561,19.715313,-4.9462633,4.8246546,-2.5469592,-3.9719026
1.292,-11.98046,19.617004,-4.8631067,4.8537054,-2.7708611,-4.199337
1.294,-11.985548,19.500898,-4.765719,4.87922,-3.0026512,-4.4287457
1.296,-11.978397,19.367075,-4.6536508,4.901287,-3.2411063,-4.6600084
1.298,-11.957676,19.21563,-4.5265102,4.920043,-3.4848962,-4.8930106
1.3,-11.92201,19.046772,-4.3839903,4.935659,-3.7326322,-5.1276655
1.302,-11.870008,18.860931,-4.2259035,4.948295,-3.9828997,-5.363853
1.304,-11.800148,18.65853,-4.05192,4.958085,-4.234304,-5.6014423
1.306,-11.711126,18.440113,-3.8616948,4.9651165,-4.4855113,-5.8402715
1.308,-11.601583,18.206297,-3.655025,4.9694185,-4.735296,-6.0801377
1.31,-11.469982,17.95755,-3.4316738,4.9709473,-4.9825926,-6.320792
1.312,-11.315416,17.694725,-3.1914861,4.9695716,-5.226537,-6.5619836
1.314,-11.136671,17.418774,-2.9344132,4.965099,-5.4665294,-6.803426
1.316,-10.932992,17.130575,-2.660156,4.9572988,-5.7021723,-7.044839
1.318,-10.70383,16.83125,-2.3682733,4.9458833,-5.933262,-7.285976
1.32,-10.448846,16.521914,-2.0585198,4.9305534,-6.1597157,-7.5266256
1.322,-10.167909,16.203676,-1.7308688,4.9109964,-6.38155,-7.766615
1.324,-9.860683,15.877531,-1.3853211,4.8869042,-6.598806,-8.005805
1.326,-9.527493,15.544765,-1.0216208,4.8579545,-6.8115377,-8.244127
1.328,-9.1685505,15.206881,-0.6399431,4.823814,-7.019789,-8.481516
1.33,-8.7846575,14.865479,-0.24049854,4.7841263,-7.22358,-8.717945
1.332,-8.376662,14.521984,0.17637658,4.7385297,-7.4229136,-8.95342
1.334,-7.9452615,14.177973,0.610137,4.686631,-7.617795,-9.1879015
1.336,-7.491791,13.835018,1.0599768,4.628026,-7.808255,-9.4213505
1.338,-7.01735,13.494842,1.5249388,4.5623,-7.994338,-9.653695
1.34,-6.522826,13.158934,2.003952,4.4890356,-8.176141,-9.884841
1.342,-6.0097218,12.828976,2.4956343,4.4078326,-8.353825,-10.114652
1.344,-5.479125,12.506687,2.9989908,4.318304,-8.527622,-10.342982
1.346,-4.9327526,12.193979,3.512922,4.220076,-8.697906,-10.569675
1.348,-4.3719726,11.892696,4.036377,4.112832,-8.865152,-10.794555
1.35,-3.7983842,11.604729,4.5679035,3.996317,-9.029946,-11.01744
1.352,-3.2136493,11.331909,5.1060867,3.8703303,-9.1929455,-11.238187
1.354,-2.6195512,11.076162,5.6495466,3.7347243,-9.354921,-11.456693
1.356,-2.0175,10.838961,6.196656,3.5894098,-9.516738,-11.6728945
1.358,-1.4088352,10.621804,6.7453566,3.434368,-9.679274,-11.88677
1.36,-0.7943113,10.426081,7.2941055,3.2696314,-9.843423,-12.098378
1.362,-0.17475358,10.253041,7.8419905,3.095314,-10.010053,-12.307804
1.364,0.4490692,10.103843,8.387928,2.9116158,-10.179925,-12.515118
1.366,1.0764881,9.979456,8.931157,2.7188036,-10.353663,-12.72036
1.368,1.7077777,9.88063,9.470651,2.5172331,-10.531664,-12.923517
1.37,2.3428502,9.807613,10.005698,2.3073251,-10.71407,-13.124458
1.372,2.9817693,9.760605,10.535346,2.0895538,-10.900771,-13.322933
1.374,3.6249838,9.739622,11.058777,1.8644229,-11.091476,-13.518595
1.376,4.2733607,9.744461,11.57557,1.6324043,-11.285806,-13.711001
1.378,4.9278326,9.774554,12.085332,1.393971,-11.483246,-13.899632
1.38,5.5892973,9.829078,12.587664,1.1495447,-11.683241,-14.083931
1.382,6.2586536,9.907208,13.082043,0.8995197,-11.885238,-14.263365
1.384,6.93727,10.007635,13.567868,0.64420176,-12.088723,-14.437376
1.386,7.6263533,10.128872,14.044719,0.3838979,-12.293142,-14.605387
1.388,8.327188,10.269133,14.512005,0.11889732,-12.497865,-14.766803
1.39,9.040791,10.426699,14.968948,-0.1505009,-12.702201,-14.920998
1.392,9.768277,10.599562,15.415052,-0.42396986,-12.905323,-15.06728
1.394,10.510143,10.785822,15.849808,-0.7011033,-13.106257,-15.20488
1.396,11.267048,10.983191,16.27293,-0.9813932,-13.303912,-15.333012
1.398,12.039811,11.18943,16.684155,-1.264201,-13.497056,-15.450823
1.4,12.828327,11.402241,17.083284,-1.5487738,-13.684423,-15.557478
1.402,13.632707,11.619234,17.47048,-1.834182,-13.864726,-15.652124
1.404,14.452834,11.837828,17.845974,-2.119355,-14.036801,-15.733964
1.406,15.28806,12.055683,18.210264,-2.4031205,-14.199633,-15.802302
1.408,16.137413,12.270391,18.56403,-2.6841881,-14.35231,-15.85655
1.41,17.000227,12.479426,18.907698,-2.9612117,-14.494108,-15.896299
1.412,17.875637,12.680235,19.242971,-3.2328525,-14.624516,-15.921249
1.414,18.762075,12.8702755,19.571428,-3.4977927,-14.743187,-15.931231
1.416,19.657938,13.047244,19.894306,-3.7547982,-14.849931,-15.926221
1.418,20.562206,13.20851,20.213358,-4.0027285,-14.944715,-15.906283
1.42,21.47299,13.352041,20.530344,-4.2405376,-15.027545,-15.871543
1.422,22.388762,13.475916,20.846882,-4.4672914,-15.098515,-15.82213
1.424,23.308128,13.577953,21.164845,-4.6821184,-15.157751,-15.758249
1.426,24.230066,13.656081,21.48587,-4.8841867,-15.205305,-15.680008
1.428,25.15337,13.708551,21.81127,-5.072723,-15.241124,-15.5873995
1.43,26.077036,13.73391,22.142248,-5.246973,-15.265022,-15.480333
1.432,27.000462,13.730572,22.47994,-5.406218,-15.276801,-15.358663
1.434,27.922894,13.69738,22.82513,-5.5498295,-15.276242,-15.222188
1.436,28.844383,13.6332855,23.178139,-5.677281,-15.263189,-15.070734
1.438,29.76488,13.537144,23.539356,-5.7881765,-15.2376,-14.904195
1.44,30.684872,13.408262,23.908905,-5.8822637,-15.19969,-14.72263
1.442,31.604727,13.246565,24.2866,-5.959467,-15.150044,-14.526301
1.444,32.525513,13.051721,24.67202,-6.019904,-15.089568,-14.315649
1.446,33.448463,12.823387,25.064804,-6.0637913,-15.019343,-14.091309
1.448,34.374886,12.56193,25.46407,-6.091502,-14.940848,-13.854048
1.45,35.305943,12.268217,25.869144,-6.1034846,-14.855762,-13.604698
1.452,36.24332,11.943192,26.279575,-6.100188,-14.765853,-13.344144
1.454,37.188183,11.588081,26.694347,-6.0820503,-14.67293,-13.073298
1.456,38.14241,11.204347,27.112474,-6.049467,-14.578799,-12.792969
1.458,39.107147,10.7939625,27.532936,-6.002778,-14.485131,-12.503878
1.46,40.08437,10.358961,27.95617,-5.942239,-14.393443,-12.206606
1.462,41.07489,9.901954,28.38166,-5.8680563,-14.305094,-11.901607
1.464,42.079445,9.426198,28.808313,-5.780324,-14.221209,-11.589165
1.466,43.09887,8.934753,29.235703,-5.6791134,-14.142688,-11.269475
1.468,44.133823,8.431014,29.66378,-5.5644493,-14.070225,-10.942586
1.47,45.18332,7.9193153,30.092188,-5.4363656,-14.004381,-10.608472
1.472,46.24677,7.403999,30.520655,-5.2948313,-13.945524,-10.267042
1.474,47.323494,6.889462,30.949156,-5.139866,-13.893893,-9.91819
1.476,48.412342,6.380959,31.377285,-4.9714656,-13.849618,-9.561722
1.478,49.5119,5.8839407,31.805,-4.7896547,-13.812726,-9.197391
1.48,50.620945,5.404653,32.23268,-4.59443,-13.783135,-8.824951
1.482,51.738026,4.94969,32.661232,-4.385765,-13.760686,-8.44419
1.484,52.862106,4.5253096,33.09164,-4.1635914,-13.745108,-8.054877
1.486,53.992035,4.1379633,33.524696,-3.9277663,-13.735942,-7.6567197
1.488,55.126804,3.7950635,33.96153,-3.678039,-13.732501,-7.2494173
1.49,56.26581,3.5047705,34.403664,-3.414008,-13.733856,-6.8326592
1.492,57.40886,3.2758715,34.853374,-3.1350918,-13.73879,-6.4061203
1.494,58.55537,3.1181815,35.31285,-2.84061,-13.745701,-5.9693675
1.496,59.705795,3.0403805,35.784466,-2.5297024,-13.752633,-5.521863
1.498,60.86023,3.0519285,36.271507,-2.2014582,-13.757522,-5.063012
1.5,62.017635,3.164587,36.777603,-1.855027,-13.758293,-4.5922246
1.502,63.178852,3.3900127,37.30624,-1.4896114,-13.752789,-4.1088715
1.504,64.34483,3.740542,37.861725,-1.1046197,-13.739109,-3.6122856
1.506,65.51472,4.2303658,38.448624,-0.69978535,-13.715727,-3.101728
1.508,66.688,4.875158,39.07273,-0.2752689,-13.681729,-2.5764782
1.51,67.85874,5.69804,39.733707,0.16826749,-13.636964,-2.035914
1.512,69.02995,6.709338,40.434475,0.6296189,-13.582053,-1.4795749
1.514,70.19634,7.9208603,41.185944,1.1069846,-13.518435,-0.9071114
1.516,71.36531,9.347681,42.001114,1.5980072,-13.44834,-0.31830692
1.518,72.53038,11.020655,42.874195,2.0998058,-13.37465,0.28689194
1.52,73.69466,12.966166,43.804443,2.609126,-13.300679,0.908473
1.522,74.854675,15.211288,44.79552,3.1224356,-13.2299385,1.5463474
1.524,76.010895,17.780922,45.84941,3.636092,-13.165924,2.2003703
1.526,77.15826,20.691244,46.95914,4.146535,-13.11184,2.8704555
1.528,78.278145,23.950577,48.13106,4.6505814,-13.070223,3.5566328
1.53,79.36482,27.567505,49.384804,5.1456995,-13.042458,4.258954
1.532,80.42334,31.55011,50.733757,5.6300716,-13.028566,4.9778013
1.534,81.39775,35.94192,52.160896,6.1025486,-13.02728,5.71394
1.536,82.26215,40.74083,53.705475,6.5628905,-13.035722,6.468544
1.538,83.03744,45.923115,55.4144,7.01194,-13.0491495,7.2432184
1.54,83.66415,51.4933,57.322525,7.451822,-13.060612,8.0398035
1.542,84.205666,57.407112,59.478558,7.88474,-13.062344,8.860792
1.544,84.82694,63.644188,61.835304,8.312171,-13.045704,9.709752
1.546,85.542816,70.17709,64.41737,8.736708,-12.998232,10.592025
1.548,86.21953,76.99827,67.24786,9.162751,-12.904181,11.514028
1.55,86.877304,84.09111,70.380035,9.594126,-12.747308,12.48203
1.552,87.54786,91.45063,73.73308,10.032833,-12.511211,13.502561
1.554,88.245,98.98449,77.39554,10.480149,-12.176926,14.582588
1.556,88.976875,106.549545,81.414696,10.936371,-11.723203,15.729747
1.558,89.77833,114.062,85.84656,11.399048,-11.128586,16.951006
1.56,90.692635,121.43558,90.672226,11.863407,-10.36923,18.25441
1.562,91.76401,128.55913,95.76465,12.323116,-9.418537,19.6503
1.564,93.064766,135.3908,101.11711,12.771894,-8.246048,21.144667
1.566,94.65452,141.97568,106.83345,13.20092,-6.8183947,22.743118
1.568,96.5211,148.10939,112.9904,13.594206,-5.117442,24.443102
1.57,98.83069,153.45967,119.475784,13.937194,-3.1290166,26.230408
1.572,101.585754,158.03206,126.18536,14.220044,-0.833904,28.08311
1.574,104.77675,161.80403,133.03172,14.429254,1.7776167,29.980291
1.576,108.38092,164.72693,139.9383,14.555,4.7028637,31.900415
1.578,112.58028,166.6495,146.80515,14.597707,7.933612,33.804115
1.58,117.37746,167.5403,153.52583,14.568756,11.45105,35.639202
1.582,122.76014,167.41647,159.95557,14.4958315,15.215856,37.352585
1.584,128.71,166.29076,165.946,14.411227,19.178238,38.879982
1.586,135.19614,164.1923,171.33127,14.353253,23.279037,40.147194
1.588,142.16035,161.17282,175.94505,14.372119,27.44625,41.08097
1.59,149.52594,157.31163,179.61612,14.518862,31.598295,41.61977
1.592,157.20175,152.69344,182.19098,14.842087,35.638763,41.737408
1.594,165.08443,147.4124,183.522,15.398008,39.468143,41.400623
1.596,173.03964,141.57878,183.48946,16.254917,43.025375,40.555405
1.598,180.91365,135.31392,182.00757,17.447054,46.261505,39.179214
1.6,188.55295,128.7397,179.02332,18.950714,49.113632,37.298923
1.602,195.80035,121.98096,174.51624,20.72637,51.52797,34.961243
1.604,202.5,115.16343,168.50342,22.72719,53.47039,32.228477
1.606,208.50961,108.40495,161.04068,24.881344,54.903854,29.173569
1.608,213.70001,101.80781,152.2251,27.084599,55.775818,25.879631
1.61,217.96758,95.454544,142.18607,29.221985,56.04097,22.423626
1.612,221.22618,89.41237,131.08696,31.181725,55.660187,18.865149
1.614,223.40665,83.73653,119.12298,32.85401,54.599525,15.245275
1.616,224.46576,78.470055,106.51376,34.13833,52.84157,11.591236
1.618,224.39001,73.64691,93.48823,34.950417,50.391075,7.9283676
1.62,223.19641,69.28553,80.28805,35.231037,47.280785,4.283148
1.622,220.90826,65.41559,67.15637,34.949303,43.573475,0.690142
1.624,217.59778,62.04589,54.322876,34.105396,39.372803,-2.7842598
1.626,213.34161,59.169006,42.003136,32.719444,34.77045,-6.0747976
1.628,208.23975,56.773727,30.405916,30.845615,29.88114,-9.110852
1.63,202.40752,54.85054,19.702477,28.55802,24.826813,-11.821732
1.632,195.9754,53.390717,10.028282,25.94258,19.72199,-14.136644
1.634,189.07715,52.385952,1.4895477,23.093033,14.673474,-16.010296
1.636,181.85483,51.828552,-5.829895,20.100992,9.779804,-17.43916
1.638,174.44687,51.70965,-11.888664,17.058123,5.115774,-18.449553
1.64,166.9697,52.007195,-16.681915,14.042804,0.734334,-19.096008
1.642,159.52252,52.688595,-20.21888,11.108477,-3.3282323,-19.458426
1.644,152.24149,53.686714,-22.505676,8.289558,-7.0535407,-19.630669
1.646,145.20169,54.979694,-23.623142,5.5992002,-10.433144,-19.71303
1.648,138.42517,56.547707,-23.661892,3.0236523,-13.47833,-19.760765
1.65,131.99677,58.329613,-22.704098,0.5323043,-16.237425,-19.79252
1.652,125.870926,60.299637,-20.850616,-1.8818257,-18.747736,-19.84177
1.654,119.94736,62.39236,-18.131645,-4.206876,-21.02116,-19.947601
1.656,114.29643,64.54402,-14.674017,-6.455556,-23.07224,-20.118372
1.658,109.07822,66.67348,-10.604881,-8.646388,-24.915413,-20.3443
1.66,104.252426,68.71763,-6.074478,-10.774566,-26.543045,-20.608223
1.662,99.77564,70.611786,-1.1186581,-12.810075,-27.92694,-20.893843
1.664,95.62157,72.37523,4.052719,-14.716818,-29.040174,-21.178886
1.666,91.76877,74.04524,9.299185,-16.454632,-29.847841,-21.434645
1.668,88.17093,75.58238,14.485802,-17.973722,-30.307003,-21.631788
1.67,84.78513,76.955765,19.548841,-19.222973,-30.37613,-21.741623
1.672,81.5786,78.16209,24.489214,-20.158016,-30.01978,-21.736017
1.674,78.50626,79.14547,29.161137,-20.747305,-29.21359,-21.588284
1.676,75.550354,79.81693,33.34835,-20.9741,-27.94289,-21.271872
1.678,72.75484,80.34031,36.91827,-20.84515,-26.230356,-20.780174
1.68,70.00243,80.92025,39.92267,-20.3784,-24.096277,-20.103558
1.682,67.35579,81.40982,42.366028,-19.611223,-21.592707,-19.252663
1.684,64.856575,81.75529,44.218876,-18.59466,-18.792616,-18.253387
1.686,62.52865,81.964005,45.442097,-17.389372,-15.786146,-17.144657
1.688,60.213486,82.13967,46.027115,-16.061007,-12.674376,-15.973967
1.69,57.95546,82.261604,45.97966,-14.675235,-9.561757,-14.79337
1.692,55.782913,82.29491,45.34767,-13.29404,-6.5494733,-13.654799
1.694,53.70347,82.24028,44.18308,-11.972298,-3.7288384,-12.605354
1.696,51.714542,82.102516,42.55608,-10.754483,-1.176194,-11.68311
1.698,49.817787,81.88321,40.53972,-9.673014,1.0500836,-10.913902
1.7,48.009026,81.57669,38.21772,-8.748884,2.910451,-10.310654
1.702,46.277176,81.18886,35.666862,-7.993036,4.3862476,-9.873303
1.704,44.6062,80.726685,32.972824,-7.4079456,5.47811,-9.590395
1.706,42.995422,80.1888,30.211237,-6.989127,6.200328,-9.442467
1.708,41.445305,79.570496,27.448818,-6.7266603,6.5782466,-9.406086
1.71,39.94487,78.87099,24.748924,-6.6071634,6.645907,-9.456049
1.712,38.483936,78.088455,22.172628,-6.6163087,6.4425745,-9.565435
1.714,37.05389,77.22077,19.77387,-6.7401085,6.0113072,-9.70716
1.716,35.64183,76.2731,17.597496,-6.965333,5.3969564,-9.855619
1.718,34.239067,75.25807,15.675799,-7.279668,4.6436167,-9.98714
1.72,32.835777,74.19423,14.034979,-7.6711407,3.793141,-10.0816145
1.722,31.429054,73.10155,12.690097,-8.127733,2.8834388,-10.124599
1.724,30.026558,71.99605,11.642405,-8.636845,1.9482925,-10.107666
1.726,28.63711,70.89153,10.884396,-9.18461,1.0174975,-10.027317
1.728,27.266638,69.79805,10.406641,-9.756115,0.11593914,-9.883911
1.73,25.922123,68.72655,10.192765,-10.336002,-0.7369847,-9.680464
1.732,24.617971,67.68239,10.215977,-10.90893,-1.5267792,-9.421609
1.734,23.351435,66.67981,10.447315,-11.459986,-2.243269,-9.112929
1.736,22.126966,65.7344,10.85791,-11.975594,-2.880464,-8.760335
1.738,20.955296,64.84639,11.421237,-12.444229,-3.4358325,-8.369635
1.74,19.83404,64.01992,12.111155,-12.856926,-3.9094625,-7.9462824
1.742,18.763369,63.256157,12.900681,-13.207405,-4.303352,-7.4953737
1.744,17.742485,62.555534,13.76215,-13.492146,-4.620769,-7.0218906
1.746,16.768843,61.920372,14.665773,-13.709899,-4.8652883,-6.5308847
1.748,15.848173,61.350716,15.581131,-13.861717,-5.0406165,-6.0277495
1.75,14.983103,60.84716,16.480602,-13.950494,-5.1500163,-5.518083
1.752,14.173605,60.409676,17.339592,-13.980366,-5.1960244,-5.0077066
1.754,13.420176,60.03568,18.136192,-13.956289,-5.180551,-4.5025473
1.756,12.723368,59.71886,18.853258,-13.883636,-5.104965,-4.0085683
1.758,12.081173,59.45268,19.478718,-13.767887,-4.970391,-3.5313783
1.76,11.489954,59.23156,20.004269,-13.614458,-4.7779865,-3.075995
1.762,10.94688,59.04975,20.425095,-13.428527,-4.5291257,-2.646512
1.764,10.448006,58.902412,20.739588,-13.214979,-4.2256517,-2.2459679
1.766,9.989281,58.785194,20.947845,-12.978394,-3.869957,-1.8762143
1.768,9.566721,58.69365,21.051233,-12.722955,-3.4650474,-1.5379906
1.77,9.177361,58.622444,21.050669,-12.4523945,-3.0144386,-1.2309923
1.772,8.816191,58.567192,20.947626,-12.170035,-2.5220766,-0.9541662
1.774,8.4813,58.521984,20.74368,-11.878687,-1.9922926,-0.70592856
1.776,8.169487,58.483875,20.442812,-11.580761,-1.4297681,-0.48445988
1.778,7.8770676,58.444084,20.046898,-11.27828,-0.8396151,-0.2879591
1.78,7.602247,58.399906,19.561523,-10.973036,-0.22705984,-0.11488557
1.782,7.3432045,58.347786,18.991062,-10.666676,0.40282965,0.035966396
1.784,7.0986423,58.285416,18.339947,-10.360853,1.0450563,0.16549683
1.786,6.8682632,58.21132,17.612995,-10.057315,1.6945288,0.27434897
1.788,6.652796,58.124344,16.814932,-9.757912,2.3460038,0.36295676
1.79,6.4530163,58.023766,15.950286,-9.464542,2.9941857,0.4315809
1.792,6.270237,57.908543,15.024058,-9.17912,3.6337366,0.48036802
1.794,6.106186,57.77695,14.041201,-8.903448,4.259298,0.5093564
1.796,5.9621964,57.62732,13.006584,-8.639123,4.865469,0.5185373
1.798,5.83955,57.45729,11.924888,-8.387457,5.4468617,0.5079488
1.8,5.7394466,57.26387,10.800537,-8.149359,5.998209,0.477732
1.802,5.662792,57.04399,9.63715,-7.925305,6.51444,0.4281951
1.804,5.611269,56.79431,8.438692,-7.7154083,6.990769,0.35978863
1.806,5.585787,56.51177,7.2110195,-7.5193996,7.4228473,0.27309746
1.808,5.586294,56.193146,5.9599533,-7.3367414,7.8068686,0.16888973
1.81,5.6129923,55.834946,4.6905346,-7.1667323,8.13958,0.04809463
1.812,5.6658945,55.434048,3.4071178,-7.0086055,8.418365,-0.088296056
1.814,5.7445364,54.9878,2.1141987,-6.8615804,8.641266,-0.23922107
1.816,5.848218,54.493805,0.8160229,-6.7249537,8.806917,-0.40357885
1.818,5.9763746,53.949837,-0.48307037,-6.598146,8.914574,-0.5802114
1.82,6.1281605,53.353542,-1.7792854,-6.4807115,8.96404,-0.7679386
1.822,6.302252,52.70301,-3.0687904,-6.3723454,8.955693,-0.96546817
1.824,6.496969,51.996315,-4.347868,-6.272845,8.890462,-1.1713638
1.826,6.710577,51.231953,-5.6126804,-6.182073,8.769825,-1.3840363
1.828,6.940729,50.40897,-6.8595047,-6.099937,8.59578,-1.6017098
1.83,7.184781,49.52695,-8.084635,-6.02632,8.370863,-1.8224423
1.832,7.43988,48.586067,-9.28465,-5.961108,8.098154,-2.0441723
1.834,7.7035365,47.586926,-10.456472,-5.9041348,7.7811894,-2.264789
1.836,7.9728765,46.53085,-11.597137,-5.855209,7.423925,-2.4822037
1.838,8.245011,45.419815,-12.703735,-5.814111,7.0306954,-2.694458
1.84,8.517573,44.256065,-13.773634,-5.7805815,6.606104,-2.899786
1.842,8.788115,43.042603,-14.804279,-5.754359,6.1549516,-3.0967155
1.844,9.053889,41.782837,-15.793251,-5.735146,5.682121,-3.284081
1.846,9.312535,40.48062,-16.73843,-5.7226114,5.1925526,-3.4609914
1.848,9.561526,39.140087,-17.637836,-5.7163715,4.691204,-3.6267505
1.85,9.798545,37.765793,-18.489359,-5.7159386,4.182986,-3.7808132
1.852,10.021452,36.362553,-19.291618,-5.72079,3.6725888,-3.9228134
1.854,10.227994,34.935432,-20.04328,-5.730352,3.1643436,-4.0525103
1.856,10.416401,33.489708,-20.74334,-5.7440386,2.662201,-4.169779
1.858,10.584822,32.03086,-21.390823,-5.7612224,2.1696653,-4.274557
1.86,10.731207,30.56456,-21.984833,-5.7812524,1.6896837,-4.3668365
1.862,10.853989,29.096575,-22.524889,-5.803487,1.2246397,-4.446668
1.864,10.951428,27.632574,-23.01071,-5.827301,0.7763914,-4.5141296
1.866,11.022305,26.178314,-23.442444,-5.8520603,0.34632313,-4.5693026
1.868,11.065186,24.739609,-23.820202,-5.8771224,-0.06461048,-4.6122885
1.87,11.079497,23.321903,-24.14444,-5.901868,-0.45581108,-4.6431937
1.872,11.064137,21.930428,-24.41544,-5.9256577,-0.8269551,-4.662145
1.874,11.018592,20.57019,-24.633553,-5.9478607,-1.1779271,-4.6692877
1.876,10.942492,19.245995,-24.799242,-5.967851,-1.5087664,-4.664815
1.878,10.8359375,17.962267,-24.913332,-5.9849777,-1.8196712,-4.649028
1.88,10.699175,16.72333,-24.976513,-5.9986053,-2.1108866,-4.6222997
1.882,10.532656,15.532849,-24.98956,-6.0080776,-2.3827147,-4.585107
1.884,10.337196,14.3940935,-24.953568,-6.012719,-2.6354687,-4.5380416
1.886,10.113569,13.30824,-24.870892,-6.0118213,-2.869501,-4.481841
1.888,9.86443,12.28102,-24.740536,-6.0046577,-3.0850823,-4.4173093
1.89,9.590784,11.311827,-24.565296,-5.9904366,-3.2824068,-4.3453007
1.892,9.294396,10.401704,-24.346472,-5.968283,-3.4615684,-4.2665887
1.894,8.977642,9.551083,-24.085646,-5.9372654,-3.6225626,-4.1818037
1.896,8.642656,8.759756,-23.784874,-5.896405,-3.7652636,-4.091399
1.898,8.291971,8.027065,-23.4463,-5.844693,-3.8894544,-3.9956598
1.9,7.9285564,7.351925,-23.072243,-5.781122,-3.9948897,-3.894691
1.902,7.5557055,6.73244,-22.665096,-5.704793,-4.081422,-3.788491
1.904,7.176383,6.166611,-22.227299,-5.614926,-4.1490316,-3.6770425
1.906,6.793629,5.6519146,-21.76142,-5.5108953,-4.1979604,-3.5602517
1.908,6.4104753,5.185345,-21.26997,-5.392276,-4.228753,-3.4380648
1.91,6.0298753,4.763936,-20.755817,-5.2588496,-4.2423263,-3.3105085
1.912,5.655227,4.384266,-20.221632,-5.1106377,-4.2399817,-3.1777124
1.914,5.288995,4.043093,-19.67032,-4.9478865,-4.223339,-3.039948
1.916,4.9338818,3.736887,-19.10476,-4.771022,-4.194232,-2.8975897
1.918,4.5923142,3.462211,-18.527672,-4.5806127,-4.1546006,-2.7510958
1.92,4.2662535,3.2157433,-17.941694,-4.3773623,-4.106392,-2.6009839
1.922,3.9574866,2.9940574,-17.34911,-4.1620703,-4.051417,-2.4477851
1.924,3.667519,2.794049,-16.752327,-3.9355614,-3.9912825,-2.2920067
1.926,3.3974924,2.6127107,-16.153452,-3.6987047,-3.9273465,-2.1341457
1.928,3.1480541,2.4474545,-15.55447,-3.452378,-3.8606734,-1.9746544
1.93,2.9194608,2.296011,-14.957334,-3.1974924,-3.7920287,-1.8139873
1.932,2.711577,2.1562188,-14.363898,-2.9349818,-3.7218757,-1.6525646
1.934,2.524097,2.0263574,-13.775543,-2.665769,-3.6504385,-1.4908456
1.936,2.356402,1.9048487,-13.193611,-2.39082,-3.5777476,-1.3293314
1.938,2.2074656,1.790354,-12.619133,-2.1111124,-3.5036974,-1.1685301
1.94,2.0764055,1.68191,-12.05283,-1.8275967,-3.4280462,-1.008975
1.942,1.9618068,1.5787325,-11.495224,-1.5412277,-3.350501,-0.85125244
1.944,1.8620982,1.4803377,-10.946625,-1.2529424,-3.2707443,-0.6959638
1.946,1.7757685,1.3863536,-10.407231,-0.9636483,-3.1884842,-0.54373586
1.948,1.7013855,1.2966479,-9.877089,-0.6741924,-3.1034606,-0.39517525
1.95,1.6370494,1.2112685,-9.35603,-0.3853347,-3.0154536,-0.25086248
1.952,1.5812147,1.130333,-8.844057,-0.09778354,-2.9243033,-0.111295655
1.954,1.5326014,1.05393,-8.340971,0.18784258,-2.8298752,0.023089632
1.956,1.4899509,0.9822493,-7.846447,0.47099555,-2.7320366,0.15197355
1.958,1.4521201,0.9155376,-7.360108,0.7511598,-2.6306906,0.27518696
1.96,1.4181745,0.8538771,-6.881771,1.0278356,-2.5257185,0.39261484
1.962,1.3874228,0.79738486,-6.410962,1.3005446,-2.4170337,0.50427103
1.964,1.3592379,0.74594605,-5.947286,1.5687988,-2.3045866,0.6102603
1.966,1.3330183,0.6996052,-5.4902916,1.832119,-2.1883616,0.7107762
1.968,1.3084996,0.6582621,-5.0397882,2.0900261,-2.06841,0.8061047
1.97,1.2857003,0.62172943,-4.5957294,2.3420467,-1.944877,0.8965972
1.972,1.2644418,0.58993316,-4.157943,2.5877225,-1.8179553,0.98268056
1.974,1.2448626,0.5627104,-3.7265706,2.8266268,-1.6878917,1.0648289
1.976,1.2272248,0.5398306,-3.3016188,3.0583794,-1.5549841,1.1435986
1.978,1.2118244,0.5210246,-2.883205,3.2826715,-1.4195923,1.2195837
1.98,1.1987438,0.50611454,-2.4712968,3.4992712,-1.2821397,1.2934133
1.982,1.1883626,0.49493837,-2.0660691,3.7080288,-1.1430818,1.3657429
1.984,1.1808779,0.4872968,-1.6676853,3.9088883,-1.0029303,1.4372044
1.986,1.1764892,0.48311418,-1.2763617,4.101885,-0.8622567,1.5083611
1.988,1.1754568,0.48239875,-0.89242184,4.2871404,-0.7216955,1.5797229
1.99,1.1780031,0.48497695,-0.51611245,4.464857,-0.5819205,1.6516961
1.992,1.184205,0.4909319,-0.1477243,4.635282,-0.44365686,1.7245548
1.994,1.1943108,0.50028706,0.21243975,4.798705,-0.30763137,1.7984658
1.996,1.208312,0.513039,0.5641787,4.955441,-0.17453814,1.8735032
1.998,1.2263314,0.52939874,0.90713847,5.105791,-0.045037717,1.949685
2,1.2482302,0.5496206,1.2412124,5.2500324,0.08029248,2.0270095
2.002,1.2740949,0.5738736,1.566031,5.388419,0.20098561,2.1054692
2.004,1.3036505,0.6023606,1.8813041,5.521146,0.31664923,2.1850605
2.006,1.3371704,0.63536185,2.186794,5.6483846,0.4269801,2.2657986
2.008,1.3742976,0.6732393,2.4823217,5.770249,0.53173685,2.3477077
2.01,1.4149497,0.7162179,2.7676337,5.8868227,0.6307298,2.4308205
2.012,1.4589272,0.76473975,3.042443,5.9981794,0.7238132,2.515171
2.014,1.5062175,0.819072,3.306624,6.104336,0.8108551,2.600779
2.016,1.5568061,0.8796164,3.5600548,6.20528,0.89171827,2.6876237
2.018,1.6105173,0.9469372,3.8026793,6.300976,0.96623945,2.7756495
2.02,1.6673797,1.021193,4.034614,6.391356,1.0342381,2.864734
2.022,1.7273302,1.1029875,4.2559094,6.4763355,1.0955265,2.9546866
2.024,1.7904377,1.192785,4.4668407,6.5558233,1.1499255,3.045276
2.026,1.8565811,1.2909372,4.667805,6.629732,1.1972551,3.1362062
2.028,1.9257479,1.3978906,4.858933,6.697994,1.2373548,3.2271843
2.03,1.9979683,1.5141859,5.040669,6.7605505,1.2701262,3.3179064
2.032,2.0730867,1.640275,5.2134085,6.817382,1.295535,3.408115
2.034,2.1511223,1.7767831,5.377501,6.8684998,1.3136065,3.4976215
2.036,2.2319536,1.9243664,5.533671,6.9139576,1.3244267,3.5862784
2.038,2.3155055,2.083572,5.682292,6.9538484,1.3281485,3.6740186
2.04,2.4015965,2.254841,5.824146,6.988285,1.3249826,3.7608564
2.042,2.4899383,2.4389145,5.959763,7.0174026,1.3151666,3.84681
2.044,2.5803242,2.6362252,6.0898013,7.041355,1.298938,3.9319172
2.046,2.6726205,2.8473315,6.2148585,7.060294,1.2765394,4.0162187
2.048,2.7666688,3.0727339,6.3356795,7.074351,1.2481892,4.099718
2.05,2.8619742,3.312934,6.4527607,7.0836754,1.2140884,4.1823807
2.052,2.958386,3.5683348,6.5666533,7.0884,1.1744324,4.2641335
2.054,3.0555909,3.8393111,6.6779666,7.088668,1.1294109,4.3448544
2.056,3.1532924,4.1260996,6.7871475,7.084605,1.0791761,4.4243994
2.058,3.2509918,4.4288325,6.894803,7.0763597,1.0238881,4.502589
2.06,3.3485222,4.747601,7.001281,7.0640874,0.9637227,4.5792446
2.062,3.445489,5.082384,7.1071258,7.047949,0.89883995,4.6541705
2.064,3.541443,5.4330864,7.212865,7.0281386,0.8294008,4.7271585
2.066,3.6359837,5.799371,7.3188667,7.0048456,0.7555671,4.7980204
2.068,3.7288058,6.180894,7.4253497,6.978283,0.6775347,4.8665404
2.07,3.8194957,6.5772047,7.532849,6.9486647,0.595513,4.9325466
2.072,3.9076371,6.9877024,7.6415243,6.916192,0.509748,4.9958773
2.074,3.992837,7.4117103,7.751618,6.8810616,0.42052233,5.056425
2.076,4.0748425,7.848196,7.863359,6.843442,0.32815075,5.1140795
2.078,4.153117,8.296373,7.9770083,6.8035107,0.23298812,5.1687837
2.08,4.227286,8.75524,8.092849,6.761391,0.13541603,5.220494
2.082,4.297186,9.22355,8.211041,6.717195,0.03586197,5.2692285
2.084,4.3623295,9.700245,8.331798,6.6710143,-0.065289974,5.3150134
2.086,4.4225464,10.18404,8.455452,6.6229033,-0.16766644,5.357881
2.088,4.4777017,10.673761,8.582184,6.5729,-0.27095485,5.3978724
2.09,4.527795,11.168008,8.712132,6.521016,-0.37494254,5.435011
2.092,4.5726824,11.665577,8.845699,6.467224,-0.47951746,5.469286
2.094,4.6124144,12.165134,8.983082,6.41146,-0.5846822,5.500643
2.096,4.6472745,12.66524,9.124569,6.3536286,-0.6905391,5.529032
2.098,4.677375,13.164434,9.270675,6.2936106,-0.79728436,5.5543776
2.1,4.703084,13.661491,9.421736,6.23125,-0.9051666,5.576594
2.102,4.724985,14.154938,9.578157,6.166403,-1.0144825,5.5956397
2.104,4.7433486,14.643528,9.74047,6.0988855,-1.1255305,5.611498
2.106,4.758893,15.125877,9.908926,6.0285587,-1.2385769,5.6241965
2.108,4.7720513,15.600819,10.084142,5.9553027,-1.3538215,5.633848
2.11,4.783559,16.067078,10.266377,5.8790393,-1.4713967,5.640582
2.112,4.7939844,16.523582,10.456052,5.7997866,-1.5913529,5.6445813
2.114,4.804036,16.969316,10.653594,5.717613,-1.7136645,5.6460013
2.116,4.8142557,17.403101,10.859243,5.6327,-1.8382258,5.6449842
2.118,4.8254013,17.824108,11.0731735,5.5453053,-1.964854,5.641631
2.12,4.837968,18.231419,11.295614,5.455739,-2.0933437,5.6359596
2.122,4.8523316,18.62422,11.52674,5.3643875,-2.223459,5.627954
2.124,4.8688793,19.001877,11.766552,5.271674,-2.3549473,5.6175194
2.126,4.8878384,19.363768,12.014992,5.1780415,-2.4875293,5.6044884
2.128,4.909384,19.709177,12.272009,5.0839195,-2.6209054,5.588649
2.13,4.9335465,20.037888,12.537479,4.9897447,-2.754742,5.569816
2.132,4.9600763,20.349224,12.811142,4.8959002,-2.8886797,5.5477786
2.134,4.988777,20.642986,13.092639,4.8027716,-3.0223167,5.5223665
2.136,5.019328,20.918936,13.381519,4.710678,-3.1552017,5.4934187
2.138,5.051324,21.176842,13.677304,4.6199255,-3.2868066,5.460809
2.14,5.084133,21.41642,13.979428,4.5307894,-3.416572,5.4244456
2.142,5.1170607,21.637707,14.287155,4.4435043,-3.5438972,5.3842516
2.144,5.149276,21.840605,14.599755,4.3582687,-3.6681485,5.340166
2.146,5.180093,22.024992,14.916279,4.275264,-3.78868,5.2921515
2.148,5.2087593,22.190866,15.235788,4.194636,-3.9048595,5.2401867
2.15,5.234456,22.338285,15.55718,4.116486,-4.0160875,5.1842365
2.152,5.256459,22.46736,15.879492,4.0409055,-4.121824,5.124329
2.154,5.2739277,22.578184,16.201433,3.9679484,-4.2215805,5.060479
2.156,5.2861624,22.670954,16.521738,3.8976216,-4.314951,4.992746
2.158,5.292631,22.745876,16.83907,3.8299294,-4.4016,4.9212294
2.16,5.2928104,22.803335,17.152187,3.7648425,-4.4812765,4.846073
2.162,5.286537,22.843697,17.459742,3.702313,-4.5537977,4.767454
2.164,5.2733364,22.867388,17.760387,3.642296,-4.619029,4.6856303
2.166,5.253189,22.875038,18.053013,3.5847182,-4.6768847,4.600921
2.168,5.22618,22.867315,18.336117,3.529533,-4.7273088,4.5137057
2.17,5.1924343,22.844858,18.608747,3.4766846,-4.7702694,4.4244156
2.172,5.152172,22.808558,18.869572,3.426128,-4.8057714,4.3335323
2.174,5.1059113,22.759235,19.117386,3.3778484,-4.8337994,4.2415733
2.176,5.05408,22.697903,19.351213,3.33183,-4.8543816,4.1490574
2.178,4.997406,22.62548,19.57014,3.2880268,-4.867556,4.0565095
2.18,4.936448,22.5431,19.773232,3.246415,-4.8733997,3.9644518
2.182,4.8719788,22.451912,19.959698,3.2069237,-4.872029,3.8733544
2.184,4.8048935,22.353157,20.128883,3.1694784,-4.863598,3.783624
2.186,4.735915,22.248217,20.280163,3.1339588,-4.848282,3.6956277
2.188,4.665962,22.138224,20.413017,3.100203,-4.8263144,3.609665
2.19,4.5958576,22.024391,20.52702,3.0680306,-4.7979527,3.5259795
2.192,4.5263233,21.90804,20.621883,3.0372272,-4.763485,3.4447649
2.194,4.4584436,21.790276,20.697495,3.0075488,-4.7231812,3.3661647
2.196,4.3929424,21.672253,20.753605,2.9787617,-4.677334,3.2902694
2.198,4.3305416,21.554995,20.790207,2.950622,-4.6262307,3.2171361
2.2,4.2721004,21.439426,20.807438,2.9228952,-4.570195,3.14675
2.202,4.2184296,21.326252,20.805517,2.895361,-4.5095415,3.079073
2.204,4.1702166,21.216272,20.784822,2.8678071,-4.444628,3.014048
2.206,4.128092,21.109974,20.745718,2.8400464,-4.375847,2.9515686
2.208,4.09266,21.008047,20.688595,2.8118987,-4.30368,2.8915348
2.21,4.06454,20.91063,20.614117,2.783182,-4.228681,2.8338072
2.212,4.0440845,20.818018,20.522884,2.7536871,-4.1515036,2.7782023
2.214,4.0319138,20.730318,20.41572,2.7232058,-4.072877,2.7245266
2.216,4.028262,20.647665,20.293667,2.691482,-3.9936373,2.6725373
2.218,4.033534,20.569931,20.157486,2.6582236,-3.914668,2.6219687
2.22,4.0480795,20.496973,20.008245,2.6231258,-3.8369117,2.5725377
2.222,4.0717688,20.428625,19.847038,2.585815,-3.7613475,2.5239286
2.224,4.104802,20.364563,19.674862,2.5459352,-3.6889498,2.4758525
2.226,4.1471076,20.304647,19.492939,2.5031395,-3.6206546,2.428015
2.228,4.198706,20.24843,19.30252,2.4570727,-3.5573637,2.3801236
2.23,4.2594547,20.195583,19.104816,2.4074564,-3.4999113,2.3319335
2.232,4.32909,20.145706,18.90106,2.354081,-3.4490466,2.283231
2.234,4.4073,20.098452,18.692497,2.296809,-3.4054203,2.2338197
2.236,4.493847,20.053383,18.480364,2.235604,-3.3695896,2.1835437
2.238,4.588361,20.010212,18.265757,2.1705022,-3.3419979,2.132258
2.24,4.6903963,19.968477,18.049839,2.1016493,-3.3230119,2.0798059
2.242,4.799573,19.927948,17.833866,2.0292692,-3.3128653,2.0260482
2.244,4.9153624,19.888155,17.618826,1.9536324,-3.3117113,1.9708554
2.246,5.0371275,19.848724,17.40599,1.8750796,-3.3196132,1.9140936
2.248,5.164303,19.809362,17.196363,1.7939715,-3.3365936,1.8556378
2.25,5.296494,19.769815,16.990875,1.7106616,-3.362609,1.7953992
2.252,5.4330273,19.729683,16.790531,1.6255105,-3.397565,1.7333274
2.254,5.573349,19.688679,16.596132,1.5388488,-3.4413235,1.6694034
2.256,5.7168465,19.64658,16.40838,1.4509865,-3.4937186,1.6036489
2.258,5.8628764,19.603127,16.228027,1.3621826,-3.5545278,1.5361086
2.26,6.0109644,19.557993,16.055683,1.2726719,-3.6235075,1.466861
2.262,6.1605053,19.510883,15.891735,1.1826668,-3.7003205,1.3959794
2.264,6.31114,19.461676,15.736602,1.0923759,-3.784555,1.3235699
2.266,6.462212,19.41011,15.590651,1.0020192,-3.875727,1.2497323
2.268,6.6132984,19.356073,15.454036,0.9117985,-3.9732785,1.174581
2.27,6.7641463,19.299376,15.326889,0.82197255,-4.0765543,1.0982497
2.272,6.9141846,19.239792,15.209117,0.73279095,-4.1848845,1.0208632
2.274,7.06339,19.177254,15.10073,0.64453006,-4.297538,0.9425737
2.276,7.2115374,19.111431,15.001473,0.5574795,-4.4137855,0.86354375
2.278,7.358447,19.042166,14.911283,0.47190386,-4.532956,0.7839479
2.28,7.5039454,18.96937,14.829729,0.388057,-4.6544456,0.70397234
2.282,7.6483483,18.892744,14.756716,0.30615428,-4.7777343,0.62378675
2.284,7.791518,18.812243,14.691947,0.22635853,-4.902395,0.54353434
2.286,7.933621,18.727926,14.635163,0.14877707,-5.028099,0.46333802
2.288,8.074717,18.63971,14.586035,0.07346338,-5.154611,0.38331527
2.29,8.2151575,18.547506,14.544255,0.0004325509,-5.2817206,0.30356658
2.292,8.355167,18.451254,14.509629,-0.07034886,-5.409241,0.22419983
2.294,8.494963,18.350992,14.481759,-0.13893014,-5.5369706,0.14530711
2.296,8.634952,18.246775,14.460386,-0.20536852,-5.664668,0.06697939
2.298,8.775595,18.138618,14.445191,-0.26971024,-5.7920365,-0.010660857
2.3,8.917194,18.026592,14.435873,-0.33199704,-5.9187107,-0.08748774
2.302,9.060323,17.910887,14.432347,-0.3922304,-6.044256,-0.16333616
2.304,9.205282,17.79156,14.434118,-0.45035577,-6.1681824,-0.23804194
2.306,9.352578,17.66889,14.44115,-0.5063153,-6.290003,-0.31143165
2.308,9.502653,17.543062,14.4531765,-0.55999416,-6.409217,-0.3833418
2.31,9.655849,17.414398,14.46991,-0.6112633,-6.5253677,-0.4536106
2.312,9.812672,17.283173,14.491085,-0.659968,-6.6380773,-0.52212507
2.314,9.973457,17.149689,14.516338,-0.7059672,-6.747025,-0.5888112
2.316,10.138501,17.014338,14.5456085,-0.7491174,-6.852015,-0.65363526
2.318,10.308119,16.8774,14.57851,-0.7893039,-6.952943,-0.7166345
2.32,10.482515,16.739275,14.614755,-0.82642686,-7.04979,-0.7778912
2.322,10.661901,16.600414,14.654079,-0.8604138,-7.142597,-0.83751285
2.324,10.846378,16.461115,14.696062,-0.89122957,-7.2314587,-0.89561784
2.326,11.036023,16.321869,14.740265,-0.9188375,-7.3164616,-0.95231396
2.328,11.230854,16.18311,14.786405,-0.9432461,-7.3976955,-1.0076914
2.33,11.430721,16.04535,14.833971,-0.96446776,-7.475215,-1.0617819
2.332,11.6358185,15.9090185,14.882547,-0.9825382,-7.549028,-1.1145868
2.334,11.845836,15.774498,14.931723,-0.99748945,-7.6190834,-1.16607
2.336,12.060594,15.642322,14.980848,-1.0093621,-7.6852965,-1.2161753
2.338,12.279699,15.512971,15.029448,-1.018209,-7.747519,-1.2648213
2.34,12.502781,15.386931,15.076907,-1.0240648,-7.805576,-1.3119333
2.342,12.729534,15.26474,15.122622,-1.026972,-7.8592553,-1.3574306
2.344,12.959463,15.146847,15.165922,-1.0269706,-7.9083695,-1.4012256
2.346,13.1919,15.033758,15.206303,-1.0240958,-7.9527054,-1.4432316
2.348,13.426383,14.925896,15.242998,-1.0183759,-7.992089,-1.4833286
2.35,13.662197,14.823743,15.275534,-1.009839,-8.026367,-1.5214097
2.352,13.898878,14.727634,15.303038,-0.9984939,-8.055429,-1.5573598
2.354,14.135731,14.637888,15.325038,-0.98435366,-8.079203,-1.5910845
2.356,14.372255,14.55484,15.34078,-0.9674469,-8.097673,-1.6225324
2.358,14.607782,14.478657,15.349905,-0.9478061,-8.110892,-1.6516881
2.36,14.841544,14.409454,15.351868,-0.925467,-8.118961,-1.6786021
2.362,15.073225,14.347364,15.346159,-0.9005114,-8.122065,-1.7033823
2.364,15.302041,14.292328,15.332495,-0.8730285,-8.120428,-1.7262197
2.366,15.527472,14.244308,15.310614,-0.8431455,-8.114357,-1.7473387
2.368,15.749117,14.203047,15.28028,-0.8110082,-8.10421,-1.766997
2.37,15.966389,14.168344,15.241451,-0.7768049,-8.090386,-1.7854819
2.372,16.179089,14.139877,15.194105,-0.740723,-8.07332,-1.8030665
2.374,16.38667,14.117208,15.138293,-0.7029892,-8.053461,-1.819987
2.376,16.588938,14.099888,15.07431,-0.6638361,-8.031283,-1.836474
2.378,16.785713,14.087452,15.002314,-0.6235233,-8.007256,-1.8526952
2.38,16.976715,14.0793915,14.922626,-0.5823057,-7.981861,-1.8687742
2.382,17.161985,14.075331,14.835699,-0.54043394,-7.955553,-1.8847821
2.384,17.341381,14.074681,14.741947,-0.49815875,-7.928798,-1.9007624
2.386,17.514894,14.0770035,14.6418495,-0.4557097,-7.902031,-1.9167268
2.388,17.682697,14.081877,14.535973,-0.41330713,-7.875683,-1.9326603
2.39,17.84494,14.088837,14.424823,-0.37112898,-7.8501596,-1.9485314
2.392,18.001774,14.097515,14.308893,-0.32933652,-7.8258386,-1.9643183
2.394,18.153564,14.107502,14.188807,-0.2880646,-7.8030696,-1.9800034
2.396,18.300667,14.118275,14.065163,-0.24740434,-7.78215,-1.9955659
2.398,18.443453,14.129727,13.938519,-0.20743716,-7.7633305,-2.0109992
2.4,18.58227,14.1416,13.80945,-0.1682077,-7.7468286,-2.0262723
2.402,18.71763,14.153644,13.678667,-0.12974846,-7.7327967,-2.0413766
2.404,18.85009,14.165761,13.546864,-0.09206125,-7.72135,-2.0562654
2.406,18.980005,14.177835,13.414593,-0.05514458,-7.712548,-2.0708995
2.408,19.107895,14.18994,13.282656,-0.018990606,-7.7064204,-2.0852146
2.41,19.234224,14.202076,13.151668,0.01644367,-7.702937,-2.0991385
2.412,19.359291,14.214218,13.022165,0.051194876,-7.7020555,-2.1125927
2.414,19.483566,14.226521,12.894924,0.08530262,-7.7037168,-2.1254864
2.416,19.60741,14.239031,12.770369,0.118818104,-7.707828,-2.137721
2.418,19.731304,14.251885,12.649163,0.15178752,-7.7142925,-2.1492233
2.42,19.855532,14.265275,12.531851,0.18428835,-7.7230015,-2.1599216
2.422,19.980158,14.279455,12.418828,0.21638326,-7.733852,-2.169769
2.424,20.105453,14.294547,12.310562,0.24815995,-7.746735,-2.1787271
2.426,20.23145,14.310837,12.20725,0.2797179,-7.7614994,-2.186779
2.428,20.358288,14.328468,12.109182,0.31117475,-7.77796,-2.1939318
2.43,20.485819,14.347752,12.016436,0.3426631,-7.7959085,-2.2001977
2.432,20.613924,14.368828,11.929156,0.37432325,-7.8150797,-2.20561
2.434,20.742336,14.39192,11.847315,0.40629685,-7.8351655,-2.2102282
2.436,20.870943,14.417138,11.770733,0.43872765,-7.855797,-2.2141218
2.438,20.999403,14.444624,11.699156,0.47174868,-7.8765764,-2.217367
2.44,21.12727,14.474552,11.632384,0.50548893,-7.8970847,-2.220046
2.442,21.254004,14.507097,11.570004,0.540082,-7.916872,-2.2222488
2.444,21.379156,14.542459,11.511484,0.5756546,-7.9354773,-2.2240436
2.446,21.502378,14.580645,11.456435,0.61233324,-7.952463,-2.2254813
2.448,21.62302,14.621691,11.404285,0.650251,-7.9674106,-2.2265875
2.45,21.740692,14.665694,11.35456,0.68953544,-7.9799314,-2.2273684
2.452,21.854918,14.712534,11.306632,0.7303142,-7.989675,-2.2277887
2.454,21.965176,14.762242,11.2599535,0.77271384,-7.996339,-2.2278047
2.456,22.071138,14.814733,11.213906,0.81684476,-7.9996996,-2.227347
2.458,22.172415,14.869983,11.168003,0.8627774,-7.999559,-2.2263193
2.46,22.268805,14.92787,11.121641,0.9105609,-7.9958115,-2.22464
2.462,22.360098,14.988387,11.07446,0.9602097,-7.9884033,-2.222208
2.464,22.44596,15.05142,11.026221,1.0117009,-7.977326,-2.2189357
2.466,22.526283,15.116799,10.976562,1.064986,-7.962642,-2.2147503
2.468,22.60097,15.184337,10.92527,1.1199703,-7.9444857,-2.2096038
2.47,22.669939,15.253867,10.872326,1.1765462,-7.923045,-2.2034442
2.472,22.733152,15.325117,10.817776,1.2345804,-7.898565,-2.1962328
2.474,22.790665,15.397975,10.7618,1.2939204,-7.871328,-2.187942
2.476,22.842554,15.472266,10.704458,1.3544105,-7.8416457,-2.1785545
2.478,22.888832,15.547842,10.6461,1.4158939,-7.809807,-2.1680477
2.48,22.929699,15.624662,10.586956,1.4782068,-7.776098,-2.1563773
2.482,22.96516,15.702468,10.527366,1.5412077,-7.740738,-2.1434793
2.484,22.995558,15.78121,10.467773,1.6047708,-7.7038484,-2.1292555
2.486,23.021,15.860817,10.408455,1.6688001,-7.665446,-2.1135724
2.488,23.04168,15.941094,10.349831,1.7332226,-7.62546,-2.0962794
2.49,23.057886,16.022001,10.292244,1.7980175,-7.5837164,-2.0772104
2.492,23.069818,16.103334,10.235961,1.8632122,-7.5399466,-2.056197
2.494,23.07794,16.185034,10.181106,1.9288567,-7.4938416,-2.033106
2.496,23.082512,16.26693,10.127983,1.9950542,-7.445076,-2.0078394
2.498,23.083885,16.348816,10.076607,2.061915,-7.393322,-1.9803395
2.5,23.082434,16.430481,10.027178,2.1295848,-7.3382864,-1.9505891
2.502,23.078548,16.51171,9.979646,2.198185,-7.279743,-1.9186484
2.504,23.072565,16.592245,9.934052,2.267825,-7.2175593,-1.8846499
2.506,23.06484,16.671959,9.890259,2.3385835,-7.1516986,-1.8487955
2.508,23.055758,16.75044,9.848201,2.4104934,-7.0822396,-1.8113613
2.51,23.045645,16.82735,9.807735,2.4835327,-7.0093637,-1.7726679
2.512,23.034771,16.902481,9.768631,2.5576735,-6.933373,-1.7330906
2.514,23.023355,16.975494,9.730703,2.6328416,-6.8546157,-1.6929891
2.516,23.011765,17.046051,9.693764,2.708945,-6.7734804,-1.6527101
2.518,23.000065,17.113956,9.657535,2.7858586,-6.690402,-1.6125059
2.52,22.988497,17.17906,9.621848,2.863457,-6.605764,-1.5725219
2.522,22.977037,17.241306,9.586575,2.9416237,-6.519915,-1.5327976
2.524,22.965893,17.300467,9.551617,3.02022,-6.4331365,-1.4932353
2.526,22.954859,17.356731,9.516736,3.0991082,-6.3456407,-1.4536375
2.528,22.943975,17.410162,9.48197,3.1781664,-6.2575636,-1.4137194
2.53,22.933126,17.460894,9.447052,3.2572744,-6.1689634,-1.3731565
2.532,22.922295,17.509193,9.411997,3.336328,-6.0798717,-1.3316282
2.534,22.911236,17.555315,9.376731,3.4152238,-5.990248,-1.2888527
2.536,22.899826,17.599653,9.341292,3.493882,-5.9000525,-1.2446095
2.538,22.88776,17.642561,9.305632,3.5722418,-5.809215,-1.1987531
2.54,22.874846,17.684486,9.269762,3.6502552,-5.71769,-1.1511979
2.542,22.860916,17.725777,9.233644,3.7278898,-5.625461,-1.1019276
2.544,22.8458,17.766838,9.197356,3.8051176,-5.532532,-1.0509582
2.546,22.829145,17.80812,9.160945,3.8819103,-5.4389873,-0.9983443
2.548,22.810745,17.84997,9.124475,3.958236,-5.3449254,-0.94413877
2.55,22.790565,17.892557,9.087901,4.0340605,-5.250524,-0.88842773
2.552,22.76849,17.936169,9.051291,4.109335,-5.155985,-0.83131516
2.554,22.744225,17.980944,9.014763,4.184018,-5.061548,-0.7729076
2.556,22.7178,18.026955,8.978301,4.2580333,-4.9674773,-0.7132988
2.558,22.68916,18.074183,8.941874,4.331305,-4.8740525,-0.65259707
2.56,22.658215,18.12255,8.905428,4.4037237,-4.7815437,-0.59090626
2.562,22.624874,18.172043,8.868982,4.4751835,-4.690209,-0.52830434
2.564,22.58921,18.222315,8.832586,4.545543,-4.60031,-0.46486676
2.566,22.551111,18.273052,8.796183,4.614622,-4.512082,-0.4006605
2.568,22.51064,18.323862,8.759654,4.6822186,-4.4257774,-0.3357396
2.57,22.467781,18.374239,8.722897,4.7481165,-4.341642,-0.27016544
2.572,22.422443,18.423622,8.685927,4.812078,-4.259914,-0.20401835
2.574,22.37496,18.471415,8.648413,4.873854,-4.180839,-0.1374178
2.576,22.325153,18.517136,8.610302,4.933185,-4.104642,-0.07050347
2.578,22.273052,18.560192,8.5714655,4.989824,-4.0315704,-0.0034615993
2.58,22.21867,18.600042,8.531707,5.0435314,-3.9618478,0.063483
2.582,22.161823,18.636108,8.490957,5.0940943,-3.8956878,0.13007045
2.584,22.10242,18.667727,8.4489975,5.1413383,-3.8332725,0.19602156
2.586,22.040306,18.694307,8.405785,5.1851315,-3.7747743,0.2610705
2.588,21.975176,18.71545,8.361265,5.225386,-3.7203193,0.3249526
2.59,21.906815,18.73053,8.315386,5.2620687,-3.6699753,0.3874538
2.592,21.834915,18.739328,8.268267,5.2951956,-3.623768,0.448411
2.594,21.75911,18.74162,8.219947,5.324839,-3.5816455,0.50770235
2.596,21.679066,18.737038,8.170507,5.3511114,-3.5434809,0.56530356
2.598,21.59449,18.725632,8.120074,5.374177,-3.509088,0.62121654
2.6,21.504948,18.707344,8.068781,5.3942156,-3.47818,0.67550254
2.602,21.409962,18.68238,8.016902,5.4114165,-3.4504306,0.7282486
2.604,21.308987,18.650908,7.9648714,5.42599,-3.4254568,0.7795906
2.606,21.201847,18.613132,7.912573,5.4381385,-3.402832,0.82968044
2.608,21.088055,18.569447,7.860404,5.4480495,-3.3821087,0.8786652
2.61,20.96735,18.520365,7.8084545,5.455893,-3.3628294,0.9266653
2.612,20.83953,18.466171,7.7570543,5.4618397,-3.3445036,0.9738139
2.614,20.704271,18.407362,7.70642,5.466048,-3.3266718,1.020228
2.616,20.561302,18.344358,7.6568117,5.4686522,-3.3089085,1.0659975
2.618,20.41065,18.277729,7.6084137,5.469788,-3.2908041,1.1112307
2.62,20.25224,18.2079,7.561347,5.469574,-3.2720163,1.1560262
2.622,20.086046,18.135374,7.5158195,5.4681263,-3.2522292,1.2004712
2.624,19.912413,18.060284,7.471859,5.4655485,-3.2312107,1.2446461
2.626,19.73137,17.983013,7.429736,5.461939,-3.208756,1.2886138
2.628,19.543238,17.903563,7.389555,5.457388,-3.1847339,1.3324374
2.63,19.348433,17.822014,7.351368,5.451964,-3.1590927,1.3761481
2.632,19.147362,17.738377,7.315305,5.445722,-3.131824,1.4197284
2.634,18.940441,17.652584,7.2812986,5.4387093,-3.1029599,1.4631575
2.636,18.728298,17.564339,7.249527,5.430921,-3.0725646,1.5064116
2.638,18.511362,17.47349,7.2198176,5.422327,-3.0407562,1.5494564
2.64,18.290476,17.379702,7.1922374,5.412866,-3.0076575,1.5922458
2.642,18.066265,17.282503,7.166648,5.4024353,-2.9734416,1.634761
2.644,17.839481,17.18156,7.1429534,5.3908854,-2.9382722,1.6770024
2.646,17.610777,17.076357,7.1208925,5.3780365,-2.9023376,1.7189977
2.648,17.381067,16.966444,7.1003656,5.363667,-2.865829,1.7607803
2.65,17.151007,16.851194,7.0812063,5.3475704,-2.8289342,1.8023596
2.652,16.92134,16.730278,7.0630355,5.3295374,-2.7918434,1.8437277
2.654,16.69277,16.603241,7.0456076,5.309379,-2.7547657,1.8848523
2.656,16.46578,16.469673,7.0286446,5.2869444,-2.7178955,1.9256831
2.658,16.241096,16.329254,7.0118265,5.2621326,-2.6814408,1.9661092
2.66,16.01922,16.181902,6.994903,5.234882,-2.6455896,2.0060089
2.662,15.800531,16.027372,6.977468,5.205191,-2.6105242,2.0452776
2.664,15.585604,15.865684,6.959284,5.173121,-2.576401,2.0838137
2.666,15.374493,15.696991,6.9400716,5.1387196,-2.5434017,2.121542
2.668,15.1676445,15.521362,6.919568,5.102089,-2.5116563,2.1583948
2.67,14.965097,15.339182,6.8976316,5.063332,-2.4812717,2.1943693
2.672,14.7669735,15.150812,6.874162,5.0225453,-2.4523478,2.229501
2.674,14.573214,14.956772,6.8488503,4.979817,-2.4249444,2.2638748
2.676,14.383679,14.757765,6.8217764,4.935218,-2.3991165,2.297608
2.678,14.198047,14.554558,6.7929235,4.8887987,-2.3748653,2.330848
2.68,14.016262,14.347919,6.762248,4.8406057,-2.3521705,2.36373
2.682,13.8379545,14.138698,6.7296805,4.790667,-2.3309743,2.3963997
2.684,13.662763,13.927786,6.695315,4.73902,-2.3111691,2.4289477
2.686,13.490292,13.71608,6.6592126,4.685706,-2.2926006,2.4614673
2.688,13.320323,13.504406,6.621372,4.630761,-2.2751255,2.493976
2.69,13.152444,13.293571,6.581975,4.574272,-2.2585602,2.526447
2.692,12.986242,13.084466,6.5410213,4.5163245,-2.242701,2.5588202
2.694,12.821515,12.877922,6.498595,4.4570093,-2.227347,2.5910015
2.696,12.657752,12.674552,6.4546857,4.3964424,-2.2123048,2.6228752
2.698,12.494835,12.474863,6.409341,4.3347273,-2.1974316,2.6543064
2.7,12.332399,12.279512,6.3626347,4.271963,-2.1826043,2.6851456
2.702,12.170216,12.088668,6.3145423,4.208248,-2.1677427,2.7152607
2.704,12.007984,11.902611,6.2649875,4.143636,-2.1528196,2.7445207
2.706,11.845605,11.721613,6.2140884,4.078166,-2.137838,2.7728004
2.708,11.682848,11.545635,6.1618624,4.0118504,-2.1228316,2.7999535
2.71,11.519427,11.374681,6.108384,3.9447072,-2.1078508,2.8258352
2.712,11.355667,11.208448,6.0536404,3.876738,-2.0929532,2.8503397
2.714,11.1912,11.04686,5.9976273,3.8079455,-2.0782058,2.8733716
2.716,11.026053,10.889618,5.940606,3.7383504,-2.063641,2.8948636
2.718,10.860298,10.736462,5.8826065,3.6679676,-2.049243,2.9148188
2.72,10.693793,10.586945,5.8238144,3.5968695,-2.0349586,2.9332783
2.722,10.52648,10.440935,5.7641783,3.5251179,-2.0206833,2.9503627
2.724,10.358574,10.298046,5.7038727,3.452797,-2.0062747,2.9662137
2.726,10.190193,10.157908,5.6430016,3.3800104,-1.991535,2.9810226
2.728,10.021139,10.020151,5.5817556,3.3068507,-1.9762552,2.9950085
2.73,9.851685,9.884567,5.5203123,3.233431,-1.9602036,3.0083895
2.732,9.681923,9.750886,5.45886,3.1598394,-1.9431477,3.0213733
2.734,9.51174,9.619039,5.39762,3.0861666,-1.9248737,3.0341496
2.736,9.3413925,9.488926,5.3366337,3.012498,-1.905195,3.0468717
2.738,9.171009,9.360571,5.276149,2.9388957,-1.8839617,3.059678
2.74,9.000698,9.233976,5.216241,2.8654065,-1.8610952,3.07265
2.742,8.830655,9.109074,5.1570606,2.7920513,-1.836549,3.085846
2.744,8.660943,8.986057,5.098823,2.7188265,-1.8103437,3.0992875
2.746,8.491858,8.864984,5.041647,2.6457202,-1.7825432,3.1129744
2.748,8.323454,8.745932,4.985756,2.5727077,-1.7532574,3.1268835
2.75,8.155773,8.629159,4.93126,2.499747,-1.7226017,3.1409874
2.752,7.989073,8.514732,4.8782244,2.4268055,-1.6907043,3.1552398
2.754,7.8232656,8.402895,4.8267646,2.3538454,-1.6576829,3.1696157
2.756,7.6585383,8.293846,4.7770844,2.280851,-1.623652,3.1840773
2.758,7.4947224,8.187823,4.72918,2.207817,-1.5887078,3.198622
2.76,7.3319535,8.084968,4.6830015,2.1347563,-1.5529339,3.2132428
2.762,7.1701393,7.9854355,4.638632,2.06171,-1.5163889,3.2279322
2.764,7.009182,7.889241,4.5961137,1.9887135,-1.4791415,3.2426639
2.766,6.8489943,7.796605,4.5554867,1.9158201,-1.4412662,3.2573776
2.768,6.6892085,7.7077565,4.516753,1.8430771,-1.4028344,3.2719817
2.77,6.5296073,7.6226563,4.479959,1.7705399,-1.3639307,3.2863712
2.772,6.3700933,7.5415053,4.4449472,1.6982818,-1.3246381,3.3004026
2.774,6.210495,7.464274,4.4115324,1.6263481,-1.2850425,3.3139312
2.776,6.0506,7.390951,4.379712,1.5548027,-1.2452365,3.326808
2.778,5.8900547,7.3216887,4.3493786,1.483701,-1.2053331,3.3389027
2.78,5.728731,7.2564626,4.3202043,1.4130986,-1.1654433,3.35011
2.782,5.566409,7.19518,4.292046,1.3430655,-1.125673,3.3603508
2.784,5.4028654,7.137826,4.2647758,1.2736361,-1.0861712,3.3695755
2.786,5.2379446,7.084432,4.238106,1.2048548,-1.0470924,3.3777447
2.788,5.0715384,7.0348034,4.211912,1.1367509,-1.0086225,3.384811
2.79,4.9033546,6.9889283,4.185933,1.0693654,-0.9709444,3.3907278
2.792,4.7333283,6.946663,4.1599054,1.0027468,-0.9342559,3.3954463
2.794,4.5612707,6.9078507,4.133635,0.9369177,-0.89878654,3.3989325
2.796,4.3872643,6.8722916,4.106941,0.8719206,-0.86474615,3.4011502
2.798,4.211075,6.8398466,4.079628,0.80779266,-0.8323166,3.4020605
2.8,4.032736,6.8104033,4.0513706,0.7445688,-0.80165994,3.4016404
2.802,3.8522487,6.7837577,4.021996,0.68226933,-0.77291405,3.3998795
2.804,3.6697822,6.7594805,3.991228,0.6208837,-0.7462274,3.3967764
2.806,3.4854193,6.7376018,3.9589221,0.560399,-0.7217001,3.3923514
2.808,3.2992246,6.717863,3.9248316,0.50079626,-0.6993965,3.3866053
2.81,3.1113439,6.699993,3.8886418,0.44202292,-0.6793226,3.3795266
2.812,2.9220943,6.6838913,3.8501458,0.38401926,-0.6614301,3.3710659
2.814,2.731717,6.669335,3.8091314,0.3267408,-0.64560556,3.361145
2.816,2.5403695,6.656189,3.7652545,0.2701497,-0.63166744,3.3496704
2.818,2.3483696,6.6442885,3.7184758,0.21422893,-0.61937183,3.33653
2.82,2.1561217,6.6335373,3.6683745,0.1589886,-0.608431,3.3216262
2.822,1.9636186,6.6239405,3.614824,0.10448468,-0.5985656,3.3048918
2.824,1.7713206,6.615243,3.557513,0.050782263,-0.5895258,3.2862878
2.826,1.5793962,6.6075063,3.49622,-0.0020406246,-0.5811192,3.2658477
2.828,1.3880788,6.600526,3.430789,-0.053889275,-0.57321626,3.24365
2.83,1.1975465,6.5943522,3.361036,-0.10469079,-0.5657526,3.2198021
2.832,1.0080196,6.58904,3.2868834,-0.15437663,-0.5587318,3.194452
2.834,0.8195715,6.584534,3.2081804,-0.20291823,-0.5522496,3.1677449
2.836,0.6321224,6.5809207,3.1249118,-0.25031987,-0.5464275,3.1398308
2.838,0.44595328,6.5784435,3.037197,-0.29660395,-0.54138625,3.1108377
2.84,0.260953,6.577007,2.9449906,-0.3418264,-0.5372535,3.0808663
2.842,0.077064306,6.576748,2.8484213,-0.38604903,-0.53411835,3.0499928
2.844,-0.10580887,6.5778,2.747641,-0.42936066,-0.5320396,3.018271
2.846,-0.28773144,6.5802393,2.6428483,-0.4718246,-0.5310283,2.9857435
2.848,-0.4687859,6.584078,2.5342658,-0.51349306,-0.5310561,2.9524252
2.85,-0.64896095,6.58935,2.4222343,-0.5544066,-0.5320832,2.9183557
2.852,-0.8284594,6.596123,2.3070462,-0.59460014,-0.53405344,2.883582
2.854,-1.0072396,6.604428,2.1890626,-0.6340928,-0.5368817,2.8481588
2.856,-1.1857963,6.6142554,2.068941,-0.67290133,-0.54046434,2.8121448
2.858,-1.363796,6.625705,1.9469523,-0.7110336,-0.5446861,2.7755876
2.86,-1.5413067,6.6387815,1.8235744,-0.7485137,-0.54944634,2.7385488
2.862,-1.7183732,6.653506,1.6993405,-0.7853784,-0.55465096,2.701087
2.864,-1.8947676,6.66978,1.5746758,-0.8216784,-0.56022775,2.6632512
2.866,-2.0704885,6.6875186,1.4500866,-0.85745835,-0.56609726,2.6250858
2.868,-2.2453337,6.706679,1.3261185,-0.8927877,-0.5721847,2.58664
2.87,-2.4192262,6.727234,1.2032511,-0.9277244,-0.5784381,2.547938
2.872,-2.5920072,6.7491407,1.0820212,-0.9623211,-0.5847983,2.509034
2.874,-2.7634559,6.7723546,0.9627526,-0.9966307,-0.59121716,2.4700005
2.876,-2.933299,6.7966003,0.84587365,-1.0307194,-0.597646,2.430896
2.878,-3.101232,6.821784,0.73171955,-1.0646479,-0.60405374,2.3918045
2.88,-3.2672844,6.8479123,0.6205701,-1.0984612,-0.6104374,2.3528254
2.882,-3.4314024,6.874832,0.51286495,-1.1322118,-0.6167999,2.314059
2.884,-3.5934541,6.902604,0.40887362,-1.1659584,-0.62319523,2.2755775
2.886,-3.7532797,6.9312315,0.30859584,-1.1997657,-0.629625,2.2374258
2.888,-3.910675,6.9605985,0.2120986,-1.2336745,-0.6360723,2.1996286
2.89,-4.065699,6.9907846,0.11953032,-1.267747,-0.6425235,2.162123
2.892,-4.218302,7.02191,0.030674875,-1.3020322,-0.6488996,2.1248186
2.894,-4.3683085,7.0540175,-0.054387033,-1.3365667,-0.65505946,2.0876184
2.896,-4.5157156,7.0870686,-0.13577014,-1.3713694,-0.66081506,2.0504248
2.898,-4.6605244,7.12127,-0.2135427,-1.4064176,-0.6659132,2.0131671
2.9,-4.8029327,7.156885,-0.2878471,-1.4416538,-0.67004484,1.9758153
2.902,-4.9428215,7.1941047,-0.35906696,-1.4769685,-0.67285436,1.9384172
2.904,-5.0801654,7.233096,-0.42756486,-1.5122186,-0.6739694,1.9010667
2.906,-5.215029,7.274038,-0.4936633,-1.5472176,-0.67303246,1.8639282
2.908,-5.3472724,7.3171577,-0.55764294,-1.5817486,-0.66970843,1.8271922
2.91,-5.4770274,7.36274,-0.61985123,-1.6155795,-0.66370535,1.7910581
2.912,-5.604147,7.4108267,-0.68067217,-1.6484934,-0.6547811,1.7557284
2.914,-5.728841,7.461791,-0.7403834,-1.6802878,-0.6427703,1.7213392
2.916,-5.8510113,7.515677,-0.7994735,-1.7107759,-0.6275753,1.6879845
2.918,-5.9705243,7.5727916,-0.8582902,-1.73981,-0.609133,1.6557068
2.92,-6.0873656,7.6331606,-0.9172462,-1.7672815,-0.58744496,1.6244931
2.922,-6.201436,7.6969957,-0.9768419,-1.7931019,-0.5625065,1.5942801
2.924,-6.3126335,7.764366,-1.0374352,-1.8172414,-0.53432524,1.5649674
2.926,-6.420685,7.835296,-1.0993599,-1.8397034,-0.50294757,1.5364299
2.928,-6.525649,7.909865,-1.1632644,-1.8605199,-0.4684002,1.5085253
2.93,-6.627227,7.98802,-1.2292876,-1.8797381,-0.43070287,1.48114
2.932,-6.7252107,8.069664,-1.2978154,-1.8974433,-0.3898875,1.4541684
2.934,-6.8193874,8.154858,-1.3690648,-1.9137628,-0.3460064,1.4275234
2.936,-6.909642,8.243381,-1.4431361,-1.9288433,-0.29916847,1.4011378
2.938,-6.995728,8.335217,-1.5204066,-1.9428511,-0.24954033,1.3749784
2.94,-7.0773115,8.430107,-1.600976,-1.9559565,-0.19739959,1.3490107
2.942,-7.1543465,8.527882,-1.6848785,-1.9683778,-0.14307353,1.3232021
2.944,-7.2266145,8.628384,-1.7721487,-1.9803016,-0.08695674,1.2975438
2.946,-7.293779,8.731363,-1.862738,-1.9919282,-0.0295147,1.2719988
2.948,-7.355819,8.8365345,-1.956612,-2.003457,0.028758883,1.2464994
2.95,-7.412733,8.943783,-2.0534573,-2.0150564,0.08740619,1.2209711
2.952,-7.464282,9.052844,-2.153151,-2.0268717,0.14599597,1.1953303
2.954,-7.5103545,9.16353,-2.255262,-2.039009,0.20416665,1.1694821
2.956,-7.5509963,9.275445,-2.3595977,-2.051547,0.26164877,1.1433291
2.958,-7.586136,9.388437,-2.4657865,-2.0645053,0.3182584,1.1167868
2.96,-7.6160045,9.502391,-2.5735419,-2.0778668,0.3739233,1.0897703
2.962,-7.64041,9.6170225,-2.6825645,-2.0915742,0.42867273,1.0622202
2.964,-7.659531,9.732139,-2.7926345,-2.1055517,0.48260844,1.0340865
2.966,-7.673168,9.847572,-2.90383,-2.1196887,0.5358907,1.0053343
2.968,-7.6817055,9.96325,-3.0158494,-2.1338909,0.5887126,0.9759587
2.97,-7.68523,10.0789995,-3.1284487,-2.148052,0.64127314,0.94596606
2.972,-7.6837883,10.1948185,-3.24165,-2.1620767,0.69376147,0.9153589
2.974,-7.6775045,10.310613,-3.355338,-2.1759105,0.7463511,0.88414955
2.976,-7.666478,10.42648,-3.469521,-2.1895113,0.79914236,0.8523518
2.978,-7.650724,10.542345,-3.5843592,-2.2028644,0.8522035,0.82001656
2.98,-7.6302013,10.658249,-3.69973,-2.2159808,0.9055699,0.7871878
2.982,-7.604971,10.774175,-3.8158092,-2.228898,0.95918936,0.75391376
2.984,-7.5750384,10.890426,-3.9326203,-2.2416797,1.0129576,0.7202616
2.986,-7.540431,11.00708,-4.050165,-2.2543836,1.0667381,0.68629825
2.988,-7.5009165,11.124264,-4.16854,-2.2670665,1.1203697,0.65208286
2.99,-7.456478,11.242132,-4.2876983,-2.2797682,1.1736944,0.61769295
2.992,-7.4068937,11.360834,-4.407501,-2.2924943,1.2265532,0.58319354
2.994,-7.3522367,11.480519,-4.5278306,-2.305225,1.2787842,0.54864115
2.996,-7.292301,11.60121,-4.6484613,-2.3178785,1.3302546,0.5140862
2.998,-7.2269163,11.723071,-4.7691264,-2.3303552,1.3808628,0.47956923
3,-7.155965,11.846065,-4.8896236,-2.342516,1.4305391,0.4451252
3.002,-7.079314,11.970196,-5.0096025,-2.3542094,1.479249,0.41077062
3.004,-6.9970083,12.095485,-5.1289124,-2.3652947,1.526994,0.3765097
3.006,-6.9089003,12.221851,-5.2474036,-2.3756473,1.5738206,0.34232938
3.008,-6.8149586,12.349175,-5.3648562,-2.3851871,1.6198004,0.30822048
3.01,-6.714998,12.477203,-5.4808927,-2.3938627,1.665018,0.27415627
3.012,-6.609155,12.605745,-5.5953093,-2.4016771,1.7095641,0.24008158
3.014,-6.497505,12.734748,-5.7078605,-2.4086738,1.7535055,0.2059344
3.016,-6.380149,12.863838,-5.8185067,-2.4149446,1.7968779,0.17161444
3.018,-6.257312,12.992761,-5.9271536,-2.4205923,1.8397124,0.13701376
3.02,-6.129039,13.121115,-6.0337515,-2.425743,1.8820069,0.10200521
3.022,-5.995632,13.248788,-6.1381807,-2.4305172,1.9237412,0.06643695
3.024,-5.8573246,13.375406,-6.2405066,-2.4350493,1.9648947,0.030177295
3.026,-5.714286,13.500593,-6.340711,-2.439443,2.0054145,-0.0068847835
3.028,-5.5669427,13.623956,-6.4388666,-2.4437902,2.0452604,-0.04484278
3.03,-5.4155917,13.745282,-6.534869,-2.448154,2.0844104,-0.08376446
3.032,-5.2607183,13.864332,-6.6287622,-2.452538,2.122848,-0.1236825
3.034,-5.1025295,13.980799,-6.720581,-2.4569101,2.1605797,-0.16459277
3.036,-4.9414997,14.094479,-6.810459,-2.4612172,2.1976418,-0.20645252
3.038,-4.777907,14.205175,-6.898272,-2.4653583,2.2340765,-0.24920812
3.04,-4.612268,14.312741,-6.984268,-2.4692104,2.269946,-0.29279333
3.042,-4.444845,14.4171715,-7.0685425,-2.4726362,2.3053274,-0.33712438
3.044,-4.275971,14.51829,-7.151162,-2.475496,2.3402996,-0.38210377
3.046,-4.1059985,14.616057,-7.232307,-2.4776697,2.3749568,-0.42764178
3.048,-3.9351678,14.710508,-7.3120003,-2.4790485,2.4093862,-0.47365198
3.05,-3.7637157,14.801683,-7.3902435,-2.479575,2.4436452,-0.52004737
3.052,-3.5918474,14.88951,-7.467217,-2.4792085,2.4777725,-0.5667343
3.054,-3.4198918,14.974109,-7.5429635,-2.477967,2.5117493,-0.61362386
3.056,-3.248014,15.055537,-7.617488,-2.4759033,2.5455136,-0.66061705
3.058,-3.0762606,15.133867,-7.690843,-2.4730978,2.5789533,-0.7076193
3.06,-2.9047232,15.209189,-7.7631197,-2.469667,2.6119213,-0.75454235
3.062,-2.7383852,15.280372,-7.8327765,-2.4657168,2.6442618,-0.8013032
3.064,-2.5736165,15.3485,-7.9011064,-2.4613605,2.6758275,-0.8478215
3.066,-2.4107203,15.413791,-7.9678826,-2.4567142,2.7064877,-0.8940306
3.068,-2.249981,15.476277,-8.033031,-2.4518757,2.7361531,-0.93985224
3.07,-2.0915632,15.535973,-8.096362,-2.4469104,2.764799,-0.9852103
3.072,-1.935854,15.593019,-8.157721,-2.4418666,2.7924533,-1.0300319
3.074,-1.7830925,15.647451,-8.216875,-2.4367557,2.8192155,-1.0742407
3.076,-1.6335034,15.699356,-8.273612,-2.431572,2.845248,-1.1177595
3.078,-1.4873805,15.748689,-8.327753,-2.4262714,2.8707519,-1.1605091
3.08,-1.3449316,15.795532,-8.379245,-2.420806,2.89597,-1.2024062
3.082,-1.206399,15.839945,-8.427964,-2.4150996,2.921136,-1.2433643
3.084,-1.072,15.882036,-8.473845,-2.4090831,2.9464812,-1.2832979
3.086,-0.9418626,15.921786,-8.5168705,-2.402685,2.972191,-1.3221517
3.088,-0.816267,15.959308,-8.556886,-2.3958573,2.9983778,-1.3598723
3.09,-0.6953316,15.994711,-8.594028,-2.3888845,3.0241919,-1.3953147
3.092,-0.57904863,16.028034,-8.62827,-2.3816001,3.0500524,-1.4290307
3.094,-0.46751356,16.059275,-8.6596775,-2.3740795,3.075707,-1.4608643
3.096,-0.36066055,16.088581,-8.688408,-2.3664193,3.1008317,-1.4906759
3.098,-0.2587309,16.115995,-8.714489,-2.3587453,3.1250706,-1.5183622
3.1,-0.16140366,16.14159,-8.73811,-2.3511956,3.1480825,-1.5438519
3.102,-0.06881428,16.16547,-8.759487,-2.3439023,3.169571,-1.5671163
3.104,0.019299984,16.18768,-8.77883,-2.3369641,3.189322,-1.5881798
3.106,0.1029706,16.20839,-8.796245,-2.3304741,3.2072113,-1.6071265
3.108,0.18225193,16.227654,-8.8119755,-2.3244872,3.2232168,-1.624073
3.11,0.25752306,16.24554,-8.826184,-2.3190198,3.237391,-1.6391717
3.112,0.32883453,16.262192,-8.839072,-2.3140802,3.2498455,-1.6525886
